seq,ax,ay,az,wroll,wpitch,wyaw,roll,pitch,yaw,q0,q1,q2,q3
62,0.081671,-0.328412,9.917795,0.146145,-0.671835,0.109437,-1.896567,-0.471550,0.015614,0.999855,-0.016549,-0.004117,0.000068
63,0.050085,-0.275878,9.942628,-0.586145,-0.316203,-0.047732,-1.863628,-0.449970,0.014856,0.999860,-0.016262,-0.003928,0.000066
64,0.071465,-0.275494,9.922168,-1.158077,-0.137559,0.219306,-1.810501,-0.426200,0.017325,0.999868,-0.015798,-0.003721,0.000092
65,0.081863,-0.289961,9.921908,-1.257058,-0.134512,0.568741,-1.792807,-0.431574,0.030155,0.999871,-0.015643,-0.003770,0.000204
66,0.082840,-0.316190,9.929941,-1.279893,0.083649,0.568739,-1.820282,-0.444924,0.049022,0.999866,-0.015883,-0.003889,0.000366
67,0.074694,-0.358479,9.929410,-1.292240,0.057692,0.579422,-1.902732,-0.446473,0.068386,0.999855,-0.016601,-0.003906,0.000532
68,0.074167,-0.364709,9.921944,-1.048317,-0.639640,0.841883,-2.005642,-0.450726,0.092884,0.999839,-0.017498,-0.003947,0.000742
69,0.070871,-0.374857,9.910821,-0.737209,-1.356795,0.954804,-2.087051,-0.474442,0.124385,0.999825,-0.018207,-0.004159,0.001010
70,0.075446,-0.398592,9.899150,-0.751133,-1.481881,0.899874,-2.165853,-0.509323,0.157447,0.999811,-0.018893,-0.004470,0.001290
71,0.087923,-0.389691,9.889475,-0.832162,-1.429980,0.814424,-2.236359,-0.551270,0.188223,0.999797,-0.019507,-0.004842,0.001548
72,0.100500,-0.363730,9.889643,-0.685653,-1.423892,0.796112,-2.256373,-0.602030,0.216843,0.999791,-0.019679,-0.005290,0.001788
73,0.106515,-0.370444,9.911940,-0.575663,-1.106521,0.805266,-2.242847,-0.649331,0.244813,0.999790,-0.019559,-0.005707,0.002025
74,0.115676,-0.387748,9.925763,-0.632061,-0.696062,0.696923,-2.246029,-0.682775,0.270825,0.999788,-0.019585,-0.006003,0.002246
75,0.116880,-0.375821,9.930457,-0.592345,-0.726586,0.580953,-2.254745,-0.706895,0.292900,0.999785,-0.019659,-0.006218,0.002434
76,0.109934,-0.379135,9.924795,-0.506820,-0.847093,0.617575,-2.252677,-0.720750,0.313642,0.999784,-0.019639,-0.006342,0.002613
77,0.111115,-0.405402,9.909816,-0.593809,-0.691372,0.693875,-2.274549,-0.724029,0.336537,0.999779,-0.019829,-0.006375,0.002811
78,0.113896,-0.417441,9.894590,-0.683955,-0.445626,0.548916,-2.328869,-0.721731,0.358396,0.999769,-0.020302,-0.006360,0.002999
79,0.109269,-0.412235,9.885939,-0.639803,-0.050335,0.307824,-2.379474,-0.707566,0.373343,0.999761,-0.020743,-0.006241,0.003129
80,0.103665,-0.419810,9.899953,-0.508626,0.442637,0.098777,-2.413941,-0.672815,0.380015,0.999756,-0.021044,-0.005940,0.003192
81,0.104925,-0.419063,9.920460,-0.429306,0.583111,0.005700,-2.437184,-0.630791,0.381113,0.999754,-0.021248,-0.005574,0.003208
82,0.116400,-0.408483,9.937755,-0.232422,0.360340,0.013329,-2.437089,-0.611148,0.380636,0.999754,-0.021248,-0.005403,0.003207
83,0.115826,-0.409778,9.937265,0.010280,0.239744,-0.145370,-2.418216,-0.614819,0.377768,0.999758,-0.021083,-0.005434,0.003183
84,0.115573,-0.402669,9.922543,0.225520,-0.019718,-0.249136,-2.390115,-0.626736,0.370781,0.999763,-0.020838,-0.005536,0.003121
85,0.110585,-0.391749,9.899652,0.333971,-0.161661,-0.221672,-2.349772,-0.639250,0.362723,0.999770,-0.020486,-0.005642,0.003050
86,0.106003,-0.391938,9.901737,0.353911,0.268657,-0.468873,-2.308851,-0.636008,0.350825,0.999777,-0.020130,-0.005611,0.002949
87,0.104179,-0.391325,9.894472,0.173915,0.718834,-0.766428,-2.281828,-0.611944,0.329395,0.999784,-0.019896,-0.005396,0.002768
88,0.106259,-0.391074,9.908247,0.205992,0.798198,-0.693183,-2.265946,-0.583224,0.303982,0.999788,-0.019759,-0.005141,0.002552
89,0.091417,-0.405698,9.921387,0.228854,0.947766,-0.893077,-2.266088,-0.547580,0.276489,0.999790,-0.019762,-0.004825,0.002318
90,0.087352,-0.403757,9.927214,0.231837,1.051578,-1.015149,-2.277742,-0.501436,0.243579,0.999791,-0.019866,-0.004417,0.002038
91,0.089472,-0.406763,9.924368,0.416407,0.773874,-0.636719,-2.285427,-0.467997,0.215027,0.999791,-0.019935,-0.004121,0.001795
92,0.077038,-0.391005,9.931817,0.485055,0.654857,-0.536007,-2.275675,-0.443669,0.194600,0.999794,-0.019851,-0.003905,0.001621
93,0.069129,-0.386995,9.927567,0.469833,0.773913,-0.641295,-2.249092,-0.410882,0.173974,0.999800,-0.019620,-0.003615,0.001448
94,0.075123,-0.383012,9.897903,0.576686,0.831909,-0.529902,-2.220688,-0.381874,0.153347,0.999806,-0.019373,-0.003358,0.001273
95,0.065246,-0.387625,9.914485,0.570589,1.132507,-0.729798,-2.199326,-0.352593,0.131087,0.999811,-0.019188,-0.003098,0.001085
96,0.053405,-0.379829,9.913287,0.462242,1.662028,-1.179946,-2.183784,-0.300290,0.097512,0.999815,-0.019054,-0.002636,0.000801
97,0.051126,-0.386403,9.911454,0.686531,2.060318,-1.182996,-2.170634,-0.232833,0.055834,0.999818,-0.018940,-0.002041,0.000449
98,0.037300,-0.386068,9.913974,0.523203,2.235812,-0.906803,-2.165675,-0.159427,0.018389,0.999820,-0.018898,-0.001394,0.000134
99,0.017753,-0.377243,9.948303,0.364474,2.301464,-0.590935,-2.160091,-0.074222,-0.009373,0.999822,-0.018849,-0.000646,-0.000094
100,0.022030,-0.385006,9.907669,0.474305,2.161080,-0.224713,-2.156194,0.000181,-0.025742,0.999823,-0.018815,0.000006,-0.000225
101,0.016305,-0.380334,9.875259,0.516974,2.283080,0.091151,-2.155920,0.053177,-0.030743,0.999823,-0.018813,0.000469,-0.000260
102,-0.007592,-0.377591,9.849875,0.626796,2.858303,0.336823,-2.149434,0.124375,-0.026839,0.999824,-0.018756,0.001090,-0.000214
103,-0.010897,-0.388948,9.849119,0.934959,3.822652,0.405488,-2.144837,0.226181,-0.018688,0.999823,-0.018716,0.001977,-0.000126
104,-0.032719,-0.371846,9.874953,0.913532,5.076915,0.274257,-2.131521,0.361013,-0.012946,0.999822,-0.018600,0.003152,-0.000054
105,-0.085230,-0.358619,9.930365,0.736551,5.926901,0.234584,-2.096689,0.557905,-0.011177,0.999821,-0.018295,0.004870,-0.000008
106,-0.133591,-0.360723,9.961787,0.657246,6.290243,0.164398,-2.061261,0.809841,-0.011804,0.999813,-0.017986,0.007068,0.000024
107,-0.174044,-0.373311,9.986870,0.503099,6.291967,-0.096528,-2.050043,1.075799,-0.018310,0.999796,-0.017887,0.009389,0.000008
108,-0.287677,-0.359925,9.981403,0.615970,7.677888,0.069811,-2.044978,1.416395,-0.027285,0.999764,-0.017841,0.012362,-0.000017
109,-0.333787,-0.371400,9.930223,-0.285895,10.411297,0.255990,-2.052076,1.853109,-0.032919,0.999709,-0.017900,0.016173,0.000002
110,-0.406667,-0.380299,9.904821,-1.558609,13.965554,0.663423,-2.108691,2.366310,-0.033215,0.999618,-0.018391,0.020650,0.000090
112,-0.499710,-0.396447,9.896904,-1.812036,17.739548,1.751417,-2.199200,3.004026,-0.014334,0.999472,-0.019181,0.026210,0.000378
113,-0.666192,-0.411523,9.910427,-2.192128,22.304102,2.967592,-2.301514,3.818477,0.036119,0.999243,-0.020082,0.033303,0.000984
114,-0.774429,-0.399021,9.863005,-2.686601,24.128147,2.998129,-2.398406,4.755694,0.102551,0.998919,-0.020948,0.041462,0.001762
115,-0.954370,-0.424393,9.855100,-2.021327,23.591560,3.024090,-2.479575,5.707279,0.168370,0.998524,-0.021683,0.049741,0.002544
116,-1.090612,-0.472317,9.848160,-0.846489,22.882521,3.042411,-2.555595,6.631602,0.232145,0.998073,-0.022380,0.057780,0.003312
117,-1.261282,-0.484531,9.815569,-0.257680,23.140886,2.094810,-2.624738,7.538402,0.277082,0.997569,-0.023012,0.065665,0.003918
118,-1.389132,-0.478086,9.788050,0.175519,22.978065,1.429507,-2.669797,8.437611,0.294669,0.997012,-0.023422,0.073486,0.004278
119,-1.485312,-0.475037,9.787864,0.558424,22.804379,1.186883,-2.686120,9.277334,0.298589,0.996442,-0.023572,0.080788,0.004492
120,-1.621107,-0.455260,9.774871,0.743028,23.558302,1.073965,-2.673667,10.083893,0.298798,0.995851,-0.023469,0.087800,0.004647
121,-1.765409,-0.419350,9.728306,1.028457,23.466866,0.381215,-2.622429,10.902051,0.290848,0.995208,-0.023021,0.094912,0.004700
122,-1.900685,-0.395708,9.734231,1.236164,22.592632,0.835981,-2.534268,11.704858,0.286190,0.994536,-0.022253,0.101886,0.004739
123,-1.997054,-0.380901,9.684488,1.665157,20.891253,0.803979,-2.425392,12.438106,0.294158,0.993883,-0.021317,0.108251,0.004844
124,-2.114073,-0.358376,9.663394,1.982759,20.027514,1.045117,-2.301830,13.102910,0.309916,0.993260,-0.020263,0.114018,0.004978
125,-2.251126,-0.376795,9.667457,2.252981,19.287395,1.176375,-2.188954,13.747339,0.330166,0.992621,-0.019308,0.119604,0.005146
126,-2.336323,-0.354270,9.659472,2.657407,17.550831,1.515141,-2.084769,14.345144,0.356632,0.991999,-0.018438,0.124781,0.005359
127,-2.395032,-0.373953,9.634473,2.597879,15.353292,1.222151,-1.995689,14.835926,0.382134,0.991467,-0.017699,0.129029,0.005555
128,-2.459426,-0.345922,9.607813,2.748873,13.791941,0.805544,-1.923796,15.228893,0.394288,0.991029,-0.017095,0.132430,0.005634
129,-2.572452,-0.363275,9.598573,2.686202,13.188930,0.141727,-1.865994,15.602078,0.386527,0.990601,-0.016590,0.135660,0.005552
130,-2.566911,-0.353825,9.518879,2.798943,12.842262,-0.499219,-1.834208,15.955161,0.351339,0.990184,-0.016276,0.138719,0.005257
131,-2.637371,-0.339515,9.477078,2.890332,15.228461,-1.124907,-1.802747,16.322748,0.293747,0.989741,-0.015936,0.141904,0.004770
132,-2.753689,-0.323790,9.429984,2.852051,18.624996,-1.669707,-1.766803,16.835682,0.215512,0.989103,-0.015527,0.146345,0.004117
133,-2.837689,-0.333842,9.369557,2.641323,21.678356,-1.941367,-1.746836,17.500006,0.117626,0.988244,-0.015222,0.152090,0.003333
134,-2.959787,-0.335091,9.307214,2.390869,24.997297,-2.402257,-1.756807,18.289631,-0.002011,0.987174,-0.015133,0.158912,0.002419
135,-3.141637,-0.301323,9.307450,1.757470,27.872324,-2.277170,-1.767398,19.219297,-0.126371,0.985853,-0.015022,0.166932,0.001487
136,-3.321080,-0.354959,9.266844,1.003488,29.180357,-1.558510,-1.810739,20.256626,-0.243974,0.984297,-0.015180,0.175864,0.000683
137,-3.473589,-0.349289,9.212007,1.033745,29.037251,-1.592163,-1.892678,21.317526,-0.362249,0.982617,-0.015646,0.184985,-0.000051
138,-3.647712,-0.336325,9.177968,0.806196,28.082300,-1.998122,-1.959340,22.344898,-0.482549,0.980910,-0.015958,0.193803,-0.000818
139,-3.815545,-0.312863,9.163542,0.879376,26.823635,-1.265695,-1.989043,23.320566,-0.583608,0.979221,-0.015969,0.202162,-0.001479
140,-3.938858,-0.326150,9.080358,1.627059,24.681374,-0.723996,-1.981831,24.216082,-0.654937,0.977612,-0.015710,0.209818,-0.001960
141,-4.051756,-0.269994,9.013710,1.802602,22.781630,-1.218366,-1.930790,25.015617,-0.711435,0.976132,-0.015104,0.216640,-0.002411
142,-4.155115,-0.276336,8.987869,1.157270,20.813099,-1.126752,-1.864688,25.715422,-0.761797,0.974799,-0.014384,0.222602,-0.002859
143,-4.225606,-0.278485,8.922127,1.204651,19.750828,-0.517879,-1.822910,26.326664,-0.805316,0.973603,-0.013889,0.227802,-0.003220
144,-4.279249,-0.297222,8.851305,1.538822,19.784054,-0.183716,-1.795983,26.887022,-0.842903,0.972481,-0.013533,0.232564,-0.003510
145,-4.399916,-0.311848,8.802998,1.578396,20.804569,-0.830769,-1.799289,27.468937,-0.901842,0.971286,-0.013383,0.237506,-0.003916
146,-4.510967,-0.282438,8.751146,2.153586,21.481871,-1.157367,-1.796458,28.113262,-0.978046,0.969934,-0.013134,0.242972,-0.004471
147,-4.636125,-0.240776,8.658643,2.886074,22.356163,-1.477790,-1.732044,28.824375,-1.045722,0.968414,-0.012367,0.248991,-0.005076
148,-4.796869,-0.252096,8.643943,2.632847,22.324207,-1.615078,-1.652737,29.592314,-1.116369,0.966730,-0.011456,0.255478,-0.005735
149,-4.892457,-0.252504,8.579548,2.184233,20.418430,-1.842434,-1.614280,30.332855,-1.204875,0.965060,-0.010845,0.261726,-0.006462
150,-4.947045,-0.212489,8.508332,1.949283,18.414862,-1.380055,-1.571783,30.970387,-1.280075,0.963590,-0.010235,0.267095,-0.007102
151,-5.036613,-0.242499,8.471831,1.097849,16.322664,-1.015343,-1.542274,31.504061,-1.338871,0.962336,-0.009781,0.271583,-0.007590
152,-5.067051,-0.259151,8.436613,0.888719,14.685056,-0.633918,-1.565366,31.937523,-1.403622,0.961296,-0.009762,0.275228,-0.008017
153,-5.117382,-0.228507,8.344891,1.198421,15.507174,-0.824705,-1.578198,32.338318,-1.460997,0.960324,-0.009676,0.278594,-0.008409
154,-5.241716,-0.187166,8.287951,1.091683,17.940849,-0.482855,-1.533648,32.845863,-1.488745,0.959083,-0.009163,0.282843,-0.008677
155,-5.371464,-0.154472,8.224064,1.290249,21.209478,0.776162,-1.422615,33.526611,-1.460248,0.957399,-0.008211,0.288524,-0.008620
156,-5.480271,-0.165231,8.129689,1.545266,24.244822,1.537729,-1.284925,34.364758,-1.393384,0.955279,-0.007120,0.295504,-0.008304
157,-5.605656,-0.157909,8.036779,1.884130,26.720238,2.146653,-1.152857,35.319111,-1.315539,0.952800,-0.006103,0.303435,-0.007887
158,-5.781386,-0.181651,8.000508,1.813940,27.279121,3.045433,-1.039636,36.332363,-1.229226,0.950093,-0.005276,0.311836,-0.007363
159,-5.860775,-0.176502,7.903738,2.137342,25.623774,2.818007,-0.953523,37.294811,-1.150591,0.947450,-0.004673,0.319795,-0.006853
160,-5.958162,-0.188849,7.851389,1.946443,22.834425,1.430822,-0.912085,38.115200,-1.120486,0.945141,-0.004330,0.326566,-0.006643
161,-6.054388,-0.179309,7.796721,1.961506,20.850574,1.163632,-0.911057,38.801373,-1.134746,0.943169,-0.004209,0.332220,-0.006699
162,-6.148574,-0.167883,7.723045,1.390640,19.129118,0.601952,-0.919545,39.407032,-1.160029,0.941399,-0.004141,0.337201,-0.006825
163,-6.177392,-0.150439,7.632105,1.283701,17.834869,-0.046670,-0.934142,39.947834,-1.197855,0.939795,-0.004091,0.341642,-0.007040
164,-6.254587,-0.176530,7.572683,0.805949,17.230295,-0.893676,-0.986468,40.444145,-1.273130,0.938300,-0.004237,0.345715,-0.007449
165,-6.319237,-0.172485,7.494500,0.576900,17.207142,-1.179165,-1.080842,40.941429,-1.383175,0.936781,-0.004615,0.349794,-0.008009
166,-6.412874,-0.158423,7.430227,0.064087,17.495367,-1.650767,-1.172194,41.469288,-1.493938,0.935149,-0.004951,0.354117,-0.008570
167,-6.501893,-0.154187,7.362808,-0.105327,17.748606,-1.638593,-1.250953,42.036278,-1.595866,0.933375,-0.005195,0.358749,-0.009084
168,-6.591157,-0.141457,7.295846,0.399778,18.862537,-1.397476,-1.292499,42.647808,-1.674555,0.931441,-0.005192,0.363732,-0.009510
169,-6.661472,-0.132534,7.214898,0.712670,19.807129,-0.965567,-1.283411,43.303696,-1.720633,0.929342,-0.004869,0.369057,-0.009823
170,-6.744622,-0.149858,7.126909,0.715786,20.692230,-0.628276,-1.264952,43.996517,-1.754716,0.927093,-0.004498,0.374668,-0.010062
171,-6.803716,-0.134921,7.026267,1.202604,21.177546,-0.294052,-1.236806,44.713764,-1.779483,0.924731,-0.004074,0.380461,-0.010255
172,-6.879119,-0.153233,6.942397,1.474245,21.690289,0.612375,-1.187145,45.438053,-1.783002,0.922311,-0.003546,0.386294,-0.010350
173,-6.985260,-0.159330,6.875414,1.324674,21.697929,1.378358,-1.139515,46.164391,-1.769303,0.919849,-0.003094,0.392126,-0.010305
174,-7.097197,-0.141186,6.795617,1.338371,21.690332,2.025315,-1.070680,46.897125,-1.721909,0.917330,-0.002592,0.397992,-0.010067
175,-7.162966,-0.136624,6.694155,1.790019,21.557617,2.881332,-0.959905,47.630676,-1.631847,0.914775,-0.001913,0.403844,-0.009645
176,-7.251528,-0.126763,6.614199,2.183667,21.635450,3.091866,-0.821038,48.355259,-1.518499,0.912216,-0.001109,0.409607,-0.009154
177,-7.317748,-0.083327,6.514325,2.224859,21.951303,2.228183,-0.662832,49.078804,-1.402382,0.909622,-0.000179,0.415345,-0.008730
178,-7.379161,-0.043679,6.391772,1.689316,21.684263,1.001405,-0.504726,49.805302,-1.301875,0.906978,0.000789,0.421092,-0.008450
179,-7.455845,-0.051804,6.303518,1.230062,21.963505,0.186618,-0.406142,50.533127,-1.254953,0.904289,0.001469,0.426837,-0.008391
180,-7.575061,-0.066584,6.228847,-0.044111,21.786505,-1.641472,-0.441231,51.263813,-1.316273,0.901545,0.001498,0.432596,-0.008690
181,-7.649986,-0.077200,6.128820,-1.527384,21.478296,-2.618154,-0.617937,51.991543,-1.482271,0.898769,0.000823,0.438324,-0.009263
182,-7.739580,-0.092926,6.054207,-1.405388,20.645142,-2.136060,-0.839618,52.692993,-1.672589,0.896055,-0.000088,0.443835,-0.009828
183,-7.789854,-0.148536,5.976905,-1.355150,19.808851,-1.641815,-1.075356,53.341862,-1.868220,0.893510,-0.001067,0.448923,-0.010356
184,-7.832961,-0.125515,5.873522,-1.162985,18.980124,-2.021906,-1.297949,53.943130,-2.057088,0.891123,-0.001952,0.453627,-0.010861
185,-7.854023,-0.114899,5.766471,-0.277948,18.868563,-1.478679,-1.422899,54.524830,-2.181592,0.888797,-0.002316,0.458158,-0.011234
186,-7.876910,-0.136209,5.659220,1.360922,19.492491,-0.439492,-1.450977,55.113979,-2.246982,0.886424,-0.002153,0.462725,-0.011525
187,-7.917896,-0.137521,5.531711,1.508946,21.340279,-0.735511,-1.448785,55.762978,-2.305427,0.883786,-0.001766,0.467737,-0.011869
188,-8.025876,-0.098441,5.405181,1.650908,23.905437,-0.906339,-1.418894,56.538700,-2.350288,0.880598,-0.001190,0.473705,-0.012198
189,-8.154620,-0.134296,5.321711,1.890523,26.220490,0.212236,-1.367571,57.437153,-2.374525,0.876859,-0.000508,0.480587,-0.012437
190,-8.330044,-0.131306,5.262366,1.734869,25.657646,0.692893,-1.324995,58.365292,-2.392365,0.872939,0.000086,0.487667,-0.012588
191,-8.473355,-0.136601,5.195310,0.862015,21.653763,0.257967,-1.311684,59.194828,-2.418998,0.869386,0.000474,0.493970,-0.012701
192,-8.555903,-0.146804,5.142622,-0.155827,15.539346,-0.216680,-1.378186,59.803768,-2.493241,0.866743,0.000422,0.498589,-0.012864
193,-8.533522,-0.158156,5.088226,-0.644195,8.591496,-0.279371,-1.502226,60.116886,-2.597992,0.865367,0.000011,0.500969,-0.013055
194,-8.504015,-0.154718,5.032359,-1.126459,1.977535,-0.644207,-1.647762,60.121033,-2.708422,0.865336,-0.000604,0.501017,-0.013252
195,-8.416147,-0.171895,4.981334,-1.155527,-1.770884,-0.616890,-1.806270,59.911289,-2.823168,0.866236,-0.001353,0.499452,-0.013473
196,-8.362354,-0.142426,4.970914,-0.922080,-2.581853,-0.645939,-1.895592,59.638813,-2.879744,0.867411,-0.001853,0.497403,-0.013575
197,-8.367220,-0.141038,4.983114,-0.630572,-2.385548,-0.423074,-1.884086,59.403187,-2.855030,0.868434,-0.001935,0.495618,-0.013493
198,-8.374841,-0.158082,4.996632,-0.343652,-1.944889,-0.235320,-1.865641,59.236950,-2.829505,0.869154,-0.001948,0.494355,-0.013417
199,-8.373590,-0.157331,5.017740,-0.105590,-1.745203,0.004274,-1.856146,59.116135,-2.815845,0.869676,-0.001966,0.493438,-0.013382
200,-8.367575,-0.165722,5.033173,0.050059,-1.873550,0.188915,-1.842813,59.008110,-2.800956,0.870142,-0.001956,0.492616,-0.013351
201,-8.357802,-0.164931,5.036481,0.164496,-2.036949,0.259089,-1.832237,58.907433,-2.790042,0.870575,-0.001948,0.491851,-0.013336
202,-8.338823,-0.146384,5.040638,0.336943,-2.122485,0.306420,-1.785398,58.815048,-2.751106,0.870976,-0.001783,0.491143,-0.013262
203,-8.363116,-0.155186,5.063596,0.361385,-2.098117,0.314092,-1.725067,58.732204,-2.702976,0.871337,-0.001551,0.490506,-0.013173
204,-8.355555,-0.137073,5.070318,0.425502,-1.864658,0.158493,-1.666589,58.664696,-2.659098,0.871631,-0.001310,0.489985,-0.013104
205,-8.376111,-0.115183,5.095079,0.315708,-1.634233,0.125045,-1.566285,58.610195,-2.580649,0.871874,-0.000895,0.489559,-0.012947
206,-8.368073,-0.120754,5.108734,0.164721,-1.915009,0.436463,-1.457858,58.550724,-2.489217,0.872138,-0.000474,0.489094,-0.012725
207,-8.341725,-0.124981,5.114765,0.006061,-1.837236,0.654730,-1.384575,58.475262,-2.418819,0.872468,-0.000232,0.488511,-0.012516
209,-8.327276,-0.113294,5.115482,-0.036640,-1.484806,0.915700,-1.315761,58.403904,-2.345365,0.872780,-0.000036,0.487960,-0.012263
210,-8.313685,-0.132014,5.114085,0.027442,-1.437530,1.043867,-1.267807,58.348343,-2.286706,0.873022,0.000068,0.487532,-0.012030
211,-8.296193,-0.107520,5.107115,0.096094,-1.121652,0.755445,-1.229948,58.309193,-2.240018,0.873194,0.000150,0.487230,-0.011841
212,-8.327211,-0.101013,5.124131,0.109850,-0.763006,0.607467,-1.165715,58.293777,-2.176002,0.873265,0.000365,0.487106,-0.011629
213,-8.349125,-0.101612,5.148679,0.320446,-0.538636,0.570877,-1.106849,58.289474,-2.121466,0.873289,0.000581,0.487068,-0.011464
214,-8.352268,-0.095763,5.161743,0.085465,-0.584398,0.024614,-1.072244,58.275230,-2.092374,0.873352,0.000718,0.486956,-0.011392
215,-8.343087,-0.084758,5.162727,-0.270052,-0.743115,-0.488059,-1.062249,58.247547,-2.085099,0.873470,0.000759,0.486744,-0.011383
216,-8.325054,-0.101721,5.167552,-0.328027,-1.142962,-0.036372,-1.076020,58.200497,-2.092617,0.873669,0.000677,0.486386,-0.011389
217,-8.283949,-0.116020,5.157125,-0.280762,-1.201042,0.219920,-1.119488,58.134247,-2.118927,0.873948,0.000445,0.485886,-0.011415
218,-8.290973,-0.114673,5.169406,-0.325065,-1.068383,0.036725,-1.173072,58.068874,-2.153206,0.874221,0.000170,0.485392,-0.011460
219,-8.289080,-0.118901,5.175475,-0.116055,-1.008940,0.260969,-1.212992,58.014664,-2.177845,0.874448,-0.000041,0.484983,-0.011487
220,-8.296245,-0.124656,5.187770,0.089902,-0.902171,0.668321,-1.230976,57.969612,-2.184174,0.874638,-0.000160,0.484641,-0.011467
221,-8.318154,-0.127396,5.205696,0.054759,-0.845739,0.276083,-1.249775,57.932770,-2.193483,0.874793,-0.000271,0.484361,-0.011464
222,-8.321761,-0.112721,5.217285,0.062366,-1.050233,0.051736,-1.260480,57.895519,-2.200948,0.874949,-0.000328,0.484078,-0.011482
223,-8.286652,-0.111645,5.191529,-0.093273,-1.247073,0.045641,-1.251331,57.858326,-2.191454,0.875107,-0.000306,0.483793,-0.011454
224,-8.285213,-0.097112,5.185496,-0.232103,-1.207336,0.149452,-1.220935,57.835583,-2.158922,0.875207,-0.000215,0.483617,-0.011338
225,-8.288693,-0.095499,5.192660,-0.245787,-1.153836,0.323487,-1.166206,57.823296,-2.101204,0.875264,-0.000043,0.483517,-0.011130
226,-8.263382,-0.088844,5.193224,-0.212167,-1.109526,0.492945,-1.101037,57.802727,-2.031928,0.875357,0.000159,0.483354,-0.010879
227,-8.278855,-0.085491,5.199081,-0.343348,-0.941630,0.354165,-1.038059,57.781609,-1.962926,0.875453,0.000345,0.483187,-0.010621
228,-8.298570,-0.087283,5.213309,-0.274647,-0.912568,0.314545,-0.996165,57.771046,-1.912523,0.875502,0.000451,0.483103,-0.010414
229,-8.278522,-0.091828,5.224408,-0.225807,-1.173478,0.456473,-0.973563,57.743145,-1.879171,0.875622,0.000479,0.482888,-0.010258
230,-8.263451,-0.097711,5.224092,-0.280756,-1.333739,0.410669,-0.973430,57.690445,-1.863827,0.875845,0.000407,0.482485,-0.010148
231,-8.272490,-0.089941,5.228248,-0.352491,-1.246778,0.300778,-0.979681,57.642605,-1.853467,0.876048,0.000308,0.482120,-0.010049
232,-8.256701,-0.083324,5.232616,-0.325015,-1.274244,0.490005,-0.961238,57.601173,-1.820916,0.876224,0.000305,0.481802,-0.009883
233,-8.259009,-0.073181,5.241709,-0.369235,-1.272727,1.071434,-0.898377,57.556965,-1.743758,0.876417,0.000455,0.481459,-0.009563
234,-8.271096,-0.078332,5.253913,-0.326479,-1.028574,1.362932,-0.816211,57.520668,-1.642553,0.876577,0.000653,0.481175,-0.009138
235,-8.262087,-0.064182,5.272480,-0.271523,-1.057592,1.129503,-0.737141,57.479256,-1.544884,0.876758,0.000842,0.480852,-0.008728
236,-8.236680,-0.059710,5.259917,0.013855,-1.240759,0.940333,-0.657577,57.425819,-1.455384,0.876988,0.001069,0.480438,-0.008382
237,-8.233863,-0.048358,5.261267,0.274820,-0.943228,0.868665,-0.574203,57.382980,-1.372739,0.877172,0.001356,0.480105,-0.008103
238,-8.218224,-0.056410,5.265426,0.535767,-0.593810,0.850374,-0.502668,57.352402,-1.308290,0.877304,0.001630,0.479867,-0.007912
239,-8.217913,-0.045631,5.258056,0.468621,-0.787601,0.757284,-0.448676,57.329906,-1.262369,0.877401,0.001849,0.479692,-0.007788
240,-8.242327,-0.045536,5.255082,0.415207,-0.747835,0.838150,-0.398131,57.330437,-1.217757,0.877400,0.002049,0.479693,-0.007658
241,-8.245795,-0.018326,5.261343,0.291629,-0.363163,0.932792,-0.318757,57.351448,-1.144840,0.877316,0.002354,0.479850,-0.007430
242,-8.236045,-0.023940,5.264062,0.334392,-0.218105,1.242613,-0.215284,57.369194,-1.046895,0.877245,0.002737,0.479982,-0.007113
243,-8.242822,-0.038949,5.266625,0.245867,-0.176846,1.196803,-0.163287,57.379471,-0.989302,0.877205,0.002895,0.480059,-0.006889
244,-8.249068,-0.030738,5.276374,0.218345,0.175679,0.664169,-0.160712,57.389507,-0.976924,0.877163,0.002863,0.480136,-0.006805
245,-8.241201,-0.021609,5.278905,0.334280,0.413715,0.514573,-0.155453,57.397198,-0.969677,0.877131,0.002874,0.480194,-0.006771
246,-8.243229,-0.049104,5.280258,0.303696,0.322124,0.357299,-0.186142,57.399448,-0.996676,0.877121,0.002752,0.480213,-0.006849
247,-8.264050,-0.045241,5.290717,-0.058047,0.100832,-0.430233,-0.280562,57.396900,-1.080333,0.877129,0.002380,0.480197,-0.007094
248,-8.262045,-0.020912,5.285756,-0.178632,-0.181481,-0.894171,-0.354414,57.390499,-1.151110,0.877152,0.002110,0.480152,-0.007326
249,-8.247319,-0.022243,5.271325,-0.074845,-0.414940,-0.843778,-0.380227,57.382896,-1.184871,0.877183,0.002053,0.480094,-0.007477
250,-8.244628,-0.032679,5.269470,-0.152647,-0.504940,-0.942931,-0.410916,57.375408,-1.223521,0.877212,0.001980,0.480038,-0.007645
251,-8.242947,-0.040798,5.268917,-0.141966,-0.570521,-0.741511,-0.460579,57.367081,-1.276277,0.877244,0.001820,0.479977,-0.007842
252,-8.234102,-0.054893,5.259350,0.064009,-0.655922,-0.317342,-0.513240,57.360817,-1.328960,0.877268,0.001637,0.479932,-0.008025
253,-8.230546,-0.052841,5.260133,0.149432,-0.426973,-0.238038,-0.552136,57.359562,-1.369619,0.877270,0.001509,0.479925,-0.008173
254,-8.246848,-0.056733,5.281054,0.286747,-0.054617,0.187667,-0.563852,57.360020,-1.386021,0.877267,0.001488,0.479929,-0.008250
255,-8.255536,-0.057390,5.294274,0.343188,0.003354,0.299031,-0.557764,57.355137,-1.385356,0.877288,0.001531,0.479891,-0.008271
256,-8.257309,-0.042697,5.303366,0.132617,-0.224059,-0.006145,-0.536585,57.337231,-1.371550,0.877363,0.001634,0.479753,-0.008255
257,-8.251718,-0.038468,5.293576,-0.128286,-0.399583,-0.119014,-0.508908,57.314701,-1.349386,0.877459,0.001750,0.479578,-0.008203
258,-8.240625,-0.033722,5.292802,-0.163343,-0.504896,-0.108273,-0.482055,57.293140,-1.324668,0.877551,0.001850,0.479412,-0.008128
259,-8.237459,-0.025653,5.289708,-0.312833,-0.570525,-0.582757,-0.458397,57.271275,-1.304223,0.877643,0.001944,0.479243,-0.008072
260,-8.239428,-0.022256,5.281350,-0.347868,-0.478935,-0.642172,-0.441372,57.263474,-1.291594,0.877676,0.002020,0.479182,-0.008047
261,-8.246873,-0.037996,5.281010,-0.198291,-0.358302,-0.474264,-0.444459,57.273624,-1.296535,0.877634,0.002018,0.479260,-0.008071
262,-8.245742,-0.025111,5.289918,0.053516,-0.135444,-0.458959,-0.442453,57.286018,-1.301192,0.877581,0.002055,0.479355,-0.008114
263,-8.244053,-0.031500,5.287071,0.091704,-0.159817,-0.263577,-0.419997,57.293110,-1.290824,0.877552,0.002184,0.479408,-0.008128
264,-8.228670,-0.040243,5.276043,0.085613,-0.246755,-0.204047,-0.417198,57.297577,-1.295139,0.877533,0.002224,0.479442,-0.008173
265,-8.225144,-0.054244,5.278068,0.134414,-0.223840,-0.188831,-0.450352,57.297028,-1.329631,0.877533,0.002114,0.479439,-0.008298
266,-8.229605,-0.037268,5.271320,0.039789,-0.156661,-0.205644,-0.475516,57.301170,-1.356775,0.877514,0.002035,0.479472,-0.008401
267,-8.221473,-0.059008,5.268988,0.058083,-0.109306,-0.092753,-0.498690,57.311398,-1.380319,0.877470,0.001958,0.479552,-0.008483
268,-8.211419,-0.076667,5.279334,0.218231,-0.029961,-0.036407,-0.568202,57.307682,-1.443848,0.877482,0.001691,0.479528,-0.008679
269,-8.219388,-0.070953,5.286165,0.204420,-0.069688,-0.012115,-0.638114,57.290665,-1.509034,0.877549,0.001426,0.479402,-0.008887
270,-8.240926,-0.050864,5.288740,0.135737,-0.040715,-0.099118,-0.651425,57.283264,-1.525995,0.877579,0.001394,0.479346,-0.008962
271,-8.245337,-0.051998,5.305292,0.302089,0.150013,0.007737,-0.621456,57.281437,-1.507754,0.877588,0.001547,0.479330,-0.008948
272,-8.259491,-0.045501,5.307912,0.238032,0.107260,-0.031887,-0.581948,57.278355,-1.482332,0.877602,0.001743,0.479303,-0.008919
273,-8.264903,-0.023576,5.295592,0.145018,-0.065139,-0.105028,-0.514432,57.288078,-1.432137,0.877564,0.002051,0.479373,-0.008816
274,-8.256270,-0.032949,5.296373,0.180184,-0.306184,0.178905,-0.438382,57.296631,-1.372009,0.877532,0.002383,0.479434,-0.008673
275,-8.233933,-0.031274,5.291833,0.215319,-0.414523,0.383437,-0.380545,57.285526,-1.323774,0.877580,0.002623,0.479346,-0.008546
276,-8.231345,-0.038252,5.285269,0.088676,-0.609849,0.171349,-0.351621,57.266277,-1.298643,0.877662,0.002737,0.479197,-0.008476
277,-8.214875,-0.041083,5.284731,0.036775,-0.727350,-0.068251,-0.364758,57.242443,-1.310448,0.877761,0.002684,0.479015,-0.008513
278,-8.222461,-0.047106,5.293163,-0.115853,-0.715160,-0.150705,-0.405329,57.213383,-1.345347,0.877881,0.002516,0.478795,-0.008613
279,-8.214783,-0.033497,5.287607,-0.118919,-0.600713,-0.329261,-0.435952,57.191853,-1.372050,0.877970,0.002391,0.478632,-0.008692
280,-8.208910,-0.050665,5.296430,-0.067048,-0.677013,-0.173634,-0.461686,57.169743,-1.395525,0.878061,0.002289,0.478464,-0.008766
281,-8.192203,-0.051988,5.294567,-0.057923,-0.692306,0.192541,-0.493160,57.137192,-1.419948,0.878195,0.002146,0.478216,-0.008824
282,-8.192685,-0.027202,5.295465,-0.253228,-0.730484,0.140681,-0.475563,57.105038,-1.397694,0.878331,0.002185,0.477969,-0.008730
283,-8.190812,-0.028590,5.291525,-0.303528,-0.698432,-0.048450,-0.430537,57.083549,-1.351153,0.878423,0.002333,0.477802,-0.008563
284,-8.198490,-0.047227,5.293598,-0.248583,-0.409984,0.027866,-0.427967,57.078781,-1.341375,0.878443,0.002312,0.477765,-0.008499
285,-8.209931,-0.036148,5.294811,-0.266901,-0.156597,-0.040811,-0.442983,57.093060,-1.346848,0.878384,0.002221,0.477876,-0.008477
286,-8.217495,-0.027847,5.304295,-0.237882,-0.109211,-0.239139,-0.433242,57.112183,-1.334124,0.878305,0.002245,0.478022,-0.008419
287,-8.236388,-0.048457,5.304603,0.076466,-0.023674,0.180502,-0.430027,57.133804,-1.329689,0.878215,0.002253,0.478187,-0.008396
288,-8.239344,-0.047724,5.300932,0.290070,0.188536,0.394093,-0.433989,57.166733,-1.332960,0.878077,0.002240,0.478440,-0.008402
289,-8.237366,-0.024597,5.307542,0.345015,0.281691,0.262882,-0.394788,57.195580,-1.303002,0.877958,0.002418,0.478659,-0.008334
290,-8.232817,-0.024855,5.308228,0.476287,0.138268,0.443009,-0.321108,57.206894,-1.246228,0.877913,0.002746,0.478741,-0.008206
291,-8.229275,-0.020427,5.299123,0.389344,0.177945,0.240112,-0.256920,57.213013,-1.198246,0.877890,0.003038,0.478785,-0.008107
292,-8.217999,-0.005769,5.300860,0.294780,0.267963,0.087587,-0.195292,57.217339,-1.153081,0.877873,0.003322,0.478815,-0.008018
293,-8.217835,-0.000584,5.309647,0.157502,0.084792,0.048001,-0.129875,57.206142,-1.103215,0.877921,0.003614,0.478726,-0.007910
294,-8.230008,-0.023266,5.311528,-0.034754,-0.205198,-0.061851,-0.118556,57.185966,-1.095545,0.878006,0.003667,0.478571,-0.007899
295,-8.232546,-0.028101,5.309324,-0.359821,-0.426481,-0.510543,-0.183199,57.168465,-1.149501,0.878077,0.003396,0.478440,-0.008044
296,-8.221229,-0.026176,5.303861,-0.358338,-0.646216,-0.530444,-0.262190,57.150295,-1.215188,0.878150,0.003063,0.478304,-0.008218
297,-8.201826,-0.034469,5.296400,-0.265286,-0.754556,-0.693766,-0.333751,57.126820,-1.277581,0.878246,0.002773,0.478128,-0.008399
298,-8.209901,-0.040034,5.305063,-0.140192,-0.557712,-0.640407,-0.404316,57.104698,-1.343166,0.878335,0.002503,0.477962,-0.008609
299,-8.208695,-0.030998,5.312535,0.001714,-0.525673,-0.431361,-0.438063,57.084713,-1.379196,0.878416,0.002393,0.477811,-0.008746
300,-8.212153,-0.033846,5.314166,0.102448,-0.463114,-0.332144,-0.435510,57.067013,-1.385356,0.878489,0.002436,0.477675,-0.008805
301,-8.225385,-0.049968,5.325050,0.097866,-0.246423,-0.126150,-0.447926,57.058056,-1.402680,0.878526,0.002412,0.477607,-0.008887
302,-8.241979,-0.040721,5.344972,-0.156978,-0.218960,-0.063608,-0.466532,57.048965,-1.419155,0.878563,0.002337,0.477538,-0.008937
303,-8.223741,-0.052867,5.338944,-0.401139,-0.638623,-0.200962,-0.495117,57.025463,-1.437667,0.878660,0.002192,0.477360,-0.008962
304,-8.208291,-0.051412,5.321387,-0.640732,-0.881256,-0.477191,-0.552080,56.996613,-1.476913,0.878778,0.001916,0.477142,-0.009028
305,-8.201189,-0.053603,5.321521,-0.662108,-0.699650,-0.286469,-0.604787,56.976067,-1.509696,0.878861,0.001645,0.476988,-0.009062
306,-8.190056,-0.045351,5.322789,-0.582746,-0.756096,-0.065189,-0.621177,56.955486,-1.509098,0.878947,0.001515,0.476832,-0.008991
307,-8.161877,-0.069731,5.304076,-0.205844,-0.742348,0.049252,-0.636488,56.934338,-1.510909,0.879035,0.001402,0.476671,-0.008943
308,-8.187836,-0.055396,5.311404,-0.009014,-0.240261,-0.095731,-0.654160,56.934544,-1.523045,0.879034,0.001317,0.476673,-0.008963
309,-8.219114,-0.050387,5.331310,0.258045,0.292381,0.191177,-0.626146,56.962063,-1.502181,0.878921,0.001449,0.476883,-0.008917
310,-8.224178,-0.047868,5.339406,0.418302,0.242094,0.166816,-0.573951,56.990707,-1.464668,0.878804,0.001696,0.477099,-0.008843
312,-8.212248,-0.051429,5.329991,0.409165,0.190246,-0.058990,-0.538561,57.007454,-1.445613,0.878735,0.001890,0.477225,-0.008843
313,-8.236308,-0.034043,5.335660,0.152839,0.257426,-0.208487,-0.508689,57.026131,-1.430878,0.878658,0.002060,0.477366,-0.008853
314,-8.219273,-0.026850,5.318961,0.160526,0.004182,0.189870,-0.448445,57.047691,-1.384905,0.878570,0.002333,0.477527,-0.008750
315,-8.186045,-0.025595,5.307511,0.302495,-0.134648,0.543975,-0.366361,57.054043,-1.315837,0.878547,0.002675,0.477571,-0.008562
316,-8.175518,-0.017697,5.309732,0.418518,0.179661,0.620350,-0.275149,57.046070,-1.238830,0.878584,0.003053,0.477506,-0.008352
317,-8.216143,-0.004544,5.338246,0.478088,0.419174,0.618915,-0.171455,57.039768,-1.153157,0.878613,0.003490,0.477452,-0.008128
318,-8.216154,-0.006677,5.349699,0.493395,0.336690,0.651034,-0.076415,57.028660,-1.075518,0.878662,0.003895,0.477363,-0.007929
319,-8.208765,-0.017092,5.354677,0.354535,0.135139,0.316855,-0.038445,57.000507,-1.046761,0.878780,0.004064,0.477145,-0.007868
320,-8.210382,-0.006692,5.348478,0.104263,-0.099966,-0.230985,-0.048456,56.968861,-1.060796,0.878911,0.004043,0.476903,-0.007935
321,-8.210223,-0.018383,5.340314,0.014206,-0.307539,-0.226449,-0.083973,56.948936,-1.096377,0.878993,0.003917,0.476751,-0.008061
322,-8.196783,-0.035300,5.330716,-0.037741,-0.394515,-0.197557,-0.158084,56.937531,-1.162011,0.879038,0.003621,0.476667,-0.008257
323,-8.214211,-0.039307,5.338121,0.004902,-0.414324,-0.092396,-0.245143,56.932022,-1.237132,0.879058,0.003265,0.476629,-0.008471
324,-8.214540,-0.031699,5.345328,0.050625,-0.441760,0.002129,-0.297164,56.925995,-1.282295,0.879081,0.003053,0.476585,-0.008601
325,-8.205476,-0.040693,5.349128,0.010917,-0.527218,-0.089479,-0.331293,56.908131,-1.312502,0.879154,0.002915,0.476450,-0.008692
326,-8.201487,-0.025144,5.348201,-0.112694,-0.580646,-0.261927,-0.352671,56.883438,-1.332131,0.879256,0.002830,0.476262,-0.008756
327,-8.193635,-0.022308,5.349662,-0.085202,-0.627971,-0.147442,-0.341349,56.857433,-1.323545,0.879364,0.002879,0.476061,-0.008739
328,-8.182622,-0.016659,5.345028,-0.143146,-0.591367,-0.196208,-0.314580,56.832092,-1.301010,0.879470,0.002988,0.475866,-0.008679
329,-8.178405,-0.011965,5.355819,-0.086634,-0.435755,-0.110678,-0.276599,56.806110,-1.268759,0.879580,0.003143,0.475664,-0.008591
330,-8.186702,-0.033610,5.362346,-0.120188,-0.686048,0.226576,-0.262226,56.775585,-1.252737,0.879707,0.003184,0.475429,-0.008529
331,-8.182996,-0.025097,5.354561,-0.265165,-0.977503,-0.052689,-0.276608,56.746990,-1.257738,0.879826,0.003092,0.475210,-0.008510
332,-8.181668,-0.012130,5.357929,-0.245307,-0.847771,-0.220508,-0.271944,56.724861,-1.249140,0.879918,0.003090,0.475040,-0.008465
333,-8.171411,-0.015609,5.365112,-0.179654,-0.861493,0.072528,-0.246902,56.699310,-1.223562,0.880025,0.003174,0.474843,-0.008374
334,-8.169707,-0.027610,5.358302,-0.260519,-0.844695,0.008452,-0.243937,56.674805,-1.214139,0.880127,0.003156,0.474655,-0.008315
335,-8.170440,-0.011493,5.368615,-0.110968,-0.371629,-0.330287,-0.247814,56.662685,-1.215105,0.880177,0.003129,0.474562,-0.008307
336,-8.164496,-0.027769,5.371532,0.005014,-0.139681,0.039004,-0.246592,56.655937,-1.215255,0.880205,0.003138,0.474510,-0.008314
337,-8.168087,-0.030209,5.365086,-0.011791,-0.240372,0.150369,-0.259476,56.655411,-1.224175,0.880207,0.003076,0.474507,-0.008329
338,-8.168956,-0.033969,5.362428,0.001916,-0.113666,-0.162487,-0.285306,56.664658,-1.245713,0.880168,0.002968,0.474579,-0.008387
339,-8.162393,-0.031980,5.362543,0.084293,-0.107517,0.012957,-0.310260,56.674042,-1.269123,0.880128,0.002874,0.474652,-0.008463
340,-8.164083,-0.028482,5.351297,0.050714,-0.220378,0.270828,-0.308006,56.684574,-1.266505,0.880085,0.002881,0.474733,-0.008451
341,-8.168122,-0.019039,5.364819,0.142286,-0.046373,0.009919,-0.282055,56.694386,-1.244922,0.880045,0.002992,0.474807,-0.008392
342,-8.174511,-0.037001,5.376915,0.134655,-0.037223,0.016021,-0.277854,56.691257,-1.245028,0.880057,0.003025,0.474783,-0.008411
343,-8.171148,-0.026133,5.374059,0.058342,-0.285976,0.034306,-0.289334,56.678158,-1.256835,0.880111,0.002984,0.474683,-0.008455
344,-8.177544,-0.017565,5.368380,0.004951,-0.316489,-0.232707,-0.278924,56.670052,-1.250807,0.880145,0.003038,0.474620,-0.008452
345,-8.172585,-0.024253,5.380535,0.078213,-0.084544,-0.264723,-0.272751,56.664452,-1.251344,0.880168,0.003087,0.474577,-0.008482
346,-8.165174,-0.020866,5.378613,0.050756,-0.168504,-0.064811,-0.268834,56.650528,-1.252875,0.880225,0.003123,0.474469,-0.008511
347,-8.163623,-0.010950,5.377775,-0.008724,-0.220417,-0.136483,-0.244467,56.634983,-1.234934,0.880290,0.003234,0.474349,-0.008475
348,-8.164578,-0.016749,5.383314,-0.040735,-0.089218,-0.212729,-0.223155,56.621380,-1.219635,0.880347,0.003333,0.474243,-0.008447
349,-8.165119,-0.015400,5.394870,-0.055976,-0.096902,-0.092152,-0.214624,56.602818,-1.213954,0.880424,0.003374,0.474100,-0.008439
350,-8.165075,-0.014264,5.390650,-0.194816,-0.307535,-0.226406,-0.209432,56.580334,-1.209038,0.880517,0.003391,0.473927,-0.008424
351,-8.169681,-0.025656,5.388545,-0.275690,-0.423518,-0.357635,-0.231992,56.564613,-1.226655,0.880582,0.003289,0.473807,-0.008467
352,-8.159162,-0.016773,5.381725,-0.245173,-0.408240,-0.293549,-0.258428,56.556110,-1.247421,0.880616,0.003171,0.473743,-0.008518
353,-8.161782,-0.010821,5.374554,-0.133751,-0.325787,-0.136334,-0.247722,56.558811,-1.237137,0.880605,0.003211,0.473763,-0.008483
354,-8.161722,-0.017090,5.376618,0.041763,-0.058678,-0.015737,-0.223534,56.572895,-1.217053,0.880548,0.003315,0.473870,-0.008428
355,-8.163110,-0.018644,5.374548,0.140961,0.165699,0.216224,-0.202634,56.593395,-1.200312,0.880464,0.003408,0.474027,-0.008385
356,-8.166327,-0.007039,5.378560,0.261532,0.319868,0.318496,-0.160855,56.616085,-1.166138,0.880371,0.003590,0.474199,-0.008294
357,-8.177189,-0.024779,5.384550,0.203551,0.281748,0.260517,-0.134964,56.634087,-1.145696,0.880297,0.003706,0.474336,-0.008243
358,-8.171662,-0.025143,5.384049,0.067708,0.127633,0.251308,-0.150871,56.641712,-1.158073,0.880265,0.003635,0.474396,-0.008272
359,-8.181933,-0.025241,5.381453,-0.091026,-0.031058,0.022362,-0.179822,56.644783,-1.179423,0.880252,0.003502,0.474421,-0.008316
360,-8.176191,-0.023161,5.380227,-0.109365,-0.151590,-0.284392,-0.215939,56.646355,-1.209197,0.880244,0.003348,0.474435,-0.008395
361,-8.173576,-0.030151,5.388846,-0.124650,-0.198910,-0.287483,-0.258580,56.635517,-1.246784,0.880288,0.003175,0.474353,-0.008508
362,-8.170198,-0.028017,5.385167,-0.141457,-0.325597,-0.278361,-0.297686,56.616917,-1.280902,0.880363,0.003014,0.474212,-0.008609
363,-8.186107,-0.032150,5.386816,-0.094165,-0.465977,-0.499640,-0.333034,56.605114,-1.314233,0.880410,0.002879,0.474124,-0.008720
364,-8.181479,-0.016203,5.391201,-0.084993,-0.617020,-0.545390,-0.345765,56.593746,-1.331900,0.880457,0.002853,0.474037,-0.008804
365,-8.184394,-0.012540,5.407287,-0.040684,-0.763526,-0.130253,-0.311779,56.565884,-1.307906,0.880573,0.003012,0.473821,-0.008762
366,-8.185901,-0.020859,5.403422,-0.138297,-0.987858,-0.145442,-0.278510,56.530979,-1.280097,0.880718,0.003149,0.473551,-0.008688
367,-8.175039,-0.007857,5.402264,-0.222180,-1.175538,-0.346799,-0.256218,56.497288,-1.260915,0.880858,0.003238,0.473291,-0.008635
368,-8.152965,-0.002014,5.412170,-0.263315,-1.283910,-0.197159,-0.216821,56.447334,-1.226220,0.881066,0.003393,0.472905,-0.008534
369,-8.147845,-0.018949,5.406157,-0.281588,-1.442650,0.024158,-0.194475,56.389606,-1.201522,0.881305,0.003458,0.472460,-0.008439
370,-8.136347,-0.020172,5.399499,-0.342625,-1.373970,-0.305443,-0.212183,56.346741,-1.210104,0.881482,0.003354,0.472131,-0.008435
371,-8.128856,-0.033465,5.408704,-0.199212,-1.065705,-0.137628,-0.254969,56.313850,-1.242204,0.881616,0.003154,0.471880,-0.008507
372,-8.124041,-0.044076,5.409419,0.015889,-0.786440,0.085075,-0.309229,56.288898,-1.285221,0.881717,0.002911,0.471691,-0.008616
373,-8.130576,-0.040008,5.409773,0.105867,-0.586492,-0.079800,-0.353041,56.280132,-1.323242,0.881751,0.002729,0.471626,-0.008729
374,-8.129638,-0.045586,5.425348,0.172971,-0.403344,-0.002033,-0.384662,56.274082,-1.354114,0.881774,0.002613,0.471581,-0.008837
375,-8.141249,-0.055927,5.443116,0.090520,-0.659720,-0.020421,-0.427742,56.250729,-1.393735,0.881868,0.002442,0.471404,-0.008967
376,-8.153007,-0.027826,5.449706,-0.200942,-1.398293,-0.545355,-0.453033,56.208935,-1.418329,0.882039,0.002343,0.471084,-0.009055
377,-8.183016,-0.036522,5.486899,-0.498466,-2.313880,-0.572775,-0.462482,56.137974,-1.426579,0.882330,0.002297,0.470538,-0.009086
378,-8.192170,-0.036904,5.524571,-0.841776,-3.754446,-0.523910,-0.489282,56.010437,-1.439987,0.882852,0.002131,0.469558,-0.009090
379,-8.187772,-0.020560,5.553413,-1.401746,-5.942749,-0.764940,-0.515527,55.813019,-1.441939,0.883660,0.001914,0.468038,-0.009014
380,-8.194361,-0.039584,5.597803,-1.928144,-8.753620,-0.116356,-0.548133,55.535095,-1.429915,0.884794,0.001581,0.465897,-0.008813
381,-8.147680,-0.053109,5.650619,-2.097506,-11.732389,0.890774,-0.578997,55.148094,-1.390793,0.886365,0.001139,0.462909,-0.008419
382,-8.074888,-0.045033,5.708677,-2.416409,-14.737194,0.849596,-0.591960,54.634319,-1.320540,0.888436,0.000699,0.458932,-0.007868
383,-7.977214,-0.065935,5.765568,-2.471335,-17.345339,0.935055,-0.617513,54.004173,-1.254391,0.890950,0.000169,0.454042,-0.007307
384,-7.897181,-0.089358,5.843352,-2.573612,-19.309580,0.941097,-0.683810,53.287457,-1.217517,0.893774,-0.000569,0.448465,-0.006820
385,-7.795955,-0.068270,5.920815,-2.717080,-20.594788,0.171984,-0.760828,52.515278,-1.192562,0.896776,-0.001350,0.442437,-0.006396
386,-7.723122,-0.081362,6.031463,-2.878827,-21.626692,-0.430759,-0.845657,51.704201,-1.182405,0.899883,-0.002142,0.436083,-0.006068
387,-7.634216,-0.108546,6.130023,-2.820868,-22.521248,-0.531509,-0.965156,50.864365,-1.204229,0.903050,-0.003093,0.429483,-0.005873
388,-7.584377,-0.141271,6.275968,-3.135283,-23.930033,-1.273206,-1.135457,49.988811,-1.269320,0.906295,-0.004300,0.422583,-0.005852
389,-7.524017,-0.194878,6.419261,-3.162893,-26.500044,-2.849666,-1.396676,49.046135,-1.421237,0.909719,-0.005940,0.415134,-0.006224
390,-7.407712,-0.233767,6.550278,-2.839597,-29.796419,-4.610825,-1.739363,47.996510,-1.669328,0.913446,-0.007941,0.406821,-0.007134
391,-7.288864,-0.275627,6.665443,-2.678060,-33.153828,-6.307904,-2.124040,46.834373,-1.985212,0.917468,-0.010122,0.397590,-0.008529
392,-7.137905,-0.280921,6.779057,-2.327247,-35.964890,-7.432687,-2.488708,45.584370,-2.315629,0.921680,-0.012191,0.387624,-0.010213
393,-6.948015,-0.282922,6.874330,-1.524630,-37.455975,-7.649402,-2.758952,44.277817,-2.599569,0.925972,-0.013748,0.377153,-0.011935
394,-6.753923,-0.281089,6.973767,-0.534193,-37.613346,-7.045033,-2.906119,42.961040,-2.809043,0.930191,-0.014617,0.366536,-0.013518
395,-6.602468,-0.296901,7.079701,0.120617,-37.460838,-6.445170,-2.959554,41.678951,-2.957628,0.934195,-0.014949,0.356137,-0.014927
396,-6.453504,-0.263356,7.228013,0.722116,-37.123592,-5.916941,-2.925410,40.435905,-3.049501,0.937982,-0.014752,0.345995,-0.016143
397,-6.308427,-0.272050,7.388283,1.470178,-36.613914,-4.698938,-2.808979,39.210884,-3.084104,0.941623,-0.014054,0.335940,-0.017122
398,-6.171754,-0.292685,7.561563,1.946578,-35.936401,-2.823315,-2.659108,38.000370,-3.076375,0.945125,-0.013194,0.325955,-0.017822
399,-6.037464,-0.284708,7.739071,1.847655,-35.013248,-1.277345,-2.487776,36.808750,-3.020809,0.948479,-0.012271,0.316080,-0.018153
400,-5.887110,-0.268104,7.890821,2.102744,-33.232563,0.407472,-2.283236,35.654991,-2.910540,0.951642,-0.011187,0.306474,-0.018075
401,-5.723218,-0.279968,7.977934,2.487474,-31.210760,1.991527,-2.064687,34.571049,-2.761408,0.954533,-0.010040,0.297414,-0.017652
402,-5.604301,-0.269672,8.078397,2.499789,-29.994545,2.449382,-1.863210,33.569855,-2.604111,0.957129,-0.009001,0.289021,-0.017058
403,-5.479042,-0.220935,8.149484,2.422086,-29.828032,2.248046,-1.661476,32.628738,-2.446813,0.959502,-0.007915,0.281111,-0.016417
404,-5.312270,-0.203560,8.215491,3.180615,-29.823240,3.012635,-1.438100,31.699421,-2.279666,0.961783,-0.006637,0.273280,-0.015708
405,-5.184869,-0.191127,8.298632,3.440119,-30.149591,3.366717,-1.211387,30.760092,-2.107929,0.964022,-0.005313,0.265348,-0.014931
406,-5.047959,-0.158418,8.392742,3.777416,-30.433205,2.823533,-0.993274,29.811167,-1.952176,0.966213,-0.003993,0.257323,-0.014232
407,-4.902584,-0.111424,8.492877,4.079654,-30.153795,2.542827,-0.764249,28.850056,-1.812020,0.968358,-0.002519,0.249178,-0.013652
408,-4.783183,-0.096093,8.596470,4.645875,-29.607355,2.495584,-0.529025,27.900040,-1.684827,0.970408,-0.000936,0.241113,-0.013156
409,-4.658486,-0.030391,8.699079,4.198912,-29.976439,1.541953,-0.295254,26.961733,-1.578256,0.972361,0.000705,0.233132,-0.012792
410,-4.499988,-0.007911,8.802762,2.926458,-30.402027,0.644797,-0.096432,25.996376,-1.505751,0.974295,0.002136,0.224912,-0.012614
411,-4.332200,0.025755,8.899478,1.689085,-30.597317,0.686073,0.044577,24.987705,-1.456718,0.976239,0.003130,0.216313,-0.012495
412,-4.171378,0.000861,8.945112,0.894144,-30.145657,0.640329,0.120449,23.972544,-1.423626,0.978119,0.003608,0.207648,-0.012371
413,-3.992228,0.002618,8.973424,0.012115,-29.852669,0.022309,0.124360,22.975286,-1.419921,0.979889,0.003531,0.199128,-0.012359
415,-3.797383,-0.029016,9.044394,-0.761659,-30.617229,-0.414162,0.064907,21.947569,-1.445858,0.981635,0.002958,0.190338,-0.012494
416,-3.652783,-0.039517,9.129465,-0.830526,-31.751120,-1.122273,-0.037322,20.872030,-1.498475,0.983374,0.002048,0.181126,-0.012801
417,-3.403792,-0.025313,9.216736,-0.768103,-35.792046,-2.126388,-0.129014,19.667358,-1.571185,0.985217,0.001232,0.170788,-0.013317
418,-3.161655,0.001489,9.344099,-1.041237,-40.909069,-2.884772,-0.184571,18.221519,-1.655278,0.987283,0.000697,0.158350,-0.014007
419,-2.890829,-0.001584,9.481572,-0.972465,-44.562969,-3.333360,-0.215805,16.559072,-1.747882,0.989465,0.000333,0.144014,-0.014822
420,-2.650615,0.002813,9.554969,-0.349747,-44.780525,-3.487438,-0.224963,14.823523,-1.847099,0.991518,0.000133,0.129014,-0.015730
421,-2.347497,0.029570,9.608005,0.692683,-44.390694,-3.000609,-0.177718,13.109189,-1.935411,0.993324,0.000387,0.114159,-0.016601
422,-2.176816,-0.017285,9.665075,1.097221,-40.980816,-2.439028,-0.116566,11.526066,-2.012241,0.994794,0.000751,0.100417,-0.017368
423,-1.961550,0.003460,9.680380,1.460468,-36.859474,-1.911041,-0.065007,10.177032,-2.079185,0.995896,0.001044,0.088690,-0.018021
424,-1.795327,-0.008448,9.703909,1.138552,-33.340599,-1.589060,-0.015349,9.031964,-2.134434,0.996723,0.001333,0.078726,-0.018557
425,-1.628124,-0.028842,9.726029,0.682250,-32.047852,-1.769128,-0.008137,8.024679,-2.192987,0.997366,0.001268,0.069960,-0.019084
426,-1.450944,-0.025020,9.721765,0.100764,-30.871008,-1.770670,-0.033978,7.075425,-2.256640,0.997901,0.000919,0.061699,-0.019636
427,-1.282992,-0.010219,9.731887,-0.575282,-29.187578,-1.584515,-0.065793,6.169945,-2.314466,0.998348,0.000514,0.053818,-0.020136
428,-1.136966,-0.059238,9.779840,-1.889218,-27.063154,-2.313919,-0.145833,5.327565,-2.381663,0.998704,-0.000305,0.046491,-0.020701
429,-0.971452,-0.026724,9.732396,-3.245873,-23.850769,-3.180657,-0.270144,4.567289,-2.473772,0.998972,-0.001495,0.039888,-0.021475
430,-0.853870,-0.031014,9.763340,-4.889266,-18.273212,-3.372919,-0.405484,3.949995,-2.578696,0.999150,-0.002760,0.034534,-0.022366
431,-0.768282,-0.065274,9.840648,-6.276290,-12.434666,-3.935980,-0.587268,3.537568,-2.695557,0.999238,-0.004395,0.030978,-0.023351
432,-0.731010,-0.138769,9.864029,-6.711250,-7.249117,-5.133833,-0.833169,3.336686,-2.844469,0.999247,-0.006543,0.029285,-0.024597
433,-0.722935,-0.164528,9.869779,-6.125422,-2.559365,-5.265062,-1.093323,3.335251,-3.018041,0.999192,-0.008767,0.029341,-0.026044
434,-0.753917,-0.242992,9.952546,-4.756828,0.825830,-4.467000,-1.329790,3.499229,-3.183233,0.999091,-0.010746,0.030840,-0.027406
435,-0.773956,-0.254403,9.922807,-2.764135,2.384533,-3.610951,-1.511005,3.757032,-3.322900,0.998968,-0.012223,0.033146,-0.028544
436,-0.810830,-0.266743,9.906260,-0.870529,3.372626,-2.254387,-1.597703,4.082626,-3.425072,0.998837,-0.012863,0.036017,-0.029367
437,-0.826845,-0.238636,9.908676,0.692112,3.728970,-0.488863,-1.577954,4.427279,-3.472367,0.998716,-0.012583,0.039021,-0.029740
438,-0.842422,-0.222060,9.891484,1.928365,3.418243,0.936385,-1.461736,4.706018,-3.462376,0.998635,-0.011499,0.041419,-0.029659
439,-0.842177,-0.180909,9.866810,2.926618,2.686082,1.693276,-1.292309,4.889300,-3.413779,0.998597,-0.009992,0.042968,-0.029277
440,-0.852045,-0.167727,9.881905,3.009290,1.909464,1.455257,-1.111295,4.989273,-3.356104,0.998589,-0.008410,0.043789,-0.028832
441,-0.867323,-0.144931,9.871331,2.937790,1.215194,1.171454,-0.945719,5.049504,-3.307669,0.998590,-0.006970,0.044269,-0.028468
442,-0.872566,-0.123026,9.872630,2.550421,0.789473,0.851029,-0.789764,5.086889,-3.268932,0.998593,-0.005617,0.044554,-0.028188
443,-0.874559,-0.117769,9.864147,2.072974,0.610929,0.420733,-0.663027,5.107695,-3.243729,0.998597,-0.004517,0.044703,-0.028017
444,-0.878447,-0.116893,9.866966,1.361938,0.504094,-0.081293,-0.592538,5.120512,-3.237133,0.998596,-0.003902,0.044798,-0.027986
445,-0.875323,-0.101174,9.876266,1.587770,0.166826,0.255935,-0.544557,5.120893,-3.234458,0.998598,-0.003485,0.044789,-0.027982
446,-0.878725,-0.102835,9.881148,1.631999,-0.120095,0.431414,-0.496402,5.108291,-3.223557,0.998607,-0.003072,0.044667,-0.027906
447,-0.875817,-0.099790,9.875893,1.561739,-0.599275,0.721334,-0.460467,5.085141,-3.205871,0.998622,-0.002772,0.044456,-0.027767
448,-0.868297,-0.088938,9.892874,1.499109,-1.311938,1.182156,-0.426050,5.037950,-3.175508,0.998648,-0.002495,0.044036,-0.027518
449,-0.861016,-0.083526,9.898175,1.170979,-2.136006,1.398833,-0.393624,4.961532,-3.133327,0.998688,-0.002247,0.043361,-0.027166
450,-0.862670,-0.089232,9.902255,0.438445,-2.474786,1.049388,-0.388756,4.877970,-3.094065,0.998728,-0.002239,0.042631,-0.026829
451,-0.838453,-0.078545,9.882787,0.041611,-2.935621,0.908995,-0.404753,4.786394,-3.062981,0.998769,-0.002412,0.041836,-0.026555
452,-0.810223,-0.071566,9.871473,-0.135435,-3.396512,0.858635,-0.414760,4.663627,-3.033590,0.998819,-0.002538,0.040768,-0.026301
453,-0.789305,-0.084895,9.872124,-0.381152,-3.559880,0.646528,-0.433834,4.521398,-3.008582,0.998874,-0.002746,0.039532,-0.026082
454,-0.762430,-0.068965,9.880046,-0.338448,-3.717150,0.556495,-0.450434,4.371747,-2.988036,0.998929,-0.002932,0.038231,-0.025904
455,-0.732215,-0.065909,9.885046,-0.379598,-4.014828,0.608379,-0.446375,4.208425,-2.966446,0.998987,-0.002941,0.036805,-0.025724
456,-0.723142,-0.069532,9.891365,-0.516876,-4.010331,0.442057,-0.444108,4.051768,-2.946665,0.999041,-0.002963,0.035439,-0.025558
457,-0.705660,-0.084391,9.899188,-0.593172,-3.898941,0.301672,-0.461774,3.919814,-2.933182,0.999083,-0.003151,0.034292,-0.025441
458,-0.685837,-0.073113,9.893256,-0.532138,-3.732579,0.292517,-0.480637,3.802793,-2.922274,0.999119,-0.003345,0.033275,-0.025346
459,-0.669649,-0.102746,9.888557,-0.431464,-3.598238,0.319981,-0.506769,3.697255,-2.911707,0.999151,-0.003599,0.032361,-0.025251
460,-0.665979,-0.108086,9.897192,-0.260677,-3.209015,0.251308,-0.550714,3.615524,-2.903287,0.999174,-0.004003,0.031657,-0.025169
461,-0.641456,-0.104705,9.914500,0.033739,-2.922022,0.356592,-0.578342,3.547191,-2.893721,0.999193,-0.004261,0.031067,-0.025081
462,-0.620337,-0.102812,9.911142,0.174090,-2.503859,0.486294,-0.583924,3.473929,-2.879366,0.999216,-0.004330,0.030429,-0.024958
463,-0.600305,-0.103016,9.910422,0.221380,-2.332942,0.582428,-0.580125,3.397227,-2.860945,0.999240,-0.004319,0.029759,-0.024803
464,-0.585727,-0.087286,9.906432,0.177159,-2.220034,0.481718,-0.563377,3.318494,-2.841890,0.999265,-0.004195,0.029068,-0.024645
465,-0.559565,-0.079580,9.888090,0.200137,-2.433711,0.649574,-0.530814,3.227894,-2.820801,0.999293,-0.003936,0.028270,-0.024473
466,-0.549967,-0.082292,9.890199,0.157489,-2.416988,0.696882,-0.501418,3.129558,-2.796338,0.999323,-0.003706,0.027405,-0.024271
467,-0.551122,-0.087305,9.892118,0.281114,-2.355944,0.507668,-0.485925,3.052160,-2.775150,0.999346,-0.003593,0.026727,-0.024094
468,-0.541933,-0.094451,9.893746,0.198681,-2.262791,0.249786,-0.486474,2.995424,-2.762343,0.999362,-0.003613,0.026231,-0.023984
469,-0.540504,-0.102683,9.894154,0.166553,-2.004803,0.062094,-0.504047,2.954699,-2.757786,0.999371,-0.003775,0.025880,-0.023942
470,-0.534257,-0.105577,9.896081,0.192387,-1.520951,-0.256829,-0.528705,2.933682,-2.762100,0.999374,-0.003994,0.025702,-0.023975
471,-0.527489,-0.105301,9.900421,0.206026,-1.301092,-0.401795,-0.549215,2.922147,-2.774029,0.999373,-0.004173,0.025606,-0.024075
472,-0.519250,-0.093628,9.899579,0.021352,-1.172817,-0.362122,-0.556441,2.908587,-2.786918,0.999373,-0.004236,0.025490,-0.024187
473,-0.530037,-0.100250,9.880480,0.173937,-0.467718,-0.439944,-0.556337,2.915424,-2.800165,0.999369,-0.004230,0.025550,-0.024302
474,-0.528449,-0.089138,9.867227,0.492861,0.545652,-0.325498,-0.543914,2.960799,-2.812846,0.999357,-0.004109,0.025943,-0.024413
475,-0.528622,-0.078884,9.903351,0.628732,1.322471,-0.034041,-0.507659,3.026531,-2.818194,0.999342,-0.003778,0.026509,-0.024465
476,-0.529934,-0.073479,9.914520,0.731055,1.659764,0.059045,-0.460832,3.094299,-2.816919,0.999328,-0.003355,0.027090,-0.024462
477,-0.541135,-0.079154,9.949517,0.601395,1.881049,0.020899,-0.426101,3.160645,-2.815376,0.999314,-0.003038,0.027661,-0.024454
478,-0.535897,-0.070193,9.968752,0.532741,1.488854,0.353552,-0.402951,3.207666,-2.809320,0.999304,-0.002828,0.028066,-0.024405
479,-0.537776,-0.075622,9.979938,0.297744,0.589980,0.474099,-0.389559,3.213096,-2.795821,0.999306,-0.002713,0.028110,-0.024291
480,-0.543253,-0.081063,9.948641,0.033705,-0.250910,0.313873,-0.398673,3.188956,-2.783569,0.999314,-0.002801,0.027901,-0.024183
481,-0.548649,-0.080530,9.922633,-0.244085,-0.571410,0.292505,-0.421958,3.159476,-2.774479,0.999323,-0.003012,0.027649,-0.024099
482,-0.545179,-0.077342,9.902806,-0.190723,-0.809470,0.530547,-0.441451,3.131934,-2.761286,0.999331,-0.003191,0.027413,-0.023980
483,-0.548650,-0.077352,9.910937,-0.337228,-0.977308,0.399317,-0.453818,3.106251,-2.745777,0.999340,-0.003308,0.027191,-0.023843
484,-0.542213,-0.065423,9.901506,-0.479104,-0.882669,0.187215,-0.457031,3.084486,-2.735209,0.999348,-0.003343,0.027001,-0.023751
485,-0.538439,-0.074915,9.898464,-0.471425,-0.762092,0.268092,-0.458479,3.065229,-2.726635,0.999354,-0.003362,0.026833,-0.023676
486,-0.532086,-0.083175,9.898237,-0.418018,-0.754442,0.373381,-0.472659,3.045808,-2.715720,0.999360,-0.003492,0.026667,-0.023579
487,-0.522909,-0.077312,9.896100,-0.350876,-0.650684,0.303188,-0.484571,3.021132,-2.704217,0.999368,-0.003604,0.026453,-0.023477
488,-0.514678,-0.081414,9.886017,-0.183005,-0.463026,0.062093,-0.487788,2.993805,-2.697680,0.999375,-0.003639,0.026216,-0.023420
489,-0.523686,-0.082903,9.914415,-0.115854,-0.392840,-0.049299,-0.489715,2.977934,-2.697185,0.999379,-0.003659,0.026078,-0.023416
490,-0.518812,-0.078689,9.904492,0.021501,-0.429437,-0.023357,-0.485222,2.971324,-2.697962,0.999380,-0.003621,0.026019,-0.023424
491,-0.517527,-0.085930,9.914173,0.084075,-0.397374,0.030050,-0.480171,2.962816,-2.697563,0.999383,-0.003579,0.025944,-0.023422
492,-0.520382,-0.097380,9.915594,0.167954,-0.385137,-0.072188,-0.489300,2.957981,-2.698844,0.999383,-0.003660,0.025904,-0.023431
493,-0.518546,-0.080371,9.929927,0.102311,-0.351531,-0.003522,-0.492921,2.955958,-2.700420,0.999383,-0.003691,0.025887,-0.023444
494,-0.511441,-0.077940,9.925230,0.119130,-0.392718,0.115502,-0.479415,2.947109,-2.697945,0.999386,-0.003576,0.025807,-0.023426
495,-0.512377,-0.082708,9.928357,0.053538,-0.414081,0.066673,-0.469982,2.933804,-2.694464,0.999390,-0.003497,0.025689,-0.023399
496,-0.509274,-0.077095,9.906590,0.048974,-0.459850,0.033104,-0.464467,2.921520,-2.692488,0.999393,-0.003452,0.025580,-0.023383
497,-0.506167,-0.059983,9.898653,0.045992,-0.447636,0.068204,-0.442763,2.908485,-2.689656,0.999397,-0.003266,0.025462,-0.023364
498,-0.513241,-0.061850,9.900578,0.247515,-0.403351,0.124668,-0.409072,2.903489,-2.684873,0.999400,-0.002974,0.025412,-0.023330
499,-0.504778,-0.083512,9.908735,0.223106,-0.447567,0.304728,-0.399299,2.899513,-2.677523,0.999403,-0.002891,0.025375,-0.023268
500,-0.498046,-0.082122,9.905962,0.134527,-0.491824,0.426798,-0.413895,2.882718,-2.666276,0.999409,-0.003025,0.025231,-0.023167
501,-0.495617,-0.068336,9.906939,0.152810,-0.484214,0.443581,-0.416447,2.860864,-2.652042,0.999416,-0.003054,0.025040,-0.023043
502,-0.496179,-0.085472,9.904437,0.201610,-0.528472,0.541240,-0.418117,2.842425,-2.635905,0.999423,-0.003076,0.024879,-0.022903
503,-0.493439,-0.090267,9.893413,0.038245,-0.626121,0.553442,-0.439079,2.826113,-2.618780,0.999430,-0.003266,0.024741,-0.022750
504,-0.503276,-0.063576,9.892690,0.050436,-0.581819,0.617531,-0.441414,2.820143,-2.599326,0.999435,-0.003292,0.024689,-0.022580
505,-0.504312,-0.052056,9.912165,0.186349,-0.561893,0.863211,-0.406299,2.826559,-2.572995,0.999439,-0.002990,0.024737,-0.022357
506,-0.497767,-0.059017,9.914107,0.187977,-0.488579,1.075319,-0.369312,2.829115,-2.539080,0.999447,-0.002674,0.024751,-0.022069
507,-0.491464,-0.052400,9.928064,0.081228,-0.413783,1.188242,-0.344240,2.821750,-2.500284,0.999456,-0.002465,0.024681,-0.021737
508,-0.481130,-0.056088,9.921513,0.021761,-0.477892,1.256910,-0.328158,2.801366,-2.458786,0.999468,-0.002338,0.024500,-0.021379
509,-0.474934,-0.064912,9.907426,0.012591,-0.561868,1.107369,-0.329475,2.769756,-2.419422,0.999482,-0.002363,0.024224,-0.021036
510,-0.473693,-0.067047,9.898054,0.036953,-0.586327,0.901366,-0.342030,2.738518,-2.386518,0.999495,-0.002486,0.023953,-0.020747
512,-0.477446,-0.077792,9.902952,-0.053160,-0.548183,0.458843,-0.364826,2.718580,-2.364837,0.999502,-0.002693,0.023782,-0.020554
513,-0.477287,-0.066597,9.888949,0.015443,-0.503898,0.063626,-0.383320,2.710484,-2.356879,0.999505,-0.002857,0.023715,-0.020481
514,-0.486664,-0.055838,9.905625,0.096336,-0.355809,0.052947,-0.375791,2.716956,-2.354577,0.999504,-0.002791,0.023770,-0.020462
515,-0.478787,-0.069020,9.929899,0.178755,-0.171100,0.204014,-0.365631,2.728829,-2.349975,0.999503,-0.002701,0.023872,-0.020424
516,-0.468477,-0.072062,9.932865,0.044438,-0.045967,0.104828,-0.371934,2.727352,-2.345286,0.999504,-0.002757,0.023860,-0.020382
517,-0.460156,-0.061236,9.926966,-0.012037,-0.105529,0.129241,-0.375676,2.710404,-2.341576,0.999508,-0.002794,0.023712,-0.020349
518,-0.468030,-0.068108,9.931178,-0.201252,0.019554,0.129241,-0.378850,2.696862,-2.337244,0.999511,-0.002825,0.023595,-0.020311
519,-0.464295,-0.077119,9.930423,-0.366093,0.129405,-0.021828,-0.400030,2.694781,-2.336024,0.999511,-0.003010,0.023580,-0.020296
520,-0.457154,-0.103315,9.909164,-0.471514,-0.091892,-0.006574,-0.451331,2.684988,-2.338252,0.999512,-0.003459,0.023504,-0.020306
521,-0.468420,-0.108212,9.888365,-0.517478,-0.206349,-0.008109,-0.520662,2.676260,-2.340926,0.999511,-0.004064,0.023440,-0.020315
522,-0.478918,-0.109648,9.911796,-0.546614,-0.058276,0.063603,-0.579263,2.688407,-2.341882,0.999506,-0.004573,0.023557,-0.020311
523,-0.471332,-0.108652,9.933983,-0.421568,-0.172662,0.327585,-0.617830,2.701301,-2.336393,0.999502,-0.004908,0.023676,-0.020254
524,-0.466416,-0.121044,9.929281,-0.391114,-0.338979,0.463389,-0.648881,2.695157,-2.323960,0.999505,-0.005183,0.023627,-0.020140
525,-0.474641,-0.092673,9.914485,-0.339216,-0.317599,0.380989,-0.655750,2.689122,-2.309531,0.999508,-0.005247,0.023575,-0.020013
526,-0.466849,-0.084895,9.923766,-0.195640,-0.341989,0.408463,-0.624523,2.685327,-2.294381,0.999513,-0.004978,0.023536,-0.019887
527,-0.464078,-0.094213,9.915041,-0.038347,-0.227546,0.323017,-0.593037,2.675759,-2.280442,0.999518,-0.004708,0.023446,-0.019773
528,-0.460081,-0.098261,9.907652,-0.013880,-0.193986,0.213154,-0.578622,2.665595,-2.270730,0.999523,-0.004586,0.023355,-0.019692
529,-0.456735,-0.093684,9.903847,0.175365,-0.400008,0.181110,-0.566913,2.649750,-2.263648,0.999528,-0.004488,0.023214,-0.019633
530,-0.464211,-0.083054,9.913326,0.042672,-0.325235,-0.099657,-0.545708,2.638513,-2.261362,0.999531,-0.004306,0.023113,-0.019618
531,-0.462926,-0.084342,9.925524,0.001544,-0.184818,-0.116439,-0.524486,2.638891,-2.263932,0.999531,-0.004120,0.023112,-0.019644
532,-0.452165,-0.094009,9.911642,0.169416,-0.506786,0.146021,-0.515954,2.628038,-2.263072,0.999534,-0.004048,0.023016,-0.019639
533,-0.453015,-0.086853,9.905224,0.102273,-0.679234,0.240628,-0.511882,2.603151,-2.256479,0.999540,-0.004018,0.022798,-0.019583
534,-0.449899,-0.074483,9.918386,0.148099,-0.546486,0.420690,-0.493716,2.580610,-2.244655,0.999547,-0.003865,0.022598,-0.019485
535,-0.431394,-0.084441,9.925252,0.428912,-0.722016,0.789966,-0.470736,2.545754,-2.223719,0.999558,-0.003675,0.022289,-0.019308
536,-0.430542,-0.089921,9.921304,0.325128,-0.961663,0.846423,-0.462948,2.496246,-2.196461,0.999573,-0.003621,0.021855,-0.019074
537,-0.429420,-0.084487,9.929867,0.181655,-0.894564,0.770124,-0.463679,2.454036,-2.169700,0.999585,-0.003639,0.021486,-0.018842
538,-0.427926,-0.078245,9.919637,0.167915,-0.774017,0.634317,-0.458657,2.425841,-2.146128,0.999594,-0.003605,0.021239,-0.018638
539,-0.424535,-0.086520,9.908390,0.109914,-0.735847,0.599221,-0.457384,2.407007,-2.125530,0.999601,-0.003600,0.021074,-0.018460
540,-0.429895,-0.087793,9.924323,0.006107,-0.424508,0.461885,-0.467605,2.402078,-2.108217,0.999604,-0.003693,0.021032,-0.018307
541,-0.422212,-0.081758,9.917459,0.184614,-0.212350,0.396270,-0.471496,2.407001,-2.094140,0.999606,-0.003729,0.021075,-0.018183
542,-0.422039,-0.067332,9.916224,0.151081,-0.187903,0.405427,-0.454325,2.409732,-2.080249,0.999608,-0.003581,0.021096,-0.018065
543,-0.413519,-0.080640,9.920506,0.277769,-0.248936,0.443577,-0.436514,2.403566,-2.065606,0.999612,-0.003430,0.021039,-0.017941
544,-0.415553,-0.074439,9.913948,0.230463,-0.194016,0.272674,-0.428262,2.392542,-2.053633,0.999616,-0.003362,0.020941,-0.017838
545,-0.413547,-0.057395,9.899123,0.218306,-0.264210,0.258942,-0.405907,2.384431,-2.044105,0.999620,-0.003170,0.020866,-0.017760
546,-0.414458,-0.068415,9.923835,0.213782,-0.287096,0.242159,-0.383200,2.376240,-2.035051,0.999623,-0.002975,0.020791,-0.017685
547,-0.416087,-0.074770,9.918158,0.235127,-0.242827,0.031581,-0.380883,2.372111,-2.030646,0.999624,-0.002956,0.020755,-0.017647
548,-0.421319,-0.067782,9.899609,0.210682,-0.222945,-0.117960,-0.382030,2.377200,-2.032388,0.999623,-0.002965,0.020799,-0.017662
549,-0.424516,-0.078380,9.907408,0.326611,-0.113008,-0.243088,-0.385033,2.391546,-2.038860,0.999620,-0.002987,0.020925,-0.017717
550,-0.425963,-0.085858,9.907039,0.410445,-0.170920,-0.195787,-0.398941,2.407531,-2.047229,0.999615,-0.003105,0.021067,-0.017787
551,-0.427299,-0.080443,9.902783,-0.268680,-0.125075,0.316921,-0.421705,2.421520,-2.046234,0.999612,-0.003301,0.021192,-0.017774
552,-0.425860,-0.060476,9.908306,-0.586071,-0.134179,0.718239,-0.434436,2.431867,-2.028904,0.999612,-0.003414,0.021284,-0.017620
553,-0.430059,-0.064657,9.921254,-0.569218,-0.211956,0.643472,-0.433877,2.438968,-2.005348,0.999615,-0.003412,0.021345,-0.017414
554,-0.428775,-0.088370,9.921935,-0.798115,-0.520150,0.507665,-0.458023,2.439038,-1.986147,0.999617,-0.003627,0.021349,-0.017242
555,-0.431077,-0.092215,9.927566,-0.837864,-0.669650,0.561069,-0.505858,2.431067,-1.969069,0.999619,-0.004048,0.021286,-0.017085
556,-0.421386,-0.093062,9.929792,-0.251961,-0.716931,0.307763,-0.538313,2.414607,-1.955007,0.999623,-0.004336,0.021147,-0.016957
557,-0.410715,-0.112800,9.923886,-0.023144,-0.651339,-0.002003,-0.563079,2.385331,-1.950549,0.999628,-0.004558,0.020895,-0.016915
558,-0.408055,-0.120505,9.929977,-0.249104,-0.387393,-0.081357,-0.602391,2.357071,-1.953209,0.999631,-0.004904,0.020654,-0.016932
559,-0.406661,-0.100749,9.921883,-0.139292,-0.222614,0.129219,-0.624635,2.340889,-1.952955,0.999633,-0.005101,0.020516,-0.016927
560,-0.400709,-0.100733,9.907771,-0.122476,-0.143283,0.065131,-0.619974,2.329844,-1.949284,0.999636,-0.005063,0.020419,-0.016896
561,-0.404043,-0.087111,9.900931,-0.084249,-0.198225,-0.174437,-0.601107,2.321572,-1.950136,0.999638,-0.004899,0.020344,-0.016907
562,-0.403170,-0.096761,9.916755,0.054689,-0.215004,-0.153071,-0.579441,2.316521,-1.954619,0.999639,-0.004710,0.020297,-0.016951
563,-0.395443,-0.093231,9.917851,0.013530,-0.034958,-0.131706,-0.566746,2.308493,-1.958852,0.999641,-0.004600,0.020225,-0.016990
564,-0.401937,-0.091436,9.926044,0.065451,-0.045651,-0.211053,-0.554350,2.303819,-1.964100,0.999641,-0.004491,0.020183,-0.017038
565,-0.405493,-0.086958,9.927174,0.063972,-0.111243,-0.185109,-0.539504,2.307569,-1.970161,0.999640,-0.004360,0.020214,-0.017094
566,-0.400908,-0.103588,9.916209,0.132634,0.094778,-0.298027,-0.537477,2.313258,-1.978254,0.999638,-0.004340,0.020263,-0.017164
567,-0.402539,-0.099597,9.908820,0.143267,0.267217,-0.468933,-0.547198,2.322064,-1.991660,0.999634,-0.004421,0.020342,-0.017279
568,-0.402157,-0.088042,9.895665,0.230245,-0.002863,-0.232415,-0.541584,2.328909,-2.003405,0.999631,-0.004369,0.020401,-0.017382
569,-0.394635,-0.083261,9.910010,0.147894,-0.042558,-0.136280,-0.521695,2.321930,-2.008987,0.999632,-0.004196,0.020338,-0.017435
570,-0.390453,-0.086353,9.922626,0.091475,0.077931,-0.409419,-0.506273,2.305839,-2.017618,0.999634,-0.004062,0.020195,-0.017514
571,-0.399112,-0.084769,9.923068,0.048769,-0.126579,-0.407893,-0.498828,2.294808,-2.031018,0.999635,-0.003997,0.020098,-0.017632
572,-0.399409,-0.084113,9.900888,0.068621,-0.515683,-0.185107,-0.493168,2.285792,-2.040652,0.999635,-0.003947,0.020019,-0.017718
573,-0.405718,-0.097836,9.902975,0.294427,-0.605676,-0.259878,-0.496016,2.277716,-2.048256,0.999635,-0.003972,0.019949,-0.017784
574,-0.400750,-0.088115,9.897981,0.401199,-0.570528,-0.272087,-0.497078,2.272326,-2.057449,0.999634,-0.003980,0.019903,-0.017864
575,-0.388386,-0.086907,9.886995,0.469856,-0.643764,0.060564,-0.485608,2.254591,-2.060920,0.999637,-0.003882,0.019747,-0.017897
576,-0.383266,-0.084539,9.895638,0.424072,-0.591912,0.181111,-0.472018,2.225600,-2.056776,0.999643,-0.003769,0.019491,-0.017864
577,-0.385256,-0.071073,9.929914,0.288293,-0.378302,0.014788,-0.451787,2.203718,-2.053061,0.999648,-0.003597,0.019297,-0.017836
578,-0.375792,-0.072625,9.931897,0.199838,-0.488190,0.167381,-0.430107,2.183527,-2.049394,0.999653,-0.003411,0.019118,-0.017809
579,-0.379115,-0.076231,9.907504,0.193745,-0.450056,0.101766,-0.420242,2.163797,-2.044670,0.999657,-0.003329,0.018944,-0.017770
580,-0.383328,-0.078730,9.911288,0.218137,-0.210456,-0.227834,-0.419914,2.161101,-2.046936,0.999657,-0.003326,0.018920,-0.017790
581,-0.378831,-0.081043,9.917763,0.334066,-0.259247,-0.270561,-0.422801,2.164162,-2.055635,0.999655,-0.003350,0.018948,-0.017865
582,-0.381959,-0.082196,9.911201,0.442356,-0.243954,-0.346859,-0.424502,2.165481,-2.066409,0.999653,-0.003362,0.018960,-0.017959
583,-0.381217,-0.064912,9.917802,0.480503,-0.076062,-0.473511,-0.410041,2.171162,-2.080066,0.999651,-0.003233,0.019008,-0.018080
584,-0.369474,-0.061507,9.940300,0.404260,-0.051651,-0.385005,-0.380957,2.167967,-2.093805,0.999650,-0.002978,0.018975,-0.018205
585,-0.369970,-0.059370,9.930767,0.344796,-0.140193,-0.223256,-0.355545,2.153799,-2.103429,0.999651,-0.002757,0.018848,-0.018293
586,-0.376268,-0.049114,9.916530,0.248718,-0.085268,-0.174425,-0.330290,2.147834,-2.109454,0.999652,-0.002536,0.018792,-0.018350
587,-0.376398,-0.053331,9.912922,0.140424,-0.123393,0.007162,-0.310617,2.150825,-2.111724,0.999651,-0.002364,0.018815,-0.018373
588,-0.378426,-0.063199,9.922187,0.033593,-0.057748,0.078881,-0.312235,2.156305,-2.110443,0.999651,-0.002377,0.018863,-0.018361
589,-0.378164,-0.067655,9.916538,0.028948,0.088771,0.063619,-0.329941,2.165455,-2.108779,0.999649,-0.002531,0.018946,-0.018344
590,-0.378756,-0.070444,9.918824,-0.061159,0.075062,-0.047776,-0.352515,2.175106,-2.109365,0.999647,-0.002726,0.019034,-0.018345
591,-0.384448,-0.063473,9.915933,-0.111559,0.030844,-0.055407,-0.368381,2.186273,-2.111588,0.999644,-0.002862,0.019134,-0.018361
592,-0.384565,-0.069892,9.913656,-0.061229,0.026306,0.069719,-0.378305,2.198599,-2.111626,0.999642,-0.002947,0.019243,-0.018360
593,-0.379040,-0.062280,9.905184,-0.036822,0.058364,0.013258,-0.382365,2.203981,-2.110347,0.999641,-0.002981,0.019290,-0.018348
594,-0.376656,-0.045930,9.906754,-0.074903,-0.078986,0.138387,-0.365035,2.198860,-2.107082,0.999643,-0.002832,0.019243,-0.018322
595,-0.379651,-0.048067,9.925865,0.065583,-0.254485,0.350495,-0.335933,2.188376,-2.097785,0.999647,-0.002581,0.019146,-0.018246
596,-0.371700,-0.056141,9.931211,0.097678,-0.372008,0.394748,-0.318624,2.170435,-2.084756,0.999652,-0.002435,0.018987,-0.018136
597,-0.363932,-0.050840,9.919047,0.051918,-0.436154,0.348971,-0.310420,2.140858,-2.072081,0.999659,-0.002370,0.018727,-0.018028
598,-0.363522,-0.061838,9.909440,0.112945,-0.558283,0.443577,-0.310319,2.108888,-2.058890,0.999667,-0.002377,0.018448,-0.017913
599,-0.368302,-0.076847,9.906376,0.111329,-0.529300,0.359649,-0.331764,2.088040,-2.046339,0.999671,-0.002569,0.018269,-0.017801
600,-0.361852,-0.069778,9.900932,-0.016953,-0.330917,0.286400,-0.359001,2.077340,-2.036549,0.999674,-0.002810,0.018180,-0.017712
601,-0.362103,-0.069605,9.892975,0.033345,-0.054712,0.155169,-0.374913,2.074332,-2.029743,0.999675,-0.002950,0.018156,-0.017650
602,-0.368953,-0.063946,9.905610,0.071473,0.012466,0.083450,-0.378557,2.084639,-2.025961,0.999674,-0.002981,0.018246,-0.017616
603,-0.367543,-0.056450,9.908630,0.057768,-0.051572,0.155170,-0.368156,2.097948,-2.021681,0.999673,-0.002889,0.018361,-0.017580
604,-0.361971,-0.054812,9.911380,0.108176,-0.031719,0.141438,-0.350554,2.101296,-2.016188,0.999673,-0.002736,0.018387,-0.017535
605,-0.367749,-0.055834,9.914169,0.193668,-0.037814,0.013261,-0.334211,2.102498,-2.013190,0.999674,-0.002593,0.018395,-0.017511
606,-0.370279,-0.050500,9.935320,0.106726,-0.220898,0.057515,-0.319120,2.105960,-2.011615,0.999674,-0.002461,0.018423,-0.017500
607,-0.361929,-0.065869,9.928036,0.138760,-0.226995,0.033100,-0.317526,2.100437,-2.010155,0.999675,-0.002449,0.018374,-0.017487
608,-0.358877,-0.070346,9.911592,0.202774,-0.066796,-0.285821,-0.333255,2.089136,-2.015121,0.999676,-0.002587,0.018278,-0.017528
609,-0.371297,-0.068293,9.906180,0.190492,0.128539,-0.598639,-0.348609,2.094398,-2.030658,0.999672,-0.002717,0.018327,-0.017661
610,-0.373956,-0.057873,9.905746,0.263712,0.250675,-0.546757,-0.348525,2.118292,-2.050048,0.999666,-0.002710,0.018536,-0.017830
611,-0.372910,-0.072979,9.906283,0.414750,0.224787,-0.470462,-0.346306,2.140990,-2.067373,0.999659,-0.002684,0.018734,-0.017981
612,-0.378464,-0.051738,9.913363,0.399477,0.266028,-0.539129,-0.337092,2.160795,-2.084394,0.999654,-0.002598,0.018906,-0.018130
613,-0.386018,-0.043846,9.931163,0.277469,0.310335,-0.438416,-0.307813,2.185954,-2.100046,0.999648,-0.002336,0.019121,-0.018271
615,-0.382023,-0.033329,9.926270,0.164649,0.133370,-0.201892,-0.272584,2.205076,-2.109682,0.999644,-0.002024,0.019282,-0.018360
616,-0.380627,-0.027213,9.931704,-0.070228,-0.071100,-0.104229,-0.238478,2.207184,-2.113535,0.999643,-0.001725,0.019295,-0.018399
617,-0.379772,-0.013047,9.907826,-0.173853,0.008236,-0.052342,-0.203174,2.202952,-2.114624,0.999644,-0.001418,0.019253,-0.018415
618,-0.383037,-0.028584,9.908405,-0.202744,0.162354,-0.034027,-0.181044,2.205618,-2.114979,0.999644,-0.001224,0.019272,-0.018422
619,-0.384033,-0.031127,9.913575,-0.243924,0.163892,-0.037078,-0.183005,2.214403,-2.115970,0.999642,-0.001240,0.019349,-0.018430
620,-0.375791,-0.043960,9.920021,-0.079159,-0.037547,0.133824,-0.198209,2.211954,-2.114745,0.999643,-0.001373,0.019330,-0.018417
621,-0.372237,-0.057340,9.893847,0.175567,-0.225287,0.060575,-0.225483,2.193088,-2.112602,0.999646,-0.001614,0.019170,-0.018394
622,-0.354509,-0.062950,9.891892,-0.077873,-0.397815,-0.502496,-0.262806,2.154625,-2.121402,0.999650,-0.001945,0.018841,-0.018465
623,-0.361942,-0.058061,9.912593,-0.186318,-0.613073,-0.745123,-0.298003,2.108756,-2.143249,0.999653,-0.002256,0.018447,-0.018651
624,-0.368091,-0.055618,9.912717,-0.192470,-0.646665,-0.816843,-0.318902,2.081145,-2.169689,0.999653,-0.002438,0.018210,-0.018879
625,-0.372872,-0.059471,9.924088,-0.293205,-0.452829,-0.980118,-0.334868,2.075167,-2.199804,0.999649,-0.002574,0.018161,-0.019140
626,-0.365063,-0.062105,9.942551,-0.453452,-0.182691,-1.054890,-0.355265,2.078274,-2.233927,0.999642,-0.002746,0.018192,-0.019434
627,-0.382142,-0.068180,9.952739,-0.226119,0.102731,-0.819897,-0.376265,2.097721,-2.265500,0.999633,-0.002920,0.018366,-0.019705
628,-0.380263,-0.063099,9.924805,-0.166620,0.203550,-0.565067,-0.387241,2.133402,-2.288769,0.999623,-0.003006,0.018680,-0.019905
629,-0.374844,-0.063297,9.931772,-0.200173,0.057124,-0.249200,-0.389035,2.155278,-2.302202,0.999617,-0.003016,0.018872,-0.020022
630,-0.371356,-0.057110,9.924711,-0.122310,-0.116824,-0.145435,-0.383121,2.156438,-2.308344,0.999616,-0.002963,0.018881,-0.020076
631,-0.367848,-0.068619,9.916968,-0.180272,-0.298431,-0.113390,-0.381805,2.143162,-2.312369,0.999617,-0.002953,0.018765,-0.020112
632,-0.351528,-0.054735,9.910364,-0.381668,-0.480088,0.075824,-0.383817,2.109794,-2.312633,0.999623,-0.002977,0.018474,-0.020115
633,-0.347097,-0.071350,9.935909,-0.424377,-0.255887,-0.136278,-0.391937,2.066237,-2.313354,0.999629,-0.003055,0.018096,-0.020121
634,-0.358250,-0.083638,9.940073,-0.377131,0.314753,-0.694770,-0.422478,2.051350,-2.327816,0.999628,-0.003322,0.017972,-0.020243
635,-0.367969,-0.102081,9.942229,-0.349792,0.778667,-0.842789,-0.471781,2.078713,-2.354901,0.999617,-0.003743,0.018220,-0.020471
636,-0.391499,-0.112626,9.929656,-0.171431,1.167901,-0.832112,-0.530219,2.145919,-2.384897,0.999599,-0.004236,0.018818,-0.020720
637,-0.409876,-0.117697,9.920298,0.190051,1.660975,-0.772606,-0.577361,2.249310,-2.413868,0.999575,-0.004623,0.019729,-0.020960
638,-0.411353,-0.096324,9.901543,0.452445,1.847313,-0.356028,-0.585785,2.357084,-2.433990,0.999552,-0.004673,0.020672,-0.021129
639,-0.400056,-0.095488,9.907168,0.579124,1.624570,0.155158,-0.561170,2.426914,-2.437601,0.999540,-0.004444,0.021276,-0.021162
640,-0.409590,-0.086103,9.893718,0.414372,1.682504,0.263501,-0.530720,2.467762,-2.430575,0.999535,-0.004173,0.021627,-0.021104
641,-0.410666,-0.055435,9.905316,0.374834,1.702266,0.342854,-0.478527,2.503000,-2.419314,0.999532,-0.003713,0.021924,-0.021015
642,-0.417237,-0.079439,9.902361,0.420726,1.306959,0.606843,-0.432151,2.527202,-2.402489,0.999532,-0.003307,0.022126,-0.020876
643,-0.439946,-0.080017,9.915205,0.258973,1.050566,0.435938,-0.421670,2.555712,-2.385471,0.999530,-0.003214,0.022373,-0.020728
644,-0.453660,-0.070256,9.917344,0.316951,0.960574,0.435938,-0.413473,2.600196,-2.371259,0.999524,-0.003137,0.022759,-0.020604
645,-0.450709,-0.058444,9.934361,0.463486,0.757656,0.432889,-0.386751,2.637541,-2.356369,0.999520,-0.002900,0.023079,-0.020479
646,-0.452369,-0.058948,9.916498,0.362835,0.824783,0.310817,-0.355050,2.659988,-2.343338,0.999518,-0.002622,0.023269,-0.020371
647,-0.466940,-0.044397,9.923671,-0.017048,1.226105,-0.090498,-0.328600,2.695361,-2.338919,0.999512,-0.002386,0.023573,-0.020336
648,-0.468174,-0.046139,9.893767,-0.198554,1.618292,-0.215619,-0.309762,2.749506,-2.343231,0.999501,-0.002211,0.024042,-0.020376
649,-0.482522,-0.055273,9.874730,-0.532706,2.279049,-0.470448,-0.315374,2.823150,-2.354701,0.999483,-0.002245,0.024685,-0.020473
650,-0.504303,-0.064776,9.890264,-0.923378,3.156528,-0.897708,-0.350847,2.933967,-2.378563,0.999454,-0.002529,0.025659,-0.020670
651,-0.518430,-0.075802,9.900034,-1.228637,3.747141,-1.227312,-0.409540,3.071364,-2.415871,0.999414,-0.003007,0.026869,-0.020977
652,-0.531108,-0.086460,9.891635,-1.617837,4.165277,-1.152546,-0.484587,3.212204,-2.457973,0.999371,-0.003625,0.028112,-0.021321
653,-0.532800,-0.120872,9.918676,-1.869768,4.560424,-0.781755,-0.587832,3.338098,-2.494003,0.999329,-0.004493,0.029231,-0.021604
654,-0.567999,-0.148839,9.943649,-1.381712,5.337018,-0.394185,-0.711784,3.473519,-2.519381,0.999284,-0.005541,0.030436,-0.021785
655,-0.608093,-0.165931,9.905124,-0.698355,6.109120,0.303148,-0.820059,3.659982,-2.527773,0.999226,-0.006447,0.032083,-0.021817
656,-0.652082,-0.163417,9.885160,-0.149209,7.296366,1.047789,-0.886060,3.905339,-2.511820,0.999155,-0.006979,0.034234,-0.021641
657,-0.696953,-0.174886,9.865334,0.889820,9.394639,1.336183,-0.907570,4.219331,-2.478744,0.999063,-0.007117,0.036974,-0.021323
658,-0.767844,-0.158702,9.809543,1.158310,12.884594,0.876876,-0.891437,4.637492,-2.448976,0.998930,-0.006906,0.040614,-0.021037
659,-0.867526,-0.111437,9.800876,-0.509444,17.107082,0.055940,-0.856470,5.209383,-2.439052,0.998720,-0.006497,0.045592,-0.020921
660,-0.992306,-0.108837,9.831744,-0.869391,20.194395,0.121574,-0.830894,5.934527,-2.441035,0.998414,-0.006137,0.051907,-0.020896
661,-1.103744,-0.114152,9.842388,-0.713602,22.294449,0.155165,-0.816587,6.750700,-2.442656,0.998022,-0.005857,0.059014,-0.020858
662,-1.223341,-0.102396,9.836454,-1.162081,23.813046,0.103303,-0.807574,7.604295,-2.444705,0.997557,-0.005616,0.066445,-0.020818
663,-1.363152,-0.117630,9.854439,-1.239777,24.585390,0.258966,-0.811778,8.475614,-2.445628,0.997025,-0.005486,0.074028,-0.020758
664,-1.507737,-0.154813,9.824789,0.559302,24.486399,0.971578,-0.818238,9.348759,-2.436377,0.996436,-0.005383,0.081624,-0.020607
665,-1.632396,-0.111357,9.754704,1.529816,25.249514,0.483288,-0.773485,10.220264,-2.422009,0.995793,-0.004839,0.089191,-0.020449
666,-1.807172,-0.081274,9.690247,2.144931,27.598097,0.400920,-0.662846,11.153613,-2.409651,0.995042,-0.003712,0.097278,-0.020365
667,-1.999889,-0.066805,9.655747,2.407592,30.238281,1.000651,-0.524620,12.212330,-2.384724,0.994111,-0.002338,0.106442,-0.020204
668,-2.213983,-0.024925,9.622002,3.353896,32.654305,2.221444,-0.349822,13.398220,-2.323588,0.992971,-0.000666,0.116692,-0.019781
669,-2.381090,0.013571,9.574896,3.271783,34.116634,2.526698,-0.134839,14.650692,-2.227163,0.991653,0.001311,0.127502,-0.019126
670,-2.582057,0.011169,9.547276,2.625015,36.013752,2.973852,0.055861,15.930943,-2.116426,0.990182,0.003042,0.138544,-0.018358
671,-2.780172,-0.030003,9.526303,1.286766,37.834492,3.094395,0.148283,17.248667,-2.010027,0.988536,0.003909,0.149910,-0.017536
672,-2.993698,-0.023815,9.479516,0.638067,39.617001,2.287126,0.154006,18.604628,-1.928710,0.986705,0.004047,0.161598,-0.016826
673,-3.208972,-0.043115,9.403595,-0.299091,40.195522,1.095299,0.104765,19.989292,-1.889392,0.984687,0.003762,0.173518,-0.016396
674,-3.407128,-0.037404,9.278640,-0.242884,39.429661,0.959404,0.028771,21.359879,-1.877890,0.982545,0.003284,0.185294,-0.016150
675,-3.608972,-0.069108,9.189375,-0.490344,38.695786,0.295528,-0.060256,22.688931,-1.885919,0.980331,0.002722,0.196689,-0.016032
676,-3.830757,-0.079845,9.107532,-0.919419,37.375938,-1.079449,-0.187142,23.978300,-1.939484,0.978051,0.001918,0.207723,-0.016216
677,-4.031975,-0.053988,9.026699,-0.821950,34.661400,-1.544937,-0.302601,25.201199,-2.018420,0.975770,0.001266,0.218164,-0.016613
678,-4.184737,-0.074673,8.948059,-0.147593,32.291615,-1.084154,-0.378543,26.311623,-2.089095,0.973601,0.000933,0.227620,-0.017000
679,-4.344218,-0.105017,8.888119,-0.654344,31.383543,-1.346684,-0.467157,27.329624,-2.165371,0.971531,0.000503,0.236272,-0.017397
680,-4.455860,-0.090942,8.774354,-0.858945,31.009436,-1.206365,-0.565463,28.297449,-2.244552,0.969490,0.000004,0.244484,-0.017786
681,-4.567894,-0.074721,8.652143,-0.511052,31.204428,-0.481561,-0.615665,29.240995,-2.291346,0.967439,-0.000151,0.252465,-0.017991
682,-4.684783,-0.137740,8.545692,-0.855978,32.432430,0.136396,-0.673893,30.197430,-2.323998,0.965294,-0.000394,0.260540,-0.018047
683,-4.837167,-0.131727,8.438920,-1.812884,33.449886,-0.139885,-0.783632,31.200594,-2.368482,0.962971,-0.001027,0.268997,-0.018067
684,-5.055179,-0.165017,8.367200,-2.246403,34.728451,-0.161344,-0.925708,32.289249,-2.425376,0.960364,-0.001873,0.278156,-0.018083
685,-5.285198,-0.188353,8.303914,-2.490748,35.349548,-0.494116,-1.102442,33.468742,-2.503778,0.957438,-0.002920,0.288054,-0.018152
686,-5.478127,-0.210893,8.236359,-2.609965,35.056694,-1.153440,-1.302046,34.676342,-2.609845,0.954331,-0.004057,0.298161,-0.018352
687,-5.665782,-0.210908,8.163304,-1.749482,33.500340,-1.057399,-1.478819,35.841843,-2.721612,0.951229,-0.004968,0.307883,-0.018624
688,-5.821747,-0.244211,8.086443,-0.827931,31.112257,-0.854526,-1.612764,36.914680,-2.823833,0.948288,-0.005545,0.316800,-0.018916
689,-5.962471,-0.236142,7.992409,-0.593020,28.521126,-1.435966,-1.723406,37.874451,-2.929236,0.945584,-0.005926,0.324753,-0.019294
690,-6.061868,-0.233807,7.880582,0.119574,25.514856,-0.564678,-1.785321,38.718128,-3.010271,0.943155,-0.005987,0.331719,-0.019616
691,-6.135559,-0.195868,7.797456,1.583022,22.299410,1.455705,-1.724864,39.425091,-2.997614,0.941101,-0.005343,0.337518,-0.019545
692,-6.176381,-0.210894,7.689141,2.469699,20.306105,2.720776,-1.562510,40.010345,-2.899706,0.939392,-0.004153,0.342288,-0.019110
693,-6.211281,-0.228373,7.596967,2.196558,19.792862,2.566642,-1.425705,40.530308,-2.807996,0.937851,-0.003182,0.346520,-0.018676
694,-6.248240,-0.226402,7.512422,0.415702,19.603071,1.226777,-1.391521,41.024113,-2.778427,0.936357,-0.002875,0.350551,-0.018451
695,-6.362816,-0.189986,7.456996,-1.024852,19.820774,0.015111,-1.437724,41.537846,-2.798604,0.934774,-0.003069,0.354753,-0.018384
696,-6.490785,-0.202040,7.379750,-1.777175,21.025965,-0.929481,-1.535111,42.135567,-2.856723,0.932902,-0.003537,0.359640,-0.018445
697,-6.621437,-0.192625,7.301200,-2.157153,22.707478,-2.177708,-1.678326,42.846073,-2.962250,0.930636,-0.004189,0.365442,-0.018712
698,-6.723970,-0.117000,7.159742,-2.082230,24.729477,-3.119058,-1.772923,43.677677,-3.060738,0.927946,-0.004422,0.372203,-0.019034
699,-6.816262,-0.085073,6.998809,-0.154628,28.373724,-1.872029,-1.722815,44.657799,-3.080709,0.924733,-0.003690,0.380116,-0.019153
700,-6.924292,-0.113362,6.824115,1.049680,32.935200,-0.801998,-1.584316,45.818577,-3.047502,0.920852,-0.002380,0.389437,-0.019112
701,-7.050685,-0.120026,6.663377,1.741168,37.566963,0.023789,-1.441719,47.157627,-3.010175,0.916254,-0.001021,0.400143,-0.019040
702,-7.217955,-0.146480,6.513993,2.116671,40.955097,1.299609,-1.311036,48.632492,-2.968584,0.911043,0.000243,0.411878,-0.018894
703,-7.431451,-0.154643,6.394216,2.441708,42.531914,2.964420,-1.178278,50.175663,-2.899111,0.905431,0.001416,0.424085,-0.018551
704,-7.606346,-0.159937,6.262840,3.416718,41.584686,4.854984,-0.991259,51.685623,-2.763613,0.899789,0.002728,0.435948,-0.017933
705,-7.720269,-0.169137,6.138605,4.139879,39.018147,5.771907,-0.757147,53.048935,-2.580889,0.894564,0.004147,0.446590,-0.017200
706,-7.841039,-0.171932,5.983262,3.573553,35.824169,5.370317,-0.558158,54.236080,-2.420712,0.889907,0.005294,0.455810,-0.016581
707,-7.896775,-0.102725,5.810855,2.779892,33.432674,4.352276,-0.385718,55.286606,-2.276668,0.885704,0.006236,0.463931,-0.016037
708,-7.952315,-0.112035,5.660807,2.077815,32.316727,3.860709,-0.245831,56.242821,-2.153340,0.881812,0.006965,0.471293,-0.015561
709,-8.021178,-0.103907,5.477339,0.383846,31.904240,2.438262,-0.227798,57.174774,-2.116045,0.877954,0.007090,0.478448,-0.015263
710,-8.137475,-0.136863,5.289973,-1.612302,32.421238,1.519291,-0.383041,58.164513,-2.195931,0.873789,0.006393,0.486029,-0.015122
712,-8.306766,-0.085922,5.095666,-3.504650,34.498062,1.055098,-0.616048,59.290634,-2.302872,0.868969,0.005268,0.494616,-0.014806
713,-8.469386,-0.104648,4.906222,-4.302826,35.804607,1.601187,-0.824826,60.561092,-2.354814,0.863437,0.004146,0.504243,-0.014116
714,-8.614604,-0.132882,4.673614,-4.344156,36.044769,2.467697,-1.033564,61.926178,-2.386844,0.857375,0.002983,0.514514,-0.013220
715,-8.746293,-0.153047,4.476781,-3.677471,35.572453,3.346378,-1.212565,63.323757,-2.391564,0.851044,0.001949,0.524950,-0.012209
716,-8.847071,-0.075350,4.276545,-3.093103,33.763393,3.138755,-1.235781,64.675690,-2.273045,0.844808,0.001499,0.534955,-0.010990
717,-8.877999,-0.095136,4.091661,-2.128708,30.004057,2.650486,-1.148756,65.894012,-2.083784,0.839092,0.001478,0.543899,-0.009807
718,-8.940643,-0.039087,3.903736,-1.875376,26.699308,2.760427,-0.998329,66.956612,-1.855838,0.834032,0.001667,0.551646,-0.008702
719,-8.973927,0.000188,3.750364,-1.213033,25.040956,3.589223,-0.653491,67.913986,-1.454718,0.829417,0.002361,0.558576,-0.007344
720,-9.010314,0.035930,3.599595,-0.291253,25.373857,4.318909,-0.116725,68.826515,-0.886985,0.824962,0.003534,0.565147,-0.005810
721,-9.035333,0.036064,3.451886,0.946370,27.569880,4.883750,0.523443,69.768875,-0.244128,0.820291,0.004965,0.571908,-0.004360
722,-9.091725,0.066507,3.296911,1.514078,31.038519,5.022775,1.216869,70.802071,0.429988,0.815089,0.006482,0.579292,-0.003093
723,-9.174122,0.080500,3.140779,1.820827,35.506649,4.060017,1.912791,71.968735,1.094217,0.809121,0.007896,0.587585,-0.002081
724,-9.275226,0.111940,2.950526,2.304564,39.684891,3.104837,2.579579,73.286812,1.714877,0.802274,0.009129,0.596885,-0.001429
725,-9.400373,0.137119,2.745873,2.237441,42.578339,2.746289,3.304939,74.733902,2.385303,0.794626,0.010286,0.607011,-0.000962
726,-9.506248,0.141409,2.547161,2.220661,43.770329,3.495523,4.165446,76.232460,3.195787,0.786560,0.011381,0.617408,-0.000500
727,-9.582735,0.124227,2.326017,2.611271,43.317257,4.473525,5.193616,77.705750,4.176152,0.778479,0.012427,0.627548,-0.000058
728,-9.592238,0.104167,2.092599,2.553223,41.760818,4.116179,6.262994,79.112984,5.198128,0.770631,0.013239,0.637144,0.000157
729,-9.623913,0.131016,1.854210,1.428546,39.516129,2.988186,7.317704,80.440086,6.222263,0.763127,0.013682,0.646103,0.000210
730,-9.637009,0.146604,1.635827,0.639590,37.515556,2.078451,8.462792,81.686691,7.361555,0.755980,0.013833,0.654448,0.000278
731,-9.655047,0.166156,1.415417,-0.100520,36.221474,0.982616,9.781299,82.873878,8.693500,0.749083,0.013754,0.662334,0.000355
732,-9.699676,0.175946,1.203223,-0.482025,35.313488,0.454491,11.480100,84.032410,10.419497,0.742256,0.013527,0.669980,0.000456
733,-9.740830,0.182164,1.003392,-0.381327,34.234623,0.729046,14.027603,85.157379,12.996481,0.735494,0.013337,0.677400,0.000623
734,-9.744671,0.190115,0.833516,-0.263838,33.032112,0.606906,18.080433,86.211678,17.073772,0.728974,0.013266,0.684412,0.000850
735,-9.761872,0.172640,0.642007,-0.166188,31.594561,0.693801,24.600466,87.182419,23.613997,0.722736,0.013186,0.690998,0.001015
736,-9.744416,0.198989,0.448133,-0.184505,30.492752,0.589975,37.151924,88.052673,36.183254,0.716618,0.013152,0.697341,0.001199
737,-9.707134,0.250774,0.259380,-0.419495,29.949507,0.335257,65.770187,88.658409,64.821785,0.710493,0.013370,0.703576,0.001667
738,-9.711023,0.285046,0.092213,-0.546141,30.651442,0.565958,109.306404,88.602684,108.384010,0.704246,0.013851,0.709817,0.002470
739,-9.714458,0.236518,-0.083790,-0.204332,31.762331,0.938484,137.064194,87.943291,136.165710,0.697748,0.014261,0.716194,0.003174
740,-9.693079,0.197997,-0.244304,-0.248582,31.995783,0.506588,151.213501,87.073769,150.334763,0.691098,0.014236,0.722613,0.003395
741,-9.775915,0.187747,-0.404484,-0.271466,29.671705,0.069971,159.085312,86.183968,158.227005,0.684766,0.013862,0.728623,0.003276
742,-9.798720,0.154205,-0.513754,-0.445412,24.745733,0.242112,163.664108,85.424866,162.827301,0.679499,0.013296,0.733550,0.002977
743,-9.788586,0.146441,-0.621523,-0.877238,17.417744,0.302815,166.342911,84.903725,165.534332,0.675895,0.012622,0.736885,0.002653
744,-9.769769,0.193261,-0.702509,-1.432673,10.233088,0.441486,167.461578,84.629539,166.695801,0.674026,0.012128,0.738603,0.002688
745,-9.741686,0.232961,-0.744750,-1.507465,4.607777,1.036669,167.021271,84.585716,166.309143,0.673807,0.012092,0.738801,0.003313
746,-9.678316,0.228577,-0.762870,-1.362535,1.361314,1.534287,165.699829,84.693634,165.039169,0.674666,0.012340,0.738008,0.004195
747,-9.678383,0.270507,-0.791769,-0.772035,0.591629,1.191162,164.153976,84.804085,163.531799,0.675584,0.012754,0.737155,0.005084
748,-9.694842,0.252471,-0.779493,-0.207468,1.715802,1.179131,162.915421,84.859741,162.311996,0.676126,0.013195,0.736645,0.005755
749,-9.725198,0.259075,-0.767166,0.140429,2.412747,0.925869,162.263702,84.889099,161.662720,0.676416,0.013466,0.736372,0.006057
750,-9.769100,0.265189,-0.788341,0.262494,2.098077,0.355175,161.968307,84.899651,161.362015,0.676531,0.013635,0.736262,0.006159
751,-9.762502,0.292070,-0.807203,0.114469,1.371547,-0.082703,161.749939,84.888947,161.139420,0.676504,0.013797,0.736283,0.006270
752,-9.705427,0.272397,-0.814075,-0.349421,0.637484,0.382771,161.516190,84.874512,160.911026,0.676457,0.013913,0.736323,0.006452
753,-9.679933,0.304916,-0.844055,-0.828569,-0.342130,0.536977,161.116684,84.848808,160.531525,0.676370,0.014045,0.736396,0.006830
754,-9.675164,0.313110,-0.850374,-1.028475,-0.900484,0.813348,160.386078,84.808456,159.832184,0.676259,0.014310,0.736487,0.007481
755,-9.679774,0.337266,-0.828101,-1.078848,-1.075893,1.581103,159.263580,84.785416,158.744919,0.676336,0.014723,0.736399,0.008328
756,-9.693766,0.323809,-0.799884,-0.749264,-1.419308,2.101597,157.894577,84.807213,157.405350,0.676749,0.015196,0.736000,0.009165
757,-9.715307,0.322748,-0.775811,-0.213671,-2.180948,1.883393,156.683197,84.890015,156.207245,0.677502,0.015531,0.735293,0.009663
758,-9.722321,0.315653,-0.755798,0.459262,-2.928899,1.571993,155.705826,85.021690,155.221802,0.678496,0.015737,0.734370,0.009769
759,-9.723169,0.305471,-0.727833,1.097108,-3.246547,1.602303,154.949554,85.183296,154.434509,0.679613,0.015878,0.733338,0.009527
760,-9.691150,0.297116,-0.711808,1.463342,-3.571780,0.744463,154.505188,85.355904,153.942047,0.680719,0.015931,0.732316,0.008986
761,-9.709560,0.323616,-0.716422,1.821947,-4.108975,-0.404748,154.307281,85.509789,153.685226,0.681657,0.015980,0.731450,0.008309
762,-9.717192,0.315072,-0.719191,2.410965,-4.261462,-0.887033,154.323837,85.629326,153.628143,0.682349,0.016120,0.730810,0.007541
763,-9.721066,0.302883,-0.670068,3.265493,-3.785280,-1.468512,154.622589,85.755821,153.829941,0.683026,0.016273,0.730184,0.006498
764,-9.728465,0.267878,-0.645779,4.054408,-3.374824,-2.497163,155.476562,85.917595,154.560608,0.683806,0.016285,0.729465,0.004988
765,-9.742374,0.219474,-0.622421,4.884531,-3.220753,-3.203991,157.377167,86.105850,156.310852,0.684578,0.016023,0.728758,0.002872
766,-9.728197,0.195052,-0.591619,5.526968,-2.569271,-3.662146,159.999588,86.299370,158.759033,0.685327,0.015692,0.728066,0.000390
767,-9.757810,0.179987,-0.567660,5.577337,-1.608070,-4.239226,162.813492,86.468193,161.389038,0.685980,0.015483,0.727453,-0.002088
768,-9.778910,0.163289,-0.567762,4.989863,-1.644792,-4.710886,165.661728,86.599525,164.064117,0.686474,0.015332,0.726979,-0.004375
769,-9.769533,0.179925,-0.577874,3.972067,-2.368062,-4.442261,167.812469,86.690147,166.069870,0.686838,0.015362,0.726622,-0.006134
770,-9.761804,0.218362,-0.577944,3.137365,-2.721955,-3.379821,168.052841,86.743462,166.197891,0.687141,0.015918,0.726317,-0.006964
771,-9.751343,0.180518,-0.559229,2.052407,-2.830171,-1.622999,166.993103,86.787766,165.057053,0.687496,0.016728,0.725961,-0.007155
772,-9.711107,0.168936,-0.527503,1.289426,-3.249763,-0.276804,165.581802,86.861374,163.592850,0.688066,0.017415,0.725404,-0.007121
773,-9.695726,0.184931,-0.512078,0.874359,-3.332182,0.579531,163.487061,86.948921,161.463455,0.688794,0.018151,0.724698,-0.006813
774,-9.686812,0.182596,-0.487207,0.766004,-2.892747,1.051303,161.030609,87.025398,158.980164,0.689508,0.018923,0.724002,-0.006372
775,-9.700203,0.159439,-0.466429,0.683599,-2.349571,1.086491,159.239807,87.100716,157.164429,0.690155,0.019444,0.723374,-0.006159
776,-9.712481,0.148886,-0.460722,0.671395,-2.074933,0.855988,158.535919,87.174301,156.436035,0.690667,0.019629,0.722879,-0.006277
777,-9.740711,0.169878,-0.460560,0.654615,-1.801751,0.526296,158.221039,87.224907,156.097198,0.690997,0.019748,0.722559,-0.006454
778,-9.759250,0.158815,-0.443880,0.576797,-1.725403,0.625414,157.894455,87.265480,155.748566,0.691272,0.019878,0.722291,-0.006596
779,-9.784103,0.152930,-0.435159,0.401320,-2.289975,0.713802,157.627197,87.326210,155.463150,0.691654,0.019916,0.721922,-0.006783
780,-9.768014,0.190271,-0.414831,0.245677,-2.816433,0.579502,156.557144,87.401878,154.381027,0.692214,0.020080,0.721381,-0.006769
781,-9.764086,0.207525,-0.387566,0.077818,-2.880598,0.565909,154.278122,87.483551,152.096359,0.692950,0.020463,0.720667,-0.006455
782,-9.753373,0.203953,-0.361455,-0.045790,-2.844104,0.610305,151.642975,87.573357,149.460571,0.693781,0.020825,0.719859,-0.006102
783,-9.760679,0.203869,-0.353273,-0.184655,-2.583275,0.527979,149.384064,87.658073,147.204895,0.694537,0.021038,0.719126,-0.005848
784,-9.758148,0.190735,-0.341026,-0.242640,-2.099595,0.070186,148.108582,87.731087,145.935562,0.695097,0.021026,0.718585,-0.005785
785,-9.775899,0.199013,-0.340162,-0.335719,-1.940873,-0.367807,147.718018,87.792732,145.553726,0.695474,0.020843,0.718225,-0.005861
786,-9.764925,0.197457,-0.326222,-0.300620,-1.983542,-0.265597,147.415283,87.844055,145.260742,0.695784,0.020665,0.717929,-0.005918
787,-9.756854,0.174532,-0.314454,-0.277729,-1.978926,-0.093246,147.244125,87.905945,145.098267,0.696131,0.020432,0.717599,-0.006045
788,-9.737330,0.172021,-0.310841,-0.209057,-1.727101,-0.601508,147.643814,87.972519,145.504929,0.696431,0.020088,0.717315,-0.006304
789,-9.728641,0.189727,-0.315785,-0.099187,-1.270743,-0.667167,148.156418,88.007179,146.022034,0.696553,0.019850,0.717201,-0.006487
790,-9.718596,0.169470,-0.310736,0.161750,-0.451179,-0.244496,148.776993,88.006882,146.641006,0.696480,0.019748,0.717274,-0.006607
791,-9.730083,0.185135,-0.319416,0.305190,-0.095481,-0.410820,149.557159,87.981903,147.413086,0.696257,0.019737,0.717490,-0.006718
792,-9.707610,0.185014,-0.331781,0.471517,-0.124278,-0.116254,150.085327,87.932182,147.928238,0.695930,0.019878,0.717803,-0.006738
793,-9.700464,0.213260,-0.322800,0.618005,-0.273653,0.642278,149.458054,87.872009,147.282822,0.695678,0.020305,0.718037,-0.006534
794,-9.703126,0.233855,-0.316148,0.801109,-0.598602,1.559623,147.058075,87.808128,144.859482,0.695641,0.021134,0.718054,-0.005993
795,-9.716582,0.223789,-0.320948,0.923177,-1.225715,2.121376,144.226105,87.754585,141.998306,0.695756,0.022060,0.717919,-0.005427
796,-9.742421,0.207957,-0.317403,1.052880,-1.146318,2.354861,142.244583,87.727722,139.982224,0.695916,0.022759,0.717744,-0.005155
797,-9.794445,0.225002,-0.300553,0.985743,-0.802982,2.025178,140.805420,87.721527,138.507111,0.696111,0.023279,0.717539,-0.005078
798,-9.816275,0.216213,-0.299362,0.811790,-0.824374,1.721392,139.753296,87.731949,137.423264,0.696327,0.023630,0.717317,-0.005118
799,-9.822551,0.236922,-0.283015,0.605793,-0.685565,0.816387,139.027740,87.758774,136.672699,0.696569,0.023809,0.717076,-0.005247
800,-9.815471,0.235782,-0.265290,0.354014,-0.470523,0.183039,138.336884,87.802864,135.965485,0.696885,0.023850,0.716765,-0.005409
801,-9.768435,0.249194,-0.273506,0.105288,-0.507236,-0.482310,137.962112,87.846413,135.583099,0.697147,0.023779,0.716513,-0.005575
802,-9.740095,0.286812,-0.280671,0.065611,-0.493497,-0.816366,137.442490,87.848503,135.061081,0.697240,0.023871,0.716419,-0.005512
803,-9.715643,0.273233,-0.275375,0.114436,-0.505660,-0.462153,136.687927,87.827774,134.304199,0.697266,0.024102,0.716387,-0.005309
804,-9.713105,0.242871,-0.280440,-0.057993,-0.592582,0.108593,136.491837,87.824173,134.107101,0.697283,0.024157,0.716370,-0.005268
805,-9.725986,0.253864,-0.287689,-0.189219,-0.436843,0.387806,136.669022,87.817436,134.287445,0.697224,0.024135,0.716428,-0.005249
806,-9.759004,0.261183,-0.265650,-0.163277,-0.410859,0.728104,136.193573,87.803047,133.817398,0.697237,0.024244,0.716412,-0.005073
807,-9.761439,0.265258,-0.258594,-0.157176,-0.464315,0.625901,135.065796,87.800728,132.694809,0.697417,0.024410,0.716233,-0.004844
808,-9.770872,0.265349,-0.269852,-0.320452,-0.301063,0.209342,134.355148,87.800018,131.991806,0.697539,0.024478,0.716114,-0.004680
809,-9.760309,0.270167,-0.258585,-0.263992,-0.139314,-0.233170,134.189911,87.803673,131.836319,0.697583,0.024428,0.716072,-0.004611
810,-9.752865,0.298391,-0.253696,-0.271626,-0.333136,-0.605400,133.634979,87.806076,131.290848,0.697690,0.024448,0.715969,-0.004474
811,-9.733837,0.295416,-0.248403,-0.297572,-0.595643,-0.559460,132.595673,87.806076,130.261902,0.697873,0.024547,0.715788,-0.004247
812,-9.729788,0.241930,-0.252423,-0.454742,-1.035135,-0.112384,132.214554,87.842056,129.893143,0.698091,0.024363,0.715582,-0.004279
813,-9.717950,0.262398,-0.236831,-0.408962,-1.172495,0.035509,131.958694,87.898201,129.650833,0.698369,0.024055,0.715320,-0.004421
815,-9.728423,0.261412,-0.232681,-0.386073,-1.116081,0.336078,130.980927,87.935310,128.685684,0.698689,0.023943,0.715011,-0.004376
816,-9.723582,0.253275,-0.227754,-0.383022,-0.907053,0.493204,130.091751,87.961159,127.808701,0.698945,0.023870,0.714764,-0.004300
817,-9.720338,0.250616,-0.234196,-0.335715,-0.540804,0.535855,129.798889,87.974930,127.526917,0.699050,0.023775,0.714665,-0.004258
818,-9.728250,0.291096,-0.232265,-0.209063,-0.038706,0.314633,129.559418,87.949478,127.296013,0.698991,0.023875,0.714720,-0.004051
819,-9.732849,0.281089,-0.236061,-0.122085,0.324541,0.340688,129.355301,87.898575,127.097549,0.698828,0.024114,0.714873,-0.003744
820,-9.743063,0.275995,-0.237681,-0.035107,0.413119,0.188131,129.721420,87.863106,127.466133,0.698622,0.024218,0.715072,-0.003608
821,-9.740545,0.257432,-0.236146,0.019830,0.292614,0.558865,130.324768,87.852600,128.069351,0.698471,0.024183,0.715220,-0.003645
822,-9.749246,0.283944,-0.232268,0.033565,0.179694,0.714459,130.355026,87.842056,128.098434,0.698424,0.024236,0.715264,-0.003607
823,-9.756833,0.269022,-0.231769,0.042720,0.020967,0.960116,129.853851,87.828224,127.595810,0.698459,0.024386,0.715226,-0.003475
824,-9.757461,0.268965,-0.238287,0.003048,-0.371211,1.245387,129.398911,87.823090,127.139290,0.698522,0.024486,0.715161,-0.003394
825,-9.759841,0.308558,-0.245171,-0.183115,-0.593964,1.579585,128.389328,87.786713,126.131950,0.698569,0.024797,0.715107,-0.003056
826,-9.771320,0.324798,-0.237946,-0.289933,-0.520681,1.721644,126.719467,87.714409,124.469414,0.698621,0.025350,0.715039,-0.002413
827,-9.762351,0.316715,-0.236800,-0.350971,-0.548127,1.842289,125.211067,87.650978,122.970825,0.698699,0.025824,0.714948,-0.001816
828,-9.750825,0.329639,-0.234090,-0.392171,-0.406194,1.901821,124.065666,87.600121,121.836678,0.698764,0.026175,0.714872,-0.001325
829,-9.759119,0.349027,-0.234888,-0.451683,-0.209323,1.747741,123.067001,87.541939,120.851341,0.698784,0.026536,0.714840,-0.000801
830,-9.736787,0.339609,-0.227954,-0.250260,-0.059766,1.686703,122.351532,87.494072,120.146576,0.698785,0.026821,0.714828,-0.000382
831,-9.730931,0.342677,-0.221227,-0.057992,-0.140660,1.422635,121.826637,87.474617,119.626122,0.698843,0.026970,0.714767,-0.000179
832,-9.734787,0.365443,-0.217133,0.073237,-0.348233,1.045684,121.089355,87.462402,118.888062,0.698976,0.027142,0.714630,-0.000017
833,-9.753619,0.387342,-0.212706,0.105278,-0.549713,0.783277,119.966911,87.439217,117.762436,0.699172,0.027436,0.714427,0.000238
834,-9.746111,0.372075,-0.202773,0.204460,-0.284276,0.809251,118.893570,87.424812,116.683861,0.699389,0.027687,0.714204,0.000425
835,-9.766288,0.369399,-0.197349,0.244132,-0.032586,0.539102,118.256187,87.434708,116.038979,0.699575,0.027762,0.714020,0.000407
836,-9.766294,0.394368,-0.204999,0.170886,-0.069258,0.270521,117.863335,87.434784,115.639297,0.699672,0.027854,0.713921,0.000414
837,-9.773634,0.392623,-0.218383,-0.053426,0.066583,0.311763,117.828217,87.411316,115.602005,0.699612,0.028002,0.713974,0.000536
838,-9.762688,0.389172,-0.209018,-0.074787,0.286365,0.249213,118.076836,87.390602,115.852577,0.699489,0.028072,0.714091,0.000630
839,-9.766315,0.394262,-0.203432,-0.083942,0.173438,0.066103,118.115303,87.383263,115.893898,0.699458,0.028089,0.714121,0.000682
840,-9.754124,0.415895,-0.205551,-0.146509,0.109318,-0.402285,117.883286,87.372437,115.666245,0.699485,0.028152,0.714092,0.000798
841,-9.751668,0.409498,-0.211757,-0.215178,0.393134,-0.750089,117.890305,87.359283,115.679993,0.699445,0.028180,0.714130,0.000910
842,-9.727859,0.360385,-0.210247,-0.111413,0.509112,-0.586880,118.640678,87.387085,116.436066,0.699338,0.027895,0.714246,0.000696
843,-9.730963,0.364596,-0.215374,-0.146505,0.275654,-0.698453,119.719879,87.442886,117.519463,0.699243,0.027424,0.714358,0.000277
844,-9.735090,0.384135,-0.222846,-0.314355,0.036113,-0.603901,120.392441,87.468353,118.199654,0.699161,0.027150,0.714449,0.000097
845,-9.748096,0.369526,-0.229434,-0.402856,0.048375,-0.075917,120.799919,87.466576,118.619034,0.699058,0.027031,0.714554,0.000125
846,-9.735769,0.350987,-0.217961,-0.291462,0.402416,0.194108,121.259293,87.472374,119.089767,0.698969,0.026867,0.714648,0.000100
847,-9.742108,0.377387,-0.219945,-0.235003,0.587035,-0.071430,121.542488,87.471054,119.381981,0.698898,0.026777,0.714720,0.000123
848,-9.735580,0.374537,-0.229460,-0.189225,0.654179,-0.050015,121.801231,87.448868,119.648422,0.698764,0.026812,0.714849,0.000252
849,-9.731166,0.369718,-0.231658,-0.152603,0.654202,0.050724,122.238297,87.427399,120.091515,0.698590,0.026826,0.715020,0.000341
850,-9.723804,0.366366,-0.231878,-0.082410,0.648104,-0.097296,122.700768,87.416840,120.558304,0.698445,0.026788,0.715162,0.000355
851,-9.747550,0.373028,-0.246303,-0.196854,0.309371,-0.077460,123.146179,87.407310,121.008591,0.698307,0.026741,0.715298,0.000369
852,-9.749427,0.388057,-0.255771,-0.260941,-0.053732,-0.025517,123.376640,87.381172,121.246704,0.698162,0.026796,0.715438,0.000518
853,-9.745345,0.369463,-0.263125,-0.233472,0.060807,0.143907,123.677696,87.353806,121.555588,0.697996,0.026844,0.715598,0.000662
854,-9.742589,0.376740,-0.261887,-0.231943,0.263843,0.175949,124.158325,87.332886,122.043549,0.697808,0.026832,0.715782,0.000741
855,-9.746322,0.366622,-0.250483,-0.297557,0.082281,0.540624,124.293030,87.320946,122.186890,0.697733,0.026818,0.715855,0.000833
856,-9.741453,0.361361,-0.250503,-0.253304,-0.168002,0.459679,124.142784,87.329727,122.045494,0.697800,0.026741,0.715793,0.000865
857,-9.750856,0.380050,-0.248427,-0.256356,0.123411,0.195660,123.910995,87.335159,121.822029,0.697875,0.026697,0.715721,0.000924
858,-9.744191,0.393955,-0.241952,-0.227367,0.375136,0.235396,123.490265,87.318321,121.409874,0.697918,0.026796,0.715675,0.001131
859,-9.737725,0.388879,-0.253391,-0.172437,0.446827,0.223266,123.245262,87.290581,121.172264,0.697883,0.026934,0.715704,0.001358
860,-9.729316,0.371575,-0.271394,-0.097663,0.570488,0.316333,123.785248,87.267769,121.716515,0.697670,0.026940,0.715911,0.001418
861,-9.735268,0.395426,-0.272763,-0.050356,0.710971,0.349891,124.541756,87.233742,122.475151,0.697363,0.026979,0.716208,0.001484
862,-9.751420,0.384703,-0.264114,-0.001525,0.706427,0.665775,124.845085,87.197044,122.779381,0.697156,0.027111,0.716404,0.001628
863,-9.763084,0.371437,-0.265259,0.025942,0.479032,0.561941,125.021156,87.190765,122.955177,0.697089,0.027117,0.716470,0.001629
864,-9.769574,0.371900,-0.264534,0.094610,0.161585,-0.013456,125.244370,87.214066,123.176308,0.697118,0.026973,0.716447,0.001459
865,-9.754595,0.412816,-0.262671,0.096133,0.030292,-0.404079,125.034050,87.225258,122.963326,0.697211,0.026967,0.716357,0.001421
866,-9.737046,0.401279,-0.262928,0.134276,0.153835,-0.327666,124.570770,87.215401,122.497154,0.697291,0.027112,0.716274,0.001531
867,-9.750338,0.394489,-0.265684,0.166318,0.190424,-0.496988,124.489174,87.216034,122.411385,0.697313,0.027150,0.716251,0.001516
868,-9.752407,0.391922,-0.260895,0.119012,0.120199,-0.451195,124.561310,87.227875,122.479362,0.697337,0.027103,0.716229,0.001417
869,-9.758839,0.395305,-0.258730,0.067128,0.178134,-0.515264,124.527138,87.241463,122.442673,0.697394,0.027054,0.716176,0.001338
870,-9.768876,0.385563,-0.259733,0.035082,0.220812,-0.802126,124.629959,87.260689,122.544579,0.697437,0.026944,0.716138,0.001216
871,-9.775294,0.372122,-0.267169,0.007615,-0.008093,-1.024955,125.126266,87.296577,123.040512,0.697445,0.026681,0.716141,0.000950
872,-9.736862,0.374318,-0.274551,-0.056472,-0.107245,-1.118078,125.846992,87.330826,123.762222,0.697398,0.026382,0.716198,0.000662
873,-9.733819,0.375451,-0.287512,-0.041209,0.103426,-1.157736,126.723404,87.341995,124.640411,0.697234,0.026171,0.716366,0.000472
874,-9.724830,0.371691,-0.300716,0.050350,0.256173,-0.931846,127.838799,87.327896,125.755577,0.696922,0.026053,0.716673,0.000351
875,-9.719056,0.368265,-0.307231,0.108340,0.300601,-0.681537,128.965866,87.299332,126.879807,0.696552,0.026012,0.717034,0.000276
876,-9.732865,0.364432,-0.301688,0.119025,0.221375,-0.504478,129.752426,87.275879,127.662575,0.696278,0.026008,0.717301,0.000226
877,-9.739214,0.351074,-0.297073,0.108346,-0.103607,-0.388501,130.147430,87.277176,128.053833,0.696193,0.025952,0.717385,0.000124
878,-9.735739,0.365590,-0.294513,0.076299,-0.462208,-0.501401,130.082565,87.292236,127.986137,0.696269,0.025910,0.717313,0.000046
879,-9.741931,0.354068,-0.277367,0.038147,-0.413448,-0.367080,129.576538,87.316856,127.478745,0.696482,0.025893,0.717107,0.000012
880,-9.746470,0.341549,-0.274408,-0.010685,-0.325049,-0.333537,129.135880,87.358177,127.037987,0.696745,0.025771,0.716855,-0.000112
881,-9.741644,0.348213,-0.283373,-0.039678,-0.175558,-0.475480,129.066422,87.389931,126.969490,0.696886,0.025623,0.716724,-0.000248
882,-9.739165,0.373708,-0.289172,-0.025946,0.010632,-0.406729,129.021225,87.379974,126.925797,0.696856,0.025670,0.716751,-0.000182
883,-9.747066,0.348933,-0.282148,-0.001533,0.228870,-0.096874,128.995361,87.357956,126.900719,0.696776,0.025776,0.716825,-0.000066
884,-9.746674,0.334881,-0.278854,-0.045784,0.097633,-0.046555,129.218994,87.365746,127.125137,0.696757,0.025693,0.716847,-0.000138
885,-9.760333,0.348489,-0.275880,-0.032050,-0.094670,-0.357884,129.301895,87.386559,127.209579,0.696820,0.025570,0.716790,-0.000244
886,-9.749771,0.354059,-0.273894,-0.042735,-0.146599,-0.319706,129.042892,87.399773,126.952263,0.696929,0.025541,0.716685,-0.000253
887,-9.740819,0.337371,-0.271403,0.027457,0.024260,-0.330378,128.900162,87.415176,126.810150,0.697022,0.025486,0.716597,-0.000300
888,-9.748025,0.326780,-0.268376,0.016775,-0.108541,-0.391480,129.081451,87.447487,126.990837,0.697109,0.025302,0.716518,-0.000492
889,-9.740998,0.336991,-0.275382,0.024405,-0.401536,-0.484607,129.236511,87.477798,127.145195,0.697195,0.025133,0.716440,-0.000669
890,-9.729312,0.346084,-0.288687,0.045769,-0.506769,-0.284670,129.269211,87.477959,127.176498,0.697190,0.025135,0.716446,-0.000685
891,-9.732567,0.340195,-0.272947,0.148006,-0.319024,0.049574,129.100296,87.465179,127.004082,0.697175,0.025247,0.716456,-0.000615
892,-9.756893,0.328287,-0.261551,0.093072,-0.546413,0.202171,128.638168,87.475006,126.537872,0.697313,0.025303,0.716320,-0.000610
893,-9.741403,0.364516,-0.265693,0.054921,-0.711253,0.058798,127.749390,87.477180,125.646645,0.697513,0.025454,0.716120,-0.000489
894,-9.744617,0.370282,-0.264560,0.097642,-0.432012,-0.037160,126.712166,87.449097,124.607224,0.697636,0.025774,0.715988,-0.000196
895,-9.746712,0.361948,-0.252167,0.096112,-0.232133,-0.056866,125.958633,87.429985,123.850906,0.697735,0.026008,0.715884,0.000003
896,-9.735624,0.350859,-0.253747,-0.033594,-0.308459,-0.012582,125.537712,87.433716,123.429070,0.697845,0.026061,0.715775,0.000045
897,-9.731791,0.357175,-0.259958,-0.012231,-0.253515,-0.123976,125.457176,87.439751,123.348991,0.697885,0.026039,0.715737,0.000030
898,-9.734736,0.349003,-0.255413,0.036600,0.109683,-0.171290,125.655769,87.442810,123.547028,0.697851,0.025996,0.715771,-0.000021
899,-9.734102,0.349634,-0.249981,0.054912,0.236334,-0.096546,125.913017,87.449554,123.802826,0.697817,0.025930,0.715806,-0.000104
900,-9.740730,0.343399,-0.258280,0.012187,0.077639,-0.032492,126.171066,87.455933,124.059845,0.697783,0.025865,0.715842,-0.000183
901,-9.743206,0.348070,-0.265928,0.041182,0.033428,-0.011157,126.534302,87.454704,124.421822,0.697697,0.025821,0.715928,-0.000242
902,-9.745397,0.353073,-0.260075,0.065598,0.173850,0.040735,126.740784,87.443649,124.626526,0.697610,0.025855,0.716012,-0.000230
903,-9.739285,0.345157,-0.260548,0.109850,0.161651,0.098725,126.832993,87.436081,124.715836,0.697560,0.025896,0.716058,-0.000225
904,-9.747823,0.334952,-0.265379,0.099170,0.125040,0.031532,127.152489,87.441048,125.031654,0.697508,0.025842,0.716111,-0.000324
905,-9.738612,0.324964,-0.253982,0.074757,0.085350,-0.046396,127.557686,87.465958,125.433693,0.697512,0.025673,0.716113,-0.000532
906,-9.730217,0.345060,-0.265927,0.007617,-0.158814,-0.502702,127.793556,87.488686,125.668091,0.697548,0.025531,0.716083,-0.000692
907,-9.724963,0.353202,-0.281154,-0.006116,-0.315915,-0.534688,128.009659,87.482307,125.884163,0.697477,0.025527,0.716152,-0.000696
908,-9.740208,0.343502,-0.278516,-0.117507,-0.465355,-0.049379,128.166580,87.465721,126.042816,0.697379,0.025573,0.716246,-0.000630
909,-9.741005,0.348322,-0.269263,-0.267046,-0.739970,0.232963,127.843407,87.456627,125.725571,0.697414,0.025634,0.716209,-0.000495
910,-9.747996,0.370864,-0.272093,-0.291463,-0.952046,0.187298,126.939751,87.438301,124.831009,0.697545,0.025816,0.716076,-0.000202
911,-9.756945,0.371483,-0.258640,-0.305200,-0.768927,0.544514,125.732063,87.409653,123.633087,0.697712,0.026092,0.715903,0.000196
912,-9.765461,0.356355,-0.251650,-0.337247,-0.494291,0.613241,124.731079,87.397141,122.642624,0.697899,0.026248,0.715715,0.000480
913,-9.755627,0.363302,-0.250403,-0.349456,-0.468375,0.359927,124.132225,87.399323,122.054825,0.698046,0.026260,0.715571,0.000629
914,-9.751466,0.365941,-0.250575,-0.262477,-0.500420,0.280573,123.711525,87.400826,121.643723,0.698151,0.026255,0.715469,0.000744
915,-9.739348,0.357670,-0.251541,-0.175499,-0.314233,0.192038,123.594193,87.405502,121.533142,0.698195,0.026206,0.715428,0.000778
916,-9.739075,0.356619,-0.252859,-0.086992,-0.060886,0.062272,123.866096,87.413284,121.808784,0.698158,0.026102,0.715468,0.000720
918,-9.730378,0.354556,-0.255468,-0.067151,-0.488089,-0.125480,124.224335,87.425034,122.168892,0.698116,0.025975,0.715514,0.000616
919,-9.708672,0.367677,-0.269324,0.068660,-0.640581,-0.419994,124.558517,87.429756,122.502258,0.698055,0.025905,0.715576,0.000536
920,-9.725549,0.378673,-0.265077,0.328069,-0.434460,-0.688481,124.827797,87.417976,122.764412,0.697950,0.025968,0.715675,0.000512
921,-9.744595,0.359466,-0.229709,0.314336,-0.806796,-0.195554,124.399719,87.431351,122.325684,0.698097,0.026032,0.715530,0.000444
922,-9.762063,0.336060,-0.199966,0.085441,-2.033843,-0.075084,122.767975,87.511314,120.687294,0.698748,0.025897,0.714899,0.000226
923,-9.784265,0.352471,-0.172089,-0.164820,-3.116032,-0.580255,119.711693,87.632309,117.632225,0.699829,0.025648,0.713850,-0.000009
924,-9.808207,0.382577,-0.127887,-0.575309,-4.454651,-1.111204,114.602257,87.745880,112.535324,0.701294,0.025500,0.712416,-0.000003
925,-9.809119,0.332315,-0.106216,-1.141441,-6.238791,-1.010445,108.153648,87.865768,106.114319,0.702992,0.025166,0.710752,0.000003
926,-9.789881,0.364554,-0.108714,-1.242157,-7.909810,-1.486535,101.135551,87.975899,99.132515,0.704691,0.024653,0.709086,-0.000061
927,-9.782403,0.387621,-0.075373,-1.278780,-9.736334,-0.804302,92.813721,88.008453,90.847816,0.706503,0.024411,0.707289,0.000156
928,-9.777017,0.378312,0.011387,-1.455789,-12.188539,1.142970,82.184601,87.931709,80.258438,0.708839,0.024496,0.704944,0.000729
929,-9.784383,0.358092,0.120837,-1.591604,-15.646507,2.681205,69.290672,87.710564,67.408333,0.712082,0.024742,0.701659,0.001517
930,-9.786824,0.410091,0.259370,-1.648078,-20.156040,3.044489,56.024204,87.264908,54.187408,0.716469,0.025172,0.697160,0.002511
931,-9.810887,0.420841,0.417007,-1.814423,-25.125057,3.830508,44.669453,86.546112,42.879864,0.722087,0.025780,0.691312,0.003705
932,-9.767348,0.410858,0.587368,-1.959414,-29.106905,4.501977,35.927250,85.600159,34.188343,0.728723,0.026313,0.684285,0.004870
933,-9.724106,0.454473,0.750608,-1.974701,-31.278982,3.754300,29.734470,84.511055,28.046675,0.735863,0.026760,0.676576,0.005955
934,-9.688204,0.446582,0.907931,-1.869438,-31.471788,2.719723,25.338657,83.398445,23.698196,0.742904,0.027001,0.668819,0.006790
935,-9.639054,0.470181,1.071928,-1.631415,-30.344486,1.546237,22.056242,82.338760,20.455538,0.749484,0.026981,0.661432,0.007271
936,-9.624279,0.457223,1.244906,-1.443747,-29.566502,0.503952,19.441467,81.337479,17.872095,0.755618,0.026740,0.654425,0.007427
937,-9.641775,0.451754,1.395109,-0.969211,-30.341791,-1.206755,17.073818,80.373306,15.522289,0.761498,0.026191,0.647599,0.007111
938,-9.628106,0.457455,1.559829,-0.187958,-32.882477,-1.679921,14.956740,79.378601,13.397409,0.767461,0.025610,0.640552,0.006449
939,-9.589484,0.459056,1.752848,0.460549,-36.474537,-0.715595,13.244508,78.262863,11.650738,0.773933,0.025367,0.632733,0.005801
940,-9.550985,0.486665,1.954119,0.513965,-39.686687,0.174078,12.007588,77.000000,10.365391,0.781015,0.025597,0.623963,0.005461
941,-9.492824,0.516091,2.178878,0.318683,-41.133396,0.868572,11.186773,75.631416,9.495323,0.788474,0.026229,0.614484,0.005519
942,-9.453404,0.539173,2.430185,0.214977,-40.872654,1.756937,10.657810,74.213158,8.921483,0.796020,0.027124,0.604633,0.005899
943,-9.400045,0.536842,2.670356,-0.190867,-39.977169,2.004380,10.243171,72.797523,8.473330,0.803416,0.027994,0.594726,0.006398
944,-9.354565,0.523190,2.894022,-0.506713,-39.038940,1.444478,9.768601,71.425049,7.980925,0.810505,0.028492,0.585000,0.006720
945,-9.333073,0.484816,3.126468,-0.813460,-39.016220,1.421510,9.171371,70.091652,7.382830,0.817335,0.028466,0.575420,0.006727
946,-9.260163,0.486434,3.361923,-0.737242,-40.023510,1.032202,8.524577,68.742561,6.743348,0.824157,0.028128,0.565625,0.006523
947,-9.165543,0.492327,3.583543,-1.073022,-41.751080,0.465911,7.909114,67.335228,6.135656,0.831142,0.027717,0.555333,0.006258
948,-9.051557,0.476942,3.787850,-1.373705,-42.860634,0.111735,7.314863,65.884811,5.556196,0.838205,0.027169,0.544645,0.005944
949,-8.928785,0.512044,3.981474,-1.598056,-42.879066,-0.530759,6.801374,64.435951,5.057614,0.845109,0.026654,0.533899,0.005668
950,-8.789631,0.545338,4.171303,-1.417951,-42.294662,-1.047947,6.435383,63.018188,4.690881,0.851700,0.026459,0.523331,0.005524
951,-8.681374,0.553295,4.367378,-1.474304,-42.004681,-1.339192,6.162800,61.635517,4.403643,0.857984,0.026476,0.512964,0.005428
952,-8.579276,0.522032,4.580543,-1.272794,-42.830109,-1.218480,5.886121,60.256435,4.110683,0.864132,0.026401,0.502545,0.005224
953,-8.495046,0.524878,4.811019,-1.085045,-44.874763,-1.213804,5.598244,58.826321,3.802750,0.870378,0.026241,0.491659,0.004898
954,-8.375936,0.544919,5.058597,-0.917107,-47.848793,-0.073790,5.384485,57.287628,3.561213,0.876924,0.026324,0.479884,0.004734
955,-8.222721,0.519979,5.304489,-0.765962,-50.331585,1.562141,5.242637,55.620434,3.397578,0.883817,0.026618,0.467051,0.004866
956,-8.050019,0.513059,5.527435,-0.892583,-51.108444,2.619670,5.125112,53.883160,3.276723,0.890793,0.026900,0.453583,0.005213
957,-7.875676,0.573403,5.745072,-0.961166,-48.830357,2.505350,5.076788,52.181168,3.225623,0.897411,0.027394,0.440306,0.005782
958,-7.695435,0.580443,5.946311,-0.947288,-44.299915,2.656614,5.089940,50.613857,3.230196,0.903315,0.028090,0.428007,0.006482
959,-7.571104,0.564021,6.123455,-1.168451,-38.821720,1.918178,5.067580,49.258991,3.211396,0.908293,0.028504,0.417304,0.007030
960,-7.470960,0.562904,6.291809,-1.171470,-33.318920,0.845464,4.982997,48.145329,3.138456,0.912309,0.028516,0.408443,0.007254
961,-7.372618,0.547593,6.449077,-0.887662,-29.143579,-0.115920,4.854722,47.224136,3.017021,0.915586,0.028259,0.401066,0.007142
962,-7.286106,0.528283,6.599150,-0.941139,-27.591311,-0.544815,4.686108,46.398869,2.854510,0.918487,0.027761,0.394417,0.006775
963,-7.197062,0.482948,6.731737,-0.932133,-27.984655,-0.769316,4.465909,45.579239,2.651174,0.921336,0.026957,0.387782,0.006224
964,-7.077790,0.499844,6.860028,-0.994854,-29.458458,-1.422595,4.232545,44.699780,2.430375,0.924338,0.026087,0.380641,0.005562
965,-6.943116,0.509027,6.974878,-1.364193,-32.183640,-1.872820,4.030787,43.714489,2.224035,0.927620,0.025413,0.372628,0.004910
966,-6.805251,0.521412,7.072668,-1.585427,-34.258823,-1.653068,3.868477,42.634880,2.048153,0.931120,0.024944,0.363832,0.004372
967,-6.654368,0.537883,7.169841,-1.809617,-35.407742,-1.330991,3.760833,41.506863,1.920365,0.934674,0.024745,0.354621,0.004036
968,-6.499311,0.561611,7.295391,-1.907057,-36.138554,-1.355214,3.703788,40.347504,1.832549,0.938219,0.024818,0.345129,0.003859
969,-6.385729,0.526816,7.436954,-1.873277,-37.226395,-1.055959,3.644982,39.166290,1.745910,0.941733,0.024856,0.335423,0.003688
970,-6.229445,0.514550,7.588157,-1.668675,-38.382896,-0.930736,3.557023,37.951977,1.641295,0.945247,0.024691,0.325402,0.003447
971,-6.053614,0.485718,7.763974,-1.595372,-39.623440,-1.150424,3.442335,36.666286,1.514746,0.948857,0.024353,0.314749,0.003095
972,-5.845608,0.471111,7.904914,-1.387848,-40.360569,-1.498329,3.302698,35.307003,1.362980,0.952549,0.023853,0.303439,0.002591
973,-5.648855,0.488647,8.029548,-1.474788,-39.399403,-1.664619,3.182494,33.933887,1.216823,0.956137,0.023461,0.291973,0.002049
974,-5.446833,0.494899,8.140325,-1.250356,-36.442318,-1.241846,3.109873,32.629486,1.104309,0.959409,0.023335,0.281048,0.001623
975,-5.301620,0.492902,8.258647,-1.212050,-31.992779,-0.883147,3.071394,31.474356,1.024652,0.962197,0.023370,0.271347,0.001335
976,-5.176775,0.497562,8.352362,-1.069966,-27.723125,-0.300141,3.057071,30.512926,0.975389,0.964439,0.023495,0.263256,0.001190
977,-5.078022,0.470729,8.440737,-0.995066,-23.859196,-0.272611,3.040094,29.734747,0.937094,0.966206,0.023540,0.256693,0.001095
978,-4.995513,0.468873,8.516950,-0.760005,-21.797255,-0.225289,3.009288,29.092218,0.894446,0.967634,0.023456,0.251263,0.000958
979,-4.900138,0.433490,8.589859,-0.590630,-22.022642,-0.243625,2.960469,28.490808,0.841637,0.968948,0.023230,0.246171,0.000760
980,-4.773376,0.418765,8.634851,-0.535784,-24.137205,-0.582449,2.881277,27.828810,0.766099,0.970368,0.022796,0.240554,0.000442
981,-4.632327,0.416207,8.683208,-0.491625,-26.360243,-0.950259,2.795435,27.057264,0.674314,0.971981,0.022339,0.233997,0.000013
982,-4.483954,0.409044,8.752434,-0.349790,-28.803148,-1.142569,2.714745,26.169014,0.573363,0.973779,0.021941,0.226437,-0.000490
983,-4.329345,0.389574,8.842287,-0.375824,-30.585455,-1.650748,2.625243,25.176161,0.455907,0.975718,0.021490,0.217970,-0.001111
984,-4.173092,0.422571,8.924578,-0.560493,-30.355135,-2.291649,2.547374,24.138655,0.328291,0.977663,0.021138,0.209105,-0.001847
985,-4.020988,0.414086,9.011106,-0.546706,-28.904072,-2.546450,2.492508,23.128666,0.200359,0.979475,0.020958,0.200458,-0.002648
986,-3.895689,0.402987,9.079802,-0.639747,-27.706236,-2.883660,2.432009,22.185669,0.064108,0.981098,0.020718,0.192368,-0.003534
987,-3.764240,0.411695,9.134585,-1.002854,-26.279396,-2.705106,2.373245,21.318562,-0.068745,0.982531,0.020463,0.184916,-0.004420
988,-3.642951,0.402741,9.170909,-0.943250,-23.828566,-2.053505,2.327954,20.542349,-0.178976,0.983765,0.020267,0.178239,-0.005159
989,-3.522217,0.375492,9.205337,-0.822653,-22.320684,-1.609453,2.280402,19.851429,-0.271282,0.984826,0.020009,0.172290,-0.005761
990,-3.405890,0.384728,9.226707,-0.898910,-20.565578,-1.058592,2.238113,19.221142,-0.344212,0.985763,0.019757,0.166860,-0.006222
991,-3.296225,0.382718,9.272804,-0.843901,-18.197073,-0.115555,2.218318,18.653469,-0.383300,0.986579,0.019643,0.161969,-0.006437
992,-3.216417,0.376274,9.315479,-0.321960,-15.958272,0.703882,2.218099,18.160046,-0.388652,0.987268,0.019648,0.157718,-0.006403
993,-3.145635,0.365977,9.364507,-0.445521,-14.766232,0.551292,2.217798,17.729921,-0.383667,0.987854,0.019637,0.154012,-0.006290
994,-3.078694,0.374912,9.411612,-1.458708,-14.274596,-0.213198,2.190772,17.327330,-0.394586,0.988393,0.019417,0.150540,-0.006283
995,-3.022545,0.344286,9.456082,-2.270515,-14.751927,-1.098251,2.111769,16.925270,-0.437789,0.988926,0.018789,0.147069,-0.006490
996,-2.937699,0.339900,9.479322,-3.126615,-16.549215,-2.312914,1.981794,16.477190,-0.521769,0.989510,0.017767,0.143195,-0.006984
997,-2.832268,0.325979,9.514526,-4.214626,-18.715893,-3.655741,1.816603,15.932762,-0.648095,0.990197,0.016483,0.138484,-0.007797
998,-2.728932,0.288179,9.552279,-5.108856,-21.740242,-4.583516,1.605764,15.272997,-0.814717,0.990996,0.014833,0.132773,-0.008908
999,-2.594179,0.233631,9.589074,-4.739686,-24.807402,-4.350076,1.365080,14.486999,-0.997916,0.991898,0.012915,0.125970,-0.010140
1000,-2.469645,0.234039,9.623869,-4.606994,-28.173681,-4.757514,1.147372,13.582292,-1.179314,0.992869,0.011159,0.118136,-0.011402
