seq,ax,ay,az,wroll,wpitch,wyaw,roll,pitch,yaw,q0,q1,q2,q3
60,0.180597,-2.403692,9.437921,13.267577,-12.526749,-42.648514,-14.288579,-1.062330,0.270542,0.992193,-0.124341,-0.009492,0.001190
61,-1.265555,-4.147624,8.291725,13.229430,-15.740350,-40.558002,-15.327418,-0.556971,0.293248,0.991055,-0.133344,-0.005158,0.001888
62,-1.097404,-4.162551,8.479782,9.570261,-19.368999,-37.074314,-17.073109,0.019198,-0.793212,0.988898,-0.148436,0.001193,-0.006820
63,-0.557579,-4.483622,9.013908,6.561136,-23.220436,-34.432930,-18.677561,-0.056744,-1.735099,0.986632,-0.162261,0.001968,-0.015021
64,0.077788,-4.603978,9.141158,5.760025,-25.622240,-32.955837,-20.089228,-0.938016,-2.538176,0.984366,-0.174545,-0.004195,-0.023235
65,0.564292,-4.471563,8.970008,6.114039,-25.890806,-30.778343,-21.220991,-2.365724,-3.218079,0.982198,-0.184589,-0.015113,-0.031393
66,0.938027,-4.432431,9.052493,4.639995,-24.296213,-30.563189,-22.058689,-4.011028,-3.826133,0.980158,-0.192235,-0.027947,-0.039438
67,1.371721,-4.525325,9.197951,5.282410,-20.875088,-32.806297,-22.675354,-5.724335,-4.466458,0.978136,-0.198104,-0.041271,-0.047968
68,1.407576,-4.140461,8.758715,7.690320,-15.592334,-33.026028,-23.002893,-7.287126,-5.190369,0.976362,-0.201605,-0.053199,-0.056938
69,1.363495,-3.728147,8.674409,7.751357,-9.600024,-31.513840,-22.901894,-8.418267,-5.997072,0.975351,-0.201485,-0.061481,-0.065682
70,1.380739,-3.675595,9.109251,4.836840,-4.698753,-29.607960,-22.499262,-9.078594,-6.865890,0.975031,-0.198771,-0.065838,-0.073957
71,1.324536,-3.572235,9.131970,3.480292,-1.205909,-23.695002,-22.040331,-9.337163,-7.689976,0.975058,-0.195449,-0.066936,-0.081126
72,1.205084,-3.355564,8.901066,2.378574,1.513290,-14.431107,-21.609509,-9.240365,-8.325579,0.975401,-0.192104,-0.065349,-0.086132
74,1.060657,-3.399519,8.969283,1.452337,7.258400,-3.438340,-21.283541,-8.740077,-8.691753,0.976060,-0.189276,-0.060719,-0.088288
75,0.543092,-3.994108,9.324714,0.559670,13.250709,9.358070,-21.345964,-7.580435,-8.709222,0.976791,-0.189197,-0.050741,-0.086660
76,0.289939,-4.240532,8.871343,0.072900,18.789816,19.874750,-21.940977,-5.824156,-8.379588,0.977131,-0.193194,-0.035856,-0.081275
77,0.157238,-4.047025,8.676643,-0.847232,22.532911,26.823811,-22.674978,-3.885385,-7.851661,0.977167,-0.198289,-0.019709,-0.073739
78,-0.214294,-4.342411,9.301060,-7.163038,23.309608,32.286629,-23.346598,-1.865723,-7.209466,0.977043,-0.202906,-0.003193,-0.064852
79,-0.527743,-4.535485,9.664320,-10.356798,19.015654,31.326818,-24.037155,0.120672,-6.513140,0.976513,-0.207834,0.012857,-0.055343
80,-0.166589,-3.799230,9.121954,-8.339525,13.101168,24.138184,-24.374468,1.506307,-5.891043,0.976230,-0.210150,0.023679,-0.047453
81,-0.300809,-3.423296,9.193233,-5.981971,4.386608,17.202852,-24.094099,2.156996,-5.371120,0.976913,-0.207586,0.028165,-0.041891
82,-0.434119,-3.612954,9.282356,-1.912329,-5.345745,11.080841,-23.573687,2.387791,-4.912028,0.977985,-0.203165,0.029129,-0.037687
83,-0.351968,-3.706429,9.237190,7.743728,-13.085238,2.763021,-23.038258,2.194903,-4.561049,0.979055,-0.198754,0.026697,-0.035162
84,0.117240,-3.932251,9.010648,10.414098,-19.307962,-1.427170,-22.619053,1.402043,-4.327154,0.979900,-0.195502,0.019392,-0.034619
85,0.194642,-4.020236,8.914048,11.466986,-23.872005,-1.242533,-22.457249,0.212618,-4.099609,0.980242,-0.194534,0.008784,-0.034722
86,0.616474,-4.249696,9.051416,10.615519,-23.745354,-5.873716,-22.497726,-1.154375,-3.910532,0.980101,-0.195284,-0.003219,-0.035426
87,0.946151,-4.415681,8.994883,8.183194,-18.729635,-12.828885,-22.776892,-2.675067,-3.917131,0.979314,-0.198073,-0.016123,-0.038101
88,0.815185,-3.959447,8.600171,4.995536,-11.981994,-17.368511,-23.065569,-3.950014,-4.162064,0.978332,-0.200904,-0.026490,-0.042444
89,0.450867,-3.632805,8.844769,3.349062,-6.348278,-18.918852,-23.007797,-4.560910,-4.595737,0.978030,-0.200680,-0.030970,-0.047187
90,0.441420,-3.765373,9.309323,-0.354359,-2.312205,-17.528734,-22.756660,-4.620952,-5.112846,0.978219,-0.198693,-0.030690,-0.051637
91,0.372751,-3.623305,9.190618,0.027122,-0.290354,-9.148353,-22.522314,-4.410183,-5.522892,0.978521,-0.196728,-0.028291,-0.054720
92,0.404697,-3.336184,9.153653,-0.522211,-0.143865,1.774222,-22.093832,-3.979399,-5.664889,0.979352,-0.192947,-0.024572,-0.055115
93,1.014706,-3.485676,8.990462,-1.456077,-0.238472,11.587448,-21.744781,-3.838286,-5.483038,0.980073,-0.189874,-0.023834,-0.053255
94,1.275552,-3.634476,8.696455,-1.401144,2.161808,15.856987,-21.824667,-4.190864,-5.069512,0.979995,-0.190583,-0.027501,-0.050312
95,0.959260,-3.880357,8.649596,-2.005409,6.341318,14.425670,-22.218597,-4.381418,-4.629296,0.979447,-0.193898,-0.029703,-0.046961
96,0.641993,-3.935622,8.907146,-3.647305,10.883998,12.428233,-22.705252,-4.036659,-4.295031,0.978878,-0.197880,-0.027134,-0.043644
97,0.301041,-4.130944,9.020350,-3.587794,14.219671,13.713061,-23.170549,-3.209102,-4.033244,0.978438,-0.201588,-0.020349,-0.040079
98,-0.121205,-4.140720,9.110439,-3.227676,15.621996,15.904289,-23.592752,-1.975840,-3.761644,0.978092,-0.204848,-0.010160,-0.035646
99,-0.301369,-3.992933,9.405069,-2.484551,15.744070,16.221682,-23.757917,-0.573427,-3.479445,0.978090,-0.205896,0.001355,-0.030738
100,-0.050538,-3.601328,9.331586,-1.420980,13.751212,13.311744,-23.519245,0.498098,-3.229046,0.978638,-0.203603,0.009996,-0.026698
101,0.163273,-3.492642,9.310749,-0.810609,11.196813,7.523909,-23.028814,0.963002,-3.073003,0.979533,-0.199315,0.013584,-0.024596
102,0.015573,-3.389907,9.276740,-0.049173,8.399791,-3.395614,-22.490246,1.057143,-3.130405,0.980443,-0.194679,0.014371,-0.024991
103,0.051171,-3.297586,8.979409,0.950308,3.446638,-14.765284,-21.986311,0.898560,-3.478401,0.981213,-0.190364,0.013481,-0.028298
104,-0.009314,-3.459250,9.044483,-1.881810,-2.142827,-18.873075,-21.691238,0.502954,-4.002571,0.981558,-0.187896,0.010879,-0.033472
105,-0.231052,-3.894782,9.215963,-2.244979,-5.585315,-15.026217,-21.777924,0.171496,-4.479172,0.981255,-0.188704,0.008851,-0.038092
106,-0.348074,-4.163260,9.035521,-3.052194,-7.355389,-10.480485,-22.258440,0.060333,-4.795037,0.980340,-0.192832,0.008591,-0.040944
107,-0.098616,-4.055190,9.029191,-4.170697,-8.125979,-4.997836,-22.836819,-0.057687,-4.937623,0.979293,-0.197810,0.008035,-0.042323
108,-0.224151,-4.157466,9.347326,-5.344134,-6.006469,1.041777,-23.282961,-0.129491,-4.907552,0.978521,-0.201649,0.007533,-0.042160
109,-0.037421,-4.180346,8.903462,-4.457571,-3.540575,2.599747,-23.728584,-0.095726,-4.789225,0.977775,-0.205449,0.007773,-0.041061
110,0.193875,-4.011159,8.831469,-5.341082,-2.336620,0.229985,-24.132708,-0.231914,-4.705991,0.977062,-0.208949,0.006605,-0.040572
111,0.337760,-3.873942,9.091996,-2.388417,-2.219124,-2.231333,-24.228262,-0.574908,-4.704982,0.976852,-0.209882,0.003713,-0.041185
112,0.491308,-4.092778,9.116621,-0.174300,-2.040591,-4.436295,-24.166382,-1.056857,-4.777983,0.976873,-0.209517,-0.000285,-0.042687
113,0.522498,-4.175189,9.129670,0.709211,-1.674368,-6.893035,-24.187662,-1.580816,-4.924279,0.976686,-0.209879,-0.004476,-0.044889
114,0.484380,-4.050200,9.302452,3.959432,-1.944457,-8.347242,-24.079941,-2.027966,-5.132655,0.976703,-0.209127,-0.007951,-0.047472
115,0.625599,-3.909472,8.998248,7.931416,-2.422072,-9.329938,-23.754711,-2.473751,-5.377601,0.977077,-0.206534,-0.011448,-0.050334
116,0.575570,-3.973234,8.834931,5.666943,-2.766931,-9.233805,-23.503468,-2.915702,-5.628203,0.977288,-0.204583,-0.014882,-0.053226
117,0.367284,-3.982403,9.027954,3.504707,-3.040072,-7.691094,-23.410204,-3.130286,-5.845654,0.977284,-0.203899,-0.016370,-0.055446
118,0.469900,-3.903074,8.973476,4.052514,-3.084323,-5.901183,-23.312325,-3.204617,-6.011302,0.977352,-0.203117,-0.016758,-0.056975
119,0.527670,-3.816849,8.844784,3.231566,-2.786768,-4.196724,-23.197077,-3.316549,-6.126671,0.977460,-0.202196,-0.017567,-0.058136
120,0.386457,-3.896846,9.027740,1.141048,-2.444961,-2.367140,-23.142891,-3.297865,-6.191657,0.977529,-0.201736,-0.017321,-0.058650
121,0.399518,-3.933179,9.039028,2.041344,-1.729302,-1.028904,-23.153942,-3.128761,-6.212553,0.977555,-0.201764,-0.015835,-0.058537
122,0.548512,-3.969715,8.880223,3.541329,-0.854946,-0.934297,-23.223288,-3.071513,-6.216752,0.977449,-0.202332,-0.015303,-0.058482
123,0.514508,-4.035460,8.823967,2.462500,0.330698,-1.646903,-23.406845,-3.104506,-6.237454,0.977103,-0.203914,-0.015454,-0.058741
124,0.423059,-4.179255,8.916394,1.551522,1.330179,-2.431230,-23.718464,-3.021410,-6.290521,0.976544,-0.206543,-0.014490,-0.059088
125,0.460940,-4.250895,8.920140,2.926381,2.578386,-2.800504,-24.071924,-2.872999,-6.374332,0.975907,-0.209501,-0.012890,-0.059578
126,0.452640,-4.227345,8.881374,4.145596,3.204016,-2.676904,-24.340887,-2.749068,-6.477458,0.975397,-0.211748,-0.011504,-0.060260
127,0.343841,-4.141638,8.971024,4.870410,3.425275,-2.080266,-24.412897,-2.556904,-6.584293,0.975265,-0.212286,-0.009632,-0.060825
128,0.355298,-4.021522,9.092779,6.436010,2.956816,-1.399703,-24.206152,-2.325517,-6.681176,0.975662,-0.210428,-0.007593,-0.061212
129,0.339166,-3.791429,9.053991,7.461431,2.300668,-0.645896,-23.717125,-2.152180,-6.757718,0.976557,-0.206186,-0.006238,-0.061523
130,0.317329,-3.590884,9.032884,6.100306,1.079927,0.133852,-23.113506,-2.034099,-6.801767,0.977636,-0.200986,-0.005477,-0.061660
131,0.284178,-3.557145,9.140173,4.067773,0.004150,1.104340,-22.580189,-1.947904,-6.802446,0.978582,-0.196392,-0.005026,-0.061493
132,0.315360,-3.516274,9.191856,3.568795,-0.609272,1.794058,-22.126945,-1.893227,-6.764812,0.979385,-0.192493,-0.004865,-0.061060
133,0.307906,-3.502774,9.060342,3.181210,-0.922087,3.649584,-21.770395,-1.865154,-6.679193,0.980031,-0.189427,-0.004957,-0.060267
134,0.429834,-3.499891,9.039290,2.018455,-1.031954,5.485271,-21.520426,-1.916150,-6.531249,0.980507,-0.187306,-0.005766,-0.059072
135,0.501438,-3.460410,8.996756,0.048485,-0.711509,6.390144,-21.357021,-2.087741,-6.341331,0.980829,-0.185974,-0.007628,-0.057714
136,0.517285,-3.330433,8.932632,-3.128491,-0.674887,6.960842,-21.271095,-2.256510,-6.131086,0.981030,-0.185296,-0.009456,-0.056178
137,0.596181,-3.351832,8.918690,-8.467705,-0.607746,6.860131,-21.325069,-2.412326,-5.914146,0.981007,-0.185804,-0.011116,-0.054575
138,0.665612,-3.307866,9.043483,-14.196027,-0.307139,5.399820,-21.532846,-2.620483,-5.724852,0.980701,-0.187646,-0.013109,-0.053312
139,0.638562,-3.350410,9.142987,-18.464039,0.020935,4.021909,-21.836950,-2.817595,-5.586690,0.980208,-0.190306,-0.014884,-0.052488
140,0.565005,-3.509833,9.214808,-19.948765,0.178105,2.845421,-22.258280,-2.921031,-5.491081,0.979514,-0.193935,-0.015737,-0.051898
141,0.579756,-3.658318,9.227111,-19.210217,1.292031,2.054992,-22.762817,-2.950015,-5.431661,0.978669,-0.198248,-0.015859,-0.051509
142,0.462698,-3.824651,9.159822,-18.184797,2.061097,2.732502,-23.320175,-2.880548,-5.383090,0.977736,-0.202974,-0.015101,-0.051050
143,0.345352,-4.081987,9.161908,-16.748899,2.222845,4.182131,-23.961840,-2.657424,-5.303963,0.976684,-0.208357,-0.013057,-0.050058
144,0.349794,-4.250556,9.092009,-13.751983,2.120608,4.761983,-24.642538,-2.382982,-5.191447,0.975552,-0.214048,-0.010632,-0.048668
145,0.433605,-4.339717,8.992636,-10.323228,2.041260,4.823020,-25.255850,-2.200456,-5.067721,0.974491,-0.219193,-0.009055,-0.047326
146,0.414411,-4.383605,8.807419,-7.947363,1.516342,4.458324,-25.782425,-2.109893,-4.944805,0.973546,-0.223629,-0.008308,-0.046148
147,0.369741,-4.266521,8.729214,-7.878696,0.991424,2.834740,-26.187252,-2.045415,-4.848305,0.972803,-0.227039,-0.007789,-0.045230
148,0.264456,-4.273874,8.781787,-9.972265,0.841883,0.968533,-26.488987,-1.950065,-4.804948,0.972242,-0.229567,-0.006947,-0.044693
149,0.203895,-4.354939,8.805339,-11.891879,0.921231,-0.415481,-26.814817,-1.801958,-4.811763,0.971615,-0.232283,-0.005550,-0.044472
150,0.077353,-4.412559,8.766184,-12.958501,0.733542,-1.147925,-27.202673,-1.591277,-4.849430,0.970854,-0.235503,-0.003536,-0.044379
151,0.026434,-4.532006,8.935567,-12.958501,0.425305,-1.277629,-27.595448,-1.331160,-4.897007,0.970073,-0.238743,-0.001083,-0.044254
152,0.095177,-4.825828,8.920027,-9.760162,0.269661,-1.067051,-28.020945,-1.129789,-4.937682,0.969201,-0.242275,0.000871,-0.044177
153,0.243189,-4.904512,8.608987,-3.560328,0.358164,-1.558400,-28.473375,-1.092848,-4.977263,0.968228,-0.246086,0.001443,-0.044429
154,0.167081,-4.848413,8.398043,-0.217025,0.411572,-1.179970,-28.880659,-1.116201,-5.016733,0.967328,-0.249534,0.001490,-0.044807
155,0.135250,-4.848814,8.377462,-1.140210,0.573320,-0.349867,-29.241055,-1.061601,-5.040670,0.966539,-0.252555,0.002144,-0.044884
156,0.178623,-4.851342,8.227868,-3.218520,1.137912,-0.520770,-29.581194,-1.005374,-5.062515,0.965786,-0.255403,0.002800,-0.044937
157,0.131891,-4.681055,8.174686,-6.763245,1.800164,-0.696252,-29.887350,-0.954771,-5.101932,0.965093,-0.257963,0.003435,-0.045148
158,0.066106,-4.668894,8.382536,-12.142131,2.300668,0.245244,-30.149769,-0.827788,-5.143706,0.964505,-0.260125,0.004702,-0.045204
159,0.100204,-4.735596,8.505499,-14.804872,2.680623,-0.131660,-30.428434,-0.680369,-5.186927,0.963876,-0.262414,0.006151,-0.045219
160,0.162101,-4.805178,8.555468,-15.117687,2.842371,-0.931245,-30.724907,-0.612789,-5.251800,0.963178,-0.264879,0.006986,-0.045592
161,0.135087,-4.855601,8.609200,-15.195509,2.553971,-1.216593,-31.003433,-0.594875,-5.331047,0.962502,-0.267207,0.007432,-0.046199
162,0.096487,-4.881824,8.558794,-15.074959,2.059571,-1.024326,-31.262989,-0.561190,-5.405238,0.961870,-0.269369,0.007994,-0.046726
163,0.073337,-4.958666,8.466489,-15.265700,1.273720,-0.534504,-31.561029,-0.511723,-5.458507,0.961152,-0.271846,0.008657,-0.047034
164,0.049389,-5.083281,8.385127,-16.741270,0.657246,0.413096,-31.977888,-0.452090,-5.478476,0.960157,-0.275316,0.009376,-0.047027
165,0.019212,-5.121037,8.292845,-18.843996,0.104861,1.327125,-32.513237,-0.373209,-5.461617,0.958879,-0.279769,0.010214,-0.046649
166,0.058115,-5.213260,8.346908,-20.234116,-0.557390,2.470043,-33.089218,-0.310252,-5.405326,0.957492,-0.284566,0.010835,-0.045971
167,0.163092,-5.368738,8.394725,-19.176647,-1.703361,3.353554,-33.651566,-0.343947,-5.303941,0.956120,-0.289284,0.010523,-0.045156
168,0.246904,-5.457383,8.252090,-17.307390,-3.223182,2.749288,-34.198551,-0.515963,-5.172891,0.954754,-0.293920,0.008969,-0.044454
169,0.268838,-5.591625,8.267864,-16.616146,-4.366101,2.238103,-34.737328,-0.771241,-5.031242,0.953374,-0.298506,0.006685,-0.043897
170,0.245461,-5.834861,8.282226,-14.087687,-4.996308,2.535658,-35.279564,-1.007475,-4.874518,0.951968,-0.303102,0.004515,-0.043186
171,0.246132,-5.980885,8.082664,-9.622828,-4.912382,2.575332,-35.832359,-1.187125,-4.705518,0.950524,-0.307754,0.002779,-0.042243
172,0.209833,-6.033783,7.920897,-6.958563,-3.886960,1.984799,-36.363758,-1.299751,-4.552222,0.949120,-0.312196,0.001624,-0.041266
173,0.249089,-6.053118,7.961903,-4.881779,-2.484635,1.975644,-36.783756,-1.359463,-4.431032,0.948000,-0.315692,0.000948,-0.040421
174,0.280040,-6.015730,7.914055,-0.873173,-1.685050,2.137392,-37.021534,-1.417558,-4.331064,0.947366,-0.317675,0.000274,-0.039754
175,0.362319,-5.988416,7.866320,2.158841,-1.039583,2.169436,-37.091705,-1.527507,-4.244061,0.947178,-0.318285,-0.000853,-0.039339
177,0.360721,-5.948892,7.931752,3.445196,-0.539080,1.134859,-37.004749,-1.670030,-4.184231,0.947409,-0.317603,-0.002227,-0.039237
178,0.406081,-5.952034,8.042480,4.275299,-0.430739,-0.211008,-36.786522,-1.825021,-4.165213,0.947984,-0.315838,-0.003637,-0.039501
179,0.404364,-5.842354,8.054364,5.508247,0.057557,-2.202341,-36.456142,-1.998564,-4.199668,0.948837,-0.313150,-0.005094,-0.040248
180,0.352032,-5.707497,8.077081,5.340395,0.803735,-3.717585,-36.017120,-2.113132,-4.297049,0.949967,-0.309547,-0.005935,-0.041344
181,0.249874,-5.498475,8.073414,5.257995,0.962431,-4.530902,-35.464520,-2.093680,-4.439093,0.951401,-0.304964,-0.005595,-0.042443
182,0.238795,-5.283261,8.073915,5.248840,0.820520,-4.285229,-34.781437,-1.988593,-4.593329,0.953171,-0.299265,-0.004571,-0.043418
183,0.111878,-5.183557,8.150671,4.563699,0.568742,-2.614340,-34.040451,-1.784503,-4.719133,0.955087,-0.293039,-0.002828,-0.043917
184,-0.002959,-5.297154,8.315989,3.529121,-0.700828,1.238621,-33.421425,-1.408316,-4.749137,0.956728,-0.287759,0.000152,-0.043210
185,0.061871,-5.319716,8.442661,4.131862,-2.121464,4.273687,-32.952320,-1.040477,-4.652703,0.958004,-0.283724,0.002812,-0.041496
186,0.110018,-5.190531,8.529032,4.644573,-3.514634,6.602248,-32.455162,-0.838734,-4.454805,0.959329,-0.279508,0.003839,-0.039360
187,0.076783,-5.249341,8.615930,3.396366,-5.399152,9.141388,-32.018440,-0.735516,-4.157793,0.960501,-0.275829,0.003839,-0.036637
188,0.236645,-5.182768,8.578186,3.252929,-6.929655,10.467419,-31.726933,-0.757291,-3.774084,0.961314,-0.273401,0.002647,-0.033480
189,0.408613,-4.894218,8.393975,3.678662,-7.559861,9.527448,-31.396671,-1.001153,-3.367352,0.962178,-0.270692,-0.000458,-0.030647
190,0.486976,-4.819314,8.423540,1.891803,-6.551226,7.986263,-31.021053,-1.381357,-3.002132,0.963096,-0.267608,-0.004607,-0.028462
191,0.503316,-4.926847,8.716787,2.409092,-2.028383,5.198398,-30.611721,-1.754089,-2.749763,0.964043,-0.264219,-0.008427,-0.027180
192,0.632700,-4.810619,8.622704,7.578927,3.524460,0.124696,-30.072887,-2.113988,-2.699446,0.965216,-0.259737,-0.011701,-0.027529
193,0.550751,-4.751121,8.414536,9.982260,8.143436,-4.953583,-29.533943,-2.332118,-2.877731,0.966335,-0.255249,-0.013273,-0.029461
194,0.318749,-4.660021,8.496757,10.325593,13.078279,-8.118353,-29.048777,-2.196126,-3.247808,0.967338,-0.251171,-0.011438,-0.032232
195,0.099614,-4.632174,8.281354,10.420201,16.946499,-7.349287,-28.629358,-1.690768,-3.716987,0.968219,-0.247554,-0.006271,-0.035067
196,-0.053211,-4.702995,8.189455,6.896839,17.741507,-3.798458,-28.463226,-0.933788,-4.151422,0.968569,-0.245959,0.001011,-0.037109
197,-0.267294,-5.123818,8.210773,1.647656,16.935818,1.093659,-28.762539,-0.024009,-4.460124,0.967929,-0.248193,0.009462,-0.037745
198,-0.303290,-5.431373,8.215295,-0.658018,17.155550,4.206547,-29.516548,0.917905,-4.659061,0.966262,-0.254208,0.018094,-0.037266
199,-0.230752,-5.774467,8.064494,-2.985053,16.943447,4.604813,-30.591185,1.689797,-4.830415,0.963780,-0.262936,0.025326,-0.036757
200,-0.209221,-5.879509,8.079590,-4.536920,15.484663,2.099243,-31.802881,2.203419,-5.040877,0.960858,-0.272855,0.030520,-0.037022
201,-0.135594,-5.857167,7.739611,-4.984015,13.595566,-2.536518,-32.980450,2.432365,-5.338867,0.957893,-0.282532,0.033547,-0.038630
202,-0.158916,-5.622653,7.585241,-7.161511,12.177982,-7.932190,-34.030998,2.426034,-5.750739,0.955119,-0.291181,0.034893,-0.041770
203,-0.206335,-5.458284,7.604001,-9.297806,10.610857,-12.049137,-34.813534,2.305099,-6.257378,0.952918,-0.297600,0.035489,-0.046060
204,-0.233315,-5.467800,7.733676,-9.015512,9.492353,-14.153388,-35.335701,2.135946,-6.813715,0.951319,-0.301854,0.035761,-0.050966
205,-0.273055,-5.602726,7.686033,-6.574030,8.836205,-16.843594,-35.729492,1.954731,-7.415239,0.949991,-0.305035,0.036035,-0.056316
206,-0.321980,-5.675951,7.649889,-3.572535,8.358591,-18.757103,-36.069736,1.791209,-8.069117,0.948736,-0.307745,0.036606,-0.062066
207,-0.219770,-5.691728,7.728539,-0.384876,8.009154,-18.737267,-36.262760,1.596101,-8.738351,0.947822,-0.309254,0.036904,-0.068071
208,-0.265225,-5.810704,7.849820,2.927907,7.610887,-17.420393,-36.288303,1.400973,-9.379889,0.947335,-0.309393,0.037039,-0.073898
209,-0.240819,-5.903678,7.733472,6.780869,7.050873,-15.902101,-36.263863,1.267352,-9.975490,0.946985,-0.309095,0.037526,-0.079191
210,-0.186759,-5.902425,7.647086,9.065179,6.892176,-14.293773,-36.242607,1.143782,-10.524199,0.946632,-0.308834,0.037970,-0.084067
211,-0.251534,-5.932528,7.680444,9.786942,6.899807,-13.095922,-36.204327,1.076534,-11.033982,0.946340,-0.308401,0.038759,-0.088473
212,-0.350598,-5.985238,7.788065,9.715224,6.615985,-10.717004,-36.148643,1.146863,-11.492373,0.946142,-0.307723,0.040528,-0.092087
213,-0.239131,-6.015828,7.751719,9.463446,5.796561,-8.504413,-36.118576,1.239225,-11.878553,0.945924,-0.307255,0.042301,-0.095037
214,-0.227631,-6.048083,7.801770,8.499061,4.183659,-6.951020,-36.137917,1.252770,-12.191247,0.945612,-0.307286,0.043268,-0.097574
215,-0.261987,-5.924724,7.930279,7.679639,2.264045,-4.750635,-36.107346,1.265206,-12.417261,0.945503,-0.306936,0.043950,-0.099417
216,-0.183785,-5.792121,7.990073,7.229491,0.396313,-1.627067,-35.918468,1.246776,-12.530550,0.945905,-0.305351,0.043936,-0.100474
217,-0.107670,-5.687628,7.979160,7.078424,-1.076205,0.811363,-35.604404,1.127795,-12.533632,0.946711,-0.302867,0.042686,-0.100936
218,-0.150275,-5.573109,8.046686,7.583505,-2.658590,3.765554,-35.191334,1.013135,-12.432743,0.947861,-0.299596,0.041111,-0.100556
219,-0.215950,-5.316479,8.128765,8.544840,-4.161627,6.612931,-34.555973,1.020436,-12.219513,0.949695,-0.294404,0.040065,-0.098997
220,-0.191949,-5.292795,8.256637,9.591622,-5.341167,9.232945,-33.819847,1.079875,-11.903985,0.951847,-0.288352,0.039128,-0.096481
221,-0.084282,-5.275496,8.357362,11.615000,-6.444411,9.808219,-33.135880,1.045347,-11.525086,0.953860,-0.282821,0.037329,-0.093645
222,-0.192770,-5.109137,8.446105,13.665845,-6.448989,8.396738,-32.377823,0.980332,-11.148260,0.956003,-0.276679,0.035257,-0.090905
223,-0.171217,-5.039997,8.455132,14.714154,-5.196204,6.094116,-31.567343,0.951803,-10.834731,0.958178,-0.270027,0.033636,-0.088598
224,-0.148138,-5.106743,8.500774,14.155665,-3.449019,3.577865,-30.881096,0.904527,-10.618747,0.959936,-0.264384,0.032211,-0.087098
225,-0.115798,-5.014862,8.469936,13.559030,-1.547716,1.055510,-30.332373,0.834289,-10.508732,0.961264,-0.259870,0.030955,-0.086489
226,-0.209322,-4.904554,8.608006,12.239105,-0.250680,-0.896148,-29.788248,0.827761,-10.489866,0.962501,-0.255313,0.030447,-0.086491
227,-0.143069,-4.924897,8.562862,11.735548,0.088076,-1.790340,-29.321438,0.850479,-10.526043,0.963509,-0.251362,0.030365,-0.086868
228,-0.174104,-4.796487,8.688768,10.887135,0.196416,-2.681480,-28.907343,0.837875,-10.592736,0.964358,-0.247871,0.030089,-0.087566
229,-0.334995,-4.709833,8.705409,10.298126,-0.111821,-2.049748,-28.441105,0.958138,-10.660170,0.965323,-0.243831,0.030889,-0.087999
230,-0.230825,-4.758884,8.763328,8.999564,-1.898679,-0.722193,-28.066219,1.090306,-10.682761,0.966114,-0.240559,0.031762,-0.088010
231,-0.352243,-4.931977,8.774302,7.269165,-4.097538,1.348488,-27.921196,1.138692,-10.628435,0.966465,-0.239313,0.031945,-0.087490
232,-0.345986,-5.052362,8.919298,6.100306,-8.185492,3.927302,-27.964958,1.159332,-10.459948,0.966503,-0.239712,0.031800,-0.086014
233,-0.320537,-4.918339,8.824612,6.727462,-12.851771,5.323524,-28.005537,1.058296,-10.164543,0.966626,-0.240213,0.030360,-0.083724
234,-0.051962,-4.946215,8.780385,8.532632,-15.773920,3.947139,-27.985315,0.699695,-9.808827,0.966882,-0.240401,0.026575,-0.081484
235,-0.202400,-4.834766,8.599654,11.024467,-16.285105,2.376962,-27.914351,0.250221,-9.469289,0.967206,-0.240198,0.022020,-0.079579
236,-0.162698,-4.543441,8.492689,13.122615,-15.189489,0.294074,-27.660501,-0.081295,-9.186821,0.967876,-0.238333,0.018457,-0.077932
237,-0.032831,-4.421779,8.307501,12.815905,-10.832972,-1.834592,-27.284813,-0.384520,-9.009196,0.968717,-0.235388,0.015273,-0.077112
238,0.090636,-4.694695,8.522583,9.387150,-6.453567,-2.180977,-27.096210,-0.659103,-8.935836,0.969098,-0.233982,0.012674,-0.077075
239,-0.071987,-4.319359,8.619617,6.693891,-3.310160,-0.818326,-26.915096,-0.704915,-8.905855,0.969477,-0.232482,0.012104,-0.076934
240,-0.220375,-4.210090,9.097354,4.380588,-1.480576,2.421214,-26.476027,-0.444341,-8.847746,0.970451,-0.228604,0.013900,-0.075970
241,-0.016905,-4.109671,9.155399,5.399906,-1.237954,7.681078,-25.831301,-0.159105,-8.678531,0.971882,-0.222978,0.015562,-0.074057
242,0.106348,-3.982381,9.315920,8.303743,-2.997346,11.080841,-25.064411,-0.062247,-8.367504,0.973564,-0.216449,0.015302,-0.071335
243,-0.011152,-3.687021,9.233809,13.765030,-5.126012,12.049803,-24.136583,-0.054277,-7.962103,0.975532,-0.208605,0.014053,-0.067991
244,0.306228,-3.752409,9.234658,18.475561,-6.453567,13.427714,-23.101858,-0.209093,-7.497545,0.977625,-0.199927,0.011308,-0.064422
245,0.696095,-3.741574,8.999376,21.437382,-7.523240,12.519788,-22.202530,-0.780160,-7.015266,0.979347,-0.192587,0.005112,-0.061344
246,0.598329,-3.785591,8.929019,21.451117,-7.488143,8.738544,-21.519611,-1.500961,-6.600724,0.980564,-0.187107,-0.002099,-0.058995
247,0.677380,-3.776604,8.933204,19.821428,-6.276560,6.666337,-21.044842,-2.112961,-6.278656,0.981357,-0.183308,-0.008101,-0.057196
248,0.504984,-3.848349,8.998086,16.409458,-4.128056,6.348946,-20.780117,-2.510259,-6.005707,0.981810,-0.181186,-0.012070,-0.055459
249,0.389246,-3.805725,9.019144,12.243682,-3.540575,4.612442,-20.772007,-2.614877,-5.770950,0.981906,-0.181133,-0.013342,-0.053610
250,0.376855,-3.767727,9.180304,8.949209,-3.615345,2.325081,-20.880547,-2.601260,-5.600063,0.981816,-0.182038,-0.013446,-0.052137
251,0.237161,-3.561191,9.342375,7.270691,-4.393567,-0.330030,-20.804688,-2.503984,-5.512664,0.982002,-0.181341,-0.012785,-0.051227
252,-0.005984,-3.484694,9.447442,6.956350,-3.445967,-1.408859,-20.514194,-2.243400,-5.494789,0.982532,-0.178750,-0.010708,-0.050639
253,0.113830,-3.176823,9.594345,7.635387,-1.883420,-1.044163,-20.012697,-1.953380,-5.509886,0.983365,-0.174338,-0.008417,-0.050285
254,0.159690,-3.077787,9.686167,9.687757,-1.495835,1.046355,-19.295382,-1.758059,-5.503365,0.984481,-0.168103,-0.007062,-0.049891
255,-0.114549,-2.983377,9.588786,11.952231,-1.616383,0.921229,-18.523916,-1.471775,-5.465355,0.985661,-0.161357,-0.004989,-0.049115
256,0.325705,-2.899354,9.464749,12.968496,-0.685568,3.036162,-17.735313,-1.313355,-5.397468,0.986803,-0.154505,-0.004054,-0.048283
257,0.467551,-2.837323,9.476698,12.225370,-1.149450,3.989865,-16.998693,-1.533129,-5.285675,0.987786,-0.148238,-0.006403,-0.047575
258,0.384139,-2.982945,9.399848,10.723861,-3.099583,3.510724,-16.562870,-1.825967,-5.149277,0.988345,-0.144580,-0.009282,-0.046739
259,0.494730,-3.065663,9.384454,8.505164,-2.734886,2.724873,-16.513483,-2.107088,-5.014344,0.988405,-0.144243,-0.011898,-0.045922
260,0.728194,-3.113394,9.410492,5.607432,-1.428694,2.326606,-16.640980,-2.476326,-4.901077,0.988205,-0.145458,-0.015175,-0.045421
261,0.343303,-3.197056,9.433105,2.248870,-0.236946,0.768636,-16.940676,-2.621760,-4.825398,0.987815,-0.148081,-0.016408,-0.044994
262,0.453347,-3.264508,9.202329,-0.766359,1.110446,-0.198800,-17.500128,-2.547101,-4.794744,0.987111,-0.152873,-0.015586,-0.044711
263,0.391137,-3.338176,9.037127,-5.331927,2.480727,-2.492267,-18.182758,-2.487863,-4.829682,0.986184,-0.158735,-0.014761,-0.045023
264,0.079231,-3.324117,8.817664,-10.590266,2.299142,-5.389999,-18.933687,-2.245383,-4.959592,0.985129,-0.165127,-0.012193,-0.045889
265,-0.078653,-3.181409,8.819890,-15.436604,1.969542,-4.228770,-19.677547,-1.787704,-5.126048,0.984068,-0.171372,-0.007715,-0.046718
266,-0.024593,-3.233374,8.897993,-18.697508,1.150120,-2.115363,-20.355093,-1.338096,-5.244606,0.983073,-0.177028,-0.003397,-0.047090
267,-0.251574,-3.132398,9.082226,-20.144085,-0.252206,-1.041111,-20.904465,-0.895350,-5.305674,0.982257,-0.181571,0.000721,-0.046931
268,-0.043543,-3.053389,9.229695,-18.776855,-1.222694,2.798117,-21.185741,-0.534039,-5.279277,0.981865,-0.183843,0.003890,-0.046125
269,0.055611,-2.835585,9.401859,-16.007301,-2.074161,6.252811,-21.110994,-0.403572,-5.126816,0.982059,-0.183158,0.004734,-0.044612
270,0.073400,-2.943462,9.387491,-12.657894,-2.635701,7.844352,-20.831358,-0.375703,-4.885397,0.982598,-0.180760,0.004484,-0.042510
271,0.243609,-2.889956,9.215123,-9.029245,-3.577197,8.379952,-20.527885,-0.479634,-4.600646,0.983166,-0.178203,0.003036,-0.040240
272,0.357296,-2.849283,9.025854,-5.713409,-4.405775,7.952693,-20.175016,-0.767747,-4.304797,0.983781,-0.175272,-0.000013,-0.038149
273,0.531395,-2.907261,9.029991,-3.010994,-4.160101,6.370309,-19.825546,-1.206567,-4.038952,0.984341,-0.172398,-0.004299,-0.036523
274,0.509718,-3.215371,9.167809,0.001182,-2.652487,4.024961,-19.600704,-1.708135,-3.843858,0.984658,-0.170594,-0.008972,-0.035580
275,0.532394,-3.144840,9.257589,2.819566,-1.672842,1.350014,-19.390482,-2.146771,-3.741126,0.984916,-0.168891,-0.012959,-0.035323
276,0.445017,-3.337051,9.270913,4.443151,-0.764917,-0.819852,-19.216385,-2.413260,-3.721773,0.985120,-0.167459,-0.015333,-0.035523
277,0.294445,-3.612224,9.377756,5.326662,-0.124028,-0.851896,-19.276867,-2.422571,-3.734130,0.985025,-0.167983,-0.015376,-0.035651
278,0.132327,-3.604936,9.331177,6.524513,-0.406324,-2.173348,-19.481913,-2.170924,-3.762260,0.984770,-0.169685,-0.013108,-0.035550
280,0.224378,-3.664917,9.170548,6.190335,-1.169287,-1.540089,-19.786787,-1.900011,-3.792614,0.984360,-0.172238,-0.010640,-0.035441
281,0.308059,-3.816556,9.006730,5.990439,-1.280680,-1.871215,-20.267189,-1.837612,-3.809305,0.983636,-0.176349,-0.009930,-0.035533
282,0.369478,-3.760382,9.151955,6.582498,-0.064517,-2.570089,-20.711256,-1.910442,-3.849611,0.982919,-0.180182,-0.010353,-0.036031
283,0.387720,-3.604113,9.198074,7.015861,0.957853,-4.601096,-20.824930,-2.018675,-3.955305,0.982684,-0.181195,-0.011079,-0.037118
284,0.410486,-3.535187,9.240381,7.043328,1.488875,-5.595998,-20.683912,-2.127461,-4.125555,0.982827,-0.180033,-0.011790,-0.038734
285,0.296082,-3.446600,9.256778,7.327150,1.908505,-7.215005,-20.425484,-2.155529,-4.346091,0.983148,-0.177847,-0.011776,-0.040643
286,0.221818,-3.310258,9.217876,7.179136,2.079409,-7.608694,-20.086878,-2.059773,-4.603903,0.983596,-0.174937,-0.010681,-0.042676
287,0.139819,-3.259443,9.320745,5.781388,1.449201,-6.534442,-19.723461,-1.887226,-4.849752,0.984089,-0.171781,-0.008965,-0.044497
288,0.140272,-3.138344,9.294684,5.546395,0.983794,-5.817257,-19.318834,-1.667269,-5.062986,0.984649,-0.168243,-0.006919,-0.045977
289,0.256422,-3.168099,9.248419,4.322603,1.064668,-4.079229,-18.965233,-1.534948,-5.234496,0.985118,-0.165165,-0.005675,-0.047240
290,0.268981,-2.997462,9.368872,3.135433,0.918179,-2.052800,-18.633860,-1.519987,-5.347246,0.985547,-0.162316,-0.005524,-0.048172
291,0.376793,-3.043290,9.394673,2.943166,0.298653,0.228459,-18.293064,-1.597368,-5.389143,0.985994,-0.159416,-0.006274,-0.048623
292,0.402575,-2.944679,9.243681,1.466070,0.219305,0.812888,-18.056499,-1.764190,-5.380509,0.986292,-0.157444,-0.007823,-0.048763
293,0.424355,-2.981698,9.266456,-0.653441,0.735068,1.482770,-17.938622,-1.926074,-5.352593,0.986433,-0.156489,-0.009305,-0.048733
294,0.277179,-2.778010,9.204505,-0.598506,0.764061,2.346443,-17.790762,-1.939887,-5.305349,0.986651,-0.155217,-0.009551,-0.048333
295,0.254843,-3.014915,9.121386,-1.399618,0.835779,1.983273,-17.745441,-1.805651,-5.247398,0.986764,-0.154772,-0.008492,-0.047651
296,0.210401,-2.931916,9.078330,-2.052714,0.957853,2.181643,-17.881477,-1.652535,-5.188076,0.986633,-0.155882,-0.007198,-0.046943
297,0.313513,-2.929615,9.194071,-2.464713,1.157749,6.193302,-17.948578,-1.551271,-5.066467,0.986609,-0.156416,-0.006464,-0.045763
298,0.187390,-3.087525,9.208900,-2.853824,0.567216,7.484234,-18.090073,-1.423757,-4.857281,0.986519,-0.157577,-0.005597,-0.043796
299,0.348718,-3.286906,9.214823,-5.177808,0.294076,7.665820,-18.447264,-1.333082,-4.616511,0.986128,-0.160610,-0.005018,-0.041615
300,0.463560,-3.009054,9.122869,-7.097423,0.197942,8.358589,-18.784386,-1.431877,-4.362090,0.985725,-0.163530,-0.006109,-0.039582
301,0.410892,-3.285299,9.241735,-12.551080,0.045350,8.509657,-19.174387,-1.561431,-4.094660,0.985231,-0.166907,-0.007477,-0.037491
302,0.482860,-3.407880,9.003527,-15.065805,-0.215583,3.439006,-19.859491,-1.710820,-3.898061,0.984253,-0.172822,-0.008833,-0.036070
303,0.562384,-3.194886,8.700565,-18.895876,0.756431,2.911036,-20.603115,-1.953285,-3.793788,0.983097,-0.179260,-0.010842,-0.035609
304,0.587643,-3.340680,8.499763,-25.123178,-0.035524,1.618577,-21.447687,-2.241995,-3.719619,0.981712,-0.186566,-0.013174,-0.035520
305,0.697178,-3.818884,8.095448,-31.261978,0.200994,-1.747615,-22.823294,-2.609567,-3.699050,0.979321,-0.198423,-0.015925,-0.036131
306,0.699554,-3.733562,7.516157,-34.731930,0.941068,-2.748622,-24.611458,-3.031141,-3.734576,0.975980,-0.213782,-0.018885,-0.037459
307,0.468382,-3.863981,7.386703,-42.547722,2.180120,-3.400192,-26.510410,-3.247148,-3.809356,0.972214,-0.229987,-0.019945,-0.038831
308,0.609590,-4.326379,7.246222,-48.866577,1.202001,-4.036503,-28.712214,-3.354535,-3.903450,0.967549,-0.248664,-0.019898,-0.040233
309,0.520547,-4.458466,7.240818,-52.075600,2.570757,-6.055302,-31.061001,-3.480190,-4.037484,0.962160,-0.268492,-0.019811,-0.042050
310,0.372239,-4.662775,7.593122,-51.671230,2.706564,-1.976504,-33.098549,-3.387538,-4.179409,0.957212,-0.285559,-0.017932,-0.043352
311,0.294727,-4.851672,7.976077,-49.367081,2.221320,-4.379836,-34.652691,-3.128905,-4.325984,0.953281,-0.298474,-0.014808,-0.044141
312,0.219923,-5.358323,8.076280,-43.415974,0.670979,-1.820859,-35.922665,-2.830152,-4.460965,0.949958,-0.308962,-0.011476,-0.044621
313,0.297555,-5.195580,8.086587,-36.061012,0.678609,-2.867644,-36.840878,-2.589027,-4.563460,0.947485,-0.316510,-0.008840,-0.044897
314,0.204110,-5.573802,7.993590,-29.902378,0.182683,0.130800,-37.454693,-2.376554,-4.634426,0.945810,-0.321528,-0.006645,-0.044936
315,0.031683,-5.491923,7.940262,-27.495993,0.378002,-2.382400,-37.965546,-2.057523,-4.691711,0.944433,-0.325654,-0.003651,-0.044535
316,0.166566,-5.962785,7.686775,-25.800692,0.687764,0.947169,-38.576172,-1.752682,-4.736064,0.942745,-0.330594,-0.000777,-0.044042
317,0.295277,-5.730087,7.455155,-23.769684,1.815423,-0.896149,-39.289619,-1.623344,-4.767276,0.940688,-0.336418,0.000651,-0.043924
318,0.033964,-6.210689,7.630480,-24.976690,2.520401,0.249822,-39.990238,-1.445216,-4.826046,0.938632,-0.342109,0.002555,-0.043870
319,0.247535,-6.257536,7.552764,-23.531637,2.431897,-0.534504,-40.750954,-1.251920,-4.886460,0.936361,-0.348270,0.004609,-0.043760
320,-0.033829,-6.336609,7.599539,-23.211195,2.560075,-0.917511,-41.408672,-1.069459,-4.963329,0.934356,-0.353577,0.006586,-0.043798
321,0.201386,-6.326081,7.698376,-22.542841,2.721823,-2.173348,-41.895252,-0.910586,-5.067403,0.932840,-0.357482,0.008390,-0.044122
322,0.168442,-6.785310,7.774766,-22.709164,1.633838,-2.469377,-42.387085,-0.919299,-5.178298,0.931252,-0.361477,0.008859,-0.045014
323,0.107322,-6.838277,7.536753,-21.036751,1.632312,-4.063970,-43.025036,-0.926021,-5.296815,0.929176,-0.366648,0.009434,-0.045947
324,-0.289615,-6.915380,7.531297,-21.930944,2.573808,-5.400680,-43.679264,-0.714942,-5.462435,0.927046,-0.371856,0.011942,-0.046548
325,0.336988,-7.187273,7.444970,-21.950781,3.402385,-4.613302,-44.393974,-0.628295,-5.654943,0.924647,-0.377577,0.013565,-0.047741
326,-0.036754,-7.500357,7.211893,-22.216290,3.719778,-5.367109,-45.318775,-0.691501,-5.853906,0.921472,-0.385027,0.014110,-0.049442
327,-0.072090,-7.575283,7.584019,-21.552513,5.183140,-5.016147,-46.175030,-0.533169,-6.081388,0.918505,-0.391807,0.016527,-0.050618
328,0.292029,-7.592843,7.674175,-19.227001,5.151095,-4.375257,-46.680847,-0.521973,-6.316976,0.916663,-0.395818,0.017653,-0.052391
329,0.277144,-7.858787,7.815151,-16.277388,4.940519,-4.340161,-46.988750,-0.693405,-6.540707,0.915451,-0.398319,0.017202,-0.054726
330,0.097312,-7.967737,7.584875,-11.098397,4.430860,-3.091955,-47.245716,-0.745723,-6.740834,0.914446,-0.400364,0.017606,-0.056466
331,0.077306,-7.723000,7.858325,-8.029763,4.060060,-1.468370,-47.251366,-0.655866,-6.900310,0.914370,-0.400342,0.018883,-0.057425
332,0.113583,-7.650894,7.259918,-3.401632,2.492934,0.512281,-47.113613,-0.557361,-6.995267,0.914827,-0.399181,0.019932,-0.057863
333,0.008915,-7.682515,7.352687,-2.809573,1.122653,1.809318,-47.066402,-0.436628,-7.014648,0.915012,-0.398743,0.020939,-0.057606
334,0.149715,-7.673589,7.142655,-0.485589,-0.215583,3.857110,-47.040047,-0.345219,-6.962117,0.915152,-0.398499,0.021474,-0.056874
335,0.255863,-7.574450,7.149652,0.054589,-1.503464,3.675525,-47.010326,-0.408206,-6.855860,0.915293,-0.398311,0.020586,-0.056249
336,0.294721,-8.045102,7.007334,-0.329944,-0.969391,3.968502,-47.160789,-0.552625,-6.737630,0.914792,-0.399599,0.019095,-0.055782
337,0.321726,-8.110942,7.190659,-6.911260,0.518387,2.846947,-47.583599,-0.691676,-6.651487,0.913318,-0.403048,0.017889,-0.055512
338,0.412018,-8.242868,7.995633,-17.290604,1.145542,1.974118,-47.947163,-0.848844,-6.617207,0.912011,-0.406018,0.016692,-0.055738
339,0.664139,-8.577895,8.484444,-29.995457,1.923764,0.898340,-48.328423,-1.122694,-6.627100,0.910575,-0.409166,0.014736,-0.056737
340,0.419153,-9.082552,9.228412,-40.264938,3.669422,0.721333,-48.897461,-1.325457,-6.686953,0.908442,-0.413761,0.013625,-0.057867
341,0.424767,-9.015204,9.494907,-45.063972,4.380504,0.538221,-49.459492,-1.341241,-6.791644,0.906344,-0.418205,0.014166,-0.058685
342,0.308023,-9.708153,9.090119,-44.906803,4.433911,2.732502,-50.212116,-1.254236,-6.885195,0.903557,-0.424099,0.015584,-0.059008
343,0.039313,-10.040517,8.047048,-35.146988,6.162784,8.927760,-51.405582,-0.889981,-6.903625,0.899191,-0.433324,0.019127,-0.057612
344,-0.121012,-9.756383,7.585809,-19.783964,8.468457,14.295965,-52.490730,-0.198064,-6.857407,0.895256,-0.441517,0.024900,-0.054404
345,-0.240158,-9.711334,6.379241,-4.517083,7.401835,17.100616,-53.357731,0.644137,-6.753658,0.892120,-0.447907,0.031460,-0.050111
346,-0.643904,-9.445653,5.924955,12.239104,4.324045,20.509533,-54.043934,1.643804,-6.547890,0.889659,-0.452814,0.038702,-0.044364
347,-0.272657,-8.837141,5.901954,38.724590,2.991912,19.888481,-53.816975,2.492610,-6.261650,0.890727,-0.450725,0.044078,-0.038862
348,-0.111825,-8.438053,5.136341,57.461430,4.322519,14.730854,-52.865829,2.839419,-6.039387,0.894519,-0.443226,0.045598,-0.036144
349,-0.632000,-7.745835,4.903685,67.595100,-0.629109,12.667802,-51.673595,3.171032,-5.852953,0.899137,-0.433803,0.047112,-0.033891
350,-0.442163,-6.565744,4.965712,80.805038,-2.484634,9.173433,-49.748390,3.516273,-5.607444,0.906352,-0.418564,0.048366,-0.031467
351,0.289297,-6.040823,5.189603,83.394539,0.158268,3.356606,-47.080070,3.113858,-5.454032,0.915921,-0.397605,0.043876,-0.032763
352,-0.111850,-5.494884,4.797371,67.540169,1.006683,3.385599,-44.694817,2.474983,-5.430085,0.924031,-0.378760,0.037959,-0.035599
353,-0.437998,-4.678467,5.330846,54.708660,-2.249642,-0.259837,-42.504593,2.387098,-5.386231,0.931117,-0.361084,0.036420,-0.036240
354,-0.064304,-4.193166,5.052712,50.042377,-1.860531,-5.164162,-40.176086,2.203979,-5.383966,0.938266,-0.342173,0.034171,-0.037503
355,-0.167995,-4.215932,5.178014,41.301880,-2.135198,-5.689079,-38.298187,1.794522,-5.474891,0.943720,-0.326906,0.030441,-0.039980
356,-0.177510,-4.051920,4.819929,34.984547,-3.348308,-5.753169,-37.098412,1.517211,-5.574838,0.947051,-0.317104,0.028006,-0.041893
357,-0.095543,-3.816833,6.181219,38.408722,-5.539537,-8.534930,-35.536339,1.169012,-5.672056,0.951237,-0.304296,0.024801,-0.044006
358,-0.077720,-4.398968,6.453790,39.692028,-4.689597,-10.695642,-33.614273,0.719601,-5.827795,0.956119,-0.288466,0.020702,-0.046849
359,0.110777,-4.639354,7.562174,35.752087,-2.811183,-11.304484,-32.046059,0.224592,-6.067049,0.959831,-0.275537,0.016488,-0.050324
360,-0.166420,-4.751186,8.147385,30.681437,-1.404279,-11.731743,-30.575611,-0.095790,-6.359472,0.963116,-0.263306,0.013820,-0.053726
361,-0.369445,-4.718549,8.802773,24.707439,-2.275583,-7.544604,-29.261106,-0.028235,-6.603179,0.965965,-0.252180,0.014309,-0.055786
362,-0.527207,-4.956332,8.308575,14.871325,-0.941924,-4.796414,-28.524616,0.328110,-6.750545,0.967534,-0.245770,0.017275,-0.056356
363,-0.270043,-4.607100,8.757080,9.558053,-2.893583,1.757436,-28.166422,0.696808,-6.760192,0.968325,-0.242555,0.020234,-0.055709
364,-0.448152,-4.826420,8.617590,7.423284,-3.577197,4.102783,-27.920057,1.039695,-6.622126,0.968931,-0.240324,0.022723,-0.053863
365,-0.180825,-4.985870,8.043557,9.956320,-4.205878,5.701952,-28.124664,1.245129,-6.425032,0.968598,-0.241991,0.024139,-0.051721
366,-0.278860,-4.910707,7.957853,10.125698,-4.353893,3.089569,-28.481632,1.238068,-6.242702,0.967921,-0.245048,0.023850,-0.050121
367,-0.207531,-4.824193,8.442282,9.995994,-4.906278,1.488873,-28.634073,1.180707,-6.112819,0.967649,-0.246390,0.023154,-0.049116
368,-0.257567,-4.805932,8.444464,10.855089,-4.172308,0.114014,-28.568958,1.100919,-6.022986,0.967824,-0.245895,0.022259,-0.048542
369,-0.393157,-4.809324,8.192692,9.358157,-3.622975,-0.235423,-28.530066,1.147058,-5.968510,0.967932,-0.245556,0.022516,-0.047991
370,-0.112921,-4.670274,8.797434,0.741256,-3.465805,-0.314771,-28.462639,1.095693,-5.922006,0.968094,-0.245019,0.021954,-0.047721
371,-0.312155,-4.960717,8.748465,-1.060863,-2.357983,0.936488,-28.498373,1.017079,-5.867183,0.968038,-0.245367,0.021188,-0.047420
372,-0.173009,-4.737023,8.363294,-2.934699,-1.915465,0.883081,-28.794842,1.034898,-5.810772,0.967424,-0.247873,0.021339,-0.046850
373,-0.261040,-4.813820,8.136415,-8.019080,-2.783716,2.083984,-29.274702,1.043500,-5.735177,0.966408,-0.251932,0.021441,-0.046104
374,-0.156741,-4.435273,7.874489,-13.280471,-4.263864,2.991910,-29.808252,1.029597,-5.607467,0.965275,-0.256459,0.021253,-0.044959
375,0.093750,-4.515830,7.429747,-15.662442,-4.836086,3.370339,-30.437845,0.792447,-5.441565,0.963905,-0.261889,0.019126,-0.043990
376,0.414847,-3.958585,6.539664,-19.104929,-3.670279,0.300177,-31.225439,0.182573,-5.314834,0.962086,-0.268773,0.014011,-0.044225
377,0.198611,-4.477290,6.684686,-24.706602,-3.386457,1.177584,-32.268612,-0.419044,-5.224843,0.959562,-0.277759,0.009157,-0.044799
378,0.421374,-4.178470,6.279167,-25.512291,-0.854946,-2.571614,-33.476650,-0.900827,-5.197050,0.956513,-0.288037,0.005536,-0.045677
379,0.652503,-4.796690,6.567380,-32.574272,1.937497,-6.482560,-34.819824,-1.575725,-5.315422,0.952881,-0.299464,0.000766,-0.048351
380,0.330424,-5.279397,7.315802,-39.869720,3.638904,-8.890471,-36.361835,-2.042753,-5.557847,0.948538,-0.312423,-0.001791,-0.051610
381,-0.241109,-5.865431,8.150798,-41.386494,2.419690,-8.412856,-37.741333,-1.864038,-5.848503,0.944626,-0.323754,0.001126,-0.053521
383,0.386158,-5.453703,7.909851,-37.470970,4.476637,-11.188515,-38.691536,-1.697051,-6.195849,0.941789,-0.331503,0.003948,-0.055884
384,-0.212452,-5.988298,7.889873,-40.213058,4.328623,-10.601033,-39.539234,-1.579051,-6.586433,0.939149,-0.338393,0.006483,-0.058708
385,-0.275108,-5.803597,7.641637,-36.050335,2.886623,-8.156502,-40.445385,-1.112647,-6.920940,0.936399,-0.345573,0.011769,-0.059987
386,-0.148656,-5.769969,6.917706,-30.468496,2.213690,-6.105656,-41.274960,-0.709493,-7.171361,0.933843,-0.352120,0.016260,-0.060705
387,0.145655,-5.747304,6.620411,-29.618553,1.636890,-3.861021,-42.187412,-0.602317,-7.344126,0.930944,-0.359465,0.018155,-0.061641
388,-0.487856,-6.347878,6.343766,-31.716702,-1.915464,0.255926,-43.444641,-0.321613,-7.386616,0.926988,-0.369507,0.021239,-0.060878
389,0.392941,-6.594324,6.543365,-31.126167,-4.346264,4.623124,-44.923897,-0.189439,-7.259789,0.922238,-0.381399,0.022665,-0.059138
390,0.333681,-6.695065,6.579398,-29.279804,-4.135686,6.570204,-46.152672,-0.525760,-7.021392,0.918137,-0.391476,0.019788,-0.058129
391,0.078996,-6.913414,6.573720,-30.361681,-5.005464,8.787374,-47.230492,-0.612405,-6.729201,0.914538,-0.400184,0.018622,-0.055911
392,0.360522,-7.101920,6.929688,-30.572260,-5.879819,10.090514,-48.133614,-0.634903,-6.382655,0.911515,-0.407445,0.017651,-0.053086
393,0.463691,-7.079944,6.944765,-29.478168,-6.523760,10.908411,-48.754887,-0.839623,-5.996593,0.909417,-0.412519,0.014924,-0.050662
394,0.000335,-7.350168,7.117139,-27.529566,-6.036988,10.285832,-49.203655,-0.823806,-5.611068,0.907963,-0.416120,0.013848,-0.047491
395,-0.218218,-7.694952,7.021793,-24.256454,-6.850307,11.633224,-49.656689,-0.418022,-5.217486,0.906554,-0.419614,0.015805,-0.042838
396,-0.275403,-7.901659,7.144752,-21.050486,-6.656514,11.012174,-50.097797,0.093141,-4.808290,0.905164,-0.422988,0.018496,-0.037659
397,-0.353503,-8.313520,6.974628,-16.562738,-5.809626,10.870262,-50.547199,0.585153,-4.419336,0.903679,-0.426440,0.021075,-0.032687
398,-0.354197,-8.973136,7.252345,-10.477347,-4.700279,8.447093,-51.031960,1.000149,-4.083199,0.901992,-0.430192,0.023217,-0.028392
399,-0.267442,-8.863423,6.837207,-1.875706,-3.951049,6.034605,-51.404118,1.242527,-3.823708,0.900664,-0.433099,0.024233,-0.025360
400,-0.100089,-9.146564,6.865366,-0.181929,-2.191657,2.412058,-51.718483,1.254241,-3.661810,0.899508,-0.435598,0.023779,-0.023978
401,-0.254755,-9.028872,6.808782,4.029625,0.010254,-1.346296,-51.931583,1.179802,-3.627976,0.898700,-0.437299,0.023110,-0.023952
402,0.107995,-9.004084,6.680705,5.377018,2.991912,-6.903717,-52.035423,0.943473,-3.757435,0.898263,-0.438156,0.021775,-0.025851
403,-0.099410,-8.506362,6.557086,4.189847,7.230931,-10.596456,-52.051994,0.617318,-4.074372,0.898098,-0.438323,0.020435,-0.029581
404,0.094469,-8.428869,7.030865,0.071374,9.817375,-11.382307,-51.840115,0.361347,-4.522906,0.898754,-0.436662,0.020082,-0.034113
405,0.081606,-8.474467,6.985428,1.388248,9.927242,-10.193611,-51.515564,0.105674,-5.002350,0.899798,-0.434117,0.019794,-0.038903
406,0.123930,-8.483653,7.190349,2.171048,9.243628,-8.827909,-51.162361,-0.085853,-5.449672,0.900939,-0.431333,0.019852,-0.043202
407,-0.058614,-8.630222,7.301856,0.175137,6.385569,-4.268443,-50.823181,-0.125223,-5.789947,0.902072,-0.428620,0.020687,-0.046087
408,0.476167,-8.504910,8.027654,-7.903112,3.002593,-2.933258,-50.430340,-0.289644,-5.988650,0.903420,-0.425555,0.019970,-0.048335
409,0.123903,-8.955919,8.375628,-16.059183,0.687764,-4.797940,-50.109108,-0.583185,-6.122544,0.904485,-0.423117,0.018011,-0.050530
410,0.275665,-8.653096,9.120572,-21.921787,0.796105,-6.467302,-49.792648,-0.801682,-6.270588,0.905530,-0.420684,0.016688,-0.052551
411,0.533568,-8.820324,9.353271,-19.523033,2.450209,-3.862546,-49.256992,-1.108869,-6.439725,0.907325,-0.416550,0.014623,-0.055082
412,0.156546,-8.964608,9.491128,-12.230637,3.968504,0.561111,-48.627350,-1.188962,-6.577627,0.909510,-0.411574,0.014180,-0.056543
413,-0.199873,-9.011644,8.499664,0.310945,3.333719,9.748707,-48.092190,-0.742373,-6.568065,0.911548,-0.407133,0.017435,-0.054949
414,-0.007710,-9.460585,7.653812,8.026023,-0.734398,20.721636,-48.047611,-0.064404,-6.260160,0.912001,-0.406537,0.021717,-0.050102
415,-0.347887,-9.290161,6.490540,27.542610,-3.581775,27.965204,-48.382267,0.736870,-5.663176,0.911181,-0.408983,0.026101,-0.042429
416,-0.713479,-9.350366,5.183947,33.859940,-9.050691,34.340523,-49.166019,1.840041,-4.838817,0.908714,-0.414970,0.032148,-0.031709
417,-0.464325,-8.845779,4.604180,38.765793,-7.395061,34.323734,-50.326153,2.908657,-3.953670,0.904643,-0.424014,0.037620,-0.020427
418,-0.341294,-8.957873,4.970109,38.565891,-5.620411,32.912254,-51.220951,3.630928,-3.168514,0.901335,-0.431079,0.040502,-0.011230
419,-0.697762,-8.007072,4.804529,59.614510,-4.361523,26.008966,-51.257927,4.265277,-2.517504,0.901126,-0.431401,0.043039,-0.003700
420,-0.250143,-7.657479,4.793640,64.166344,-5.003937,17.642319,-50.507977,4.545100,-2.028201,0.903872,-0.425595,0.043402,0.000920
421,0.096040,-6.278584,5.541049,62.532078,-3.909849,9.214633,-48.813641,4.055596,-1.669012,0.910181,-0.412441,0.038233,0.001365
422,-0.293671,-5.917718,5.502287,54.205101,-7.994750,5.021391,-46.506874,3.424088,-1.363393,0.918433,-0.394268,0.032143,0.000868
423,-0.280692,-5.122967,4.922379,54.446198,-10.475905,-1.459215,-44.486397,2.957204,-1.102690,0.925328,-0.378165,0.027524,0.000864
424,-0.020330,-4.502735,5.066885,42.762192,-11.087802,-6.384902,-42.558189,2.236848,-0.943591,0.931673,-0.362680,0.021175,-0.000588
425,-0.006593,-4.177962,5.562847,32.236355,-10.147831,-9.210916,-40.511288,1.334605,-0.884425,0.938097,-0.346091,0.013598,-0.003208
426,0.130177,-5.105076,5.941289,34.180382,-9.452010,-12.485552,-38.892593,0.433762,-0.947544,0.942925,-0.332880,0.006322,-0.006537
427,0.165751,-4.791187,6.148105,44.877117,-6.291818,-16.311047,-37.500141,-0.438616,-1.170377,0.946861,-0.321459,-0.000341,-0.010901
428,0.039007,-4.647354,7.072736,47.813004,-4.620930,-18.804407,-35.468357,-1.071207,-1.542699,0.952314,-0.304680,-0.004802,-0.015669
429,-0.081406,-4.712297,8.285849,48.461517,-1.555346,-21.787592,-32.915226,-1.373749,-2.055784,0.958745,-0.283446,-0.006413,-0.020599
430,-0.497805,-4.845821,8.997280,56.475677,-0.771020,-20.917814,-30.177361,-1.243844,-2.644895,0.965145,-0.260471,-0.004470,-0.025107
431,-0.831483,-4.575096,9.267388,59.193352,0.402416,-22.413219,-27.446482,-0.661542,-3.254772,0.971006,-0.237292,0.001131,-0.028957
432,-0.533064,-4.044555,9.480999,58.497528,-2.620442,-15.769341,-24.713058,-0.090470,-3.777133,0.976299,-0.213903,0.006282,-0.032361
433,-0.455210,-4.349658,9.288994,56.298672,-6.142277,-7.938294,-22.430475,0.203830,-4.054936,0.980300,-0.194311,0.008625,-0.034357
434,-0.147398,-4.038584,8.499984,47.693977,-9.552720,4.267584,-21.012571,0.250162,-4.001867,0.982647,-0.182157,0.008512,-0.033933
435,0.219984,-3.522262,8.366989,30.763840,-10.166142,13.201876,-20.154213,-0.042334,-3.613656,0.984082,-0.174898,0.005153,-0.031108
436,0.668402,-2.866610,8.400949,16.621561,-10.366037,19.415443,-19.416340,-0.732335,-2.992139,0.985295,-0.168733,-0.001895,-0.026811
437,0.659360,-3.048326,8.723915,4.337862,-8.502884,13.096587,-18.942190,-1.564169,-2.384841,0.986016,-0.164779,-0.010037,-0.022770
438,0.677480,-2.058007,9.100311,0.236176,-3.014131,6.426767,-18.284746,-2.198693,-2.035856,0.986905,-0.159170,-0.016117,-0.020584
439,0.539907,-1.731502,9.067531,3.320070,2.860682,-2.472429,-16.951054,-2.534438,-2.023453,0.988625,-0.147714,-0.019269,-0.020719
440,0.205996,-1.665694,8.886229,10.244720,5.111422,-9.864011,-15.423897,-2.459406,-2.314942,0.990467,-0.134564,-0.018552,-0.022892
441,-0.248430,-1.579311,8.917548,18.789902,5.647022,-12.526752,-13.828663,-1.889449,-2.760948,0.992256,-0.120728,-0.013463,-0.025897
442,-0.299148,-1.665736,9.082038,25.491766,5.743155,-11.548635,-12.255280,-1.067643,-3.208099,0.993826,-0.106957,-0.006272,-0.028825
443,-0.389841,-2.279120,9.072424,29.485113,4.276741,-10.814663,-11.185940,-0.305832,-3.598471,0.994737,-0.097496,0.000405,-0.031508
444,-0.578334,-2.365337,9.700397,28.265898,2.163334,-6.500872,-10.632165,0.406848,-3.889610,0.995130,-0.092476,0.006677,-0.033462
445,-0.218072,-2.666895,9.932614,21.988241,1.311868,-3.870177,-10.444059,0.847234,-4.068091,0.995219,-0.090694,0.010588,-0.034673
446,-0.257298,-2.769410,9.807301,12.533607,0.159794,-2.045170,-10.780341,0.985328,-4.180272,0.994908,-0.093559,0.011981,-0.035502
447,-0.114242,-2.711933,9.729146,3.890766,-0.990754,-0.873259,-11.454816,0.987267,-4.241098,0.994322,-0.099406,0.012259,-0.035957
448,-0.140702,-2.323330,9.583398,-3.758698,-1.662161,0.458874,-12.105210,0.895182,-4.249726,0.993742,-0.105078,0.011672,-0.036046
449,0.311732,-2.500118,9.358124,-8.983465,-1.460739,1.865777,-12.787727,0.580182,-4.206573,0.993118,-0.111101,0.009115,-0.035909
450,-0.054333,-2.331044,9.271194,-11.551600,-1.823909,1.617051,-13.520853,0.259641,-4.138660,0.992407,-0.117560,0.006499,-0.035591
451,0.412973,-2.247174,9.303699,-11.994117,-1.141820,2.604324,-14.042736,-0.051335,-4.057677,0.991876,-0.122179,0.003883,-0.035192
452,0.102232,-2.326678,9.470926,-12.483939,-0.609272,2.419687,-14.433975,-0.366433,-3.966650,0.991464,-0.125661,0.001177,-0.034736
453,0.438321,-2.607348,9.423212,-11.489037,-0.369702,1.664355,-14.908216,-0.622697,-3.894318,0.990938,-0.129838,-0.000977,-0.034395
454,-0.054835,-2.364092,9.425507,-11.720976,-0.522294,0.008725,-15.314576,-0.747269,-3.861824,0.990470,-0.133387,-0.001970,-0.034262
455,0.219973,-2.681223,9.407735,-12.792177,-0.717613,2.468517,-15.701659,-0.718157,-3.816976,0.990030,-0.136723,-0.001656,-0.033846
456,0.059662,-2.613002,9.179688,-13.442220,-0.450576,0.127748,-16.212677,-0.741976,-3.768894,0.989422,-0.141142,-0.001770,-0.033467
457,-0.093641,-2.650316,9.036850,-14.901005,-0.714561,2.418162,-16.715570,-0.591784,-3.723133,0.988820,-0.145441,-0.000385,-0.032890
458,0.479086,-2.936738,8.815339,-15.128367,-0.880887,4.412546,-17.389805,-0.682131,-3.604982,0.987972,-0.151280,-0.001126,-0.031992
459,0.674591,-3.223068,8.301876,-16.570368,1.836786,1.351540,-18.437420,-1.200558,-3.505734,0.986517,-0.160436,-0.005436,-0.031869
460,-0.050124,-3.101719,8.347249,-22.115582,1.726920,0.419199,-19.622784,-1.333454,-3.480738,0.984793,-0.170663,-0.006286,-0.031906
461,0.073479,-3.284662,8.428004,-25.710659,0.030090,-3.014133,-20.757658,-1.096646,-3.526732,0.983074,-0.180352,-0.003865,-0.031990
462,0.792102,-3.322643,8.100953,-29.392721,0.725912,-7.114294,-21.972956,-1.446252,-3.681149,0.981010,-0.190862,-0.006262,-0.033931
463,-0.199454,-3.437749,8.418348,-35.403339,1.095186,-7.974916,-23.212790,-1.642503,-3.914710,0.978782,-0.201529,-0.007161,-0.036336
464,-0.423464,-3.262379,8.631984,-38.609310,-2.086368,-5.579212,-24.229475,-1.095417,-4.128922,0.976978,-0.210061,-0.001780,-0.037225
465,0.394355,-3.897016,8.440074,-38.548275,-2.107731,-6.423050,-25.329668,-0.968325,-4.295722,0.974880,-0.219395,-0.000022,-0.038417
466,0.162137,-3.984022,8.110948,-37.647976,0.139957,-1.880370,-26.726778,-1.189289,-4.402093,0.972061,-0.231331,-0.001214,-0.039761
467,-0.270684,-4.387974,8.164167,-37.576256,-0.011110,1.151644,-28.201242,-0.930668,-4.411654,0.969043,-0.243740,0.001506,-0.039306
468,0.019575,-4.620391,7.797503,-35.822971,-0.995332,2.267095,-29.797697,-0.574348,-4.356851,0.965622,-0.257108,0.004933,-0.038021
469,0.394708,-5.398600,7.860230,-32.671936,-0.911406,1.316444,-31.607391,-0.664197,-4.283265,0.961453,-0.272356,0.004604,-0.037534
470,0.057092,-5.369217,7.723290,-25.228468,0.500076,3.336769,-33.311096,-0.766790,-4.200837,0.957310,-0.286653,0.004098,-0.037029
471,-0.144183,-5.537169,7.756061,-18.659361,1.664357,2.372384,-34.550041,-0.501128,-4.137004,0.954212,-0.296913,0.006545,-0.035764
472,-0.060444,-5.859647,8.033077,-12.514457,2.677571,1.678088,-35.422935,-0.170355,-4.123283,0.951967,-0.304077,0.009529,-0.034721
473,-0.054190,-5.461992,7.691362,-6.284104,3.149082,-2.632652,-35.878197,0.025778,-4.193276,0.950750,-0.307792,0.011482,-0.034737
474,-0.536267,-5.349864,7.600051,-7.674222,3.965452,-2.884429,-36.038490,0.421790,-4.338099,0.950308,-0.308980,0.015205,-0.034854
475,-0.329522,-5.244616,7.488357,-13.352191,3.925778,-6.297923,-36.225857,0.898766,-4.539873,0.949767,-0.310342,0.019762,-0.035207
476,-0.134530,-5.495176,7.692272,-23.903965,3.384075,-7.121924,-36.689838,1.009971,-4.791855,0.948428,-0.314100,0.021515,-0.036907
477,-0.231697,-5.394357,7.493373,-30.882027,2.944609,-8.103093,-37.455002,0.973237,-5.055976,0.946221,-0.320389,0.022196,-0.039047
478,-0.236218,-5.832164,7.965477,-38.739010,4.353038,-6.558857,-38.415192,0.996271,-5.321027,0.943412,-0.328244,0.023472,-0.040975
480,-0.087539,-6.028755,7.887655,-36.866703,5.355571,-4.822354,-39.466995,0.994072,-5.567049,0.940270,-0.336838,0.024552,-0.042783
481,0.198083,-6.083833,7.783670,-33.485249,5.801141,-2.475481,-40.410339,0.811783,-5.773009,0.937371,-0.344601,0.024032,-0.044814
482,0.131982,-6.339723,7.515552,-29.003609,5.715689,-0.569600,-41.292664,0.574902,-5.928829,0.934602,-0.351879,0.022923,-0.046627
483,0.204146,-6.500002,7.531695,-25.342913,6.016296,0.515333,-42.128353,0.407980,-6.053908,0.931938,-0.358734,0.022297,-0.047999
484,0.239346,-6.557718,7.029612,-19.561180,4.429334,1.557540,-42.913239,0.223721,-6.141591,0.929395,-0.365173,0.021410,-0.049144
485,0.284813,-6.748839,7.424202,-20.931461,3.883052,0.483289,-43.610783,0.002552,-6.207686,0.927089,-0.370909,0.020133,-0.050263
486,-0.115339,-6.957498,7.387423,-19.219372,4.218756,0.603837,-44.189144,-0.000073,-6.285521,0.925171,-0.375571,0.020621,-0.050798
487,-0.217374,-7.251669,7.710529,-17.534752,3.915097,0.893762,-44.682640,0.285305,-6.363352,0.923560,-0.379408,0.023397,-0.050391
488,-0.246415,-7.249088,7.641913,-13.579553,2.232001,0.983792,-45.001102,0.589203,-6.414169,0.922527,-0.381822,0.026152,-0.049721
489,-0.353780,-7.581351,8.160829,-11.843049,1.656727,0.895288,-45.115658,0.871369,-6.436022,0.922174,-0.382606,0.028545,-0.048927
490,-0.307368,-7.455494,7.785289,-5.528771,0.953275,0.861718,-45.080734,1.109614,-6.442228,0.922316,-0.382208,0.030468,-0.048189
491,-0.364534,-7.775357,8.140239,-4.338549,0.461927,-0.818326,-44.987865,1.268130,-6.453745,0.922637,-0.381380,0.031743,-0.047777
492,0.050727,-7.513780,7.927126,-0.665648,0.968535,-1.071629,-44.798824,1.188881,-6.487191,0.923243,-0.379887,0.031136,-0.048362
493,0.050532,-7.546349,7.845739,0.629863,1.702505,-1.596548,-44.572323,0.909109,-6.546070,0.923935,-0.378183,0.028980,-0.049824
494,0.031693,-7.240288,7.590424,2.612040,2.351023,-0.496356,-44.347034,0.695060,-6.616113,0.924617,-0.376453,0.027386,-0.051151
495,-0.008397,-7.339795,7.583301,1.928426,0.927335,1.435466,-44.158558,0.582803,-6.642088,0.925207,-0.374980,0.026480,-0.051773
496,0.077637,-7.287528,7.413747,3.297181,-1.242531,3.741139,-44.077183,0.483484,-6.576816,0.925488,-0.374386,0.025428,-0.051590
497,0.002108,-7.945907,7.402463,3.506233,-3.557360,4.368294,-44.271904,0.379262,-6.426661,0.924901,-0.376039,0.024182,-0.050677
498,0.373737,-7.877573,7.844422,-4.584223,-5.389996,3.530561,-44.645039,0.102835,-6.229970,0.923712,-0.379213,0.021468,-0.049927
499,0.426252,-7.868700,9.072188,-23.989414,-7.005950,1.292029,-44.854282,-0.403517,-6.025586,0.923012,-0.381150,0.016801,-0.049925
500,0.351026,-8.131047,9.835662,-37.261913,-6.177373,0.220829,-45.036289,-0.851480,-5.854399,0.922382,-0.382816,0.012702,-0.050014
501,0.432851,-8.403698,10.847352,-39.961281,-4.427138,-1.384445,-45.152172,-1.190160,-5.755702,0.921956,-0.383887,0.009696,-0.050339
502,-0.080448,-7.962354,10.889548,-35.285843,-4.785730,0.550429,-44.890438,-1.256492,-5.684300,0.922845,-0.381810,0.008809,-0.050007
503,-0.374052,-8.438179,10.056274,-29.275225,-4.453078,8.540174,-44.674145,-0.846495,-5.494641,0.923741,-0.379935,0.011391,-0.047138
504,-0.354710,-8.888051,9.148966,-5.000802,-2.081790,16.737446,-44.743759,-0.128294,-5.129347,0.923787,-0.380281,0.015997,-0.041805
505,-0.313885,-8.853339,8.025459,20.659161,-4.807093,21.255709,-44.720547,0.617416,-4.598978,0.924134,-0.379917,0.020243,-0.035057
506,-0.607278,-8.887198,6.203400,30.109217,-6.581745,27.922478,-45.113842,1.458123,-3.895238,0.923057,-0.382949,0.024780,-0.026505
507,-0.172842,-8.538484,5.425155,36.341091,-5.602100,25.345192,-46.106064,2.153273,-3.173795,0.919831,-0.390885,0.028125,-0.018122
508,-0.520832,-8.352470,5.297423,43.630440,-2.522783,22.627518,-46.977005,2.682954,-2.596052,0.916865,-0.397867,0.030492,-0.011442
509,-0.397473,-7.944341,4.664385,41.050102,-2.473953,17.787283,-47.782787,3.191569,-2.173976,0.914010,-0.404291,0.033137,-0.006062
510,-0.449585,-7.217015,4.766701,37.828873,-0.308665,11.636277,-48.439659,3.494189,-1.912479,0.911636,-0.409527,0.034644,-0.002707
511,-0.262139,-6.141552,5.274788,49.177177,0.017883,3.548873,-47.883354,3.508737,-1.790932,0.913613,-0.405129,0.034316,-0.001855
512,-0.397020,-5.739799,5.751245,49.610542,-0.156072,1.523970,-46.042912,3.348368,-1.724168,0.920033,-0.390460,0.032767,-0.002417
513,-0.222901,-4.959117,5.977079,49.128349,-1.578235,-5.133643,-43.528439,3.059910,-1.702720,0.928431,-0.370246,0.030301,-0.003896
514,-0.419492,-4.380802,5.983973,48.922348,-2.814234,-9.528308,-40.623379,2.699700,-1.772770,0.937572,-0.346647,0.027458,-0.006327
515,-0.462949,-4.255598,6.084355,43.465641,-1.747613,-9.224648,-37.881653,2.541135,-1.903687,0.945611,-0.324118,0.026361,-0.008512
516,-0.366964,-4.211525,5.880297,30.068018,-2.473953,-9.983034,-35.924866,2.407308,-2.078146,0.951010,-0.307912,0.025570,-0.010769
517,-0.308916,-4.326741,5.550357,25.595530,-3.246072,-13.356855,-34.983551,2.147410,-2.335991,0.953509,-0.300089,0.023994,-0.013807
518,-0.549474,-4.079731,5.717977,19.729874,-6.084292,-13.295817,-34.475700,1.993983,-2.620413,0.954807,-0.295837,0.023389,-0.016680
519,-0.393140,-4.276167,6.571415,16.212614,-7.022737,-11.977418,-33.800117,1.877104,-2.840488,0.956509,-0.290186,0.022872,-0.018952
520,-0.177845,-4.263972,6.849195,14.785873,-7.088351,-14.473832,-32.979305,1.462956,-3.067284,0.958546,-0.283390,0.019833,-0.022039
521,-0.370703,-4.559808,7.503847,15.521370,-6.937284,-12.918914,-32.143475,1.052051,-3.316463,0.960546,-0.276458,0.016829,-0.025265
522,-0.173199,-4.489842,8.716991,15.077326,-6.117863,-11.838559,-31.020723,0.736635,-3.540003,0.963156,-0.267088,0.014451,-0.028044
523,0.116245,-4.923306,9.088495,25.902241,-2.448013,-10.578146,-29.640713,0.292079,-3.780549,0.966225,-0.255568,0.010900,-0.031236
524,-0.091883,-4.795858,8.467209,33.051197,-0.381909,-10.681909,-28.406982,-0.027257,-4.068105,0.968817,-0.245220,0.008478,-0.034467
525,-0.092378,-4.914441,8.672934,33.183956,0.046875,-7.295879,-27.398518,-0.096964,-4.329809,0.970851,-0.236688,0.008125,-0.036901
526,0.110035,-4.507158,8.830381,28.726728,1.165379,-4.463762,-26.438812,-0.165805,-4.513004,0.972733,-0.228558,0.007596,-0.038660
527,-0.114449,-4.374547,8.463648,25.876299,2.488356,-1.572133,-25.578701,-0.125457,-4.630291,0.974384,-0.221230,0.007876,-0.039636
528,-0.029714,-4.018300,8.533162,16.729902,2.453260,-0.502460,-24.918470,0.043058,-4.695366,0.975633,-0.215549,0.009204,-0.039918
529,-0.078324,-3.954778,9.036796,12.207060,1.987853,1.232518,-24.241909,0.195620,-4.714137,0.976893,-0.209730,0.010303,-0.039852
530,-0.149808,-3.670783,9.069661,11.222836,1.188268,2.042784,-23.415180,0.402853,-4.682978,0.978401,-0.202606,0.011730,-0.039292
531,-0.132709,-3.785516,8.923588,10.867298,1.415631,1.292029,-22.717478,0.597460,-4.645497,0.979636,-0.196580,0.013090,-0.038708
532,-0.205441,-3.694902,8.932541,7.337832,0.980742,2.846947,-22.337015,0.766576,-4.595605,0.980303,-0.193272,0.014323,-0.038039
533,-0.275218,-3.798113,8.943204,5.004692,-0.783228,4.269109,-22.169823,0.952969,-4.487179,0.980620,-0.191790,0.015681,-0.036819
534,-0.072028,-3.916498,8.865828,1.328737,-2.168768,5.482219,-22.332514,0.983449,-4.322299,0.980398,-0.193194,0.015716,-0.035334
535,0.200458,-3.969423,8.739066,-0.152936,-2.303050,4.478161,-22.780272,0.640212,-4.146976,0.979688,-0.197158,0.012619,-0.034366
536,0.191888,-3.972332,8.746147,-2.336535,-1.981079,3.579391,-23.288464,0.131771,-3.998230,0.978831,-0.201672,0.008166,-0.033934
537,0.229417,-3.981676,8.806137,-3.600002,-1.746087,2.627214,-23.690840,-0.246769,-3.877811,0.978127,-0.205225,0.004839,-0.033555
538,0.317788,-3.738848,8.585811,-5.290727,-1.199805,1.990903,-23.922333,-0.559504,-3.786278,0.977709,-0.207291,0.002073,-0.033329
539,0.069908,-3.601533,8.121999,-8.366993,-1.305094,0.088074,-24.134832,-0.732405,-3.736913,0.977319,-0.209151,0.000569,-0.033219
540,-0.065829,-3.790908,7.717862,-16.756529,-2.328990,1.710132,-24.743172,-0.655171,-3.682631,0.976219,-0.214316,0.001302,-0.032609
541,-0.007459,-4.126579,7.467371,-22.747314,-3.059909,0.237614,-25.983727,-0.546682,-3.610848,0.973873,-0.224845,0.002436,-0.031771
542,-0.028069,-4.233746,7.071035,-25.706083,-2.820338,0.559584,-27.644630,-0.492529,-3.549801,0.970535,-0.238924,0.003228,-0.031102
543,-0.243775,-4.687456,7.053238,-30.564631,-3.293375,0.982266,-29.601545,-0.299727,-3.475839,0.966352,-0.255417,0.005220,-0.029989
544,0.358237,-4.908394,7.505715,-32.404900,-1.474472,-1.868163,-31.543509,-0.361532,-3.447747,0.961886,-0.271773,0.005142,-0.029807
545,0.298956,-5.261054,8.394046,-26.920719,2.387645,-2.654015,-32.916698,-0.702700,-3.510780,0.958505,-0.283360,0.002800,-0.031113
546,0.101018,-4.795392,8.405275,-21.958410,3.916623,-0.157601,-33.479389,-0.758413,-3.607178,0.957068,-0.288074,0.002730,-0.032044
547,0.333659,-5.362800,8.952960,-23.948215,4.824549,-1.602652,-33.702694,-0.744118,-3.718667,0.956475,-0.289932,0.003194,-0.032933
548,0.487639,-5.139942,8.946317,-19.423847,7.652088,-3.345259,-33.825375,-0.901792,-3.910048,0.956085,-0.290993,0.002399,-0.034926
549,-0.250497,-5.233810,8.618994,-19.115612,7.179051,1.881036,-33.868011,-0.676140,-4.076209,0.955958,-0.291281,0.004718,-0.035739
550,-0.241651,-4.982731,7.924475,-23.775787,4.418652,2.352547,-34.183353,-0.056832,-4.132891,0.955209,-0.293727,0.010124,-0.034612
551,-0.119321,-5.278950,7.851348,-27.686731,3.225378,1.423259,-34.856098,0.358664,-4.158367,0.953495,-0.299201,0.013851,-0.033678
552,-0.468555,-4.957620,7.164026,-27.546349,0.443616,4.545302,-35.734921,0.793915,-4.116618,0.951208,-0.306374,0.017609,-0.032059
553,-0.284011,-5.331862,6.691540,-30.581415,-2.542620,4.647539,-36.948692,1.214876,-3.983068,0.947956,-0.316321,0.021061,-0.029602
554,0.160633,-5.393920,6.197137,-28.904423,-1.477524,1.935970,-38.583843,1.114152,-3.869236,0.943373,-0.329868,0.020324,-0.028652
555,0.016621,-5.412003,6.252528,-30.791994,-1.390546,1.737599,-40.175102,0.782521,-3.795382,0.938710,-0.343047,0.017783,-0.028756
556,-0.039645,-5.772292,6.362124,-34.162766,-1.656057,1.037200,-41.662956,0.610704,-3.728147,0.934184,-0.355265,0.016546,-0.028507
557,0.050244,-6.195622,6.883023,-34.232956,-0.391065,-0.566548,-43.024521,0.455898,-3.699067,0.929894,-0.366387,0.015534,-0.028568
558,-0.180686,-6.275542,7.393806,-30.778261,2.337290,-1.094519,-43.885933,0.431607,-3.737864,0.927102,-0.373368,0.015679,-0.028844
559,-0.503546,-6.562088,8.000527,-30.775209,3.628223,-0.854948,-44.236195,0.758856,-3.826263,0.925956,-0.376094,0.018701,-0.028435
560,-0.354353,-6.823716,7.755248,-24.764585,6.414562,-2.953096,-44.470249,1.168193,-3.983411,0.925166,-0.377832,0.022581,-0.028313
561,-0.401833,-7.156348,7.817462,-19.718349,8.064088,-2.342726,-44.758728,1.485255,-4.209552,0.924163,-0.380008,0.025959,-0.029027
562,-0.275108,-7.334586,7.389622,-15.718899,8.712605,-3.478014,-45.172089,1.711330,-4.472947,0.922721,-0.383197,0.028764,-0.030296
563,-0.493036,-7.618637,7.171595,-16.187359,8.164799,-1.405807,-45.860573,1.945420,-4.736103,0.920334,-0.388576,0.031717,-0.031440
564,-0.162277,-7.644739,7.127769,-16.542902,6.538161,-0.829008,-46.666698,2.081129,-4.947920,0.917519,-0.394926,0.033754,-0.032442
565,-0.507681,-8.104941,7.389127,-17.572899,4.372875,1.678088,-47.438591,2.169657,-5.077423,0.914802,-0.401022,0.035131,-0.032937
566,-0.349104,-7.942984,7.466337,-14.943730,3.324563,1.758962,-48.012005,2.320054,-5.135114,0.912768,-0.405512,0.036696,-0.032686
567,-0.433933,-8.164561,7.754521,-14.502738,2.351023,3.751821,-48.296543,2.409662,-5.135805,0.911757,-0.407739,0.037492,-0.032280
568,-0.271676,-7.976153,7.978388,-10.509391,1.139438,2.025999,-48.258690,2.413502,-5.096167,0.911903,-0.407449,0.037371,-0.031963
569,-0.661865,-8.417417,8.072234,-6.549615,-0.287302,3.187228,-48.038277,2.469802,-5.027657,0.912703,-0.405692,0.037515,-0.031289
570,-0.235677,-8.151346,8.126463,-1.932166,-1.300517,2.634843,-47.706329,2.481099,-4.922814,0.913903,-0.403076,0.037146,-0.030522
571,-0.265874,-8.057499,7.980009,0.799241,-1.320353,1.606369,-47.217541,2.275704,-4.822343,0.915644,-0.399290,0.035025,-0.030596
572,-0.328965,-7.944316,7.774951,3.197996,-0.102665,0.529066,-46.771553,2.124574,-4.766413,0.917208,-0.395801,0.033504,-0.030808
573,-0.210693,-8.387184,7.745714,3.240721,0.577898,0.550429,-46.561413,1.988607,-4.756408,0.917935,-0.394175,0.032324,-0.031259
574,0.145845,-8.331717,7.662039,0.983878,0.472609,-1.210489,-46.617481,1.637079,-4.781218,0.917729,-0.394754,0.029612,-0.032656
575,0.099681,-7.837976,8.676728,-10.010413,-0.882413,-3.406296,-46.423634,1.122269,-4.820290,0.918359,-0.393385,0.025566,-0.034790
576,-0.229685,-8.046294,9.676469,-16.549004,-3.671805,-1.605703,-45.817883,0.804142,-4.801621,0.920408,-0.388646,0.022764,-0.035856
577,-0.264515,-8.115549,10.211632,-12.718930,-5.306071,3.289466,-44.992851,0.746607,-4.653973,0.923223,-0.382058,0.021550,-0.035021
578,-0.302770,-8.250623,10.476599,-4.004372,-8.391491,9.368753,-43.947685,0.817933,-4.324644,0.926772,-0.373658,0.020732,-0.032320
579,-0.994548,-8.049825,10.171000,16.363682,-9.705314,17.595016,-42.577019,1.293133,-3.769594,0.931335,-0.362499,0.022449,-0.026549
580,-1.346614,-9.210029,8.325317,42.661480,-10.836024,26.451487,-41.540836,2.323930,-2.985209,0.934687,-0.353937,0.028190,-0.017161
581,-0.383527,-9.185770,7.079388,67.402840,-9.174291,26.285162,-41.169682,3.079574,-2.150236,0.935827,-0.350933,0.031746,-0.008113
583,-0.361739,-8.412391,6.312067,69.946548,-8.664633,21.946955,-40.961784,3.250029,-1.448586,0.936463,-0.349391,0.030985,-0.001916
584,0.112735,-7.731936,5.413393,65.998978,-5.353374,9.948605,-41.084232,2.965646,-1.026996,0.936145,-0.350547,0.027375,0.000690
585,0.337377,-7.452046,5.481887,49.106983,-0.471939,1.623155,-41.631416,2.194044,-0.947549,0.934581,-0.355138,0.020833,-0.000924
586,0.306442,-6.006166,6.152888,41.301880,1.290505,-8.348767,-41.547768,1.266791,-1.106585,0.934925,-0.354543,0.013760,-0.005108
587,-0.761775,-5.252549,6.403000,31.856400,1.018890,-9.746514,-40.380993,1.076041,-1.368652,0.938481,-0.344997,0.012934,-0.007968
588,-0.299856,-4.651339,6.622907,31.914385,-0.714561,-7.822323,-38.624027,1.365761,-1.573227,0.943630,-0.330503,0.015786,-0.009014
589,-0.959960,-4.255550,6.947052,27.870684,-2.226753,1.777273,-36.470272,1.865566,-1.581307,0.949634,-0.312633,0.019778,-0.008011
590,-0.633928,-4.148998,7.268435,28.899157,-7.303506,6.365731,-34.223454,2.548138,-1.313367,0.955509,-0.293900,0.024621,-0.004409
591,-0.319724,-3.778292,7.415103,27.272520,-7.840632,8.193789,-31.966774,2.669340,-0.905635,0.961101,-0.275098,0.024567,-0.001182
592,0.023358,-3.812970,7.697360,23.105219,-7.967285,9.344337,-29.910376,2.297536,-0.468834,0.965947,-0.257930,0.020425,0.001222
593,-0.139815,-4.214652,7.872715,22.029442,-6.571063,4.003598,-28.458487,1.799358,-0.137449,0.969204,-0.245753,0.015515,0.002697
594,-0.292070,-4.224650,8.668906,28.940357,-7.923032,-0.752711,-27.208754,1.473708,0.032454,0.971862,-0.235200,0.012433,0.003300
595,-0.123100,-3.306231,8.866732,37.364990,-5.071079,-9.856381,-25.241142,1.127194,-0.008963,0.975791,-0.218482,0.009616,0.002073
596,-0.312011,-3.593358,8.898799,38.192043,-3.955627,-9.390974,-23.050158,0.858491,-0.220259,0.979811,-0.199777,0.007725,-0.000386
597,-0.161369,-3.502332,9.074601,41.291195,-3.099582,-9.957093,-21.242643,0.705033,-0.463120,0.982845,-0.184288,0.006792,-0.002838
598,-0.561001,-3.087688,9.030955,44.092793,-1.736931,-9.983034,-19.419733,0.771419,-0.736415,0.985639,-0.168609,0.007719,-0.005199
599,-0.155029,-2.705024,8.546623,42.580601,-1.067050,-9.590871,-17.584604,0.893031,-1.015640,0.988191,-0.152774,0.009056,-0.007567
600,-0.704753,-3.078847,8.110580,37.369564,-2.007020,-4.532429,-16.380859,1.147121,-1.221838,0.989709,-0.142343,0.011427,-0.009127
601,-0.516830,-3.224545,8.097822,35.718517,-2.815761,-3.693170,-15.963153,1.594252,-1.338760,0.990172,-0.138671,0.015398,-0.009637
602,-0.883501,-2.869787,8.020812,30.617350,-3.056857,-5.008518,-15.706643,2.077079,-1.468517,0.990409,-0.136374,0.019704,-0.010216
603,-0.729496,-2.918561,8.217367,26.668255,-5.626515,-0.522297,-15.460506,2.572491,-1.537992,0.990614,-0.134165,0.024046,-0.010277
604,-1.007044,-3.110305,8.336173,21.873798,-5.638723,-0.659630,-15.475323,3.005156,-1.539772,0.990512,-0.134230,0.027789,-0.009780
605,-0.395093,-2.842319,9.116782,15.600718,-6.410841,-3.171303,-15.489665,3.099924,-1.578143,0.990472,-0.134330,0.028655,-0.009996
606,-0.545032,-2.526994,9.489173,13.826066,-5.484604,-2.438859,-15.119549,2.831812,-1.622270,0.990952,-0.131160,0.026354,-0.010779
607,-0.307970,-2.700134,9.444954,11.174007,-5.867611,-2.621970,-14.728610,2.537452,-1.656649,0.991446,-0.127815,0.023809,-0.011496
608,-0.069137,-2.795428,9.529161,7.646068,-4.770471,-4.935272,-14.648333,2.036558,-1.744641,0.991604,-0.127180,0.019565,-0.012832
609,0.191173,-2.492757,9.595720,7.049431,-4.146368,-3.264385,-14.547421,1.265463,-1.846295,0.991786,-0.126409,0.012992,-0.014583
610,-0.066251,-2.329388,9.426664,8.627238,-2.992768,-0.822904,-14.192448,0.631652,-1.883212,0.992202,-0.123428,0.007499,-0.015626
611,-0.021423,-2.511867,9.286313,5.862261,-2.873746,-0.314771,-13.985391,0.359980,-1.879005,0.992430,-0.121675,0.005114,-0.015892
612,0.125392,-2.295165,9.335107,4.553017,-2.121464,2.398325,-13.907950,0.086169,-1.826518,0.992519,-0.121045,0.002676,-0.015730
613,-0.178560,-2.075826,9.682755,2.404515,-1.503464,4.862694,-13.544362,0.036133,-1.694521,0.992915,-0.117904,0.002057,-0.014647
614,-0.181671,-2.044838,9.915677,1.858233,-1.720146,6.234501,-13.069475,0.237712,-1.500568,0.993419,-0.113769,0.003551,-0.012773
615,-0.132265,-2.385338,10.222841,2.560159,-2.213020,7.882501,-12.823328,0.364999,-1.255427,0.993684,-0.111629,0.004389,-0.010531
616,-0.142787,-1.907570,10.559545,6.721358,-3.922056,6.904383,-12.430909,0.401980,-0.990631,0.994082,-0.108233,0.004423,-0.008214
617,-0.076886,-2.165003,10.393963,9.849504,-5.055819,6.547316,-11.848750,0.340942,-0.737440,0.994636,-0.103194,0.003624,-0.006094
618,0.051410,-2.291533,10.237403,10.787949,-4.744530,4.543776,-11.513630,0.161476,-0.523320,0.994946,-0.100299,0.001860,-0.004402
619,0.075676,-2.248236,9.882983,8.967520,-4.489701,3.471050,-11.378435,-0.076313,-0.362922,0.995069,-0.099134,-0.000349,-0.003218
620,0.191694,-2.000041,9.148360,4.484351,-3.554308,0.382577,-11.366044,-0.353055,-0.273812,0.995077,-0.099031,-0.002829,-0.002683
621,0.370775,-2.209457,8.796616,-6.641170,-1.053316,-2.260325,-11.747273,-0.723682,-0.286400,0.994725,-0.102348,-0.006026,-0.003132
622,-0.025773,-1.735725,8.840855,-13.426961,0.945646,-5.443406,-12.276093,-0.855221,-0.408600,0.994230,-0.106947,-0.007039,-0.004343
623,0.094013,-1.738745,8.542984,-16.634455,0.558061,-6.148384,-12.642210,-0.766740,-0.605057,0.993881,-0.110132,-0.006069,-0.005985
624,0.168345,-1.984500,8.934610,-18.061195,1.887142,-8.718041,-13.133447,-0.786970,-0.857177,0.993382,-0.114405,-0.005967,-0.008216
625,-0.099068,-1.946448,9.338173,-16.252975,2.285408,-8.640219,-13.562872,-0.683481,-1.156863,0.992929,-0.118134,-0.004730,-0.010729
626,-0.194765,-2.080467,9.543893,-13.329301,2.372386,-6.903717,-13.807605,-0.368531,-1.431349,0.992662,-0.120233,-0.001691,-0.012786
627,-0.076740,-2.608050,9.719825,-12.531241,2.190801,-4.587362,-14.232929,-0.094526,-1.637805,0.992193,-0.123886,0.000952,-0.014284
628,0.026036,-2.551963,9.788317,-13.669583,2.331186,-3.101110,-14.818705,0.016548,-1.781305,0.991531,-0.128940,0.002148,-0.015396
629,-0.164837,-2.549684,9.651814,-15.514427,1.897823,0.179629,-15.338771,0.154075,-1.847071,0.990928,-0.133418,0.003483,-0.015794
630,0.121808,-2.753384,9.206328,-18.569330,0.580950,2.479199,-16.027763,0.210303,-1.816493,0.990112,-0.139366,0.004027,-0.015441
631,0.336293,-2.887599,8.776001,-23.116589,0.863246,1.192844,-17.050064,-0.046890,-1.762698,0.988833,-0.148230,0.001876,-0.015273
632,0.403891,-2.961700,8.373477,-27.039742,1.516342,1.391214,-18.318138,-0.450459,-1.725838,0.987121,-0.159215,-0.001483,-0.015494
633,0.310827,-3.245767,7.552794,-29.455282,1.107394,0.176577,-19.949057,-0.800768,-1.700590,0.984734,-0.173289,-0.004311,-0.015825
634,0.505667,-3.408811,6.894428,-34.467945,1.478194,-2.858488,-22.068943,-1.214496,-1.732263,0.981314,-0.191524,-0.007508,-0.016864
635,0.828928,-3.455055,7.225396,-40.036049,3.654164,-7.910827,-24.224089,-1.922336,-1.892800,0.977410,-0.210037,-0.012934,-0.019666
636,0.333542,-3.567631,7.462736,-43.895115,4.348460,-8.010012,-26.061613,-2.388179,-2.156651,0.973777,-0.225768,-0.016057,-0.023029
637,0.250871,-3.983448,8.134007,-45.175365,3.155186,-9.702263,-27.660315,-2.370443,-2.468759,0.970469,-0.239371,-0.014932,-0.025857
638,-0.045246,-3.645141,9.630388,-43.562462,5.198400,-11.479967,-28.478800,-2.094394,-2.876512,0.968696,-0.246300,-0.011536,-0.028818
639,-0.156630,-3.965279,10.670737,-39.080822,4.884060,-10.193611,-28.438694,-1.605429,-3.330640,0.968758,-0.245902,-0.006437,-0.031608
640,-0.527308,-4.614929,10.481278,-25.077402,5.616504,-8.339613,-28.306583,-0.932844,-3.724210,0.969036,-0.244636,0.000056,-0.033496
641,-0.276207,-4.485113,9.943632,-13.733672,5.270119,-9.253641,-28.135618,-0.291783,-4.085262,0.969367,-0.243003,0.006195,-0.035193
642,-0.282177,-4.280620,9.437539,-11.623317,6.358104,-10.556782,-27.830116,0.121307,-4.473454,0.969923,-0.240260,0.010412,-0.037629
643,-0.082143,-5.107660,8.505589,-10.858827,4.526993,-10.103581,-28.151808,0.326477,-4.864641,0.969126,-0.242870,0.013082,-0.040473
644,0.077368,-4.915713,7.120812,-6.960089,4.354563,-11.173256,-29.350914,0.239199,-5.251276,0.966383,-0.252985,0.013623,-0.043787
645,0.425838,-4.610811,6.370633,-16.059183,2.894252,-11.479967,-30.950373,-0.237421,-5.637779,0.962551,-0.266596,0.011128,-0.047948
646,0.206314,-4.966235,6.372178,-24.808840,3.330667,-11.113745,-32.891304,-0.776125,-5.997479,0.957653,-0.283051,0.008323,-0.052087
647,0.285336,-5.329988,5.789060,-27.172497,1.578905,-8.998812,-35.313206,-1.133715,-6.294681,0.951243,-0.303357,0.007239,-0.055311
648,0.327508,-5.250941,5.489348,-32.604790,2.561601,-10.027286,-37.995647,-1.516076,-6.550964,0.943658,-0.325687,0.006109,-0.058320
649,0.044251,-5.231428,6.117886,-43.736416,1.075349,-9.690056,-40.282299,-1.688423,-6.816139,0.936783,-0.344510,0.006659,-0.060870
650,-0.440319,-5.800406,6.974543,-52.031349,0.033142,-8.060369,-42.059536,-1.337949,-7.056958,0.931303,-0.358819,0.011207,-0.061623
651,0.071617,-6.180463,7.385871,-54.715450,-2.683005,-6.589376,-43.584877,-1.033114,-7.229192,0.926439,-0.371019,0.015050,-0.061877
652,-0.084528,-6.238379,7.926879,-55.756134,-1.840694,-7.228738,-44.719299,-1.021508,-7.362368,0.922652,-0.380148,0.016197,-0.062759
653,0.194863,-6.669729,8.312176,-54.712399,-2.043642,-5.765377,-45.495251,-1.082256,-7.491847,0.919967,-0.386398,0.016570,-0.063892
654,0.278404,-7.357110,8.244921,-49.380817,0.674031,-6.192635,-46.316811,-1.278576,-7.630911,0.917034,-0.393061,0.015932,-0.065555
655,0.291717,-7.373471,7.876825,-41.661160,1.546861,-5.899658,-47.178238,-1.459699,-7.808322,0.913891,-0.400009,0.015598,-0.067479
656,0.141263,-7.370790,7.601873,-33.807220,3.118564,-4.419509,-47.844013,-1.494608,-7.995716,0.911428,-0.405303,0.016375,-0.069001
657,0.335087,-7.314181,7.358108,-27.479206,2.071779,-0.919037,-48.292755,-1.471542,-8.134770,0.909757,-0.408836,0.017325,-0.069958
658,0.361080,-7.305315,7.103094,-22.550468,1.974120,2.122132,-48.609905,-1.497891,-8.184928,0.908582,-0.411359,0.017489,-0.070402
659,0.106221,-7.512311,7.158119,-17.577477,1.079927,5.709583,-48.837952,-1.333422,-8.148257,0.907843,-0.413086,0.018801,-0.069486
660,0.447625,-7.630146,7.182663,-11.519554,0.440565,7.237034,-48.919437,-1.173344,-8.035576,0.907671,-0.413667,0.019712,-0.068004
661,0.334429,-7.657073,7.135484,-6.883793,0.135380,7.919122,-48.854038,-1.142785,-7.884861,0.908006,-0.413159,0.019372,-0.066711
662,0.619413,-7.690863,7.251716,-4.282090,1.841364,5.405924,-48.661415,-1.223011,-7.771426,0.908738,-0.411691,0.018216,-0.066131
663,0.344815,-7.896401,7.336626,-0.412344,1.826105,4.537672,-48.392101,-1.322848,-7.715827,0.909702,-0.409613,0.017069,-0.066088
664,0.648401,-7.591076,7.144401,2.798203,0.921231,3.432902,-48.052734,-1.460071,-7.669373,0.910892,-0.406991,0.015616,-0.066255
665,0.495869,-7.525918,7.210529,3.049981,0.777794,3.100251,-47.630608,-1.688501,-7.627426,0.912331,-0.403748,0.013404,-0.066779
666,0.549097,-7.642982,7.251172,3.515388,1.267616,2.631792,-47.245983,-1.834983,-7.597217,0.913647,-0.400757,0.011905,-0.067093
667,0.123194,-7.826077,7.161569,5.654735,1.409527,2.967495,-47.016289,-1.747993,-7.569436,0.914495,-0.398887,0.012369,-0.066593
668,0.179022,-7.536556,7.051888,6.751876,1.902401,3.847954,-46.827347,-1.446955,-7.531141,0.915276,-0.397238,0.014533,-0.065268
669,0.349660,-7.602405,7.122619,6.919728,2.289986,4.092102,-46.593464,-1.276582,-7.491105,0.916162,-0.395292,0.015624,-0.064392
670,0.533713,-7.420009,7.021178,9.397831,2.911038,4.243168,-46.324818,-1.321415,-7.458726,0.917091,-0.393169,0.015003,-0.064323
671,0.427430,-7.324963,6.871172,10.363742,2.550919,4.739095,-46.042694,-1.415641,-7.420975,0.918047,-0.390960,0.013961,-0.064377
672,0.700324,-7.209829,6.879108,9.725904,1.339334,5.697375,-45.794907,-1.675582,-7.345997,0.918848,-0.389105,0.011481,-0.064685
673,0.526884,-7.164121,6.865973,10.153164,-0.188117,5.212131,-45.557667,-2.027967,-7.232339,0.919594,-0.387373,0.008132,-0.064982
674,0.258032,-7.109410,7.005330,10.946647,-1.053317,5.039702,-45.246506,-2.022901,-7.097721,0.920720,-0.384881,0.007545,-0.063905
675,-0.195130,-7.093436,6.915129,10.784896,-2.876797,4.542250,-44.932564,-1.494005,-6.935653,0.922033,-0.382136,0.011087,-0.060865
676,-0.010982,-7.164268,7.019013,9.265075,-4.736901,3.577865,-44.744301,-0.900262,-6.743393,0.922926,-0.380378,0.015133,-0.057370
677,-0.192961,-7.085882,6.992031,9.483283,-5.510545,2.346443,-44.595863,-0.506445,-6.548419,0.923608,-0.379033,0.017588,-0.054517
678,-0.429380,-7.251419,7.151890,8.824083,-5.751641,1.949703,-44.446251,-0.065138,-6.362518,0.924279,-0.377661,0.020464,-0.051587
679,0.084701,-7.770226,7.063615,8.132839,-6.006469,1.006681,-44.545956,0.066056,-6.188529,0.924051,-0.378438,0.020992,-0.049733
680,0.270044,-7.744792,8.282787,-4.343128,-7.118870,-0.557393,-44.653107,-0.255554,-6.029149,0.923707,-0.379467,0.017918,-0.049493
681,0.124729,-7.672954,9.637563,-20.975716,-10.184454,-3.516161,-44.365417,-0.673591,-5.878349,0.924637,-0.377337,0.013923,-0.049696
682,0.132404,-8.403515,10.389292,-30.236555,-11.177831,-4.706383,-44.142494,-1.045221,-5.737058,0.925346,-0.375696,0.010362,-0.049798
683,0.464335,-8.640099,10.789548,-29.998514,-8.872157,-5.180947,-44.133129,-1.472813,-5.637462,0.925313,-0.375784,0.006577,-0.050393
684,-0.056029,-8.610560,10.844386,-26.565178,-5.396100,-3.923584,-44.034847,-1.672898,-5.603950,0.925595,-0.375062,0.004807,-0.050780
686,-0.127047,-8.514701,9.497224,-3.343647,-0.227791,0.490918,-43.799614,-1.410784,-5.598886,0.926436,-0.373069,0.006806,-0.049899
687,0.114210,-8.794976,7.538307,16.935904,5.495956,7.487286,-43.895840,-0.966489,-5.556286,0.926248,-0.373690,0.010302,-0.048103
688,0.069337,-8.267929,6.405108,25.688610,9.370279,12.626602,-44.489532,-0.422262,-5.464158,0.924450,-0.378294,0.014638,-0.045511
689,-0.288753,-7.429737,5.845357,31.969320,10.058473,16.055355,-44.991230,0.401653,-5.336106,0.922964,-0.382045,0.021045,-0.041668
690,-0.322297,-6.923843,5.411809,25.783218,8.311288,21.364052,-45.362720,1.422356,-5.114978,0.921887,-0.384681,0.028646,-0.036386
691,-0.334884,-7.044309,5.174593,9.631298,10.264472,21.896599,-46.196209,2.387873,-4.860859,0.919154,-0.391056,0.035782,-0.030831
692,-0.818465,-5.828067,6.119289,5.508247,11.778191,24.461679,-46.466915,3.569081,-4.605855,0.918211,-0.392819,0.044436,-0.024632
693,-1.006590,-6.715270,5.572551,4.305818,10.182073,24.864523,-46.396938,4.993489,-4.311679,0.918269,-0.391759,0.054816,-0.017395
694,-0.695509,-6.790394,4.717381,28.516150,-2.794398,0.100280,-47.015095,5.651971,-4.214212,0.915996,-0.396453,0.059828,-0.014023
695,0.156197,-5.747027,5.972057,25.531441,-19.574999,-5.063450,-46.625576,4.695724,-4.045171,0.917588,-0.393844,0.051554,-0.016182
696,-0.221237,-6.747250,6.675975,11.872881,-17.432600,-9.542041,-45.567631,3.148549,-3.746046,0.921480,-0.386074,0.037968,-0.019490
697,0.071365,-7.336855,5.810584,20.088465,-19.123325,-16.645226,-45.473015,1.761530,-3.643029,0.921906,-0.385802,0.026454,-0.023375
698,0.116040,-5.175580,6.677225,29.271484,-19.076021,-20.081610,-44.497948,0.307520,-3.636936,0.925110,-0.378361,0.014498,-0.028355
699,-0.039833,-5.242815,7.165600,2.865344,-8.585283,5.874382,-42.468468,-0.431829,-3.482972,0.931629,-0.362118,0.007496,-0.029691
700,-0.474751,-5.985079,5.822466,19.476568,6.596147,3.645006,-41.630497,-0.007539,-3.338709,0.934334,-0.355207,0.010291,-0.027254
701,-0.070679,-4.107531,5.625265,53.756481,-2.541094,7.974056,-40.205204,0.570435,-3.227723,0.938743,-0.343430,0.014353,-0.024737
702,-0.139904,-4.152241,6.220479,46.116173,-2.753197,6.522902,-37.418873,0.755361,-2.968684,0.946874,-0.320493,0.014550,-0.022421
703,0.094926,-4.695444,7.082899,48.885727,-4.446975,6.294013,-34.864479,0.700326,-2.714029,0.953830,-0.299350,0.012924,-0.020764
704,-0.065942,-4.454552,7.932696,51.214291,-4.149420,-0.647422,-32.313549,0.476144,-2.552351,0.960283,-0.278106,0.010187,-0.020236
705,-0.265076,-4.640956,8.761827,43.032276,-4.691123,-0.326978,-29.812050,0.412661,-2.480839,0.966136,-0.257097,0.009048,-0.019993
706,-0.419237,-4.944735,9.118836,42.827801,-2.068057,-4.808620,-27.843843,0.549774,-2.489357,0.970409,-0.240439,0.009882,-0.019930
707,-0.419553,-4.212194,9.496705,67.967430,-3.380353,-3.638236,-25.505606,0.747793,-2.557708,0.975100,-0.220543,0.011290,-0.020327
708,-0.594031,-4.027802,8.837697,68.596107,-2.208442,-4.895597,-22.770914,1.027480,-2.626970,0.980065,-0.197147,0.013313,-0.020701
709,-0.165902,-3.714024,8.936074,69.285828,-4.504960,-3.493273,-20.362640,1.124488,-2.698198,0.983974,-0.176479,0.013817,-0.021438
710,-0.463601,-2.667311,9.218040,72.195763,-3.479538,-4.938324,-17.593302,1.102670,-2.773236,0.987938,-0.152646,0.013207,-0.022442
711,-0.364581,-2.560352,9.400341,60.888660,-4.681967,-5.608206,-14.763525,1.173636,-2.880504,0.991380,-0.128177,0.013383,-0.023609
712,-0.246253,-2.670697,9.373945,42.623329,-5.057345,-6.865568,-12.928315,1.088753,-3.033783,0.993278,-0.112287,0.012417,-0.025233
713,-0.124686,-2.539312,9.846647,32.959648,-5.269449,-6.604635,-11.922237,0.861295,-3.219295,0.994194,-0.103600,0.010390,-0.027157
714,-0.244724,-2.306889,9.487963,29.352358,-4.179938,-6.523761,-11.193190,0.680821,-3.407345,0.994793,-0.097303,0.008810,-0.029009
715,-0.124742,-2.696074,9.069651,17.598154,-2.954620,-6.676354,-11.078229,0.582781,-3.608201,0.994840,-0.096317,0.008098,-0.030844
716,-0.102408,-2.701356,8.679762,-1.991676,-3.320842,-9.284160,-11.903122,0.440212,-3.859754,0.994052,-0.103499,0.007310,-0.033096
717,-0.197095,-2.613252,9.264323,-16.167521,-2.835597,-9.900635,-13.149149,0.345218,-4.158987,0.992778,-0.114312,0.007145,-0.035703
718,-0.064211,-2.887416,9.356424,-25.014837,-4.338634,-15.009432,-14.572551,0.201296,-4.540394,0.991154,-0.126658,0.006765,-0.039069
719,-0.102748,-2.916541,9.577518,-26.969549,-3.748101,-15.133031,-16.035587,-0.021967,-4.993476,0.989284,-0.139356,0.005886,-0.043163
720,0.229304,-2.767584,9.871436,-17.881138,-5.992738,-11.385359,-16.968170,-0.384684,-5.371970,0.987942,-0.147527,0.003597,-0.046844
721,0.302849,-2.804704,9.938531,-2.423513,-4.540056,-6.163642,-17.155321,-0.877379,-5.599887,0.987549,-0.149337,-0.000276,-0.049442
722,0.530685,-2.930684,9.044373,5.639477,-5.194678,-1.851377,-17.061499,-1.410091,-5.680024,0.987557,-0.148750,-0.004805,-0.050818
723,0.423245,-2.485227,8.709520,12.083460,-2.911894,5.656176,-16.737143,-1.856764,-5.582655,0.987934,-0.146129,-0.008924,-0.050529
724,0.698262,-2.637165,8.681365,6.063684,-3.879330,6.496961,-16.351057,-2.264591,-5.360935,0.988430,-0.142938,-0.012890,-0.049089
725,0.554975,-2.631549,8.593075,-2.339588,-2.663168,3.013273,-16.375204,-2.681707,-5.175891,0.988376,-0.143276,-0.016709,-0.048009
726,0.788032,-2.271157,8.971467,-7.613186,-2.896634,1.853569,-16.406815,-3.071547,-5.078292,0.988271,-0.143672,-0.020182,-0.047653
727,0.690108,-2.340372,9.569230,-12.467154,-0.549761,-1.372237,-16.290611,-3.417486,-5.077744,0.988313,-0.142790,-0.023216,-0.048051
728,0.911458,-2.596035,9.719530,-14.037331,-0.650472,-5.046665,-16.351910,-3.719787,-5.195862,0.988089,-0.143449,-0.025650,-0.049453
729,0.933382,-2.830084,9.725534,-13.495628,2.000060,-8.650901,-16.658607,-4.073007,-5.428704,0.987474,-0.146273,-0.028266,-0.051970
730,0.833477,-2.861149,9.615222,-11.360858,3.205542,-9.442857,-17.030115,-4.285615,-5.742972,0.986767,-0.149632,-0.029519,-0.055038
731,0.590814,-3.180502,9.341759,-13.109569,3.992918,-11.421982,-17.568695,-4.257376,-6.099370,0.985888,-0.154347,-0.028537,-0.058206
732,0.649882,-3.261509,9.075504,-14.719419,4.693319,-12.751061,-18.373594,-4.126153,-6.501913,0.984620,-0.161309,-0.026433,-0.061684
733,0.465760,-3.333272,8.899892,-16.436087,6.609881,-15.923462,-19.265089,-3.940719,-6.988360,0.983136,-0.168985,-0.023643,-0.065795
734,0.403524,-3.098932,8.896047,-17.710232,8.209050,-17.083166,-19.991274,-3.629443,-7.579756,0.981811,-0.175168,-0.019652,-0.070546
735,0.652755,-3.305329,8.923584,-20.609489,9.393169,-18.473284,-20.614828,-3.447490,-8.238966,0.980489,-0.180513,-0.016671,-0.076014
736,0.729049,-3.306275,8.946300,-20.118141,10.302620,-22.500198,-21.247458,-3.499216,-8.994872,0.978935,-0.186058,-0.015466,-0.082646
737,0.650138,-3.379824,8.979985,-20.955877,10.040161,-24.676168,-21.789383,-3.593761,-9.856386,0.977356,-0.190858,-0.014448,-0.090222
738,0.676901,-3.660722,9.132357,-23.957371,8.398265,-24.206186,-22.429459,-3.683020,-10.730965,0.975519,-0.196482,-0.013206,-0.097898
739,0.520004,-3.818592,9.221581,-25.141489,6.121584,-24.143621,-23.204496,-3.739304,-11.568410,0.973400,-0.203207,-0.011538,-0.105198
740,0.261893,-3.858438,9.340023,-24.828674,4.298104,-21.854733,-23.922583,-3.609791,-12.348697,0.971428,-0.209260,-0.008354,-0.111657
741,0.202897,-3.959408,9.494034,-24.883610,2.761497,-17.505846,-24.520266,-3.328037,-13.013064,0.969791,-0.214109,-0.004141,-0.116812
742,0.175387,-4.142013,9.485645,-22.361254,2.111453,-14.791224,-25.070572,-3.027096,-13.553684,0.968328,-0.218492,-0.000001,-0.120842
743,0.238089,-4.043162,9.351470,-17.842989,2.604327,-13.942810,-25.470949,-2.781666,-14.037764,0.967149,-0.221627,0.003433,-0.124466
744,0.137691,-4.221609,9.202690,-14.667539,3.892208,-12.302442,-25.755970,-2.527127,-14.493508,0.966205,-0.223753,0.006782,-0.127815
745,0.451126,-4.443711,9.019103,-11.022101,4.548356,-13.616262,-26.131495,-2.405999,-14.947202,0.965006,-0.226759,0.009121,-0.131380
746,0.349208,-4.555569,8.860259,-7.056223,5.845392,-15.238318,-26.556479,-2.430842,-15.449732,0.963562,-0.230319,0.010409,-0.135621
747,0.475599,-4.469215,8.864159,-2.612729,5.839289,-15.647269,-26.814182,-2.479824,-15.992761,0.962366,-0.232488,0.011403,-0.140256
748,0.373395,-4.420719,8.939916,0.208707,5.695851,-13.919921,-26.802748,-2.527895,-16.521008,0.961709,-0.232394,0.012056,-0.144787
749,0.492816,-4.545031,9.011902,2.697492,4.388134,-10.793300,-26.684011,-2.556505,-16.967098,0.961365,-0.231384,0.012567,-0.148600
750,0.396013,-4.455171,9.079707,4.871936,3.648060,-6.438309,-26.488522,-2.560865,-17.286655,0.961338,-0.229713,0.012917,-0.151311
751,0.443132,-4.405512,8.909695,7.354617,2.480727,-1.990237,-26.203672,-2.501028,-17.461208,0.961703,-0.227229,0.013390,-0.152692
752,0.432384,-4.503189,8.731986,6.097254,1.549912,2.132814,-26.057030,-2.440369,-17.485247,0.961990,-0.225919,0.013752,-0.152795
753,0.529329,-4.760150,8.514910,3.495551,0.504653,5.784354,-26.395838,-2.436721,-17.360565,0.961485,-0.228774,0.013986,-0.151700
754,0.673923,-4.839489,8.456383,-0.046122,-1.566028,7.615463,-27.163389,-2.625631,-17.116095,0.960160,-0.235470,0.012914,-0.149932
755,0.582414,-4.910836,8.625278,-5.441794,-3.159094,7.191257,-27.923162,-2.840338,-16.828003,0.958842,-0.242120,0.011500,-0.147874
756,0.922436,-5.056399,8.801696,-8.620296,-4.836086,6.939479,-28.587685,-3.135557,-16.534569,0.957642,-0.248050,0.009251,-0.145972
757,0.791081,-4.940824,8.913881,-10.149273,-5.174841,6.506115,-29.138147,-3.516065,-16.242462,0.956598,-0.253102,0.006124,-0.144301
758,0.728246,-4.787115,8.948534,-11.078561,-5.716545,6.339790,-29.454899,-3.747051,-15.968295,0.956105,-0.256014,0.003979,-0.142495
759,0.687737,-4.518404,8.771480,-10.687923,-5.322856,2.387643,-29.532875,-3.913731,-15.769486,0.956079,-0.256852,0.002237,-0.141194
760,0.731318,-4.427189,8.342105,-10.381214,-5.107701,-1.112830,-29.537289,-4.125728,-15.688669,0.956042,-0.257118,0.000288,-0.140978
761,0.301729,-4.505605,7.982868,-13.459004,-5.121434,-2.982088,-29.779570,-4.146013,-15.674580,0.955501,-0.259161,0.000385,-0.140904
762,0.606909,-4.745846,7.790739,-17.481346,-6.603107,-5.481554,-30.431377,-4.144044,-15.690671,0.953993,-0.264589,0.001240,-0.141029
763,0.782140,-4.843591,7.779927,-20.719357,-7.863521,-7.919982,-31.348022,-4.502548,-15.738841,0.951558,-0.272591,-0.000504,-0.142235
764,0.871798,-5.218291,7.927030,-24.973639,-8.035951,-5.161109,-32.432148,-4.981304,-15.757430,0.948589,-0.282083,-0.003090,-0.143520
765,1.001902,-5.560984,8.012855,-27.141979,-8.830957,-0.763393,-33.713486,-5.423628,-15.649382,0.945193,-0.293123,-0.005424,-0.143739
766,1.274708,-5.773787,8.092409,-28.303207,-8.727195,2.022947,-35.041603,-5.912696,-15.426067,0.941639,-0.304532,-0.008387,-0.143201
767,1.103717,-5.932545,7.905790,-28.120098,-8.891994,6.892174,-36.354015,-6.283854,-15.092602,0.938207,-0.315626,-0.010717,-0.141536
768,1.045848,-6.181030,7.726855,-27.039742,-8.859950,12.794454,-37.710491,-6.342138,-14.606200,0.934951,-0.326720,-0.010905,-0.137845
769,0.949312,-6.175692,7.502283,-24.024511,-9.979980,18.277103,-39.007092,-6.172199,-13.960891,0.932092,-0.337077,-0.009855,-0.132232
770,0.887079,-6.212416,7.361336,-21.499107,-10.622395,22.624464,-40.116093,-5.846388,-13.185456,0.929912,-0.345761,-0.008262,-0.125082
771,0.948397,-6.311570,7.140835,-17.788055,-11.606616,26.378241,-41.091450,-5.495955,-12.297705,0.928133,-0.353343,-0.007087,-0.116912
772,0.934904,-6.463569,7.042495,-14.267745,-11.209875,27.383829,-41.975384,-5.179962,-11.345346,0.926536,-0.360220,-0.006617,-0.108299
773,0.878340,-6.678390,6.796627,-9.873080,-10.602557,28.015560,-42.831417,-4.842773,-10.380298,0.924915,-0.366868,-0.006169,-0.099503
774,0.923976,-6.916095,6.577489,-5.891942,-9.239906,26.398079,-43.740353,-4.534809,-9.440021,0.922946,-0.373972,-0.005963,-0.090992
775,0.663593,-6.928138,6.582192,-2.095439,-8.623432,23.939816,-44.528175,-4.176291,-8.578809,0.921210,-0.380086,-0.005307,-0.082939
776,0.445152,-6.864796,7.007070,0.877064,-9.357402,22.015621,-44.844246,-3.650672,-7.803171,0.920962,-0.382354,-0.003436,-0.074988
777,0.643229,-6.868687,7.007780,4.128810,-10.991669,21.106169,-44.755573,-3.247400,-7.056123,0.921907,-0.381450,-0.002733,-0.067647
778,0.822018,-6.771797,7.213483,4.519447,-10.951994,16.323919,-44.466064,-3.220152,-6.365026,0.923270,-0.379086,-0.004971,-0.061984
779,0.713527,-6.704655,7.496226,2.889759,-9.867062,11.282262,-43.980839,-3.367985,-5.816011,0.925094,-0.375190,-0.008225,-0.058011
780,0.882632,-6.684037,7.418389,-0.166669,-7.567492,5.921686,-43.527996,-3.616562,-5.433659,0.926659,-0.371572,-0.011707,-0.055686
781,1.003990,-6.741075,7.062953,-5.772919,-3.928160,0.336799,-43.470284,-4.052912,-5.236711,0.926757,-0.371199,-0.015906,-0.055490
782,0.862198,-6.782023,7.239301,-12.357288,0.683187,-5.643302,-43.751862,-4.449903,-5.263860,0.925651,-0.373579,-0.018893,-0.057031
783,0.657909,-6.528929,7.344782,-16.390308,4.690267,-9.313153,-43.981861,-4.585892,-5.523305,0.924703,-0.375513,-0.019027,-0.059604
784,0.577675,-6.284520,7.332031,-18.296188,7.711600,-11.188515,-44.013374,-4.508348,-5.954859,0.924407,-0.375814,-0.016969,-0.062839
785,0.593421,-6.198981,7.541671,-18.027626,10.349924,-10.741419,-43.834454,-4.341403,-6.487245,0.924773,-0.374390,-0.013978,-0.066570
786,0.532173,-6.005428,7.696280,-16.059183,12.953153,-10.108159,-43.383797,-4.091701,-7.082414,0.926005,-0.370723,-0.010293,-0.070526
787,0.383819,-5.720980,7.568686,-12.895938,15.272558,-9.744989,-42.688427,-3.696123,-7.727663,0.928019,-0.364978,-0.005455,-0.074442
789,0.397490,-5.808720,7.955229,-11.337968,14.166264,-7.955079,-41.856133,-3.238603,-8.354524,0.930441,-0.358027,-0.000315,-0.078077
790,0.459423,-5.832640,8.332134,-7.208815,12.071168,-6.221628,-40.885136,-2.878634,-8.893611,0.933227,-0.349932,0.003606,-0.081374
791,0.299313,-5.666124,8.434763,-1.825350,9.406901,-3.967835,-39.722359,-2.545181,-9.320949,0.936565,-0.340233,0.006779,-0.083920
792,0.359646,-5.411729,8.619994,4.559121,5.068696,-0.690149,-38.303455,-2.248286,-9.593551,0.940625,-0.328409,0.008961,-0.085392
793,0.359813,-5.411309,9.170934,8.743209,0.359690,3.142976,-36.645321,-2.075141,-9.673141,0.945286,-0.314647,0.009372,-0.085698
794,0.519483,-5.394416,9.017620,13.638376,-1.784235,5.553938,-35.013584,-2.051686,-9.589019,0.949742,-0.301145,0.008125,-0.085065
795,0.777152,-5.453097,8.603084,15.951679,-1.625539,4.790976,-33.741276,-2.288418,-9.447368,0.953045,-0.290742,0.004850,-0.084566
796,0.609246,-5.504115,8.353005,14.161770,0.896816,-0.423111,-32.961212,-2.587056,-9.395977,0.954926,-0.284439,0.001655,-0.084901
797,0.628203,-5.693220,8.251845,11.608896,4.365244,-7.730768,-32.644264,-2.793072,-9.554389,0.955508,-0.281926,0.000090,-0.086727
798,0.937662,-5.739991,7.918957,13.136349,6.905911,-17.492113,-32.669346,-3.207704,-9.988615,0.954932,-0.282408,-0.002282,-0.091352
799,1.013006,-5.761953,7.714678,15.124628,9.876887,-29.444685,-32.836906,-3.910666,-10.761982,0.953535,-0.284310,-0.006094,-0.099503
800,0.926156,-5.866732,7.764681,15.617503,10.345346,-38.967987,-33.017330,-4.654281,-11.855452,0.951672,-0.286428,-0.009401,-0.110412
801,1.489580,-6.044394,7.814361,16.424717,9.097139,-46.271061,-33.194435,-5.671038,-13.163928,0.949235,-0.288846,-0.014394,-0.123752
802,1.704483,-5.936800,7.665694,17.987265,10.002012,-53.505474,-33.306171,-7.089184,-14.659414,0.946150,-0.291247,-0.022257,-0.139567
803,1.565390,-5.840654,7.614384,17.375368,14.163211,-57.497299,-33.291592,-8.377377,-16.351904,0.942847,-0.292738,-0.028640,-0.156600
804,1.696772,-5.722961,7.845929,16.183620,19.119415,-56.104130,-33.095062,-9.299659,-18.175982,0.939788,-0.292584,-0.031895,-0.173710
805,1.400898,-5.475292,8.127623,19.102716,26.559830,-51.984131,-32.531799,-9.671044,-20.078075,0.937794,-0.288931,-0.031030,-0.189995
806,1.343866,-5.118983,8.193841,25.169796,35.579575,-46.348885,-31.503887,-9.386993,-22.035686,0.937293,-0.280626,-0.025592,-0.205125
807,1.084933,-5.102724,8.485060,27.098566,43.731068,-40.138371,-30.238234,-8.532321,-23.982214,0.937673,-0.269349,-0.016209,-0.218992
808,1.017291,-5.022478,8.867445,28.996815,49.859184,-35.903931,-28.936234,-7.242694,-25.876926,0.938285,-0.256706,-0.003778,-0.231751
809,0.582535,-4.856897,8.869534,32.663616,53.348972,-34.909027,-27.613325,-5.652017,-27.741169,0.938822,-0.242884,0.010659,-0.243943
810,0.621296,-4.716271,8.716630,32.485081,54.305733,-34.953278,-26.427399,-4.020484,-29.580574,0.938642,-0.229592,0.025299,-0.256123
811,0.173909,-4.665622,8.846008,30.692120,53.580914,-35.662834,-25.474564,-2.443884,-31.403053,0.937508,-0.217834,0.039630,-0.268433
812,-0.058961,-4.358891,8.977959,32.630047,51.559063,-37.649586,-24.536512,-0.830067,-33.231750,0.935896,-0.205635,0.053978,-0.280891
813,-0.496248,-4.068113,8.948981,34.863998,47.455853,-39.746208,-23.441351,0.762364,-35.067268,0.934045,-0.191736,0.067409,-0.293689
814,-0.695308,-3.743417,8.874722,36.249538,43.282440,-42.828575,-22.243778,2.285369,-36.907394,0.931797,-0.176748,0.079609,-0.306883
815,-0.714024,-3.699494,8.882835,35.398071,38.133972,-47.265965,-21.125000,3.490037,-38.793430,0.928683,-0.162882,0.089086,-0.321063
816,-0.576686,-3.583702,8.973866,33.316711,31.638107,-53.056850,-20.204378,4.163186,-40.770996,0.924448,-0.151854,0.094579,-0.336736
817,-0.569267,-3.450516,8.909101,31.885391,24.411325,-58.454052,-19.419537,4.333809,-42.850510,0.919233,-0.143276,0.096258,-0.353860
818,-0.550090,-3.117538,8.992542,30.603617,17.578232,-62.125431,-18.597462,4.173629,-44.989273,0.913421,-0.135440,0.094981,-0.371883
819,-0.543508,-2.942035,9.380030,29.395081,10.978605,-63.262241,-17.605980,3.786886,-47.119858,0.907371,-0.127153,0.091067,-0.390149
820,-0.550303,-2.768033,9.603394,29.462225,4.920681,-62.400101,-16.498667,3.272717,-49.187874,0.901210,-0.118650,0.085387,-0.407985
821,-0.390871,-2.596482,9.550335,30.335054,-0.154547,-59.567982,-15.340019,2.637875,-51.152222,0.895032,-0.110509,0.078180,-0.424963
822,-0.305866,-2.348150,9.564072,29.436283,-3.703850,-54.834557,-14.150215,1.915598,-52.969868,0.889030,-0.102830,0.069769,-0.440662
823,0.072503,-2.383533,9.494018,27.434269,-5.025301,-49.850883,-13.095402,1.064234,-54.628567,0.883155,-0.097078,0.060521,-0.454917
824,0.411040,-2.325572,9.315415,24.998892,-5.455611,-44.772606,-12.315383,-0.002190,-56.135956,0.877298,-0.094659,0.050454,-0.467806
825,0.530216,-1.977879,9.382320,23.466864,-4.733849,-40.617512,-11.541590,-1.088425,-57.502247,0.871775,-0.092695,0.040078,-0.479384
826,0.650847,-1.792902,9.662920,22.459751,-3.622975,-37.144505,-10.607426,-2.022351,-58.758430,0.866726,-0.089155,0.030028,-0.489833
827,0.866563,-1.755601,9.731939,23.273069,-2.632649,-35.400372,-9.663041,-2.869828,-59.943092,0.861871,-0.085405,0.020448,-0.499466
828,0.806198,-1.581655,9.723931,23.968893,-2.184027,-33.998047,-8.736211,-3.583127,-61.084846,0.857122,-0.081406,0.011838,-0.508503
829,0.819245,-1.467022,9.738000,22.017233,-1.425642,-32.876488,-7.841195,-4.082379,-62.189739,0.852509,-0.076864,0.004861,-0.517007
830,0.822602,-1.345070,9.743320,21.472479,-0.561969,-31.742729,-7.023325,-4.430001,-63.260155,0.847977,-0.072345,-0.000748,-0.525073
831,0.632920,-1.198969,9.650486,20.091518,-0.157598,-30.103886,-6.257743,-4.560404,-64.286179,0.843635,-0.067315,-0.004621,-0.532660
832,0.549014,-1.133231,9.694841,17.233456,0.579424,-26.459974,-5.606395,-4.459004,-65.222328,0.839677,-0.062105,-0.006393,-0.539485
833,0.622778,-1.136300,9.703538,13.673474,1.090609,-22.420849,-5.168512,-4.306333,-66.025482,0.836182,-0.058231,-0.006925,-0.545308
834,0.557373,-1.115138,9.730138,11.141964,1.601794,-19.004307,-4.932933,-4.148583,-66.700630,0.833148,-0.055805,-0.006564,-0.550189
835,0.598671,-1.120568,9.722705,8.149624,1.804742,-15.831906,-4.852586,-3.982914,-67.264198,0.830548,-0.054456,-0.005475,-0.554252
836,0.643956,-1.139519,9.718148,5.329713,2.265571,-13.193582,-4.920391,-3.875895,-67.730034,0.828304,-0.054450,-0.004148,-0.557612
837,0.687402,-1.127912,9.711318,2.143581,2.361705,-11.136634,-5.099916,-3.828226,-68.118973,0.826342,-0.055526,-0.002741,-0.560418
838,0.736128,-1.095165,9.785271,-0.523737,2.351023,-10.074589,-5.329040,-3.838038,-68.459999,0.824553,-0.057231,-0.001521,-0.562880
839,0.735577,-1.121379,9.799662,-3.375691,1.556016,-9.535937,-5.604457,-3.886435,-68.776421,0.822833,-0.059450,-0.000353,-0.565165
840,0.786234,-1.133859,9.807238,-9.366473,0.475661,-10.774989,-5.998547,-3.989617,-69.103065,0.820957,-0.062783,0.001027,-0.567527
841,0.783213,-1.189906,9.839728,-14.379139,-0.534502,-12.120855,-6.544148,-4.144417,-69.470161,0.818743,-0.067444,0.002834,-0.570178
842,0.722293,-1.288316,9.880667,-18.097818,-1.343243,-13.564380,-7.221416,-4.276513,-69.879898,0.816210,-0.072916,0.005518,-0.573109
843,0.725620,-1.366437,9.850422,-22.271223,-2.371716,-14.775966,-8.005758,-4.390885,-70.330353,0.813362,-0.079034,0.008934,-0.576295
844,0.856961,-1.396927,9.807206,-24.328171,-2.873746,-15.001802,-8.817666,-4.592098,-70.804337,0.810257,-0.085749,0.011939,-0.579644
845,0.830756,-1.488531,9.810679,-25.197948,-2.861538,-14.070989,-9.596428,-4.833912,-71.268646,0.807128,-0.092407,0.014535,-0.582919
846,0.895274,-1.565747,9.792630,-23.678129,-2.188605,-11.660027,-10.310023,-5.039586,-71.682770,0.804269,-0.098405,0.017065,-0.585813
847,0.992051,-1.697898,9.769268,-22.632868,-2.074161,-9.332991,-10.961844,-5.267701,-72.021721,0.801776,-0.104075,0.019095,-0.588183
848,1.003739,-1.788676,9.736794,-17.832306,-1.508042,-6.444413,-11.519119,-5.489791,-72.276352,0.799764,-0.109052,0.020634,-0.589965
849,0.897400,-1.874728,9.653365,-11.357806,-1.041109,-3.029392,-11.890124,-5.586631,-72.431969,0.798521,-0.112103,0.022016,-0.591027
850,0.952498,-1.816907,9.632540,-1.488121,0.347483,1.887140,-11.902020,-5.571682,-72.467804,0.798337,-0.112103,0.022218,-0.591267
851,1.160444,-1.747869,9.599759,10.711653,1.415631,7.085968,-11.413601,-5.659646,-72.361084,0.799283,-0.109164,0.018978,-0.590652
852,1.140665,-1.654039,9.607738,25.305603,1.942075,12.419077,-10.492582,-5.789234,-72.088486,0.801431,-0.103428,0.013073,-0.588931
853,1.063129,-1.528436,9.539520,37.982986,2.392223,17.877312,-9.202363,-5.772340,-71.632812,0.804894,-0.094338,0.006186,-0.585839
854,0.831863,-1.544340,10.001345,45.351681,3.373393,21.632614,-7.706553,-5.525353,-71.010498,0.809397,-0.082572,-0.000165,-0.581428
855,0.807697,-1.430446,10.028357,46.279446,2.163335,20.477489,-6.242548,-5.156995,-70.318573,0.814104,-0.070338,-0.005403,-0.576418
856,0.547085,-1.285468,10.070647,40.056721,0.718283,16.903770,-4.993365,-4.763713,-69.683113,0.818213,-0.059442,-0.009211,-0.571759
857,0.529672,-1.064779,10.055717,31.181940,0.269661,12.744100,-4.041152,-4.349153,-69.166893,0.821437,-0.050531,-0.011222,-0.567946
858,0.612773,-0.935598,10.162725,21.388552,-0.272042,7.691761,-3.403344,-4.076458,-68.805199,0.823605,-0.044572,-0.012565,-0.565269
859,0.888152,-0.589422,9.795405,14.170926,-1.257790,2.715718,-2.941407,-4.109579,-68.620277,0.824677,-0.041390,-0.015149,-0.563884
860,0.876251,-0.493113,9.820391,10.859667,-0.842739,1.035674,-2.524503,-4.367256,-68.557526,0.825034,-0.039644,-0.019079,-0.563368
861,0.900298,-0.444372,9.868673,9.434453,-0.409376,-0.439896,-2.185399,-4.615583,-68.548286,0.825100,-0.038419,-0.022539,-0.563229
862,0.890426,-0.368193,9.871811,8.813400,-0.076724,-1.698785,-1.878835,-4.796839,-68.584824,0.824952,-0.037108,-0.025340,-0.563414
863,0.874028,-0.295347,9.899180,8.306793,0.229987,-2.432755,-1.560222,-4.894066,-68.656921,0.824661,-0.035309,-0.027585,-0.563850
864,0.819037,-0.225258,9.937423,8.018394,0.359690,-2.463273,-1.227178,-4.894104,-68.743858,0.824332,-0.032934,-0.029199,-0.564393
865,0.780732,-0.170299,9.912379,7.882587,0.435987,-2.147407,-0.892570,-4.810386,-68.826332,0.824047,-0.030137,-0.030222,-0.564911
866,0.751168,-0.102050,9.900236,8.006186,0.323068,-1.247111,-0.554959,-4.690563,-68.888458,0.823865,-0.027136,-0.031010,-0.565287
867,0.758850,-0.078502,9.901404,7.598765,0.179631,-0.189644,-0.242634,-4.584842,-68.916138,0.823831,-0.024376,-0.031784,-0.565419
868,0.744798,-0.048531,9.881679,7.301209,-0.024843,0.692340,0.012738,-4.509388,-68.907982,0.823945,-0.022166,-0.032503,-0.565303
869,0.762673,-0.035542,9.876188,6.819017,-0.093509,1.160799,0.220254,-4.468318,-68.874763,0.824159,-0.020461,-0.033238,-0.565013
870,0.796484,-0.007624,9.881798,6.613017,-0.099613,1.517866,0.395307,-4.476117,-68.826408,0.824425,-0.019226,-0.034165,-0.564612
871,0.854553,0.007786,9.862692,6.031639,-0.035524,1.368325,0.544677,-4.536505,-68.773788,0.824693,-0.018433,-0.035344,-0.564174
872,0.853137,0.029307,9.882137,5.483832,-0.061465,0.956326,0.665591,-4.620452,-68.729790,0.824907,-0.017962,-0.036550,-0.563800
873,0.879198,0.041742,9.874748,5.079462,-0.032473,0.686237,0.764638,-4.703491,-68.696503,0.825064,-0.017647,-0.037640,-0.563508
874,0.862066,0.077648,9.863509,4.150173,-0.088932,0.713703,0.847480,-4.776998,-68.667633,0.825199,-0.017403,-0.038581,-0.563254
875,0.860937,0.025405,9.868430,3.295655,-0.143865,0.933436,0.852417,-4.834764,-68.630501,0.825367,-0.017639,-0.039026,-0.562970
876,0.786417,0.060147,9.830485,2.990470,-0.265939,1.588058,0.819095,-4.843897,-68.577179,0.825622,-0.017906,-0.038937,-0.562594
877,0.812263,0.057826,9.793483,2.076441,-0.320872,2.761495,0.790270,-4.817417,-68.495537,0.826025,-0.017956,-0.038617,-0.562023
878,0.704304,0.065927,9.816088,0.690900,-0.594013,4.339302,0.715694,-4.732199,-68.367729,0.826662,-0.018033,-0.037658,-0.561147
