seq,ax,ay,az,wroll,wpitch,wyaw,roll,pitch,yaw,q0,q1,q2,q3
6116,-0.153032,-0.664929,9.890185,-0.106283,-0.045034,-0.219256,-3.846276,0.884478,-0.059462,0.999407,-0.033554,0.007732,-0.000260
6117,-0.155090,-0.739439,9.867806,-3.082014,-0.178038,-0.131726,-3.899500,0.880374,-0.065048,0.999392,-0.034018,0.007697,-0.000306
6118,-0.152396,-0.760684,9.868025,-3.303340,-0.102313,-0.305874,-4.006029,0.875208,-0.072002,0.999360,-0.034946,0.007655,-0.000361
6119,-0.162695,-0.746090,9.852620,-1.957438,0.469068,-0.363193,-4.093886,0.880519,-0.083558,0.999332,-0.035712,0.007705,-0.000454
6120,-0.157967,-0.738801,9.867149,-0.757301,0.496616,-0.367836,-4.139338,0.895699,-0.096863,0.999317,-0.036107,0.007842,-0.000562
6121,-0.161272,-0.732356,9.882619,-0.031184,0.683727,-0.427185,-4.152711,0.914364,-0.111502,0.999312,-0.036222,0.008009,-0.000683
6122,-0.174093,-0.697985,9.856157,1.327375,0.830417,-0.240867,-4.131317,0.938730,-0.124430,0.999316,-0.036035,0.008226,-0.000790
6123,-0.175377,-0.682248,9.863448,2.145835,0.445744,0.236333,-4.073456,0.959941,-0.126025,0.999333,-0.035530,0.008411,-0.000801
6124,-0.161354,-0.665914,9.864267,2.927541,-0.744227,0.631197,-3.988654,0.955997,-0.111248,0.999359,-0.034791,0.008371,-0.000680
6125,-0.153291,-0.666179,9.887912,2.381295,-1.331359,0.723918,-3.899765,0.923042,-0.086326,0.999388,-0.034018,0.008076,-0.000479
6126,-0.144044,-0.664452,9.876387,1.739285,-1.644621,0.488360,-3.830721,0.874919,-0.062816,0.999412,-0.033418,0.007649,-0.000293
6127,-0.138688,-0.679416,9.885676,0.863930,-1.744661,0.151799,-3.787122,0.819264,-0.048412,0.999428,-0.033039,0.007159,-0.000186
6128,-0.134329,-0.675830,9.870443,0.714600,-1.800745,-0.339248,-3.760805,0.760097,-0.047636,0.999440,-0.032810,0.006643,-0.000198
6129,-0.130962,-0.672880,9.883753,0.491773,-1.244276,-1.052831,-3.740955,0.707936,-0.067469,0.999448,-0.032636,0.006194,-0.000387
6130,-0.120535,-0.680309,9.891431,-0.058740,-0.760585,-2.082293,-3.734343,0.671186,-0.117435,0.999452,-0.032576,0.005887,-0.000833
6131,-0.133479,-0.676567,9.913118,-0.571179,0.452640,-3.442332,-3.745910,0.660055,-0.208986,0.999448,-0.032672,0.005817,-0.001634
6132,-0.125266,-0.674534,9.915192,-1.280944,0.588816,-4.544141,-3.778340,0.668639,-0.342954,0.999436,-0.032948,0.005930,-0.002799
6133,-0.136505,-0.683833,9.931036,-2.957271,1.539294,-5.230195,-3.850937,0.693187,-0.507870,0.999408,-0.033572,0.006195,-0.004226
6134,-0.136687,-0.714092,9.931706,-4.213365,1.990733,-5.043548,-3.972644,0.740186,-0.682725,0.999362,-0.034621,0.006662,-0.005730
6135,-0.157508,-0.726469,9.915934,-4.744028,1.891092,-3.914984,-4.123995,0.794163,-0.836242,0.999304,-0.035929,0.007188,-0.007043
6136,-0.140230,-0.737363,9.891569,-4.620564,1.236911,-2.273729,-4.281595,0.838579,-0.942943,0.999244,-0.037293,0.007620,-0.007949
6137,-0.148352,-0.769144,9.895834,-3.458037,0.885823,-1.114423,-4.417120,0.869555,-1.001945,0.999193,-0.038468,0.007919,-0.008444
6138,-0.141797,-0.787497,9.882861,-2.395473,0.349467,-0.327667,-4.515071,0.888203,-1.027513,0.999156,-0.039319,0.008098,-0.008654
6139,-0.151173,-0.780034,9.860139,-0.557804,0.466483,0.212586,-4.564340,0.901604,-1.030503,0.999138,-0.039747,0.008219,-0.008672
6140,-0.149846,-0.777759,9.865821,0.883463,0.143181,0.402119,-4.558764,0.912546,-1.021096,0.999140,-0.039698,0.008311,-0.008587
6141,-0.167647,-0.785061,9.868889,1.876824,0.361084,0.928312,-4.512417,0.922676,-0.999652,0.999157,-0.039295,0.008389,-0.008399
6142,-0.160613,-0.770806,9.891397,3.074603,-0.365632,1.548435,-4.429228,0.925819,-0.958487,0.999188,-0.038573,0.008396,-0.008046
6143,-0.155600,-0.729492,9.894043,3.637001,-0.776759,2.345347,-4.316309,0.911783,-0.892315,0.999231,-0.037594,0.008244,-0.007481
6144,-0.157650,-0.717330,9.908317,4.126485,-1.186920,2.873699,-4.185520,0.885597,-0.803131,0.999281,-0.036461,0.007979,-0.006721
6145,-0.159435,-0.688821,9.878695,4.140276,-1.333973,2.847880,-4.046256,0.850537,-0.704988,0.999332,-0.035256,0.007635,-0.005886
6146,-0.157439,-0.678822,9.888709,3.741292,-0.914507,2.453919,-3.913575,0.819285,-0.614226,0.999378,-0.034106,0.007328,-0.005113
6147,-0.159053,-0.669695,9.883477,2.417385,-0.243439,2.105465,-3.809835,0.805146,-0.537104,0.999413,-0.033207,0.007178,-0.004451
6148,-0.153737,-0.675335,9.894673,0.703080,0.092950,1.451422,-3.756991,0.806560,-0.477784,0.999430,-0.032750,0.007171,-0.003936
6149,-0.147503,-0.660480,9.888245,0.182827,0.536468,0.723389,-3.741721,0.819403,-0.442299,0.999435,-0.032618,0.007273,-0.003624
6150,-0.156159,-0.662192,9.900263,-0.381309,1.762932,-0.079235,-3.744907,0.858346,-0.434088,0.999432,-0.032645,0.007610,-0.003541
6151,-0.126406,-0.714991,9.772470,-1.852031,0.488579,-0.298669,-3.782260,0.895377,-0.442838,0.999418,-0.032969,0.007937,-0.003604
6152,-0.096280,-0.735419,9.730648,-2.530204,-3.110952,0.563067,-3.855185,0.852061,-0.435537,0.999400,-0.033607,0.007559,-0.003548
6153,-0.088234,-0.721921,9.758719,-1.309969,-5.445671,1.651169,-3.918552,0.712275,-0.389063,0.999391,-0.034167,0.006328,-0.003181
6154,-0.081186,-0.682817,9.840577,1.612659,-6.228499,2.602448,-3.912597,0.522991,-0.305067,0.999404,-0.034125,0.004652,-0.002505
6155,-0.077441,-0.649640,9.899011,3.790264,-5.937802,3.472956,-3.821688,0.327493,-0.190403,0.999439,-0.033339,0.002912,-0.001565
6156,-0.097227,-0.541986,10.038665,4.268470,-4.595804,3.867583,-3.686794,0.160309,-0.056860,0.999481,-0.032167,0.001414,-0.000451
6157,-0.100033,-0.478439,10.080642,5.144907,-2.159263,2.877997,-3.529663,0.055022,0.062409,0.999525,-0.030798,0.000463,0.000559
6158,-0.099217,-0.474254,10.026902,4.987694,0.320398,1.457816,-3.360721,0.028752,0.136349,0.999569,-0.029324,0.000216,0.001197
6159,-0.083829,-0.505140,9.943866,5.778764,3.275036,0.859283,-3.181234,0.090763,0.171456,0.999613,-0.027759,0.000750,0.001518
6160,-0.041663,-0.507276,9.905473,3.763023,1.102464,0.712533,-3.022144,0.165020,0.193633,0.999650,-0.026372,0.001395,0.001727
6161,-0.005793,-0.534408,9.888112,1.185585,-0.778629,0.336649,-2.939620,0.171322,0.210829,0.999668,-0.025653,0.001447,0.001878
6162,0.009192,-0.548632,9.859737,0.253819,-0.940256,0.463114,-2.915592,0.143394,0.225615,0.999674,-0.025443,0.001201,0.002000
6163,0.026079,-0.521777,9.859379,1.478689,-1.736168,1.194185,-2.886654,0.100243,0.255461,0.999680,-0.025190,0.000818,0.002251
6164,0.020525,-0.516140,9.882161,1.270642,-1.625153,1.339087,-2.840773,0.046400,0.300426,0.999689,-0.024789,0.000340,0.002631
6166,-0.002791,-0.483842,9.871058,2.432808,-0.321258,1.531820,-2.779021,0.016345,0.349807,0.999701,-0.024249,0.000069,0.003055
6167,-0.029161,-0.434638,9.906735,3.953493,0.254430,1.747107,-2.672562,0.017828,0.404439,0.999722,-0.023321,0.000073,0.003532
6168,-0.065248,-0.402895,9.951919,4.246189,1.217193,1.400247,-2.535870,0.044708,0.455722,0.999747,-0.022129,0.000302,0.003985
6169,-0.077641,-0.391259,9.969139,3.367477,1.894764,0.697885,-2.408930,0.098030,0.488412,0.999770,-0.021024,0.000766,0.004279
6170,-0.069760,-0.372025,9.934895,2.847543,1.699096,0.196406,-2.305315,0.158485,0.500831,0.999787,-0.020122,0.001295,0.004397
6171,-0.033632,-0.384308,9.926903,1.072376,-0.296251,-0.138441,-2.239981,0.181882,0.500869,0.999798,-0.019553,0.001501,0.004401
6172,-0.017884,-0.406630,9.903502,-0.616003,-0.747602,-0.371945,-2.232398,0.164165,0.493054,0.999800,-0.019486,0.001349,0.004330
6173,0.010084,-0.419180,9.879335,-1.283237,-1.652893,-0.306130,-2.264076,0.123743,0.483333,0.999795,-0.019761,0.000996,0.004238
6174,0.004162,-0.421522,9.893693,-1.499965,-1.674927,-0.326191,-2.310476,0.067902,0.475017,0.999788,-0.020164,0.000509,0.004156
6175,-0.020292,-0.397307,9.911991,-0.315106,-0.410896,-0.495057,-2.340738,0.032612,0.462752,0.999783,-0.020426,0.000202,0.004043
6176,-0.067211,-0.383727,9.901709,0.834209,2.101029,-0.831422,-2.332107,0.059857,0.439514,0.999785,-0.020352,0.000444,0.003845
6177,-0.076711,-0.373952,9.894043,1.402933,2.469635,-1.378147,-2.294892,0.134488,0.399643,0.999793,-0.020029,0.001104,0.003510
6178,-0.079827,-0.364186,9.901194,1.582846,2.087809,-1.933395,-2.245301,0.208200,0.341487,0.999802,-0.019598,0.001758,0.003015
6179,-0.057168,-0.359943,9.896774,1.698775,0.849447,-2.275258,-2.190893,0.254401,0.269503,0.999812,-0.019123,0.002175,0.002394
6180,-0.019902,-0.393268,9.922834,0.498019,-0.764605,-2.823905,-2.154649,0.252592,0.184529,0.999819,-0.018805,0.002174,0.001651
6181,0.029530,-0.437834,9.938898,-1.167921,-2.346101,-3.110032,-2.166184,0.197046,0.087658,0.999820,-0.018904,0.001705,0.000797
6182,0.036509,-0.457365,9.922562,-1.585938,-2.039996,-2.368646,-2.212316,0.120499,-0.000789,0.999813,-0.019305,0.001051,0.000013
6183,0.029325,-0.417338,9.924386,0.028144,-1.746954,-1.185480,-2.238365,0.055125,-0.057525,0.999809,-0.019532,0.000491,-0.000493
6184,0.015911,-0.407946,9.939666,-0.210973,-1.169963,-0.697780,-2.241423,0.005325,-0.086996,0.999808,-0.019559,0.000061,-0.000758
6185,0.037189,-0.379946,9.941312,0.309456,-1.891732,0.173856,-2.239779,-0.046006,-0.093725,0.999809,-0.019545,-0.000385,-0.000826
6186,0.018760,-0.353321,9.937902,0.699306,-0.974083,0.839995,-2.222985,-0.093076,-0.074983,0.999811,-0.019399,-0.000799,-0.000670
6187,-0.017837,-0.333309,9.937312,1.143216,0.677883,0.925646,-2.192322,-0.096875,-0.045389,0.999817,-0.019131,-0.000838,-0.000412
6188,-0.037712,-0.351036,9.936390,0.165922,1.686849,0.570414,-2.170531,-0.056543,-0.021977,0.999820,-0.018940,-0.000490,-0.000201
6189,-0.027275,-0.336913,9.930160,0.658149,1.405966,0.391629,-2.156801,-0.004426,-0.007905,0.999823,-0.018821,-0.000037,-0.000070
6190,-0.076209,-0.313790,9.891622,1.693662,3.263207,0.376205,-2.117598,0.073816,0.001983,0.999829,-0.018478,0.000644,0.000029
6191,-0.075303,-0.295946,9.894488,2.150249,2.484941,-0.026908,-2.053526,0.169765,0.004315,0.999838,-0.017919,0.001481,0.000064
6192,-0.001033,-0.332364,9.943399,-0.153543,-1.438454,-1.067747,-2.020304,0.186546,-0.014531,0.999843,-0.017629,0.001630,-0.000098
6193,0.036773,-0.394431,9.968451,-2.834030,-2.720780,-1.772459,-2.070208,0.115574,-0.059357,0.999836,-0.018064,0.001018,-0.000500
6194,0.043889,-0.438935,9.958923,-3.851285,-2.081137,-1.697048,-2.181700,0.033446,-0.114164,0.999818,-0.019037,0.000311,-0.000991
6195,0.061559,-0.477577,9.960177,-4.406833,-2.124343,-1.687006,-2.319335,-0.038810,-0.167758,0.999794,-0.020239,-0.000309,-0.001471
6196,0.046726,-0.509431,9.938774,-4.666170,-0.895533,-1.450129,-2.470495,-0.091285,-0.217892,0.999766,-0.021559,-0.000755,-0.001918
6197,0.005736,-0.483168,9.877718,-2.387831,1.618226,-0.722422,-2.588010,-0.080852,-0.254582,0.999742,-0.022584,-0.000655,-0.002237
6198,-0.013560,-0.459843,9.836946,-0.557872,2.284488,-0.339484,-2.637094,-0.016680,-0.275204,0.999732,-0.023011,-0.000090,-0.002404
6199,-0.033016,-0.456497,9.819112,-0.018523,2.190104,-0.356242,-2.646709,0.057284,-0.290214,0.999730,-0.023093,0.000558,-0.002520
6200,-0.040215,-0.442411,9.839554,0.351343,1.487631,-0.373779,-2.641185,0.117953,-0.305192,0.999730,-0.023044,0.001090,-0.002639
6201,-0.026233,-0.421663,9.890009,1.100156,0.090329,-0.313653,-2.617022,0.143700,-0.317842,0.999735,-0.022832,0.001317,-0.002744
6202,-0.016182,-0.440763,9.944703,0.067094,-0.691953,-0.440385,-2.597595,0.133112,-0.329936,0.999738,-0.022663,0.001227,-0.002852
6203,-0.021742,-0.428133,9.918182,0.617064,0.081051,-0.069457,-2.586210,0.122556,-0.337963,0.999740,-0.022564,0.001136,-0.002924
6204,-0.026669,-0.408975,9.925399,1.112318,0.103566,0.232163,-2.557382,0.125752,-0.335393,0.999746,-0.022312,0.001162,-0.002902
6205,-0.024593,-0.421263,9.943541,0.223969,-0.240639,0.266436,-2.535093,0.123839,-0.326989,0.999751,-0.022118,0.001144,-0.002829
6206,-0.035473,-0.416920,9.911520,0.259458,0.614206,0.379751,-2.527012,0.130536,-0.316504,0.999752,-0.022047,0.001200,-0.002736
6207,-0.052717,-0.390442,9.866560,1.289296,1.226985,0.626301,-2.501159,0.161928,-0.301099,0.999757,-0.021821,0.001470,-0.002596
6208,-0.051024,-0.391224,9.900454,0.764879,0.144010,0.491656,-2.466870,0.185563,-0.283473,0.999764,-0.021522,0.001672,-0.002438
6209,-0.049046,-0.419072,9.890071,-0.550909,0.143227,0.131037,-2.463271,0.190793,-0.273309,0.999765,-0.021490,0.001716,-0.002349
6210,-0.051468,-0.449337,9.828401,-1.145069,0.571891,-0.013561,-2.491533,0.202786,-0.271868,0.999759,-0.021737,0.001821,-0.002333
6211,-0.044883,-0.453196,9.824311,-1.030058,-0.421881,0.028503,-2.527784,0.205295,-0.271729,0.999752,-0.022053,0.001843,-0.002331
6212,-0.017119,-0.459521,9.876646,-0.887590,-2.297783,-0.010052,-2.559738,0.160026,-0.269412,0.999747,-0.022333,0.001449,-0.002319
6213,-0.001464,-0.496477,9.891718,-2.006688,-2.404047,-0.508646,-2.607986,0.081352,-0.274521,0.999738,-0.022755,0.000764,-0.002379
6214,0.016145,-0.490588,9.903712,-1.100740,-2.640460,-0.135513,-2.659785,-0.003127,-0.281376,0.999728,-0.023209,0.000030,-0.002455
6215,0.027611,-0.451048,9.935159,0.619601,-2.768278,0.221617,-2.667806,-0.093109,-0.275759,0.999726,-0.023281,-0.000756,-0.002425
6216,0.032162,-0.456680,9.949715,0.284306,-2.163383,-0.017363,-2.652756,-0.175058,-0.268555,0.999728,-0.023151,-0.001473,-0.002378
6217,0.032367,-0.463365,9.924789,-0.155927,-1.067228,0.031780,-2.650627,-0.228833,-0.265822,0.999728,-0.023134,-0.001943,-0.002365
6218,0.035658,-0.432238,9.889590,1.401996,-0.689082,0.661415,-2.629914,-0.257541,-0.252931,0.999732,-0.022953,-0.002196,-0.002258
6219,0.034957,-0.426770,9.874261,1.356192,-0.662361,0.605577,-2.584046,-0.279082,-0.230816,0.999741,-0.022553,-0.002389,-0.002069
6220,0.037211,-0.420415,9.895134,1.059762,-0.909369,0.560191,-2.543885,-0.304382,-0.210234,0.999748,-0.022203,-0.002615,-0.001893
6221,0.051641,-0.443454,9.906536,-0.375794,-1.259050,0.421379,-2.532587,-0.339762,-0.192288,0.999750,-0.022104,-0.002927,-0.001743
6222,0.060537,-0.451503,9.912862,-0.762771,-1.240829,0.376527,-2.551659,-0.380794,-0.177151,0.999745,-0.022271,-0.003288,-0.001620
6223,0.064407,-0.446707,9.922681,-0.706722,-1.147951,0.276192,-2.576238,-0.420080,-0.164500,0.999739,-0.022485,-0.003633,-0.001518
6224,0.079238,-0.476403,9.946397,-1.325433,-1.197392,0.374071,-2.610205,-0.458639,-0.151905,0.999732,-0.022781,-0.003971,-0.001416
6225,0.091575,-0.481481,9.935184,-0.590926,-0.884127,1.090328,-2.642359,-0.492176,-0.125932,0.999724,-0.023061,-0.004269,-0.001198
6226,0.087142,-0.434350,9.913183,2.065683,-0.385715,1.906181,-2.618223,-0.511028,-0.075070,0.999729,-0.022849,-0.004443,-0.000757
6227,0.077410,-0.429613,9.901427,2.303916,0.105150,1.972131,-2.545972,-0.512796,-0.010289,0.999743,-0.022216,-0.004472,-0.000189
6228,0.092313,-0.423279,9.917951,2.317509,-0.418326,2.125019,-2.469560,-0.515024,0.058160,0.999758,-0.021547,-0.004504,0.000411
6229,0.090669,-0.380096,9.923243,3.156152,-0.427517,1.984579,-2.378962,-0.526210,0.127194,0.999773,-0.020754,-0.004614,0.001014
6230,0.085307,-0.392987,9.908354,1.289067,-0.275766,0.906771,-2.305326,-0.535958,0.175824,0.999786,-0.020109,-0.004707,0.001440
6231,0.087141,-0.423484,9.919424,-0.670212,-0.219623,0.381549,-2.295218,-0.543345,0.197611,0.999787,-0.020020,-0.004775,0.001629
6232,0.099347,-0.389663,9.929568,0.140082,-0.400339,0.267449,-2.304161,-0.553233,0.208835,0.999785,-0.020097,-0.004864,0.001725
6233,0.087931,-0.395472,9.928893,-0.636596,0.660661,-0.639180,-2.312375,-0.549148,0.202469,0.999784,-0.020169,-0.004827,0.001670
6234,0.066314,-0.407020,9.883580,-1.493499,1.762123,-1.111472,-2.347593,-0.509988,0.171673,0.999779,-0.020478,-0.004480,0.001407
6235,0.055407,-0.409481,9.894475,-1.367324,2.080968,-1.101731,-2.394943,-0.447518,0.132167,0.999773,-0.020894,-0.003929,0.001071
6236,0.055919,-0.412088,9.903287,-1.197560,1.979159,-1.456098,-2.437363,-0.381706,0.086722,0.999768,-0.021266,-0.003346,0.000686
6237,0.038836,-0.443995,9.914137,-2.028752,1.961529,-1.680997,-2.490798,-0.318335,0.031661,0.999760,-0.021734,-0.002783,0.000216
6238,0.034172,-0.456516,9.900344,-1.974450,1.074857,-1.274719,-2.557252,-0.269949,-0.019786,0.999748,-0.022315,-0.002351,-0.000225
6239,0.039166,-0.451720,9.906931,-0.956795,0.590020,-1.090453,-2.605922,-0.244007,-0.060420,0.999739,-0.022740,-0.002117,-0.000576
6240,0.034633,-0.458867,9.912528,-0.550882,0.702158,-1.214100,-2.630888,-0.224246,-0.099773,0.999734,-0.022958,-0.001936,-0.000915
6241,0.026309,-0.453972,9.902846,0.096256,0.632978,-0.882486,-2.638331,-0.203622,-0.135701,0.999733,-0.023024,-0.001749,-0.001225
6242,0.034551,-0.442533,9.884893,1.148784,0.394177,-0.397754,-2.617506,-0.187497,-0.157800,0.999737,-0.022842,-0.001604,-0.001414
6243,0.044231,-0.451062,9.887017,1.327887,0.068658,-0.293958,-2.576190,-0.180311,-0.169665,0.999745,-0.022482,-0.001540,-0.001516
6244,0.044963,-0.453595,9.922826,1.094653,-0.175940,-0.295613,-2.535784,-0.182535,-0.179401,0.999753,-0.022130,-0.001558,-0.001600
6245,0.053576,-0.442441,9.929946,1.250302,-0.605815,-0.056534,-2.496684,-0.195810,-0.184691,0.999760,-0.021789,-0.001673,-0.001649
6246,0.067896,-0.431735,9.923794,1.499966,-1.039641,-0.073084,-2.450841,-0.223301,-0.185665,0.999768,-0.021389,-0.001914,-0.001662
6247,0.064402,-0.428500,9.913239,1.070735,-0.894127,-0.298925,-2.407976,-0.255764,-0.190492,0.999775,-0.021016,-0.002197,-0.001709
6248,0.046308,-0.409600,9.919374,1.180542,-0.106006,-0.314265,-2.370412,-0.272845,-0.200008,0.999782,-0.020688,-0.002344,-0.001794
6249,0.049525,-0.389303,9.900345,1.532489,-0.322743,-0.068229,-2.325165,-0.280246,-0.206087,0.999789,-0.020294,-0.002409,-0.001848
6250,0.051020,-0.394041,9.901106,0.954512,-0.473577,-0.132045,-2.283701,-0.293641,-0.208888,0.999796,-0.019932,-0.002526,-0.001874
6251,0.041604,-0.395805,9.907567,0.404840,0.144630,-0.259209,-2.261013,-0.299378,-0.215186,0.999800,-0.019735,-0.002575,-0.001929
6252,0.037404,-0.399523,9.920153,0.023151,0.317097,-0.301224,-2.253830,-0.292057,-0.224823,0.999801,-0.019672,-0.002510,-0.002012
6253,0.042566,-0.393361,9.921919,0.059815,0.087350,-0.248380,-2.252400,-0.285682,-0.234241,0.999802,-0.019660,-0.002452,-0.002093
6254,0.054584,-0.395920,9.939375,0.073707,-0.280882,-0.241343,-2.250134,-0.289225,-0.242271,0.999802,-0.019640,-0.002482,-0.002163
6255,0.062748,-0.395426,9.920965,0.390537,-0.481575,-0.117337,-2.242368,-0.302157,-0.247746,0.999803,-0.019573,-0.002594,-0.002213
6256,0.063986,-0.381262,9.912398,1.161338,-0.665618,0.077082,-2.216504,-0.321289,-0.247673,0.999807,-0.019347,-0.002761,-0.002215
6257,0.072796,-0.354480,9.923944,2.735509,-0.851767,0.092973,-2.151578,-0.346452,-0.243877,0.999817,-0.018781,-0.002983,-0.002185
6258,0.072122,-0.341511,9.916189,4.638182,-0.435641,-0.002886,-2.028698,-0.367840,-0.241596,0.999836,-0.017709,-0.003172,-0.002165
6259,0.064032,-0.322681,9.901418,6.747653,0.265185,-0.089631,-1.838926,-0.370732,-0.243048,0.999864,-0.016054,-0.003201,-0.002173
6260,0.062490,-0.269372,9.923437,9.658332,0.622885,0.155253,-1.565498,-0.355907,-0.242405,0.999900,-0.013668,-0.003077,-0.002158
6261,0.051884,-0.231112,9.931711,11.591058,1.042763,0.575438,-1.211413,-0.327855,-0.230907,0.999938,-0.010577,-0.002840,-0.002045
6262,0.040647,-0.177132,9.892219,13.447928,1.466606,1.015058,-0.794240,-0.285566,-0.205142,0.999971,-0.006935,-0.002480,-0.001807
6263,0.028314,-0.095938,9.920485,14.914188,1.844176,1.305647,-0.321717,-0.230003,-0.167010,0.999993,-0.002810,-0.002003,-0.001463
6264,0.021374,0.003737,9.947360,15.222817,1.598896,1.504460,0.180392,-0.172557,-0.120254,0.999997,0.001573,-0.001507,-0.001047
6265,0.001734,0.104552,9.938454,17.244446,2.358423,1.187083,0.721389,-0.106952,-0.074868,0.999980,0.006295,-0.000937,-0.000647
6266,-0.020264,0.211895,9.971304,19.039740,2.829627,0.787410,1.326075,-0.021108,-0.040441,0.999933,0.011572,-0.000188,-0.000351
6267,-0.053070,0.308868,9.981931,21.272514,2.908204,0.619718,1.997939,0.073777,-0.014237,0.999848,0.017435,0.000642,-0.000135
6269,-0.038805,0.490034,9.970320,23.452246,1.230425,-0.298135,2.743338,0.142458,-0.006018,0.999713,0.023938,0.001242,-0.000082
6270,-0.042343,0.646561,9.945308,24.184647,-0.487869,-0.937950,3.537200,0.155886,-0.025811,0.999523,0.030863,0.001353,-0.000267
6271,-0.040564,0.803920,9.941961,24.665064,-2.247831,-1.031662,4.351239,0.112617,-0.061597,0.999279,0.037963,0.000962,-0.000574
6272,-0.018591,0.974577,9.870142,25.106005,-3.019590,-0.968109,5.180665,0.027891,-0.102001,0.998978,0.045195,0.000203,-0.000900
6273,0.003918,1.150769,9.857005,24.313274,-2.792969,-0.816553,6.004288,-0.065619,-0.140998,0.998627,0.052373,-0.000636,-0.001199
6274,-0.000873,1.249042,9.843192,23.121508,-1.503106,0.341889,6.794852,-0.135879,-0.156847,0.998241,0.059260,-0.001265,-0.001296
6275,0.004291,1.343225,9.850176,22.748545,-0.304778,1.300878,7.559259,-0.169119,-0.133506,0.997823,0.065917,-0.001549,-0.001065
6276,0.003400,1.452751,9.820502,22.584198,0.879589,1.885880,8.314615,-0.166902,-0.079640,0.997368,0.072494,-0.001503,-0.000588
6277,-0.012676,1.558160,9.843342,22.283789,1.289531,2.048805,9.062194,-0.141030,-0.009416,0.996874,0.079000,-0.001233,0.000015
6278,-0.015881,1.684537,9.833468,22.496981,0.977187,2.189910,9.808337,-0.115331,0.066442,0.996338,0.085490,-0.000953,0.000664
6279,-0.030262,1.798635,9.795224,23.036013,1.155781,1.936435,10.567051,-0.092503,0.140433,0.995750,0.092085,-0.000691,0.001295
6280,-0.041348,1.939354,9.777223,23.639967,1.320276,1.678671,11.344855,-0.063456,0.207414,0.995101,0.098842,-0.000372,0.001856
6281,-0.041741,2.068590,9.769081,23.486675,0.868715,1.250324,12.130213,-0.037683,0.262617,0.994400,0.105659,-0.000085,0.002314
6282,-0.019378,2.203062,9.714465,24.460213,0.281924,0.707102,12.929265,-0.026069,0.298642,0.993638,0.112590,0.000067,0.002615
6283,-0.018077,2.349372,9.696554,25.629957,-0.030650,-0.244556,13.764050,-0.023816,0.307135,0.992791,0.119826,0.000115,0.002686
6284,-0.020279,2.486380,9.672817,26.368580,-0.695311,-0.636991,14.630654,-0.032003,0.289929,0.991857,0.127330,0.000045,0.002545
6285,-0.019527,2.634674,9.589580,26.309248,-1.336772,-1.038676,15.508588,-0.057477,0.254192,0.990853,0.134926,-0.000198,0.002266
6286,-0.021774,2.759159,9.521889,25.776777,-1.414329,-1.019672,16.376696,-0.092176,0.208647,0.989803,0.142429,-0.000537,0.001917
6287,-0.037234,2.859367,9.497635,23.684235,-1.063050,-0.677788,17.201069,-0.123534,0.169645,0.988753,0.149546,-0.000845,0.001625
6288,-0.022408,2.954215,9.456109,20.681387,-1.123985,0.184093,17.940502,-0.155778,0.150789,0.987767,0.155923,-0.001138,0.001512
6289,-0.008381,3.070415,9.441512,17.931776,-0.917510,0.695070,18.584024,-0.192641,0.154066,0.986876,0.161468,-0.001442,0.001598
6290,-0.005950,3.160142,9.434237,16.602993,-0.670791,1.018724,19.159519,-0.226901,0.172537,0.986051,0.166423,-0.001702,0.001814
6291,0.001552,3.260293,9.439442,16.260456,-0.617190,0.966717,19.707130,-0.258135,0.196598,0.985244,0.171134,-0.001926,0.002076
6292,0.008247,3.381219,9.438559,17.201061,-0.394760,0.855280,20.264696,-0.284364,0.219369,0.984398,0.175926,-0.002106,0.002321
6293,0.000015,3.473397,9.394211,18.903997,-0.095831,0.605059,20.866331,-0.300571,0.239272,0.983460,0.181093,-0.002201,0.002529
6294,0.002067,3.569421,9.322204,21.287014,-0.024114,0.688047,21.536057,-0.310236,0.258624,0.982384,0.186838,-0.002238,0.002723
6295,0.006385,3.670292,9.271797,23.044199,0.189594,0.862705,22.274746,-0.317318,0.283628,0.981159,0.193167,-0.002239,0.002963
6296,0.009374,3.799634,9.202020,23.466244,0.264818,1.103854,23.049696,-0.322947,0.316783,0.979829,0.199799,-0.002209,0.003272
6297,0.012830,3.923212,9.138892,23.244366,0.113268,1.426034,23.827932,-0.333924,0.357975,0.978448,0.206450,-0.002206,0.003658
6298,0.026929,4.030014,9.094434,22.649284,0.196926,1.499844,24.592508,-0.349192,0.404584,0.977047,0.212975,-0.002225,0.004099
6299,0.019550,4.144220,9.052582,21.349249,0.422712,1.418221,25.325487,-0.360343,0.453031,0.975662,0.219221,-0.002201,0.004547
6300,0.013241,4.261170,9.034240,20.452194,0.388236,1.326136,26.021851,-0.367972,0.500097,0.974310,0.225147,-0.002146,0.004975
6301,0.015405,4.368819,8.993780,21.531208,0.138851,1.323329,26.721260,-0.379717,0.543561,0.972915,0.231091,-0.002128,0.005381
6302,0.032469,4.483493,8.935138,22.097256,-0.627314,0.727913,27.448191,-0.402539,0.570302,0.971427,0.237259,-0.002232,0.005668
6303,0.040262,4.613905,8.872193,22.843311,-1.380130,-0.063916,28.197208,-0.437340,0.564493,0.969855,0.243605,-0.002502,0.005707
6304,0.046789,4.723288,8.800960,23.113827,-1.640316,-0.772876,28.963411,-0.474930,0.528178,0.968204,0.250085,-0.002860,0.005499
6305,0.046533,4.820495,8.704327,22.262878,-1.604121,-1.490092,29.720154,-0.503624,0.468796,0.966533,0.256472,-0.003199,0.005081
6306,0.049813,4.929359,8.651473,19.637760,-1.339308,-2.036064,30.419138,-0.516669,0.393337,0.964953,0.262361,-0.003450,0.004495
6307,0.038618,4.998460,8.576758,17.473043,-0.421500,-1.958902,31.038269,-0.507905,0.321084,0.963525,0.267568,-0.003521,0.003886
6308,0.016806,5.074331,8.551242,14.733089,0.533762,-1.720793,31.575460,-0.474427,0.269622,0.962263,0.272080,-0.003344,0.003391
6309,0.020045,5.158482,8.543272,13.144923,0.868155,-1.243442,32.040314,-0.428515,0.239919,0.961154,0.275981,-0.003016,0.003044
6310,0.035333,5.246010,8.535995,10.478417,1.685032,-1.165625,32.434101,-0.371088,0.228650,0.960202,0.279281,-0.002552,0.002820
6311,0.028893,5.299733,8.479598,13.297196,1.033574,-0.630625,32.830360,-0.316775,0.227842,0.959232,0.282599,-0.002090,0.002688
6312,0.017704,5.371608,8.452838,14.064559,0.834018,-0.519254,33.286377,-0.280231,0.228794,0.958101,0.286414,-0.001771,0.002613
6313,0.028619,5.453125,8.395968,15.764889,0.282110,-0.015196,33.783512,-0.259806,0.231656,0.956850,0.290568,-0.001582,0.002593
6314,0.023516,5.500331,8.302135,17.634441,0.132515,-0.118100,34.340153,-0.252833,0.233715,0.955427,0.295212,-0.001506,0.002600
6315,0.010349,5.553930,8.212720,18.470858,0.190507,-0.450730,34.941906,-0.243022,0.228979,0.953864,0.300225,-0.001423,0.002543
6316,0.001791,5.639381,8.155729,18.504143,0.033133,-0.337828,35.558174,-0.232404,0.220388,0.952236,0.305350,-0.001344,0.002451
6317,0.010638,5.751101,8.113333,17.762747,-0.167895,-0.049534,36.162632,-0.230442,0.213849,0.950612,0.310369,-0.001332,0.002398
6318,0.006636,5.839122,8.062203,16.493700,-0.200208,-0.047503,36.733574,-0.234412,0.208918,0.949054,0.315101,-0.001367,0.002375
6319,0.012790,5.938219,8.036417,15.340608,-0.420800,-0.064487,37.264164,-0.241556,0.201200,0.947585,0.319492,-0.001437,0.002337
6320,0.020087,5.990551,7.993408,14.122562,-0.517913,0.097219,37.755249,-0.254304,0.192113,0.946207,0.323550,-0.001557,0.002304
6321,0.030674,6.046791,7.951172,10.720284,-0.458190,0.715337,38.169277,-0.275459,0.192791,0.945031,0.326967,-0.001722,0.002376
6322,0.046817,6.117275,7.883097,11.740632,-1.032332,1.433894,38.543560,-0.317152,0.205479,0.943957,0.330052,-0.002021,0.002606
6323,0.050492,6.163479,7.805452,14.242276,-0.938681,0.977255,38.976543,-0.367921,0.216270,0.942701,0.333617,-0.002397,0.002850
6324,0.041911,6.228481,7.753570,14.491463,-0.558073,0.526823,39.455402,-0.403108,0.219900,0.941298,0.337554,-0.002664,0.002994
6325,0.045587,6.315895,7.711136,15.296362,-0.510395,0.401381,39.951855,-0.426694,0.220405,0.939826,0.341629,-0.002842,0.003080
6326,0.044305,6.405718,7.643784,16.758856,-0.507277,-0.320952,40.486172,-0.440513,0.210471,0.938222,0.346007,-0.002971,0.003053
6327,0.031854,6.463728,7.601367,18.116180,-0.427161,-0.896333,41.067604,-0.439076,0.184916,0.936455,0.350763,-0.003022,0.002855
6328,0.036226,6.536024,7.541749,19.704988,-0.585933,-0.749287,41.698174,-0.433627,0.153157,0.934512,0.355910,-0.003061,0.002596
6329,0.051650,6.592042,7.419950,20.156675,-0.911218,-0.846654,42.362789,-0.434348,0.116704,0.932433,0.361323,-0.003166,0.002319
6330,0.056658,6.694616,7.361358,19.808754,-1.020909,-1.119876,43.029209,-0.435803,0.070787,0.930316,0.366738,-0.003312,0.001969
6331,0.065775,6.783786,7.305282,19.764111,-1.198853,-0.815895,43.689106,-0.440565,0.021925,0.928190,0.372088,-0.003497,0.001608
6332,0.064872,6.852047,7.198462,18.625322,-1.316992,-0.946688,44.329300,-0.450309,-0.028319,0.926097,0.377266,-0.003733,0.001254
6333,0.066774,6.940281,7.127917,16.810759,-1.471258,-1.445685,44.920361,-0.455386,-0.089340,0.924139,0.382035,-0.003970,0.000798
6334,0.063137,7.029408,7.118003,16.553484,-1.919739,-1.209040,45.476978,-0.463843,-0.160630,0.922272,0.386517,-0.004275,0.000272
6335,0.056292,7.090770,7.005910,18.834003,-2.646613,-0.594172,46.067390,-0.495399,-0.236108,0.920268,0.391260,-0.004785,-0.000205
6336,0.073210,7.124886,6.893709,20.612093,-3.393338,-0.684053,46.725605,-0.549388,-0.323661,0.918003,0.396533,-0.005521,-0.000692
6337,0.082239,7.180399,6.800956,22.080624,-3.867463,-1.084859,47.438232,-0.610217,-0.432344,0.915517,0.402226,-0.006393,-0.001312
6338,0.075996,7.275466,6.697471,23.169746,-4.111321,-1.331198,48.193768,-0.669694,-0.557928,0.912842,0.408243,-0.007323,-0.002058
6339,0.099597,7.393989,6.587844,23.448357,-4.325154,-1.285130,48.972336,-0.730016,-0.692227,0.910042,0.414423,-0.008301,-0.002857
6340,0.119259,7.464980,6.516216,23.878828,-4.609542,-1.867992,49.763027,-0.787107,-0.839454,0.907155,0.420676,-0.009313,-0.003756
6341,0.104700,7.513787,6.360029,23.756130,-4.047981,-3.026257,50.559177,-0.816938,-1.002528,0.904204,0.426952,-0.010182,-0.004866
6342,0.112153,7.631640,6.265656,20.837927,-3.162537,-3.121453,51.304600,-0.813145,-1.160487,0.901400,0.432811,-0.010780,-0.006057
6343,0.134382,7.705606,6.213108,16.839123,-2.981646,-1.740300,51.934372,-0.813205,-1.291112,0.899000,0.437746,-0.011313,-0.007022
6344,0.132069,7.761231,6.151118,13.013505,-2.821846,-0.845606,52.433395,-0.838455,-1.393911,0.897079,0.441643,-0.011937,-0.007680
6345,0.142377,7.852046,6.111087,5.115489,-1.756580,-0.412938,52.736637,-0.868162,-1.467241,0.895901,0.444004,-0.012474,-0.008107
6346,0.170189,7.946147,6.178492,0.436264,-1.268642,0.596807,52.829769,-0.901116,-1.505534,0.895537,0.444723,-0.012886,-0.008268
6347,0.185188,7.925272,6.181343,-1.896972,-1.164061,0.827637,52.805710,-0.944541,-1.523477,0.895629,0.444527,-0.013294,-0.008242
6348,0.178574,7.891346,6.174313,-7.563913,-0.985945,0.630399,52.648273,-0.985583,-1.537270,0.896237,0.443289,-0.013657,-0.008210
6349,0.181167,7.862578,6.180814,-4.941933,-0.338670,0.041815,52.440022,-1.007908,-1.547963,0.897040,0.441655,-0.013858,-0.008232
6350,0.180389,7.824735,6.163295,-4.709860,-0.241749,0.064553,52.279266,-1.015220,-1.554533,0.897658,0.440395,-0.013929,-0.008275
6351,0.167911,7.793412,6.195557,-5.360181,-0.278995,-0.101869,52.111565,-1.020049,-1.561772,0.898301,0.439079,-0.013982,-0.008333
6352,0.157946,7.779650,6.219026,-5.191854,-0.335883,-0.018702,51.935867,-1.024770,-1.571087,0.898973,0.437699,-0.014042,-0.008410
6353,0.162273,7.765336,6.224079,-6.771667,-0.029460,-0.351065,51.736637,-1.023687,-1.579685,0.899732,0.436135,-0.014052,-0.008506
6354,0.162672,7.730302,6.239471,-6.351405,0.079536,-0.948917,51.518147,-1.006184,-1.592476,0.900561,0.434419,-0.013946,-0.008700
6355,0.163685,7.727177,6.272876,-6.301742,0.025314,-0.991170,51.307579,-0.979814,-1.611271,0.901356,0.432765,-0.013794,-0.008973
6356,0.165396,7.701590,6.270678,-4.542257,-0.052235,-0.551742,51.127125,-0.960049,-1.627730,0.902036,0.431346,-0.013686,-0.009198
6357,0.163630,7.703160,6.283897,-4.291842,0.000933,-0.392869,50.980064,-0.948343,-1.638296,0.902588,0.430189,-0.013622,-0.009343
6358,0.169323,7.707345,6.301102,-4.082809,-0.095466,-0.189608,50.840614,-0.941803,-1.645641,0.903110,0.429090,-0.013586,-0.009442
6359,0.163637,7.690385,6.304773,-3.010911,-0.043453,-0.017763,50.722443,-0.940589,-1.649623,0.903552,0.428158,-0.013582,-0.009492
6360,0.157339,7.671283,6.303017,-1.987950,0.070775,-0.123997,50.639156,-0.938474,-1.650769,0.903863,0.427501,-0.013563,-0.009519
6361,0.153157,7.668711,6.296078,-1.319613,0.127864,-0.441996,50.584091,-0.929083,-1.654196,0.904068,0.427068,-0.013497,-0.009587
6362,0.154424,7.657607,6.302394,-0.726689,0.169254,-0.495955,50.550079,-0.913862,-1.660299,0.904194,0.426801,-0.013396,-0.009696
6363,0.157509,7.649127,6.313194,-0.844409,-0.044725,-0.204438,50.523991,-0.903531,-1.666116,0.904291,0.426596,-0.013334,-0.009784
6364,0.159852,7.661105,6.322126,-1.080640,-0.186154,-0.117466,50.491997,-0.901838,-1.672499,0.904410,0.426343,-0.013342,-0.009844
6365,0.165203,7.659262,6.327048,-1.124849,-0.224661,-0.140169,50.455368,-0.902883,-1.680515,0.904545,0.426053,-0.013377,-0.009908
6366,0.171471,7.665433,6.326906,-1.064572,-0.475977,0.251407,50.419010,-0.911750,-1.688338,0.904680,0.425764,-0.013473,-0.009941
6367,0.170921,7.658233,6.330647,-1.211549,-0.696523,0.417229,50.381203,-0.932793,-1.696294,0.904819,0.425461,-0.013665,-0.009930
6368,0.167001,7.648721,6.329153,-1.086070,-0.489370,0.078144,50.343067,-0.951759,-1.706249,0.904959,0.425156,-0.013849,-0.009943
6369,0.170543,7.666789,6.340382,-0.489655,-0.402850,-0.028938,50.316998,-0.961883,-1.717173,0.905055,0.424947,-0.013967,-0.009995
6370,0.167885,7.659003,6.332639,-0.112169,-0.356371,-0.114568,50.307144,-0.968123,-1.728439,0.905091,0.424867,-0.014057,-0.010062
6372,0.159230,7.652032,6.358407,-1.156532,-0.028073,-0.254098,50.286156,-0.967488,-1.737295,0.905168,0.424700,-0.014083,-0.010136
6373,0.170734,7.649710,6.361031,-1.716229,-0.154720,0.085088,50.238346,-0.967271,-1.741439,0.905344,0.424322,-0.014092,-0.010176
6374,0.180165,7.644650,6.377481,-2.331904,-0.293892,0.450610,50.170883,-0.978917,-1.741470,0.905594,0.423787,-0.014179,-0.010141
6375,0.182894,7.621366,6.385779,-2.922547,-0.429646,0.863418,50.083229,-1.003456,-1.736686,0.905918,0.423091,-0.014347,-0.010024
6376,0.188485,7.612767,6.406024,-3.235134,-0.495333,1.175345,49.980415,-1.039402,-1.726674,0.906298,0.422274,-0.014585,-0.009825
6377,0.203211,7.605483,6.389077,-1.920313,-0.690334,1.323275,49.894279,-1.083993,-1.714994,0.906615,0.421587,-0.014888,-0.009579
6378,0.194672,7.595395,6.401237,-1.373497,-0.235077,0.771833,49.839172,-1.120632,-1.704282,0.906818,0.421147,-0.015134,-0.009367
6379,0.197523,7.593786,6.413223,-1.270636,-0.138585,0.619550,49.794907,-1.142367,-1.694074,0.906981,0.420795,-0.015265,-0.009212
6380,0.196046,7.578229,6.406002,-1.054862,0.035193,0.266902,49.755985,-1.154761,-1.685847,0.907124,0.420486,-0.015329,-0.009107
6381,0.189304,7.576845,6.409498,-1.208793,0.275693,-0.249373,49.718170,-1.151635,-1.681703,0.907263,0.420188,-0.015287,-0.009090
6382,0.181020,7.571609,6.432737,-1.764572,0.443230,-0.701330,49.668644,-1.131800,-1.682814,0.907445,0.419798,-0.015130,-0.009178
6383,0.183997,7.591499,6.439734,-1.176543,0.224956,-0.615821,49.619736,-1.107859,-1.688543,0.907624,0.419414,-0.014957,-0.009318
6384,0.174505,7.601329,6.457012,-0.713674,0.212202,-0.714818,49.588409,-1.086247,-1.697368,0.907739,0.419168,-0.014816,-0.009471
6385,0.175864,7.598908,6.456560,-0.451827,-0.057341,-0.291148,49.569141,-1.071809,-1.706275,0.907808,0.419016,-0.014732,-0.009597
6386,0.183905,7.591139,6.472269,-0.802971,-0.389847,0.172587,49.548363,-1.075140,-1.713231,0.907884,0.418850,-0.014782,-0.009643
6387,0.192902,7.585123,6.469313,-0.521736,-0.696168,0.560537,49.526402,-1.096183,-1.719074,0.907963,0.418672,-0.014969,-0.009615
6388,0.192750,7.581898,6.457750,-0.132646,-0.718140,0.639575,49.515583,-1.126699,-1.724022,0.908002,0.418581,-0.015227,-0.009544
6389,0.192665,7.563848,6.456345,-0.569499,-0.573382,0.422294,49.503971,-1.154135,-1.728902,0.908043,0.418484,-0.015462,-0.009484
6390,0.205454,7.568790,6.462590,-0.284551,-0.542563,0.268620,49.489880,-1.174971,-1.735566,0.908093,0.418368,-0.015650,-0.009462
6391,0.212176,7.571977,6.467284,-0.038136,-0.559733,0.287032,49.484661,-1.193946,-1.743519,0.908111,0.418323,-0.015829,-0.009457
6392,0.210807,7.577986,6.464835,-0.023124,-0.373457,0.052994,49.483810,-1.208358,-1.751663,0.908113,0.418313,-0.015973,-0.009469
6393,0.221463,7.582356,6.478394,-0.277142,-0.681911,0.389757,49.478992,-1.225396,-1.760243,0.908130,0.418271,-0.016139,-0.009475
6394,0.223936,7.572598,6.457253,0.371769,-0.995780,0.819152,49.480740,-1.258879,-1.768409,0.908122,0.418278,-0.016434,-0.009417
6395,0.217922,7.567928,6.454865,0.148553,-1.012952,0.760883,49.489594,-1.300648,-1.776757,0.908087,0.418340,-0.016796,-0.009330
6396,0.222720,7.574317,6.456744,-0.175439,-0.914454,0.684375,49.489357,-1.339829,-1.785535,0.908086,0.418331,-0.017139,-0.009256
6397,0.230987,7.569449,6.470522,-0.724000,-1.001862,0.874385,49.474545,-1.380329,-1.792937,0.908138,0.418205,-0.017485,-0.009169
6398,0.235297,7.541965,6.455843,-0.905256,-0.937280,0.842207,49.447533,-1.423078,-1.798904,0.908234,0.417983,-0.017844,-0.009064
6399,0.250783,7.542595,6.470703,-1.230878,-0.785477,0.827094,49.412022,-1.462885,-1.802620,0.908362,0.417694,-0.018170,-0.008954
6400,0.258561,7.549860,6.489987,-1.506423,-0.462222,0.678161,49.366398,-1.495467,-1.802075,0.908527,0.417327,-0.018423,-0.008838
6401,0.264713,7.550883,6.486241,-1.203402,-0.426911,0.793863,49.321110,-1.523734,-1.797330,0.908691,0.416964,-0.018626,-0.008705
6402,0.275197,7.558569,6.491715,-0.992402,-0.464004,0.903223,49.284325,-1.554862,-1.790142,0.908823,0.416668,-0.018844,-0.008541
6403,0.282842,7.544569,6.516228,-1.726984,-0.434815,0.790287,49.238804,-1.586024,-1.783071,0.908988,0.416303,-0.019062,-0.008379
6404,0.286070,7.530878,6.496436,-1.290209,-0.583023,0.715841,49.188419,-1.616112,-1.779514,0.909169,0.415898,-0.019284,-0.008250
6405,0.295258,7.529800,6.483470,-0.752372,-0.762305,0.760199,49.154400,-1.649385,-1.780398,0.909291,0.415622,-0.019549,-0.008142
6406,0.306274,7.531404,6.499814,-0.405800,-0.804871,0.866499,49.135159,-1.686977,-1.782421,0.909358,0.415463,-0.019853,-0.008025
6407,0.298742,7.509636,6.503222,-0.151141,-0.648615,0.746596,49.125900,-1.723158,-1.783150,0.909389,0.415383,-0.020142,-0.007901
6408,0.294909,7.527825,6.501785,0.530083,-0.521843,0.640964,49.132195,-1.753411,-1.782769,0.909365,0.415427,-0.020381,-0.007787
6409,0.293101,7.545423,6.510387,0.850644,-0.070554,0.197967,49.155167,-1.770446,-1.781091,0.909280,0.415607,-0.020512,-0.007707
6410,0.300115,7.552173,6.507727,1.112973,-0.108245,0.443873,49.187737,-1.780488,-1.776351,0.909162,0.415864,-0.020576,-0.007628
6411,0.301524,7.524184,6.512397,0.140617,-0.234240,0.414961,49.208481,-1.795053,-1.771316,0.909086,0.416027,-0.020675,-0.007531
6412,0.311246,7.541642,6.502531,0.035865,-0.231635,0.215685,49.211395,-1.808084,-1.770326,0.909075,0.416048,-0.020775,-0.007475
6413,0.314904,7.539484,6.483201,0.441867,-0.031906,-0.068779,49.219410,-1.812806,-1.772053,0.909045,0.416110,-0.020819,-0.007470
6414,0.317573,7.535129,6.502419,-0.408288,-0.007190,-0.095635,49.220039,-1.811157,-1.774338,0.909043,0.416115,-0.020814,-0.007494
6415,0.301350,7.525131,6.515283,-0.854565,0.495827,-0.830661,49.199120,-1.794148,-1.778260,0.909120,0.415952,-0.020692,-0.007591
6416,0.301469,7.553278,6.495578,0.262429,0.600429,-0.845707,49.189377,-1.761060,-1.782690,0.909157,0.415880,-0.020445,-0.007748
6417,0.295470,7.530338,6.493474,0.259181,0.564930,-0.679615,49.198124,-1.729125,-1.784600,0.909127,0.415954,-0.020200,-0.007878
6418,0.296968,7.522998,6.488096,0.084214,0.357403,-0.573761,49.203911,-1.703267,-1.786614,0.909107,0.416005,-0.020002,-0.007987
6419,0.294014,7.535925,6.497652,0.140045,0.289116,-0.501885,49.207760,-1.682655,-1.790171,0.909095,0.416038,-0.019852,-0.008089
6420,0.303101,7.535357,6.491312,0.382998,-0.283396,0.260741,49.216553,-1.679550,-1.792725,0.909063,0.416108,-0.019837,-0.008119
6421,0.299595,7.519353,6.475379,0.388203,-0.505050,0.234576,49.229530,-1.694383,-1.797285,0.909014,0.416208,-0.019972,-0.008099
6422,0.308783,7.518510,6.513385,-1.032671,-0.598001,0.172970,49.219074,-1.711534,-1.806775,0.909050,0.416120,-0.020142,-0.008114
6423,0.312386,7.525685,6.531268,-1.005597,-0.602086,0.605866,49.185303,-1.734430,-1.813436,0.909171,0.415847,-0.020345,-0.008090
6424,0.298102,7.527503,6.513773,-0.304857,-0.487926,0.482015,49.163517,-1.760028,-1.815332,0.909248,0.415669,-0.020554,-0.008015
6425,0.296337,7.539243,6.499615,0.174875,-0.339585,0.036177,49.161503,-1.775581,-1.820122,0.909254,0.415649,-0.020694,-0.007997
6426,0.291323,7.521512,6.524509,-0.878042,0.210243,-0.424351,49.149963,-1.772096,-1.825987,0.909296,0.415557,-0.020687,-0.008059
6427,0.284486,7.542130,6.495537,0.511691,0.460573,-0.628963,49.143955,-1.751505,-1.829015,0.909319,0.415513,-0.020534,-0.008159
6428,0.286264,7.548762,6.490252,0.650825,0.226703,-0.749993,49.163517,-1.726627,-1.835382,0.909249,0.415671,-0.020362,-0.008296
6429,0.306185,7.525781,6.494764,-0.009111,-0.026109,-0.418584,49.174526,-1.709705,-1.845591,0.909210,0.415760,-0.020265,-0.008436
6430,0.311766,7.497477,6.492883,-0.487608,-0.068694,-0.222243,49.166489,-1.702657,-1.853773,0.909239,0.415696,-0.020238,-0.008528
6431,0.311976,7.518939,6.516093,-0.732624,-0.410011,0.048773,49.146381,-1.705688,-1.861704,0.909311,0.415534,-0.020290,-0.008584
6432,0.307936,7.511099,6.504349,-0.342578,-0.499270,0.170672,49.128735,-1.718369,-1.870777,0.909373,0.415390,-0.020422,-0.008613
6433,0.298408,7.503144,6.507931,-0.365620,-0.205282,0.025908,49.117138,-1.728531,-1.877515,0.909414,0.415295,-0.020526,-0.008632
6434,0.295243,7.527495,6.486849,0.957006,-0.127987,-0.050283,49.127129,-1.731859,-1.881982,0.909377,0.415373,-0.020569,-0.008653
6435,0.298579,7.545141,6.521813,0.384890,-0.074906,0.091747,49.149551,-1.734594,-1.884089,0.909296,0.415550,-0.020600,-0.008656
6436,0.307605,7.525527,6.487800,1.209352,-0.300541,0.548751,49.176060,-1.746762,-1.881841,0.909199,0.415759,-0.020691,-0.008589
6437,0.309929,7.524682,6.493870,0.787202,-0.386812,0.654470,49.209198,-1.769427,-1.877404,0.909078,0.416018,-0.020857,-0.008466
6438,0.309701,7.537040,6.497693,0.492674,-0.306897,0.496700,49.230404,-1.791507,-1.873625,0.908999,0.416183,-0.021020,-0.008351
6439,0.313557,7.536353,6.505477,-0.074562,-0.279107,0.527927,49.237255,-1.810818,-1.869869,0.908974,0.416235,-0.021160,-0.008250
6440,0.315407,7.528618,6.492515,0.054808,-0.334561,0.487210,49.236824,-1.830311,-1.866567,0.908974,0.416228,-0.021302,-0.008153
6441,0.315657,7.542604,6.494776,0.037317,-0.104271,0.093735,49.238338,-1.842420,-1.865784,0.908968,0.416238,-0.021396,-0.008103
6442,0.325016,7.557168,6.488043,0.295389,-0.204683,0.273320,49.243877,-1.850416,-1.865690,0.908947,0.416280,-0.021459,-0.008072
6443,0.327931,7.539635,6.485847,0.178813,-0.218053,0.304578,49.251747,-1.862311,-1.864740,0.908918,0.416341,-0.021551,-0.008020
6444,0.322949,7.527610,6.494220,-0.430206,-0.019665,-0.053003,49.247566,-1.868074,-1.865004,0.908933,0.416306,-0.021597,-0.008001
6445,0.318209,7.534718,6.491707,-0.209618,0.095642,-0.126267,49.236927,-1.864984,-1.865996,0.908971,0.416222,-0.021575,-0.008023
6446,0.303669,7.544979,6.500939,-0.258380,0.253328,-0.353664,49.229160,-1.855128,-1.866815,0.909000,0.416163,-0.021500,-0.008066
6447,0.304530,7.541979,6.502408,-0.329881,0.280001,-0.413863,49.219410,-1.839636,-1.868439,0.909037,0.416088,-0.021382,-0.008137
6448,0.311657,7.535094,6.496890,-0.070256,0.306353,-0.228973,49.212727,-1.825140,-1.868037,0.909062,0.416038,-0.021265,-0.008188
6449,0.321366,7.539903,6.509225,-0.492756,0.020473,0.043195,49.203281,-1.819237,-1.865935,0.909097,0.415964,-0.021210,-0.008195
6450,0.326302,7.525308,6.522363,-1.417842,-0.032279,-0.068558,49.171440,-1.819046,-1.866361,0.909212,0.415712,-0.021208,-0.008205
6451,0.326471,7.502689,6.516033,-1.575471,0.057771,0.054263,49.121544,-1.818587,-1.866195,0.909393,0.415316,-0.021200,-0.008214
6452,0.321544,7.490753,6.503319,-0.990902,0.043492,-0.001253,49.078720,-1.818151,-1.864340,0.909549,0.414976,-0.021187,-0.008209
6453,0.321334,7.502005,6.515459,-1.466064,0.073597,-0.257795,49.037811,-1.813611,-1.865696,0.909697,0.414652,-0.021153,-0.008244
6454,0.317506,7.491353,6.517102,-0.995768,0.179406,-0.161199,48.996826,-1.805574,-1.867093,0.909846,0.414328,-0.021091,-0.008291
6455,0.320135,7.498573,6.527495,-0.712420,-0.052835,0.099972,48.968323,-1.803420,-1.866170,0.909949,0.414102,-0.021068,-0.008297
6456,0.324769,7.492323,6.519641,-0.333719,-0.255723,-0.039104,48.950989,-1.807562,-1.869385,0.910011,0.413963,-0.021112,-0.008311
6457,0.319779,7.467182,6.516114,-0.462333,0.031903,-0.327089,48.937939,-1.805409,-1.876210,0.910058,0.413859,-0.021118,-0.008375
6458,0.315671,7.471974,6.513619,-0.000841,0.078703,-0.486494,48.930454,-1.793974,-1.883732,0.910085,0.413800,-0.021054,-0.008478
6459,0.304467,7.488895,6.517594,-0.024400,0.313037,-0.949428,48.930374,-1.771642,-1.894537,0.910086,0.413802,-0.020916,-0.008644
6460,0.288990,7.489302,6.518156,0.086722,0.760597,-1.258641,48.931736,-1.732141,-1.905229,0.910083,0.413818,-0.020641,-0.008872
6461,0.298154,7.513204,6.532967,0.358129,0.601519,-0.728208,48.939281,-1.692261,-1.909866,0.910057,0.413884,-0.020341,-0.009051
6462,0.299823,7.542659,6.546666,0.295616,0.380848,-0.484874,48.950214,-1.666262,-1.910799,0.910019,0.413976,-0.020139,-0.009151
6463,0.292270,7.537892,6.551481,0.183937,0.345580,-0.215060,48.958153,-1.649513,-1.909327,0.909991,0.414042,-0.020002,-0.009198
6464,0.307621,7.524020,6.539380,0.320608,-0.263495,0.776706,48.966362,-1.655676,-1.902147,0.909962,0.414108,-0.020025,-0.009118
6465,0.313438,7.522539,6.527800,0.644722,-0.575649,1.229726,48.982113,-1.690084,-1.890742,0.909904,0.414228,-0.020258,-0.008900
6466,0.306663,7.513828,6.515406,0.627673,-0.418522,1.028002,49.002960,-1.729352,-1.878550,0.909827,0.414389,-0.020528,-0.008657
6467,0.312545,7.509833,6.527331,0.296786,-0.525467,1.232720,49.017975,-1.768113,-1.865706,0.909772,0.414503,-0.020790,-0.008412
6469,0.318885,7.496552,6.524585,0.204669,-0.571005,1.331943,49.025894,-1.812367,-1.851464,0.909741,0.414560,-0.021090,-0.008137
6470,0.317681,7.506935,6.531649,0.281740,-0.357453,1.147829,49.033501,-1.853719,-1.836041,0.909712,0.414616,-0.021363,-0.007864
6471,0.319121,7.514128,6.524307,0.523031,-0.257168,0.934643,49.046417,-1.886644,-1.821017,0.909664,0.414715,-0.021571,-0.007623
6472,0.321182,7.514154,6.505547,0.920406,-0.150802,0.793240,49.070023,-1.912853,-1.807275,0.909577,0.414900,-0.021731,-0.007414
6473,0.318342,7.510499,6.506588,0.350219,0.353847,0.350922,49.090702,-1.925047,-1.792221,0.909502,0.415065,-0.021774,-0.007247
6474,0.320091,7.520149,6.500331,0.583666,0.649337,0.219800,49.105629,-1.921288,-1.773345,0.909450,0.415188,-0.021677,-0.007108
6475,0.320886,7.502615,6.487011,0.371377,0.793218,0.047098,49.120850,-1.908914,-1.752246,0.909397,0.415315,-0.021503,-0.006982
6476,0.320491,7.501296,6.499419,-0.239170,1.066087,-0.297206,49.122360,-1.885481,-1.731532,0.909394,0.415335,-0.021243,-0.006903
6477,0.320039,7.508962,6.515299,-0.237714,1.075581,-0.218710,49.113708,-1.855617,-1.710163,0.909429,0.415275,-0.020928,-0.006843
6478,0.324760,7.532146,6.505811,0.829764,0.629035,0.173028,49.122910,-1.836447,-1.689170,0.909399,0.415356,-0.020700,-0.006744
6479,0.319091,7.532520,6.524987,-0.040475,0.536560,-0.228854,49.135605,-1.823033,-1.675080,0.909354,0.415461,-0.020543,-0.006679
6480,0.315799,7.536934,6.532991,-0.117116,0.521377,-0.464563,49.132801,-1.802756,-1.669305,0.909366,0.415444,-0.020361,-0.006707
6481,0.316609,7.544939,6.509971,0.834054,0.181334,-0.046158,49.144638,-1.788656,-1.666015,0.909325,0.415541,-0.020238,-0.006730
6482,0.315060,7.515371,6.513386,-0.383883,0.219566,-0.356655,49.152130,-1.779208,-1.665350,0.909298,0.415602,-0.020161,-0.006758
6483,0.314347,7.492123,6.519332,-1.219213,0.277540,-0.507712,49.125500,-1.762892,-1.668512,0.909396,0.415393,-0.020042,-0.006847
6484,0.325601,7.521586,6.507779,-0.142926,-0.327011,0.275223,49.102905,-1.760503,-1.671674,0.909478,0.415213,-0.020033,-0.006884
6485,0.318372,7.526552,6.505346,0.017274,-0.421576,0.270852,49.100918,-1.775551,-1.675149,0.909483,0.415194,-0.020165,-0.006858
6486,0.309626,7.492575,6.513581,-0.861906,-0.104553,-0.177068,49.087013,-1.782474,-1.680755,0.909533,0.415082,-0.020239,-0.006880
6487,0.308762,7.510543,6.505812,-0.249403,-0.173351,-0.075025,49.068680,-1.782333,-1.687009,0.909599,0.414935,-0.020260,-0.006933
6488,0.309065,7.535659,6.501661,0.553091,-0.201530,-0.033114,49.073933,-1.785065,-1.692914,0.909580,0.414975,-0.020303,-0.006969
6489,0.304257,7.503268,6.509603,-0.198017,0.221899,-0.489708,49.080009,-1.778258,-1.698367,0.909558,0.415024,-0.020269,-0.007036
6490,0.308607,7.509057,6.526900,-0.575943,0.257936,-0.416331,49.067242,-1.761610,-1.702220,0.909605,0.414925,-0.020150,-0.007129
6491,0.316291,7.528383,6.506629,0.556314,-0.129813,0.070838,49.066982,-1.755861,-1.704381,0.909606,0.414923,-0.020112,-0.007167
6492,0.307502,7.527831,6.518401,0.334489,0.077106,-0.185088,49.081886,-1.754998,-1.706293,0.909552,0.415041,-0.020113,-0.007183
6493,0.297858,7.522704,6.527396,-0.184432,0.359615,-0.496999,49.084446,-1.741640,-1.708239,0.909543,0.415064,-0.020014,-0.007246
6494,0.305540,7.523942,6.516928,0.227704,-0.018979,0.145758,49.085148,-1.733498,-1.707783,0.909541,0.415071,-0.019948,-0.007272
6495,0.304685,7.503184,6.496235,0.405853,-0.048895,0.118411,49.095650,-1.737566,-1.705754,0.909503,0.415154,-0.019974,-0.007239
6496,0.301981,7.488775,6.506945,-0.352450,0.172265,-0.213748,49.096527,-1.735019,-1.705240,0.909500,0.415161,-0.019952,-0.007244
6497,0.307839,7.492767,6.512585,-0.365709,0.023358,0.110158,49.084515,-1.731579,-1.703906,0.909544,0.415067,-0.019919,-0.007248
6498,0.316692,7.482483,6.515662,-0.546783,-0.329901,0.549929,49.069210,-1.743239,-1.700559,0.909599,0.414944,-0.019998,-0.007182
6499,0.307263,7.482631,6.512599,-0.348990,-0.028358,0.010587,49.054234,-1.754208,-1.698948,0.909653,0.414823,-0.020079,-0.007132
6500,0.298019,7.504828,6.516837,-0.032552,0.281640,-0.337888,49.047890,-1.747321,-1.699335,0.909676,0.414774,-0.020025,-0.007161
6501,0.293893,7.506971,6.535315,-0.583215,0.390761,-0.513235,49.037640,-1.729262,-1.700170,0.909714,0.414696,-0.019884,-0.007235
6502,0.292195,7.505329,6.521309,-0.223238,0.383521,-0.466360,49.024227,-1.708474,-1.701131,0.909764,0.414592,-0.019722,-0.007321
6503,0.293007,7.520095,6.516951,0.263830,0.322792,-0.398265,49.024929,-1.689875,-1.701693,0.909763,0.414601,-0.019576,-0.007392
6504,0.297496,7.523101,6.518592,0.138412,0.247558,-0.238110,49.031624,-1.675634,-1.701470,0.909739,0.414657,-0.019463,-0.007441
6505,0.302532,7.504125,6.520535,-0.230667,0.046583,0.155073,49.029995,-1.671375,-1.698674,0.909746,0.414645,-0.019419,-0.007434
6506,0.295239,7.509525,6.513763,0.160444,0.038377,0.152500,49.028698,-1.674317,-1.694242,0.909750,0.414635,-0.019426,-0.007389
6507,0.297888,7.517372,6.513551,0.229308,-0.143153,0.203184,49.035114,-1.679938,-1.691673,0.909727,0.414685,-0.019462,-0.007347
6508,0.290292,7.505921,6.511150,-0.045238,0.125633,-0.044653,49.038139,-1.682124,-1.690160,0.909716,0.414709,-0.019474,-0.007326
6509,0.284475,7.505669,6.524422,-0.601502,0.340838,-0.330801,49.027313,-1.672302,-1.688392,0.909756,0.414625,-0.019389,-0.007350
6510,0.280805,7.499797,6.527020,-0.880954,0.382048,-0.583452,49.002636,-1.652898,-1.689291,0.909846,0.414432,-0.019236,-0.007431
6511,0.281764,7.506751,6.520031,-0.477104,0.305840,-0.442189,48.980072,-1.632475,-1.691858,0.909929,0.414256,-0.019082,-0.007529
6512,0.269192,7.516562,6.526167,-0.302484,0.756018,-0.971482,48.967133,-1.603084,-1.693972,0.909977,0.414158,-0.018855,-0.007655
6513,0.275483,7.511741,6.535451,-0.473569,0.628900,-0.834595,48.954269,-1.565225,-1.696327,0.910026,0.414062,-0.018562,-0.007812
6514,0.263708,7.498816,6.533340,-0.497106,0.659286,-0.847709,48.938141,-1.529980,-1.698552,0.910086,0.413939,-0.018290,-0.007960
6515,0.264109,7.516662,6.521014,0.193912,0.414063,-0.607476,48.933163,-1.499943,-1.700997,0.910105,0.413904,-0.018059,-0.008089
6516,0.272723,7.513944,6.524912,0.080740,0.120295,-0.307750,48.937832,-1.482591,-1.704303,0.910089,0.413944,-0.017934,-0.008177
6517,0.271207,7.485229,6.533748,-0.676250,0.040893,-0.118154,48.927971,-1.475475,-1.706941,0.910125,0.413866,-0.017886,-0.008225
6518,0.263982,7.493949,6.518775,0.068981,-0.060533,-0.150230,48.917934,-1.472318,-1.710129,0.910161,0.413787,-0.017872,-0.008264
6519,0.269888,7.499536,6.519351,0.302067,-0.250532,0.120263,48.924225,-1.475348,-1.714366,0.910138,0.413835,-0.017912,-0.008285
6520,0.265207,7.494770,6.533135,-0.119157,-0.053579,0.024520,48.927322,-1.480497,-1.716602,0.910126,0.413859,-0.017961,-0.008284
6521,0.255754,7.508280,6.543898,-0.622651,0.070670,-0.065900,48.914967,-1.479790,-1.716841,0.910171,0.413761,-0.017955,-0.008291
6522,0.254291,7.514101,6.548316,-0.780194,-0.062813,0.149221,48.891567,-1.480751,-1.715829,0.910255,0.413575,-0.017958,-0.008283
6523,0.246307,7.494913,6.555687,-2.037164,0.252731,-0.144190,48.844540,-1.478732,-1.713389,0.910425,0.413202,-0.017929,-0.008278
6524,0.245839,7.489236,6.577623,-3.606893,0.350333,-0.248786,48.750393,-1.467183,-1.710139,0.910765,0.412456,-0.017819,-0.008308
6525,0.248394,7.474761,6.598068,-4.758350,0.071944,0.028016,48.610901,-1.459772,-1.707282,0.911267,0.411349,-0.017740,-0.008334
6526,0.255111,7.453736,6.618966,-6.687186,0.265055,-0.286812,48.420105,-1.452820,-1.705936,0.911951,0.409833,-0.017666,-0.008378
6527,0.265768,7.459784,6.656380,-9.803905,0.641062,-0.987325,48.145325,-1.426918,-1.708791,0.912932,0.407648,-0.017450,-0.008535
6528,0.254237,7.397856,6.720302,-13.217327,0.764600,-1.427437,47.761871,-1.381338,-1.718341,0.914293,0.404597,-0.017091,-0.008831
6529,0.246927,7.327324,6.756967,-15.705370,0.540837,-1.177263,47.280155,-1.334626,-1.731615,0.915986,0.400756,-0.016727,-0.009172
6530,0.241785,7.252149,6.806094,-17.212543,0.358206,-0.587471,46.731743,-1.302899,-1.740734,0.917894,0.396371,-0.016460,-0.009435
6531,0.229344,7.170011,6.878361,-18.902309,0.156223,-0.057755,46.129879,-1.289210,-1.741960,0.919964,0.391547,-0.016305,-0.009578
6532,0.216275,7.042910,6.963736,-19.642618,-0.157927,0.328430,45.487404,-1.292475,-1.738859,0.922145,0.386383,-0.016267,-0.009633
6533,0.230449,6.990403,7.023041,-18.973141,-0.396719,0.669133,44.843708,-1.310784,-1.733714,0.924300,0.381194,-0.016343,-0.009622
6534,0.232979,6.934390,7.112630,-18.463293,-0.197111,0.254508,44.219704,-1.328638,-1.729700,0.926362,0.376153,-0.016421,-0.009620
6535,0.232899,6.855832,7.197284,-18.537014,0.088134,-0.921216,43.603260,-1.322233,-1.738948,0.928372,0.371164,-0.016347,-0.009804
6536,0.228367,6.781878,7.270037,-17.955399,0.243310,-1.641316,42.995693,-1.288894,-1.766203,0.930326,0.366238,-0.016112,-0.010218
6537,0.225170,6.738629,7.319245,-17.477903,0.322875,-1.933475,42.405975,-1.241536,-1.803569,0.932196,0.361448,-0.015791,-0.010754
6538,0.218117,6.691562,7.399361,-18.371016,0.739699,-2.307747,41.809376,-1.180993,-1.844131,0.934064,0.356594,-0.015368,-0.011355
6539,0.204793,6.626766,7.474343,-19.863663,1.334842,-2.591835,41.172909,-1.101000,-1.882378,0.936029,0.351409,-0.014769,-0.011999
6540,0.191377,6.530805,7.553132,-21.180969,1.774497,-2.573252,40.489418,-1.005520,-1.913613,0.938107,0.345831,-0.014010,-0.012631
6541,0.170900,6.436609,7.620703,-22.319483,2.143943,-2.803689,39.764885,-0.897852,-1.940041,0.940274,0.339907,-0.013124,-0.013255
6542,0.157321,6.333268,7.709990,-23.576464,2.400452,-2.382415,39.000259,-0.784479,-1.958779,0.942520,0.333642,-0.012158,-0.013827
6543,0.131114,6.206357,7.774640,-23.816137,2.561259,-2.085976,38.210506,-0.673424,-1.965393,0.944797,0.327156,-0.011166,-0.014282
6544,0.111420,6.087873,7.862164,-23.652250,2.409796,-1.698349,37.419395,-0.569327,-1.964428,0.947033,0.320642,-0.010204,-0.014643
6545,0.088166,6.016233,7.934091,-22.652723,2.282136,-1.082164,36.647591,-0.479010,-1.954343,0.949171,0.314271,-0.009329,-0.014875
6546,0.090454,5.914502,8.027156,-22.135334,2.154374,-0.403462,35.900970,-0.404777,-1.930577,0.951201,0.308093,-0.008552,-0.014938
6547,0.095102,5.812080,8.097973,-20.939669,1.890116,-0.071666,35.182873,-0.345354,-1.897862,0.953116,0.302137,-0.007878,-0.014876
6548,0.095350,5.691123,8.176466,-20.108833,1.462898,0.434332,34.498543,-0.302953,-1.860991,0.954907,0.296448,-0.007340,-0.014725
6549,0.089328,5.622538,8.221826,-19.356892,1.257585,0.468433,33.840618,-0.273901,-1.823107,0.956598,0.290967,-0.006917,-0.014525
6550,0.091298,5.589211,8.345574,-20.202625,1.260495,0.552851,33.181141,-0.248306,-1.785753,0.958261,0.285463,-0.006526,-0.014316
6551,0.078890,5.492955,8.412573,-22.752583,1.473655,1.208015,32.465046,-0.225922,-1.736396,0.960031,0.279475,-0.006128,-0.013997
6552,0.053180,5.364425,8.460608,-24.391136,1.778868,0.971507,31.679129,-0.199302,-1.676846,0.961932,0.272891,-0.005667,-0.013602
6553,0.040296,5.274861,8.520593,-25.221407,1.927696,0.500381,30.852135,-0.159222,-1.623800,0.963882,0.265949,-0.005108,-0.013290
6554,0.036677,5.133327,8.596292,-24.824926,1.610915,0.562565,30.017971,-0.117326,-1.578633,0.965797,0.258932,-0.004556,-0.013041
6555,0.031391,4.943378,8.591939,-22.928221,1.358007,0.396486,29.222063,-0.082208,-1.540301,0.967575,0.252223,-0.004085,-0.012826
6556,0.020682,4.843503,8.652590,-18.918316,1.155745,-0.509651,28.524628,-0.044601,-1.521726,0.969094,0.246335,-0.003649,-0.012774
6557,0.025589,4.798988,8.732074,-15.435260,0.500096,-0.434746,27.952091,-0.012802,-1.522512,0.970312,0.241493,-0.003317,-0.012866
6558,0.022559,4.718152,8.764502,-12.843239,0.226898,0.067169,27.480795,0.000783,-1.522318,0.971296,0.237502,-0.003149,-0.012906
6559,0.021980,4.649416,8.806586,-11.896770,0.638409,0.086809,27.068470,0.012414,-1.513442,0.972145,0.234007,-0.002985,-0.012865
6560,0.027249,4.618256,8.863994,-11.628030,0.658821,0.019376,26.676395,0.030893,-1.502079,0.972941,0.230682,-0.002762,-0.012816
6561,0.035732,4.574508,8.892929,-11.753560,0.536259,0.107498,26.286718,0.047780,-1.491303,0.973720,0.227374,-0.002553,-0.012768
6562,0.024812,4.486923,8.913541,-12.917239,1.166867,0.018878,25.875559,0.072348,-1.476937,0.974531,0.223882,-0.002270,-0.012703
6563,0.023219,4.424611,8.978728,-14.529860,1.495122,-0.348349,25.418135,0.114715,-1.462668,0.975417,0.219995,-0.001832,-0.012671
6564,0.007034,4.338829,9.005386,-15.522031,1.322559,-0.455889,24.917301,0.162925,-1.454818,0.976368,0.215735,-0.001351,-0.012703
6565,-0.009535,4.240047,9.021343,-16.587988,1.559486,-0.606215,24.382160,0.213970,-1.450881,0.977364,0.211178,-0.000849,-0.012770
6566,-0.017585,4.124952,9.061593,-17.497471,1.588828,-0.089440,23.814133,0.266603,-1.440034,0.978398,0.206337,-0.000316,-0.012776
6567,-0.017012,4.023491,9.097267,-17.487024,1.087161,0.313481,23.231171,0.305986,-1.418821,0.979435,0.201361,0.000122,-0.012665
6568,-0.021096,3.929388,9.115729,-17.486435,0.860234,0.349736,22.648424,0.331559,-1.396018,0.980448,0.196380,0.000445,-0.012513
6569,-0.025225,3.855824,9.176438,-17.769293,0.879202,0.524396,22.060989,0.352831,-1.371527,0.981443,0.191353,0.000732,-0.012336
6570,-0.025812,3.762530,9.218219,-17.762606,0.372451,0.913436,21.468994,0.363312,-1.341539,0.982422,0.186281,0.000934,-0.012092
6572,-0.033529,3.668724,9.273126,-17.733206,0.384472,0.615686,20.877592,0.365863,-1.313245,0.983373,0.181208,0.001063,-0.011849
6573,-0.041533,3.572622,9.316586,-17.652777,0.643988,0.391617,20.287985,0.376019,-1.291497,0.984294,0.176147,0.001245,-0.011672
6574,-0.042433,3.465429,9.368997,-16.872297,0.655363,0.571772,19.712736,0.390882,-1.268989,0.985167,0.171205,0.001465,-0.011494
6575,-0.032011,3.360562,9.389675,-15.966680,0.688396,0.706420,19.165625,0.404902,-1.241447,0.985976,0.166500,0.001680,-0.011270
6576,-0.035254,3.273294,9.435249,-14.944585,1.198498,0.593049,18.650675,0.427627,-1.210767,0.986716,0.162069,0.001970,-0.011031
6577,-0.041934,3.184206,9.445699,-14.465038,1.405029,0.263974,18.160738,0.464285,-1.183492,0.987401,0.157851,0.002371,-0.010838
6578,-0.055585,3.082455,9.478705,-14.760813,1.634251,-0.058377,17.673809,0.511435,-1.164636,0.988062,0.153658,0.002849,-0.010728
6579,-0.060567,3.007725,9.507469,-14.455661,1.660413,0.159142,17.187050,0.563330,-1.146574,0.988705,0.149463,0.003365,-0.010628
6580,-0.068181,2.923347,9.528496,-14.066549,1.588731,0.094755,16.711891,0.613887,-1.126739,0.989315,0.145365,0.003871,-0.010506
6581,-0.076823,2.823148,9.553276,-14.317801,1.354592,-0.145486,16.238974,0.661169,-1.113638,0.989905,0.141284,0.004339,-0.010435
6582,-0.081729,2.752370,9.581188,-13.520309,0.741677,0.164605,15.775133,0.694674,-1.103703,0.990467,0.137279,0.004683,-0.010372
6583,-0.075734,2.701510,9.598166,-12.389124,0.150563,0.467363,15.343486,0.706169,-1.089587,0.990978,0.133547,0.004838,-0.010246
6584,-0.086721,2.614070,9.606364,-12.128875,-0.263124,0.174014,14.934979,0.701561,-1.079778,0.991449,0.130013,0.004845,-0.010138
6585,-0.080671,2.559832,9.622747,-11.937860,-0.920703,0.043174,14.533853,0.681571,-1.081305,0.991899,0.126540,0.004706,-0.010112
6586,-0.074097,2.492231,9.623868,-11.196954,-1.187314,0.186516,14.148220,0.646593,-1.086317,0.992321,0.123199,0.004432,-0.010102
6587,-0.066074,2.420319,9.637074,-10.976151,-1.131048,-0.279381,13.778551,0.609467,-1.097153,0.992714,0.119994,0.004132,-0.010143
6588,-0.063582,2.358192,9.650158,-10.930865,-1.188497,-0.541683,13.413208,0.575121,-1.119539,0.993092,0.116827,0.003843,-0.010289
6589,-0.055241,2.314741,9.671861,-10.555631,-1.076635,-0.691731,13.054822,0.543085,-1.148193,0.993451,0.113719,0.003569,-0.010493
6590,-0.056697,2.251091,9.677405,-10.318972,-0.848427,-0.624047,12.706650,0.516700,-1.176721,0.993791,0.110698,0.003345,-0.010704
6591,-0.054874,2.199331,9.710576,-10.447805,-0.629811,-0.665895,12.360309,0.497314,-1.203051,0.994119,0.107693,0.003184,-0.010904
6592,-0.051125,2.164076,9.735188,-10.227166,-0.377522,-0.106841,12.015588,0.483622,-1.219178,0.994438,0.104702,0.003083,-0.011022
6593,-0.045616,2.109742,9.756021,-9.839402,-0.223081,0.321388,11.681162,0.473076,-1.217731,0.994740,0.101798,0.003025,-0.010991
6594,-0.043521,2.067737,9.751578,-9.199826,0.037440,0.522490,11.363954,0.467224,-1.204566,0.995019,0.099043,0.003016,-0.010864
6595,-0.048130,2.014218,9.783673,-8.767755,0.506317,0.616297,11.064661,0.472416,-1.184181,0.995276,0.096444,0.003107,-0.010683
6596,-0.047895,1.984288,9.797003,-8.157439,0.595491,0.761664,10.782794,0.486090,-1.158140,0.995512,0.093996,0.003273,-0.010460
6597,-0.047704,1.926810,9.798586,-8.215912,0.686575,0.298512,10.510090,0.503821,-1.136825,0.995734,0.091627,0.003469,-0.010281
6598,-0.051438,1.881206,9.794527,-8.683011,1.130208,-0.471194,10.228468,0.534133,-1.134202,0.995955,0.089182,0.003760,-0.010274
6599,-0.061629,1.807557,9.808974,-9.635017,1.384772,-0.984001,9.923013,0.579660,-1.150738,0.996186,0.086532,0.004171,-0.010442
6600,-0.076318,1.739169,9.788503,-10.319674,1.216467,-1.612947,9.590066,0.629730,-1.186046,0.996427,0.083642,0.004611,-0.010773
6601,-0.092501,1.683322,9.801956,-11.515074,1.224892,-2.279264,9.225505,0.680489,-1.243399,0.996680,0.080479,0.005046,-0.011293
6602,-0.100565,1.602215,9.809109,-11.834666,1.270473,-2.303720,8.835497,0.733564,-1.312313,0.996938,0.077094,0.005500,-0.011911
6603,-0.109801,1.530899,9.821519,-11.397870,1.064339,-2.122086,8.447407,0.783117,-1.379397,0.997183,0.073726,0.005928,-0.012508
6604,-0.123759,1.469168,9.853223,-11.239088,1.193124,-2.228518,8.069193,0.830763,-1.445762,0.997410,0.070443,0.006344,-0.013095
6605,-0.138994,1.420164,9.877643,-10.914203,1.778534,-2.481267,7.698909,0.890592,-1.516725,0.997620,0.067230,0.006865,-0.013727
6606,-0.147663,1.341014,9.883213,-10.166295,1.663229,-2.234220,7.346435,0.957756,-1.587121,0.997808,0.064173,0.007453,-0.014356
6607,-0.156415,1.304611,9.877235,-9.760255,1.087565,-2.549749,7.013065,1.013206,-1.660508,0.997976,0.061281,0.007938,-0.015003
6608,-0.162886,1.242358,9.879913,-9.553209,0.613884,-2.596196,6.689708,1.051603,-1.742302,0.998131,0.058476,0.008273,-0.015713
6609,-0.155006,1.183284,9.881882,-9.358163,-0.093235,-2.257525,6.373056,1.069429,-1.821710,0.998276,0.055725,0.008433,-0.016390
6610,-0.142019,1.148950,9.879426,-9.373573,-0.749120,-1.872294,6.059563,1.062921,-1.891683,0.998415,0.052998,0.008389,-0.016974
6611,-0.140918,1.084576,9.874293,-9.970123,-0.799778,-2.303252,5.735853,1.044386,-1.963587,0.998552,0.050180,0.008244,-0.017568
6612,-0.144843,0.999705,9.897798,-10.143889,-0.579251,-2.238427,5.399219,1.028862,-2.041166,0.998684,0.047250,0.008128,-0.018214
6613,-0.137870,0.942552,9.894081,-9.936673,-0.563291,-2.158787,5.063210,1.016578,-2.115889,0.998807,0.044325,0.008046,-0.018837
6614,-0.138423,0.903219,9.896212,-9.994308,-0.654463,-2.181378,4.729731,1.002530,-2.189705,0.998921,0.041421,0.007951,-0.019452
6615,-0.131260,0.828527,9.913747,-10.289234,-0.851072,-2.101698,4.390407,0.983193,-2.262870,0.999028,0.038465,0.007816,-0.020059
6616,-0.125147,0.784779,9.932156,-10.064246,-0.607967,-1.172142,4.050232,0.962954,-2.319088,0.999129,0.035499,0.007681,-0.020520
6617,-0.121545,0.758605,9.923967,-10.197902,-0.256582,-0.481504,3.712058,0.950421,-2.347560,0.999226,0.032550,0.007624,-0.020742
6618,-0.126600,0.685467,9.930675,-11.510184,0.404807,-0.110097,3.350100,0.953476,-2.357243,0.999322,0.029395,0.007714,-0.020803
6619,-0.137070,0.591949,9.916723,-12.304596,1.320899,0.198875,2.953242,0.982102,-2.354167,0.999416,0.025939,0.008036,-0.020756
6620,-0.152661,0.505254,9.910618,-12.539549,1.923505,0.578952,2.539453,1.035481,-2.338601,0.999501,0.022338,0.008580,-0.020601
6621,-0.171874,0.426303,9.889968,-12.417298,1.943045,0.574367,2.123917,1.099075,-2.316753,0.999574,0.018723,0.009213,-0.020389
6622,-0.185368,0.348868,9.904484,-11.229741,1.770567,0.984053,1.730358,1.160059,-2.288707,0.999632,0.015298,0.009819,-0.020121
6623,-0.194418,0.304571,9.919125,-8.889527,1.303752,1.398630,1.395889,1.210181,-2.247604,0.999675,0.012385,0.010319,-0.019739
6624,-0.192027,0.289709,9.934506,-6.037772,0.570786,1.686246,1.148214,1.240257,-2.195499,0.999706,0.010225,0.010629,-0.019265
6625,-0.190028,0.266593,9.969060,-1.335893,-0.549592,2.035963,1.026659,1.239417,-2.133460,0.999726,0.009158,0.010647,-0.018712
6626,-0.185048,0.262148,9.968920,2.668109,-1.132644,2.342479,1.050406,1.210038,-2.061000,0.999739,0.009354,0.010392,-0.018080
6627,-0.176501,0.274025,9.962902,4.996825,-1.807579,1.874761,1.179586,1.159655,-1.991672,0.999743,0.010467,0.009939,-0.017482
6628,-0.172756,0.296506,9.955326,6.464343,-2.127927,1.247060,1.371594,1.092905,-1.941108,0.999738,0.012128,0.009332,-0.017051
6629,-0.174764,0.320785,9.954390,6.937791,-1.948315,0.570312,1.595485,1.024193,-1.912586,0.999722,0.014069,0.008703,-0.016812
6630,-0.165811,0.367149,9.936007,7.431608,-1.981652,-0.314224,1.835011,0.958583,-1.910286,0.999696,0.016149,0.008096,-0.016801
6631,-0.156732,0.386928,9.926847,6.224296,-2.067107,-1.065130,2.062196,0.891909,-1.935561,0.999663,0.018123,0.007477,-0.017027
6632,-0.163703,0.394084,9.886817,5.024223,-1.385875,-1.460995,2.249000,0.835970,-1.979797,0.999629,0.019748,0.006954,-0.017415
6633,-0.162023,0.444861,9.920952,5.112500,-0.672599,-1.574744,2.417197,0.803741,-2.031756,0.999593,0.021213,0.006637,-0.017873
6634,-0.141118,0.466563,9.938513,4.719044,-0.987166,-1.404718,2.580351,0.778269,-2.082587,0.999556,0.022635,0.006380,-0.018321
6635,-0.137208,0.457236,9.908480,3.432997,-1.030437,-1.126488,2.715638,0.746628,-2.126281,0.999523,0.023812,0.006073,-0.018703
6636,-0.130189,0.493979,9.900929,3.353890,-0.851923,-1.205308,2.828238,0.717170,-2.166616,0.999494,0.024792,0.005789,-0.019054
6637,-0.124150,0.524589,9.935190,3.074695,-0.544237,-1.146003,2.934883,0.695899,-2.206929,0.999465,0.025721,0.005577,-0.019407
6638,-0.116375,0.496250,9.905152,1.284807,-0.690104,-1.021502,3.007096,0.677227,-2.244077,0.999444,0.026349,0.005393,-0.019730
6639,-0.118374,0.498966,9.882575,0.470672,-0.580814,-0.985902,3.035952,0.657833,-2.278603,0.999432,0.026599,0.005211,-0.020028
6640,-0.114762,0.511512,9.902976,0.255071,-0.634820,-0.879938,3.047684,0.639250,-2.310732,0.999425,0.026700,0.005039,-0.020304
6641,-0.108534,0.506837,9.916596,-0.123497,-0.867858,-0.669304,3.049580,0.615613,-2.337850,0.999421,0.026713,0.004826,-0.020536
6642,-0.101597,0.493567,9.913982,-0.742051,-1.030769,-0.606267,3.034915,0.585142,-2.360759,0.999421,0.026581,0.004558,-0.020728
6643,-0.094406,0.512604,9.920575,-0.283921,-1.024223,-0.666266,3.017588,0.552058,-2.383747,0.999423,0.026425,0.004267,-0.020920
6644,-0.090351,0.506680,9.910902,-0.241095,-0.758600,-0.686890,3.008611,0.523572,-2.407833,0.999422,0.026342,0.004015,-0.021123
6645,-0.095405,0.508616,9.918880,-0.180337,-0.165466,-0.723530,3.001368,0.509424,-2.432115,0.999420,0.026277,0.003887,-0.021332
6646,-0.097032,0.529310,9.937118,0.631712,0.205959,-0.598893,3.008694,0.511254,-2.454091,0.999414,0.026342,0.003897,-0.021524
6647,-0.092941,0.545042,9.928720,1.569101,0.206156,-0.526962,3.045208,0.519105,-2.472466,0.999401,0.026663,0.003954,-0.021687
6648,-0.098386,0.560105,9.917138,2.316971,0.370812,-0.571387,3.109814,0.529692,-2.490230,0.999382,0.027229,0.004030,-0.021847
6649,-0.106871,0.559297,9.941689,2.273604,0.476939,-0.561836,3.186153,0.544837,-2.508313,0.999360,0.027898,0.004143,-0.022011
6650,-0.104917,0.587173,9.928163,3.164183,0.261014,-0.574695,3.276608,0.558185,-2.526534,0.999333,0.028690,0.004238,-0.022176
6651,-0.100744,0.586453,9.913419,2.654492,-0.160955,-0.509701,3.373411,0.560899,-2.544478,0.999305,0.029535,0.004238,-0.022337
6652,-0.100731,0.592515,9.914971,1.967290,-0.364678,-0.465237,3.450278,0.553121,-2.561218,0.999282,0.030205,0.004151,-0.022484
6653,-0.102315,0.585620,9.915200,1.099594,-0.216373,-0.278398,3.501269,0.544205,-2.574175,0.999267,0.030648,0.004059,-0.022596
6654,-0.104752,0.616686,9.920868,1.114481,0.050194,-0.108723,3.538108,0.541837,-2.580786,0.999256,0.030969,0.004030,-0.022655
6655,-0.092244,0.608236,9.943527,-0.102174,-0.339610,0.017282,3.554962,0.537117,-2.582605,0.999251,0.031115,0.003985,-0.022670
6656,-0.089248,0.588296,9.929530,-0.924291,-0.277539,0.008473,3.537853,0.526824,-2.582812,0.999256,0.030964,0.003898,-0.022668
6657,-0.082510,0.589393,9.918081,-0.899447,-0.402291,0.142547,3.507474,0.515361,-2.580996,0.999265,0.030697,0.003805,-0.022648
6658,-0.081728,0.597585,9.922414,-0.751688,-0.261129,-0.125910,3.479952,0.504307,-2.581393,0.999273,0.030455,0.003714,-0.022648
6659,-0.084068,0.578095,9.937963,-1.251139,-0.034757,-0.258406,3.446512,0.499772,-2.588084,0.999280,0.030162,0.003679,-0.022704
6660,-0.098652,0.569764,9.917834,-0.768610,0.338880,-0.106515,3.412799,0.505195,-2.593852,0.999288,0.029870,0.003732,-0.022755
6661,-0.103501,0.589059,9.927823,-0.089867,0.270577,-0.057887,3.398472,0.515498,-2.595983,0.999291,0.029747,0.003824,-0.022775
6662,-0.113288,0.591975,9.938966,0.168397,0.809427,-0.287590,3.399738,0.533808,-2.600663,0.999289,0.029762,0.003982,-0.022821
6663,-0.102419,0.592315,9.924341,0.526120,0.252721,0.111979,3.411296,0.551653,-2.602533,0.999284,0.029866,0.004135,-0.022842
6664,-0.086371,0.600312,9.891836,0.701730,-0.738540,0.229691,3.431808,0.543231,-2.597331,0.999280,0.030043,0.004059,-0.022796
6665,-0.077334,0.603352,9.919588,0.006040,-0.715704,-0.259856,3.443587,0.519067,-2.599285,0.999278,0.030141,0.003845,-0.022807
6666,-0.061572,0.600098,9.927232,-0.073848,-1.002685,-0.283287,3.442361,0.491022,-2.610040,0.999278,0.030125,0.003598,-0.022893
6667,-0.030081,0.582681,9.930255,-0.606512,-2.740065,0.340554,3.430999,0.428698,-2.612826,0.999282,0.030014,0.003056,-0.022901
6668,-0.037143,0.552662,9.917062,-1.916792,-2.795024,0.203529,3.388971,0.336070,-2.609261,0.999297,0.029629,0.002257,-0.022845
6669,-0.056187,0.563504,9.905002,-1.274235,-1.636373,-0.049370,3.335776,0.262190,-2.611019,0.999313,0.029151,0.001623,-0.022840
6670,-0.066232,0.584339,9.899348,-0.036774,-0.744219,0.279557,3.313932,0.222359,-2.609489,0.999320,0.028952,0.001281,-0.022817
6671,-0.082668,0.576925,9.916299,-0.092605,0.713317,0.247804,3.311810,0.221336,-2.600746,0.999322,0.028933,0.001274,-0.022740
6672,-0.090553,0.584970,9.923367,0.229505,1.928459,-0.009706,3.314121,0.265063,-2.594240,0.999322,0.028962,0.001657,-0.022694
6673,-0.076606,0.593827,9.937096,0.758720,1.921831,0.173825,3.330626,0.328968,-2.587790,0.999317,0.029118,0.002213,-0.022655
6675,-0.056358,0.581329,9.958941,0.130050,1.061209,0.346987,3.345510,0.378095,-2.576226,0.999314,0.029258,0.002641,-0.022567
6676,-0.042469,0.555476,9.934913,-0.675977,-0.058536,0.404133,3.336500,0.394049,-2.562756,0.999318,0.029182,0.002785,-0.022453
6677,-0.043234,0.575769,9.926296,-0.231468,-0.750650,0.306226,3.321450,0.379899,-2.551721,0.999325,0.029047,0.002668,-0.022353
6678,-0.060047,0.582806,9.946942,-0.190284,-0.505053,0.181113,3.314464,0.358535,-2.544825,0.999328,0.028982,0.002485,-0.022287
6679,-0.068534,0.588239,9.948342,-0.243272,-0.332301,0.016204,3.307253,0.344413,-2.542347,0.999331,0.028917,0.002363,-0.022262
6680,-0.077192,0.581671,9.914219,-0.221332,0.200118,-0.071302,3.299504,0.342266,-2.543391,0.999333,0.028849,0.002346,-0.022270
6681,-0.072267,0.587424,9.924779,-0.099768,0.318000,-0.086618,3.294139,0.351039,-2.545522,0.999334,0.028804,0.002423,-0.022291
6682,-0.067766,0.562510,9.928052,-0.563202,0.323090,0.161484,3.283101,0.361634,-2.543664,0.999336,0.028709,0.002518,-0.022277
6683,-0.070537,0.556221,9.901265,-0.343284,0.738846,-0.009233,3.268016,0.379159,-2.540119,0.999340,0.028581,0.002675,-0.022250
6684,-0.065077,0.565137,9.930264,0.239704,0.461289,0.121528,3.266310,0.399023,-2.537109,0.999341,0.028570,0.002849,-0.022229
6685,-0.052648,0.573195,9.950474,0.841834,-0.560299,0.412598,3.284397,0.396866,-2.528316,0.999338,0.028727,0.002829,-0.022152
6686,-0.059240,0.580524,9.934551,1.130696,-0.537004,0.273396,3.317342,0.377950,-2.517953,0.999332,0.029011,0.002660,-0.022058
6687,-0.066915,0.572866,9.925392,0.525461,-0.176834,-0.009368,3.344968,0.365816,-2.514251,0.999326,0.029249,0.002550,-0.022023
6688,-0.066603,0.584281,9.925853,0.566632,-0.362281,-0.022210,3.363163,0.356877,-2.515303,0.999322,0.029406,0.002468,-0.022030
6689,-0.077288,0.587899,9.906250,0.401271,0.399522,-0.373596,3.379254,0.357885,-2.521852,0.999316,0.029547,0.002472,-0.022088
6690,-0.083915,0.562766,9.925468,-0.934903,1.075054,-0.609562,3.370263,0.383382,-2.536763,0.999315,0.029474,0.002692,-0.022224
6691,-0.075926,0.571953,9.919206,-0.560681,0.616317,-0.653823,3.345201,0.412755,-2.556135,0.999316,0.029261,0.002949,-0.022400
6692,-0.060014,0.596313,9.914015,0.362435,-0.068346,-0.616530,3.341748,0.423108,-2.576740,0.999313,0.029234,0.003034,-0.022582
6693,-0.055738,0.584161,9.929063,-0.199962,-0.253731,-0.607198,3.344305,0.418940,-2.597414,0.999308,0.029256,0.002992,-0.022762
6694,-0.057427,0.572057,9.950510,-0.478674,-0.742609,-0.365017,3.332871,0.403305,-2.614557,0.999308,0.029153,0.002854,-0.022907
6695,-0.051153,0.597700,9.938875,0.786823,-1.426028,-0.078007,3.337945,0.367652,-2.624032,0.999306,0.029191,0.002539,-0.022981
6696,-0.057707,0.588368,9.936971,0.527282,-1.154208,0.130283,3.359837,0.324671,-2.625678,0.999302,0.029373,0.002160,-0.022984
6697,-0.065637,0.579672,9.929978,0.236886,-0.721000,0.082780,3.372583,0.293264,-2.623967,0.999300,0.029478,0.001884,-0.022962
6698,-0.066959,0.587567,9.930779,0.533380,-0.302749,0.082207,3.385430,0.276069,-2.622227,0.999297,0.029586,0.001732,-0.022942
6699,-0.056628,0.578446,9.912792,0.516594,-0.106911,-0.057476,3.402929,0.269229,-2.622221,0.999293,0.029738,0.001668,-0.022941
6700,-0.057939,0.579399,9.902764,0.602065,0.452963,-0.293450,3.421548,0.275334,-2.627717,0.999287,0.029901,0.001717,-0.022991
6701,-0.048453,0.582059,9.941611,0.671445,0.107655,-0.204749,3.442734,0.285158,-2.635446,0.999280,0.030088,0.001796,-0.023061
6702,-0.035162,0.583361,9.958479,0.588577,-0.678351,-0.338989,3.463688,0.276209,-2.645065,0.999272,0.030269,0.001711,-0.023143
6703,-0.035182,0.583311,9.951368,0.547029,-1.279505,-0.490613,3.482544,0.244476,-2.660842,0.999265,0.030427,0.001426,-0.023272
6704,-0.035330,0.607884,9.937210,0.830325,-1.894476,-0.482037,3.505426,0.192662,-2.680245,0.999256,0.030617,0.000965,-0.023428
6705,-0.029811,0.617174,9.918972,0.652576,-1.999934,-0.668815,3.530076,0.129055,-2.703373,0.999246,0.030819,0.000399,-0.023613
6706,-0.029426,0.622254,9.894987,0.422461,-1.300277,-0.781807,3.547944,0.075648,-2.730897,0.999236,0.030964,-0.000078,-0.023838
6707,-0.033817,0.628563,9.876938,0.509363,-0.435653,-0.599351,3.563446,0.048198,-2.755667,0.999227,0.031093,-0.000327,-0.024047
6708,-0.023147,0.641769,9.872161,0.691284,0.074957,-0.513485,3.583440,0.043355,-2.774554,0.999218,0.031266,-0.000379,-0.024210
6709,-0.014294,0.645067,9.887136,0.702406,0.658404,-0.449017,3.606655,0.056560,-2.789798,0.999208,0.031471,-0.000273,-0.024347
6710,-0.014800,0.637097,9.914138,0.300513,1.256248,-0.308079,3.623356,0.089203,-2.800380,0.999201,0.031624,0.000005,-0.024448
6711,-0.019112,0.632275,9.935761,-0.038080,1.426513,-0.380113,3.627713,0.134551,-2.809001,0.999197,0.031672,0.000397,-0.024536
6712,-0.020570,0.624225,9.953829,-0.249469,0.892635,-0.261443,3.622898,0.173802,-2.817230,0.999196,0.031638,0.000738,-0.024618
6713,-0.020210,0.619262,9.958787,-0.301304,-0.017461,-0.072428,3.613704,0.188710,-2.821864,0.999197,0.031561,0.000869,-0.024663
6714,-0.024228,0.602801,9.945618,-0.636938,-0.471143,-0.010191,3.598060,0.180670,-2.823751,0.999201,0.031423,0.000802,-0.024677
6715,-0.032325,0.599036,9.928489,-0.616028,-0.857936,0.071407,3.577177,0.158498,-2.824119,0.999207,0.031236,0.000613,-0.024674
6716,-0.036535,0.612255,9.916211,-0.074347,-1.031518,0.019338,3.565669,0.126974,-2.824571,0.999211,0.031129,0.000340,-0.024669
6717,-0.038669,0.634337,9.900817,0.779110,-0.594476,-0.121672,3.577409,0.100033,-2.827964,0.999207,0.031226,0.000102,-0.024691
6718,-0.030114,0.631530,9.891941,0.674076,-0.355626,-0.132299,3.601619,0.084494,-2.833181,0.999200,0.031433,-0.000040,-0.024733
6719,-0.028508,0.633908,9.894736,0.444814,0.177569,-0.217458,3.620259,0.081899,-2.839187,0.999193,0.031595,-0.000068,-0.024784
6720,-0.016609,0.658335,9.910561,0.923678,0.189443,-0.334948,3.643054,0.088587,-2.847987,0.999185,0.031796,-0.000017,-0.024863
6721,-0.005799,0.655582,9.903292,0.814007,-0.060620,-0.247833,3.672000,0.091349,-2.857544,0.999175,0.032049,-0.000002,-0.024947
6722,-0.011919,0.626803,9.898548,-0.461538,0.222992,-0.234529,3.677862,0.094565,-2.865392,0.999171,0.032100,0.000022,-0.025016
6723,-0.019841,0.628970,9.914186,-0.681982,0.675030,-0.304236,3.658788,0.110076,-2.873396,0.999175,0.031938,0.000159,-0.025090
6724,-0.016356,0.636142,9.931946,-0.421741,0.425717,-0.297584,3.640375,0.129023,-2.882239,0.999178,0.031781,0.000326,-0.025173
6725,-0.019022,0.605588,9.913531,-0.984222,0.264964,-0.197637,3.616925,0.141033,-2.889747,0.999182,0.031579,0.000434,-0.025241
6726,-0.024985,0.606617,9.927400,-0.831365,0.138408,-0.123502,3.586653,0.148079,-2.894667,0.999189,0.031317,0.000501,-0.025286
6727,-0.015766,0.613792,9.946589,-0.524079,-0.444121,-0.127399,3.564051,0.143254,-2.899159,0.999195,0.031119,0.000462,-0.025324
6728,-0.022857,0.621121,9.931983,0.122641,-0.377498,-0.128272,3.557348,0.129852,-2.904263,0.999196,0.031057,0.000346,-0.025365
6729,-0.027394,0.604728,9.930131,-0.387874,-0.259620,-0.176256,3.552915,0.119569,-2.909988,0.999196,0.031017,0.000255,-0.025412
6730,-0.034183,0.612902,9.952885,-0.779339,-0.077908,-0.448649,3.533439,0.114597,-2.920730,0.999199,0.030846,0.000214,-0.025504
6731,-0.029352,0.625689,9.920406,0.000584,-0.183489,-0.590071,3.520425,0.111314,-2.938277,0.999198,0.030731,0.000183,-0.025656
6732,-0.018377,0.633088,9.899742,0.858963,-0.326139,-0.324650,3.534721,0.103775,-2.954016,0.999191,0.030854,0.000110,-0.025791
6733,-0.009525,0.612864,9.912844,-0.013744,-0.410701,-0.351270,3.548788,0.092215,-2.966019,0.999185,0.030975,0.000003,-0.025893
6734,-0.008342,0.622834,9.903925,0.621234,-0.397408,-0.218241,3.558898,0.079360,-2.976327,0.999180,0.031060,-0.000114,-0.025979
6735,-0.000965,0.617453,9.896238,0.998473,-0.542013,0.140413,3.585891,0.063815,-2.978598,0.999172,0.031292,-0.000257,-0.025995
6736,-0.007112,0.595737,9.903407,0.101985,-0.033551,0.201296,3.604237,0.053885,-2.973515,0.999168,0.031449,-0.000346,-0.025948
6737,-0.023127,0.616853,9.921384,0.221000,0.541659,-0.008932,3.609624,0.062135,-2.969783,0.999168,0.031498,-0.000274,-0.025918
6738,-0.018960,0.619084,9.912658,0.324099,0.318583,0.097806,3.618712,0.076351,-2.967401,0.999166,0.031581,-0.000152,-0.025901
6739,-0.014064,0.627334,9.914173,0.296388,0.114647,0.182760,3.629061,0.083261,-2.962278,0.999164,0.031672,-0.000092,-0.025858
6740,-0.017236,0.633717,9.920247,0.284189,0.274015,0.067274,3.638744,0.089462,-2.957708,0.999162,0.031758,-0.000039,-0.025820
6741,-0.019877,0.628641,9.934189,-0.304568,0.275226,-0.098263,3.638404,0.098630,-2.957643,0.999162,0.031757,0.000041,-0.025822
6742,-0.013928,0.614385,9.943127,-0.904632,-0.076706,-0.038348,3.618247,0.102076,-2.959706,0.999167,0.031582,0.000075,-0.025841
6743,-0.019983,0.641520,9.928734,0.191904,0.139644,-0.013330,3.606366,0.103177,-2.960500,0.999170,0.031479,0.000087,-0.025848
6744,-0.029713,0.633428,9.929781,-0.082138,0.570803,-0.074088,3.608195,0.115086,-2.961209,0.999169,0.031498,0.000190,-0.025857
6745,-0.030424,0.633121,9.920973,-0.157482,0.386187,-0.036069,3.604200,0.131120,-2.962038,0.999170,0.031466,0.000331,-0.025869
6746,-0.025516,0.635415,9.936239,-0.113896,0.133240,0.077119,3.599680,0.139717,-2.960812,0.999171,0.031429,0.000407,-0.025861
6747,-0.029248,0.627086,9.920164,-0.091507,0.300552,0.010632,3.596261,0.146841,-2.958899,0.999173,0.031401,0.000470,-0.025846
6748,-0.027044,0.611675,9.923856,-0.717686,-0.047377,0.016803,3.582776,0.151024,-2.958178,0.999176,0.031284,0.000510,-0.025841
6749,-0.026770,0.608484,9.916036,-0.753342,-0.189469,-0.084898,3.558255,0.147155,-2.959557,0.999183,0.031069,0.000481,-0.025852
6750,-0.027211,0.610711,9.919637,-0.373777,-0.017092,-0.042421,3.539465,0.143850,-2.961889,0.999187,0.030905,0.000456,-0.025871
6751,-0.021513,0.616162,9.901050,0.282943,-0.149885,0.051724,3.537951,0.141063,-2.961906,0.999188,0.030891,0.000432,-0.025870
6752,-0.022488,0.626902,9.908478,0.351271,-0.118386,0.038853,3.548524,0.136507,-2.960675,0.999185,0.030982,0.000390,-0.025858
6753,-0.024338,0.620650,9.918461,0.097587,0.072680,-0.005644,3.556006,0.135712,-2.960171,0.999183,0.031047,0.000382,-0.025854
6754,-0.024370,0.618816,9.922562,0.058404,0.197218,-0.006271,3.558606,0.140214,-2.960089,0.999183,0.031071,0.000421,-0.025854
6755,-0.018404,0.638594,9.938771,0.520077,0.012154,-0.016114,3.568247,0.143720,-2.960245,0.999180,0.031156,0.000449,-0.025857
6756,-0.024678,0.623640,9.931101,-0.117092,0.305585,-0.154768,3.574957,0.149183,-2.962757,0.999178,0.031216,0.000494,-0.025880
6757,-0.024166,0.606759,9.928740,-0.537692,0.307276,-0.166961,3.564032,0.159711,-2.967474,0.999179,0.031123,0.000587,-0.025924
6758,-0.027819,0.611918,9.927577,-0.358946,0.271155,-0.187084,3.549072,0.169699,-2.972765,0.999182,0.030994,0.000676,-0.025973
6759,-0.037007,0.617676,9.927277,-0.202697,0.580253,-0.301403,3.539689,0.184365,-2.980013,0.999182,0.030916,0.000804,-0.026040
6760,-0.042355,0.593452,9.922777,-0.933269,0.728079,-0.337322,3.520725,0.206785,-2.989296,0.999185,0.030756,0.001002,-0.026127
6761,-0.035085,0.604648,9.923004,-0.415301,0.239145,-0.090715,3.498225,0.223312,-2.995431,0.999189,0.030563,0.001149,-0.026184
6762,-0.032752,0.599984,9.915224,-0.527339,0.107829,-0.098215,3.482503,0.229275,-2.998222,0.999193,0.030428,0.001204,-0.026210
6763,-0.039187,0.604582,9.907866,-0.244953,0.525808,-0.169668,3.469615,0.240087,-3.002038,0.999195,0.030318,0.001300,-0.026246
6764,-0.032964,0.619561,9.936262,0.169985,0.091612,0.022177,3.468359,0.250508,-3.003869,0.999195,0.030309,0.001391,-0.026265
6765,-0.038772,0.614563,9.919539,0.201349,0.312457,0.016282,3.474552,0.257191,-3.002821,0.999193,0.030365,0.001448,-0.026257
6766,-0.045495,0.610567,9.915691,-0.031100,0.579904,-0.052555,3.477391,0.272073,-3.002523,0.999192,0.030393,0.001577,-0.026259
6767,-0.049504,0.619013,9.919575,0.155961,0.672840,-0.032808,3.479471,0.293000,-3.002676,0.999191,0.030416,0.001759,-0.026266
6768,-0.050808,0.605804,9.931753,-0.303009,0.659064,-0.025547,3.477022,0.315216,-3.002300,0.999191,0.030400,0.001954,-0.026268
6769,-0.050995,0.588897,9.893830,-0.537243,0.517815,0.032467,3.463026,0.334788,-3.000998,0.999194,0.030282,0.002128,-0.026262
6770,-0.050698,0.584079,9.903126,-0.802471,0.384051,0.012045,3.440706,0.349747,-2.999353,0.999200,0.030091,0.002264,-0.026251
6771,-0.066322,0.589003,9.901023,-0.428391,0.952895,-0.152300,3.420186,0.372130,-3.000354,0.999204,0.029917,0.002464,-0.026265
6772,-0.078430,0.588544,9.918639,-0.293279,1.219324,-0.090773,3.408145,0.408511,-3.002240,0.999206,0.029820,0.002783,-0.026291
6773,-0.086271,0.592466,9.935237,-0.145731,1.159058,-0.057293,3.400827,0.448227,-3.002349,0.999206,0.029765,0.003131,-0.026302
6774,-0.099060,0.603244,9.930281,0.345795,1.302917,-0.091985,3.404161,0.489335,-3.002396,0.999203,0.029804,0.003489,-0.026313
6775,-0.108342,0.612512,9.916112,0.852760,1.620398,-0.015782,3.424147,0.538077,-3.001287,0.999196,0.029989,0.003909,-0.026316
6776,-0.098753,0.613157,9.932552,0.723335,1.174853,0.210185,3.450474,0.584387,-2.995258,0.999188,0.030229,0.004309,-0.026277
6778,-0.112903,0.606938,9.930622,0.275815,1.416672,0.029324,3.467195,0.627260,-2.988666,0.999183,0.030384,0.004681,-0.026231
6779,-0.131064,0.598647,9.926215,-0.147010,1.976015,-0.056745,3.469377,0.683729,-2.985703,0.999180,0.030416,0.005173,-0.026220
6780,-0.131749,0.595323,9.935610,-0.362918,1.820595,-0.121707,3.460889,0.747070,-2.984849,0.999179,0.030356,0.005728,-0.026229
6781,-0.132477,0.583870,9.930683,-0.651164,1.371051,-0.094310,3.443983,0.800384,-2.985241,0.999179,0.030221,0.006196,-0.026246
6782,-0.138718,0.583811,9.888635,-0.589879,1.458303,-0.340501,3.423235,0.847889,-2.989652,0.999181,0.030051,0.006614,-0.026295
6783,-0.129915,0.590945,9.886248,-0.359932,1.248435,-0.115413,3.407331,0.893375,-2.994551,0.999180,0.029923,0.007013,-0.026349
6784,-0.123638,0.603066,9.905131,-0.001916,0.675532,0.048153,3.401313,0.925451,-2.993765,0.999180,0.029877,0.007294,-0.026350
6785,-0.135610,0.602776,9.946970,-0.244964,0.604250,0.024625,3.397238,0.946671,-2.991288,0.999180,0.029847,0.007481,-0.026333
6786,-0.143116,0.612034,9.977059,-0.157486,0.203272,0.098732,3.390578,0.959984,-2.988439,0.999181,0.029791,0.007599,-0.026312
6787,-0.161561,0.584515,10.003661,-1.007076,-0.137177,0.348375,3.371294,0.960645,-2.980934,0.999188,0.029623,0.007612,-0.026245
6788,-0.158936,0.562838,9.975080,-1.189510,-1.243885,0.511158,3.334899,0.936828,-2.967978,0.999202,0.029299,0.007416,-0.026124
6789,-0.140874,0.546608,9.917363,-1.236582,-2.413586,0.622249,3.294705,0.874880,-2.952645,0.999220,0.028934,0.006888,-0.025972
6790,-0.139437,0.534382,9.878615,-1.379403,-2.176958,0.549748,3.251325,0.797381,-2.937514,0.999240,0.028538,0.006226,-0.025818
6791,-0.139887,0.538520,9.872332,-1.150191,-1.643424,0.288299,3.209304,0.733022,-2.927154,0.999257,0.028156,0.005677,-0.025710
6792,-0.127136,0.558681,9.891555,-0.437545,-1.475323,0.197792,3.182905,0.680673,-2.921962,0.999268,0.027914,0.005228,-0.025651
6793,-0.137520,0.556960,9.907157,-0.611754,-0.099759,-0.154419,3.165408,0.654421,-2.922696,0.999273,0.027756,0.005002,-0.025650
6794,-0.152599,0.547069,9.915341,-0.913306,1.406713,-0.499704,3.139877,0.676771,-2.932382,0.999276,0.027539,0.005201,-0.025739
6795,-0.134045,0.542639,9.947260,-0.872738,1.021533,-0.325287,3.109968,0.717931,-2.943903,0.999278,0.027288,0.005564,-0.025848
6796,-0.124209,0.535077,9.937334,-0.634871,0.518373,-0.098969,3.084769,0.743941,-2.949579,0.999281,0.027074,0.005795,-0.025902
6797,-0.124867,0.522782,9.928313,-0.889933,0.175589,-0.202244,3.059298,0.755759,-2.953972,0.999285,0.026855,0.005903,-0.025942
6798,-0.119152,0.528804,9.925029,-0.532415,-0.300174,-0.264172,3.035489,0.754099,-2.961847,0.999289,0.026647,0.005892,-0.026009
6799,-0.120531,0.526149,9.931999,-0.562703,-0.527844,-0.159918,3.017136,0.740691,-2.969636,0.999293,0.026484,0.005777,-0.026073
6800,-0.132579,0.538144,9.915726,-0.111898,-0.207296,-0.223648,3.005802,0.728792,-2.976664,0.999294,0.026383,0.005674,-0.026131
6801,-0.132872,0.514007,9.926743,-0.876555,0.026326,-0.307951,2.989213,0.726243,-2.985670,0.999296,0.026239,0.005654,-0.026208
6802,-0.131220,0.503242,9.913784,-0.911036,0.082163,-0.199312,2.959314,0.728487,-2.994020,0.999301,0.025979,0.005678,-0.026280
6803,-0.116324,0.505069,9.901156,-0.595965,-0.576961,-0.231373,2.934101,0.720620,-3.001612,0.999305,0.025757,0.005614,-0.026343
6804,-0.101137,0.527512,9.923913,0.214192,-0.933990,-0.160282,2.927642,0.695805,-3.009422,0.999306,0.025696,0.005397,-0.026405
6805,-0.110996,0.517108,9.910865,0.037787,-0.537515,-0.030843,2.931788,0.671475,-3.013858,0.999306,0.025727,0.005183,-0.026439
6806,-0.127838,0.529184,9.902939,0.468240,0.121081,-0.078927,2.940197,0.664637,-3.016040,0.999304,0.025799,0.005121,-0.026457
6807,-0.110586,0.536917,9.947097,0.633710,-0.064521,0.055694,2.958559,0.665599,-3.016379,0.999300,0.025959,0.005125,-0.026461
6808,-0.104594,0.523740,9.960491,0.301756,-0.171917,0.304297,2.974217,0.661353,-3.010591,0.999298,0.026094,0.005086,-0.026410
6809,-0.122282,0.514360,9.914884,0.006139,0.019205,0.152108,2.979435,0.658416,-3.003126,0.999298,0.026139,0.005061,-0.026344
6810,-0.129299,0.529457,9.912793,0.389293,0.011830,0.000745,2.986055,0.658800,-3.000555,0.999297,0.026196,0.005063,-0.026322
6811,-0.125435,0.527899,9.912384,0.426286,-0.081071,0.171494,2.999681,0.657498,-2.997748,0.999295,0.026315,0.005049,-0.026298
6812,-0.139209,0.517691,9.904808,0.037336,0.628128,0.014333,3.007448,0.666441,-2.994176,0.999294,0.026384,0.005126,-0.026269
6813,-0.139515,0.499801,9.910387,-0.653553,0.752074,-0.098091,2.997176,0.689486,-2.994366,0.999295,0.026300,0.005329,-0.026276
6814,-0.120682,0.499921,9.909403,-0.476401,0.214889,-0.243801,2.978284,0.705877,-2.999218,0.999297,0.026139,0.005476,-0.026321
6815,-0.102245,0.482250,9.894715,-1.131594,-0.209303,-0.544441,2.951323,0.706650,-3.012334,0.999300,0.025905,0.005486,-0.026434
6816,-0.102871,0.486123,9.901202,-1.561070,-0.170253,-0.970805,2.906132,0.701623,-3.037882,0.999304,0.025511,0.005446,-0.026654
6817,-0.116173,0.495925,9.908168,-1.382356,0.236851,-1.274046,2.856617,0.704613,-3.075196,0.999306,0.025082,0.005476,-0.026977
6818,-0.134306,0.508774,9.914557,-0.771051,0.817657,-1.289397,2.820204,0.724283,-3.116999,0.999303,0.024771,0.005647,-0.027344
6819,-0.149095,0.496553,9.938539,-1.216440,1.046517,-1.080444,2.786587,0.757249,-3.154930,0.999299,0.024487,0.005934,-0.027680
6820,-0.151652,0.494733,9.951752,-0.993328,1.034360,-0.988726,2.749313,0.793554,-3.187705,0.999297,0.024173,0.006253,-0.027972
6821,-0.148296,0.483700,9.945813,-0.924673,0.846465,-0.807919,2.716944,0.826293,-3.216122,0.999294,0.023900,0.006541,-0.028225
6822,-0.148145,0.481665,9.937144,-0.837983,0.568846,-0.591785,2.687242,0.850955,-3.238315,0.999294,0.023648,0.006758,-0.028421
6823,-0.147782,0.485137,9.933408,-0.583923,0.554026,-0.498723,2.663284,0.870497,-3.255599,0.999293,0.023445,0.006931,-0.028575
6824,-0.147299,0.471795,9.938026,-0.740357,0.604111,-0.225487,2.641041,0.890337,-3.266764,0.999293,0.023257,0.007107,-0.028675
6825,-0.152351,0.467489,9.952165,-0.703582,0.383567,0.066273,2.616945,0.906903,-3.268661,0.999296,0.023051,0.007258,-0.028693
6826,-0.144826,0.459553,9.944969,-0.462398,-0.194195,0.230225,2.597592,0.909830,-3.263580,0.999301,0.022882,0.007289,-0.028648
6827,-0.130977,0.448630,9.925845,-0.409371,-0.786117,0.393456,2.583215,0.893038,-3.253934,0.999308,0.022752,0.007148,-0.028560
6828,-0.131235,0.434937,9.932379,-0.876484,-1.003274,0.560782,2.562006,0.862531,-3.239383,0.999318,0.022559,0.006890,-0.028426
6829,-0.125450,0.445377,9.928242,-0.425074,-1.413733,0.460508,2.540538,0.821530,-3.224170,0.999328,0.022361,0.006541,-0.028284
6830,-0.123870,0.425110,9.921450,-1.140705,-1.236611,0.251237,2.514579,0.776877,-3.214268,0.999339,0.022123,0.006160,-0.028187
6831,-0.128926,0.423696,9.932929,-1.302721,-0.758094,0.184537,2.473932,0.743349,-3.208456,0.999350,0.021760,0.005879,-0.028128
6832,-0.138097,0.419100,9.916265,-1.027082,-0.503780,0.306780,2.435194,0.721986,-3.201173,0.999361,0.021417,0.005703,-0.028059
6833,-0.128033,0.427905,9.916306,-0.630522,-0.940433,0.144713,2.407649,0.697619,-3.194671,0.999369,0.021170,0.005499,-0.027996
6834,-0.125341,0.421516,9.944447,-0.675662,-0.766895,-0.050493,2.385883,0.669123,-3.194293,0.999374,0.020974,0.005255,-0.027987
6835,-0.123554,0.409071,9.940652,-0.247352,-0.861964,0.127614,2.370501,0.641945,-3.194135,0.999379,0.020833,0.005022,-0.027980
6836,-0.123568,0.426415,9.924223,0.762502,-1.211726,0.119572,2.379117,0.607243,-3.191452,0.999380,0.020899,0.004718,-0.027951
6837,-0.107900,0.430314,9.939922,1.093900,-1.752670,-0.114804,2.410036,0.557876,-3.193439,0.999376,0.021157,0.004279,-0.027960
6838,-0.084642,0.438960,9.931046,1.751594,-2.193002,0.050536,2.457425,0.492219,-3.197302,0.999369,0.021555,0.003695,-0.027984
6839,-0.079619,0.443452,9.910279,1.522003,-1.752246,0.025804,2.511973,0.426472,-3.198883,0.999361,0.022015,0.003108,-0.027987
6840,-0.068609,0.475573,9.913417,1.579838,-1.358723,-0.135778,2.563641,0.374755,-3.203010,0.999352,0.022453,0.002643,-0.028014
6841,-0.063967,0.473020,9.935438,0.690859,-0.625419,-0.108040,2.601451,0.341902,-3.208562,0.999344,0.022775,0.002346,-0.028057
6842,-0.061289,0.458545,9.938534,-0.486045,-0.013565,-0.019996,2.604849,0.331360,-3.211177,0.999343,0.022802,0.002253,-0.028077
6843,-0.075898,0.440517,9.929996,-1.533769,0.737844,0.005320,2.571187,0.343430,-3.210876,0.999350,0.022511,0.002366,-0.028077
6844,-0.072537,0.437746,9.923918,-1.421432,0.603017,0.190171,2.521960,0.365610,-3.206626,0.999359,0.022087,0.002573,-0.028043
6845,-0.076366,0.412645,9.923062,-2.012731,0.842506,0.235634,2.464777,0.389370,-3.198488,0.999371,0.021594,0.002796,-0.027975
6846,-0.084660,0.398684,9.913064,-2.314301,1.168654,0.072877,2.392707,0.422642,-3.191931,0.999385,0.020973,0.003105,-0.027922
6847,-0.094161,0.417014,9.913934,-1.488310,1.552920,0.045005,2.329361,0.467883,-3.188098,0.999396,0.020432,0.003515,-0.027895
6848,-0.097154,0.409211,9.921489,-1.292962,1.430400,0.183307,2.283056,0.517411,-3.182291,0.999403,0.020040,0.003959,-0.027851
6849,-0.098619,0.369838,9.920349,-2.253743,1.201611,0.266329,2.224030,0.560949,-3.173077,0.999414,0.019535,0.004355,-0.027776
6850,-0.097108,0.372260,9.929770,-1.864846,0.854759,0.325154,2.155499,0.594820,-3.161919,0.999426,0.018945,0.004669,-0.027682
6851,-0.097649,0.357717,9.948833,-1.989450,0.435132,0.350690,2.091388,0.615886,-3.149867,0.999439,0.018390,0.004870,-0.027577
6852,-0.100013,0.341009,9.929068,-1.956715,0.009743,0.252164,2.025729,0.622935,-3.139561,0.999451,0.017819,0.004949,-0.027486
6853,-0.102685,0.335658,9.919873,-1.686900,0.122749,-0.010162,1.965047,0.625002,-3.135455,0.999461,0.017290,0.004982,-0.027448
6854,-0.109758,0.351592,9.938024,-0.689862,0.554329,-0.077028,1.925423,0.636330,-3.136523,0.999466,0.016947,0.005090,-0.027457
6855,-0.111327,0.333708,9.931169,-0.669807,0.659332,-0.138677,1.902729,0.656667,-3.139440,0.999468,0.016754,0.005273,-0.027484
6856,-0.106922,0.330510,9.910892,-0.054720,0.439974,-0.048371,1.890624,0.675082,-3.141949,0.999468,0.016653,0.005436,-0.027508
6857,-0.112779,0.330392,9.926932,0.370714,0.622249,-0.061342,1.895876,0.692836,-3.143191,0.999466,0.016703,0.005589,-0.027522
6858,-0.127841,0.332514,9.938825,0.760510,1.010084,-0.236251,1.914679,0.720192,-3.147243,0.999461,0.016874,0.005823,-0.027562
6859,-0.137918,0.326257,9.920099,1.017417,0.971257,-0.322901,1.944206,0.753509,-3.155445,0.999452,0.017140,0.006105,-0.027640
6860,-0.137814,0.346669,9.926320,2.457819,0.423063,-0.088112,2.002046,0.776970,-3.161491,0.999441,0.017650,0.006295,-0.027699
6861,-0.131224,0.347720,9.925472,3.724549,-0.178749,0.124924,2.105096,0.781019,-3.160728,0.999424,0.018550,0.006305,-0.027699
6862,-0.118335,0.370359,9.932402,5.885477,-0.818325,0.480367,2.265391,0.764030,-3.151275,0.999401,0.019943,0.006120,-0.027622
6863,-0.095774,0.429842,9.939059,10.005861,-1.768781,1.246641,2.530594,0.719747,-3.124313,0.999361,0.022244,0.005675,-0.027393
6864,-0.084113,0.487264,9.947211,12.896343,-2.325462,1.515808,2.912805,0.649407,-3.081556,0.999296,0.025559,0.004980,-0.027023
6865,-0.075653,0.560675,9.953820,15.806426,-2.578044,1.522357,3.391666,0.565020,-3.035489,0.999195,0.029713,0.004143,-0.026620
6866,-0.071676,0.666330,9.939909,18.156195,-2.148787,1.672591,3.958136,0.482981,-2.987407,0.999051,0.034632,0.003311,-0.026197
6867,-0.068150,0.777510,9.918386,20.372530,-2.792429,1.538768,4.600627,0.396866,-2.940210,0.998856,0.040213,0.002430,-0.025773
6868,-0.063460,0.889826,9.889649,21.775553,-3.290402,0.920186,5.303258,0.292314,-2.908117,0.998601,0.046313,0.001373,-0.025466
6869,-0.038333,1.023078,9.869911,23.310385,-3.408539,0.638545,6.054714,0.178611,-2.893303,0.998283,0.052835,0.000223,-0.025293
6870,-0.033037,1.166673,9.886061,24.613844,-3.004671,0.428496,6.853420,0.070392,-2.887655,0.997894,0.059768,-0.000893,-0.025189
6871,-0.030581,1.292973,9.899909,24.993021,-2.638180,0.160714,7.680153,-0.024146,-2.889845,0.997438,0.066945,-0.001899,-0.025145
6872,-0.017871,1.402154,9.883738,26.528244,-2.507278,0.105495,8.538800,-0.109679,-2.897576,0.996908,0.074398,-0.002836,-0.025142
6873,-0.005868,1.586796,9.876054,28.692865,-2.075842,-0.096242,9.459123,-0.185143,-2.909389,0.996276,0.082385,-0.003703,-0.025167
6875,0.004065,1.781929,9.826012,31.305162,-1.911991,0.134623,10.459055,-0.250717,-2.920296,0.995517,0.091060,-0.004501,-0.025176
6876,0.011931,1.988249,9.749757,32.744839,-1.631740,0.337131,11.526480,-0.310167,-2.923860,0.994625,0.100316,-0.005254,-0.025112
6877,0.035974,2.207421,9.703650,32.655788,-1.357424,0.355488,12.616381,-0.361272,-2.923014,0.993626,0.109760,-0.005935,-0.025004
6878,0.036227,2.460672,9.669806,32.743252,-0.905993,0.038131,13.706274,-0.399488,-2.925236,0.992536,0.119197,-0.006506,-0.024926
6879,0.030080,2.632621,9.593136,31.412134,-0.706588,-0.225354,14.775496,-0.424783,-2.934913,0.991379,0.128446,-0.006968,-0.024920
6880,0.024622,2.813270,9.578034,29.260403,-0.433234,-0.566697,15.786742,-0.439644,-2.952670,0.990203,0.137185,-0.007337,-0.024993
6881,0.037830,2.958109,9.533230,27.891369,-0.623819,-0.528209,16.739374,-0.451467,-2.975145,0.989023,0.145408,-0.007675,-0.025110
6882,0.017217,3.097688,9.460711,27.872793,-0.228296,-0.445903,17.668863,-0.460234,-2.994838,0.987807,0.153422,-0.007981,-0.025205
6883,0.022887,3.217873,9.422576,26.935778,0.016443,-0.004769,18.582346,-0.461239,-3.003099,0.986551,0.161291,-0.008202,-0.025210
6884,0.030820,3.370818,9.369583,27.207312,0.144153,0.608585,19.484579,-0.461958,-2.992718,0.985252,0.169054,-0.008391,-0.025055
6885,0.030760,3.504000,9.308177,27.585497,0.486657,1.170159,20.397482,-0.462145,-2.961260,0.983881,0.176900,-0.008543,-0.024717
6886,0.018614,3.653126,9.263384,29.660183,1.442247,1.156247,21.351128,-0.445882,-2.913586,0.982385,0.185089,-0.008532,-0.024262
6887,0.020693,3.804391,9.219206,29.416199,1.642870,1.042239,22.335262,-0.411774,-2.860507,0.980770,0.193531,-0.008358,-0.023792
6888,0.019697,3.936271,9.123322,29.286911,1.334849,1.281337,23.313189,-0.381057,-2.805583,0.979094,0.201904,-0.008202,-0.023304
6889,0.011786,4.052112,9.100616,27.805510,1.189411,1.688601,24.264250,-0.362521,-2.743296,0.977396,0.210031,-0.008123,-0.022738
6890,0.014813,4.183980,9.042642,27.005280,0.646419,2.171901,25.177246,-0.361608,-2.672041,0.975706,0.217817,-0.008161,-0.022068
6891,0.032563,4.271865,8.945031,23.667694,-1.014860,2.829164,26.021250,-0.403140,-2.599483,0.974090,0.224995,-0.008533,-0.021309
6892,0.058312,4.384597,8.867512,22.172035,-1.889828,3.283069,26.784647,-0.491788,-2.529648,0.972583,0.231467,-0.009286,-0.020479
6893,0.071742,4.538004,8.849443,20.595480,-1.769893,3.242615,27.496746,-0.595668,-2.460624,0.971138,0.237492,-0.010151,-0.019621
6894,0.092728,4.646009,8.808481,18.688602,-1.697740,3.069331,28.150715,-0.695870,-2.394556,0.969778,0.243017,-0.010970,-0.018791
6895,0.095849,4.716456,8.754389,16.813375,-1.516392,2.495148,28.741663,-0.787140,-2.338518,0.968520,0.248003,-0.011717,-0.018063
6896,0.108985,4.826422,8.732680,16.326202,-1.209214,2.323986,29.293283,-0.865833,-2.290320,0.967321,0.252653,-0.012362,-0.017425
6897,0.130791,4.928904,8.698614,15.833198,-1.297461,2.165805,29.828558,-0.939086,-2.245849,0.966135,0.257160,-0.012961,-0.016828
6898,0.131435,4.949525,8.666162,14.886277,-0.990411,1.374164,30.339998,-1.001659,-2.213906,0.964981,0.261462,-0.013490,-0.016358
6899,0.125610,4.993254,8.610162,15.799200,-0.726021,0.488996,30.851189,-1.042105,-2.201755,0.963805,0.265758,-0.013875,-0.016101
6900,0.143527,5.092508,8.557595,17.238443,-1.023341,0.019469,31.401949,-1.071467,-2.209602,0.962515,0.270381,-0.014217,-0.016031
6901,0.141143,5.187467,8.512263,17.497282,-0.935782,-0.650483,31.981354,-1.093746,-2.235711,0.961131,0.275237,-0.014548,-0.016124
6902,0.123773,5.266423,8.483205,18.054331,-0.704492,-1.094130,32.574619,-1.101352,-2.274919,0.959688,0.280203,-0.014790,-0.016359
6903,0.133031,5.362693,8.410004,19.994768,-1.136847,-0.917735,33.209614,-1.108921,-2.319767,0.958113,0.285509,-0.015056,-0.016633
6904,0.131537,5.488795,8.338345,22.161633,-1.401056,-0.840368,33.913124,-1.127966,-2.367554,0.956335,0.291376,-0.015438,-0.016890
6905,0.130909,5.617847,8.270309,24.512287,-1.309994,-1.079550,34.692017,-1.147254,-2.419449,0.954324,0.297858,-0.015848,-0.017167
6906,0.132982,5.731833,8.170185,27.568766,-1.074903,-1.534327,35.561161,-1.154696,-2.477973,0.952029,0.305078,-0.016196,-0.017512
6907,0.144681,5.825005,8.045821,29.694717,-1.340464,-1.412327,36.516769,-1.158355,-2.541407,0.949441,0.312997,-0.016545,-0.017892
6908,0.161453,5.958074,7.921216,30.398851,-2.137460,-0.130651,37.519390,-1.189147,-2.596826,0.946657,0.321277,-0.017110,-0.018118
6909,0.195729,6.084424,7.820321,28.064608,-3.021626,1.087440,38.494564,-1.266669,-2.637110,0.943881,0.329298,-0.018018,-0.018081
6910,0.219180,6.188628,7.761337,23.965555,-3.178630,1.185042,39.362495,-1.370828,-2.672469,0.941351,0.336409,-0.019114,-0.017928
6911,0.239158,6.295944,7.724576,19.677269,-2.905020,0.503077,40.090897,-1.466799,-2.715602,0.939184,0.342356,-0.020143,-0.017872
6912,0.234077,6.397643,7.685324,16.347206,-2.010747,-0.432839,40.692642,-1.529987,-2.767822,0.937363,0.347259,-0.020911,-0.018002
6913,0.221599,6.445840,7.637629,13.822144,-0.739728,-1.970002,41.197060,-1.538386,-2.828173,0.935816,0.351369,-0.021244,-0.018377
6914,0.206313,6.505684,7.598892,13.456236,0.662983,-3.623556,41.653545,-1.477687,-2.899016,0.934399,0.355096,-0.021042,-0.019058
6915,0.178729,6.561743,7.534876,14.661376,1.844034,-4.488729,42.123959,-1.356321,-2.971864,0.932923,0.358945,-0.020360,-0.019945
6916,0.147801,6.599990,7.462286,17.861170,2.309978,-4.036341,42.667282,-1.209383,-3.030165,0.931202,0.363391,-0.019445,-0.020789
6917,0.143167,6.661831,7.363005,21.594379,1.949235,-3.052855,43.325611,-1.076855,-3.068146,0.929091,0.368761,-0.018612,-0.021412
6918,0.120721,6.747123,7.270817,25.049093,1.302093,-1.828356,44.103355,-0.981440,-3.089421,0.926562,0.375078,-0.018056,-0.021770
6919,0.129383,6.906429,7.125397,28.698500,0.113727,0.319023,44.999111,-0.946951,-3.090694,0.923600,0.382318,-0.017952,-0.021753
6920,0.153324,7.065941,6.984472,29.925085,-0.975167,1.963830,45.975819,-0.984102,-3.074094,0.920312,0.390170,-0.018378,-0.021340
6921,0.174642,7.206383,6.870174,28.729290,-1.949944,2.225657,46.953091,-1.068272,-3.061206,0.916955,0.397986,-0.019188,-0.020786
6922,0.189728,7.314112,6.771626,25.400587,-2.206765,2.032917,47.855240,-1.167440,-3.064099,0.913795,0.405167,-0.020152,-0.020307
6923,0.216283,7.428087,6.669535,21.329081,-1.966700,1.155372,48.634361,-1.253419,-3.080579,0.911017,0.411346,-0.021032,-0.019991
6924,0.211653,7.448434,6.628794,16.814413,-1.174594,-0.365934,49.270744,-1.297747,-3.111450,0.908714,0.416382,-0.021606,-0.019958
6925,0.194839,7.481821,6.571896,14.791594,-0.732345,-0.827108,49.798332,-1.303274,-3.148605,0.906781,0.420553,-0.021878,-0.020132
6926,0.193377,7.531386,6.472460,13.898065,-0.448160,-0.423649,50.277134,-1.299937,-3.177105,0.905011,0.424334,-0.022041,-0.020277
6927,0.196907,7.603434,6.396198,14.307363,0.058837,-0.972177,50.747662,-1.286095,-3.196907,0.903257,0.428046,-0.022089,-0.020395
6928,0.189471,7.703912,6.355099,15.783689,0.617508,-1.607649,51.249577,-1.245584,-3.215235,0.901369,0.432005,-0.021929,-0.020595
6929,0.182198,7.743743,6.278114,16.374624,0.552537,-1.347569,51.785862,-1.194891,-3.230649,0.899334,0.436229,-0.021686,-0.020806
6930,0.186998,7.755096,6.189485,17.452160,0.351622,-1.310584,52.349945,-1.150681,-3.245988,0.897171,0.440659,-0.021501,-0.020989
6931,0.179884,7.816008,6.114141,18.668770,0.448081,-1.644043,52.952324,-1.103454,-3.265261,0.894837,0.445378,-0.021317,-0.021210
6932,0.175690,7.905966,6.040589,19.240147,0.103355,-1.028469,53.584484,-1.062265,-3.284547,0.892362,0.450315,-0.021189,-0.021405
6933,0.178151,7.958972,5.923020,20.103113,-0.470877,-0.120088,54.240490,-1.050400,-3.300741,0.889766,0.455416,-0.021284,-0.021456
6934,0.179623,8.039253,5.814287,21.545641,-0.804751,0.068511,54.934933,-1.062014,-3.318516,0.886987,0.460794,-0.021575,-0.021417
6935,0.174965,8.088161,5.729737,20.955879,-1.099120,0.300579,55.643681,-1.085146,-3.341084,0.884116,0.466260,-0.021977,-0.021363
6936,0.187122,8.145576,5.617275,19.342245,-0.903507,0.421545,56.315697,-1.113800,-3.361998,0.881364,0.471426,-0.022408,-0.021277
6937,0.180370,8.196263,5.526416,17.502724,0.013032,-0.647878,56.930042,-1.118806,-3.376467,0.878822,0.476140,-0.022620,-0.021247
6938,0.162759,8.262269,5.493407,14.952733,1.094374,-1.636565,57.471043,-1.076799,-3.381639,0.876561,0.480294,-0.022421,-0.021356
6939,0.156669,8.311494,5.425098,13.119315,1.918006,-1.871967,57.938698,-1.000532,-3.370503,0.874592,0.483889,-0.021879,-0.021501
6940,0.134159,8.389825,5.370039,12.299687,2.632232,-2.585654,58.361916,-0.897386,-3.345317,0.872797,0.487147,-0.021066,-0.021667
6941,0.110240,8.437887,5.317677,12.383840,2.473917,-2.774579,58.772919,-0.776772,-3.319326,0.871041,0.490310,-0.020115,-0.021911
6942,0.097341,8.446807,5.279706,12.884851,1.470827,-2.252113,59.193897,-0.671103,-3.306151,0.869228,0.493535,-0.019338,-0.022192
6943,0.093100,8.456510,5.179348,14.127718,0.873274,-2.433080,59.644165,-0.584022,-3.312211,0.867273,0.496966,-0.018792,-0.022539
6944,0.070563,8.478677,5.131530,15.227468,1.088221,-2.808059,60.133572,-0.492078,-3.327742,0.865132,0.500685,-0.018262,-0.022978
6945,0.080243,8.533484,5.018788,16.460239,0.832330,-2.321254,60.661800,-0.401937,-3.342148,0.862803,0.504687,-0.017752,-0.023399
6946,0.063601,8.578870,4.963069,16.395008,0.420153,-1.716775,61.209473,-0.332971,-3.356567,0.860371,0.508819,-0.017410,-0.023729
6947,0.043332,8.655638,4.843948,16.674633,-0.026049,-0.454951,61.760677,-0.298035,-3.368045,0.857907,0.512958,-0.017314,-0.023887
6948,0.042874,8.763977,4.741983,16.442785,-0.736487,1.148485,62.312649,-0.314196,-3.373796,0.855427,0.517080,-0.017576,-0.023773
6949,0.056837,8.831362,4.601815,17.178328,-1.693843,2.137161,62.873055,-0.381449,-3.384478,0.852893,0.521239,-0.018241,-0.023461
6950,0.061747,8.831105,4.517071,17.517395,-1.558750,2.305708,63.451416,-0.472008,-3.399369,0.850258,0.525514,-0.019099,-0.023063
6951,0.084485,8.828483,4.377345,18.243259,-0.934045,2.224926,64.047447,-0.558096,-3.403231,0.847521,0.529908,-0.019873,-0.022594
6952,0.108636,8.851911,4.298558,19.133965,0.004790,1.290003,64.670265,-0.617586,-3.391862,0.844637,0.534494,-0.020381,-0.022124
6953,0.109801,8.869743,4.197678,20.823696,0.925730,0.179612,65.335938,-0.633211,-3.367515,0.841524,0.539392,-0.020509,-0.021753
6954,0.098818,8.918461,4.136872,21.287422,1.472936,-0.064645,66.037354,-0.618482,-3.330363,0.838212,0.544543,-0.020358,-0.021425
6955,0.087611,9.027153,3.997597,21.685978,1.093761,-0.739106,66.753197,-0.589059,-3.296550,0.834798,0.549781,-0.020115,-0.021193
6956,0.081425,9.150572,3.921280,21.321089,0.990130,-1.320226,67.469765,-0.543966,-3.277926,0.831342,0.555004,-0.019830,-0.021150
6957,0.093837,9.157414,3.798818,21.080608,0.229266,-0.179670,68.176338,-0.513163,-3.268569,0.827902,0.560129,-0.019691,-0.021110
6958,0.110578,9.165549,3.716800,19.821098,-0.709410,0.874150,68.858040,-0.526879,-3.271708,0.824557,0.565040,-0.019931,-0.020948
6959,0.138181,9.210376,3.558494,19.424007,-1.275713,0.486503,69.512306,-0.559857,-3.294509,0.821316,0.569727,-0.020400,-0.020833
6960,0.152987,9.252408,3.486243,19.295914,-1.233539,1.726128,70.157890,-0.608921,-3.321062,0.818094,0.574329,-0.021000,-0.020661
6961,0.168393,9.313174,3.378049,20.497992,-1.793403,3.486318,70.821312,-0.707631,-3.339546,0.814763,0.579029,-0.021914,-0.020172
6962,0.170114,9.403455,3.267128,20.543718,-1.657706,3.585881,71.505539,-0.837750,-3.355847,0.811301,0.583849,-0.023039,-0.019493
6963,0.184716,9.449738,3.119791,20.382086,-1.313729,3.667546,72.187752,-0.968040,-3.365240,0.807822,0.588635,-0.024121,-0.018752
6964,0.194023,9.470679,3.059057,18.148157,-1.011517,3.726175,72.829910,-1.097196,-3.365165,0.804522,0.593120,-0.025131,-0.017947
6965,0.224155,9.474924,2.983436,15.282804,-0.796155,3.022218,73.386993,-1.213552,-3.361293,0.801639,0.596995,-0.026012,-0.017190
6966,0.249237,9.422093,2.880985,10.545650,-0.760444,3.332832,73.817360,-1.322482,-3.356284,0.799401,0.599974,-0.026809,-0.016487
6967,0.272350,9.437103,2.816298,8.041855,-0.467791,2.996309,74.126915,-1.429513,-3.346785,0.797786,0.602105,-0.027549,-0.015785
6968,0.280010,9.489671,2.772813,6.617374,-0.320430,2.130836,74.370956,-1.515316,-3.336217,0.796509,0.603782,-0.028123,-0.015201
6969,0.292306,9.526625,2.713663,7.291430,-0.538689,2.225115,74.602608,-1.589100,-3.330601,0.795291,0.605372,-0.028635,-0.014715
6970,0.288816,9.522170,2.667939,7.745941,-0.716528,2.429887,74.853218,-1.669457,-3.330348,0.793970,0.607087,-0.029223,-0.014224
6971,0.288705,9.570766,2.626974,8.500072,-1.068453,2.200556,75.124260,-1.751704,-3.339096,0.792535,0.608938,-0.029871,-0.013778
6972,0.292030,9.587483,2.544089,11.245757,-1.642637,1.669955,75.454208,-1.825579,-3.366439,0.790779,0.611189,-0.030566,-0.013486
6973,0.309378,9.581699,2.484046,12.160954,-2.141305,2.009939,75.845795,-1.900638,-3.412383,0.788684,0.613854,-0.031374,-0.013295
6974,0.322974,9.556038,2.420968,11.812673,-2.370816,1.867925,76.247307,-1.981502,-3.469806,0.786525,0.616574,-0.032284,-0.013143
6975,0.341767,9.588538,2.373153,11.629282,-2.348779,1.053454,76.640282,-2.047281,-3.534902,0.784402,0.619229,-0.033131,-0.013122
6976,0.362514,9.598228,2.303013,13.371951,-2.233879,0.301892,77.059448,-2.086658,-3.604202,0.782125,0.622061,-0.033823,-0.013260
6978,0.362183,9.612652,2.235251,14.487676,-2.371059,0.420880,77.526413,-2.115284,-3.676497,0.779577,0.625213,-0.034466,-0.013457
6979,0.360382,9.622496,2.131684,16.656000,-2.668297,0.117481,78.048447,-2.141818,-3.756738,0.776712,0.628725,-0.035147,-0.013698
6980,0.362846,9.670585,1.976168,19.865187,-2.995055,0.167898,78.660561,-2.165529,-3.848300,0.773333,0.632829,-0.035885,-0.013997
6981,0.347363,9.681442,1.787396,23.341854,-3.278937,-0.243536,79.384560,-2.184195,-3.951263,0.769308,0.637663,-0.036671,-0.014357
6982,0.325172,9.699859,1.616319,25.397291,-2.845513,-1.679903,80.200874,-2.170726,-4.057496,0.764732,0.643097,-0.037279,-0.014880
6983,0.314817,9.719384,1.488956,25.166918,-2.062140,-3.233254,81.047066,-2.103237,-4.151683,0.759944,0.648719,-0.037474,-0.015612
6984,0.306393,9.709869,1.364346,24.274210,-1.379196,-3.963655,81.873695,-1.993110,-4.226359,0.755225,0.654198,-0.037287,-0.016463
6985,0.295843,9.671633,1.249285,22.796064,-0.323783,-4.825466,82.659752,-1.851755,-4.274275,0.750698,0.659395,-0.036749,-0.017335
6986,0.281764,9.668321,1.128414,20.940317,0.595190,-4.566691,83.389091,-1.695788,-4.288874,0.746465,0.664207,-0.035929,-0.018101
6987,0.287221,9.730980,1.035339,19.959589,0.925274,-2.693660,84.070381,-1.572696,-4.276908,0.742490,0.668677,-0.035169,-0.018529
6988,0.286257,9.764246,0.916911,20.234240,1.231441,-1.159338,84.739441,-1.505257,-4.247303,0.738568,0.673031,-0.034668,-0.018529
6989,0.299185,9.823558,0.790239,19.738085,1.886320,0.796481,85.404266,-1.494749,-4.195962,0.734658,0.677324,-0.034405,-0.018061
6990,0.312228,9.878774,0.693704,18.488562,2.033955,2.477443,86.039513,-1.544246,-4.126622,0.730909,0.681392,-0.034407,-0.017133
6991,0.337823,9.932398,0.652470,15.575502,2.114556,3.379071,86.605141,-1.637197,-4.051255,0.727559,0.684985,-0.034631,-0.015928
6992,0.352179,9.899560,0.542426,13.311758,1.508724,5.346300,87.084541,-1.779051,-3.982868,0.724713,0.687999,-0.035182,-0.014498
6993,0.350096,9.857814,0.519349,8.400262,0.923151,4.189047,87.444817,-1.935862,-3.934681,0.722569,0.690240,-0.035925,-0.013138
6994,0.339863,9.842494,0.452562,6.851337,0.427258,1.630949,87.698097,-2.031821,-3.908043,0.721054,0.691813,-0.036397,-0.012311
6995,0.332697,9.844884,0.380004,5.482313,0.219502,0.338116,87.903221,-2.064208,-3.896040,0.719818,0.693096,-0.036549,-0.011974
6996,0.308782,9.819489,0.341551,6.227546,0.150110,-3.160222,88.098221,-2.016990,-3.891538,0.718634,0.694337,-0.036246,-0.012170
6997,0.295289,9.822729,0.274781,8.046658,0.923757,-6.258329,88.335678,-1.859536,-3.878573,0.717179,0.695878,-0.035209,-0.012971
6998,0.251156,9.934538,0.206359,5.989870,2.163470,-7.408109,88.568253,-1.630448,-3.833304,0.715746,0.697415,-0.033530,-0.014012
6999,0.221956,9.855359,0.197217,7.800438,2.724637,-9.121830,88.796104,-1.353123,-3.758223,0.714333,0.698937,-0.031372,-0.015170
7000,0.168783,9.820634,0.254054,7.865352,3.392509,-10.436561,89.055214,-1.025301,-3.662373,0.712721,0.700663,-0.028783,-0.016509
7001,0.128852,9.839296,0.167970,8.326852,3.516076,-10.152986,89.323441,-0.680541,-3.552111,0.711044,0.702439,-0.026007,-0.017872
7002,0.076700,9.835769,0.206075,8.003105,3.271601,-8.887116,89.594597,-0.362159,-3.441965,0.709347,0.704212,-0.023402,-0.019085
7003,0.083578,9.771088,0.174056,8.456264,1.999141,-6.773014,89.868546,-0.100754,-3.355325,0.707632,0.705974,-0.021300,-0.020105
7004,0.054149,9.877129,0.139896,2.806431,0.419573,-3.116516,90.056252,0.064068,-3.315071,0.706452,0.707169,-0.020068,-0.020839
7005,0.038103,9.937724,0.026552,4.060905,-1.600144,-0.297903,90.170685,0.121008,-3.334653,0.705732,0.707881,-0.019859,-0.021291
7006,0.036268,9.897598,0.035409,2.464325,-2.955804,2.038215,90.279312,0.092286,-3.410670,0.705051,0.708531,-0.020526,-0.021562
7007,0.027992,9.831092,-0.016884,3.317994,-4.356612,2.797096,90.375580,0.012376,-3.532980,0.704448,0.709086,-0.021793,-0.021802
7008,0.026874,9.790284,-0.058382,4.186031,-4.540341,2.496423,90.500740,-0.074714,-3.681933,0.703662,0.709808,-0.023274,-0.022154
7009,0.032202,9.796311,-0.076737,3.737635,-4.117923,1.641664,90.633072,-0.142243,-3.826921,0.702826,0.710576,-0.024613,-0.022597
7010,0.043597,9.755548,-0.061854,4.241497,-3.693093,1.111879,90.766418,-0.186543,-3.957661,0.701982,0.711355,-0.025722,-0.023095
7011,0.028387,9.760798,-0.136372,6.851605,-3.960222,-0.244236,90.951721,-0.199080,-4.085425,0.700807,0.712458,-0.026630,-0.023756
7012,0.028168,9.836894,-0.205842,7.093788,-4.331298,-0.589736,91.184601,-0.182586,-4.223355,0.699325,0.713852,-0.027437,-0.024647
7013,0.023509,9.756395,-0.356487,10.561177,-4.432526,-0.585749,91.479286,-0.159608,-4.368929,0.697450,0.715618,-0.028270,-0.025606
7014,0.009611,9.760057,-0.377715,9.086388,-3.479664,-2.176543,91.807045,-0.109774,-4.499417,0.695359,0.717589,-0.028858,-0.026629
7015,-0.005132,9.806645,-0.416170,5.542626,-2.610611,-2.664233,92.050964,-0.025714,-4.598190,0.693786,0.719063,-0.029025,-0.027693
7016,0.005968,9.864212,-0.402366,0.838254,-1.172020,-1.763956,92.157295,0.050344,-4.658512,0.693084,0.719710,-0.028970,-0.028508
7017,0.010041,9.854756,-0.367083,-2.604991,0.354290,-0.489766,92.127815,0.088380,-4.670745,0.693256,0.719538,-0.028809,-0.028829
7018,0.000158,9.943550,-0.222144,-5.210004,1.260648,-0.255111,91.997612,0.099811,-4.643412,0.694077,0.718759,-0.028536,-0.028767
7019,0.004627,9.881316,-0.213121,-5.232470,1.202757,1.084228,91.823647,0.084629,-4.602844,0.695182,0.717711,-0.028330,-0.028470
7020,0.015341,9.864565,-0.208068,-7.264615,1.173966,2.026429,91.615387,0.031620,-4.564822,0.696508,0.716443,-0.028363,-0.027958
7021,0.019834,9.837633,-0.193583,-5.556087,1.027612,1.786299,91.401718,-0.032863,-4.529822,0.697867,0.715136,-0.028485,-0.027396
7022,0.013748,9.833520,-0.148737,-4.754405,1.176397,0.526637,91.229820,-0.072247,-4.493987,0.698957,0.714088,-0.028460,-0.026974
7023,0.021167,9.856726,-0.162634,-3.185903,1.121384,0.027658,91.097435,-0.082265,-4.455872,0.699793,0.713287,-0.028253,-0.026712
7024,0.015189,9.867182,-0.148668,-2.940940,0.942963,-0.361899,90.995293,-0.077328,-4.421367,0.700435,0.712672,-0.027985,-0.026557
7025,0.005591,9.872090,-0.135960,-2.755085,1.182932,-0.816242,90.900314,-0.058280,-4.385613,0.701030,0.712105,-0.027624,-0.026480
7026,-0.007551,9.865809,-0.132810,-2.606575,1.378519,-1.280345,90.810921,-0.023981,-4.342402,0.701587,0.711576,-0.027125,-0.026450
7027,-0.012687,9.856977,-0.116735,-2.683300,1.098621,-1.238819,90.722763,0.017447,-4.300555,0.702134,0.711056,-0.026591,-0.026471
7028,-0.023088,9.847000,-0.100151,-2.199848,0.867068,-1.447058,90.641388,0.061821,-4.267262,0.702636,0.710575,-0.026094,-0.026561
7029,-0.019267,9.874993,-0.118704,-0.999544,0.793770,-1.462268,90.588112,0.110010,-4.239060,0.702962,0.710265,-0.025611,-0.026699
7030,-0.019187,9.852478,-0.076113,-2.035900,0.549372,-1.380997,90.537567,0.157173,-4.216205,0.703269,0.709970,-0.025168,-0.026862
7031,-0.019604,9.845795,-0.048269,-2.459225,0.279257,-1.106902,90.462700,0.198518,-4.202037,0.703726,0.709523,-0.024809,-0.027048
7032,-0.024293,9.836869,-0.063878,-1.226761,0.190379,-0.853865,90.401314,0.231140,-4.193968,0.704101,0.709154,-0.024544,-0.027213
7033,-0.025702,9.840181,-0.052222,-1.203903,0.228719,-0.752741,90.360825,0.257870,-4.186802,0.704346,0.708913,-0.024326,-0.027343
7034,-0.022255,9.825293,-0.043690,-1.202023,0.208262,-0.201338,90.320770,0.273728,-4.179425,0.704592,0.708671,-0.024173,-0.027404
7035,-0.023659,9.860733,-0.064765,-0.162286,0.223138,0.261395,90.298058,0.272688,-4.172242,0.704734,0.708533,-0.024129,-0.027359
7036,-0.029919,9.876405,-0.070097,0.207986,0.021742,0.246295,90.298836,0.264205,-4.168206,0.704733,0.708537,-0.024157,-0.027281
7037,-0.030212,9.880469,-0.087464,0.997513,-0.168166,0.259027,90.318924,0.255796,-4.170691,0.704610,0.708658,-0.024229,-0.027240
7038,-0.034632,9.891070,-0.090703,1.206369,-0.160185,0.463634,90.355629,0.243784,-4.176235,0.704384,0.708880,-0.024346,-0.027192
7039,-0.037976,9.873259,-0.065175,0.394713,-0.059294,0.593485,90.382301,0.226189,-4.180005,0.704223,0.709039,-0.024483,-0.027101
7040,-0.042038,9.855721,-0.065570,0.467671,-0.116430,0.435453,90.396660,0.209060,-4.183049,0.704137,0.709123,-0.024611,-0.027011
7041,-0.037206,9.856199,-0.077172,0.776926,-0.006497,0.461587,90.417397,0.194125,-4.185205,0.704012,0.709247,-0.024721,-0.026927
7042,-0.039525,9.856349,-0.065887,0.242107,0.220823,0.254463,90.434387,0.182164,-4.181721,0.703910,0.709350,-0.024777,-0.026828
7043,-0.028732,9.847533,-0.091458,1.176786,0.337019,0.407143,90.458076,0.171066,-4.172510,0.703768,0.709495,-0.024793,-0.026697
7044,-0.031957,9.862493,-0.107337,1.539256,0.283331,-0.200633,90.503380,0.167537,-4.162200,0.703491,0.709774,-0.024762,-0.026603
7045,-0.027636,9.862111,-0.090267,0.729250,0.358100,-0.318440,90.541199,0.176090,-4.151433,0.703257,0.710011,-0.024651,-0.026581
7046,-0.018111,9.860473,-0.101056,0.903326,0.478197,0.183851,90.568451,0.178199,-4.137474,0.703091,0.710181,-0.024558,-0.026503
7047,-0.009540,9.860028,-0.104876,0.644338,0.456992,0.652606,90.594299,0.164100,-4.122029,0.702938,0.710340,-0.024555,-0.026315
7048,-0.010349,9.848384,-0.069677,-0.950220,0.365163,0.548757,90.589249,0.143938,-4.108532,0.702977,0.710308,-0.024594,-0.026108
7049,-0.010505,9.848976,-0.067753,-1.152299,0.327492,0.800946,90.554230,0.121330,-4.097210,0.703202,0.710091,-0.024655,-0.025906
7050,-0.017211,9.847342,-0.083657,-0.524188,0.150214,0.701323,90.526291,0.096219,-4.089485,0.703382,0.709915,-0.024754,-0.025709
7051,-0.022757,9.832457,-0.083482,-0.324812,-0.003633,0.374156,90.512138,0.078272,-4.087205,0.703474,0.709825,-0.024847,-0.025587
7052,-0.022787,9.846399,-0.069777,-0.959180,0.080442,0.286318,90.490746,0.067254,-4.086021,0.703610,0.709692,-0.024903,-0.025516
7053,-0.022966,9.851453,-0.079191,-0.387685,0.013464,0.166967,90.468300,0.059686,-4.084518,0.703751,0.709553,-0.024935,-0.025465
7054,-0.020102,9.854750,-0.081557,-0.353005,-0.066558,0.246041,90.455956,0.052810,-4.085459,0.703828,0.709475,-0.024980,-0.025431
7055,-0.013867,9.859664,-0.095193,-0.177183,0.008665,0.573512,90.447121,0.039159,-4.086532,0.703886,0.709418,-0.025069,-0.025355
7056,-0.002450,9.869461,-0.072957,-1.034630,-0.003209,0.891263,90.426918,0.014746,-4.086627,0.704016,0.709288,-0.025215,-0.025209
7057,0.009035,9.852468,-0.071263,-0.774394,-0.066906,1.200367,90.396774,-0.020105,-4.088045,0.704210,0.709095,-0.025431,-0.025009
7058,0.015747,9.849301,-0.076556,-0.687191,-0.146374,1.378333,90.372406,-0.063059,-4.091889,0.704370,0.708935,-0.025714,-0.024772
