seq,ax,ay,az,wroll,wpitch,wyaw,roll,pitch,yaw
1,0.631543,-1.977808,9.584675,3.751907,-0.507035,0.643511,-11.659399,-3.692255,0.377108
2,0.576852,-1.983397,9.600867,3.220753,2.430932,1.352249,-11.544867,-3.654156,0.403297
3,0.583439,-1.964484,9.624943,2.886924,1.976356,1.278798,-11.444854,-3.573434,0.431659
4,0.552453,-1.995067,9.642778,0.190700,3.053575,1.609983,-11.395447,-3.481727,0.462313
5,0.532813,-2.004031,9.650426,-0.649839,3.269937,1.608668,-11.404997,-3.367805,0.494101
6,0.503541,-2.000819,9.657358,-0.679050,3.836971,1.600444,-11.428817,-3.241112,0.523123
7,0.490752,-2.003159,9.674123,-0.695414,3.457217,1.511508,-11.453205,-3.111669,0.549886
8,0.475322,-2.020286,9.680389,-1.279078,3.092364,1.461364,-11.487547,-2.994837,0.576774
9,0.501410,-2.002257,9.691064,0.260803,0.645980,0.850068,-11.505830,-2.926103,0.602134
10,0.526155,-1.995629,9.672216,0.542798,-1.339275,0.810081,-11.493944,-2.931911,0.631595
11,0.519225,-1.977219,9.694702,1.670284,-0.990589,1.941768,-11.459774,-2.960841,0.684340
12,0.517903,-1.993249,9.719660,1.148137,-1.020199,4.135432,-11.418287,-2.973602,0.790399
13,0.525323,-1.975656,9.617447,0.886616,-2.342751,7.404232,-11.394768,-2.990496,0.990282
14,0.559868,-2.022233,9.534795,-0.891112,-3.782071,13.293081,-11.413667,-3.022341,1.349105
15,0.541747,-2.019568,9.448180,-2.573783,-4.620772,21.902046,-11.503339,-3.043020,1.952659
16,0.527377,-2.087118,9.480974,-4.719660,-5.442530,32.298752,-11.673536,-3.025821,2.872538
17,0.562199,-2.060369,9.381647,-3.051681,-7.807813,43.335411,-11.870131,-2.984792,4.153299
18,0.492944,-2.041354,9.394324,-3.005628,-6.822450,57.363743,-12.057734,-2.875693,5.847636
19,0.365303,-2.019626,9.473056,-2.122153,-4.576316,73.862549,-12.246973,-2.601154,8.027598
20,0.168866,-2.008747,9.519235,-2.152431,-1.533956,89.399666,-12.428047,-2.119606,10.708594
21,-0.048263,-2.007138,9.375146,-4.268807,0.470668,102.792343,-12.631611,-1.442341,13.838680
22,-0.138139,-2.289838,9.623254,-14.274438,-2.440730,112.703682,-13.004911,-0.677619,17.345284
23,-0.201197,-2.551623,9.707674,-20.231897,-7.658197,116.278763,-13.601252,0.038476,21.093138
24,-0.417198,-2.487191,9.607805,-16.481232,-9.508231,116.147346,-14.189647,0.691851,24.916988
25,-0.525220,-2.524482,9.697634,-13.279931,-13.824924,114.580742,-14.620378,1.270223,28.734112
26,-0.573865,-2.609096,9.815162,-12.080497,-18.903795,110.865967,-14.946187,1.700279,32.502937
27,-0.754321,-2.483394,9.691936,-5.682406,-18.976877,107.489861,-15.123670,2.034040,36.178886
28,-0.885881,-2.395416,9.684403,0.505921,-18.992086,104.842293,-15.073251,2.342963,39.759212
29,-0.871914,-2.636704,9.675218,-4.605084,-21.670015,99.427582,-14.993159,2.569731,43.222691
30,-0.768431,-2.815140,9.536764,-9.353335,-25.254709,91.501862,-15.077595,2.641165,46.498940
31,-0.635393,-3.012054,9.506017,-14.316053,-28.405359,83.365349,-15.335283,2.543870,49.546329
32,-0.429884,-3.139882,9.605843,-17.557621,-32.149212,75.304497,-15.748771,2.281517,52.364815
33,-0.253649,-3.117895,9.368948,-19.493858,-35.233368,68.819405,-16.272572,1.865662,54.983257
34,0.165700,-3.203171,9.375912,-22.565527,-42.532021,62.298752,-16.907396,1.248322,57.446899
35,0.370366,-3.252429,9.226341,-25.475254,-42.589676,54.469784,-17.675297,0.473275,59.725384
36,0.532655,-3.155773,9.173268,-20.522406,-41.222309,47.655098,-18.439814,-0.325977,61.775562
37,0.753777,-3.268776,8.948831,-20.740665,-42.065315,41.720333,-19.151926,-1.160227,63.631985
38,0.982347,-3.476987,9.006846,-23.261784,-41.014763,35.458534,-19.932491,-2.034308,65.307251
39,0.919749,-3.408629,9.136055,-17.022972,-33.932507,31.055099,-20.666700,-2.820407,66.781242
40,1.080317,-3.376638,9.381465,-9.860284,-34.702232,30.104580,-21.189899,-3.524964,68.143562
41,1.306899,-3.495620,9.422968,-10.012250,-38.350193,30.523342,-21.615770,-4.290370,69.531189
42,1.280228,-3.426342,9.383039,-6.639785,-35.349922,31.774517,-22.009428,-5.044857,70.955902
43,1.239506,-3.401120,9.457555,-3.023222,-31.150766,33.986958,-22.304319,-5.658247,72.394821
44,1.393782,-3.431264,9.214960,-2.477939,-32.372959,33.861286,-22.546022,-6.205840,73.851395
45,1.446503,-3.560359,9.030766,-4.546287,-28.295427,32.131077,-22.822226,-6.714579,75.264816
46,1.377841,-3.659639,8.983719,-2.500019,-18.524900,29.663832,-23.090427,-7.031134,76.526459
47,1.349298,-3.758543,8.947642,-0.486231,-10.791301,27.220505,-23.271526,-7.107219,77.598373
48,1.299020,-3.821605,8.903738,0.932827,-4.627137,25.135595,-23.375351,-6.997853,78.508232
49,0.987981,-4.009977,8.979752,-0.824664,7.484521,27.068544,-23.466181,-6.608427,79.293167
50,0.642788,-4.072449,8.791917,-4.538586,17.623745,29.530848,-23.630924,-5.847867,79.994774
51,0.269411,-4.066504,8.561838,-11.629663,25.416330,35.534950,-23.964945,-4.753844,80.700333
52,0.213205,-4.407006,8.536307,-28.541533,23.277546,43.260735,-24.696070,-3.473197,81.564255
53,0.063531,-4.856282,8.421487,-45.443214,23.548935,52.631596,-25.983368,-2.083577,82.674088
54,0.272008,-4.890610,8.147713,-51.883629,16.212046,53.777954,-27.636486,-0.692279,83.956436
55,-0.362863,-4.787449,8.429135,-43.904434,29.343502,62.002583,-29.230932,0.893433,85.289658
56,-0.390615,-4.892136,8.649756,-37.612408,24.787758,62.023743,-30.545324,2.703842,86.634819
57,-0.588037,-4.726656,8.806780,-20.934341,22.782986,55.106411,-31.442944,4.387103,87.902122
58,-0.938104,-4.401998,8.943431,0.060504,22.078417,44.719585,-31.698158,5.893483,88.933594
59,-1.465532,-4.414191,9.295637,14.985513,22.347672,38.800282,-31.354597,7.250826,89.740196
60,-1.045223,-4.765252,9.219971,15.635523,1.870098,23.201548,-30.752357,8.128509,90.424789
61,-1.281408,-4.759032,9.139272,22.851736,-1.607547,15.108265,-30.031944,8.455128,90.980072
62,-1.610258,-4.624605,8.818722,27.137760,0.971488,12.737894,-29.137356,8.674480,91.393990
63,-1.427139,-4.666428,8.642472,23.015623,-5.786477,6.607386,-28.252172,8.758553,91.719055
64,-1.705788,-4.617430,8.452452,17.689964,-1.267759,4.789899,-27.539589,8.743478,91.945076
65,-1.770035,-4.430014,8.417109,18.148188,-0.002363,0.634162,-26.928413,8.765926,92.036049
66,-1.590431,-4.364494,8.374545,14.105597,-3.983396,-7.510370,-26.401983,8.654943,91.962624
67,-1.258362,-4.460313,8.512382,7.810299,-12.027138,-18.646418,-26.077192,8.222629,91.686913
68,-1.823850,-4.247872,8.668522,12.407459,1.212073,-18.438906,-25.807209,7.789867,91.205811
69,-1.511777,-4.178161,8.714993,14.132310,-5.449801,-25.033314,-25.448650,7.412844,90.577179
70,-1.390868,-4.194742,8.743374,10.881683,-8.932616,-28.929686,-25.120113,6.811981,89.861115
71,-1.323422,-4.228811,8.746605,6.124927,-10.411924,-30.676722,-24.922924,6.099468,89.092773
72,-1.370369,-4.142342,8.690602,3.367407,-8.042435,-28.644072,-24.841940,5.404225,88.321777
73,-0.610715,-4.338242,8.707734,-6.319355,-23.785734,-32.631500,-24.952127,4.493039,87.616295
74,-0.296016,-4.451510,8.742870,-12.492531,-26.888687,-32.069733,-25.306484,3.270114,86.997925
75,-0.194918,-4.380083,8.795872,-10.036788,-21.441919,-28.581596,-25.708178,2.107683,86.432434
76,0.039557,-4.311070,8.888535,-5.147360,-18.632561,-26.680620,-25.976501,1.105298,85.894485
77,0.208029,-4.211891,9.032829,2.740748,-15.199683,-24.633841,-26.022755,0.223853,85.372719
78,0.261767,-4.070798,8.956716,8.914457,-10.227621,-21.391169,-25.827454,-0.492302,84.867645
79,0.349840,-4.045123,8.993079,9.831161,-7.123180,-19.449200,-25.508652,-1.047513,84.378990
80,0.579737,-4.012833,9.021878,9.719019,-9.273407,-19.928055,-25.172035,-1.575315,83.902596
81,0.648297,-3.962752,8.989144,9.541399,-8.192607,-17.882574,-24.836550,-2.105467,83.454361
82,0.642561,-4.007489,8.947571,3.050907,-6.103014,-15.405802,-24.610249,-2.553884,83.049706
83,0.541446,-4.162699,9.082387,-3.252404,-2.151743,-12.609564,-24.596251,-2.873529,82.682220
84,0.539913,-4.110560,8.951371,-1.308632,0.174316,-10.786273,-24.654707,-3.066134,82.341194
85,0.342436,-4.167054,8.951535,-0.658303,7.161146,-6.626318,-24.670662,-3.076080,82.025978
86,0.093898,-4.194117,8.972997,-0.083538,14.693826,-2.661009,-24.668165,-2.809669,81.732918
87,-0.115603,-4.232498,9.000255,2.239010,20.817726,1.121993,-24.620420,-2.282413,81.462563
88,-0.185335,-4.035904,8.825609,8.294643,23.026964,2.650494,-24.436714,-1.591489,81.216339
89,-0.229290,-4.009184,8.906932,7.117285,22.233755,3.056607,-24.175138,-0.864781,80.992760
90,-0.075569,-4.046575,8.813526,0.313607,19.642080,3.382432,-24.049612,-0.183945,80.805550
91,0.090194,-4.025157,8.776598,-0.048403,3.252317,-2.462163,-24.045210,0.170665,80.663742
92,0.054763,-4.071217,8.878972,2.819334,-0.600893,-0.479326,-23.999081,0.191069,80.600975
93,-0.025076,-4.020708,8.998993,10.270082,0.315274,4.813109,-23.780676,0.215991,80.668953
94,0.050940,-3.687120,9.131665,21.858759,-5.202590,5.455623,-23.244493,0.209611,80.858360
95,-0.212021,-3.412378,9.569100,31.195412,-0.861749,12.691140,-22.359133,0.233597,81.176514
96,-0.218223,-3.273681,9.700373,30.744066,-1.405375,17.657990,-21.324123,0.386806,81.659607
97,0.123847,-3.138281,9.721447,25.027021,-9.373719,16.585617,-20.390491,0.422505,82.256752
98,0.344223,-3.162679,9.606084,12.851395,-13.931055,13.152220,-19.756180,0.228177,82.856056
99,0.093001,-3.491293,9.481910,-5.080970,-4.332370,14.717090,-19.625406,0.098549,83.396347
100,0.192877,-3.531925,8.881305,-17.348082,-3.692279,9.375735,-19.998091,0.109505,83.819527
101,-0.044998,-3.683630,8.738403,-27.046995,4.901082,6.912920,-20.737299,0.223395,84.066963
102,-0.190856,-3.839005,8.500054,-31.493334,8.999836,3.710398,-21.712223,0.503902,84.148430
103,-0.280358,-3.919786,8.526937,-28.099503,10.384844,1.397654,-22.705748,0.835503,84.105217
104,-0.270056,-4.050486,8.616240,-24.042631,6.945346,-0.773161,-23.576405,1.105371,84.001389
105,-0.126724,-4.345423,8.975371,-19.605268,1.077928,-4.021732,-24.306343,1.195220,83.873886
106,-0.005701,-4.398460,9.117595,-11.056780,-3.052729,-6.958722,-24.820339,1.089279,83.720764
107,-0.021476,-4.372408,9.429349,-2.649475,-2.642365,-8.047870,-25.051968,0.897892,83.533714
108,-0.110286,-4.309592,9.603887,2.024533,0.830296,-7.380895,-25.065588,0.761754,83.313416
110,0.021304,-4.095391,9.399233,3.505252,-2.001076,-8.556872,-24.976322,0.631801,83.080925
111,-0.028198,-3.851947,8.991795,4.385988,-3.580559,-7.281396,-24.846615,0.436266,82.880684
112,-0.096411,-3.736925,8.594800,4.666206,-4.617550,-4.746328,-24.696430,0.228243,82.755928
113,-0.202182,-3.713495,8.403517,3.776797,-3.641243,-0.455466,-24.555725,0.067026,82.734451
114,0.126895,-3.953850,8.703471,1.809999,-15.019546,-2.277308,-24.462706,-0.234822,82.822021
115,0.144630,-4.027469,8.982807,7.564724,-14.833398,0.760870,-24.307951,-0.698380,83.004539
116,0.284465,-4.000784,9.275814,12.710151,-13.668758,1.958766,-23.973658,-1.113366,83.239998
117,0.444221,-3.887050,9.411482,12.222301,-12.488866,0.491645,-23.562931,-1.495948,83.452950
118,0.624275,-3.863287,9.455664,6.600008,-13.102026,-3.656836,-23.252872,-1.908354,83.574020
119,0.460918,-3.911387,9.143362,-1.484186,-5.617765,-4.980486,-23.167406,-2.251859,83.564888
120,0.375137,-3.950167,8.752192,-9.325046,-1.278527,-7.072569,-23.341974,-2.436801,83.425743
121,0.260389,-4.279160,8.718221,-20.189663,2.228789,-7.327991,-23.824179,-2.518339,83.199387
122,0.418813,-4.737317,8.909545,-25.189375,-1.205076,-9.693844,-24.568617,-2.619166,82.933540
123,0.341079,-4.719470,8.793134,-16.805634,0.938978,-8.144369,-25.255857,-2.748471,82.665298
124,0.268660,-4.487820,8.629445,-7.064231,3.244060,-5.359868,-25.642462,-2.782094,82.431900
125,0.377752,-4.461694,8.892854,-1.183245,1.248188,-6.097311,-25.770012,-2.797338,82.227211
126,0.303332,-4.223091,8.984095,8.274674,3.394123,-3.996925,-25.642733,-2.800512,82.041817
127,0.168458,-3.916669,9.069502,26.881891,14.312770,1.900272,-25.049454,-2.548633,81.883705
128,0.260263,-3.883759,9.182797,25.337337,8.642468,-0.061341,-24.173889,-2.187819,81.751945
129,0.421818,-3.818427,9.247635,23.698269,-1.710106,-3.565213,-23.352835,-2.106424,81.650345
130,0.504530,-3.769576,9.318069,16.492054,-2.985800,-3.497396,-22.680038,-2.224440,81.573196
131,0.611597,-3.807255,9.363119,14.576449,-4.635543,-5.290745,-22.158733,-2.397735,81.486290
132,0.593898,-3.737279,9.298286,15.846427,-3.274258,-5.109693,-21.646841,-2.584757,81.374634
133,0.574368,-3.557977,9.211114,17.898838,-2.936462,-4.379658,-21.079351,-2.738767,81.264877
134,0.482462,-3.555344,9.274030,16.247149,-0.613542,-1.861649,-20.506556,-2.830963,81.188492
135,0.347966,-3.513742,9.283181,16.480217,2.133625,3.138330,-19.961668,-2.799778,81.199593
136,0.360520,-3.402991,9.191207,18.268744,0.642576,7.151278,-19.389538,-2.698323,81.345490
137,0.462305,-3.334543,9.198317,19.094671,-3.446639,9.721823,-18.779991,-2.650380,81.626839
138,0.533207,-3.305832,9.165434,18.835770,-5.874372,12.231103,-18.166372,-2.681638,82.023643
139,0.607887,-3.287829,9.138910,16.842634,-7.400092,12.690207,-17.593826,-2.764513,82.487434
140,0.642028,-3.294627,9.104720,13.382199,-7.272597,10.868020,-17.112217,-2.880712,82.935738
141,0.603471,-3.168059,9.102401,12.420472,-5.109580,8.779090,-16.701338,-2.982883,83.309578
142,0.538880,-3.014350,9.074239,9.518479,-2.173137,7.385984,-16.351030,-3.022665,83.602737
143,0.470008,-3.063234,9.298684,-4.917992,2.251617,6.765918,-16.286112,-2.955133,83.829002
144,0.422444,-2.955886,9.538696,3.300160,5.151748,6.167622,-16.321615,-2.775964,84.001366
145,0.379627,-2.690828,9.632016,18.485439,6.574978,4.922840,-15.964199,-2.536936,84.124832
146,0.393750,-2.536575,9.785673,18.531361,3.164978,3.026325,-15.350808,-2.345057,84.208885
147,0.320188,-2.446026,10.007419,20.922567,4.510401,2.388652,-14.695424,-2.198163,84.263100
148,0.234932,-2.158250,10.086660,28.192106,6.526298,1.451873,-13.877477,-2.004176,84.279724
149,0.167246,-1.822272,10.018734,31.008497,8.986790,-0.647963,-12.889311,-1.749657,84.232887
150,0.116942,-1.746144,10.092717,23.163954,11.746095,-1.854652,-11.983280,-1.421406,84.117615
151,-0.271693,-1.844703,10.345578,10.516601,25.808813,-4.888524,-11.417287,-0.831502,83.880264
152,-0.408926,-1.566442,10.285923,12.244716,33.057201,-11.633592,-11.034880,0.076711,83.418098
153,-0.313696,-0.950461,9.628633,35.527966,26.064564,-14.859776,-10.243991,0.963342,82.802216
154,-0.478836,-1.055856,9.637450,11.970283,25.172516,-14.151004,-9.466560,1.722726,82.181557
155,-0.455599,-1.553106,10.036569,-24.852940,18.023731,-10.673567,-9.700147,2.362659,81.652199
156,-0.016890,-2.148771,10.083274,-38.646641,-2.604153,-6.637661,-10.772623,2.562756,81.320518
157,-0.064150,-2.376001,9.699508,-18.929873,-8.739944,0.821131,-11.734342,2.357466,81.260605
158,-0.094862,-2.495202,9.138411,-30.555161,-6.267246,8.120772,-12.551128,2.143783,81.458458
159,0.157330,-2.494854,9.148288,-30.367422,-14.968429,13.812493,-13.550931,1.881342,81.895149
160,0.077744,-2.011560,7.808020,7.942323,-16.374731,17.047052,-13.906356,1.495411,82.518440
161,-0.025875,-1.268172,7.140438,32.678265,-15.294602,22.703497,-13.211690,1.135815,83.285286
162,0.050941,-1.397586,7.468575,0.291501,-20.500900,25.191065,-12.647132,0.731884,84.196007
163,0.187745,-2.351513,9.074758,-34.123089,-26.039976,22.039608,-13.203872,0.154275,85.137802
164,0.266169,-3.249552,9.933600,-36.050735,-23.943884,13.994586,-14.376209,-0.509061,85.920647
165,0.316503,-3.700772,10.857771,-43.046650,-18.426516,9.334269,-15.702463,-1.089208,86.479370
166,0.210088,-3.910268,11.202653,-44.409046,-9.628961,5.348209,-17.168066,-1.467499,86.847046
167,0.286056,-4.231066,11.305760,-43.854233,-4.560680,-0.666607,-18.642866,-1.667773,86.994812
168,0.053747,-4.204755,10.937447,-35.522758,5.495268,-4.101449,-19.963327,-1.678549,86.914917
169,-0.217134,-3.768710,10.044015,-25.795952,12.908861,-0.686835,-20.980331,-1.418429,86.733620
170,-0.218229,-3.924599,9.971575,-28.251478,12.523322,-0.321957,-21.877542,-1.029940,86.563866
171,-0.103592,-4.134155,9.761577,-28.300024,8.713373,-2.096518,-22.817377,-0.717995,86.391914
172,-0.060972,-4.083004,9.398314,-26.454901,5.510135,-0.173408,-23.728447,-0.515184,86.263206
173,-0.046846,-4.200659,8.903580,-29.057608,3.295868,3.051583,-24.653486,-0.361850,86.246704
174,0.092536,-4.285640,8.513469,-27.301023,-1.224822,4.006587,-25.593288,-0.280926,86.338493
175,0.272585,-3.999460,8.097684,-14.462400,-7.184192,3.077332,-26.290266,-0.355507,86.505722
176,0.449918,-3.841467,7.918936,-4.417852,-12.799394,2.262743,-26.606916,-0.614309,86.733398
177,0.651012,-3.978754,7.975685,-3.365438,-16.657957,-1.168977,-26.740114,-1.045037,86.969788
178,0.732442,-3.913288,8.248622,3.779468,-15.146714,-4.439152,-26.736862,-1.560480,87.124756
179,0.623277,-3.789367,8.564840,10.627502,-7.675187,-6.747868,-26.496992,-1.984141,87.128212
180,0.430903,-4.040887,8.927058,5.945728,3.162441,-7.997304,-26.214169,-2.160725,86.940971
181,0.186910,-4.254572,9.264995,5.333862,14.711721,-7.869710,-26.012953,-2.009809,86.572021
182,-0.224952,-4.181302,9.505104,12.329888,27.325056,-2.481567,-25.704840,-1.454691,86.110847
183,-0.547175,-4.265837,9.598749,13.160506,35.875336,4.310842,-25.273226,-0.490602,85.685043
184,-0.413478,-4.296047,9.319270,11.812128,32.382278,5.948575,-24.857903,0.612302,85.357758
185,-0.214382,-4.012730,9.009759,13.879987,23.689230,4.393644,-24.434278,1.533527,85.124672
186,-0.062392,-4.059042,8.707272,2.674450,14.965277,2.187464,-24.163717,2.165886,84.959885
187,0.268418,-4.108595,8.350557,-8.324815,2.069321,-4.592802,-24.263979,2.408264,84.806419
188,0.548304,-4.076186,8.054906,-14.591928,-11.727381,-12.268661,-24.653276,2.145275,84.616821
189,0.318595,-4.134439,8.294771,-17.809359,-12.681374,-12.998072,-25.199976,1.598841,84.405968
190,0.044454,-4.375892,8.571011,-19.257708,-10.681932,-10.967088,-25.822226,1.075385,84.213249
191,-0.054849,-4.422302,8.766097,-10.099016,-13.927008,-10.043409,-26.313383,0.553046,84.079086
192,-0.472924,-4.484819,8.723229,-4.693499,-11.497493,-1.180062,-26.559694,0.090362,84.099823
193,-0.678951,-4.290217,8.823512,3.555747,-10.801400,6.561078,-26.578655,-0.202051,84.346191
194,-0.602031,-4.238530,8.595110,2.358434,-12.622479,11.150086,-26.482244,-0.419641,84.784492
195,-0.579748,-4.330580,8.466791,-4.237083,-12.438531,17.281464,-26.518805,-0.581923,85.394974
196,-0.554431,-4.229035,8.354465,-6.405035,-9.987907,23.440784,-26.704041,-0.611803,86.169296
197,-0.124520,-4.140607,8.544138,-4.958628,-14.314070,20.009754,-26.902250,-0.646700,86.998390
198,0.211752,-4.473543,8.629824,-10.263497,-16.379192,16.129622,-27.166172,-0.828655,87.767357
199,0.448217,-4.589408,8.775373,-6.345112,-15.954818,11.479780,-27.454226,-1.096010,88.423538
200,0.564506,-4.495426,8.816547,0.831844,-11.589811,5.769979,-27.556328,-1.370515,88.890518
201,0.587916,-4.527355,8.948635,2.034473,-4.277114,0.199212,-27.514038,-1.559210,89.100929
202,0.379031,-4.570175,9.090150,3.036633,6.727403,-2.995163,-27.427937,-1.544521,89.040688
203,0.211280,-4.280670,9.024132,10.625151,15.619235,-5.320630,-27.193026,-1.277226,88.746521
204,0.054899,-4.263958,8.994865,9.656493,22.338770,-7.121760,-26.846443,-0.807803,88.274361
205,-0.099343,-4.195065,8.982748,9.977058,25.887648,-7.489205,-26.514162,-0.199127,87.695717
206,-0.162705,-4.173475,8.812243,6.605677,24.476444,-7.750637,-26.239101,0.439973,87.095230
207,-0.195177,-3.991771,8.602881,7.527568,21.494438,-7.360855,-26.010679,1.016804,86.531593
208,-0.278198,-3.988350,8.484840,5.762467,17.904890,-7.569009,-25.800367,1.498808,86.020866
209,-0.384986,-3.995478,8.405196,2.767180,13.516153,-6.365767,-25.670975,1.869644,85.584084
210,-0.392932,-4.253253,8.513382,-2.652546,6.775918,-6.825438,-25.680923,2.079123,85.239159
211,-0.548681,-4.256529,8.689631,3.438115,3.848527,-4.470574,-25.676819,2.156992,84.992493
213,-0.467860,-4.410065,8.765443,4.595380,-4.422905,-2.158533,-25.546471,2.100714,84.896980
214,-0.247378,-4.475473,8.880096,4.770426,-13.864605,-0.208743,-25.387041,1.808636,84.992523
215,0.143477,-4.360234,8.998506,10.198250,-23.471720,-1.515877,-25.131138,1.233672,85.232231
216,0.528930,-4.073809,8.842875,14.101901,-30.459805,-3.178355,-24.721836,0.385573,85.540054
217,0.878242,-4.026956,8.812953,10.154167,-34.035423,-4.923660,-24.318411,-0.648397,85.863243
218,1.066609,-4.027215,8.844208,4.965945,-31.373386,-7.673807,-24.071838,-1.728624,86.118965
219,1.145816,-4.019853,8.949862,0.834462,-45.160233,-19.390625,-23.979950,-3.077143,86.226761
220,0.975219,-3.898939,8.965885,4.061529,-22.943148,-13.342195,-23.896561,-4.335714,86.189148
221,0.840849,-3.751798,9.107346,12.798805,-2.744445,-6.818285,-23.605055,-4.862868,86.053169
222,0.532013,-3.670993,9.310505,18.563507,19.810350,1.385546,-23.066317,-4.637524,85.855927
223,0.269372,-3.695619,9.488599,9.377346,20.393852,1.460792,-22.584581,-4.001515,85.638290
224,0.012138,-3.685194,9.468483,8.293098,26.204712,3.802467,-22.276423,-3.250345,85.422180
225,-0.155646,-3.802373,9.395700,5.745910,27.532650,6.870887,-22.034067,-2.353837,85.248772
226,-0.281316,-3.895593,9.355921,2.114266,25.890661,8.524016,-21.900106,-1.432172,85.153412
227,-0.203574,-3.964839,9.224820,-2.506339,18.543907,7.384396,-21.906229,-0.646203,85.122917
228,-0.219552,-3.822724,9.169611,-4.295613,19.708958,12.473327,-22.020012,0.068813,85.191124
229,-0.446774,-3.659358,8.983992,0.678658,19.924362,19.597116,-22.078453,0.881647,85.438507
230,-0.566936,-3.713160,9.109790,-0.768012,5.181001,16.899971,-22.071827,1.497848,85.845306
231,-0.580680,-3.804932,9.054083,-3.465306,0.397743,18.255869,-22.128311,1.804470,86.353333
232,-0.639295,-3.725435,8.862922,-2.989975,-1.313330,20.375357,-22.215942,2.033399,86.955566
233,-0.522076,-3.830246,8.730692,-6.709321,-5.106050,18.247601,-22.354284,2.178463,87.592194
234,-0.180290,-4.044999,8.876695,-9.295884,-12.867747,11.536300,-22.599855,2.091615,88.165688
235,0.089462,-4.070470,8.857186,-8.133662,-17.577950,7.169392,-22.874580,1.744298,88.649437
236,0.134913,-4.087527,8.941319,-13.579882,-24.998009,-1.960565,-23.227774,1.125378,89.007103
237,0.169587,-4.117565,9.063243,-9.473722,-17.884321,-6.151835,-23.610346,0.416138,89.167061
238,0.138069,-4.044301,9.142513,-1.805806,-7.328839,-7.050569,-23.798725,-0.056929,89.134453
239,0.114171,-3.949257,9.152342,1.298579,2.997244,-7.856020,-23.806890,-0.223160,88.936150
240,0.007857,-3.810385,9.062845,4.554074,8.602730,-10.621163,-23.708300,-0.170227,88.576378
241,-0.026452,-3.721508,8.949587,3.792361,10.570775,-12.474169,-23.568430,-0.031771,88.095604
242,0.005740,-3.822531,8.944140,-0.243063,9.423446,-13.399140,-23.509609,0.101464,87.567162
243,-0.140311,-3.730844,8.974535,2.088431,11.893527,-11.524965,-23.480452,0.261525,87.044540
244,-0.319967,-3.701327,8.993500,4.015663,14.843717,-8.739381,-23.382231,0.536181,86.557472
245,-0.327066,-3.780622,9.075136,2.447260,12.474549,-5.446733,-23.279530,0.860691,86.160049
246,-0.345976,-3.819190,9.205628,7.607108,13.685504,0.505189,-23.116539,1.228979,85.912544
247,-0.208709,-3.774452,9.287909,11.741852,1.240171,0.772009,-22.796078,1.466489,85.835197
248,0.095509,-3.792826,9.273829,8.912039,-18.256762,-2.896798,-22.450092,1.191223,85.911957
249,0.335643,-3.849889,9.295309,3.984539,-18.581579,1.391464,-22.231861,0.613930,86.122696
250,0.369654,-3.904708,9.318708,0.244535,-20.510468,2.571449,-22.159443,0.035783,86.430161
251,0.405776,-3.738867,9.285598,1.083272,-21.080490,1.589003,-22.138815,-0.579989,86.755882
252,0.209978,-3.491286,9.073721,2.288900,-14.708330,3.826982,-22.087181,-1.098616,87.064026
253,-0.002600,-3.361751,8.869529,1.629398,-6.384768,5.678604,-22.027731,-1.364966,87.342857
254,-0.077070,-3.531341,8.734936,-4.881142,-1.085620,6.076007,-22.087313,-1.406780,87.571236
255,-0.019387,-3.484491,8.634892,-0.350084,0.640621,3.297550,-22.177971,-1.354675,87.718819
256,-0.016894,-3.543379,8.678818,2.119623,3.682104,2.276044,-22.149801,-1.252938,87.777695
257,-0.032529,-3.776606,8.891523,-2.282961,12.501710,2.697674,-22.152020,-0.971876,87.752792
258,-0.045935,-3.805881,8.919546,-0.464719,13.674802,0.196482,-22.196173,-0.549674,87.632706
259,-0.173514,-3.519022,8.983200,15.206857,19.022161,0.830406,-21.949417,-0.038220,87.443832
260,-0.478345,-3.304613,9.022840,20.820852,30.201832,7.570221,-21.350107,0.776104,87.271805
261,-0.787762,-3.097162,8.926606,11.217278,20.709415,8.543906,-20.817635,1.664508,87.216911
262,-0.641107,-2.843632,8.932652,11.505836,11.271543,10.683118,-20.435335,2.276330,87.328827
263,-0.309948,-2.916769,9.240449,7.624738,-1.979339,8.608710,-20.106386,2.533138,87.577232
264,-0.106617,-2.831017,9.399989,9.754616,-10.575985,4.990885,-19.804722,2.413935,87.862198
265,0.201294,-2.737012,9.436687,10.729867,-18.865540,0.447122,-19.453907,1.982159,88.112762
266,0.548736,-2.875502,9.470305,7.323212,-24.637388,-6.529325,-19.149160,1.264328,88.256996
267,0.532907,-3.095541,9.367743,4.176439,-20.255360,-10.571321,-18.958206,0.464041,88.232193
268,0.242453,-3.126216,9.031525,3.321317,-9.601299,-9.636394,-18.834040,-0.115875,88.074852
269,0.082163,-3.308652,8.875040,-2.939446,-3.403544,-5.271389,-18.827156,-0.401244,87.909584
270,0.101804,-3.540544,8.913293,-20.522270,-3.032536,-3.020949,-19.217434,-0.547772,87.814018
271,0.076012,-3.686024,9.018363,-23.133673,-0.080449,-0.217138,-19.944664,-0.614917,87.780777
272,0.075651,-3.675098,9.169562,-15.879517,0.862489,1.543885,-20.595026,-0.595119,87.797218
273,0.195848,-3.896678,9.412180,-10.368737,-2.276026,1.167400,-21.033018,-0.601155,87.847923
274,0.311557,-3.861727,9.417572,-8.667347,-3.336319,-1.801932,-21.350561,-0.692237,87.871765
275,0.273766,-3.884151,9.561783,-7.811694,-0.965385,-4.088236,-21.624386,-0.794855,87.806625
276,0.279121,-3.887281,9.345826,-8.137693,0.195350,-6.329003,-21.887955,-0.871063,87.650124
277,0.216120,-4.047283,9.033678,-13.730997,2.477227,-6.595208,-22.249086,-0.910669,87.433754
278,0.079452,-3.973301,8.917392,-10.576675,5.647553,-6.535493,-22.650297,-0.869148,87.179832
279,-0.146261,-4.129585,8.988493,-10.901896,10.365847,-2.896600,-23.004951,-0.684059,86.931473
280,-0.294766,-4.227317,8.897697,-12.502060,12.378306,0.158032,-23.393402,-0.353674,86.740326
281,-0.339573,-4.227181,9.143191,-8.711879,10.424142,3.009988,-23.746752,0.015688,86.636826
282,-0.370368,-4.166678,9.226481,-4.516022,7.379036,6.587330,-23.967213,0.351685,86.663185
283,-0.349655,-4.274237,9.165772,-6.947803,3.761211,11.501296,-24.156649,0.644057,86.862846
284,-0.110155,-4.148787,9.074388,-3.194473,-3.797324,9.754552,-24.321793,0.788899,87.186081
285,0.001156,-4.216984,9.086929,-1.894981,-7.340248,8.347599,-24.402105,0.744147,87.537460
286,0.051148,-4.214314,8.930333,-3.846450,-12.233344,5.672462,-24.493986,0.543847,87.885193
287,0.202364,-4.163264,9.011646,2.927259,-16.319876,1.168108,-24.507603,0.158147,88.186256
288,0.235220,-4.049709,9.101510,11.630706,-13.297535,-1.238955,-24.265398,-0.292058,88.388802
289,0.142641,-4.151259,9.112359,5.965563,-2.354862,1.981774,-23.973061,-0.525278,88.506393
290,0.076328,-4.006294,9.002245,7.184950,0.658114,2.857671,-23.754591,-0.518492,88.591454
291,-0.024767,-3.979293,9.046259,5.706988,3.423143,4.048304,-23.540337,-0.410030,88.669548
292,-0.140705,-4.012977,9.124248,3.980936,5.903453,4.715502,-23.379246,-0.209279,88.741600
293,-0.194809,-3.933768,9.098619,5.227375,6.482259,4.383336,-23.225843,0.040302,88.799164
294,-0.269452,-3.810714,9.091556,7.194559,6.691236,5.644867,-23.018595,0.307843,88.866676
295,-0.211320,-3.831632,9.019273,4.405268,3.628652,5.593135,-22.824499,0.539210,88.972221
296,-0.175053,-3.849468,9.049617,3.252418,1.215458,4.747355,-22.695557,0.680369,89.099915
297,-0.145867,-3.811262,9.007158,2.273921,-0.143421,4.823170,-22.601709,0.758293,89.240250
298,-0.140503,-3.746996,8.961797,2.924344,-1.902289,5.385547,-22.512787,0.792089,89.410484
299,0.011046,-3.723268,8.978590,2.530168,-9.827169,2.370456,-22.419439,0.660834,89.604675
300,0.080353,-3.763391,9.128520,2.117464,-11.728705,0.510160,-22.340506,0.346917,89.785927
301,0.190389,-3.746852,9.095411,2.430628,-13.845168,-2.193988,-22.264418,-0.058075,89.921730
302,0.153220,-3.527872,9.174360,12.861993,-7.874238,-2.492054,-22.009890,-0.422818,89.985802
303,0.210942,-3.525585,9.295664,11.802397,-6.476228,-4.828201,-21.598619,-0.690286,89.960983
304,0.120409,-3.610973,9.349410,5.906113,0.957521,-4.300815,-21.302105,-0.831613,89.853012
305,-0.044967,-3.401806,9.254823,7.538467,5.849049,-4.263280,-21.075657,-0.777523,89.678802
306,-0.166174,-3.340986,9.279956,6.473033,8.206383,-3.357891,-20.839748,-0.604205,89.476334
307,-0.172977,-3.527466,9.175310,-1.101150,13.671639,0.516583,-20.748915,-0.280154,89.302544
308,-0.185935,-3.574062,9.103485,-6.290848,11.031998,0.317222,-20.872036,0.109561,89.169037
309,-0.178219,-3.581164,9.064839,-5.809653,2.790751,-1.668270,-21.074091,0.316555,89.065384
310,-0.107670,-3.541939,9.106277,-7.154812,-0.122733,-1.765472,-21.290514,0.337325,88.995842
311,-0.061086,-3.545712,9.121952,-7.962732,-0.613713,-2.050075,-21.542767,0.302656,88.941078
312,-0.010003,-3.487532,9.164678,-5.891768,-0.263294,-4.381223,-21.774124,0.249509,88.846832
313,-0.045401,-3.393979,9.209608,-1.502178,1.781739,-5.361455,-21.898010,0.212658,88.686691
314,-0.129606,-3.220256,9.286122,4.906002,4.899846,-5.388891,-21.842142,0.249327,88.478928
316,-0.071721,-3.347390,9.389414,4.740097,3.110456,-7.061276,-21.682568,0.296476,88.236717
317,-0.009667,-3.290539,9.343652,6.888474,1.129335,-6.707096,-21.489912,0.277746,87.997360
318,0.079683,-3.329502,9.217631,4.476937,-1.280656,-6.351693,-21.301292,0.196052,87.795647
319,0.131138,-3.478978,9.220842,-1.295126,-2.033393,-5.392530,-21.248610,0.073540,87.633354
320,0.192206,-3.663949,9.113087,-6.897664,-3.053335,-5.176510,-21.385141,-0.069537,87.500107
321,0.204483,-3.706686,9.041589,-8.782649,-2.254040,-3.021080,-21.646236,-0.201997,87.405479
322,0.204469,-3.772788,9.160318,-8.290767,-1.925454,-2.766722,-21.930508,-0.302528,87.341820
323,0.119888,-3.684762,9.418020,-1.611371,0.792988,-0.842275,-22.095272,-0.342571,87.293137
324,0.056348,-3.659147,9.443920,2.404335,1.900929,0.029572,-22.081898,-0.306047,87.263725
325,0.063706,-3.517020,9.562296,8.653865,1.246410,0.491902,-21.897541,-0.254144,87.252144
326,-0.084351,-3.410192,9.515378,12.656465,4.307177,1.108934,-21.542339,-0.158270,87.242699
327,-0.215546,-3.416243,9.456977,12.392034,6.943865,1.331306,-21.124832,0.031179,87.212311
328,-0.251997,-3.478027,9.340536,13.059299,12.437063,2.154290,-20.700853,0.353623,87.151207
329,-0.194510,-3.329833,9.203741,15.812601,6.713533,0.207713,-20.220331,0.666384,87.076370
330,-0.032839,-3.369224,9.203512,10.407179,-4.288589,-5.378291,-19.784422,0.674901,86.981834
331,0.264058,-3.415761,9.226962,9.383238,-9.643921,-9.788979,-19.455957,0.371211,86.822075
332,0.352125,-3.288486,9.161626,11.704464,-10.694175,-11.102171,-19.105061,-0.063774,86.605530
333,0.086800,-3.403145,9.049591,4.839698,-2.820284,-5.044864,-18.828661,-0.364232,86.424210
334,0.024483,-3.380566,9.307246,-0.022225,1.375502,-0.683721,-18.747860,-0.417804,86.341530
335,0.208402,-3.378938,9.337452,0.763223,-6.297296,-2.419346,-18.735352,-0.512115,86.318901
336,0.278859,-3.403945,9.279381,-1.158547,-9.240543,-3.733091,-18.741760,-0.790290,86.304985
337,0.169619,-3.568588,9.114623,-12.814313,-0.888730,-1.152781,-18.974297,-0.976369,86.282532
338,0.470003,-3.466462,9.320592,6.062746,-4.288425,-7.164792,-19.084978,-1.103153,86.179901
339,0.256494,-3.521963,9.053068,4.871929,2.234871,-8.141942,-18.898071,-1.218358,85.949554
340,-0.284514,-3.561414,8.982852,1.502381,15.072552,-1.388167,-18.787245,-0.996720,85.705948
341,-0.745370,-3.493784,9.012894,-10.503263,47.387306,16.742594,-18.936785,0.071026,85.611397
342,-0.608948,-3.461825,9.219304,-3.503663,28.928516,16.320972,-19.169586,1.452806,85.716530
343,-0.407874,-3.553805,9.061212,-0.410539,-0.063908,13.035154,-19.226166,2.067784,86.020920
344,-0.098907,-3.585928,9.183780,-3.365920,-13.093537,12.151475,-19.273384,1.999047,86.489807
345,0.172186,-3.516600,9.203840,-3.937438,-19.607777,9.323692,-19.379223,1.603280,87.008125
346,0.522690,-3.545663,9.165441,-5.865197,-25.391050,3.272879,-19.532837,0.966103,87.455933
347,0.502135,-3.472975,9.147546,-11.918245,-37.250919,-6.167908,-19.827147,-0.033023,87.762093
348,0.244249,-3.267534,9.208062,1.382856,-14.411441,-2.372394,-20.004681,-0.890723,87.921677
349,0.218206,-3.251952,9.126214,2.740343,-3.769482,-2.746115,-19.936375,-1.204741,87.944443
350,0.170633,-3.304705,9.118364,-2.257611,1.398496,-2.354094,-19.926968,-1.270891,87.877907
351,0.009540,-3.203562,9.211607,-1.072263,6.155870,-1.528951,-19.980282,-1.174653,87.774109
352,-0.040221,-3.223625,9.292452,-2.690816,7.402703,-1.089706,-20.040806,-0.977243,87.655777
353,-0.005168,-3.269276,9.309221,-4.392632,6.067547,-2.247708,-20.156887,-0.785541,87.526360
354,-0.098660,-3.293535,9.341443,-5.223709,7.081965,-0.982540,-20.315607,-0.598545,87.399986
355,-0.095694,-3.185795,9.312083,-1.630128,5.897633,-1.214792,-20.428902,-0.408515,87.290359
356,-0.110262,-3.265627,9.268866,-4.074709,4.862527,-0.034476,-20.523504,-0.247768,87.208160
357,-0.063117,-3.264000,9.222118,-3.728452,2.339496,0.756207,-20.653463,-0.131197,87.177162
358,0.008188,-3.288992,9.214553,-4.995806,-0.655091,1.299862,-20.798925,-0.092828,87.199272
359,0.132579,-3.300657,9.203462,-5.519348,-4.143658,0.269365,-20.974302,-0.158243,87.252190
360,0.174376,-3.381388,9.278879,-6.726233,-4.360856,-0.571514,-21.178589,-0.292315,87.298416
361,0.214194,-3.407227,9.286409,-5.369676,-4.048427,-2.045295,-21.380255,-0.438727,87.308624
362,0.217680,-3.466982,9.303121,-5.670991,-2.819261,-3.258473,-21.563929,-0.577580,87.268257
363,0.125770,-3.522954,9.288811,-5.676241,0.668719,-3.638026,-21.752060,-0.653293,87.174667
364,0.060237,-3.486012,9.325735,-3.677924,2.650661,-3.383384,-21.906528,-0.645428,87.045494
365,0.014833,-3.542550,9.218398,-4.495349,3.357676,-2.587710,-22.041370,-0.589778,86.915764
366,-0.027068,-3.632838,9.220017,-6.535358,4.048953,-2.082911,-22.224089,-0.504769,86.797134
367,-0.049447,-3.572251,9.190550,-3.660645,3.818893,-1.945381,-22.393139,-0.408960,86.685249
368,-0.032857,-3.508618,9.174314,0.451694,2.744070,-1.254873,-22.446035,-0.328166,86.594238
369,0.044146,-3.565142,9.219585,1.975940,0.373305,-0.875112,-22.405293,-0.293660,86.541626
370,0.039294,-3.457934,9.320590,17.910469,0.389865,0.384439,-22.073782,-0.284975,86.529236
371,0.092516,-3.214011,9.357017,19.475668,-2.204776,2.108567,-21.450947,-0.297618,86.579041
372,0.090960,-3.208665,9.377100,32.710770,-4.070314,4.954076,-20.582048,-0.352921,86.726501
373,0.177485,-3.184523,9.465496,28.785198,-8.407828,5.905347,-19.558956,-0.486067,86.967842
374,0.133129,-3.056485,9.422216,18.704390,-4.173107,8.376191,-18.770374,-0.605736,87.261818
375,0.189120,-2.962088,9.437472,17.143938,-5.142053,8.637676,-18.176342,-0.662864,87.579803
376,0.199747,-2.930887,9.460247,16.787060,-6.680966,7.197995,-17.614756,-0.769217,87.891556
377,0.244358,-2.878319,9.534079,12.836040,-7.110266,5.493836,-17.125101,-0.925463,88.162148
378,0.161925,-2.780151,9.517774,12.580952,-1.277290,5.980431,-16.705299,-1.003541,88.385895
379,0.149273,-2.707651,9.568950,9.589520,-0.231020,5.329148,-16.338949,-0.974070,88.573601
380,0.137845,-2.762811,9.567546,6.628549,0.203896,4.467381,-16.071245,-0.928923,88.730507
381,0.144328,-2.765811,9.604062,5.406755,-0.121978,3.581821,-15.872693,-0.890682,88.859100
382,0.067589,-2.652658,9.517211,7.326301,1.583403,3.793105,-15.662161,-0.833840,88.970787
383,0.132309,-2.739209,9.579561,4.693220,0.183677,2.179130,-15.463058,-0.778782,89.058769
384,0.168047,-2.756451,9.629897,3.560400,-0.800283,0.828608,-15.326201,-0.775382,89.109856
385,0.122781,-2.643192,9.572416,4.588038,0.497211,0.651869,-15.190737,-0.773768,89.135002
386,0.083656,-2.716269,9.615017,-0.451011,3.167586,0.616591,-15.121842,-0.709292,89.139435
387,0.093423,-2.738762,9.684776,2.648913,1.981395,-1.312470,-15.084812,-0.629464,89.105827
388,0.075984,-2.608284,9.566184,3.643596,2.904412,-1.268731,-14.979274,-0.561974,89.043182
389,0.065801,-2.769723,9.625663,-4.252475,2.926490,-0.533031,-14.988935,-0.475859,88.989044
390,0.059318,-2.700483,9.710338,6.352827,1.516237,-0.853316,-14.953614,-0.410327,88.947548
391,0.001418,-2.586344,9.629730,8.872023,4.068620,2.106374,-14.699838,-0.314969,88.943962
392,0.009127,-2.697643,9.636638,1.330276,2.324955,3.001066,-14.530063,-0.190339,88.999405
393,0.012919,-2.678188,9.645818,3.940441,0.629554,2.995580,-14.442463,-0.117615,89.083809
394,-0.058251,-2.494906,9.603972,13.769483,1.256538,3.338485,-14.147459,-0.061100,89.178375
395,-0.147750,-2.549684,9.570422,6.998788,7.054062,6.622822,-13.801260,0.113336,89.306053
396,-0.158212,-2.641242,9.536826,7.852484,2.103517,4.952741,-13.553150,0.307358,89.457161
397,-0.119441,-2.530779,9.550045,9.265243,0.154743,4.056140,-13.267089,0.378773,89.594604
398,-0.070626,-2.471081,9.667318,3.153679,-1.586116,3.252256,-13.059299,0.383258,89.718689
399,-0.006210,-2.494905,9.645526,-1.350032,-5.118683,2.574478,-13.028544,0.296362,89.838539
400,0.143345,-2.583533,9.644229,-7.896147,-11.970189,-0.951342,-13.182425,0.025140,89.929504
401,0.281885,-2.585272,9.750860,-0.098897,-9.343148,-1.822153,-13.315856,-0.331152,89.965958
402,0.189916,-2.822604,10.204762,-3.573703,-6.041634,-3.040518,-13.376938,-0.599353,89.946129
403,0.073025,-2.832627,10.966770,2.246939,-4.553687,-4.881401,-13.398023,-0.801708,89.858635
404,-0.181941,-2.439414,12.260484,19.394310,-0.604268,-4.246418,-13.035443,-0.920137,89.730095
405,-0.472823,-2.691802,13.142090,25.839594,6.155743,-3.793769,-12.279257,-0.859070,89.578812
406,-0.554507,-2.879425,14.076747,26.268934,8.204713,-2.296953,-11.408946,-0.645654,89.430000
407,-0.348702,-3.062808,14.271182,22.265377,4.259586,-2.164269,-10.599051,-0.455868,89.317230
408,0.044165,-3.106931,14.142124,26.323948,-1.773150,-2.574475,-9.788594,-0.429045,89.232338
409,0.320720,-3.613547,12.697114,16.860447,-3.051861,-4.311178,-9.068027,-0.527111,89.132660
410,0.790409,-3.066624,11.957726,17.635157,-11.484577,-7.523083,-8.491297,-0.796792,88.974854
411,0.978864,-2.736928,10.908392,18.908789,-13.335543,-9.548865,-7.878223,-1.246809,88.752449
412,0.712177,-2.448995,9.908013,23.696619,3.291290,-9.490026,-7.161292,-1.454343,88.459747
413,0.202656,-2.183280,10.310267,32.670952,34.113880,-5.742208,-6.215677,-0.864769,88.134041
414,-0.171940,-1.833441,10.571978,46.689426,43.621071,-3.347285,-4.892820,0.410077,87.856186
415,-0.474153,0.106499,9.124739,101.676010,42.084042,-4.785860,-2.425673,1.826644,87.630211
416,-0.753000,0.674825,9.109076,95.052124,38.135582,3.417651,0.849048,3.162204,87.595016
417,-0.689913,1.665087,8.912817,95.572418,19.098591,4.256117,4.033057,4.110517,87.763962
419,-0.993301,2.316458,7.317813,86.007988,13.152732,8.022111,7.076409,4.624934,88.024635
420,-0.830746,3.006619,6.700012,64.010910,1.276513,10.703458,9.603184,4.818197,88.370285
421,-0.421698,1.897169,7.139250,-26.172461,-13.781138,12.632545,10.261691,4.546543,88.720413
422,-0.263892,1.781476,6.057259,-32.013428,-13.940824,3.573252,9.305834,4.047611,88.911072
423,-0.664825,1.163086,5.336245,-51.862328,11.427988,2.095037,7.913896,3.992806,88.998695
424,0.284042,0.391520,4.196389,-68.910332,-38.763229,5.510460,5.906483,3.525350,89.072502
425,0.294932,-0.266549,3.178550,-87.648293,-40.128815,-4.817585,3.292918,2.214784,88.971718
426,-0.370123,-1.015463,2.472088,-131.940552,29.521339,-16.966528,-0.378430,2.049491,88.605934
427,0.163286,-1.146825,2.162741,-126.436401,-21.607073,-17.501143,-4.701466,2.158353,88.045654
428,-0.092235,-1.118713,1.934508,-98.103706,5.383486,-23.815304,-8.459419,1.810454,87.377220
429,-0.618716,-1.483351,2.582423,-70.763176,50.385750,-13.630524,-11.302217,2.622410,86.609329
430,-0.268518,-1.096946,3.709512,5.343507,12.435353,-16.916294,-12.432237,3.543239,85.906151
431,-0.434652,-0.600991,5.530952,58.226936,9.273842,-4.358438,-11.398140,3.827606,85.485794
432,-0.900662,-0.224397,7.938294,65.376617,16.369551,-1.257560,-9.350592,4.233612,85.317604
433,-1.067360,0.133641,10.809018,48.640545,8.948401,3.854848,-7.452676,4.657565,85.297852
434,-1.312963,1.015168,13.172306,47.952045,8.000405,-0.457095,-5.841389,4.945435,85.321907
435,-1.760938,1.053534,14.900528,26.680704,5.652242,6.661807,-4.590375,5.180892,85.404655
436,-1.247028,0.782007,15.958134,10.475391,-9.234169,3.701310,-3.955373,5.135015,85.581848
437,-1.303308,1.104260,15.808867,19.963873,-11.516765,6.795279,-3.431087,4.801280,85.780167
438,-0.106550,0.225921,15.613435,1.095783,-30.744291,5.879504,-3.060529,4.110031,86.031548
439,0.017130,-0.042144,14.605169,-2.558511,-30.263559,4.651368,-3.070683,3.104487,86.263069
440,0.376705,-0.659954,14.359596,-17.758966,-28.263689,-0.006223,-3.403314,2.135112,86.395836
441,0.602675,-1.368198,13.723191,-31.127066,-25.391388,-7.252777,-4.220111,1.235171,86.335670
442,0.263537,-1.970423,13.843524,-36.886593,-10.452644,-9.259425,-5.357646,0.617382,86.112297
443,-0.089706,-1.655651,13.516447,-26.647963,1.452924,-12.934015,-6.420015,0.430468,85.761261
444,-0.070881,-2.095085,13.924026,-39.550171,-1.846506,-10.831847,-7.526332,0.376532,85.369644
445,-0.310823,-2.259859,13.156313,-38.963215,-1.601569,-11.440629,-8.836637,0.266272,85.010254
446,-0.675650,-2.107837,12.955692,-36.025860,4.907253,-5.893486,-10.087667,0.273201,84.716301
447,-0.622514,-2.997277,12.141362,-54.293282,7.313560,5.614071,-11.593204,0.472017,84.674095
448,-0.874947,-3.272040,12.066326,-49.490822,17.069300,13.258775,-13.320020,0.935331,84.893814
449,-0.917542,-3.671525,12.513669,-34.247963,21.498985,20.380964,-14.706378,1.693861,85.283737
450,-0.669429,-4.306640,12.582675,-22.025818,16.925917,25.871607,-15.623031,2.512486,85.861992
451,-0.495154,-3.968695,12.534438,27.786375,8.883983,22.954700,-15.494452,3.144139,86.531822
452,-0.191736,-2.806150,12.251401,85.314735,-6.932098,17.076567,-13.573812,3.340554,87.172714
453,0.243934,-1.432528,11.088194,124.582901,-25.803490,12.337487,-10.045926,2.904076,87.767616
454,0.321441,-0.225944,9.528329,143.499039,-30.777462,10.191200,-5.562984,2.019984,88.270821
455,-0.069882,1.675467,8.293575,166.991516,-16.272383,9.664060,-0.387659,1.254635,88.641609
456,0.001569,2.171579,7.094354,123.872971,-14.925795,9.482993,4.454290,0.724501,88.934532
457,-0.309494,1.913777,6.704306,53.080177,2.298831,7.631209,7.401534,0.487152,89.197357
458,-0.720549,1.692083,6.731467,2.513664,21.540443,3.889191,8.330760,0.855769,89.439430
459,-0.319315,1.947732,6.541491,-15.611844,5.469094,0.102371,8.115219,1.292606,89.567009
460,0.187080,1.361992,6.709300,-48.982311,-14.208541,2.273855,7.039145,1.143257,89.586243
461,-0.220974,0.838975,6.134706,-52.159004,5.488478,3.141902,5.355056,0.989116,89.659103
462,0.176278,0.445015,5.115189,-44.822330,-13.090665,-2.185808,3.739352,0.861277,89.667366
463,-0.090490,-0.145880,4.330509,-48.479534,0.551079,-10.346684,2.181612,0.664158,89.445778
464,-0.293195,-0.666085,3.070120,-63.906811,21.546490,-9.160581,0.303913,1.040142,89.130386
465,-0.335115,-1.619158,1.560000,-161.799240,36.022717,-9.407770,-3.465060,1.989543,88.797173
466,-0.088909,-1.963161,1.403676,-160.605148,2.642897,-11.445788,-8.845532,2.589130,88.380516
467,-0.536696,-2.047434,1.799672,-116.876923,39.591255,-1.824250,-13.477314,3.233907,88.014923
468,0.123727,-2.231157,2.255049,-94.522980,-20.560507,-13.412288,-17.014887,3.473529,87.701332
469,0.037343,-2.220810,4.775935,-13.788380,-17.212362,-11.204636,-18.828598,2.747710,87.489319
470,-0.601823,-0.789735,7.858996,64.092842,4.421274,-4.892101,-17.998856,2.461716,87.298203
471,-1.221921,-0.415387,10.553717,47.213947,16.913700,-5.862068,-16.157074,2.750036,87.019257
472,-0.640683,-0.265794,13.460671,28.595695,-4.081501,-11.910780,-14.910961,2.875822,86.674316
473,-0.780512,0.108189,15.614375,33.002937,-8.512738,-7.582690,-13.896324,2.591223,86.413422
474,-1.049874,0.123620,15.983251,40.487659,-3.962678,-3.156107,-12.676886,2.348232,86.287064
475,-0.449004,-0.320192,16.015793,31.280895,-14.052203,-1.420966,-11.481372,2.039081,86.274681
476,0.239236,-0.585122,15.400358,35.713150,-25.399639,-0.993166,-10.362262,1.386230,86.360847
477,0.111834,-0.614327,14.250330,34.554100,-16.307095,-0.029459,-9.189398,0.698598,86.462753
478,0.295636,-0.918204,13.367355,16.498764,-13.622173,2.770344,-8.337635,0.212594,86.583168
479,0.696447,-1.410803,13.072713,-3.602476,-17.265516,1.224617,-8.122692,-0.287039,86.723198
480,0.685406,-2.081761,13.185301,-18.553312,-11.514091,1.190301,-8.493029,-0.755647,86.833145
481,0.628212,-2.049683,13.811162,-21.959246,-4.414773,-4.145182,-9.168086,-1.025379,86.825882
482,0.431133,-2.442690,14.343412,-30.926655,3.244990,-3.670898,-10.047326,-1.066023,86.701050
483,0.321278,-3.030043,14.212405,-39.917751,5.622337,-5.322457,-11.224977,-0.948469,86.526955
484,-0.051800,-3.510942,13.691249,-45.547722,13.100753,-1.712881,-12.646688,-0.667390,86.347809
485,0.105313,-3.445417,12.612799,-36.679375,6.109695,-3.820964,-14.015551,-0.377434,86.184982
486,-0.236633,-3.698567,11.327450,-37.840141,8.461860,3.265928,-15.256951,-0.144689,86.114159
487,-0.240229,-3.549579,10.494847,-32.975132,6.716200,4.904635,-16.437185,0.135241,86.176430
488,-0.113642,-3.561360,10.105659,-39.262802,-2.004233,5.956113,-17.640537,0.263150,86.326462
489,0.411260,-4.054892,10.075002,-43.484383,-14.098141,5.776339,-19.018805,0.069654,86.595673
490,-0.281697,-4.584823,11.535603,-15.804233,8.715219,13.073938,-20.006514,0.089732,86.920639
491,0.232275,-4.390075,11.957676,43.446320,-2.494667,9.722255,-19.544096,0.315224,87.244835
492,0.280538,-3.596159,11.665808,94.110367,-7.069485,9.959495,-17.250315,0.266095,87.607651
493,0.257915,-2.027226,11.220218,136.939377,-3.399158,10.024377,-13.400990,0.184837,87.975105
494,-0.115172,-0.246645,10.387590,165.243011,2.821732,8.340728,-8.371347,0.231826,88.275513
495,-0.120944,0.982157,7.992165,153.434052,-2.164303,10.231036,-3.070639,0.272009,88.579453
496,-0.198304,1.615493,6.632669,103.558472,2.908782,8.337097,1.204828,0.290533,88.889824
497,-0.098438,1.974990,6.236105,53.949833,-0.375660,7.367676,3.828332,0.321735,89.151276
498,-0.430242,2.082948,6.237907,19.355843,12.951190,11.100379,5.051869,0.507560,89.474815
499,-0.082334,1.978280,6.212892,-11.250541,-2.719567,13.709431,5.191440,0.641728,89.900269
500,0.896113,1.667878,6.369224,-34.951164,-41.268108,13.754871,4.422698,-0.126188,90.294800
501,0.502422,1.047111,6.483307,-47.601551,-20.424498,10.979690,3.041836,-1.177985,90.638344
502,0.474805,0.332038,4.662839,-39.413391,-23.112576,8.302879,1.584386,-1.915261,90.933235
503,0.473378,-0.621227,3.299744,-75.226486,-30.267944,0.908600,-0.331960,-2.806176,91.076378
504,0.130452,-1.181771,2.367684,-115.114037,-3.869540,1.539918,-3.506443,-3.371557,91.137543
505,-0.309823,-1.299685,1.050953,-167.349045,52.279472,14.117129,-8.218000,-2.542584,91.322365
506,-0.238201,-1.673156,0.953227,-172.838959,31.927418,14.405058,-13.881157,-1.078213,91.535919
507,0.315071,-1.853082,2.342353,-75.462059,-26.643604,-5.027798,-18.011307,-0.953567,91.653053
508,0.264239,-1.593328,4.223433,12.743733,-12.011292,-6.837762,-19.055855,-1.627672,91.652740
509,-0.223371,-1.079486,6.323627,64.914505,15.522784,0.031829,-17.758219,-1.607535,91.523285
510,-0.342987,-1.112300,9.649326,52.400425,15.932934,-4.871241,-15.798180,-1.128636,91.292130
511,-0.351997,-0.617824,11.969488,52.920109,11.841350,-2.483758,-14.039356,-0.713901,91.054253
512,-0.530803,-0.168877,13.878413,44.301384,11.670019,-0.944755,-12.418125,-0.345201,90.909431
513,-0.374928,-0.582790,15.077108,22.501680,3.560956,3.933958,-11.304992,-0.086496,90.905769
514,0.370184,-1.006683,15.607848,6.518240,-10.427037,-1.301838,-10.821641,-0.189870,90.970932
515,0.449892,-0.825002,14.999008,20.063646,-12.113341,-1.261804,-10.378887,-0.567001,90.998680
516,0.783379,-1.451547,14.571266,1.603701,-15.907450,-7.902384,-10.016809,-1.053676,90.930717
517,0.268636,-1.802358,13.695488,-4.678175,-2.625221,-5.612875,-10.064657,-1.397334,90.763527
518,0.596038,-2.002248,12.845123,-6.991681,-6.208199,-6.656831,-10.254770,-1.578395,90.588333
519,0.541703,-2.562517,12.301617,-17.328615,-4.325870,-4.122043,-10.655812,-1.783669,90.443443
520,0.420036,-3.034421,12.101801,-26.576899,0.187659,-1.176316,-11.385206,-1.868415,90.370140
522,0.183066,-2.794557,12.370964,-18.690605,6.865098,-2.540401,-12.136969,-1.766121,90.285828
523,0.332582,-3.609623,13.555536,-30.270113,4.943954,-4.231896,-12.948483,-1.598319,90.133263
524,-0.202534,-3.783792,13.696380,-21.212395,13.589377,-4.815619,-13.800838,-1.332763,89.914780
525,-0.280230,-3.775574,13.313802,-11.749526,13.040594,-3.538589,-14.345454,-0.935822,89.672447
526,-0.040916,-3.827027,12.867464,-6.969431,6.444985,-6.206278,-14.654143,-0.661966,89.434151
527,0.273781,-3.587193,11.651443,3.502234,-2.470356,-5.288642,-14.709476,-0.646338,89.231949
528,0.275956,-2.894816,10.228302,14.053396,-5.128840,-5.038614,-14.415047,-0.812057,89.097168
529,0.635077,-2.701830,9.387237,-4.030113,-26.742264,-9.035636,-14.246119,-1.384641,89.001282
530,0.686824,-2.559773,9.067910,-9.455607,-12.726854,-7.321885,-14.467632,-2.089595,88.901268
531,0.530972,-2.437566,9.586091,-17.447826,-2.692699,-5.162228,-14.910904,-2.390941,88.765579
532,0.515018,-3.309157,10.728148,-35.883327,2.157647,0.306680,-15.796677,-2.421023,88.690346
533,0.473706,-4.591311,11.792858,-30.600315,5.236024,4.931674,-16.906696,-2.278562,88.739906
534,0.145316,-3.641188,11.890605,44.176727,11.271883,9.635585,-16.686087,-1.945333,88.893326
535,0.335596,-3.316457,12.397482,75.848213,4.616651,13.797142,-14.695336,-1.585657,89.199463
536,0.538463,-2.428251,11.577990,106.537056,-2.985656,13.692114,-11.669079,-1.454747,89.640816
537,0.542543,-0.858540,9.734090,132.856827,-6.757669,9.199322,-7.693970,-1.551321,90.045731
538,-0.121259,1.222968,8.147889,154.134415,11.886555,9.250120,-2.926097,-1.439848,90.344490
539,0.385599,1.085773,7.200015,81.680794,-6.207428,3.642042,0.992105,-1.342489,90.550964
540,0.108361,1.897821,6.235820,74.324181,4.232143,-0.509725,3.588332,-1.377964,90.606400
541,-0.250927,2.082250,6.145965,40.420704,19.762260,-1.881240,5.500021,-0.976979,90.596336
542,-0.309218,2.079161,6.535342,4.882371,18.725128,0.220223,6.254471,-0.336151,90.631325
543,0.367934,2.105251,6.450684,-9.919466,-11.777845,5.555399,6.169886,-0.231255,90.737961
544,0.244012,1.876653,6.960260,-27.978024,-6.661721,8.484356,5.536622,-0.560735,90.939095
545,0.381755,0.880836,6.485120,-47.661228,-10.455854,9.839810,4.272711,-0.870949,91.219635
546,0.585194,-0.298879,5.605750,-66.927910,-22.871174,7.331473,2.358106,-1.441563,91.473282
547,0.065014,-0.283912,4.168805,-39.475803,3.058530,1.217110,0.581251,-1.774385,91.606300
548,0.734021,-1.763955,3.661535,-107.807724,-37.600922,-0.996376,-1.873143,-2.349304,91.619133
549,-0.121257,-2.288342,2.540185,-135.998032,18.452284,-1.406633,-5.932090,-2.669810,91.596481
550,-0.267991,-2.304629,1.917094,-136.989731,30.056997,2.083973,-10.471661,-1.866967,91.509438
551,-0.222314,-2.369776,2.673504,-100.781387,20.477049,-0.581867,-14.424080,-1.040701,91.356430
552,-0.235931,-2.539804,4.419854,-42.984112,15.233009,-2.055665,-16.814667,-0.479388,91.153343
553,-0.576671,-1.799746,5.719035,18.549099,23.272205,0.914928,-17.220985,0.129430,90.948776
554,-0.216710,-1.547396,8.376753,30.017817,1.913621,-2.372628,-16.412521,0.525084,90.807060
555,-0.198359,-1.022285,11.013779,34.618111,-2.567029,-5.999469,-15.336329,0.476705,90.677422
556,-0.295466,-0.261419,12.698239,41.979126,-1.742426,-3.877452,-14.060842,0.365328,90.536827
557,0.264464,-0.747857,13.972880,20.499460,-15.307032,-5.207494,-13.019970,0.053903,90.455986
558,-0.036369,-0.960028,14.942179,9.231639,-8.138775,-2.121352,-12.524285,-0.354166,90.424767
559,0.281600,-0.687829,14.851634,16.976015,-13.398364,-1.712215,-12.087609,-0.718457,90.438896
560,0.736919,-1.443365,14.806950,-0.502205,-19.132084,-0.568850,-11.814314,-1.256696,90.513954
561,0.613083,-2.184482,14.153308,-8.297420,-12.454299,3.431045,-11.965017,-1.761858,90.669922
562,1.033401,-2.358959,13.575097,-10.089920,-16.265659,1.051484,-12.277330,-2.214091,90.843941
563,1.165059,-2.431028,12.748960,-8.776709,-14.763296,1.147909,-12.598200,-2.711135,90.991219
564,1.287704,-3.050903,12.117101,-21.582249,-12.220342,0.348665,-13.110521,-3.144037,91.115723
565,1.038747,-3.003206,11.418981,-18.444296,-5.136510,-0.095947,-13.781750,-3.424225,91.187691
566,1.216958,-2.904824,10.879242,-17.759987,-8.316867,-4.306686,-14.384126,-3.659465,91.171303
567,0.828024,-3.025705,10.544459,-18.209978,0.675576,-2.004092,-14.979112,-3.809169,91.101494
568,0.532777,-3.192191,10.848217,-18.295729,7.165221,0.295941,-15.583538,-3.690612,91.039879
569,0.218359,-3.185275,11.779041,-13.488002,13.045455,2.121033,-16.110027,-3.355600,90.986839
570,-0.118568,-3.577734,13.015861,-15.352342,17.664051,4.111714,-16.588329,-2.835233,90.942734
571,-0.401419,-4.311615,14.091660,-21.177538,19.081430,5.687449,-17.196230,-2.201837,90.921158
572,-0.466679,-4.218222,14.077967,-5.722160,15.861389,6.920375,-17.645441,-1.583358,90.947105
573,-0.080257,-4.230428,13.582030,1.159489,5.149992,5.322803,-17.723724,-1.187843,91.035767
574,0.376554,-3.989734,12.130232,8.233817,-6.346714,1.462155,-17.569637,-1.172624,91.149727
575,0.679181,-3.569124,10.192123,11.118790,-13.994040,-2.204017,-17.249292,-1.499866,91.239548
576,0.997601,-2.823302,8.790863,14.025284,-22.433607,-7.970623,-16.830820,-2.130063,91.255447
577,0.999472,-2.335253,8.405718,11.366543,-18.515301,-11.320725,-16.402863,-2.876042,91.142586
578,0.710092,-2.100503,8.229529,1.085032,-5.460110,-12.162904,-16.181231,-3.369514,90.878685
579,0.773864,-2.623051,8.729700,-25.258202,-1.358490,-12.031933,-16.562929,-3.592473,90.523354
580,0.763575,-3.088449,10.450891,-23.308781,3.217275,-11.350238,-17.348246,-3.677127,90.141350
581,0.320660,-2.819472,11.953809,34.379990,16.588511,-4.122578,-17.142475,-3.438233,89.796822
582,0.050435,-3.749790,12.371147,47.655266,21.363750,0.637154,-15.762889,-2.846637,89.562454
583,0.777546,-3.349268,12.321467,75.076790,3.689850,-2.479972,-13.711792,-2.450219,89.426414
584,0.175037,-2.501365,12.075869,105.197273,13.163953,3.034223,-10.706684,-2.173542,89.379509
585,-0.051247,-0.959488,9.617510,124.866959,16.533403,6.775034,-6.878788,-1.659096,89.463768
586,0.374504,-0.320666,7.979490,84.458488,-1.402181,1.793135,-3.397720,-1.394769,89.582985
587,0.293667,0.920639,7.203190,78.867340,-2.420860,3.402533,-0.680203,-1.456018,89.675591
588,-0.380233,1.686783,6.267935,72.404449,22.253462,5.079215,1.836264,-1.126770,89.820457
589,-0.211401,1.837848,6.086880,36.530472,11.916946,6.372560,3.648022,-0.566752,90.033607
590,-0.082907,1.862489,7.061367,-2.564438,3.192303,7.042960,4.211894,-0.330200,90.273827
591,0.107313,1.652495,6.966858,-21.065296,-6.014785,9.918512,3.816149,-0.396228,90.552223
592,0.635875,1.716833,6.916649,-19.711386,-25.075094,13.388216,3.132236,-0.936649,90.908386
593,0.424981,0.709872,7.633365,-45.467842,-12.117806,14.327638,2.036108,-1.576818,91.340958
594,0.773549,0.289242,6.070043,-23.801918,-27.113941,5.443292,0.871785,-2.237995,91.656090
595,0.359831,-0.144851,4.819241,-16.545393,-8.817973,-0.644058,0.195419,-2.837240,91.728256
596,0.416537,-1.003422,3.728352,-51.121277,-14.077193,-0.961193,-0.931191,-3.218704,91.704506
597,0.056660,-1.722339,2.694529,-101.166367,8.262633,-3.788736,-3.464381,-3.318549,91.629539
598,0.176486,-2.168236,1.798192,-143.168961,-5.927164,-3.233839,-7.526657,-3.290402,91.513680
599,0.239617,-2.015134,2.696844,-87.100090,-5.631963,-5.130491,-11.352064,-3.504095,91.403534
600,0.287307,-2.484631,4.151943,-55.667915,0.525684,-3.024628,-13.722234,-3.615675,91.288315
601,0.026541,-1.911032,6.069573,2.579442,15.809536,-3.868789,-14.595900,-3.379688,91.110886
602,0.029787,-1.478936,8.288279,24.232182,15.404990,-4.768207,-14.134506,-2.910388,90.843903
603,-0.244970,-0.825148,10.549503,33.525665,18.069935,-2.295516,-13.160521,-2.395659,90.598381
604,-0.596928,-0.800043,12.265640,24.132845,19.175901,4.059072,-12.195852,-1.783370,90.490906
605,-0.075819,-0.744204,13.317793,16.601570,-0.815136,5.931144,-11.520094,-1.449361,90.590424
606,0.345319,-0.873018,14.248179,9.174301,-10.039212,3.743444,-11.095956,-1.594792,90.784821
607,0.028343,-1.088328,14.620344,7.546764,-5.519997,9.875720,-10.825506,-1.806128,91.057472
608,1.053965,-1.601157,14.318648,-3.917471,-21.355850,4.977070,-10.776265,-2.199594,91.384682
609,1.074127,-2.134295,14.179149,-13.862368,-17.525694,6.516664,-11.086626,-2.799249,91.696327
610,1.140412,-2.569581,13.772502,-18.103807,-12.790996,4.391056,-11.633978,-3.258584,91.974998
611,1.072333,-2.717513,12.691791,-16.366142,-9.544040,7.330472,-12.224510,-3.582190,92.243858
612,1.570383,-3.209001,11.916659,-27.771135,-16.075867,3.743737,-12.977993,-3.958742,92.517830
613,0.990702,-3.255310,11.329525,-25.646376,-2.419726,6.259690,-13.885124,-4.219480,92.752090
614,1.098308,-3.252134,10.680637,-23.995193,-2.612699,2.510844,-14.724312,-4.264610,92.915749
615,0.763475,-3.153377,10.233172,-19.688620,5.187912,4.966097,-15.460424,-4.190527,93.025108
616,0.361075,-3.252976,10.204052,-20.222876,13.872996,9.224482,-16.135437,-3.820519,93.166992
617,0.183041,-3.110719,9.959967,-12.883407,14.924820,11.124426,-16.698902,-3.264374,93.357483
618,0.071029,-2.988518,9.763762,-7.262886,13.850764,12.502559,-17.047075,-2.691318,93.595764
619,0.032418,-3.088771,9.694729,-6.735615,11.086791,13.341010,-17.292719,-2.167217,93.885071
620,0.119245,-2.886550,9.497125,2.613052,12.294027,12.757852,-17.371548,-1.665699,94.184357
621,0.154093,-2.900842,9.471400,1.302737,5.367801,9.562181,-17.313097,-1.274039,94.452118
622,0.393365,-2.856133,9.502991,2.165195,-9.885433,2.711978,-17.260283,-1.285123,94.669891
623,0.370872,-2.810859,9.599481,4.928096,-8.438051,0.988213,-17.146030,-1.558633,94.819229
625,0.442043,-2.693327,9.569047,0.776771,-4.767046,-0.684828,-17.052998,-1.767550,94.888725
626,0.479884,-2.681839,9.594409,-2.027403,-4.068876,-3.524122,-17.073103,-1.928913,94.864914
627,0.470175,-2.666131,9.587087,-1.728752,-2.049975,-4.928646,-17.132086,-2.067815,94.760223
628,0.458087,-2.641751,9.561144,-1.204717,-0.384362,-6.394983,-17.174793,-2.162232,94.591751
629,0.513833,-2.587411,9.523227,-0.219093,-0.566128,-8.080812,-17.189852,-2.248625,94.365768
630,0.483538,-2.592740,9.543296,0.833807,1.055950,-7.659099,-17.169514,-2.318291,94.112518
631,0.485051,-2.549569,9.622634,1.766851,1.625910,-7.589517,-17.115765,-2.350469,93.856285
632,0.487008,-2.655599,9.700882,0.009713,1.971718,-8.061820,-17.075161,-2.369822,93.589088
633,0.436505,-2.600078,9.656094,2.356621,3.599505,-7.645937,-17.024271,-2.357844,93.311340
634,0.445483,-2.661504,9.752923,1.401476,3.410028,-7.340540,-16.950521,-2.319044,93.038109
635,0.482531,-2.732411,9.747012,1.258081,2.146681,-6.676181,-16.896097,-2.298462,92.787445
636,0.443294,-2.843818,9.682572,0.468561,2.916674,-4.894627,-16.858961,-2.273697,92.578239
637,0.358095,-2.810315,9.629494,0.971444,4.517892,-3.036689,-16.828644,-2.193416,92.415695
638,0.334922,-2.806925,9.594603,-0.101022,4.005704,-2.159223,-16.809544,-2.082483,92.291611
639,0.215451,-2.714321,9.498347,0.705615,5.698300,-0.767608,-16.796185,-1.941764,92.198082
640,0.169324,-2.582344,9.423575,1.404748,5.566282,-0.890321,-16.758425,-1.769984,92.117409
641,0.112388,-2.538864,9.473413,0.591248,5.562540,-0.834344,-16.722775,-1.600640,92.036423
642,0.149183,-2.424949,9.384885,2.660611,3.033508,-0.916883,-16.666723,-1.471801,91.967278
643,0.184126,-2.410613,9.460076,2.995178,1.330290,-0.568570,-16.571335,-1.409178,91.922768
644,0.270530,-2.384335,9.537861,3.753250,-1.458945,-0.461343,-16.458471,-1.416106,91.906929
645,0.305004,-2.471322,9.671603,2.276581,-2.801738,0.860811,-16.358639,-1.482335,91.933411
646,0.333892,-2.482161,9.622867,2.337966,-3.874356,2.348312,-16.283930,-1.574073,92.016052
647,0.308162,-2.551614,9.698237,0.224990,-3.419827,4.141342,-16.245096,-1.660476,92.153992
648,0.235304,-2.685247,9.626010,-3.374297,-2.258551,6.892997,-16.303522,-1.699760,92.357155
649,0.211118,-2.835528,9.553259,-6.555443,-2.373579,9.191917,-16.477255,-1.698133,92.636261
650,0.276944,-2.888558,9.511678,-7.429038,-4.749771,9.231334,-16.720123,-1.724156,92.964592
651,0.376409,-3.044491,9.525656,-9.595898,-7.584585,8.834109,-17.014721,-1.833511,93.312492
652,0.484825,-3.141058,9.465669,-9.283412,-9.889798,7.990362,-17.341370,-2.028895,93.666550
653,0.632763,-3.147618,9.488372,-6.725661,-12.265937,5.419100,-17.620533,-2.313970,93.990814
654,0.679290,-3.256784,9.460549,-12.607602,-17.940310,1.846644,-17.954767,-2.756364,94.260056
655,0.668368,-3.348361,9.408507,-12.868178,-12.263490,1.956987,-18.390862,-3.214709,94.477600
656,0.640090,-3.297873,9.382451,-5.712616,-5.583261,1.559680,-18.709293,-3.477989,94.628235
657,0.642263,-3.286511,9.387043,1.664393,-1.047205,0.747587,-18.781176,-3.570300,94.700302
658,0.593181,-3.383533,9.326248,-3.466793,1.983200,0.644601,-18.812263,-3.548082,94.717247
659,0.577556,-3.260535,9.316400,2.988550,3.076012,-1.728094,-18.817513,-3.474085,94.672874
660,0.542034,-3.214956,9.290463,5.005797,4.599765,-2.842539,-18.677481,-3.377403,94.559433
661,0.467066,-3.200003,9.270150,5.208185,7.720992,-2.459747,-18.498657,-3.210938,94.409981
662,0.374098,-3.134927,9.243487,6.412891,11.140924,-2.074017,-18.295818,-2.936495,94.238785
663,0.345701,-3.040107,9.317824,9.370484,10.450097,-2.316200,-18.023979,-2.617372,94.056877
664,0.324418,-3.062611,9.370752,7.098994,8.434835,-1.447317,-17.742723,-2.337059,93.900467
665,0.296882,-2.970274,9.386306,9.868077,6.672434,-0.709826,-17.455669,-2.107928,93.789978
666,0.362243,-2.912060,9.410975,9.792824,0.908711,-1.647759,-17.125309,-1.998918,93.714928
667,0.378845,-2.947889,9.519570,6.239310,-1.361132,-1.270841,-16.856533,-2.020327,93.670715
668,0.437994,-2.881600,9.500485,6.768053,-4.748999,-1.779389,-16.639040,-2.132483,93.651421
669,0.454175,-2.818993,9.454721,6.203155,-5.014534,-1.336869,-16.422707,-2.303250,93.647964
670,0.461635,-2.765285,9.509681,6.449372,-4.029006,-0.243699,-16.212538,-2.455298,93.665062
671,0.444976,-2.796354,9.455345,4.005618,-1.773191,1.523132,-16.040342,-2.542260,93.712418
672,0.488023,-2.700936,9.401196,4.411324,-2.455413,1.548768,-15.903124,-2.595908,93.781090
673,0.445898,-2.756850,9.358506,1.517437,-1.005662,2.204607,-15.807784,-2.634306,93.857117
674,0.467940,-2.836353,9.379818,-0.701463,-0.947764,1.486736,-15.797314,-2.648860,93.925247
675,0.486641,-2.926162,9.316501,-10.600471,-1.828975,0.102583,-15.987460,-2.686107,93.963440
676,0.446036,-2.927001,9.391803,-9.608407,1.165654,-1.105705,-16.323666,-2.701334,93.950447
677,0.293019,-2.965358,9.468648,-7.064663,9.140427,0.779345,-16.599092,-2.538101,93.896568
678,0.187665,-2.791488,9.625394,6.458183,13.066391,2.020088,-16.606726,-2.170069,93.835678
679,0.165816,-2.586483,9.660430,17.504494,10.799868,2.797494,-16.206169,-1.765764,93.800690
680,0.160607,-2.455128,9.719918,12.873967,3.255861,3.717694,-15.701069,-1.510623,93.841110
681,0.314912,-2.357895,9.671398,22.420048,-3.914976,4.847867,-15.116598,-1.483163,93.981865
682,0.621865,-2.341430,9.402063,13.466467,-20.312134,1.760607,-14.524693,-1.845302,94.192017
683,0.879182,-2.563374,9.245053,-9.408759,-29.744158,-1.989309,-14.465387,-2.653752,94.398262
684,0.952672,-2.810851,9.135138,-26.042324,-24.370125,-4.855869,-15.062994,-3.554537,94.519325
685,0.968626,-2.876094,9.114612,-15.592070,-3.435177,-7.345338,-15.752315,-4.054935,94.447540
686,0.893409,-3.077460,9.167581,-19.123787,5.903064,-14.740796,-16.305241,-4.116571,94.082069
687,0.450420,-3.261988,9.339884,-19.821127,21.636148,-18.718170,-16.908285,-3.835799,93.415245
688,0.074400,-3.367392,9.273417,-18.283684,31.444311,-19.898523,-17.490135,-3.180684,92.537910
689,-0.109095,-3.426778,9.271070,-18.374928,32.480213,-18.962831,-18.055843,-2.363637,91.595459
690,-0.253295,-3.580891,9.143851,-21.944164,30.432735,-16.278055,-18.697504,-1.553876,90.707176
691,-0.459304,-3.602342,9.084733,-21.709404,28.693623,-9.533025,-19.410358,-0.763366,89.978561
692,-0.299583,-3.575349,9.096847,-18.678915,17.342567,-4.889865,-20.080109,-0.122855,89.493225
693,-0.115043,-3.447496,9.135083,-11.769247,7.028159,-1.704507,-20.587803,0.219496,89.248726
694,0.005352,-3.390152,9.151233,-9.062849,-0.180656,0.578608,-20.935287,0.319436,89.190590
695,0.206499,-3.265309,9.196527,-6.389105,-7.963997,1.713825,-21.192440,0.206386,89.274902
696,0.414516,-3.447292,9.351473,-11.659215,-13.445209,1.886839,-21.493084,-0.104209,89.460503
697,0.494208,-3.476845,9.604838,-14.386464,-13.299077,0.499473,-21.928261,-0.503583,89.662338
698,0.257944,-3.571707,9.870337,-19.426605,-5.233672,2.533439,-22.493656,-0.770340,89.825958
699,0.243834,-3.770684,9.948509,-25.353376,-3.228419,2.455075,-23.241774,-0.867863,89.957817
700,0.246566,-4.232985,9.783826,-37.155422,-2.507679,0.606198,-24.284859,-0.934687,90.043198
701,0.200276,-4.346755,9.361976,-40.835262,-0.851596,-3.881289,-25.584127,-1.008233,90.017342
702,0.117868,-4.536630,8.686350,-46.953003,0.691904,-8.093914,-27.043804,-1.098634,89.839607
703,0.342667,-4.759542,8.225449,-51.484779,-5.650415,-16.605907,-28.677135,-1.363623,89.514244
704,0.434199,-4.945577,7.861577,-53.091698,-7.699402,-23.421503,-30.406130,-1.885569,89.042435
705,0.359791,-4.961053,7.797964,-45.461731,-3.667850,-24.825954,-32.025833,-2.463615,88.452065
706,0.306468,-5.089564,7.874538,-39.234329,-0.137575,-23.101984,-33.407211,-2.947866,87.813721
707,0.410924,-5.278489,8.035696,-32.996395,-0.746210,-19.848230,-34.578800,-3.359870,87.227875
708,0.469645,-5.517790,8.038765,-30.218073,-0.292204,-14.135314,-35.604218,-3.699589,86.773506
709,0.330551,-5.646286,8.051363,-24.991928,4.006360,-5.684496,-36.504318,-3.844182,86.469620
710,0.280326,-5.790977,8.017530,-21.675940,3.852602,1.230732,-37.273041,-3.784147,86.331848
711,0.330241,-5.758092,8.023783,-14.559104,0.783956,6.872897,-37.880890,-3.640825,86.392128
712,0.341123,-5.872252,7.978335,-11.093989,-1.275230,11.904013,-38.324081,-3.454468,86.644043
713,0.370890,-5.881584,8.027699,-4.658260,-3.510733,14.791153,-38.609943,-3.240384,87.042786
714,0.597598,-5.949115,8.290087,1.478349,-8.257338,13.058517,-38.689880,-3.103925,87.528618
715,0.702338,-5.868731,8.501473,9.983979,-8.828381,11.948014,-38.526161,-3.066609,88.032745
716,0.811016,-5.768737,8.557920,16.034061,-9.255627,8.646890,-38.117111,-3.090547,88.489616
717,0.860468,-5.450013,8.633869,23.353693,-8.467405,5.143186,-37.480625,-3.183355,88.852852
718,0.882150,-5.228879,8.608803,25.739071,-7.333466,3.043204,-36.677708,-3.311534,89.120918
719,0.791241,-4.985087,8.383777,53.820236,-8.614808,-0.996300,-35.362812,-3.506622,89.305122
720,0.730121,-4.937371,8.215178,41.530186,-5.368706,1.578646,-33.782845,-3.693585,89.445518
721,0.554332,-4.977386,8.131226,14.273656,1.255706,9.358542,-32.865074,-3.650556,89.635551
722,0.568768,-5.343327,8.068957,-0.510676,1.097903,12.110373,-32.652817,-3.423384,89.914993
723,0.588993,-5.485217,8.060497,-7.948255,-1.745378,10.482234,-32.812542,-3.228518,90.237854
724,0.573904,-5.515491,8.286116,-1.774654,-1.477583,9.148810,-32.991451,-3.095721,90.542061
725,0.508243,-5.515014,8.351802,3.494267,1.254921,9.445827,-32.976578,-2.930237,90.804451
726,0.524002,-5.529251,8.302473,3.733870,0.051393,6.869162,-32.866810,-2.764282,91.021179
728,0.464820,-5.355798,8.253397,13.768683,0.533379,5.583687,-32.583126,-2.643900,91.190735
729,0.427881,-5.182707,8.191469,20.805529,0.391288,4.756907,-32.013123,-2.538941,91.328423
730,0.407761,-5.129016,7.982510,23.225525,-0.358547,4.133597,-31.284796,-2.460828,91.454453
731,0.488081,-5.000873,7.878952,26.734774,-3.297809,1.254822,-30.456833,-2.467086,91.562958
732,0.528776,-4.925397,7.926872,30.596004,-5.011323,-0.843331,-29.504738,-2.583696,91.638405
733,0.550301,-4.873001,8.005949,31.807438,-4.274526,-2.920673,-28.465733,-2.749552,91.658684
734,0.574869,-4.808264,8.009497,32.028046,-3.011715,-6.970136,-27.397532,-2.934206,91.569839
735,0.549081,-4.728697,8.075602,32.886784,-0.403899,-10.565928,-26.303352,-3.117304,91.334534
736,0.389635,-4.497459,8.330406,38.761253,5.185799,-11.097884,-25.089544,-3.202362,90.974045
737,0.333506,-3.791326,8.543681,55.363182,7.770471,-14.087879,-23.494886,-3.178322,90.501511
738,0.198636,-3.151878,8.874137,66.780594,11.525408,-13.963776,-21.429502,-3.059644,89.945839
739,-0.002544,-2.779403,9.457429,68.857773,15.411135,-10.281989,-19.142624,-2.778492,89.410316
740,-0.050266,-2.178237,9.800762,73.714523,13.555604,-7.485468,-16.748209,-2.410176,88.978905
741,0.155989,-1.827871,9.929733,68.213066,4.802346,-6.684520,-14.371590,-2.178214,88.669571
742,0.253714,-1.854516,10.031344,51.335438,-0.797765,-5.545470,-12.371805,-2.160079,88.457138
743,0.317847,-1.709056,9.833821,43.313950,-4.347235,-4.334848,-10.789122,-2.277057,88.313698
744,0.310687,-1.633116,9.456463,33.326229,-5.474138,-1.167480,-9.509451,-2.454192,88.252686
745,0.519987,-1.859862,9.411503,13.753091,-11.615687,0.129521,-8.726121,-2.737877,88.280937
746,0.484510,-1.981437,9.516341,2.419729,-9.421189,1.921478,-8.460970,-3.079273,88.367996
747,0.594199,-2.147311,9.478109,-6.495702,-10.410425,5.474310,-8.538511,-3.387848,88.539253
748,0.730542,-2.514275,9.587962,-20.968596,-11.788677,7.510737,-9.012971,-3.720384,88.810287
749,0.995408,-2.389127,9.551385,-41.980530,-25.283703,5.374263,-10.084070,-4.293817,89.125618
750,0.983031,-2.088258,9.250890,-11.574674,-11.587578,3.721754,-10.997774,-4.869675,89.387695
751,0.834254,-1.887292,9.254470,-8.643640,-3.613765,2.951230,-11.348411,-5.096981,89.546082
752,0.758863,-1.885996,9.499887,-9.674457,1.501169,1.378373,-11.660617,-5.117066,89.624260
753,0.781904,-1.725701,9.661164,-1.146554,2.229370,-1.771382,-11.839252,-5.057464,89.605209
754,0.782510,-1.887203,10.053546,0.962856,3.271432,-5.050567,-11.830869,-4.990998,89.474670
755,0.755465,-2.104560,10.405429,5.944843,4.856477,-9.164430,-11.693251,-4.906651,89.214142
756,0.817490,-2.063023,10.180878,20.033916,3.147381,-14.121449,-11.225532,-4.852962,88.805840
757,0.692634,-1.745143,9.857334,35.775520,5.624631,-17.356129,-10.249480,-4.806795,88.261406
758,0.586131,-1.493835,9.702260,43.543953,8.071002,-18.417416,-8.875772,-4.680396,87.633423
759,0.577310,-1.250257,9.590308,48.498478,7.227044,-17.624199,-7.291412,-4.512249,87.000824
760,0.480731,-0.978741,9.604432,53.239845,8.759774,-14.163535,-5.553276,-4.306465,86.443214
761,0.746311,-0.906974,9.639088,48.435116,1.238086,-11.621063,-3.826497,-4.174977,86.000069
762,1.052835,-1.020081,9.923153,34.199688,-6.638019,-10.423757,-2.422658,-4.284639,85.638077
763,1.341790,-1.105637,10.150200,22.586294,-12.598768,-13.294345,-1.446294,-4.618605,85.253609
764,1.544525,-0.929917,10.227456,19.644827,-15.246004,-20.519815,-0.695319,-5.093618,84.697571
765,1.653786,-0.741086,10.101869,12.834792,-16.001596,-29.400446,-0.076510,-5.620454,83.865768
766,1.720619,-0.657252,10.226401,2.213464,-16.536491,-42.031178,0.296883,-6.161181,82.668304
767,1.752727,-0.442003,9.959930,1.231975,-17.906881,-57.343540,0.541273,-6.724194,80.998077
768,1.557777,0.004633,9.734952,6.905846,-12.632032,-71.724266,0.939910,-7.205407,78.825218
769,1.249686,0.083926,9.767136,-1.335298,-4.624578,-81.735542,1.360657,-7.440777,76.242172
770,1.150704,0.146710,9.880755,-3.876857,-2.878560,-90.837433,1.649214,-7.491811,73.340851
771,0.995409,0.467955,9.809225,6.444291,0.788918,-97.982964,2.103231,-7.424059,70.169891
772,0.855517,0.592967,9.811337,10.256620,4.768269,-102.610847,2.807988,-7.186063,66.809357
773,0.864436,0.655708,9.872808,11.692666,4.037786,-106.867897,3.600318,-6.843762,63.308838
774,0.841543,0.939612,9.740624,21.881023,3.775571,-111.427467,4.581402,-6.454341,59.668522
775,0.688202,1.112807,9.661762,22.481401,6.454852,-112.768646,5.722605,-5.946898,55.945190
776,0.539131,1.082970,9.781919,10.939479,7.853505,-108.875748,6.637633,-5.312562,52.284863
777,0.257348,1.192866,10.129260,3.340548,11.252659,-101.743500,7.173001,-4.577845,48.828678
778,0.012254,1.128953,10.147376,-3.276817,13.335485,-91.827408,7.402423,-3.764443,45.674816
779,0.158004,1.153330,9.953424,-6.281759,4.957573,-82.640617,7.412625,-3.089144,42.827431
780,0.474747,1.171402,9.924184,-9.488074,-6.731500,-78.038521,7.287676,-2.776751,40.165676
781,0.452038,1.124641,9.855556,-11.516028,-6.983868,-78.800392,7.064888,-2.677743,37.541878
782,0.390903,1.138961,9.721620,-12.972627,-5.972770,-82.663933,6.780459,-2.568193,34.843143
783,0.372828,1.148557,9.897806,-17.057098,-7.639929,-86.503983,6.404224,-2.470106,32.015385
784,0.053432,0.949144,9.965500,-29.260147,-0.836720,-90.387550,5.755541,-2.299089,29.068312
785,-0.232288,0.839434,10.020341,-31.657064,5.501881,-88.856941,4.849284,-1.948219,26.101534
786,-0.242577,0.843847,9.929165,-24.003418,2.018878,-82.809906,4.008833,-1.603165,23.260017
787,-0.033674,0.924745,9.790693,-13.226816,-5.922444,-74.456032,3.460179,-1.496235,20.641037
788,0.249707,1.057084,9.546809,-4.745412,-13.047979,-66.206223,3.227589,-1.673383,18.282293
789,0.526901,1.021706,9.741351,-1.218438,-17.697838,-55.106213,3.196549,-2.070335,16.234400
790,0.630642,0.977535,9.799370,1.616046,-17.886478,-44.503780,3.272762,-2.568232,14.542441
791,0.824729,1.119173,9.869440,8.207513,-18.321060,-35.402908,3.504421,-3.091481,13.175873
792,1.111174,1.113597,9.870433,15.011786,-20.456305,-25.223366,3.953863,-3.669849,12.123653
793,0.884175,0.739686,10.064328,15.416522,-8.886147,-14.548187,4.508990,-4.107796,11.424795
794,0.665110,0.768362,9.766260,23.472704,0.208891,-7.232554,5.184187,-4.220772,11.049496
795,0.842238,0.697031,9.969314,17.892065,-0.901562,-1.838293,5.884621,-4.217078,10.897050
796,0.711893,0.566105,10.044254,12.469497,4.933630,1.564179,6.390448,-4.149572,10.899782
797,0.471373,0.460019,10.026642,2.518756,10.548448,1.630096,6.634464,-3.899095,10.981918
798,0.661139,0.739054,9.830966,-10.733512,4.337803,-0.302449,6.494267,-3.655077,11.032091
799,0.846261,0.876187,10.082963,-1.617565,-1.751837,-3.223947,6.291862,-3.605629,10.978081
800,0.682304,1.091275,9.813177,6.990244,-0.718931,-5.703513,6.391083,-3.630033,10.825294
801,0.715388,1.170845,9.733217,4.029424,-1.171682,-7.166829,6.588487,-3.637016,10.608143
802,0.718053,1.247756,9.841659,2.097413,-0.636895,-7.126657,6.705870,-3.639447,10.367551
803,0.688351,1.281859,9.890808,2.082955,0.390951,-4.696778,6.787979,-3.620400,10.170980
804,0.755652,1.253979,9.829794,4.092156,-4.928715,-0.746282,6.897209,-3.684669,10.071694
805,0.807345,1.248589,9.816284,3.063329,-7.241746,2.686529,7.016022,-3.889894,10.079276
806,0.867324,1.255776,9.814584,2.389798,-8.533164,5.133773,7.100114,-4.166803,10.176598
807,0.931453,1.289935,9.780481,3.937120,-9.772089,6.221795,7.194252,-4.493045,10.326880
808,1.012207,1.291200,9.807731,3.187338,-11.569295,6.651714,7.299242,-4.872964,10.495393
809,1.064229,1.332760,9.783273,4.938003,-11.751091,6.036656,7.420426,-5.285507,10.655996
810,1.092838,1.318933,9.808647,3.225533,-10.020583,5.202591,7.543190,-5.669691,10.795056
811,1.129676,1.281646,9.852060,0.958566,-8.746239,4.664005,7.600474,-6.001397,10.917514
812,1.159103,1.359964,9.786257,6.590312,-7.921465,3.640380,7.715498,-6.295137,11.018292
813,1.110991,1.417154,9.774405,8.338816,-2.809748,2.505392,7.955682,-6.486331,11.095734
814,1.057595,1.420502,9.800301,5.721973,1.899346,2.176745,8.181503,-6.512324,11.171231
815,1.041418,1.434641,9.802745,4.258888,3.141998,2.453208,8.337847,-6.440240,11.260161
816,1.001363,1.484052,9.771296,4.851956,4.581826,2.478112,8.478500,-6.324895,11.360889
817,0.961166,1.418522,9.797350,-1.212849,5.907383,3.311342,8.525890,-6.166265,11.482881
818,0.984968,1.401603,9.792519,-2.274019,3.313869,3.862890,8.452721,-6.031855,11.624556
819,0.974201,1.401562,9.799554,-1.322052,2.845722,3.692031,8.378112,-5.948718,11.764882
820,0.969396,1.433839,9.784810,1.518348,2.358349,3.193689,8.368312,-5.879629,11.891731
821,0.978696,1.460972,9.778168,3.331476,1.307185,2.750710,8.438170,-5.833698,11.999245
822,0.998078,1.507191,9.811189,4.717460,0.149661,2.006710,8.563941,-5.821422,12.081688
823,0.953089,1.518722,9.802152,4.128908,2.455213,1.187381,8.705361,-5.786510,12.141153
824,0.953591,1.481734,9.820683,0.625104,2.324176,1.202967,8.779426,-5.713837,12.192872
825,0.954373,1.502406,9.778354,1.458847,1.580403,1.060584,8.809459,-5.655281,12.240319
826,0.953418,1.495336,9.785221,0.010513,1.287202,0.975034,8.829914,-5.613257,12.281376
827,0.936548,1.486042,9.783731,-1.109686,1.866000,0.723393,8.808068,-5.565660,12.317574
828,0.957527,1.479678,9.798587,-1.627548,0.383994,0.623867,8.759738,-5.532026,12.345618
829,0.938925,1.508578,9.771069,0.296739,0.825590,0.018258,8.736238,-5.513727,12.359321
831,0.938678,1.485000,9.829442,-1.715514,0.915220,-0.084708,8.712274,-5.484881,12.362644
832,0.984421,1.503692,9.814082,-0.116709,-1.921472,0.030406,8.682067,-5.501322,12.359193
833,1.020253,1.511020,9.764828,1.072513,-3.895027,-0.023184,8.699411,-5.597169,12.344588
834,1.065339,1.526027,9.723193,1.523651,-5.398027,0.046083,8.744975,-5.750318,12.321359
835,1.113992,1.543257,9.758138,-0.234232,-6.233605,0.067132,8.769299,-5.942206,12.293566
836,1.129873,1.478396,9.742551,-4.196945,-2.905902,-0.094147,8.697929,-6.092700,12.269886
837,1.100768,1.400505,9.784983,-7.225400,-1.483731,-0.308708,8.509437,-6.164041,12.252264
838,1.086439,1.380671,9.766813,-7.580540,-1.020647,-0.446738,8.264675,-6.203501,12.233646
839,1.001293,1.243607,9.838975,-14.012147,1.004337,-1.503648,7.908298,-6.199197,12.201246
840,0.947138,1.049711,9.938100,-22.238424,1.167094,-4.776523,7.314826,-6.149457,12.101770
841,0.964007,1.090679,9.959037,-24.473835,-1.598873,-10.677897,6.563914,-6.125399,11.843741
842,1.016998,1.049999,9.769096,-29.206396,-4.876098,-14.266084,5.715189,-6.187924,11.416296
843,1.069972,0.900808,9.860179,-41.140572,-6.396037,-17.116293,4.601905,-6.327884,10.875153
844,1.269107,0.862159,9.931484,-39.956593,-11.429715,-17.818184,3.318549,-6.584230,10.270078
845,1.377717,0.939276,9.657325,-25.498663,-13.141322,-14.848480,2.295046,-6.966384,9.701859
846,1.451017,0.898965,9.565842,-14.444744,-10.927192,-8.331562,1.679862,-7.353491,9.298193
847,1.458961,0.803931,9.855413,-2.102555,-5.816395,-0.391465,1.424347,-7.628498,9.143777
848,1.491239,0.767009,9.694010,36.625656,-8.421775,7.902801,1.983787,-7.869438,9.262790
849,1.344339,0.700772,9.423140,34.642075,3.855321,18.603691,3.110790,-7.965074,9.704353
850,1.255742,0.546596,9.758094,27.891615,11.009420,24.189901,4.053046,-7.761342,10.437469
851,1.078877,0.484895,9.806724,28.329035,15.437625,25.953621,4.874962,-7.386158,11.311867
852,1.055234,0.625297,9.693056,25.500648,12.857791,22.859827,5.664627,-6.991217,12.171646
853,0.945793,0.718529,9.812320,12.984627,12.412725,16.381039,6.222969,-6.640109,12.870675
854,0.954198,0.843298,9.993055,5.615473,8.808852,9.317112,6.480312,-6.335659,13.338113
855,0.945051,1.013390,9.773299,5.096531,8.247394,3.910787,6.631571,-6.078340,13.590967
856,1.005418,1.046350,9.829025,-1.275060,1.926971,1.192881,6.684420,-5.919835,13.695676
857,0.966399,1.032576,9.813046,-2.941932,2.609919,-0.297481,6.611707,-5.846423,13.719333
858,1.003971,1.032802,9.809149,-2.879132,0.114661,-0.590447,6.515668,-5.799610,13.709767
859,1.016180,1.035122,9.791048,-2.227691,-0.901116,-0.375484,6.432338,-5.810816,13.692187
860,1.038995,1.043746,9.830846,-1.617381,-1.656338,-0.203431,6.369720,-5.852098,13.677766
861,1.059505,1.071581,9.810547,0.694018,-2.298007,0.143006,6.355187,-5.917485,13.669409
862,1.077903,1.073924,9.795571,0.858819,-2.636996,0.703335,6.380559,-6.000791,13.674320
863,1.045818,1.084450,9.807618,0.534884,-0.173765,0.668371,6.401944,-6.049891,13.691925
864,1.021140,1.098655,9.826297,0.815717,1.549583,0.719156,6.421756,-6.029685,13.717606
865,1.048383,1.137068,9.802481,3.129008,-0.354354,0.940057,6.484369,-6.012999,13.747483
866,1.045668,1.149769,9.795292,2.820215,-0.560151,1.005856,6.580301,-6.031836,13.778152
867,1.046381,1.177874,9.818617,3.020288,-0.430815,0.590067,6.675049,-6.051311,13.802805
868,1.054226,1.183373,9.834893,2.584308,-0.629129,0.449185,6.766851,-6.070885,13.818023
869,1.069193,1.205223,9.822702,3.216370,-1.258306,0.375673,6.862471,-6.103752,13.827998
870,1.034722,1.203272,9.837988,1.931238,1.039937,0.357945,6.947013,-6.108837,13.839768
871,1.039246,1.206262,9.820107,1.739755,0.927396,0.757597,7.005805,-6.078547,13.862321
872,1.030824,1.194384,9.808656,0.625154,1.222407,1.411421,7.040942,-6.047404,13.902807
873,1.037803,1.212303,9.788737,1.335191,0.632029,2.011221,7.067228,-6.023731,13.963550
874,1.022960,1.212474,9.804132,0.453786,1.329029,2.314525,7.089079,-6.000180,14.039541
875,1.022074,1.199187,9.803785,-0.793584,1.152808,2.629939,7.074312,-5.969286,14.126894
876,1.025668,1.202494,9.817700,-0.908218,0.648040,2.620066,7.036497,-5.950240,14.217907
877,1.004003,1.191607,9.817816,-1.299473,1.452629,2.315772,6.990762,-5.925534,14.304292
878,1.010167,1.151940,9.871161,-3.004900,1.029851,2.202384,6.910775,-5.893575,14.384480
