seq,ax,ay,az,wroll,wpitch,wyaw,roll,pitch,yaw,q0,q1,q2,q3
6086,-0.141167,-0.619476,9.897006,0.008833,-0.056680,-0.239102,-3.581600,0.815591,-0.051048,0.999486,-0.031246,0.007128,-0.000223
6087,-0.145922,-0.707739,9.848859,0.449143,-0.265900,0.182674,-3.600405,0.811721,-0.052026,0.999481,-0.031410,0.007094,-0.000231
6088,-0.149960,-0.708412,9.846859,0.437159,-0.050632,0.071270,-3.637725,0.811205,-0.048211,0.999471,-0.031736,0.007089,-0.000196
6089,-0.152073,-0.705467,9.857780,0.712138,0.286760,-0.156099,-3.667100,0.821490,-0.050563,0.999462,-0.031992,0.007179,-0.000212
6090,-0.151624,-0.706020,9.894663,0.913999,0.201465,-0.122535,-3.683566,0.835543,-0.056340,0.999457,-0.032135,0.007303,-0.000257
6091,-0.159597,-0.688107,9.932194,0.887191,-0.007415,-0.221722,-3.688324,0.845256,-0.062776,0.999455,-0.032176,0.007390,-0.000310
6092,-0.159270,-0.677739,9.949648,0.840804,-0.181180,-0.368207,-3.684067,0.849116,-0.072745,0.999456,-0.032138,0.007426,-0.000396
6093,-0.152706,-0.664252,9.912621,0.652668,-0.605261,-0.453658,-3.677270,0.840217,-0.085838,0.999458,-0.032078,0.007352,-0.000513
6094,-0.155203,-0.662751,9.884013,-0.028281,-0.754690,-0.595567,-3.682518,0.820919,-0.102063,0.999458,-0.032123,0.007189,-0.000660
6095,-0.166504,-0.657347,9.838245,-0.562727,-0.528598,-0.764933,-3.707613,0.808308,-0.123533,0.999451,-0.032341,0.007085,-0.000849
6096,-0.166056,-0.667554,9.825143,-0.668415,-0.218455,-0.754233,-3.744445,0.809451,-0.148226,0.999441,-0.032661,0.007102,-0.001062
6097,-0.155281,-0.677917,9.845124,-0.731446,0.148079,-0.653509,-3.786803,0.819228,-0.171836,0.999428,-0.033028,0.007195,-0.001262
6098,-0.159250,-0.707112,9.892478,-1.028096,0.542009,-0.722169,-3.841289,0.838815,-0.195841,0.999410,-0.033502,0.007373,-0.001463
6099,-0.164673,-0.698070,9.885369,-0.880705,0.653668,-0.740471,-3.898473,0.867746,-0.221881,0.999391,-0.033998,0.007634,-0.001678
6100,-0.162252,-0.715026,9.900757,-0.600474,0.750030,-0.647382,-3.945051,0.898598,-0.246889,0.999375,-0.034402,0.007911,-0.001883
6101,-0.168192,-0.707940,9.898344,-0.614679,0.676961,-0.505466,-3.984539,0.928050,-0.267999,0.999361,-0.034744,0.008175,-0.002056
6102,-0.184772,-0.709508,9.902625,-0.714189,0.481905,-0.397112,-4.019928,0.956796,-0.284568,0.999348,-0.035051,0.008431,-0.002189
6103,-0.183088,-0.709421,9.893619,-0.505381,0.289937,0.034741,-4.050124,0.981144,-0.291666,0.999336,-0.035313,0.008647,-0.002241
6104,-0.173054,-0.728574,9.906859,-0.591130,0.102395,0.451324,-4.080139,0.994119,-0.284253,0.999326,-0.035575,0.008758,-0.002170
6105,-0.176800,-0.723025,9.894848,-0.740989,-0.100498,0.481842,-4.114826,0.997447,-0.268962,0.999316,-0.035879,0.008783,-0.002033
6106,-0.175343,-0.726938,9.880424,-0.657304,-0.217940,0.484893,-4.147451,0.995480,-0.252675,0.999306,-0.036165,0.008761,-0.001889
6107,-0.162076,-0.733141,9.872364,-0.649914,-0.124910,0.341449,-4.178628,0.988730,-0.238690,0.999297,-0.036438,0.008698,-0.001767
6108,-0.167320,-0.725279,9.879360,-0.636330,0.229008,-0.047672,-4.205973,0.986890,-0.234035,0.999288,-0.036677,0.008681,-0.001725
6109,-0.171676,-0.721586,9.869994,-0.262474,0.169479,-0.206370,-4.220812,0.992499,-0.238741,0.999283,-0.036806,0.008732,-0.001763
6110,-0.173031,-0.732055,9.874574,0.102229,-0.305064,-0.062931,-4.223282,0.990694,-0.243047,0.999282,-0.036827,0.008718,-0.001801
6111,-0.168997,-0.754382,9.882893,0.008947,-0.306597,-0.186536,-4.229529,0.979959,-0.246582,0.999281,-0.036881,0.008625,-0.001835
6112,-0.175240,-0.742070,9.879738,-0.064558,-0.166187,-0.191116,-4.240937,0.972610,-0.252456,0.999278,-0.036981,0.008563,-0.001887
6113,-0.170279,-0.732173,9.883540,-0.131775,-0.546087,0.101864,-4.247304,0.962915,-0.253114,0.999276,-0.037036,0.008479,-0.001896
6114,-0.167383,-0.743453,9.910612,-0.462949,-0.527758,0.008783,-4.259090,0.945888,-0.249980,0.999274,-0.037140,0.008330,-0.001873
6115,-0.165968,-0.744861,9.888106,-0.728575,-0.242391,-0.218581,-4.283569,0.933575,-0.252587,0.999267,-0.037353,0.008224,-0.001898
6116,-0.163347,-0.733535,9.869329,-0.655349,-0.309501,-0.123971,-4.307512,0.925227,-0.257605,0.999259,-0.037562,0.008153,-0.001943
6117,-0.155090,-0.739439,9.867806,-0.459963,-0.257638,-0.096504,-4.323399,0.914761,-0.260514,0.999255,-0.037700,0.008063,-0.001971
6118,-0.152396,-0.760684,9.868025,-0.264722,-0.112749,-0.259786,-4.338687,0.905161,-0.266019,0.999250,-0.037834,0.007981,-0.002021
6119,-0.162695,-0.746090,9.852620,-0.022196,0.062738,-0.362024,-4.347448,0.903824,-0.276351,0.999247,-0.037909,0.007973,-0.002111
6120,-0.157967,-0.738801,9.867149,0.360904,0.294740,-0.365069,-4.338320,0.911296,-0.288829,0.999249,-0.037829,0.008042,-0.002218
6121,-0.161272,-0.732356,9.882619,0.551852,0.467209,-0.433730,-4.315058,0.924549,-0.302933,0.999256,-0.037624,0.008162,-0.002338
6122,-0.174093,-0.697985,9.856157,0.706425,0.265918,-0.291801,-4.276077,0.941124,-0.315613,0.999267,-0.037283,0.008310,-0.002446
6123,-0.175377,-0.682248,9.863448,1.090162,-0.013127,0.185840,-4.216991,0.953194,-0.317203,0.999285,-0.036767,0.008414,-0.002460
6124,-0.161354,-0.665914,9.864267,1.651019,-0.589857,0.620748,-4.137359,0.946998,-0.302497,0.999311,-0.036074,0.008354,-0.002340
6125,-0.153291,-0.666179,9.887912,1.567890,-0.908874,0.739776,-4.051417,0.919754,-0.277563,0.999341,-0.035327,0.008107,-0.002137
6126,-0.144044,-0.664452,9.876387,1.426586,-1.105903,0.520040,-3.976867,0.880384,-0.253874,0.999367,-0.034680,0.007755,-0.001947
6127,-0.138688,-0.679416,9.885676,1.461991,-1.304479,0.190431,-3.916117,0.832892,-0.239104,0.999388,-0.034152,0.007335,-0.001837
6128,-0.134329,-0.675830,9.870443,1.486462,-1.550320,-0.311610,-3.864739,0.778607,-0.237862,0.999407,-0.033705,0.006861,-0.001845
6129,-0.130962,-0.672880,9.883753,1.288054,-1.225392,-1.041008,-3.820290,0.727125,-0.257280,0.999422,-0.033317,0.006417,-0.002032
6130,-0.120535,-0.680309,9.891431,1.095606,-0.689857,-2.063385,-3.788383,0.689247,-0.306886,0.999433,-0.033037,0.006100,-0.002478
6131,-0.133479,-0.676567,9.913118,0.442223,-0.134358,-3.468763,-3.775347,0.671944,-0.398130,0.999435,-0.032919,0.005975,-0.003279
6132,-0.125266,-0.674534,9.915192,-1.068697,0.499049,-4.547585,-3.797535,0.675083,-0.531976,0.999424,-0.033105,0.006042,-0.004445
6133,-0.136505,-0.683833,9.931036,-2.723042,1.367450,-5.238822,-3.872391,0.701229,-0.696928,0.999393,-0.033748,0.006321,-0.005871
6134,-0.136687,-0.714092,9.931706,-3.828171,1.854405,-5.048073,-3.998112,0.750359,-0.871855,0.999343,-0.034831,0.006809,-0.007375
6135,-0.157508,-0.726469,9.915934,-4.425212,1.644054,-3.928033,-4.153965,0.806960,-1.025461,0.999281,-0.036177,0.007361,-0.008687
6136,-0.140230,-0.737363,9.891569,-4.419391,1.216945,-2.272398,-4.314222,0.852874,-1.132229,0.999218,-0.037563,0.007809,-0.009593
6137,-0.148352,-0.769144,9.895834,-3.221764,0.862936,-1.112697,-4.451442,0.883348,-1.191275,0.999165,-0.038753,0.008106,-0.010088
6138,-0.141797,-0.787497,9.882861,-1.570965,0.652282,-0.291758,-4.541818,0.903613,-1.216745,0.999131,-0.039537,0.008300,-0.010297
6139,-0.151173,-0.780034,9.860139,-0.516658,0.545354,0.219415,-4.580950,0.918817,-1.219594,0.999116,-0.039877,0.008437,-0.010313
6140,-0.149846,-0.777759,9.865821,0.534819,0.351462,0.413202,-4.575896,0.930591,-1.210199,0.999118,-0.039832,0.008536,-0.010228
6141,-0.167647,-0.785061,9.868889,1.806041,0.020321,0.899973,-4.531480,0.937915,-1.188789,0.999134,-0.039446,0.008588,-0.010042
6142,-0.160613,-0.770806,9.891397,2.727829,-0.390117,1.540867,-4.450083,0.936411,-1.147658,0.999166,-0.038740,0.008554,-0.009690
6143,-0.155600,-0.729492,9.894043,3.311046,-0.731973,2.343505,-4.335838,0.920782,-1.081463,0.999210,-0.037750,0.008386,-0.009126
6144,-0.157650,-0.717330,9.908317,3.856203,-1.179115,2.869952,-4.198914,0.893632,-0.992174,0.999263,-0.036564,0.008110,-0.008366
6145,-0.159435,-0.688821,9.878695,3.838271,-1.385100,2.839440,-4.053978,0.858498,-0.893935,0.999318,-0.035310,0.007763,-0.007531
6146,-0.157439,-0.678822,9.888709,3.019205,-1.265987,2.418297,-3.924125,0.824170,-0.803209,0.999365,-0.034186,0.007428,-0.006759
6147,-0.159053,-0.669695,9.883477,2.187794,-0.841597,2.061246,-3.827513,0.801531,-0.726197,0.999399,-0.033349,0.007202,-0.006100
6148,-0.153737,-0.675335,9.894673,1.264573,-0.400376,1.426476,-3.770608,0.793844,-0.666828,0.999419,-0.032857,0.007115,-0.005588
6149,-0.147503,-0.660480,9.888245,0.562487,0.263582,0.710827,-3.746047,0.801179,-0.631214,0.999427,-0.032645,0.007168,-0.005277
6150,-0.156159,-0.662192,9.900263,0.121331,1.273944,-0.104006,-3.741093,0.835377,-0.622885,0.999427,-0.032600,0.007463,-0.005195
6151,-0.126406,-0.714991,9.772470,0.778350,1.203757,-0.212357,-3.752415,0.876450,-0.631227,0.999421,-0.032697,0.007825,-0.005255
6152,-0.096280,-0.735419,9.730648,0.700787,-1.134467,0.744347,-3.778285,0.857816,-0.623209,0.999415,-0.032924,0.007661,-0.005189
6153,-0.088234,-0.721921,9.758719,0.936027,-3.436375,1.820051,-3.801447,0.752010,-0.576288,0.999417,-0.033134,0.006726,-0.004809
6154,-0.081186,-0.682817,9.840577,1.908793,-4.784542,2.705025,-3.784067,0.589198,-0.492422,0.999433,-0.032993,0.005281,-0.004125
6155,-0.077441,-0.649640,9.899011,2.834857,-5.480891,3.495417,-3.710936,0.404099,-0.378249,0.999464,-0.032366,0.003631,-0.003185
6156,-0.097227,-0.541986,10.038665,3.163550,-4.931595,3.838752,-3.585474,0.237209,-0.245068,0.999506,-0.031279,0.002136,-0.002073
6157,-0.100033,-0.478439,10.080642,3.683760,-2.765857,2.834729,-3.415128,0.133963,-0.125912,0.999555,-0.029797,0.001201,-0.001063
6158,-0.099217,-0.474254,10.026902,3.749325,-0.441159,1.409563,-3.232001,0.113294,-0.051954,0.999602,-0.028200,0.001001,-0.000425
6159,-0.083829,-0.505140,9.943866,3.057622,0.562240,0.698535,-3.075748,0.151889,-0.016823,0.999639,-0.026838,0.001329,-0.000111
6160,-0.041663,-0.507276,9.905473,2.260148,0.208796,0.660420,-2.963647,0.188803,0.005226,0.999664,-0.025860,0.001646,0.000088
6161,-0.005793,-0.534408,9.888112,1.608595,0.013395,0.379645,-2.898405,0.190065,0.022359,0.999679,-0.025291,0.001653,0.000237
6162,0.009192,-0.548632,9.859737,1.719467,0.409637,0.536789,-2.863710,0.177941,0.037180,0.999687,-0.024988,0.001544,0.000363
6163,0.026079,-0.521777,9.859379,2.155317,0.033545,1.285980,-2.821648,0.158192,0.067065,0.999696,-0.024622,0.001366,0.000619
6164,0.020525,-0.516140,9.882161,1.883285,-0.309019,1.406489,-2.770918,0.125480,0.112036,0.999707,-0.024180,0.001071,0.001004
6166,-0.002791,-0.483842,9.871058,2.218734,-0.137072,1.540747,-2.712625,0.101089,0.161408,0.999718,-0.023671,0.000849,0.001429
6167,-0.029161,-0.434638,9.906735,2.345592,-0.654413,1.702493,-2.628198,0.088333,0.216021,0.999735,-0.022935,0.000727,0.001902
6168,-0.065248,-0.402895,9.951919,2.114290,-0.922532,1.299670,-2.528271,0.082046,0.267250,0.999754,-0.022063,0.000664,0.002347
6169,-0.077641,-0.391259,9.969139,1.631310,-0.506669,0.590152,-2.436263,0.092151,0.299841,0.999770,-0.021261,0.000748,0.002633
6170,-0.069760,-0.372025,9.934895,1.255121,-0.119768,0.117152,-2.359508,0.115894,0.312147,0.999784,-0.020592,0.000955,0.002744
6171,-0.033632,-0.384308,9.926903,0.536953,-0.505343,-0.148337,-2.307928,0.124858,0.312117,0.999793,-0.020142,0.001035,0.002745
6172,-0.017884,-0.406630,9.903502,0.045729,-0.273331,-0.351282,-2.293273,0.114385,0.304335,0.999796,-0.020014,0.000945,0.002675
6173,0.010084,-0.419180,9.879335,-0.105562,-0.314774,-0.250581,-2.303268,0.094474,0.294688,0.999794,-0.020100,0.000773,0.002588
6174,0.004162,-0.421522,9.893693,-0.452287,-0.785123,-0.288744,-2.326210,0.061225,0.286427,0.999791,-0.020300,0.000483,0.002510
6175,-0.020292,-0.397307,9.911991,-0.411219,-0.702801,-0.506955,-2.345888,0.032777,0.274181,0.999788,-0.020471,0.000237,0.002398
6176,-0.067211,-0.383727,9.901709,0.100162,-0.029354,-0.918934,-2.343218,0.040204,0.250940,0.999788,-0.020448,0.000306,0.002197
6177,-0.076711,-0.373952,9.894043,0.391995,0.171491,-1.472805,-2.319795,0.078928,0.211033,0.999793,-0.020244,0.000651,0.001855
6178,-0.079827,-0.364186,9.901194,0.447419,0.131273,-2.014469,-2.286306,0.120953,0.152797,0.999800,-0.019952,0.001029,0.001354
6179,-0.057168,-0.359943,9.896774,0.719554,0.119806,-2.307415,-2.246192,0.151910,0.080715,0.999807,-0.019601,0.001312,0.000730
6180,-0.019902,-0.393268,9.922834,0.965453,0.077296,-2.789599,-2.209338,0.160526,-0.004269,0.999813,-0.019279,0.001401,-0.000010
6181,0.029530,-0.437834,9.938898,1.033699,0.192807,-3.004773,-2.193093,0.142927,-0.100992,0.999816,-0.019136,0.001264,-0.000857
6182,0.036509,-0.457365,9.922562,1.246379,0.408633,-2.266260,-2.193238,0.115371,-0.189265,0.999815,-0.019137,0.001038,-0.001632
6183,0.029325,-0.417338,9.924386,1.196724,-0.005689,-1.115745,-2.185655,0.088026,-0.245926,0.999816,-0.019071,0.000809,-0.002131
6184,0.015911,-0.407946,9.939666,0.454650,-0.285514,-0.662569,-2.177133,0.058842,-0.275397,0.999817,-0.018997,0.000559,-0.002393
6185,0.037189,-0.379946,9.941312,-0.012504,-0.571427,0.225498,-2.178575,0.021658,-0.282147,0.999816,-0.019010,0.000236,-0.002458
6186,0.018760,-0.353321,9.937902,-0.528103,-0.597871,0.855686,-2.181041,-0.017269,-0.263396,0.999816,-0.019032,-0.000107,-0.002301
6187,-0.017837,-0.333309,9.937312,-0.674089,-0.492594,0.883153,-2.180968,-0.034812,-0.233745,0.999817,-0.019032,-0.000265,-0.002045
6188,-0.037712,-0.351036,9.936390,-0.853626,-0.193048,0.500163,-2.185559,-0.026744,-0.210281,0.999816,-0.019072,-0.000198,-0.001839
6189,-0.027275,-0.336913,9.930160,-0.711215,0.127941,0.344539,-2.191643,-0.005482,-0.196184,0.999816,-0.019125,-0.000015,-0.001713
6190,-0.076209,-0.313790,9.891622,-0.350325,0.595662,0.275902,-2.178481,0.038498,-0.186315,0.999818,-0.019009,0.000367,-0.001619
6191,-0.075303,-0.295946,9.894488,-0.280609,0.318999,-0.110117,-2.146998,0.096037,-0.184098,0.999823,-0.018734,0.000868,-0.001591
6192,-0.001033,-0.332364,9.943399,-0.992344,-0.451211,-1.034811,-2.133356,0.108484,-0.203034,0.999825,-0.018614,0.000980,-0.001754
6193,0.036773,-0.394431,9.968451,-1.364544,-0.331174,-1.683349,-2.167703,0.073263,-0.247802,0.999819,-0.018914,0.000680,-0.002150
6194,0.043889,-0.438935,9.958923,-1.134740,0.128850,-1.611661,-2.233833,0.035522,-0.302554,0.999806,-0.019492,0.000361,-0.002634
6195,0.061559,-0.477577,9.960177,-1.030535,0.201201,-1.596437,-2.313303,0.003158,-0.356190,0.999791,-0.020186,0.000090,-0.003107
6196,0.046726,-0.509431,9.938774,-0.981595,0.488775,-1.396575,-2.403442,-0.020476,-0.406469,0.999774,-0.020973,-0.000104,-0.003550
6197,0.005736,-0.483168,9.877718,-0.413697,1.274271,-0.740441,-2.477583,-0.006884,-0.443264,0.999759,-0.021619,0.000024,-0.003869
6198,-0.013560,-0.459843,9.836946,-0.032960,1.330821,-0.383370,-2.514827,0.039329,-0.463850,0.999751,-0.021943,0.000432,-0.004039
6199,-0.033016,-0.456497,9.819112,0.123777,0.940482,-0.413876,-2.530623,0.088507,-0.478795,0.999747,-0.022079,0.000864,-0.004160
6200,-0.040215,-0.442411,9.839554,-0.088564,0.432722,-0.423015,-2.539603,0.125682,-0.493752,0.999745,-0.022155,0.001192,-0.004283
6201,-0.026233,-0.421663,9.890009,-0.105281,-0.108766,-0.325346,-2.540139,0.139103,-0.506446,0.999744,-0.022159,0.001312,-0.004392
6202,-0.016182,-0.440763,9.944703,-0.414919,-0.384984,-0.427584,-2.543806,0.129335,-0.518606,0.999743,-0.022192,0.001229,-0.004500
6203,-0.021742,-0.428133,9.918182,-0.144736,0.130716,-0.068994,-2.549428,0.122242,-0.526677,0.999741,-0.022241,0.001169,-0.004571
6204,-0.026669,-0.408975,9.925399,-0.254276,-0.079827,0.220934,-2.542974,0.124589,-0.524156,0.999743,-0.022185,0.001188,-0.004549
6205,-0.024593,-0.421263,9.943541,-0.571285,-0.331544,0.260612,-2.541368,0.120524,-0.515801,0.999744,-0.022171,0.001151,-0.004477
6206,-0.035473,-0.416920,9.911520,-0.505358,0.132464,0.356752,-2.546803,0.122733,-0.505348,0.999743,-0.022218,0.001169,-0.004385
6207,-0.052717,-0.390442,9.866560,-0.282057,0.180101,0.576501,-2.539223,0.142003,-0.489995,0.999745,-0.022152,0.001334,-0.004247
6208,-0.051024,-0.391224,9.900454,-0.670471,-0.649582,0.452921,-2.527205,0.151754,-0.472441,0.999748,-0.022047,0.001415,-0.004093
6209,-0.049046,-0.419072,9.890071,-0.799703,-0.441700,0.105027,-2.532825,0.148254,-0.462299,0.999747,-0.022096,0.001383,-0.004005
6210,-0.051468,-0.449337,9.828401,-0.224409,-0.076650,-0.038394,-2.549087,0.153853,-0.460806,0.999744,-0.022238,0.001432,-0.003990
6211,-0.044883,-0.453196,9.824311,-0.137653,-0.769097,0.016553,-2.563966,0.152710,-0.460568,0.999741,-0.022367,0.001422,-0.003988
6212,-0.017119,-0.459521,9.876646,-0.076856,-1.657117,0.021133,-2.577133,0.115047,-0.458155,0.999739,-0.022484,0.001094,-0.003975
6213,-0.001464,-0.496477,9.891718,-0.130758,-1.490991,-0.462595,-2.600403,0.054296,-0.463178,0.999734,-0.022689,0.000565,-0.004030
6214,0.016145,-0.490588,9.903712,0.260740,-1.588968,-0.085708,-2.624826,-0.010107,-0.470000,0.999729,-0.022904,0.000006,-0.004102
6215,0.027611,-0.451048,9.935159,0.251321,-1.828909,0.265239,-2.626796,-0.081703,-0.464412,0.999729,-0.022924,-0.000620,-0.004068
6216,0.032162,-0.456680,9.949715,0.039249,-1.607965,0.008869,-2.620753,-0.151328,-0.457231,0.999730,-0.022873,-0.001229,-0.004019
6217,0.032367,-0.463365,9.924789,-0.040166,-0.993190,0.034802,-2.623451,-0.201534,-0.454513,0.999728,-0.022899,-0.001667,-0.004006
6218,0.035658,-0.432238,9.889590,0.507726,-0.819284,0.658903,-2.612281,-0.233191,-0.441597,0.999731,-0.022802,-0.001947,-0.003899
6219,0.034957,-0.426770,9.874261,0.419546,-0.987104,0.594814,-2.584004,-0.261035,-0.419410,0.999736,-0.022556,-0.002195,-0.003710
6220,0.037211,-0.420415,9.895134,0.146766,-1.287616,0.547513,-2.560235,-0.294239,-0.398749,0.999741,-0.022349,-0.002489,-0.003536
6221,0.051641,-0.443454,9.906536,-0.266575,-1.290616,0.419337,-2.554916,-0.334366,-0.380765,0.999742,-0.022303,-0.002843,-0.003387
6222,0.060537,-0.451503,9.912862,-0.316999,-1.177721,0.376611,-2.567525,-0.375835,-0.365655,0.999738,-0.022414,-0.003207,-0.003264
6223,0.064407,-0.446707,9.922681,-0.556649,-1.199098,0.272847,-2.585326,-0.415464,-0.353041,0.999734,-0.022570,-0.003555,-0.003162
6224,0.079238,-0.476403,9.946397,-0.335599,-0.977884,0.376610,-2.608641,-0.453026,-0.340522,0.999728,-0.022774,-0.003885,-0.003061
6225,0.091575,-0.481481,9.935184,0.388811,-0.466842,1.101420,-2.624101,-0.481700,-0.314689,0.999725,-0.022909,-0.004140,-0.002842
6226,0.087142,-0.434350,9.913183,1.258526,-0.315895,1.916259,-2.599607,-0.497238,-0.263834,0.999730,-0.022694,-0.004286,-0.002400
6227,0.077410,-0.429613,9.901427,1.495334,-0.271609,1.962036,-2.542753,-0.502712,-0.198920,0.999743,-0.022195,-0.004347,-0.001833
6228,0.092313,-0.423279,9.917951,1.698548,-0.294472,2.135991,-2.479420,-0.508164,-0.130361,0.999755,-0.021640,-0.004409,-0.001233
6229,0.090669,-0.380096,9.923243,1.494555,-0.375402,2.001702,-2.407584,-0.518630,-0.061155,0.999769,-0.021011,-0.004514,-0.000629
6230,0.085307,-0.392987,9.908354,0.637513,-0.471522,0.904558,-2.351390,-0.530186,-0.012361,0.999779,-0.020519,-0.004624,-0.000203
6231,0.087141,-0.423484,9.919424,0.159953,-0.413470,0.365908,-2.336149,-0.541404,0.009384,0.999781,-0.020385,-0.004725,-0.000014
6232,0.099347,-0.389663,9.929568,-0.152868,-0.219683,0.277405,-2.336356,-0.551713,0.020530,0.999781,-0.020386,-0.004817,0.000081
6233,0.087931,-0.395472,9.928893,-0.781368,0.387652,-0.648833,-2.344651,-0.548503,0.014162,0.999779,-0.020459,-0.004788,0.000026
6234,0.066314,-0.407020,9.883580,-1.223835,0.777024,-1.153905,-2.375689,-0.519889,-0.016682,0.999775,-0.020731,-0.004533,-0.000240
6235,0.055407,-0.409481,9.894475,-1.239102,0.949908,-1.149308,-2.416779,-0.474551,-0.056247,0.999769,-0.021091,-0.004130,-0.000578
6236,0.055919,-0.412088,9.903287,-1.275675,1.238746,-1.486519,-2.456343,-0.422442,-0.101719,0.999763,-0.021437,-0.003667,-0.000966
6237,0.038836,-0.443995,9.914137,-1.272715,1.022500,-1.726070,-2.502128,-0.369628,-0.156830,0.999755,-0.021838,-0.003195,-0.001439
6238,0.034172,-0.456516,9.900344,-1.083807,0.356134,-1.310996,-2.553380,-0.330392,-0.208346,0.999746,-0.022286,-0.002842,-0.001882
6239,0.039166,-0.451720,9.906931,-0.641534,0.333590,-1.103454,-2.591671,-0.306906,-0.249017,0.999738,-0.022620,-0.002628,-0.002233
6240,0.034633,-0.458867,9.912528,-0.289191,0.443720,-1.227041,-2.612781,-0.285173,-0.288380,0.999734,-0.022805,-0.002431,-0.002573
6241,0.026309,-0.453972,9.902846,0.054055,0.205975,-0.902005,-2.620064,-0.263972,-0.324305,0.999732,-0.022869,-0.002238,-0.002882
6242,0.034551,-0.442533,9.884893,0.693473,0.378651,-0.396912,-2.605270,-0.245373,-0.346384,0.999735,-0.022740,-0.002072,-0.003071
6243,0.044231,-0.451062,9.887017,1.290172,0.485532,-0.274836,-2.569667,-0.228827,-0.358228,0.999742,-0.022429,-0.001926,-0.003170
6244,0.044963,-0.453595,9.922826,1.335882,0.303895,-0.274838,-2.528586,-0.218150,-0.367955,0.999750,-0.022070,-0.001832,-0.003252
6245,0.053576,-0.442441,9.929946,1.337319,0.157255,-0.023067,-2.487524,-0.216749,-0.373240,0.999757,-0.021712,-0.001820,-0.003297
6246,0.067896,-0.431735,9.923794,1.460886,0.140138,-0.021555,-2.442192,-0.225106,-0.374199,0.999766,-0.021317,-0.001894,-0.003307
6247,0.064402,-0.428500,9.913239,1.210589,0.002403,-0.261142,-2.399470,-0.239013,-0.379012,0.999773,-0.020945,-0.002016,-0.003350
6248,0.046308,-0.409600,9.919374,0.914563,-0.031385,-0.309982,-2.363909,-0.248643,-0.388511,0.999779,-0.020635,-0.002099,-0.003434
6249,0.049525,-0.389303,9.900345,0.815561,-0.235942,-0.061260,-2.327699,-0.256647,-0.394545,0.999785,-0.020319,-0.002169,-0.003488
6250,0.051020,-0.394041,9.901106,0.672325,-0.379474,-0.126880,-2.294852,-0.270827,-0.397301,0.999791,-0.020033,-0.002293,-0.003514
6251,0.041604,-0.395805,9.907567,0.423669,-0.168906,-0.271843,-2.273765,-0.280621,-0.403590,0.999794,-0.019849,-0.002379,-0.003570
6252,0.037404,-0.399523,9.920153,0.289355,-0.177943,-0.322194,-2.263105,-0.282030,-0.413247,0.999795,-0.019757,-0.002389,-0.003654
6253,0.042566,-0.393361,9.921919,0.153499,-0.185445,-0.259625,-2.257664,-0.283406,-0.422688,0.999796,-0.019709,-0.002400,-0.003737
6254,0.054584,-0.395920,9.939375,0.240438,-0.103039,-0.235210,-2.252592,-0.288263,-0.430732,0.999796,-0.019666,-0.002441,-0.003808
6255,0.062748,-0.395426,9.920965,0.579127,-0.039081,-0.100934,-2.241569,-0.296091,-0.436224,0.999798,-0.019570,-0.002509,-0.003857
6256,0.063986,-0.381262,9.912398,0.917894,-0.255946,0.094377,-2.216169,-0.308374,-0.436147,0.999802,-0.019349,-0.002617,-0.003857
6257,0.072796,-0.354480,9.923944,1.705532,-0.254652,0.121834,-2.162000,-0.325996,-0.432283,0.999811,-0.018876,-0.002773,-0.003825
6258,0.072122,-0.341511,9.916189,3.558456,-0.010756,0.019584,-2.056283,-0.340435,-0.429880,0.999827,-0.017954,-0.002903,-0.003804
6259,0.064032,-0.322681,9.901418,5.769996,0.285123,-0.082661,-1.881839,-0.341920,-0.431220,0.999853,-0.016432,-0.002922,-0.003812
6260,0.062490,-0.269372,9.923437,7.949663,0.567359,0.164533,-1.627354,-0.330110,-0.430462,0.999888,-0.014212,-0.002827,-0.003797
6261,0.051884,-0.231112,9.931711,10.192024,0.707759,0.575003,-1.293998,-0.307940,-0.418870,0.999926,-0.011302,-0.002646,-0.003685
6262,0.040647,-0.177132,9.892219,12.330548,0.916941,1.009891,-0.890635,-0.275183,-0.393110,0.999961,-0.007780,-0.002375,-0.003449
6263,0.028314,-0.095938,9.920485,13.469645,1.117067,1.302869,-0.430572,-0.231622,-0.355053,0.999986,-0.003764,-0.002010,-0.003106
6264,0.021374,0.003737,9.947360,14.704963,1.443856,1.505816,0.072609,-0.179136,-0.308444,0.999995,0.000629,-0.001565,-0.002691
6265,0.001734,0.104552,9.938454,16.608713,2.120101,1.189947,0.631210,-0.109600,-0.263200,0.999982,0.005506,-0.000969,-0.002292
6266,-0.020264,0.211895,9.971304,18.294380,2.500427,0.793201,1.254736,-0.018350,-0.228870,0.999938,0.010949,-0.000182,-0.001995
6267,-0.053070,0.308868,9.981931,20.602613,2.426171,0.631442,1.944404,0.083619,-0.202688,0.999854,0.016969,0.000700,-0.001781
6269,-0.038805,0.490034,9.970320,22.229025,1.013597,-0.291752,2.710260,0.157975,-0.194393,0.999718,0.023652,0.001338,-0.001729
6270,-0.042343,0.646561,9.945308,22.722134,-0.632666,-0.934171,3.529801,0.173786,-0.214054,0.999523,0.030801,0.001458,-0.001914
6271,-0.040564,0.803920,9.941961,23.039972,-2.356825,-1.028779,4.371204,0.131715,-0.249706,0.999269,0.038139,0.001065,-0.002221
6272,-0.018591,0.974577,9.870142,23.179520,-3.005311,-0.972316,5.229950,0.046750,-0.290034,0.998955,0.045625,0.000292,-0.002547
6273,0.003918,1.150769,9.857005,22.103218,-2.710894,-0.824290,6.085737,-0.048611,-0.329059,0.998586,0.053082,-0.000576,-0.002845
6274,-0.000873,1.249042,9.843192,21.289263,-1.601562,0.355251,6.905478,-0.119715,-0.344997,0.998180,0.060222,-0.001224,-0.002942
6275,0.004291,1.343225,9.850176,21.303349,-0.463083,1.324194,7.690480,-0.151750,-0.321708,0.997744,0.067058,-0.001510,-0.002712
6276,0.003400,1.452751,9.820502,21.312466,0.664787,1.919275,8.459970,-0.147434,-0.267810,0.997273,0.073757,-0.001455,-0.002236
6277,-0.012676,1.558160,9.843342,21.275499,0.941305,2.103861,9.216799,-0.118027,-0.197477,0.996765,0.080343,-0.001165,-0.001635
6278,-0.015881,1.684537,9.833468,21.522144,0.641096,2.247234,9.968887,-0.087987,-0.121482,0.996218,0.086884,-0.000857,-0.000989
6279,-0.030262,1.798635,9.795224,22.154758,0.736138,2.012167,10.731954,-0.060486,-0.047351,0.995618,0.093517,-0.000564,-0.000362
6280,-0.041348,1.939354,9.777223,22.675966,0.841944,1.770974,11.513670,-0.025851,0.019803,0.994957,0.100307,-0.000207,0.000195
6281,-0.041741,2.068590,9.769081,22.585281,0.431988,1.340562,12.302824,0.005335,0.075183,0.994242,0.107156,0.000117,0.000647
6282,-0.019378,2.203062,9.714465,23.504749,0.072211,0.754535,13.105332,0.019752,0.111342,0.993467,0.114116,0.000282,0.000946
6283,-0.018077,2.349372,9.696554,24.610443,-0.211437,-0.200733,13.944301,0.022426,0.119923,0.992605,0.121387,0.000321,0.001015
6284,-0.020279,2.486380,9.672817,25.407902,-0.890312,-0.586831,14.814847,0.014510,0.102765,0.991654,0.128924,0.000241,0.000873
6285,-0.019527,2.634674,9.589580,25.228796,-1.537129,-0.983616,15.696952,-0.010472,0.067024,0.990633,0.136554,-0.000011,0.000592
6286,-0.021774,2.759159,9.521889,24.817745,-1.669673,-0.945526,16.568932,-0.044128,0.021448,0.989565,0.144088,-0.000354,0.000241
6287,-0.037234,2.859367,9.497635,23.135260,-1.495362,-0.547363,17.392477,-0.072482,-0.017571,0.988504,0.151196,-0.000648,-0.000056
6288,-0.022408,2.954215,9.456109,20.477230,-1.476637,0.296347,18.124706,-0.101062,-0.036430,0.987517,0.157509,-0.000921,-0.000175
6289,-0.008381,3.070415,9.441512,17.838762,-1.198605,0.789121,18.757545,-0.135863,-0.033167,0.986632,0.162960,-0.001217,-0.000092
6290,-0.005950,3.160142,9.434237,16.718407,-0.983166,1.126256,19.320368,-0.168641,-0.014695,0.985819,0.167804,-0.001472,0.000121
6291,0.001552,3.260293,9.439442,16.435637,-0.915732,1.072750,19.853930,-0.198358,0.009392,0.985027,0.172393,-0.001691,0.000379
6292,0.008247,3.381219,9.438559,17.215000,-0.681990,0.961260,20.399279,-0.223365,0.032217,0.984195,0.177079,-0.001869,0.000622
6293,0.000015,3.473397,9.394211,18.881075,-0.484816,0.752088,20.991310,-0.237608,0.052207,0.983266,0.182161,-0.001956,0.000826
6294,0.002067,3.569421,9.322204,21.175928,-0.417281,0.841970,21.653282,-0.244445,0.071674,0.982197,0.187839,-0.001978,0.001015
6295,0.006385,3.670292,9.271797,22.970324,-0.180383,1.012725,22.385296,-0.249012,0.096810,0.980977,0.194110,-0.001968,0.001251
6296,0.009374,3.799634,9.202020,23.240410,-0.088478,1.253681,23.155073,-0.252650,0.130099,0.979650,0.200696,-0.001932,0.001555
6297,0.012830,3.923212,9.138892,22.985703,-0.217859,1.572463,23.930134,-0.262115,0.171413,0.978270,0.207318,-0.001928,0.001938
6298,0.026929,4.030014,9.094434,22.558487,-0.036027,1.607452,24.690727,-0.277062,0.218138,0.976871,0.213807,-0.001955,0.002377
6299,0.019550,4.144220,9.052582,21.357468,0.112219,1.564621,25.417767,-0.288109,0.266709,0.975493,0.220002,-0.001941,0.002824
6300,0.013241,4.261170,9.034240,20.579004,0.014880,1.506488,26.106739,-0.294317,0.313923,0.974152,0.225864,-0.001883,0.003249
6301,0.015405,4.368819,8.993780,21.717001,-0.225862,1.504793,26.797766,-0.304142,0.357547,0.972770,0.231735,-0.001859,0.003650
6302,0.032469,4.483493,8.935138,22.224806,-0.874107,0.856142,27.516855,-0.326271,0.384438,0.971295,0.237836,-0.001968,0.003936
6303,0.040262,4.613905,8.872193,22.816687,-1.595691,0.053414,28.260365,-0.361781,0.378752,0.969731,0.244133,-0.002255,0.003976
6304,0.046789,4.723288,8.800960,23.092804,-1.850363,-0.654697,29.022745,-0.400352,0.342553,0.968085,0.250580,-0.002633,0.003769
6305,0.046533,4.820495,8.704327,22.256519,-1.862386,-1.341465,29.775824,-0.429504,0.283309,0.966418,0.256935,-0.002987,0.003352
6306,0.049813,4.929359,8.651473,19.723345,-1.608856,-1.877191,30.470497,-0.442337,0.208023,0.964844,0.262787,-0.003247,0.002766
6307,0.038618,4.998460,8.576758,17.766790,-0.789140,-1.740026,31.083109,-0.432273,0.135988,0.963428,0.267939,-0.003316,0.002154
6308,0.016806,5.074331,8.551242,15.277411,0.016997,-1.409163,31.610371,-0.395143,0.084796,0.962187,0.272368,-0.003116,0.001651
6309,0.020045,5.158482,8.543272,13.836106,0.420337,-0.968466,32.062607,-0.344955,0.055384,0.961106,0.276163,-0.002760,0.001296
6310,0.035333,5.246010,8.535995,13.290285,0.536686,-0.465136,32.472084,-0.301054,0.044109,0.960114,0.279595,-0.002415,0.001104
6311,0.028893,5.299733,8.479598,13.953013,0.785673,-0.471398,32.884201,-0.261840,0.043213,0.959104,0.283046,-0.002085,0.001008
6312,0.017704,5.371608,8.452838,14.669340,0.575332,-0.349471,33.326881,-0.224263,0.044391,0.958004,0.286749,-0.001764,0.000932
6313,0.028619,5.453125,8.395968,16.200644,0.149775,0.076152,33.812397,-0.203389,0.047492,0.956780,0.290806,-0.001578,0.000913
6314,0.023516,5.500331,8.302135,18.032709,-0.008820,-0.018520,34.360043,-0.197159,0.049763,0.955380,0.295375,-0.001515,0.000923
6315,0.010349,5.553930,8.212720,18.888210,-0.034600,-0.291768,34.953705,-0.187118,0.045241,0.953837,0.300321,-0.001439,0.000867
6316,0.001791,5.639381,8.155729,18.933443,-0.238831,-0.142393,35.562229,-0.174894,0.036879,0.952229,0.305382,-0.001355,0.000773
6317,0.010638,5.751101,8.113333,18.113533,-0.362208,0.095496,36.160076,-0.171668,0.030574,0.950623,0.310345,-0.001341,0.000719
6318,0.006636,5.839122,8.062203,16.875557,-0.418478,0.118250,36.725327,-0.174982,0.025872,0.949080,0.315031,-0.001378,0.000695
6319,0.012790,5.938219,8.036417,15.758102,-0.599885,0.075394,37.250111,-0.181666,0.018387,0.947628,0.319374,-0.001451,0.000658
6320,0.020087,5.990551,7.993408,14.753420,-0.654692,0.206530,37.733711,-0.194820,0.009536,0.946271,0.323370,-0.001582,0.000629
6321,0.030674,6.046791,7.951172,13.743807,-0.822473,0.989281,38.169571,-0.223054,0.010283,0.945034,0.326966,-0.001810,0.000721
6322,0.046817,6.117275,7.883097,13.895350,-1.054438,1.447083,38.588203,-0.274116,0.022872,0.943832,0.330417,-0.002192,0.000979
6323,0.050492,6.163479,7.805452,14.620969,-0.955308,0.996982,39.034550,-0.328659,0.033732,0.942537,0.334090,-0.002605,0.001236
6324,0.041911,6.228481,7.753570,14.800512,-0.691270,0.641402,39.504185,-0.364558,0.037596,0.941159,0.337950,-0.002883,0.001384
6325,0.045587,6.315895,7.711136,15.506598,-0.659087,0.531425,39.992638,-0.387250,0.038368,0.939709,0.341959,-0.003061,0.001470
6326,0.044305,6.405718,7.643784,16.746975,-0.689434,-0.158434,40.522255,-0.399601,0.028707,0.938118,0.346298,-0.003185,0.001443
6327,0.031854,6.463728,7.601367,18.287996,-0.705969,-0.649992,41.099766,-0.395316,0.003446,0.936361,0.351021,-0.003220,0.001239
6328,0.036226,6.536024,7.541749,19.941788,-0.832333,-0.526639,41.724651,-0.386437,-0.027990,0.934434,0.356121,-0.003238,0.000973
6329,0.051650,6.592042,7.419950,20.281796,-1.047294,-0.716022,42.384312,-0.385487,-0.064128,0.932369,0.361493,-0.003339,0.000694
6330,0.056658,6.694616,7.361358,19.932165,-1.125012,-1.015195,43.047096,-0.386997,-0.109753,0.930262,0.366878,-0.003493,0.000348
6331,0.065775,6.783786,7.305282,19.992952,-1.247038,-0.761934,43.702808,-0.392849,-0.158328,0.928148,0.372194,-0.003696,-0.000006
6332,0.064872,6.852047,7.198462,18.782629,-1.373669,-0.882498,44.338821,-0.404164,-0.208289,0.926067,0.377338,-0.003952,-0.000352
6333,0.066774,6.940281,7.127917,16.955893,-1.526234,-1.381500,44.926697,-0.410619,-0.269024,0.924119,0.382081,-0.004208,-0.000800
6334,0.063137,7.029408,7.118003,16.976891,-2.005328,-1.116033,45.478180,-0.420009,-0.340006,0.922269,0.386521,-0.004527,-0.001320
6335,0.056292,7.090770,7.005910,19.036495,-2.778874,-0.449298,46.063255,-0.451488,-0.415162,0.920281,0.391220,-0.005043,-0.001793
6336,0.073210,7.124886,6.893709,20.800230,-3.453249,-0.611128,46.718472,-0.505642,-0.502391,0.918027,0.396469,-0.005789,-0.002275
6337,0.082239,7.180399,6.800956,22.341148,-3.927774,-1.010959,47.427895,-0.567485,-0.610748,0.915551,0.402136,-0.006677,-0.002888
6338,0.075996,7.275466,6.697471,23.277859,-4.267954,-1.148398,48.181118,-0.626722,-0.735995,0.912883,0.408133,-0.007614,-0.003631
6339,0.099597,7.393989,6.587844,23.293175,-4.400598,-1.183618,48.961037,-0.686522,-0.869968,0.910079,0.414323,-0.008598,-0.004427
6340,0.119259,7.464980,6.516216,24.018024,-4.634035,-1.827592,49.752846,-0.744738,-1.016879,0.907187,0.420585,-0.009629,-0.005317
6341,0.104700,7.513787,6.360029,23.773804,-4.203644,-2.827167,50.548561,-0.774626,-1.179623,0.904235,0.426857,-0.010507,-0.006422
6342,0.112153,7.631640,6.265656,20.760164,-3.303193,-2.932643,51.295349,-0.769271,-1.337245,0.901425,0.432726,-0.011102,-0.007614
6343,0.134382,7.705606,6.213108,17.119204,-3.000989,-1.705882,51.924263,-0.769600,-1.467509,0.899027,0.437654,-0.011644,-0.008574
6344,0.132069,7.761231,6.151118,13.516027,-2.856023,-0.796424,52.417587,-0.796637,-1.569900,0.897127,0.441506,-0.012287,-0.009221
6345,0.142377,7.852046,6.111087,7.075932,-1.830608,-0.346251,52.734203,-0.829940,-1.643105,0.895897,0.443970,-0.012856,-0.009630
6346,0.170189,7.946147,6.178492,1.343604,-1.171495,0.464150,52.837055,-0.868142,-1.681226,0.895495,0.444765,-0.013311,-0.009768
6347,0.185188,7.925272,6.181343,-0.722276,-1.022123,0.627679,52.795551,-0.916981,-1.698567,0.895655,0.444431,-0.013757,-0.009719
6348,0.178574,7.891346,6.174313,-2.489556,-0.758301,0.209836,52.670879,-0.958298,-1.712588,0.896136,0.443449,-0.014123,-0.009684
6349,0.181167,7.862578,6.180814,-3.713655,-0.291468,-0.037182,52.494347,-0.979405,-1.723503,0.896817,0.442063,-0.014316,-0.009709
6350,0.180389,7.824735,6.163295,-3.712068,-0.212179,0.014816,52.312092,-0.989398,-1.729366,0.897519,0.440634,-0.014401,-0.009740
6351,0.167911,7.793412,6.195557,-4.218571,-0.323572,-0.059913,52.123173,-0.995589,-1.735898,0.898243,0.439152,-0.014459,-0.009791
6352,0.157946,7.779650,6.219026,-4.070490,-0.437932,0.097191,51.926777,-0.999757,-1.744517,0.898994,0.437610,-0.014507,-0.009867
6353,0.162273,7.765336,6.224079,-2.884834,-0.402715,0.029938,51.750477,-1.003539,-1.753193,0.899665,0.436225,-0.014555,-0.009943
6354,0.162672,7.730302,6.239471,-2.486664,-0.275940,-0.592750,51.596268,-0.996647,-1.766769,0.900250,0.435013,-0.014539,-0.010096
6355,0.163685,7.727177,6.272876,-2.782823,-0.245306,-0.733235,51.442562,-0.978761,-1.786178,0.900831,0.433805,-0.014458,-0.010335
6356,0.165396,7.701590,6.270678,-1.787971,-0.168927,-0.464733,51.303642,-0.963520,-1.802962,0.901355,0.432713,-0.014389,-0.010543
6357,0.163630,7.703160,6.283897,-2.300535,-0.072740,-0.338111,51.180454,-0.953351,-1.813552,0.901819,0.431744,-0.014338,-0.010680
6358,0.169323,7.707345,6.301102,-2.605391,0.000519,-0.330468,51.050934,-0.945463,-1.820686,0.902306,0.430725,-0.014290,-0.010782
6359,0.163637,7.690385,6.304773,-1.901469,-0.037630,-0.037462,50.933651,-0.942005,-1.824324,0.902746,0.429801,-0.014266,-0.010838
6360,0.157339,7.671283,6.303017,-1.215724,-0.046745,0.015920,50.844814,-0.940773,-1.825037,0.903079,0.429101,-0.014250,-0.010859
6361,0.153157,7.668711,6.296078,-1.176767,-0.063449,-0.196265,50.776363,-0.935077,-1.827895,0.903335,0.428562,-0.014210,-0.010912
6362,0.154424,7.657607,6.302394,-0.501360,0.041925,-0.330636,50.725357,-0.923530,-1.833355,0.903525,0.428161,-0.014134,-0.011004
6363,0.157509,7.649127,6.313194,-0.347856,-0.049577,-0.194878,50.686722,-0.913998,-1.838605,0.903669,0.427858,-0.014075,-0.011086
6364,0.159852,7.661105,6.322126,-0.766554,-0.102973,-0.210136,50.644405,-0.910105,-1.844470,0.903826,0.427524,-0.014062,-0.011152
6365,0.165203,7.659262,6.327048,-0.831169,-0.017555,-0.382512,50.596889,-0.906274,-1.851955,0.904002,0.427149,-0.014055,-0.011231
6366,0.171471,7.665433,6.326906,-1.130670,-0.132093,-0.147394,50.547516,-0.907270,-1.859220,0.904186,0.426758,-0.014085,-0.011291
6367,0.170921,7.658233,6.330647,-1.237808,-0.397727,0.072497,50.495232,-0.919937,-1.866620,0.904380,0.426342,-0.014207,-0.011308
6368,0.167001,7.648721,6.329153,-1.169427,-0.353569,-0.067767,50.443840,-0.934068,-1.876042,0.904570,0.425933,-0.014349,-0.011337
6369,0.170543,7.666789,6.340382,-0.901035,-0.265136,-0.168388,50.402676,-0.942193,-1.886384,0.904722,0.425606,-0.014447,-0.011393
6370,0.167885,7.659003,6.332639,-0.714900,-0.309447,-0.139325,50.374828,-0.948029,-1.897013,0.904824,0.425384,-0.014530,-0.011459
6372,0.159230,7.652032,6.358407,-0.978992,-0.210256,-0.023358,50.342400,-0.951193,-1.905342,0.904943,0.425126,-0.014583,-0.011517
6373,0.170734,7.649710,6.361031,-1.543819,-0.080549,0.007163,50.291077,-0.954123,-1.909090,0.905133,0.424720,-0.014615,-0.011542
6374,0.180165,7.644650,6.377481,-1.898102,-0.016548,0.121721,50.222980,-0.962541,-1.908778,0.905386,0.424180,-0.014673,-0.011517
6375,0.182894,7.621366,6.385779,-2.157895,-0.135705,0.506426,50.139835,-0.980902,-1.903754,0.905693,0.423521,-0.014791,-0.011420
6376,0.188485,7.612767,6.406024,-2.269789,-0.177055,0.784337,50.045795,-1.010532,-1.893596,0.906042,0.422774,-0.014979,-0.011243
6377,0.203211,7.605483,6.389077,-1.858161,-0.163530,0.709826,49.961884,-1.046552,-1.881662,0.906352,0.422106,-0.015211,-0.011027
6378,0.194672,7.595395,6.401237,-1.281567,-0.070637,0.589508,49.901173,-1.077521,-1.870545,0.906576,0.421622,-0.015410,-0.010833
6379,0.197523,7.593786,6.413223,-1.156652,-0.055484,0.533183,49.851891,-1.100041,-1.859928,0.906758,0.421230,-0.015544,-0.010673
6380,0.196046,7.578229,6.406002,-1.050016,0.010059,0.312015,49.807766,-1.115929,-1.851278,0.906920,0.420880,-0.015634,-0.010552
6381,0.189304,7.576845,6.409498,-1.314123,0.052779,0.032780,49.763424,-1.120073,-1.846671,0.907084,0.420529,-0.015646,-0.010506
6382,0.181020,7.571609,6.432737,-1.366192,0.034551,-0.216039,49.711220,-1.111831,-1.847389,0.907275,0.420117,-0.015578,-0.010549
6383,0.183997,7.591499,6.439734,-1.335841,-0.040113,-0.283301,49.659660,-1.099083,-1.852721,0.907464,0.419710,-0.015492,-0.010645
6384,0.174505,7.601329,6.457012,-0.931500,-0.178850,-0.233087,49.620792,-1.087405,-1.861057,0.907605,0.419403,-0.015427,-0.010759
6385,0.175864,7.598908,6.456560,-0.815506,-0.331303,0.056673,49.592804,-1.081990,-1.869463,0.907707,0.419181,-0.015412,-0.010849
6386,0.183905,7.591139,6.472269,-0.696507,-0.436507,0.239686,49.566814,-1.088905,-1.875991,0.907802,0.418973,-0.015488,-0.010879
6387,0.192902,7.585123,6.469313,-0.482966,-0.550946,0.404481,49.543690,-1.107440,-1.881486,0.907885,0.418786,-0.015653,-0.010858
6388,0.192750,7.581898,6.457750,-0.457016,-0.648622,0.583034,49.528454,-1.133983,-1.886024,0.907940,0.418660,-0.015878,-0.010799
6389,0.192665,7.563848,6.456345,-0.591271,-0.622663,0.496034,49.512180,-1.160278,-1.890488,0.907999,0.418526,-0.016101,-0.010741
6390,0.205454,7.568790,6.462590,-0.322729,-0.415136,0.135915,49.496265,-1.179433,-1.896786,0.908056,0.418396,-0.016274,-0.010723
6391,0.212176,7.571977,6.467284,-0.109102,-0.364832,0.076464,49.489136,-1.193744,-1.904370,0.908081,0.418336,-0.016415,-0.010732
6392,0.210807,7.577986,6.464835,-0.324199,-0.280955,-0.030295,49.484375,-1.204313,-1.912102,0.908097,0.418295,-0.016526,-0.010755
6393,0.221463,7.582356,6.478394,-0.325665,-0.416834,0.096439,49.476120,-1.217030,-1.920278,0.908126,0.418226,-0.016656,-0.010774
6394,0.223936,7.572598,6.457253,-0.041750,-0.725185,0.531459,49.473873,-1.244343,-1.928027,0.908133,0.418203,-0.016901,-0.010736
6395,0.217922,7.567928,6.454865,-0.212487,-1.006026,0.780261,49.476486,-1.283846,-1.935900,0.908122,0.418216,-0.017243,-0.010654
6396,0.222720,7.574317,6.456744,-0.577006,-0.964837,0.772637,49.470612,-1.325304,-1.944208,0.908141,0.418160,-0.017601,-0.010569
6397,0.230987,7.569449,6.470522,-0.656251,-1.030455,0.920652,49.454338,-1.368444,-1.951232,0.908199,0.418023,-0.017967,-0.010470
6398,0.235297,7.541965,6.455843,-0.694415,-1.013662,0.938956,49.431335,-1.413781,-1.956949,0.908280,0.417831,-0.018345,-0.010354
6399,0.250783,7.542595,6.470703,-0.805901,-0.690182,0.714667,49.402691,-1.454239,-1.960496,0.908383,0.417596,-0.018676,-0.010239
6400,0.258561,7.549860,6.489987,-0.952568,-0.360631,0.552984,49.366222,-1.484938,-1.959854,0.908515,0.417302,-0.018914,-0.010128
6401,0.264713,7.550883,6.486241,-1.044266,-0.305754,0.661394,49.327095,-1.511120,-1.954944,0.908657,0.416988,-0.019100,-0.010000
6402,0.275197,7.558569,6.491715,-1.134313,-0.217339,0.637084,49.289890,-1.538681,-1.947421,0.908791,0.416689,-0.019288,-0.009846
6403,0.282842,7.544569,6.516228,-1.134428,-0.156428,0.457176,49.247292,-1.564440,-1.940110,0.908946,0.416347,-0.019462,-0.009702
6404,0.286070,7.530878,6.496436,-1.178851,-0.328993,0.431398,49.201809,-1.589417,-1.936371,0.909110,0.415983,-0.019643,-0.009589
6405,0.295258,7.529800,6.483470,-1.258151,-0.399345,0.376650,49.163143,-1.617329,-1.936803,0.909249,0.415671,-0.019862,-0.009498
6406,0.306274,7.531404,6.499814,-0.723939,-0.335470,0.352477,49.135651,-1.647465,-1.938267,0.909347,0.415447,-0.020104,-0.009405
6407,0.298742,7.509636,6.503222,-0.003685,-0.497401,0.580049,49.124233,-1.679355,-1.938610,0.909386,0.415350,-0.020358,-0.009294
6408,0.294909,7.527825,6.501785,0.173362,-0.596663,0.758671,49.128590,-1.712854,-1.937843,0.909369,0.415378,-0.020621,-0.009165
6409,0.293101,7.545423,6.510387,0.359700,-0.314364,0.517562,49.144474,-1.738406,-1.935620,0.909310,0.415500,-0.020817,-0.009052
6410,0.300115,7.552173,6.507727,0.538466,-0.260926,0.662481,49.168610,-1.757438,-1.930290,0.909222,0.415689,-0.020951,-0.008936
6411,0.301524,7.524184,6.512397,0.514125,-0.404336,0.609037,49.188900,-1.778925,-1.924912,0.909147,0.415847,-0.021103,-0.008812
6412,0.311246,7.541642,6.502531,-0.117613,-0.231898,0.238228,49.195309,-1.796017,-1.923704,0.909123,0.415895,-0.021235,-0.008739
6413,0.314904,7.539484,6.483201,-0.150989,0.019852,-0.085245,49.198624,-1.801718,-1.924956,0.909110,0.415920,-0.021285,-0.008727
6414,0.317573,7.535129,6.502419,-0.352259,0.064064,-0.166081,49.196358,-1.799819,-1.926826,0.909119,0.415902,-0.021276,-0.008750
6415,0.301350,7.525131,6.515283,-0.233328,0.193803,-0.495716,49.183048,-1.786668,-1.930668,0.909168,0.415798,-0.021185,-0.008830
6416,0.301469,7.553278,6.495578,-0.390449,0.392269,-0.558393,49.174770,-1.761035,-1.934825,0.909199,0.415736,-0.020996,-0.008958
6417,0.295470,7.530338,6.493474,0.009564,0.354208,-0.408963,49.177273,-1.735085,-1.936224,0.909191,0.415761,-0.020796,-0.009063
6418,0.296968,7.522998,6.488096,-0.087970,0.310020,-0.496020,49.181046,-1.712343,-1.937859,0.909179,0.415795,-0.020621,-0.009158
6419,0.294014,7.535925,6.497652,-0.039018,0.265800,-0.451811,49.183891,-1.691980,-1.941070,0.909169,0.415821,-0.020472,-0.009257
6420,0.303101,7.535357,6.491312,0.074053,-0.015001,-0.021471,49.190697,-1.684964,-1.943246,0.909145,0.415875,-0.020425,-0.009298
6421,0.299595,7.519353,6.475379,0.075765,-0.288226,0.012188,49.200737,-1.693046,-1.947393,0.909108,0.415953,-0.020504,-0.009300
6422,0.308783,7.518510,6.513385,-0.253870,-0.273072,-0.224207,49.196648,-1.702947,-1.956746,0.909121,0.415917,-0.020617,-0.009339
6423,0.312386,7.525685,6.531268,0.014376,-0.280839,0.201700,49.180187,-1.717577,-1.963603,0.909179,0.415782,-0.020756,-0.009343
6424,0.298102,7.527503,6.513773,0.015651,-0.555574,0.560382,49.170700,-1.740821,-1.965549,0.909212,0.415702,-0.020947,-0.009276
6425,0.296337,7.539243,6.499615,-0.269680,-0.529603,0.291783,49.167290,-1.761498,-1.969973,0.909223,0.415670,-0.021127,-0.009236
6426,0.291323,7.521512,6.524509,-0.284993,-0.180066,0.013952,49.156090,-1.767026,-1.975525,0.909263,0.415579,-0.021190,-0.009263
6427,0.284486,7.542130,6.495537,-0.185806,-0.037979,-0.004563,49.148357,-1.758746,-1.978176,0.909291,0.415519,-0.021133,-0.009315
6428,0.286264,7.548762,6.490252,-0.370104,-0.144604,-0.258103,49.152809,-1.745347,-1.983761,0.909275,0.415556,-0.021047,-0.009407
6429,0.306185,7.525781,6.494764,-0.276753,0.142340,-0.586269,49.153122,-1.730087,-1.993328,0.909274,0.415560,-0.020961,-0.009538
6430,0.311766,7.497477,6.492883,-0.098211,0.293334,-0.644171,49.147457,-1.714285,-2.001264,0.909295,0.415516,-0.020864,-0.009660
6431,0.311976,7.518939,6.516093,-0.270772,-0.039440,-0.386142,49.136227,-1.706131,-2.009140,0.909336,0.415427,-0.020827,-0.009754
6432,0.307936,7.511099,6.504349,-0.130498,-0.216567,-0.151005,49.125408,-1.709688,-2.018096,0.909374,0.415339,-0.020887,-0.009814
6433,0.298408,7.503144,6.507931,0.014353,-0.189164,0.004718,49.119167,-1.716281,-2.024673,0.909396,0.415287,-0.020962,-0.009843
6434,0.295243,7.527495,6.486849,0.165500,-0.199844,0.084061,49.125542,-1.721482,-2.028706,0.909372,0.415336,-0.021019,-0.009855
6435,0.298579,7.545141,6.521813,0.168755,-0.122010,0.171015,49.139294,-1.727153,-2.030226,0.909322,0.415444,-0.021070,-0.009844
6436,0.307605,7.525527,6.487800,0.681630,-0.122046,0.381627,49.159924,-1.738751,-2.027474,0.909246,0.415606,-0.021154,-0.009777
6437,0.309929,7.524682,6.493870,0.596355,-0.213682,0.477844,49.188145,-1.757916,-2.022557,0.909143,0.415827,-0.021291,-0.009663
6438,0.309701,7.537040,6.497693,0.321803,-0.236632,0.438236,49.207947,-1.777973,-2.018401,0.909070,0.415981,-0.021436,-0.009553
6439,0.313557,7.536353,6.505477,0.100592,-0.219889,0.465750,49.216774,-1.796882,-2.014377,0.909038,0.416048,-0.021573,-0.009451
6440,0.315407,7.528618,6.492515,0.106696,-0.296223,0.455112,49.220135,-1.816435,-2.010865,0.909025,0.416071,-0.021715,-0.009351
6441,0.315657,7.542604,6.494776,-0.169423,-0.139071,0.159100,49.221970,-1.829939,-2.009764,0.909017,0.416083,-0.021818,-0.009293
6442,0.325016,7.557168,6.488043,-0.405717,-0.068916,0.165236,49.221348,-1.838248,-2.009145,0.909019,0.416077,-0.021882,-0.009258
6443,0.327931,7.539635,6.485847,-0.152155,-0.046107,0.136322,49.222313,-1.847772,-2.007643,0.909015,0.416083,-0.021952,-0.009212
6444,0.322949,7.527610,6.494220,-0.223789,-0.017167,-0.051309,49.219448,-1.852686,-2.007625,0.909025,0.416059,-0.021991,-0.009194
6445,0.318209,7.534718,6.491707,-0.254275,-0.027844,0.034136,49.212807,-1.852591,-2.008422,0.909049,0.416006,-0.021992,-0.009202
6446,0.303669,7.544979,6.500939,-0.356424,-0.194068,0.185081,49.206203,-1.851460,-2.008951,0.909073,0.415954,-0.021985,-0.009212
6447,0.304530,7.541979,6.502408,-0.368549,-0.109977,0.055180,49.197430,-1.847504,-2.010279,0.909105,0.415885,-0.021958,-0.009238
6448,0.311657,7.535094,6.496890,-0.156369,0.144976,-0.022788,49.191715,-1.839875,-2.009584,0.909126,0.415841,-0.021894,-0.009261
6449,0.321366,7.539903,6.509225,-0.405047,0.122123,-0.064032,49.184196,-1.833604,-2.007221,0.909154,0.415783,-0.021835,-0.009267
6450,0.326302,7.525308,6.522363,-0.714931,0.190751,-0.346277,49.160732,-1.827575,-2.007592,0.909240,0.415598,-0.021787,-0.009296
6451,0.326471,7.502689,6.516033,-0.716750,0.297493,-0.250046,49.125114,-1.819594,-2.007561,0.909369,0.415317,-0.021720,-0.009332
6452,0.321544,7.490753,6.503319,-0.492719,0.195188,-0.185865,49.093719,-1.813279,-2.005750,0.909484,0.415070,-0.021661,-0.009346
6453,0.321334,7.502005,6.515459,-1.162796,0.214968,-0.420783,49.058338,-1.804958,-2.006958,0.909612,0.414790,-0.021597,-0.009393
6454,0.317506,7.491353,6.517102,-0.653321,0.256118,-0.251339,49.020721,-1.794626,-2.008137,0.909749,0.414494,-0.021516,-0.009446
6455,0.320135,7.498573,6.527495,-0.508534,0.109572,-0.081885,48.994312,-1.790250,-2.006957,0.909845,0.414285,-0.021475,-0.009458
6456,0.324769,7.492323,6.519641,-0.363675,0.033169,-0.354899,48.975693,-1.789816,-2.009809,0.909912,0.414137,-0.021480,-0.009486
6457,0.319779,7.467182,6.516114,-0.116610,0.197857,-0.519564,48.962490,-1.783340,-2.016304,0.909959,0.414032,-0.021451,-0.009563
6458,0.315671,7.471974,6.513619,0.092283,0.164209,-0.574400,48.955959,-1.770574,-2.023528,0.909983,0.413981,-0.021375,-0.009668
6459,0.304467,7.488895,6.517594,-0.257192,0.185551,-0.777322,48.951958,-1.751090,-2.033881,0.909998,0.413951,-0.021258,-0.009821
6460,0.288990,7.489302,6.518156,-0.141192,0.368742,-0.783519,48.946869,-1.720513,-2.044041,0.910017,0.413915,-0.021051,-0.010014
6461,0.298154,7.513204,6.532967,-0.017518,0.558028,-0.646271,48.947311,-1.687944,-2.048135,0.910017,0.413924,-0.020807,-0.010164
6462,0.299823,7.542659,6.546666,-0.343889,0.516803,-0.597420,48.948353,-1.661864,-2.048448,0.910014,0.413937,-0.020601,-0.010260
6463,0.292270,7.537892,6.551481,-0.157536,0.406894,-0.255573,48.947567,-1.643330,-2.046398,0.910018,0.413935,-0.020447,-0.010311
6464,0.307621,7.524020,6.539380,0.025717,0.222140,0.246585,48.950840,-1.643262,-2.038751,0.910007,0.413962,-0.020419,-0.010250
6465,0.313438,7.522539,6.527800,0.131201,0.028111,0.573396,48.960918,-1.665002,-2.026852,0.909971,0.414040,-0.020549,-0.010075
6466,0.306663,7.513828,6.515406,0.082632,-0.092658,0.692659,48.974525,-1.694645,-2.014110,0.909921,0.414145,-0.020740,-0.009864
6467,0.312545,7.509833,6.527331,0.278124,-0.236267,0.915634,48.987095,-1.728750,-2.000853,0.909875,0.414241,-0.020964,-0.009633
6469,0.318885,7.496552,6.524585,0.505498,-0.289850,1.008917,49.000088,-1.769387,-1.986429,0.909827,0.414339,-0.021235,-0.009369
6470,0.317681,7.506935,6.531649,0.578683,-0.286934,1.067062,49.015297,-1.810220,-1.970912,0.909770,0.414454,-0.021505,-0.009096
6471,0.319121,7.514128,6.524307,0.511531,-0.309893,1.010685,49.032574,-1.847173,-1.955696,0.909707,0.414587,-0.021744,-0.008838
6472,0.321182,7.514154,6.505547,0.496397,-0.267195,0.963406,49.053913,-1.879837,-1.941548,0.909628,0.414753,-0.021954,-0.008603
6473,0.318342,7.510499,6.506588,0.177635,0.065487,0.707008,49.070877,-1.901010,-1.926039,0.909567,0.414887,-0.022067,-0.008400
6474,0.320091,7.520149,6.500331,0.153385,0.357018,0.593991,49.082348,-1.907703,-1.906722,0.909526,0.414980,-0.022051,-0.008220
6475,0.320886,7.502615,6.487011,0.078813,0.546318,0.361940,49.093460,-1.904320,-1.885162,0.909488,0.415073,-0.021947,-0.008059
6476,0.320491,7.501296,6.499419,-0.085900,0.842436,-0.031854,49.096111,-1.887846,-1.864169,0.909481,0.415101,-0.021740,-0.007952
6477,0.320039,7.508962,6.515299,0.165823,0.915762,-0.039576,49.094563,-1.862814,-1.842719,0.909490,0.415098,-0.021464,-0.007872
6478,0.324760,7.532146,6.505811,0.410026,0.705215,0.120610,49.105648,-1.844251,-1.821472,0.909452,0.415193,-0.021240,-0.007769
6479,0.319091,7.532520,6.524987,0.086631,0.537364,-0.221205,49.117504,-1.829216,-1.807037,0.909411,0.415293,-0.021069,-0.007707
6480,0.315799,7.536934,6.532991,0.194919,0.490082,-0.428753,49.119900,-1.808515,-1.801110,0.909404,0.415316,-0.020884,-0.007735
6481,0.316609,7.544939,6.509971,0.349105,0.273403,-0.114419,49.131618,-1.793116,-1.797497,0.909363,0.415413,-0.020749,-0.007760
6482,0.315060,7.515371,6.513386,-0.041475,0.326782,-0.482137,49.138981,-1.780685,-1.796508,0.909337,0.415474,-0.020648,-0.007796
6483,0.314347,7.492123,6.519332,-0.150081,0.398464,-0.683503,49.125217,-1.760766,-1.799749,0.909388,0.415368,-0.020500,-0.007896
6484,0.325601,7.521586,6.507779,-0.202162,0.128260,-0.233212,49.111485,-1.750791,-1.802865,0.909439,0.415260,-0.020432,-0.007959
6485,0.318372,7.526552,6.505346,-0.353155,-0.114525,-0.051443,49.105255,-1.756876,-1.805887,0.909460,0.415209,-0.020490,-0.007962
6486,0.309626,7.492575,6.513581,-0.260144,-0.062734,-0.239024,49.092411,-1.760734,-1.811206,0.909506,0.415105,-0.020539,-0.007993
6487,0.308762,7.510543,6.505812,-0.341141,-0.168060,-0.061969,49.077618,-1.761888,-1.817248,0.909560,0.414986,-0.020569,-0.008039
6488,0.309065,7.535659,6.501661,-0.324177,-0.181826,0.000624,49.073822,-1.766727,-1.822545,0.909573,0.414954,-0.020627,-0.008065
6489,0.304257,7.503268,6.509603,-0.104298,0.112670,-0.353389,49.072704,-1.763261,-1.827451,0.909577,0.414945,-0.020617,-0.008116
6490,0.308607,7.509057,6.526900,-0.125770,0.254584,-0.419000,49.064602,-1.749578,-1.831127,0.909607,0.414883,-0.020521,-0.008196
6491,0.316291,7.528383,6.506629,-0.035704,0.129388,-0.185455,49.063431,-1.741996,-1.832939,0.909611,0.414875,-0.020467,-0.008239
6492,0.307502,7.527831,6.518401,0.060612,0.147614,-0.238773,49.071190,-1.738520,-1.834306,0.909583,0.414937,-0.020445,-0.008261
6493,0.297858,7.522704,6.527396,-0.018701,0.204072,-0.310492,49.073330,-1.727824,-1.835919,0.909576,0.414955,-0.020366,-0.008312
6494,0.305540,7.523942,6.516928,0.107962,0.062156,0.072519,49.075283,-1.722161,-1.835179,0.909569,0.414972,-0.020319,-0.008326
6495,0.304685,7.503184,6.496235,0.219439,0.066678,0.008492,49.084049,-1.725105,-1.832773,0.909537,0.415041,-0.020334,-0.008295
6496,0.301981,7.488775,6.506945,0.130895,0.197863,-0.250863,49.088245,-1.721898,-1.832038,0.909523,0.415075,-0.020306,-0.008300
6497,0.307839,7.492767,6.512585,0.179530,0.185601,-0.087517,49.085583,-1.717080,-1.830667,0.909533,0.415055,-0.020263,-0.008307
6498,0.316692,7.482483,6.515662,0.240292,0.045087,0.095756,49.081520,-1.722932,-1.827340,0.909547,0.415023,-0.020297,-0.008260
6499,0.307263,7.482631,6.512599,0.262868,0.092264,-0.142129,49.077309,-1.728965,-1.825739,0.909562,0.414988,-0.020339,-0.008226
6500,0.298019,7.504828,6.516837,0.096338,0.147170,-0.174131,49.075146,-1.724352,-1.825931,0.909570,0.414972,-0.020303,-0.008245
6501,0.293893,7.506971,6.535315,-0.059511,0.171625,-0.270303,49.067604,-1.713046,-1.826523,0.909598,0.414914,-0.020215,-0.008292
6502,0.292195,7.505329,6.521309,-0.088717,0.212882,-0.261202,49.056587,-1.699018,-1.827230,0.909639,0.414829,-0.020105,-0.008350
6503,0.293007,7.520095,6.516951,-0.129947,0.258695,-0.291761,49.051762,-1.684798,-1.827298,0.909657,0.414793,-0.019992,-0.008403
6504,0.297496,7.523101,6.518592,-0.276346,0.356340,-0.329896,49.048519,-1.670984,-1.826451,0.909670,0.414770,-0.019879,-0.008447
6505,0.302532,7.504125,6.520535,-0.125276,0.322689,-0.152796,49.041889,-1.662447,-1.823180,0.909694,0.414720,-0.019799,-0.008453
6506,0.295239,7.509525,6.513763,-0.042898,0.173057,0.021265,49.038094,-1.660915,-1.818350,0.909709,0.414691,-0.019769,-0.008421
6507,0.297888,7.517372,6.513551,-0.164880,0.040224,0.024403,49.038227,-1.663819,-1.815273,0.909708,0.414692,-0.019781,-0.008386
6508,0.290292,7.505921,6.511150,-0.204460,0.116466,-0.012160,49.035774,-1.665465,-1.813275,0.909717,0.414672,-0.019787,-0.008365
6509,0.284475,7.505669,6.524422,-0.390640,0.177517,-0.137303,49.025108,-1.659502,-1.811188,0.909756,0.414589,-0.019731,-0.008371
6510,0.280805,7.499797,6.527020,-0.534193,0.172998,-0.343364,49.005070,-1.646189,-1.811898,0.909830,0.414432,-0.019627,-0.008429
6511,0.281764,7.506751,6.520031,-0.618168,0.205097,-0.305277,48.983967,-1.630663,-1.814181,0.909907,0.414267,-0.019510,-0.008507
6512,0.269192,7.516562,6.526167,-0.640971,0.447803,-0.587673,48.966484,-1.607064,-1.815841,0.909971,0.414132,-0.019327,-0.008608
6513,0.275483,7.511741,6.535451,-0.538659,0.571486,-0.751046,48.949844,-1.573889,-1.817765,0.910033,0.414005,-0.019070,-0.008746
6514,0.263708,7.498816,6.533340,-0.401332,0.487624,-0.639727,48.933998,-1.540952,-1.819675,0.910091,0.413885,-0.018814,-0.008883
6515,0.264109,7.516662,6.521014,-0.532425,0.403757,-0.551297,48.923950,-1.512442,-1.821665,0.910129,0.413810,-0.018594,-0.009004
6516,0.272723,7.513944,6.524912,-0.512302,0.420506,-0.613830,48.918034,-1.490613,-1.824374,0.910151,0.413766,-0.018430,-0.009105
6517,0.271207,7.485229,6.533748,-0.359621,0.366990,-0.490109,48.907093,-1.474636,-1.826668,0.910191,0.413682,-0.018310,-0.009183
6518,0.263982,7.493949,6.518775,-0.261913,0.144105,-0.357241,48.898731,-1.464432,-1.829581,0.910222,0.413617,-0.018239,-0.009244
6519,0.269888,7.499536,6.519351,-0.200658,0.101261,-0.248773,48.899849,-1.461088,-1.833364,0.910217,0.413625,-0.018226,-0.009286
6520,0.265207,7.494770,6.533135,-0.116579,0.166743,-0.213530,48.900730,-1.460255,-1.835220,0.910214,0.413632,-0.018227,-0.009304
6521,0.255754,7.508280,6.543898,-0.627705,0.046130,-0.022717,48.890675,-1.458834,-1.835195,0.910250,0.413553,-0.018214,-0.009310
6522,0.254291,7.514101,6.548316,-0.876352,-0.120209,0.233649,48.868744,-1.462962,-1.833893,0.910330,0.413378,-0.018241,-0.009288
6523,0.246307,7.494913,6.555687,-1.646953,0.006479,0.137475,48.826294,-1.466699,-1.831242,0.910482,0.413041,-0.018257,-0.009261
6524,0.245839,7.489236,6.577623,-2.800756,0.087439,0.035149,48.743950,-1.462840,-1.827963,0.910780,0.412387,-0.018208,-0.009262
6525,0.248394,7.474761,6.598068,-4.493323,0.040208,0.068649,48.609669,-1.458702,-1.824907,0.911263,0.411321,-0.018153,-0.009273
6526,0.255111,7.453736,6.618966,-6.376684,0.278276,-0.299113,48.413689,-1.451243,-1.823105,0.911965,0.409763,-0.018072,-0.009317
6527,0.265768,7.459784,6.656380,-9.573847,0.719227,-1.069645,48.134003,-1.426103,-1.825517,0.912964,0.407540,-0.017857,-0.009470
6528,0.254237,7.397856,6.720302,-12.635360,0.796994,-1.470883,47.743736,-1.381578,-1.834580,0.914347,0.404435,-0.017502,-0.009760
6529,0.246927,7.327324,6.756967,-15.056239,0.580284,-1.229727,47.252121,-1.335454,-1.847305,0.916075,0.400514,-0.017136,-0.010098
6530,0.241785,7.252149,6.806094,-16.534138,0.418490,-0.662005,46.693607,-1.304598,-1.855879,0.918016,0.396049,-0.016869,-0.010357
6531,0.229344,7.170011,6.878361,-18.105194,0.175834,-0.091242,46.081127,-1.291491,-1.856547,0.920120,0.391138,-0.016710,-0.010497
6532,0.216275,7.042910,6.963736,-18.451237,-0.204087,0.351279,45.424507,-1.294072,-1.852811,0.922347,0.385860,-0.016658,-0.010554
6533,0.230449,6.990403,7.023041,-18.060307,-0.356658,0.612230,44.766579,-1.311949,-1.847020,0.924547,0.380556,-0.016722,-0.010543
6534,0.232979,6.934390,7.112630,-17.626402,-0.162896,0.206396,44.132305,-1.330299,-1.842439,0.926639,0.375430,-0.016797,-0.010538
6535,0.232899,6.855832,7.197284,-17.639565,0.101075,-0.950212,43.506622,-1.324078,-1.851178,0.928674,0.370365,-0.016717,-0.010721
6536,0.228367,6.781878,7.270037,-17.086611,0.235369,-1.649066,42.890236,-1.290439,-1.877988,0.930652,0.365366,-0.016471,-0.011136
6537,0.225170,6.738629,7.319245,-16.957611,0.336093,-1.949664,42.295502,-1.242729,-1.915034,0.932534,0.360534,-0.016141,-0.011673
6538,0.218117,6.691562,7.399361,-17.969698,0.758770,-2.325024,41.698265,-1.182082,-1.955408,0.934398,0.355673,-0.015711,-0.012274
6539,0.204793,6.626766,7.474343,-19.511171,1.335572,-2.590529,41.062778,-1.101818,-1.993541,0.936354,0.350495,-0.015104,-0.012919
6540,0.191377,6.530805,7.553132,-20.715460,1.778103,-2.576798,40.379715,-1.005890,-2.024683,0.938425,0.344919,-0.014335,-0.013552
6541,0.170900,6.436609,7.620703,-21.884701,2.124512,-2.785862,39.654842,-0.897569,-2.051031,0.940587,0.338992,-0.013438,-0.014180
6542,0.157321,6.333268,7.709990,-23.052454,2.414456,-2.393705,38.889381,-0.783670,-2.069699,0.942829,0.332718,-0.012460,-0.014754
6543,0.131114,6.206357,7.774640,-23.237600,2.535025,-2.064112,38.097622,-0.672039,-2.076226,0.945104,0.326214,-0.011456,-0.015211
6544,0.111420,6.087873,7.862164,-22.986418,2.380955,-1.675030,37.303417,-0.566926,-2.075162,0.947342,0.319673,-0.010478,-0.015575
6545,0.088166,6.016233,7.934091,-22.304777,2.219276,-1.028085,36.530609,-0.475220,-2.064985,0.949476,0.313293,-0.009585,-0.015812
6546,0.090454,5.914502,8.027156,-21.761808,2.214711,-0.442136,35.785576,-0.400559,-2.041125,0.951496,0.307127,-0.008798,-0.015876
6547,0.095102,5.812080,8.097973,-20.613035,2.074182,-0.197882,35.069195,-0.343306,-2.008267,0.953400,0.301184,-0.008136,-0.015808
6548,0.095350,5.691123,8.176466,-19.616932,1.722952,0.257035,34.385479,-0.305033,-1.971197,0.955185,0.295498,-0.007627,-0.015646
6549,0.089328,5.622538,8.221826,-19.182274,1.530367,0.289302,33.729317,-0.280740,-1.933084,0.956866,0.290030,-0.007238,-0.015432
6550,0.091298,5.589211,8.345574,-20.181698,1.580374,0.347523,33.075447,-0.260130,-1.895515,0.958510,0.284571,-0.006884,-0.015210
6551,0.078890,5.492955,8.412573,-22.717648,1.738734,1.043566,32.365837,-0.242240,-1.845937,0.960260,0.278635,-0.006519,-0.014881
6552,0.053180,5.364425,8.460608,-24.281649,1.889602,0.909413,31.585228,-0.217643,-1.786175,0.962143,0.272094,-0.006069,-0.014481
6553,0.040296,5.274861,8.520593,-25.366405,1.979572,0.477613,30.764593,-0.177227,-1.732968,0.964072,0.265205,-0.005502,-0.014170
6554,0.036677,5.133327,8.596292,-24.835148,1.688083,0.524937,29.937374,-0.134604,-1.687658,0.965966,0.258246,-0.004939,-0.013924
6555,0.031391,4.943378,8.591939,-22.794930,1.453026,0.349493,29.145596,-0.099221,-1.649156,0.967731,0.251572,-0.004459,-0.013710
6556,0.020682,4.843503,8.652590,-18.966318,1.216453,-0.535512,28.452213,-0.061248,-1.630410,0.969237,0.245717,-0.004014,-0.013660
6557,0.025589,4.798988,8.732074,-15.859128,0.647195,-0.506472,27.888069,-0.029611,-1.631021,0.970434,0.240946,-0.003681,-0.013751
6558,0.022559,4.718152,8.764502,-13.378800,0.393738,-0.013517,27.428787,-0.017192,-1.630625,0.971392,0.237056,-0.003519,-0.013788
6559,0.021980,4.649416,8.806586,-12.444176,0.819297,0.000307,27.028763,-0.006982,-1.621539,0.972214,0.233665,-0.003366,-0.013744
6560,0.027249,4.618256,8.863994,-12.325839,0.895377,-0.094189,26.649469,0.009524,-1.609968,0.972983,0.230448,-0.003157,-0.013690
6561,0.035732,4.574508,8.892929,-12.590353,0.863028,-0.049784,26.274076,0.023201,-1.598974,0.973734,0.227261,-0.002974,-0.013634
6562,0.024812,4.486923,8.913541,-13.585829,1.433406,-0.106084,25.875978,0.044475,-1.584377,0.974519,0.223880,-0.002717,-0.013562
6563,0.023219,4.424611,8.978728,-15.085059,1.782555,-0.481320,25.428274,0.084161,-1.569871,0.975386,0.220076,-0.002299,-0.013525
6564,0.007034,4.338829,9.005386,-16.000000,1.542729,-0.554442,24.934752,0.130349,-1.561775,0.976324,0.215879,-0.001832,-0.013553
6565,-0.009535,4.240047,9.021343,-16.989824,1.716516,-0.673382,24.405025,0.180758,-1.557593,0.977311,0.211369,-0.001331,-0.013618
6566,-0.017585,4.124952,9.061593,-17.654839,1.753006,-0.157558,23.839272,0.233379,-1.546509,0.978342,0.206547,-0.000795,-0.013625
6567,-0.017012,4.023491,9.097267,-17.570829,1.328615,0.213324,23.255657,0.272010,-1.525068,0.979382,0.201566,-0.000358,-0.013514
6568,-0.021096,3.929388,9.115729,-17.634840,1.123896,0.242423,22.672117,0.295964,-1.502035,0.980397,0.196579,-0.000044,-0.013359
6569,-0.025225,3.855824,9.176438,-18.000891,1.146525,0.418016,22.085176,0.315478,-1.477310,0.981393,0.191557,0.000233,-0.013180
6570,-0.025812,3.762530,9.218219,-17.993038,0.665583,0.799612,21.494375,0.324069,-1.447091,0.982371,0.186495,0.000423,-0.012934
6572,-0.033529,3.668724,9.273126,-17.924175,0.631754,0.523525,20.903772,0.325059,-1.418574,0.983322,0.181430,0.000544,-0.012688
6573,-0.041533,3.572622,9.316586,-17.823307,0.831460,0.325229,20.314404,0.334743,-1.396615,0.984244,0.176371,0.000726,-0.012512
6574,-0.042433,3.465429,9.368997,-16.904644,0.851141,0.505348,19.738031,0.349683,-1.373911,0.985120,0.171419,0.000951,-0.012335
6575,-0.032011,3.360562,9.389675,-15.952526,0.989773,0.604614,19.188288,0.362797,-1.346180,0.985934,0.166692,0.001164,-0.012111
6576,-0.035254,3.273294,9.435249,-14.911938,1.494566,0.496375,18.670298,0.383766,-1.315302,0.986680,0.162236,0.001443,-0.011869
6577,-0.041934,3.184206,9.445699,-14.449673,1.678934,0.177549,18.177519,0.419019,-1.287828,0.987369,0.157994,0.001835,-0.011675
6578,-0.055585,3.082455,9.478705,-14.558205,1.849621,-0.121463,17.686562,0.465608,-1.268789,0.988037,0.153766,0.002313,-0.011565
6579,-0.060567,3.007725,9.507469,-14.294496,1.902835,0.089176,17.194798,0.517301,-1.250564,0.988687,0.149529,0.002832,-0.011465
6580,-0.068181,2.923347,9.528496,-13.887328,1.843106,0.023627,16.715158,0.567350,-1.230571,0.989303,0.145393,0.003337,-0.011344
6581,-0.076823,2.823148,9.553276,-13.962465,1.610939,-0.212827,16.236494,0.614042,-1.217330,0.989901,0.141263,0.003804,-0.011273
6582,-0.081729,2.752370,9.581188,-13.221297,1.026266,0.090901,15.766278,0.646744,-1.207270,0.990471,0.137202,0.004145,-0.011210
6583,-0.075734,2.701510,9.598166,-12.324292,0.533071,0.365656,15.331117,0.656391,-1.193002,0.990986,0.133440,0.004288,-0.011082
6584,-0.086721,2.614070,9.606364,-11.965843,0.044440,0.097185,14.920593,0.649831,-1.183021,0.991459,0.129888,0.004282,-0.010972
6585,-0.080671,2.559832,9.622747,-11.898828,-0.569292,-0.044644,14.517878,0.628298,-1.184374,0.991910,0.126401,0.004133,-0.010945
6586,-0.074097,2.492231,9.623868,-11.192347,-0.810739,0.094307,14.132109,0.591308,-1.189194,0.992332,0.123058,0.003844,-0.010933
6587,-0.066074,2.420319,9.637074,-10.919237,-0.737868,-0.372531,13.762230,0.551942,-1.199839,0.992725,0.119852,0.003527,-0.010972
6588,-0.063582,2.358192,9.650158,-10.879622,-0.828258,-0.624219,13.396307,0.515650,-1.222038,0.993102,0.116679,0.003225,-0.011116
6589,-0.055241,2.314741,9.671861,-10.643073,-0.695851,-0.778254,13.038587,0.481925,-1.250502,0.993461,0.113576,0.002939,-0.011319
6590,-0.056697,2.251091,9.677405,-10.397287,-0.526795,-0.694251,12.692156,0.454314,-1.278838,0.993798,0.110570,0.002707,-0.011529
6591,-0.054874,2.199331,9.710576,-10.548236,-0.330218,-0.729285,12.347578,0.434505,-1.304984,0.994124,0.107580,0.002545,-0.011730
6592,-0.051125,2.164076,9.735188,-10.503746,-0.074119,-0.170737,12.006138,0.420608,-1.320927,0.994439,0.104616,0.002445,-0.011848
6593,-0.045616,2.109742,9.756021,-10.137166,0.107193,0.253531,11.676437,0.409617,-1.319290,0.994737,0.101753,0.002385,-0.011817
6594,-0.043521,2.067737,9.751578,-9.652988,0.369360,0.455018,11.365129,0.403098,-1.305931,0.995011,0.099050,0.002372,-0.011688
6595,-0.048130,2.014218,9.783673,-9.188578,0.791780,0.560364,11.072382,0.408040,-1.285352,0.995263,0.096508,0.002462,-0.011508
6596,-0.047895,1.984288,9.797003,-8.751558,0.890726,0.703853,10.797779,0.421802,-1.259114,0.995493,0.094123,0.002631,-0.011285
6597,-0.047704,1.926810,9.798586,-8.744795,1.003386,0.238500,10.532751,0.439355,-1.237596,0.995710,0.091821,0.002826,-0.011106
6598,-0.051438,1.881206,9.794527,-9.241620,1.441059,-0.528985,10.257995,0.469362,-1.234764,0.995926,0.089436,0.003116,-0.011098
6599,-0.061629,1.807557,9.808974,-9.968996,1.654449,-1.030966,9.957277,0.515010,-1.251090,0.996153,0.086827,0.003530,-0.011266
6600,-0.076318,1.739169,9.788503,-10.562299,1.426912,-1.647407,9.626039,0.566074,-1.286203,0.996394,0.083953,0.003980,-0.011599
6601,-0.092501,1.683322,9.801956,-11.761456,1.371878,-2.302010,9.262243,0.618839,-1.343374,0.996647,0.080797,0.004436,-0.012120
6602,-0.100565,1.602215,9.809109,-11.926131,1.423693,-2.324886,8.871668,0.674302,-1.412120,0.996906,0.077408,0.004913,-0.012741
6603,-0.109801,1.530899,9.821519,-11.448517,1.217619,-2.141763,8.481365,0.726027,-1.479054,0.997153,0.074020,0.005363,-0.013340
6604,-0.123759,1.469168,9.853223,-11.303565,1.303019,-2.240940,8.100818,0.776040,-1.545276,0.997382,0.070717,0.005802,-0.013929
6605,-0.138994,1.420164,9.877643,-11.097489,1.830996,-2.486614,7.729475,0.838916,-1.616083,0.997593,0.067496,0.006353,-0.014563
6606,-0.147663,1.341014,9.883213,-10.223060,1.730314,-2.239417,7.376002,0.909287,-1.686322,0.997782,0.064431,0.006971,-0.015195
6607,-0.156415,1.304611,9.877235,-10.041339,1.177929,-2.561385,7.042533,0.967392,-1.759546,0.997951,0.061539,0.007482,-0.015843
6608,-0.162886,1.242358,9.879913,-9.798459,0.730797,-2.610207,6.720695,1.007812,-1.841155,0.998105,0.058747,0.007837,-0.016554
6609,-0.155006,1.183284,9.881882,-9.580035,0.147757,-2.285165,6.405023,1.026222,-1.920388,0.998250,0.056005,0.008004,-0.017231
6610,-0.142019,1.148950,9.879426,-9.778090,-0.371358,-1.917377,6.093748,1.018001,-1.990167,0.998388,0.053297,0.007947,-0.017813
6611,-0.140918,1.084576,9.874293,-10.296529,-0.423624,-2.344587,5.773023,0.996658,-2.061861,0.998524,0.050504,0.007779,-0.018407
6612,-0.144843,0.999705,9.897798,-10.204814,-0.262219,-2.266726,5.436331,0.979005,-2.139279,0.998657,0.047572,0.007647,-0.019051
6613,-0.137870,0.942552,9.894081,-10.014072,-0.210661,-2.188872,5.098083,0.964967,-2.213878,0.998781,0.044627,0.007552,-0.019673
6614,-0.138423,0.903219,9.896212,-10.235217,-0.325433,-2.210203,4.763953,0.949198,-2.287546,0.998896,0.041717,0.007445,-0.020288
6615,-0.131260,0.828527,9.913747,-10.373954,-0.479887,-2.129298,4.424154,0.928108,-2.360566,0.999004,0.038756,0.007296,-0.020895
6616,-0.125147,0.784779,9.932156,-10.268566,-0.211700,-1.201503,4.083231,0.905663,-2.416640,0.999106,0.035783,0.007145,-0.021355
6617,-0.121545,0.758605,9.923967,-10.692414,0.138876,-0.513277,3.747752,0.890842,-2.444915,0.999202,0.032857,0.007070,-0.021576
6618,-0.126600,0.685467,9.930675,-11.877603,0.738221,-0.133290,3.389771,0.892281,-2.454378,0.999298,0.029736,0.007148,-0.021637
6619,-0.137070,0.591949,9.916723,-12.416040,1.566552,0.187173,2.993447,0.920675,-2.451120,0.999393,0.026285,0.007471,-0.021590
6620,-0.152661,0.505254,9.910618,-12.500010,2.076079,0.576291,2.576619,0.975394,-2.435417,0.999481,0.022658,0.008030,-0.021437
6621,-0.171874,0.426303,9.889968,-12.323177,2.005867,0.577815,2.156415,1.041810,-2.413470,0.999556,0.019004,0.008691,-0.021226
6622,-0.185368,0.348868,9.904484,-11.082830,1.813646,0.989809,1.757568,1.106375,-2.385352,0.999616,0.015534,0.009332,-0.020959
6623,-0.194418,0.304571,9.919125,-8.945139,1.362014,1.400279,1.419414,1.159876,-2.344165,0.999660,0.012590,0.009865,-0.020578
6624,-0.192027,0.289709,9.934506,-6.462222,0.727195,1.678002,1.173148,1.192122,-2.291887,0.999691,0.010443,0.010196,-0.020104
6625,-0.190028,0.266593,9.969060,-3.649258,0.342487,1.972524,1.033246,1.201750,-2.230126,0.999713,0.009219,0.010309,-0.019553
6626,-0.185048,0.262148,9.968920,-0.220991,-0.074389,2.265529,1.011807,1.192985,-2.158528,0.999728,0.009024,0.010242,-0.018926
6627,-0.176501,0.274025,9.962902,1.835727,-0.634799,1.791001,1.091943,1.164054,-2.090062,0.999735,0.009712,0.009982,-0.018333
6628,-0.172756,0.296506,9.955326,3.295983,-1.132686,1.166935,1.237323,1.116151,-2.040187,0.999734,0.010969,0.009546,-0.017906
6629,-0.174764,0.320785,9.954390,4.083363,-1.422963,0.507772,1.421941,1.058852,-2.012096,0.999724,0.012568,0.009020,-0.017670
6630,-0.165811,0.367149,9.936007,4.298619,-1.569718,-0.377227,1.626785,0.998211,-2.010052,0.999705,0.014346,0.008460,-0.017661
6631,-0.156732,0.386928,9.926847,3.833310,-1.739342,-1.111161,1.826845,0.933932,-2.035381,0.999680,0.016083,0.007865,-0.017888
6632,-0.163703,0.394084,9.886817,3.694251,-1.721131,-1.465151,2.004647,0.873693,-2.079348,0.999651,0.017628,0.007305,-0.018275
6633,-0.162023,0.444861,9.920952,3.195020,-1.264784,-1.575000,2.169610,0.829547,-2.130996,0.999619,0.019063,0.006885,-0.018729
6634,-0.141118,0.466563,9.938513,3.089556,-1.040418,-1.420863,2.327668,0.795318,-2.181591,0.999586,0.020439,0.006551,-0.019173
6635,-0.137208,0.457236,9.908480,3.057026,-1.115212,-1.123292,2.471145,0.760212,-2.224874,0.999554,0.021687,0.006213,-0.019553
6636,-0.130189,0.493979,9.900929,2.505516,-0.886336,-1.210258,2.598306,0.728076,-2.264732,0.999525,0.022793,0.005903,-0.019901
6637,-0.124150,0.524589,9.935190,1.905312,-0.530821,-1.156836,2.711775,0.705262,-2.304717,0.999496,0.023781,0.005676,-0.020251
6638,-0.116375,0.496250,9.905152,1.681727,-0.547663,-1.019491,2.800134,0.686746,-2.341454,0.999472,0.024550,0.005491,-0.020572
6639,-0.118374,0.498966,9.882575,1.167798,-0.628580,-0.970655,2.859554,0.667085,-2.375404,0.999454,0.025067,0.005301,-0.020866
6640,-0.114762,0.511512,9.902976,0.727041,-0.665209,-0.868415,2.900147,0.646818,-2.406990,0.999440,0.025418,0.005110,-0.021139
6641,-0.108534,0.506837,9.916596,0.605120,-0.788840,-0.660886,2.928203,0.622681,-2.433608,0.999430,0.025660,0.004888,-0.021367
6642,-0.101597,0.493567,9.913982,0.452463,-0.854525,-0.598320,2.942973,0.593560,-2.455999,0.999424,0.025784,0.004627,-0.021557
6643,-0.094406,0.512604,9.920575,0.176192,-0.779861,-0.670034,2.950064,0.563175,-2.478545,0.999420,0.025841,0.004355,-0.021747
6644,-0.090351,0.506680,9.910902,0.302832,-0.575501,-0.686813,2.957394,0.537251,-2.502300,0.999415,0.025901,0.004122,-0.021948
6645,-0.095405,0.508616,9.918880,0.256999,-0.325284,-0.706649,2.964230,0.522036,-2.526292,0.999410,0.025959,0.003983,-0.022154
6646,-0.097032,0.529310,9.937118,0.344054,-0.088704,-0.581526,2.977191,0.518744,-2.548062,0.999403,0.026072,0.003947,-0.022344
6647,-0.092941,0.545042,9.928720,0.767047,0.060904,-0.522015,3.008029,0.521912,-2.566340,0.999392,0.026342,0.003964,-0.022505
6648,-0.098386,0.560105,9.917138,1.191742,0.080819,-0.561689,3.059983,0.528346,-2.584074,0.999376,0.026797,0.004006,-0.022663
6649,-0.106871,0.559297,9.941689,1.611851,-0.033461,-0.535752,3.125763,0.536730,-2.602114,0.999356,0.027373,0.004062,-0.022825
6650,-0.104917,0.587173,9.928163,1.972493,-0.095831,-0.561698,3.206271,0.543301,-2.620292,0.999333,0.028077,0.004098,-0.022988
6651,-0.100744,0.586453,9.913419,2.000507,-0.298647,-0.503716,3.294224,0.543025,-2.638178,0.999308,0.028845,0.004074,-0.023147
6652,-0.100731,0.592515,9.914971,1.688074,-0.484714,-0.456415,3.370790,0.534718,-2.654761,0.999285,0.029511,0.003982,-0.023292
6653,-0.102315,0.585620,9.915200,1.520390,-0.437294,-0.256522,3.430898,0.524757,-2.667464,0.999267,0.030034,0.003879,-0.023402
6654,-0.104752,0.616686,9.920868,0.780487,-0.305896,-0.085627,3.475957,0.519461,-2.673835,0.999254,0.030426,0.003822,-0.023458
6655,-0.092244,0.608236,9.943527,0.124527,-0.270688,0.019656,3.498549,0.514441,-2.675445,0.999248,0.030622,0.003773,-0.023471
6656,-0.089248,0.588296,9.929530,0.061860,-0.137919,0.013550,3.497482,0.508144,-2.675344,0.999249,0.030611,0.003719,-0.023469
6657,-0.082510,0.589393,9.918081,-0.077255,-0.095234,0.135625,3.487019,0.502478,-2.673190,0.999252,0.030519,0.003672,-0.023448
6658,-0.081728,0.597585,9.922414,-0.385663,0.005398,-0.134460,3.472447,0.497794,-2.673321,0.999256,0.030391,0.003634,-0.023448
6659,-0.084068,0.578095,9.937963,-0.346219,0.089267,-0.253481,3.451005,0.497492,-2.679759,0.999261,0.030204,0.003634,-0.023503
6660,-0.098652,0.569764,9.917834,0.182894,-0.073935,-0.068852,3.432918,0.500946,-2.685239,0.999264,0.030047,0.003667,-0.023551
6661,-0.103501,0.589059,9.927823,0.013266,-0.273624,-0.020037,3.426154,0.503592,-2.687153,0.999266,0.029989,0.003691,-0.023568
6662,-0.113288,0.591975,9.938966,0.107804,-0.006283,-0.235211,3.425387,0.511370,-2.691703,0.999264,0.029984,0.003757,-0.023610
6663,-0.102419,0.592315,9.924341,0.431267,-0.083822,0.135572,3.432984,0.521328,-2.693462,0.999262,0.030052,0.003842,-0.023628
6664,-0.086371,0.600312,9.891836,0.332119,-0.424032,0.211864,3.447258,0.515375,-2.688175,0.999259,0.030175,0.003789,-0.023581
6665,-0.077334,0.603352,9.919588,-0.287315,-0.131169,-0.293209,3.451654,0.501645,-2.690052,0.999258,0.030211,0.003668,-0.023594
6666,-0.061572,0.600098,9.927232,-0.168242,-0.016994,-0.338971,3.446022,0.488991,-2.700698,0.999258,0.030160,0.003556,-0.023683
6667,-0.030081,0.582681,9.930255,-0.101201,-0.835467,0.234811,3.437497,0.451780,-2.703316,0.999261,0.030078,0.003232,-0.023696
6668,-0.037143,0.552662,9.917062,-0.469369,-1.509091,0.141767,3.411232,0.384737,-2.699511,0.999272,0.029835,0.002654,-0.023645
6669,-0.056187,0.563504,9.905002,-0.477502,-1.565921,-0.044376,3.375295,0.318593,-2.701061,0.999283,0.029508,0.002084,-0.023641
6670,-0.066232,0.584339,9.899348,-0.291530,-1.465206,0.324895,3.354871,0.268078,-2.699409,0.999290,0.029319,0.001648,-0.023613
6671,-0.082668,0.576925,9.916299,-0.187795,-0.810243,0.340136,3.345806,0.243212,-2.690569,0.999295,0.029235,0.001436,-0.023529
6672,-0.090553,0.584970,9.923367,-0.142014,0.128809,0.097477,3.340469,0.255822,-2.683951,0.999297,0.029191,0.001548,-0.023475
6673,-0.076606,0.593827,9.937096,0.123631,0.869462,0.236303,3.345554,0.295296,-2.677404,0.999296,0.029243,0.001893,-0.023428
6675,-0.056358,0.581329,9.958941,0.068791,1.094039,0.349206,3.352552,0.338069,-2.665730,0.999295,0.029313,0.002268,-0.023337
6676,-0.042469,0.555476,9.934913,0.195247,0.742995,0.367521,3.349175,0.364679,-2.652063,0.999298,0.029289,0.002504,-0.023225
6677,-0.043234,0.575769,9.926296,-0.131529,0.118630,0.260721,3.341214,0.367950,-2.640826,0.999302,0.029220,0.002537,-0.023127
6678,-0.060047,0.582806,9.946942,-0.381803,-0.296594,0.172227,3.331828,0.357659,-2.633800,0.999306,0.029135,0.002451,-0.023063
6679,-0.068534,0.588239,9.948342,-0.660967,-0.543777,0.030316,3.317669,0.344165,-2.631222,0.999311,0.029009,0.002337,-0.023037
6680,-0.077192,0.581671,9.914219,-0.525044,-0.403220,-0.033783,3.302503,0.335287,-2.632164,0.999315,0.028875,0.002262,-0.023043
6681,-0.072267,0.587424,9.924779,-0.627124,-0.125274,-0.059736,3.289527,0.335700,-2.634191,0.999318,0.028762,0.002268,-0.023060
6682,-0.067766,0.562510,9.928052,-0.256278,0.088525,0.181352,3.276719,0.341769,-2.632193,0.999321,0.028652,0.002324,-0.023044
6683,-0.070537,0.556221,9.901265,0.062504,0.465579,0.013490,3.268107,0.356829,-2.628457,0.999324,0.028579,0.002458,-0.023015
6684,-0.065077,0.565137,9.930264,0.303511,0.488572,0.124876,3.270613,0.376764,-2.625269,0.999323,0.028605,0.002632,-0.022992
6685,-0.052648,0.573195,9.950474,0.657544,0.018517,0.382762,3.287458,0.381914,-2.616333,0.999320,0.028753,0.002676,-0.022916
6686,-0.059240,0.580524,9.934551,0.770567,-0.201359,0.256119,3.315482,0.372511,-2.605852,0.999316,0.028995,0.002591,-0.022823
6687,-0.066915,0.572866,9.925392,0.608875,-0.221231,-0.001760,3.340727,0.363846,-2.602015,0.999310,0.029214,0.002511,-0.022788
6688,-0.066603,0.584281,9.925853,0.422732,-0.468389,-0.012444,3.358709,0.354039,-2.602918,0.999306,0.029369,0.002422,-0.022793
6689,-0.077288,0.587899,9.906250,0.201555,-0.134073,-0.339000,3.372358,0.349965,-2.609333,0.999301,0.029487,0.002382,-0.022849
6690,-0.083915,0.562766,9.925468,-0.131208,0.323987,-0.555699,3.368958,0.365293,-2.624060,0.999299,0.029461,0.002512,-0.022981
6691,-0.075926,0.571953,9.919206,-0.140609,0.292200,-0.627434,3.354498,0.387011,-2.643206,0.999298,0.029339,0.002700,-0.023153
6692,-0.060014,0.596313,9.914015,-0.219933,0.331914,-0.639643,3.349286,0.400217,-2.663674,0.999294,0.029297,0.002811,-0.023335
6693,-0.055738,0.584161,9.929063,-0.352558,0.359231,-0.639633,3.344867,0.406964,-2.684250,0.999291,0.029260,0.002865,-0.023516
6694,-0.057427,0.572057,9.950510,-0.155759,-0.208607,-0.389371,3.334435,0.402670,-2.701237,0.999290,0.029169,0.002826,-0.023663
6695,-0.051153,0.597700,9.938875,0.134233,-0.771905,-0.116217,3.336639,0.377588,-2.710582,0.999289,0.029183,0.002604,-0.023738
6696,-0.057707,0.588368,9.936971,0.222934,-0.939949,0.120314,3.350529,0.341414,-2.712126,0.999286,0.029297,0.002285,-0.023742
6697,-0.065637,0.579672,9.929978,0.349639,-1.039145,0.106582,3.362197,0.307826,-2.710268,0.999285,0.029392,0.001991,-0.023718
6698,-0.066959,0.587567,9.930779,0.451894,-0.854365,0.118781,3.376276,0.281825,-2.708368,0.999282,0.029509,0.001761,-0.023695
6699,-0.056628,0.578446,9.912792,0.790633,-0.408642,-0.033820,3.396344,0.266865,-2.708200,0.999277,0.029681,0.001627,-0.023690
6700,-0.057939,0.579399,9.902764,0.927860,0.063010,-0.264244,3.420736,0.267045,-2.713520,0.999270,0.029894,0.001622,-0.023737
6701,-0.048453,0.582059,9.941611,1.095565,0.089050,-0.197110,3.448529,0.274011,-2.721069,0.999261,0.030138,0.001675,-0.023805
6702,-0.035162,0.583361,9.958479,1.128929,-0.178062,-0.361906,3.477259,0.270076,-2.730499,0.999251,0.030388,0.001632,-0.023886
6703,-0.035182,0.583311,9.951368,1.200373,-0.834385,-0.509912,3.505078,0.247122,-2.746084,0.999241,0.030626,0.001422,-0.024016
6704,-0.035330,0.607884,9.937210,0.721075,-1.646317,-0.493119,3.530669,0.201297,-2.765338,0.999232,0.030839,0.001012,-0.024172
6705,-0.029811,0.617174,9.918972,0.321313,-1.873771,-0.673173,3.549238,0.140280,-2.788357,0.999223,0.030989,0.000470,-0.024357
6706,-0.029426,0.622254,9.894987,0.011649,-1.544170,-0.763202,3.558677,0.084924,-2.815770,0.999215,0.031059,-0.000022,-0.024581
6707,-0.033817,0.628563,9.876938,-0.052275,-1.153358,-0.551109,3.564560,0.048443,-2.840412,0.999209,0.031103,-0.000348,-0.024786
6708,-0.023147,0.641769,9.872161,-0.245771,-0.437454,-0.477880,3.571457,0.032872,-2.859165,0.999203,0.031159,-0.000491,-0.024945
6709,-0.014294,0.645067,9.887136,-0.195020,0.424863,-0.430586,3.579915,0.040377,-2.874278,0.999197,0.031235,-0.000431,-0.025079
6710,-0.014800,0.637097,9.914138,-0.121452,1.085706,-0.293260,3.587547,0.070996,-2.884737,0.999193,0.031308,-0.000169,-0.025178
6711,-0.019112,0.632275,9.935761,-0.145679,1.304019,-0.368037,3.590609,0.115635,-2.893237,0.999189,0.031344,0.000217,-0.025265
6712,-0.020570,0.624225,9.953829,-0.014385,0.992782,-0.262751,3.590495,0.156575,-2.901330,0.999187,0.031352,0.000572,-0.025347
6713,-0.020210,0.619262,9.958787,0.086283,0.330483,-0.088792,3.589957,0.177054,-2.905800,0.999186,0.031352,0.000750,-0.025391
6714,-0.024228,0.602801,9.945618,0.234105,-0.173170,-0.021647,3.587602,0.175873,-2.907496,0.999186,0.031331,0.000739,-0.025406
6715,-0.032325,0.599036,9.928489,0.255147,-0.888863,0.080592,3.582938,0.156775,-2.907662,0.999187,0.031287,0.000574,-0.025402
6716,-0.036535,0.612255,9.916211,0.189303,-1.341983,0.043964,3.581112,0.122750,-2.907941,0.999189,0.031263,0.000277,-0.025395
6717,-0.038669,0.634337,9.900817,0.177138,-1.169361,-0.082700,3.588961,0.088741,-2.911201,0.999186,0.031324,-0.000022,-0.025414
6718,-0.030114,0.631530,9.891941,0.220050,-0.796804,-0.101025,3.603012,0.065523,-2.916297,0.999181,0.031441,-0.000229,-0.025452
6719,-0.028508,0.633908,9.894736,0.059987,-0.300647,-0.183440,3.614006,0.056794,-2.922170,0.999177,0.031535,-0.000309,-0.025501
6720,-0.016609,0.658335,9.910561,-0.157910,0.108473,-0.326887,3.624819,0.061046,-2.930846,0.999172,0.031631,-0.000277,-0.025578
6721,-0.005799,0.655582,9.903292,-0.052185,0.271761,-0.265850,3.638755,0.068569,-2.940285,0.999166,0.031754,-0.000217,-0.025662
6722,-0.011919,0.626803,9.898548,-0.169497,0.360231,-0.238381,3.642404,0.078250,-2.947996,0.999163,0.031788,-0.000135,-0.025732
6723,-0.019841,0.628970,9.914186,-0.395368,0.558647,-0.291791,3.631587,0.095917,-2.955846,0.999164,0.031697,0.000019,-0.025805
6724,-0.016356,0.636142,9.931946,-0.457905,0.523594,-0.299424,3.618393,0.116263,-2.964538,0.999166,0.031587,0.000197,-0.025887
6725,-0.019022,0.605588,9.913531,-0.116210,0.383197,-0.198713,3.604334,0.131455,-2.971882,0.999168,0.031468,0.000331,-0.025955
6726,-0.024985,0.606617,9.927400,-0.110394,0.123798,-0.116314,3.589030,0.140515,-2.976616,0.999171,0.031336,0.000412,-0.025999
6727,-0.015766,0.613792,9.946589,-0.191475,-0.097508,-0.143778,3.575716,0.139353,-2.980935,0.999173,0.031220,0.000404,-0.026036
6728,-0.022857,0.621121,9.931983,0.035821,-0.305106,-0.128514,3.570355,0.130058,-2.985889,0.999174,0.031171,0.000322,-0.026077
6729,-0.027394,0.604728,9.930131,0.046399,-0.424103,-0.160561,3.567580,0.119226,-2.991464,0.999174,0.031144,0.000227,-0.026122
6730,-0.034183,0.612902,9.952885,-0.605334,-0.535365,-0.415398,3.551784,0.109106,-3.002053,0.999176,0.031004,0.000140,-0.026212
6731,-0.029352,0.625689,9.920406,-0.452724,-0.507727,-0.566476,3.534787,0.099629,-3.019461,0.999176,0.030854,0.000056,-0.026361
6732,-0.018377,0.633088,9.899742,0.026643,-0.292489,-0.323859,3.536731,0.090563,-3.035079,0.999172,0.030869,-0.000028,-0.026495
6733,-0.009525,0.612864,9.912844,-0.032711,-0.115517,-0.365056,3.542881,0.083031,-3.046949,0.999168,0.030921,-0.000098,-0.026596
6734,-0.008342,0.622834,9.903925,0.322900,-0.130865,-0.230769,3.550537,0.076022,-3.057110,0.999164,0.030986,-0.000164,-0.026683
6735,-0.000965,0.617453,9.896238,0.930311,-0.097425,0.117151,3.575184,0.067077,-3.059233,0.999157,0.031199,-0.000248,-0.026699
6736,-0.007112,0.595737,9.903407,0.962216,0.105402,0.198032,3.601079,0.062059,-3.053991,0.999151,0.031423,-0.000296,-0.026652
6737,-0.023127,0.616853,9.921384,0.499640,0.068837,0.025598,3.616645,0.066985,-3.050100,0.999147,0.031560,-0.000256,-0.026619
6738,-0.018960,0.619084,9.912658,0.539206,0.038460,0.120196,3.629649,0.074298,-3.047565,0.999144,0.031675,-0.000194,-0.026599
6739,-0.014064,0.627334,9.914173,0.284311,0.088877,0.188859,3.640784,0.078550,-3.042292,0.999142,0.031773,-0.000158,-0.026554
6740,-0.017236,0.633717,9.920247,0.127148,0.180466,0.077465,3.647917,0.084128,-3.037577,0.999141,0.031837,-0.000110,-0.026515
6741,-0.019877,0.628641,9.934189,-0.197890,0.128649,-0.084288,3.646104,0.091831,-3.037363,0.999142,0.031823,-0.000042,-0.026515
6742,-0.013928,0.614385,9.943127,-0.289618,0.037116,-0.040037,3.631109,0.095648,-3.039267,0.999145,0.031693,-0.000006,-0.026533
6743,-0.019983,0.641520,9.928734,-0.280517,0.064593,-0.004941,3.619380,0.097772,-3.039912,0.999149,0.031591,0.000015,-0.026539
6744,-0.029713,0.633428,9.929781,-0.344486,0.166946,-0.044622,3.613781,0.106313,-3.040484,0.999150,0.031544,0.000090,-0.026546
6745,-0.030424,0.633121,9.920973,-0.417645,0.028264,-0.009537,3.604492,0.116735,-3.041175,0.999152,0.031466,0.000183,-0.026555
6746,-0.025516,0.635415,9.936239,-0.443471,0.042121,0.086588,3.594755,0.122782,-3.039812,0.999155,0.031382,0.000239,-0.026545
6747,-0.029248,0.627086,9.920164,-0.196175,0.130719,0.025545,3.587940,0.129335,-3.037759,0.999157,0.031324,0.000298,-0.026529
6748,-0.027044,0.611675,9.923856,-0.303038,-0.098079,0.025539,3.577693,0.133441,-3.036881,0.999160,0.031236,0.000336,-0.026522
6749,-0.026770,0.608484,9.916036,-0.326085,-0.206361,-0.078228,3.560850,0.130804,-3.038088,0.999164,0.031089,0.000317,-0.026532
6750,-0.027211,0.610711,9.919637,-0.162941,-0.072021,-0.033980,3.547492,0.128640,-3.040255,0.999168,0.030972,0.000301,-0.026550
6751,-0.021513,0.616162,9.901050,0.152895,-0.029268,0.048418,3.546111,0.128024,-3.040123,0.999168,0.030959,0.000296,-0.026549
6752,-0.022488,0.626902,9.908478,-0.143025,-0.047582,0.037738,3.550662,0.126525,-3.038759,0.999167,0.030999,0.000282,-0.026537
6753,-0.024338,0.620650,9.918461,-0.095590,0.053148,-0.000412,3.551891,0.127357,-3.038121,0.999167,0.031010,0.000289,-0.026531
6754,-0.024370,0.618816,9.922562,-0.017710,0.172204,-0.000414,3.552337,0.132450,-3.037896,0.999167,0.031015,0.000333,-0.026531
6755,-0.018404,0.638594,9.938771,-0.186912,0.221017,-0.026353,3.555964,0.138345,-3.037919,0.999166,0.031048,0.000384,-0.026532
6756,-0.024678,0.623640,9.931101,-0.267584,0.318648,-0.151477,3.556449,0.146365,-3.040301,0.999165,0.031054,0.000453,-0.026555
6757,-0.024166,0.606759,9.928740,-0.070768,0.370524,-0.165210,3.549695,0.157985,-3.044860,0.999165,0.030998,0.000555,-0.026598
6758,-0.027819,0.611918,9.927577,-0.138010,0.271333,-0.181995,3.542104,0.168775,-3.049985,0.999166,0.030934,0.000649,-0.026646
6759,-0.037007,0.617676,9.927277,-0.270772,0.323273,-0.281183,3.535055,0.181476,-3.057079,0.999166,0.030875,0.000760,-0.026711
6760,-0.042355,0.593452,9.922777,-0.231216,0.373762,-0.308659,3.521949,0.199029,-3.066191,0.999167,0.030765,0.000913,-0.026795
6761,-0.035085,0.604648,9.923004,-0.213088,0.270081,-0.087406,3.507150,0.213435,-3.072148,0.999169,0.030640,0.001041,-0.026851
6762,-0.032752,0.599984,9.915224,-0.315425,0.317359,-0.105716,3.494365,0.222337,-3.074777,0.999172,0.030530,0.001121,-0.026876
6763,-0.039187,0.604582,9.907866,-0.301750,0.547747,-0.166751,3.481725,0.235971,-3.078441,0.999174,0.030423,0.001242,-0.026911
6764,-0.032964,0.619561,9.936262,-0.420667,0.396628,0.005683,3.473864,0.249725,-3.080148,0.999175,0.030358,0.001363,-0.026930
6765,-0.038772,0.614563,9.919539,-0.260249,0.477411,0.008741,3.470401,0.260627,-3.078992,0.999176,0.030330,0.001459,-0.026922
6766,-0.045495,0.610567,9.915691,-0.325708,0.552151,-0.047716,3.466864,0.276572,-3.078574,0.999177,0.030303,0.001599,-0.026923
6767,-0.049504,0.619013,9.919575,-0.404859,0.596416,-0.026352,3.462544,0.296283,-3.078613,0.999177,0.030270,0.001772,-0.026928
6768,-0.050808,0.605804,9.931753,-0.369599,0.665090,-0.021775,3.456235,0.317572,-3.078112,0.999179,0.030220,0.001959,-0.026930
6769,-0.050995,0.588897,9.893830,-0.113271,0.643693,0.031635,3.447100,0.338011,-3.076642,0.999181,0.030145,0.002140,-0.026922
6770,-0.050698,0.584079,9.903126,-0.276697,0.639031,0.004172,3.434529,0.355916,-3.074798,0.999184,0.030040,0.002299,-0.026910
6771,-0.066322,0.589003,9.901023,-0.211209,0.756504,-0.134686,3.421301,0.378363,-3.075608,0.999186,0.029930,0.002498,-0.026923
6772,-0.078430,0.588544,9.918639,-0.147190,0.742897,-0.056872,3.412538,0.408554,-3.077324,0.999187,0.029860,0.002763,-0.026946
6773,-0.086271,0.592466,9.935237,-0.173162,0.634758,-0.021788,3.405929,0.439650,-3.077276,0.999188,0.029810,0.003036,-0.026953
6774,-0.099060,0.603244,9.930281,-0.107459,0.573994,-0.047744,3.404778,0.470774,-3.077209,0.999187,0.029807,0.003307,-0.026960
6775,-0.108342,0.612512,9.916112,0.069798,0.812395,0.030059,3.414173,0.508100,-3.076048,0.999183,0.029898,0.003631,-0.026960
6776,-0.098753,0.613157,9.932552,0.073161,0.995774,0.219261,3.429019,0.548658,-3.069992,0.999178,0.030036,0.003983,-0.026918
6778,-0.112903,0.606938,9.930622,-0.005954,1.026494,0.054450,3.439542,0.590127,-3.063332,0.999175,0.030138,0.004343,-0.026872
6779,-0.131064,0.598647,9.926215,-0.051630,1.214516,-0.005080,3.442625,0.640685,-3.060229,0.999172,0.030176,0.004784,-0.026858
6780,-0.131749,0.595323,9.935610,-0.120300,1.378142,-0.087502,3.439677,0.698043,-3.059178,0.999170,0.030164,0.005286,-0.026863
6781,-0.132477,0.583870,9.930683,-0.074633,1.280711,-0.076835,3.432000,0.751572,-3.059311,0.999169,0.030109,0.005754,-0.026878
6782,-0.138718,0.583811,9.888635,-0.198393,1.451758,-0.330149,3.420988,0.803219,-3.063442,0.999167,0.030025,0.006206,-0.026927
6783,-0.129915,0.590945,9.886248,-0.344949,1.830187,-0.145513,3.409192,0.858246,-3.068134,0.999165,0.029935,0.006687,-0.026981
6784,-0.123638,0.603066,9.905131,-0.462352,1.755172,-0.018845,3.399482,0.908254,-3.067263,0.999164,0.029862,0.007126,-0.026986
6785,-0.135610,0.602776,9.946970,-0.643757,1.481691,-0.029503,3.388249,0.948503,-3.064760,0.999165,0.029773,0.007480,-0.026974
6786,-0.143116,0.612034,9.977059,-0.835786,0.964082,0.046816,3.373158,0.976337,-3.061910,0.999167,0.029648,0.007727,-0.026955
6787,-0.161561,0.584515,10.003661,-0.727329,0.084923,0.344386,3.351883,0.984365,-3.054296,0.999174,0.029464,0.007804,-0.026889
6788,-0.158936,0.562838,9.975080,-0.338409,-0.943708,0.512244,3.326768,0.962962,-3.041004,0.999185,0.029239,0.007627,-0.026766
6789,-0.140874,0.546608,9.917363,-0.155665,-1.664224,0.600758,3.304071,0.907329,-3.025245,0.999199,0.029027,0.007151,-0.026614
6790,-0.139437,0.534382,9.878615,-0.189711,-1.768300,0.548887,3.279569,0.836604,-3.009704,0.999214,0.028797,0.006544,-0.026459
6791,-0.139887,0.538520,9.872332,-0.376329,-1.718101,0.307792,3.252041,0.771487,-2.999033,0.999227,0.028541,0.005985,-0.026348
6792,-0.127136,0.558681,9.891555,-0.577972,-1.484713,0.200980,3.227374,0.714600,-2.993709,0.999238,0.028313,0.005496,-0.026287
6793,-0.137520,0.556960,9.907157,-0.820631,-0.775103,-0.114891,3.202601,0.679072,-2.994408,0.999246,0.028089,0.005192,-0.026283
6794,-0.152599,0.547069,9.915341,-0.869528,0.056876,-0.420096,3.171603,0.681652,-3.004013,0.999252,0.027820,0.005219,-0.026366
6795,-0.134045,0.542639,9.947260,-0.768933,0.461609,-0.288889,3.139474,0.705459,-3.015399,0.999255,0.027546,0.005431,-0.026469
6796,-0.124209,0.535077,9.937334,-0.468460,0.539555,-0.093578,3.113458,0.727411,-3.020922,0.999259,0.027324,0.005627,-0.026522
6797,-0.124867,0.522782,9.928313,-0.467129,0.325928,-0.200396,3.089980,0.742169,-3.025132,0.999263,0.027123,0.005760,-0.026561
6798,-0.119152,0.528804,9.925029,-0.476459,0.116797,-0.281268,3.067182,0.746809,-3.032842,0.999266,0.026925,0.005804,-0.026628
6799,-0.120531,0.526149,9.931999,-0.545220,-0.165634,-0.174447,3.046310,0.741011,-3.040517,0.999269,0.026743,0.005757,-0.026692
6800,-0.132579,0.538144,9.915726,-0.648951,-0.348782,-0.218696,3.027588,0.731366,-3.047498,0.999273,0.026577,0.005675,-0.026750
6801,-0.132872,0.514007,9.926743,-0.627592,-0.191538,-0.288893,3.006036,0.725738,-3.056424,0.999276,0.026389,0.005629,-0.026826
6802,-0.131220,0.503242,9.913784,-0.412641,-0.099900,-0.179033,2.980419,0.724599,-3.064571,0.999280,0.026165,0.005623,-0.026895
6803,-0.116324,0.505069,9.901156,-0.362486,-0.235733,-0.241597,2.959392,0.718338,-3.071965,0.999283,0.025981,0.005572,-0.026957
6804,-0.101137,0.527512,9.923913,-0.438753,-0.106265,-0.206489,2.947098,0.703649,-3.079701,0.999285,0.025871,0.005445,-0.027021
6805,-0.110996,0.517108,9.910865,-0.318050,-0.204171,-0.047778,2.940579,0.688794,-3.084121,0.999287,0.025811,0.005316,-0.027056
6806,-0.127838,0.529184,9.902939,-0.294965,-0.277431,-0.063034,2.938230,0.680216,-3.086281,0.999287,0.025788,0.005241,-0.027072
6807,-0.110586,0.536917,9.947097,-0.264109,0.110161,0.040733,2.942389,0.677729,-3.086635,0.999286,0.025824,0.005219,-0.027075
6808,-0.104594,0.523740,9.960491,-0.007480,0.219876,0.284892,2.948879,0.676888,-3.080803,0.999286,0.025880,0.005211,-0.027024
6809,-0.122282,0.514360,9.914884,0.032304,-0.242539,0.170452,2.953801,0.673713,-3.073191,0.999287,0.025922,0.005184,-0.026958
6810,-0.129299,0.529457,9.912793,-0.078934,-0.510975,0.027010,2.959274,0.666066,-3.070478,0.999287,0.025968,0.005117,-0.026932
6811,-0.125435,0.527899,9.912384,0.051011,-0.468086,0.191805,2.968478,0.656103,-3.067566,0.999286,0.026045,0.005028,-0.026905
6812,-0.139209,0.517691,9.904808,0.083197,-0.246570,0.065141,2.976391,0.654283,-3.063841,0.999285,0.026114,0.005011,-0.026873
6813,-0.139515,0.499801,9.910387,0.067855,-0.076819,-0.041694,2.975618,0.663843,-3.063767,0.999285,0.026109,0.005095,-0.026874
6814,-0.120682,0.499921,9.909403,0.177501,0.175189,-0.229397,2.970814,0.674927,-3.068297,0.999284,0.026070,0.005192,-0.026916
6815,-0.102245,0.482250,9.894715,-0.004420,0.481837,-0.562049,2.960146,0.684016,-3.081061,0.999283,0.025980,0.005271,-0.027029
6816,-0.102871,0.486123,9.901202,-0.718965,0.506036,-0.990829,2.931295,0.693136,-3.106256,0.999283,0.025732,0.005351,-0.027249
6817,-0.116173,0.495925,9.908168,-1.138864,0.425021,-1.276173,2.889119,0.704968,-3.143332,0.999283,0.025368,0.005456,-0.027573
6818,-0.134306,0.508774,9.914557,-1.257906,0.399141,-1.270072,2.847781,0.723206,-3.185041,0.999281,0.025014,0.005616,-0.027939
6819,-0.149095,0.496553,9.938539,-1.457727,0.246804,-1.039669,2.805082,0.746123,-3.222930,0.999279,0.024649,0.005818,-0.028272
6820,-0.151652,0.494733,9.951752,-1.350846,0.350893,-0.955758,2.760509,0.770738,-3.255643,0.999279,0.024268,0.006037,-0.028560
6821,-0.148296,0.483700,9.945813,-1.135610,0.493064,-0.789444,2.721915,0.796596,-3.283992,0.999279,0.023940,0.006266,-0.028811
6822,-0.148145,0.481665,9.937144,-1.187395,0.412364,-0.584977,2.686730,0.819701,-3.306115,0.999279,0.023640,0.006472,-0.029006
6823,-0.147782,0.485137,9.933408,-1.237548,0.555911,-0.504105,2.654184,0.841074,-3.323385,0.999280,0.023362,0.006663,-0.029159
6824,-0.147299,0.471795,9.938026,-1.069480,0.742123,-0.232489,2.624222,0.865188,-3.334529,0.999281,0.023108,0.006879,-0.029260
6825,-0.152351,0.467489,9.952165,-0.994549,0.473582,0.062016,2.596242,0.886458,-3.336349,0.999285,0.022869,0.007071,-0.029278
6826,-0.144826,0.459553,9.944969,-0.635812,0.250745,0.211560,2.574883,0.896205,-3.331162,0.999290,0.022685,0.007162,-0.029233
6827,-0.130977,0.448630,9.925845,-0.351912,0.145214,0.356535,2.561698,0.892674,-3.321356,0.999295,0.022569,0.007137,-0.029146
6828,-0.131235,0.434937,9.932379,-0.422156,-0.178629,0.535083,2.546960,0.877586,-3.306562,0.999303,0.022436,0.007012,-0.029013
6829,-0.125450,0.445377,9.928242,-0.464923,-0.574207,0.426758,2.530771,0.849802,-3.291123,0.999312,0.022287,0.006777,-0.028872
6830,-0.123870,0.425110,9.921450,-0.619111,-0.591353,0.234507,2.510066,0.815433,-3.281003,0.999321,0.022097,0.006484,-0.028776
6831,-0.128926,0.423696,9.932929,-0.871070,-0.550413,0.185686,2.478073,0.785737,-3.274933,0.999330,0.021810,0.006235,-0.028716
6832,-0.138097,0.419100,9.916265,-0.704901,-0.822104,0.329124,2.445633,0.759461,-3.267426,0.999340,0.021520,0.006015,-0.028644
6833,-0.128033,0.427905,9.916306,-0.845327,-1.038796,0.150591,2.418247,0.727685,-3.260778,0.999349,0.021273,0.005746,-0.028579
6834,-0.125341,0.421516,9.944447,-0.793402,-0.906075,-0.041674,2.392647,0.693891,-3.260302,0.999356,0.021042,0.005458,-0.028567
6835,-0.123554,0.409071,9.940652,-0.071674,-1.112059,0.144487,2.376868,0.660784,-3.260005,0.999360,0.020896,0.005173,-0.028558
6836,-0.123568,0.426415,9.924223,0.222888,-1.632314,0.135330,2.381783,0.618366,-3.257220,0.999362,0.020928,0.004802,-0.028526
6837,-0.107900,0.430314,9.939922,0.494728,-1.833667,-0.113397,2.402749,0.563380,-3.259166,0.999361,0.021097,0.004317,-0.028534
6838,-0.084642,0.438960,9.931046,1.026033,-1.769668,0.030047,2.439318,0.499809,-3.262978,0.999356,0.021401,0.003753,-0.028557
6839,-0.079619,0.443452,9.910279,0.893590,-1.554658,0.016323,2.483844,0.438647,-3.264476,0.999350,0.021774,0.003208,-0.028560
6840,-0.068609,0.475573,9.913417,0.172310,-1.173279,-0.149995,2.520851,0.389195,-3.268536,0.999344,0.022085,0.002767,-0.028587
6841,-0.063967,0.473020,9.935438,-0.281832,-0.584350,-0.111839,2.542367,0.356957,-3.274021,0.999339,0.022264,0.002479,-0.028629
6842,-0.061289,0.458545,9.938534,-0.727022,-0.076248,-0.014176,2.540746,0.344814,-3.276507,0.999339,0.022247,0.002373,-0.028649
6843,-0.075898,0.440517,9.929996,-1.145001,0.105448,0.040753,2.514481,0.349714,-3.276013,0.999344,0.022019,0.002423,-0.028645
6844,-0.072537,0.437746,9.923918,-1.148040,0.157530,0.216226,2.476820,0.361974,-3.271544,0.999352,0.021694,0.002540,-0.028607
6845,-0.076366,0.412645,9.923062,-1.167983,0.397285,0.265046,2.434055,0.378230,-3.263166,0.999362,0.021325,0.002694,-0.028536
6846,-0.084660,0.398684,9.913064,-1.343747,0.576054,0.109390,2.380913,0.403639,-3.256330,0.999372,0.020867,0.002930,-0.028480
6847,-0.094161,0.417014,9.913934,-1.583447,0.831198,0.078857,2.326994,0.439481,-3.252275,0.999382,0.020406,0.003257,-0.028449
6848,-0.097154,0.409211,9.921489,-1.487236,0.878827,0.208548,2.278991,0.480823,-3.246330,0.999390,0.019997,0.003630,-0.028403
6849,-0.098619,0.369838,9.920349,-1.365297,0.895874,0.290936,2.226075,0.520522,-3.236906,0.999400,0.019545,0.003991,-0.028326
6850,-0.097108,0.372260,9.929770,-1.402199,0.865515,0.333654,2.168905,0.555844,-3.225483,0.999411,0.019055,0.004315,-0.028230
6851,-0.097649,0.357717,9.948833,-1.411590,0.636682,0.353486,2.112692,0.582712,-3.213195,0.999421,0.018571,0.004565,-0.028125
6852,-0.100013,0.341009,9.929068,-1.210487,0.249098,0.255824,2.056333,0.597106,-3.202638,0.999432,0.018082,0.004706,-0.028033
6853,-0.102685,0.335658,9.919873,-1.160461,0.308596,-0.006639,2.003663,0.605732,-3.198295,0.999441,0.017625,0.004795,-0.027994
6854,-0.109758,0.351592,9.938024,-1.056819,0.514623,-0.075307,1.961907,0.620606,-3.199235,0.999447,0.017264,0.004935,-0.028003
6855,-0.111327,0.333708,9.931169,-0.664674,0.630654,-0.133295,1.932443,0.642197,-3.202070,0.999449,0.017013,0.005130,-0.028030
6856,-0.106922,0.330510,9.910892,-0.098630,0.677953,-0.052421,1.916703,0.663941,-3.204463,0.999450,0.016881,0.005323,-0.028053
6857,-0.112779,0.330392,9.926932,0.276707,0.774040,-0.063102,1.918013,0.686300,-3.205596,0.999448,0.016898,0.005518,-0.028066
6858,-0.127841,0.332514,9.938825,0.638335,0.752723,-0.224852,1.932600,0.713735,-3.209544,0.999443,0.017032,0.005753,-0.028105
6859,-0.137918,0.326257,9.920099,1.202864,0.520948,-0.301154,1.960648,0.741877,-3.217613,0.999435,0.017284,0.005990,-0.028181
6860,-0.137814,0.346669,9.926320,2.121459,0.179309,-0.079901,2.015508,0.760533,-3.223555,0.999425,0.017767,0.006139,-0.028239
6861,-0.131224,0.347720,9.925472,3.697778,-0.054095,0.124571,2.114029,0.765069,-3.222708,0.999409,0.018627,0.006154,-0.028237
6862,-0.118335,0.370359,9.932402,5.702859,-0.220529,0.460280,2.271451,0.755799,-3.213136,0.999385,0.019998,0.006036,-0.028161
6863,-0.095774,0.429842,9.939059,8.739734,-0.490977,1.183585,2.523825,0.728449,-3.186147,0.999347,0.022190,0.005741,-0.027933
6864,-0.084113,0.487264,9.947211,11.253539,-0.908114,1.436921,2.881840,0.680665,-3.143414,0.999286,0.025299,0.005246,-0.027568
6865,-0.075653,0.560675,9.953820,13.939947,-1.288682,1.440011,3.333376,0.616981,-3.097304,0.999193,0.029219,0.004594,-0.027171
6866,-0.071676,0.666330,9.939909,17.491673,-1.916335,1.656729,3.893630,0.540436,-3.048950,0.999054,0.034085,0.003808,-0.026748
6867,-0.068150,0.777510,9.918386,19.587791,-2.653686,1.527056,4.552897,0.447338,-3.001386,0.998856,0.039809,0.002859,-0.026323
6868,-0.063460,0.889826,9.889649,20.966805,-3.241382,0.915186,5.273137,0.337356,-2.968972,0.998598,0.046061,0.001748,-0.026014
6869,-0.038333,1.023078,9.869911,22.391649,-3.299550,0.628335,6.042054,0.218907,-2.953884,0.998274,0.052734,0.000549,-0.025839
6870,-0.033037,1.166673,9.886061,23.604485,-3.018914,0.431509,6.858621,0.106840,-2.948026,0.997877,0.059821,-0.000608,-0.025733
6871,-0.030581,1.292973,9.899909,24.116861,-2.791513,0.182782,7.701577,0.010975,-2.950047,0.997412,0.067139,-0.001633,-0.025689
6872,-0.017871,1.402154,9.883738,25.942760,-2.692179,0.135461,8.571671,-0.074249,-2.957636,0.996873,0.074691,-0.002575,-0.025687
6873,-0.005868,1.586796,9.876054,27.815943,-2.284572,-0.058359,9.502442,-0.148884,-2.969324,0.996231,0.082768,-0.003440,-0.025713
6875,0.004065,1.781929,9.826012,30.083191,-2.147023,0.182699,10.517349,-0.213228,-2.980125,0.995457,0.091573,-0.004236,-0.025724
6876,0.011931,1.988249,9.749757,31.153013,-1.894997,0.397806,11.604810,-0.271044,-2.983613,0.994543,0.101002,-0.004984,-0.025661
6877,0.035974,2.207421,9.703650,30.732414,-1.502645,0.400812,12.719356,-0.321360,-2.982734,0.993514,0.110659,-0.005669,-0.025556
6878,0.036227,2.460672,9.669806,30.265024,-1.122530,0.107786,13.839686,-0.359230,-2.984982,0.992384,0.120358,-0.006249,-0.025479
6879,0.030080,2.632621,9.593136,28.967808,-1.027653,-0.124237,14.941724,-0.382661,-2.994689,0.991178,0.129890,-0.006707,-0.025475
6880,0.024622,2.813270,9.578034,26.887667,-0.835004,-0.437168,15.982636,-0.394077,-3.012436,0.989954,0.138885,-0.007059,-0.025552
6881,0.037830,2.958109,9.533230,25.732006,-0.935342,-0.417451,16.960306,-0.402668,-3.034871,0.988728,0.147322,-0.007379,-0.025673
6882,0.017217,3.097688,9.460711,25.807526,-0.724336,-0.274158,17.910318,-0.407588,-3.054507,0.987468,0.155512,-0.007661,-0.025774
6883,0.022887,3.217873,9.422576,25.177773,-0.443053,0.162080,18.839355,-0.403720,-3.062638,0.986173,0.163512,-0.007848,-0.025786
6884,0.030820,3.370818,9.369583,25.423695,-0.248817,0.761609,19.753534,-0.400822,-3.052107,0.984839,0.171376,-0.008013,-0.025637
6885,0.030760,3.504000,9.308177,25.893862,0.094911,1.329102,20.676882,-0.398353,-3.020496,0.983434,0.179309,-0.008148,-0.025304
6886,0.018614,3.653126,9.263384,27.998198,0.954455,1.357918,21.639200,-0.378856,-2.972581,0.981903,0.187569,-0.008115,-0.024856
6887,0.020693,3.804391,9.219206,27.833403,1.197555,1.235648,22.630447,-0.341235,-2.919145,0.980255,0.196068,-0.007917,-0.024392
6888,0.019697,3.936271,9.123322,27.810387,0.932465,1.464356,23.613405,-0.307975,-2.863866,0.978548,0.204480,-0.007743,-0.023911
6889,0.011786,4.052112,9.100616,26.801249,0.768066,1.883807,24.564268,-0.287327,-2.801275,0.976830,0.212602,-0.007649,-0.023351
6890,0.014813,4.183980,9.042642,26.185389,0.277095,2.350569,25.471460,-0.284772,-2.729791,0.975131,0.220334,-0.007674,-0.022686
6891,0.032563,4.271865,8.945031,23.170462,-1.240948,2.945560,26.305676,-0.326544,-2.657210,0.973516,0.227423,-0.008050,-0.021930
6892,0.058312,4.384597,8.867512,21.766670,-1.968741,3.331585,27.056410,-0.418105,-2.587567,0.972020,0.233783,-0.008828,-0.021099
6893,0.071742,4.538004,8.849443,20.077560,-1.864984,3.302595,27.756851,-0.525951,-2.518785,0.970586,0.239704,-0.009727,-0.020236
6894,0.092728,4.646009,8.808481,18.248110,-1.770380,3.119484,28.400354,-0.629878,-2.452903,0.969237,0.245136,-0.010578,-0.019402
6895,0.095849,4.716456,8.754389,16.597027,-1.697077,2.602164,28.979141,-0.723718,-2.396955,0.967995,0.250016,-0.011346,-0.018670
6896,0.108985,4.826422,8.732680,16.073507,-1.411584,2.446441,29.517855,-0.803461,-2.348739,0.966816,0.254554,-0.012000,-0.018033
6897,0.130791,4.928904,8.698614,15.495152,-1.438926,2.258684,30.042175,-0.877945,-2.304208,0.965647,0.258966,-0.012609,-0.017434
6898,0.131435,4.949525,8.666162,15.058466,-1.223625,1.512427,30.539978,-0.941318,-2.272097,0.964516,0.263150,-0.013144,-0.016963
6899,0.125610,4.993254,8.610162,16.170172,-1.081432,0.697431,31.032513,-0.980380,-2.259601,0.963377,0.267287,-0.013516,-0.016710
6900,0.143527,5.092508,8.557595,17.407036,-1.294755,0.186077,31.565792,-1.007913,-2.267046,0.962121,0.271762,-0.013843,-0.016644
6901,0.141143,5.187467,8.512263,17.588167,-1.260900,-0.445821,32.131367,-1.028660,-2.292772,0.960764,0.276500,-0.014161,-0.016741
6902,0.123773,5.266423,8.483205,18.303352,-1.185714,-0.790929,32.711258,-1.032736,-2.331550,0.959346,0.281353,-0.014375,-0.016984
6903,0.133031,5.362693,8.410004,20.095860,-1.554519,-0.644728,33.333786,-1.035989,-2.375960,0.957797,0.286554,-0.014605,-0.017269
6904,0.131537,5.488795,8.338345,21.968012,-1.833330,-0.544295,34.029469,-1.051372,-2.423401,0.956032,0.292354,-0.014959,-0.017536
6905,0.130909,5.617847,8.270309,24.125841,-1.765737,-0.755178,34.805355,-1.066776,-2.475015,0.954023,0.298811,-0.015340,-0.017824
6906,0.132982,5.731833,8.170185,27.054470,-1.531807,-1.196496,35.674557,-1.070221,-2.533271,0.951719,0.306030,-0.015659,-0.018182
6907,0.144681,5.825005,8.045821,29.206469,-1.714510,-1.123550,36.631187,-1.070880,-2.596439,0.949121,0.313955,-0.015989,-0.018572
6908,0.161453,5.958074,7.921216,29.776154,-2.390218,0.081717,37.635715,-1.100925,-2.651674,0.946323,0.322249,-0.016554,-0.018802
6909,0.195729,6.084424,7.820321,27.544254,-3.072231,1.149798,38.613010,-1.181154,-2.691906,0.943533,0.330284,-0.017491,-0.018760
6910,0.219180,6.188628,7.761337,23.882227,-3.168452,1.189535,39.478428,-1.290754,-2.727221,0.941004,0.337370,-0.018636,-0.018594
6911,0.239158,6.295944,7.724576,19.974009,-2.893902,0.495344,40.197517,-1.392627,-2.770149,0.938859,0.343238,-0.019715,-0.018523
6912,0.234077,6.397643,7.685324,16.845188,-2.152316,-0.319469,40.785511,-1.459742,-2.821958,0.937075,0.348026,-0.020516,-0.018641
6913,0.221599,6.445840,7.637629,14.640775,-1.038203,-1.731079,41.272640,-1.468407,-2.881670,0.935577,0.351993,-0.020849,-0.019015
6914,0.206313,6.505684,7.598892,14.422849,0.254613,-3.289318,41.709030,-1.404931,-2.951690,0.934220,0.355556,-0.020621,-0.019703
6915,0.178729,6.561743,7.534876,15.587380,1.332406,-4.054197,42.159794,-1.278482,-3.023691,0.932803,0.359247,-0.019895,-0.020605
6916,0.147801,6.599990,7.462286,18.831779,1.743463,-3.543498,42.684891,-1.124903,-3.081218,0.931136,0.363546,-0.018924,-0.021469
6917,0.143167,6.661831,7.363005,22.408936,1.527301,-2.675687,43.327328,-0.987050,-3.118545,0.929075,0.368789,-0.018047,-0.022110
6918,0.120721,6.747123,7.270817,25.766548,0.891406,-1.447680,44.092556,-0.888338,-3.139303,0.926585,0.375006,-0.017464,-0.022480
6919,0.129383,6.906429,7.125397,28.714209,-0.126089,0.563215,44.983532,-0.852726,-3.140199,0.923640,0.382208,-0.017354,-0.022469
6920,0.153324,7.065941,6.984472,29.445467,-1.023262,2.035658,45.966106,-0.892873,-3.123395,0.920333,0.390106,-0.017812,-0.022048
6921,0.174642,7.206383,6.870174,28.161343,-1.908400,2.209703,46.954075,-0.983165,-3.110425,0.916941,0.398006,-0.018678,-0.021476
6922,0.189728,7.314112,6.771626,25.042961,-2.166430,2.013000,47.865292,-1.089185,-3.113257,0.913749,0.405258,-0.019704,-0.020974
6923,0.216283,7.428087,6.669535,21.013432,-1.875148,1.077782,48.650639,-1.182201,-3.129641,0.910949,0.411485,-0.020645,-0.020634
6924,0.211653,7.448434,6.628794,17.288548,-1.206908,-0.330516,49.285728,-1.232307,-3.160260,0.908650,0.416509,-0.021268,-0.020580
6925,0.194839,7.481821,6.571896,15.661068,-0.907766,-0.638796,49.801937,-1.240011,-3.196918,0.906758,0.420589,-0.021556,-0.020746
6926,0.193377,7.531386,6.472460,14.628551,-0.629887,-0.219321,50.267662,-1.236682,-3.224849,0.905036,0.424266,-0.021717,-0.020891
6927,0.196907,7.603434,6.396198,14.849046,-0.095665,-0.790168,50.728752,-1.222919,-3.244149,0.903318,0.427904,-0.021764,-0.021007
6928,0.189471,7.703912,6.355099,16.203516,0.433982,-1.382392,51.224632,-1.182340,-3.262053,0.901453,0.431817,-0.021603,-0.021206
6929,0.182198,7.743743,6.278114,16.816463,0.371587,-1.121650,51.756294,-1.131151,-3.277072,0.899436,0.436005,-0.021357,-0.021419
6930,0.186998,7.755096,6.189485,18.039686,0.248105,-1.182817,52.314728,-1.087516,-3.292008,0.897296,0.440392,-0.021177,-0.021599
6931,0.179884,7.816008,6.114141,19.262825,0.348884,-1.518587,52.910534,-1.041946,-3.310884,0.894989,0.445059,-0.021006,-0.021814
6932,0.175690,7.905966,6.040589,19.758148,0.025442,-0.925054,53.537144,-1.002626,-3.329800,0.892536,0.449954,-0.020894,-0.022000
6933,0.178151,7.958972,5.923020,20.480982,-0.493364,-0.084267,54.189846,-0.993483,-3.345647,0.889956,0.455029,-0.021010,-0.022040
6934,0.179623,8.039253,5.814287,21.736576,-0.806214,0.082114,54.884026,-1.008637,-3.363114,0.887180,0.460405,-0.021331,-0.021987
6935,0.174965,8.088161,5.729737,21.345690,-1.135836,0.358345,55.592545,-1.034867,-3.385363,0.884314,0.465871,-0.021759,-0.021920
6936,0.187122,8.145576,5.617275,19.709541,-0.897813,0.419424,56.262852,-1.066522,-3.405919,0.881571,0.471023,-0.022215,-0.021820
6937,0.180370,8.196263,5.526416,17.977207,-0.038725,-0.567823,56.874851,-1.074077,-3.420030,0.879041,0.475720,-0.022448,-0.021778
6938,0.162759,8.262269,5.493407,15.791383,0.947113,-1.420931,57.409733,-1.032190,-3.424802,0.876807,0.479828,-0.022249,-0.021885
6939,0.156669,8.311494,5.425098,14.040174,1.777364,-1.663749,57.867840,-0.954625,-3.413229,0.874880,0.483352,-0.021695,-0.022035
6940,0.134159,8.389825,5.370039,13.154168,2.450469,-2.303350,58.281952,-0.849578,-3.387664,0.873125,0.486543,-0.020866,-0.022208
6941,0.110240,8.437887,5.317677,13.269209,2.267568,-2.445571,58.684799,-0.726025,-3.361351,0.871406,0.489645,-0.019892,-0.022463
6942,0.097341,8.446807,5.279706,14.067675,1.301857,-1.983513,59.095470,-0.617761,-3.347842,0.869639,0.492794,-0.019093,-0.022754
6943,0.093100,8.456510,5.179348,15.159044,0.774018,-2.269050,59.534878,-0.529955,-3.353581,0.867734,0.496145,-0.018540,-0.023105
6944,0.070563,8.478677,5.131530,16.479275,0.957236,-2.588126,60.013557,-0.437940,-3.368847,0.865642,0.499785,-0.018008,-0.023544
6945,0.080243,8.533484,5.018788,17.361670,0.818431,-2.290643,60.532936,-0.349076,-3.383038,0.863356,0.503723,-0.017508,-0.023960
6946,0.063601,8.578870,4.963069,17.472069,0.401837,-1.677180,61.073887,-0.283120,-3.397256,0.860958,0.507806,-0.017188,-0.024276
6947,0.043332,8.655638,4.843948,17.346107,-0.075766,-0.349634,61.620865,-0.250344,-3.408470,0.858518,0.511916,-0.017108,-0.024424
6948,0.042874,8.763977,4.741983,16.717106,-0.760889,1.214410,62.175690,-0.268245,-3.413848,0.856030,0.516061,-0.017384,-0.024301
6949,0.056837,8.831362,4.601815,16.940138,-1.670365,2.119328,62.746578,-0.338300,-3.424073,0.853455,0.520302,-0.018073,-0.023972
6950,0.061747,8.831105,4.517071,17.470070,-1.562061,2.337599,63.337608,-0.431838,-3.438492,0.850767,0.524672,-0.018957,-0.023557
6951,0.084485,8.828483,4.377345,17.989311,-0.905948,2.198804,63.945599,-0.520749,-3.441921,0.847980,0.529157,-0.019755,-0.023071
6952,0.108636,8.851911,4.298558,19.067026,0.067518,1.188784,64.579643,-0.584066,-3.430202,0.845048,0.533827,-0.020295,-0.022579
6953,0.109801,8.869743,4.197678,20.828176,0.954010,0.146718,65.253563,-0.603314,-3.405578,0.841901,0.538787,-0.020453,-0.022188
6954,0.098818,8.918461,4.136872,21.627720,1.446872,0.010935,65.959106,-0.590274,-3.368136,0.838574,0.543970,-0.020316,-0.021850
6955,0.087611,9.027153,3.997597,21.580433,1.041018,-0.588847,66.679512,-0.560683,-3.334024,0.835141,0.549245,-0.020074,-0.021615
6956,0.081425,9.150572,3.921280,21.255672,0.932740,-1.155116,67.403702,-0.514602,-3.315122,0.831652,0.554525,-0.019784,-0.021573
6957,0.093837,9.157414,3.798818,21.091049,0.241518,-0.178579,68.116478,-0.484223,-3.305458,0.828185,0.559696,-0.019651,-0.021529
6958,0.110578,9.165549,3.716800,20.205898,-0.628322,0.694411,68.800117,-0.501501,-3.308240,0.824833,0.564623,-0.019918,-0.021346
6959,0.138181,9.210376,3.558494,19.407732,-1.113723,0.101224,69.456223,-0.541382,-3.330704,0.821587,0.569323,-0.020437,-0.021194
6960,0.152987,9.252408,3.486243,19.543514,-1.051375,1.266071,70.104645,-0.599467,-3.356947,0.818353,0.573945,-0.021103,-0.020975
6961,0.168393,9.313174,3.378049,20.649675,-1.596362,2.971163,70.769333,-0.707738,-3.375076,0.815019,0.578653,-0.022086,-0.020434
6962,0.170114,9.403455,3.267128,20.524578,-1.511113,3.202148,71.456909,-0.846049,-3.391020,0.811544,0.583495,-0.023268,-0.019709
6963,0.184716,9.449738,3.119791,20.056440,-1.189296,3.349067,72.146263,-0.982136,-3.400095,0.808030,0.588331,-0.024392,-0.018934
6964,0.194023,9.470679,3.059057,18.291157,-0.933047,3.514180,72.793831,-1.115040,-3.399668,0.804705,0.592854,-0.025429,-0.018104
6965,0.224155,9.474924,2.983436,15.754769,-0.705767,2.740817,73.349213,-1.234421,-3.395309,0.801833,0.596717,-0.026329,-0.017328
6966,0.249237,9.422093,2.880985,12.888389,-0.391538,1.966067,73.798737,-1.332234,-3.390224,0.799494,0.599833,-0.027052,-0.016677
6967,0.272350,9.437103,2.816298,10.653476,-0.075815,1.473759,74.152580,-1.412813,-3.381174,0.797645,0.602279,-0.027617,-0.016106
6968,0.280010,9.489671,2.772813,9.114276,-0.051536,1.002809,74.439018,-1.476193,-3.371149,0.796143,0.604257,-0.028044,-0.015633
6969,0.292306,9.526625,2.713663,8.922561,-0.285122,1.204748,74.700562,-1.534340,-3.365894,0.794766,0.606058,-0.028455,-0.015225
6970,0.288816,9.522170,2.667939,9.280290,-0.611766,1.936098,74.969414,-1.606417,-3.365805,0.793346,0.607901,-0.028989,-0.014775
6971,0.288705,9.570766,2.626974,9.717393,-1.095528,2.212535,75.252792,-1.690478,-3.374672,0.791844,0.609835,-0.029653,-0.014316
6972,0.292030,9.587483,2.544089,11.166483,-1.728790,2.052384,75.580093,-1.773919,-3.401751,0.790100,0.612063,-0.030413,-0.013972
6973,0.309378,9.581699,2.484046,12.097013,-2.180459,2.218727,75.957863,-1.859557,-3.447102,0.788077,0.614628,-0.031291,-0.013724
6974,0.322974,9.556038,2.420968,12.192786,-2.406295,2.008193,76.350182,-1.947925,-3.504047,0.785966,0.617280,-0.032250,-0.013530
6975,0.341767,9.588538,2.373153,12.526431,-2.366619,1.048451,76.743141,-2.018522,-3.568907,0.783840,0.619932,-0.033130,-0.013481
6976,0.362514,9.598228,2.303013,13.577259,-2.209458,0.221522,77.159256,-2.061236,-3.637786,0.781578,0.622740,-0.033844,-0.013598
6978,0.362183,9.612652,2.235251,14.718198,-2.362062,0.400174,77.615250,-2.092684,-3.709343,0.779087,0.625814,-0.034502,-0.013778
6979,0.360382,9.622496,2.131684,16.687836,-2.664192,0.151489,78.128258,-2.120848,-3.788901,0.776269,0.629263,-0.035191,-0.014007
6980,0.362846,9.670585,1.976168,19.268375,-2.972434,0.229296,78.739006,-2.145372,-3.880039,0.772895,0.633354,-0.035934,-0.014298
6981,0.347363,9.681442,1.787396,22.031355,-3.260847,-0.018040,79.473236,-2.163190,-3.982990,0.768809,0.638255,-0.036718,-0.014659
6982,0.325172,9.699859,1.616319,23.674995,-2.848842,-1.237628,80.308891,-2.145669,-4.089471,0.764119,0.643816,-0.037305,-0.015199
6983,0.314817,9.719384,1.488956,23.544155,-2.075174,-2.722903,81.175972,-2.071892,-4.183812,0.759207,0.649574,-0.037466,-0.015961
6984,0.306393,9.709869,1.364346,22.854605,-1.388479,-3.489475,82.019524,-1.955585,-4.258352,0.754383,0.655161,-0.037244,-0.016841
6985,0.295843,9.671633,1.249285,21.659634,-0.326414,-4.439073,82.817101,-1.809581,-4.305824,0.749782,0.660430,-0.036679,-0.017735
6986,0.281764,9.668321,1.128414,19.928783,0.602885,-4.273094,83.553551,-1.650950,-4.319767,0.745501,0.665283,-0.035843,-0.018511
6987,0.287221,9.730980,1.035339,19.166662,0.958416,-2.667936,84.238441,-1.528555,-4.307126,0.741497,0.669770,-0.035087,-0.018931
6988,0.286257,9.764246,0.916911,19.400848,1.281875,-1.303599,84.909256,-1.465607,-4.276968,0.737560,0.674129,-0.034615,-0.018902
6989,0.299185,9.823558,0.790239,18.760794,1.956276,0.451602,85.577225,-1.462575,-4.225290,0.733626,0.678433,-0.034400,-0.018387
6990,0.312228,9.878774,0.693704,17.635502,2.105748,2.016250,86.215630,-1.521824,-4.155811,0.729854,0.682512,-0.034465,-0.017400
6991,0.337823,9.932398,0.652470,15.287508,2.175879,2.784505,86.778419,-1.625995,-4.080282,0.726517,0.686079,-0.034757,-0.016127
6992,0.352179,9.899560,0.542426,11.776485,1.705835,2.973098,87.232674,-1.754661,-4.011017,0.723817,0.688935,-0.035217,-0.014777
6993,0.350096,9.857814,0.519349,9.015882,0.993189,2.680975,87.569481,-1.881000,-3.961739,0.721808,0.691035,-0.035758,-0.013600
6994,0.339863,9.842494,0.452562,6.981324,0.437748,1.575114,87.815201,-1.968295,-3.934509,0.720337,0.692562,-0.036170,-0.012824
6995,0.332697,9.844884,0.380004,5.359051,0.230227,0.488712,88.011902,-2.004536,-3.921880,0.719152,0.693789,-0.036343,-0.012463
6996,0.308782,9.819489,0.341551,5.613852,0.126475,-1.571575,88.193436,-1.974796,-3.916487,0.718050,0.694939,-0.036144,-0.012552
6997,0.295289,9.822729,0.274781,6.265672,0.939803,-4.479035,88.400940,-1.850568,-3.902016,0.716779,0.696282,-0.035302,-0.013152
6998,0.251156,9.934538,0.206359,5.292770,2.180380,-6.786929,88.617699,-1.633725,-3.855678,0.715442,0.697716,-0.033693,-0.014118
6999,0.221956,9.855359,0.197217,7.386943,2.735816,-8.608058,88.851219,-1.347382,-3.780087,0.713993,0.699277,-0.031477,-0.015327
7000,0.168783,9.820634,0.254054,8.296304,3.382825,-9.881343,89.106964,-1.010954,-3.683438,0.712399,0.700983,-0.028830,-0.016715
7001,0.128852,9.839296,0.167970,8.390520,3.520178,-9.738490,89.367767,-0.659054,-3.572310,0.710766,0.702714,-0.026005,-0.018119
7002,0.076700,9.835769,0.206075,8.801908,3.269939,-8.534978,89.628860,-0.335785,-3.461401,0.709129,0.704426,-0.023364,-0.019361
7003,0.083578,9.771088,0.174056,9.391299,2.006484,-6.963330,89.886116,-0.074936,-3.374117,0.707516,0.706084,-0.021260,-0.020376
7004,0.054149,9.877129,0.139896,6.897983,0.427154,-4.394753,90.098373,0.096600,-3.333400,0.706183,0.707431,-0.019989,-0.021145
7005,0.038103,9.937724,0.026552,5.328145,-1.588592,-1.998356,90.254669,0.175425,-3.352481,0.705199,0.708404,-0.019650,-0.021722
7006,0.036268,9.897598,0.035409,4.729094,-2.945139,0.054890,90.386528,0.173133,-3.428007,0.704369,0.709201,-0.020157,-0.022150
7007,0.027992,9.831092,-0.016884,4.413818,-4.350513,1.267377,90.501228,0.115937,-3.549942,0.703647,0.709874,-0.021286,-0.022524
7008,0.026874,9.790284,-0.058382,4.399525,-4.535146,1.481769,90.625519,0.041092,-3.698597,0.702862,0.710594,-0.022691,-0.022949
7009,0.032202,9.796311,-0.076737,4.058823,-4.112460,0.963582,90.749664,-0.023060,-3.843284,0.702076,0.711313,-0.024007,-0.023412
7010,0.043597,9.755548,-0.061854,5.869392,-3.692824,0.433138,90.887070,-0.067599,-3.973746,0.701204,0.712117,-0.025118,-0.023905
7011,0.028387,9.760798,-0.136372,6.656178,-3.946121,-0.120358,91.072365,-0.087218,-4.101183,0.700030,0.713217,-0.026070,-0.024521
7012,0.028168,9.836894,-0.205842,5.620125,-4.310814,-0.374967,91.279152,-0.084920,-4.238651,0.698711,0.714447,-0.026957,-0.025326
7013,0.023509,9.756395,-0.356487,5.122322,-4.397790,-0.313768,91.505379,-0.076420,-4.383573,0.697264,0.715793,-0.027861,-0.026208
7014,0.009611,9.760057,-0.377715,4.674079,-3.439511,-1.552778,91.745003,-0.043255,-4.513380,0.695728,0.717225,-0.028527,-0.027145
7015,-0.005132,9.806645,-0.416170,1.814714,-2.565161,-1.821458,91.922951,0.020829,-4.611695,0.694574,0.718296,-0.028797,-0.028099
7016,0.005968,9.864212,-0.402366,-0.860386,-1.161310,-1.812324,91.993683,0.084356,-4.671721,0.694099,0.718724,-0.028806,-0.028843
7017,0.010041,9.854756,-0.367083,-2.449710,0.341735,-1.136092,91.966118,0.124024,-4.683672,0.694259,0.718564,-0.028633,-0.029171
7018,0.000158,9.943550,-0.222144,-3.927274,1.269507,-0.383515,91.841125,0.136620,-4.656029,0.695046,0.717816,-0.028352,-0.029113
7019,0.004627,9.881316,-0.213121,-4.079553,1.210002,0.900058,91.659340,0.115937,-4.615078,0.696199,0.716718,-0.028175,-0.028780
7020,0.015341,9.864565,-0.208068,-3.563395,1.158130,0.990497,91.486748,0.066978,-4.576562,0.697300,0.715666,-0.028189,-0.028283
7021,0.019834,9.837633,-0.193583,-2.618335,1.016230,0.910107,91.343216,0.015041,-4.541134,0.698218,0.714789,-0.028249,-0.027778
7022,0.013748,9.833520,-0.148737,-1.534446,1.179513,0.249729,91.232208,-0.018989,-4.504976,0.698927,0.714113,-0.028205,-0.027373
7023,0.021167,9.856726,-0.162634,-1.469787,1.124585,-0.270363,91.143944,-0.029403,-4.466554,0.699488,0.713581,-0.028008,-0.027095
7024,0.015189,9.867182,-0.148668,-1.526955,0.952161,-0.390707,91.065590,-0.027197,-4.431707,0.699984,0.713111,-0.027759,-0.026915
7025,0.005591,9.872090,-0.135960,-1.509339,1.197837,-0.540168,90.987122,-0.015528,-4.395581,0.700478,0.712643,-0.027445,-0.026786
7026,-0.007551,9.865809,-0.132810,-1.824297,1.399257,-0.660784,90.906937,0.006475,-4.351962,0.700981,0.712169,-0.027020,-0.026675
7027,-0.012687,9.856977,-0.116735,-1.881311,1.118484,-0.645683,90.822975,0.033945,-4.309681,0.701506,0.711671,-0.026570,-0.026607
7028,-0.023088,9.847000,-0.100151,-1.352401,0.888067,-0.738974,90.745667,0.064947,-4.275945,0.701986,0.711212,-0.026153,-0.026610
