seq,ax,ay,az,wroll,wpitch,wyaw,roll,pitch,yaw,q0,q1,q2,q3
1126,6.931708,-6.831386,-0.326571,-1.023952,0.237154,0.029783,-92.736916,-45.384949,93.841995,-0.638755,0.261651,0.669557,-0.274268
1128,6.925232,-6.819358,-0.411055,-0.032497,-0.053946,0.083488,-92.769165,-45.383385,93.850212,-0.638658,0.261792,0.669650,-0.274135
1129,6.929467,-6.819414,-0.413750,-0.032715,-0.058745,0.060579,-92.807404,-45.381664,93.877907,-0.638500,0.261853,0.669801,-0.274075
1130,6.926672,-6.824939,-0.414030,-0.013089,-0.058958,0.060564,-92.844215,-45.379948,93.904861,-0.638347,0.261910,0.669948,-0.274020
1131,6.924600,-6.818660,-0.409381,0.029443,-0.045420,0.063605,-92.876991,-45.377865,93.929543,-0.638207,0.261960,0.670078,-0.273978
1132,6.925767,-6.827581,-0.406689,0.036900,-0.066959,0.048339,-92.905769,-45.375725,93.952042,-0.638082,0.262001,0.670194,-0.273947
1133,6.925361,-6.830515,-0.408980,0.042840,-0.061020,0.042242,-92.932846,-45.372883,93.973724,-0.637960,0.262042,0.670303,-0.273925
1135,6.918666,-6.832846,-0.407891,0.051816,-0.050523,0.028537,-92.962250,-45.368664,93.997032,-0.637826,0.262093,0.670418,-0.273907
1136,6.921832,-6.828359,-0.407362,0.022631,-0.052246,0.020936,-92.993881,-45.364590,94.021591,-0.637684,0.262149,0.670542,-0.273882
1137,6.920009,-6.824798,-0.409210,-0.055374,-0.082950,0.004161,-93.026344,-45.362461,94.045860,-0.637546,0.262199,0.670671,-0.273839
1138,6.921611,-6.822363,-0.414730,-0.122698,-0.093817,0.002633,-93.061928,-45.361546,94.071136,-0.637402,0.262255,0.670812,-0.273776
1139,6.922729,-6.815714,-0.415689,-0.135087,-0.109259,0.002610,-93.099007,-45.362328,94.096832,-0.637258,0.262306,0.670960,-0.273698
1140,6.924658,-6.806840,-0.416878,-0.138309,-0.100274,0.011711,-93.134865,-45.365517,94.121559,-0.637125,0.262342,0.671109,-0.273607
1142,6.925209,-6.808021,-0.420722,-0.127794,-0.097387,-0.006670,-93.169487,-45.370102,94.145340,-0.637001,0.262369,0.671255,-0.273511
1143,6.926492,-6.810351,-0.424430,-0.100491,-0.088394,-0.002154,-93.203011,-45.374371,94.168678,-0.636881,0.262395,0.671397,-0.273420
1144,6.921594,-6.812532,-0.423429,-0.074705,-0.102281,0.010009,-93.234116,-45.376900,94.190956,-0.636763,0.262422,0.671527,-0.273347
1145,6.924240,-6.815491,-0.421085,-0.044321,-0.087157,0.029818,-93.261086,-45.377666,94.210930,-0.636656,0.262451,0.671639,-0.273295
1146,6.927384,-6.818104,-0.420419,-0.021548,-0.101007,0.032844,-93.284256,-45.377987,94.228798,-0.636561,0.262473,0.671736,-0.273257
1147,6.926294,-6.815516,-0.413696,-0.021642,-0.111783,0.043497,-93.303711,-45.378345,94.244560,-0.636480,0.262486,0.671819,-0.273229
1149,6.927827,-6.813047,-0.414396,0.004224,-0.116434,0.051090,-93.319954,-45.379177,94.258530,-0.636411,0.262490,0.671891,-0.273206
1150,6.927824,-6.814317,-0.412827,0.023993,-0.104292,0.044945,-93.333893,-45.380341,94.271301,-0.636352,0.262486,0.671956,-0.273189
1151,6.925415,-6.815396,-0.410940,-0.009631,-0.108923,0.023550,-93.345970,-45.381264,94.282509,-0.636300,0.262482,0.672012,-0.273175
1152,6.921959,-6.818014,-0.409792,-0.053925,-0.124225,0.020484,-93.357925,-45.381207,94.292969,-0.636248,0.262487,0.672065,-0.273163
1153,6.922832,-6.824085,-0.414583,-0.092118,-0.142581,0.022017,-93.371895,-45.379513,94.304268,-0.636184,0.262508,0.672121,-0.273154
1154,6.919449,-6.832979,-0.412335,-0.093685,-0.133470,0.023579,-93.386253,-45.375351,94.315468,-0.636113,0.262546,0.672172,-0.273155
1156,6.924335,-6.831139,-0.412130,-0.087611,-0.127399,0.035831,-93.398552,-45.370422,94.325081,-0.636049,0.262586,0.672214,-0.273164
1157,6.926617,-6.832485,-0.411122,-0.075427,-0.115217,0.034332,-93.409004,-45.366703,94.333366,-0.635995,0.262617,0.672251,-0.273170
1158,6.933622,-6.827234,-0.411609,-0.073919,-0.119812,0.035860,-93.418243,-45.365105,94.340866,-0.635952,0.262633,0.672287,-0.273167
1159,6.929609,-6.826648,-0.416624,-0.048002,-0.113732,0.044999,-93.427979,-45.364685,94.349030,-0.635909,0.262642,0.672328,-0.273157
1160,6.933859,-6.821219,-0.417402,-0.066343,-0.119865,0.043446,-93.438652,-45.365036,94.357933,-0.635864,0.262647,0.672374,-0.273142
1161,6.928667,-6.822052,-0.422436,-0.066380,-0.121426,0.041887,-93.450790,-45.365891,94.367760,-0.635815,0.262652,0.672427,-0.273120
1163,6.927035,-6.818871,-0.428980,-0.067958,-0.138262,0.037283,-93.465782,-45.366077,94.379807,-0.635752,0.262663,0.672491,-0.273098
1164,6.922547,-6.827602,-0.433502,-0.039030,-0.118491,0.047960,-93.482338,-45.364414,94.393272,-0.635678,0.262685,0.672558,-0.273085
1165,6.923085,-6.827791,-0.428912,-0.013148,-0.089559,0.046453,-93.495926,-45.360916,94.404686,-0.635610,0.262714,0.672610,-0.273089
1166,6.922884,-6.824634,-0.426271,-0.008609,-0.091125,0.046463,-93.505592,-45.358154,94.413345,-0.635560,0.262732,0.672647,-0.273096
1167,6.924580,-6.818541,-0.425169,-0.014741,-0.088102,0.035771,-93.513596,-45.357304,94.420792,-0.635521,0.262738,0.672682,-0.273095
1168,6.925467,-6.817794,-0.420816,-0.001025,-0.083539,0.049477,-93.519348,-45.357891,94.426651,-0.635496,0.262732,0.672710,-0.273090
1170,6.924996,-6.818385,-0.420824,0.021858,-0.072862,0.058602,-93.522552,-45.358242,94.430931,-0.635479,0.262723,0.672728,-0.273093
1171,6.929200,-6.812702,-0.418590,0.034064,-0.072861,0.060085,-93.524155,-45.359642,94.434357,-0.635471,0.262703,0.672743,-0.273095
1172,6.922291,-6.811236,-0.423178,0.041688,-0.065233,0.049352,-93.525917,-45.361740,94.438042,-0.635464,0.262680,0.672759,-0.273093
1173,6.920929,-6.816386,-0.423432,0.046254,-0.063717,0.069161,-93.528488,-45.361889,94.442329,-0.635448,0.262668,0.672776,-0.273101
1174,6.920443,-6.816391,-0.422959,0.058451,-0.069831,0.072196,-93.530563,-45.360615,94.446510,-0.635430,0.262662,0.672788,-0.273119
1175,6.919638,-6.816016,-0.417190,0.043193,-0.074407,0.056922,-93.530960,-45.359486,94.449593,-0.635419,0.262653,0.672794,-0.273140
1177,6.918447,-6.813038,-0.420713,0.023360,-0.085082,0.043171,-93.531578,-45.359116,94.452614,-0.635409,0.262640,0.672801,-0.273155
1178,6.926394,-6.820996,-0.415249,0.003534,-0.088123,0.040098,-93.532463,-45.359322,94.455528,-0.635401,0.262627,0.672810,-0.273165
1179,6.929395,-6.820017,-0.416522,0.000499,-0.089629,0.015655,-93.532501,-45.360565,94.457626,-0.635399,0.262608,0.672818,-0.273170
1180,6.926228,-6.821152,-0.420313,-0.013226,-0.088092,0.023258,-93.534187,-45.361946,94.460732,-0.635392,0.262591,0.672832,-0.273169
1181,6.921551,-6.818350,-0.423056,-0.013228,-0.091145,0.030872,-93.537918,-45.362068,94.465118,-0.635373,0.262585,0.672851,-0.273171
1182,6.917043,-6.831694,-0.421541,-0.016281,-0.094200,0.035470,-93.541771,-45.359188,94.469643,-0.635345,0.262596,0.672865,-0.273189
1184,6.914754,-6.834682,-0.426276,-0.022389,-0.098785,0.040106,-93.546249,-45.353004,94.474571,-0.635306,0.262628,0.672875,-0.273226
1185,6.911911,-6.841108,-0.422216,-0.031548,-0.098793,0.040186,-93.550812,-45.345005,94.479416,-0.635262,0.262670,0.672881,-0.273271
1186,6.912559,-6.836553,-0.421732,-0.036117,-0.095740,0.025009,-93.553963,-45.337212,94.483086,-0.635225,0.262711,0.672882,-0.273317
1187,6.917590,-6.838768,-0.419226,-0.030001,-0.086573,0.026596,-93.555855,-45.331333,94.485748,-0.635198,0.262739,0.672881,-0.273354
1188,6.923229,-6.831900,-0.417933,-0.023876,-0.075872,0.025099,-93.556061,-45.328068,94.487114,-0.635186,0.262751,0.672878,-0.273379
1189,6.926191,-6.826450,-0.412468,-0.025370,-0.068210,0.022036,-93.554138,-45.328167,94.486824,-0.635191,0.262741,0.672873,-0.273388
1191,6.929250,-6.817465,-0.417374,-0.022287,-0.069702,0.040299,-93.552223,-45.330963,94.486458,-0.635204,0.262717,0.672873,-0.273382
1192,6.931144,-6.821176,-0.420465,-0.020746,-0.063578,0.046339,-93.552574,-45.334621,94.487709,-0.635210,0.262691,0.672884,-0.273366
1193,6.932823,-6.814265,-0.418883,-0.039045,-0.068139,0.035584,-93.553711,-45.339062,94.489281,-0.635216,0.262662,0.672899,-0.273342
1194,6.930976,-6.812949,-0.425307,-0.048198,-0.072709,0.044656,-93.556900,-45.344337,94.492096,-0.635216,0.262633,0.672923,-0.273309
1195,6.929480,-6.813702,-0.428948,-0.037530,-0.077295,0.049158,-93.562881,-45.348591,94.497017,-0.635203,0.262613,0.672957,-0.273277
1196,6.927810,-6.818130,-0.425112,-0.042117,-0.063568,0.044524,-93.568146,-45.351372,94.501396,-0.635188,0.262601,0.672985,-0.273255
1198,6.924283,-6.812793,-0.418318,-0.034476,-0.072711,0.049055,-93.569977,-45.353432,94.503319,-0.635185,0.262588,0.672998,-0.273243
1199,6.925559,-6.816391,-0.420215,-0.035982,-0.081843,0.047486,-93.570427,-45.355240,94.504532,-0.635186,0.262573,0.673005,-0.273237
1200,6.926455,-6.815649,-0.416465,-0.040536,-0.078765,0.053550,-93.570442,-45.356758,94.505447,-0.635188,0.262559,0.673010,-0.273233
1201,6.921402,-6.814232,-0.416560,-0.055767,-0.084836,0.055039,-93.569817,-45.357784,94.505692,-0.635191,0.262548,0.673011,-0.273233
1202,6.924143,-6.809896,-0.419773,-0.071002,-0.093965,0.051947,-93.571030,-45.359207,94.507065,-0.635189,0.262539,0.673020,-0.273225
1203,6.928608,-6.817863,-0.422446,-0.087773,-0.087844,0.044272,-93.574371,-45.361149,94.509621,-0.635181,0.262531,0.673038,-0.273209
1205,6.927578,-6.817329,-0.426443,-0.074036,-0.080208,0.048812,-93.579109,-45.362415,94.512955,-0.635165,0.262531,0.673059,-0.273192
1206,6.927451,-6.824207,-0.427515,-0.080142,-0.093943,0.033531,-93.584877,-45.362675,94.517212,-0.635143,0.262536,0.673083,-0.273180
1207,6.933010,-6.826898,-0.428011,-0.081669,-0.096994,0.025886,-93.590996,-45.362637,94.521843,-0.635118,0.262543,0.673108,-0.273170
1208,6.932123,-6.829780,-0.421754,-0.066398,-0.106138,0.022822,-93.595032,-45.362690,94.525291,-0.635100,0.262545,0.673126,-0.273165
1209,6.931732,-6.830987,-0.426820,-0.057228,-0.107648,0.027397,-93.598068,-45.361954,94.528442,-0.635084,0.262547,0.673139,-0.273169
1210,6.928629,-6.829027,-0.421216,-0.061787,-0.100000,0.031976,-93.600540,-45.360725,94.531174,-0.635068,0.262552,0.673149,-0.273177
1212,6.924057,-6.821301,-0.419268,-0.048023,-0.090813,0.042654,-93.600433,-45.359692,94.531967,-0.635064,0.262553,0.673148,-0.273188
1213,6.926395,-6.816428,-0.411402,-0.037293,-0.083133,0.044158,-93.597054,-45.360081,94.530518,-0.635076,0.262540,0.673138,-0.273197
1214,6.930216,-6.812189,-0.414596,-0.031137,-0.083076,0.045635,-93.592201,-45.362606,94.528137,-0.635100,0.262513,0.673126,-0.273198
1215,6.930770,-6.815392,-0.408192,-0.017346,-0.081488,0.042526,-93.586403,-45.365849,94.525291,-0.635129,0.262479,0.673112,-0.273198
1216,6.933687,-6.809055,-0.408876,-0.008126,-0.090574,0.037882,-93.579170,-45.369976,94.521790,-0.635165,0.262436,0.673094,-0.273198
1217,6.939831,-6.810457,-0.409605,-0.026378,-0.088983,0.024061,-93.573151,-45.376080,94.519150,-0.635202,0.262383,0.673086,-0.273184
1219,6.934666,-6.811882,-0.415962,-0.029386,-0.085881,0.030084,-93.569778,-45.381664,94.518097,-0.635227,0.262339,0.673086,-0.273166
1220,6.931354,-6.815086,-0.415895,-0.032405,-0.079741,0.036134,-93.568321,-45.384792,94.518211,-0.635239,0.262312,0.673089,-0.273158
1221,6.931060,-6.810327,-0.416875,-0.033902,-0.075130,0.048296,-93.567177,-45.387054,94.518349,-0.635247,0.262292,0.673091,-0.273152
1222,6.930405,-6.824415,-0.415771,-0.032345,-0.075098,0.054374,-93.565834,-45.387402,94.518295,-0.635252,0.262283,0.673088,-0.273158
1223,6.926915,-6.827941,-0.411247,-0.003312,-0.072007,0.066595,-93.562119,-45.384384,94.516853,-0.635255,0.262288,0.673070,-0.273189
1224,6.929805,-6.828356,-0.411796,-0.006317,-0.068908,0.066615,-93.556847,-45.380665,94.514542,-0.635263,0.262294,0.673045,-0.273228
1226,6.930633,-6.824290,-0.415044,-0.013908,-0.068869,0.051359,-93.553139,-45.378414,94.513184,-0.635268,0.262294,0.673029,-0.273255
1227,6.930542,-6.824421,-0.416974,-0.029140,-0.071893,0.028465,-93.551697,-45.377594,94.513222,-0.635269,0.262290,0.673024,-0.273268
1228,6.933009,-6.817993,-0.419835,-0.021492,-0.074926,0.026916,-93.552147,-45.378452,94.514626,-0.635267,0.262280,0.673030,-0.273269
1229,6.934445,-6.814498,-0.423191,-0.027591,-0.079494,0.019239,-93.554634,-45.381313,94.517578,-0.635262,0.262260,0.673048,-0.273254
1230,6.934209,-6.813927,-0.424041,-0.021489,-0.077966,0.028340,-93.558296,-45.384712,94.521416,-0.635254,0.262238,0.673072,-0.273235
1231,6.934319,-6.824150,-0.421606,-0.013855,-0.077961,0.037461,-93.560913,-45.386269,94.524628,-0.635245,0.262225,0.673089,-0.273228
1233,6.935139,-6.821120,-0.423285,-0.003168,-0.067272,0.054224,-93.562439,-45.386356,94.527145,-0.635235,0.262218,0.673098,-0.273233
1234,6.930726,-6.824913,-0.421067,-0.019944,-0.055055,0.043530,-93.563393,-45.385723,94.528908,-0.635227,0.262217,0.673104,-0.273241
1235,6.932745,-6.822554,-0.422120,-0.024511,-0.044361,0.043523,-93.563889,-45.384792,94.529831,-0.635221,0.262219,0.673105,-0.273248
1236,6.931091,-6.828375,-0.417919,-0.019916,-0.041291,0.023684,-93.563187,-45.383846,94.529755,-0.635221,0.262221,0.673101,-0.273257
1237,6.927545,-6.824131,-0.417270,-0.007682,-0.030584,0.034373,-93.560600,-45.382248,94.528381,-0.635225,0.262224,0.673089,-0.273274
1238,6.927160,-6.823140,-0.407879,-0.010693,-0.035120,0.029800,-93.555153,-45.380901,94.525009,-0.635242,0.262221,0.673066,-0.273295
1239,6.929765,-6.824638,-0.412649,-0.015221,-0.030493,0.037432,-93.548805,-45.379875,94.520897,-0.635264,0.262216,0.673039,-0.273315
1240,6.927362,-6.824565,-0.412331,-0.006028,-0.027403,0.042011,-93.543839,-45.378529,94.517738,-0.635279,0.262215,0.673017,-0.273334
1241,6.928695,-6.821889,-0.416048,0.007735,-0.042631,0.061846,-93.540054,-45.377048,94.515808,-0.635288,0.262214,0.673001,-0.273354
1242,6.931226,-6.822542,-0.416363,-0.009028,-0.056343,0.057254,-93.538239,-45.376163,94.515564,-0.635291,0.262210,0.672994,-0.273369
1243,6.930450,-6.830508,-0.421421,-0.007491,-0.060909,0.057252,-93.538528,-45.374405,94.516861,-0.635282,0.262214,0.672995,-0.273384
1244,6.928558,-6.826682,-0.418571,0.004724,-0.065479,0.063364,-93.539322,-45.371658,94.518784,-0.635268,0.262223,0.672996,-0.273406
1245,6.929663,-6.829216,-0.417823,0.009316,-0.074621,0.070999,-93.539032,-45.368919,94.520287,-0.635258,0.262228,0.672993,-0.273431
1246,6.928615,-6.824107,-0.416648,-0.010505,-0.066974,0.064894,-93.538513,-45.366730,94.521461,-0.635250,0.262231,0.672990,-0.273453
1247,6.929789,-6.820605,-0.418442,0.007821,-0.060853,0.052667,-93.538162,-45.366234,94.522583,-0.635247,0.262225,0.672991,-0.273464
1248,6.932106,-6.814743,-0.418654,0.006306,-0.057788,0.051100,-93.538132,-45.367832,94.524048,-0.635248,0.262207,0.672997,-0.273463
1249,6.933897,-6.815167,-0.417656,-0.007416,-0.068455,0.028152,-93.538399,-45.371124,94.525642,-0.635252,0.262181,0.673008,-0.273452
1250,6.932740,-6.817060,-0.418758,-0.025716,-0.066915,0.025047,-93.539368,-45.374439,94.527473,-0.635255,0.262156,0.673021,-0.273438
1251,6.934200,-6.818198,-0.419090,-0.024181,-0.060798,0.026527,-93.540787,-45.377171,94.529350,-0.635255,0.262138,0.673034,-0.273424
1252,6.932123,-6.824981,-0.418028,-0.045532,-0.076044,0.053965,-93.542252,-45.378036,94.531097,-0.635249,0.262130,0.673043,-0.273421
1253,6.926819,-6.825412,-0.415472,-0.045512,-0.072972,0.057015,-93.543007,-45.376270,94.532227,-0.635240,0.262138,0.673044,-0.273432
1254,6.925732,-6.825660,-0.414648,-0.045486,-0.066843,0.070758,-93.542572,-45.373322,94.532372,-0.635233,0.262152,0.673038,-0.273452
1255,6.923833,-6.826168,-0.415525,-0.033252,-0.068344,0.067722,-93.541817,-45.369835,94.532394,-0.635225,0.262167,0.673029,-0.273477
1256,6.923937,-6.832344,-0.416715,-0.028653,-0.077477,0.069275,-93.541473,-45.365376,94.533020,-0.635212,0.262187,0.673021,-0.273508
1257,6.923191,-6.827028,-0.420114,-0.033216,-0.062205,0.052516,-93.542336,-45.361198,94.534439,-0.635195,0.262208,0.673018,-0.273534
1258,6.923744,-6.827980,-0.424441,-0.031689,-0.065257,0.046427,-93.545280,-45.358204,94.537186,-0.635173,0.262225,0.673026,-0.273549
1259,6.924450,-6.831718,-0.428276,-0.019493,-0.060692,0.052548,-93.550041,-45.354908,94.541367,-0.635144,0.262246,0.673040,-0.273563
1260,6.923795,-6.831933,-0.424070,-0.028657,-0.065280,0.047993,-93.554321,-45.351257,94.545242,-0.635114,0.262267,0.673052,-0.273580
1261,6.921970,-6.827386,-0.418207,-0.031699,-0.071375,0.043432,-93.555962,-45.348324,94.547218,-0.635098,0.262282,0.673055,-0.273598
1262,6.922220,-6.824899,-0.412906,-0.016410,-0.072872,0.044962,-93.554337,-45.346512,94.547112,-0.635097,0.262284,0.673047,-0.273617
1263,6.924484,-6.823694,-0.413108,-0.007217,-0.071307,0.057161,-93.550926,-45.345535,94.546028,-0.635105,0.262277,0.673035,-0.273637
1264,6.922147,-6.827120,-0.413987,-0.022441,-0.069745,0.061733,-93.547989,-45.344048,94.545143,-0.635109,0.262274,0.673023,-0.273658
1265,6.921106,-6.824616,-0.419193,-0.028522,-0.057514,0.064786,-93.547058,-45.341885,94.545265,-0.635105,0.262280,0.673017,-0.273676
1266,6.924007,-6.820992,-0.424572,-0.022414,-0.052931,0.061719,-93.549004,-45.340874,94.547256,-0.635093,0.262285,0.673024,-0.273681
1267,6.921063,-6.826159,-0.423168,-0.023942,-0.055985,0.054075,-93.551933,-45.339897,94.549980,-0.635077,0.262291,0.673036,-0.273685
1268,6.920347,-6.828369,-0.421127,-0.039196,-0.060558,0.041873,-93.554031,-45.337803,94.552017,-0.635062,0.262303,0.673041,-0.273695
1269,6.921869,-6.821212,-0.417259,-0.042232,-0.074275,0.029660,-93.555046,-45.337055,94.553291,-0.635055,0.262305,0.673045,-0.273701
1270,6.921665,-6.819439,-0.413048,-0.036100,-0.077296,0.023531,-93.554092,-45.338188,94.553421,-0.635060,0.262293,0.673045,-0.273701
1271,6.919213,-6.824950,-0.412116,-0.039112,-0.071152,0.028094,-93.551544,-45.338486,94.552422,-0.635069,0.262283,0.673037,-0.273708
1272,6.925843,-6.825768,-0.413922,-0.043653,-0.072640,0.032662,-93.549286,-45.338280,94.551460,-0.635075,0.262277,0.673029,-0.273718
1273,6.922246,-6.825142,-0.414471,-0.034465,-0.072607,0.043329,-93.547775,-45.338188,94.551109,-0.635080,0.262271,0.673025,-0.273725
1274,6.921329,-6.824603,-0.417984,-0.013079,-0.054271,0.044846,-93.546707,-45.337425,94.551208,-0.635080,0.262269,0.673021,-0.273736
1275,6.921764,-6.820066,-0.419432,-0.016116,-0.064936,0.040251,-93.546761,-45.337345,94.552231,-0.635077,0.262264,0.673023,-0.273742
1276,6.922761,-6.821915,-0.420254,-0.013054,-0.058820,0.024968,-93.547630,-45.338177,94.553902,-0.635073,0.262254,0.673031,-0.273741
1277,6.920862,-6.819303,-0.424271,-0.011526,-0.052714,0.015787,-93.549576,-45.339344,94.556274,-0.635066,0.262244,0.673043,-0.273736
1278,6.926522,-6.820134,-0.425251,-0.016111,-0.043562,0.008125,-93.552666,-45.341457,94.559250,-0.635058,0.262232,0.673061,-0.273723
1279,6.930187,-6.822119,-0.419637,-0.025263,-0.048134,0.015711,-93.554390,-45.344410,94.561043,-0.635058,0.262214,0.673075,-0.273706
1280,6.929394,-6.834468,-0.419021,-0.002358,-0.031332,0.027899,-93.553520,-45.345329,94.560989,-0.635062,0.262204,0.673075,-0.273706
1281,6.928106,-6.838552,-0.417107,0.000716,-0.032835,0.034016,-93.550919,-45.343266,94.559830,-0.635065,0.262208,0.673062,-0.273726
1282,6.926379,-6.832374,-0.411247,-0.003827,-0.032800,0.041659,-93.546349,-45.340973,94.557251,-0.635076,0.262211,0.673041,-0.273752
1283,6.923362,-6.828145,-0.414083,-0.005315,-0.034288,0.037084,-93.541466,-45.339577,94.554405,-0.635090,0.262209,0.673020,-0.273772
1284,6.921820,-6.827605,-0.415799,-0.000709,-0.028157,0.026404,-93.538139,-45.338558,94.552643,-0.635099,0.262207,0.673006,-0.273788
1285,6.922031,-6.817703,-0.415215,-0.011369,-0.029659,0.017231,-93.535637,-45.339233,94.551369,-0.635110,0.262197,0.672998,-0.273792
1286,6.920816,-6.811069,-0.412239,-0.015921,-0.038786,0.023291,-93.533028,-45.342144,94.549965,-0.635127,0.262174,0.672995,-0.273783
1288,6.925257,-6.814170,-0.418056,0.013091,-0.035711,0.015608,-93.531151,-45.345875,94.549446,-0.635143,0.262145,0.672996,-0.273770
1289,6.923697,-6.819976,-0.412046,0.020740,-0.050948,0.017091,-93.528824,-45.348629,94.549171,-0.635156,0.262118,0.672995,-0.273766
1290,6.922591,-6.822702,-0.415917,0.019238,-0.070760,0.036911,-93.526360,-45.349243,94.549278,-0.635163,0.262100,0.672991,-0.273778
1291,6.928638,-6.824465,-0.417972,0.014673,-0.075324,0.039943,-93.526100,-45.349339,94.551155,-0.635160,0.262087,0.672995,-0.273789
1292,6.925306,-6.822228,-0.421894,0.013149,-0.072269,0.036869,-93.527748,-45.349792,94.554321,-0.635150,0.262075,0.673007,-0.273795
1293,6.921847,-6.826925,-0.418452,-0.003635,-0.075319,0.044491,-93.529739,-45.348877,94.557518,-0.635135,0.262073,0.673017,-0.273806
1294,6.925305,-6.827197,-0.416822,0.000955,-0.060047,0.058226,-93.530083,-45.346989,94.559242,-0.635125,0.262075,0.673018,-0.273824
1295,6.927092,-6.829354,-0.413892,-0.000551,-0.056975,0.046013,-93.528671,-45.345600,94.559540,-0.635123,0.262074,0.673013,-0.273842
1296,6.922925,-6.828808,-0.407943,-0.006620,-0.056939,0.050592,-93.524887,-45.343983,94.558022,-0.635131,0.262071,0.672997,-0.273865
1297,6.927807,-6.825348,-0.409067,0.011733,-0.050792,0.052109,-93.519669,-45.343071,94.555557,-0.635147,0.262062,0.672977,-0.273887
1298,6.927169,-6.825109,-0.406548,0.001095,-0.040066,0.052086,-93.514023,-45.343342,94.552681,-0.635167,0.262046,0.672958,-0.273903
1299,6.925517,-6.824575,-0.408990,-0.012598,-0.036972,0.044434,-93.508904,-45.343571,94.549728,-0.635187,0.262033,0.672939,-0.273915
1300,6.921263,-6.819657,-0.409801,0.004218,-0.009473,0.048992,-93.504585,-45.343781,94.547043,-0.635203,0.262024,0.672923,-0.273924
1301,6.924933,-6.824248,-0.410447,0.036290,-0.004866,0.059653,-93.499619,-45.343712,94.544067,-0.635222,0.262014,0.672904,-0.273938
1302,6.925224,-6.833167,-0.405120,0.036325,-0.003304,0.056597,-93.492775,-45.342224,94.540077,-0.635243,0.262008,0.672876,-0.273964
1303,6.923329,-6.831134,-0.408774,0.063827,-0.020053,0.048979,-93.485550,-45.339771,94.536316,-0.635262,0.262004,0.672845,-0.273999
1304,6.924006,-6.829829,-0.407077,0.069960,-0.018498,0.050508,-93.479111,-45.337833,94.533714,-0.635277,0.261995,0.672820,-0.274034
1305,6.925555,-6.827946,-0.408259,0.073040,-0.021522,0.044399,-93.472908,-45.336864,94.531395,-0.635294,0.261980,0.672798,-0.274063
1306,6.924998,-6.820174,-0.410576,0.054746,-0.018450,0.033692,-93.468521,-45.337711,94.530197,-0.635309,0.261957,0.672787,-0.274077
1307,6.924537,-6.817996,-0.414084,0.047121,-0.024547,0.041278,-93.466782,-45.339825,94.530617,-0.635318,0.261933,0.672788,-0.274078
1308,6.927936,-6.815120,-0.411498,0.034914,-0.006232,0.047327,-93.465698,-45.342720,94.531113,-0.635327,0.261908,0.672792,-0.274070
1309,6.928714,-6.816752,-0.414011,0.034915,-0.007754,0.033532,-93.464630,-45.346355,94.531296,-0.635339,0.261880,0.672797,-0.274057
1310,6.927517,-6.817700,-0.413187,0.018127,-0.016909,0.036529,-93.464546,-45.349503,94.532104,-0.635346,0.261857,0.672804,-0.274044
1311,6.925537,-6.828746,-0.406208,0.019665,-0.024525,0.038030,-93.462631,-45.350285,94.531624,-0.635354,0.261845,0.672800,-0.274048
1312,6.925345,-6.819176,-0.402135,0.018169,-0.016863,0.034961,-93.457703,-45.350555,94.528999,-0.635372,0.261831,0.672783,-0.274061
1313,6.921653,-6.821453,-0.401595,-0.010788,-0.029033,0.037990,-93.452415,-45.351311,94.525803,-0.635394,0.261816,0.672765,-0.274070
1314,6.921060,-6.822623,-0.400880,-0.021433,-0.022891,0.062396,-93.447792,-45.350506,94.522682,-0.635410,0.261814,0.672745,-0.274085
1315,6.921413,-6.824693,-0.398338,-0.016814,-0.033532,0.057815,-93.442688,-45.348896,94.519165,-0.635426,0.261815,0.672721,-0.274104
1316,6.921853,-6.816690,-0.403530,-0.033565,-0.044178,0.056273,-93.439308,-45.348373,94.516991,-0.635437,0.261812,0.672707,-0.274115
1317,6.921497,-6.821383,-0.407624,-0.059491,-0.051791,0.048621,-93.439896,-45.348450,94.517349,-0.635435,0.261813,0.672710,-0.274113
1318,6.919684,-6.822911,-0.405002,-0.035063,-0.045674,0.042508,-93.440941,-45.347588,94.518051,-0.635429,0.261819,0.672712,-0.274116
1319,6.920470,-6.819519,-0.404634,-0.021313,-0.048707,0.028765,-93.440460,-45.347229,94.518097,-0.635429,0.261819,0.672710,-0.274121
1320,6.920954,-6.814366,-0.401623,-0.036548,-0.042578,0.031789,-93.439148,-45.348488,94.517502,-0.635437,0.261808,0.672708,-0.274118
1321,6.919944,-6.819621,-0.401269,-0.028891,-0.039495,0.027184,-93.436920,-45.349705,94.516068,-0.635448,0.261797,0.672702,-0.274116
1322,6.919352,-6.819635,-0.401761,-0.022759,-0.028785,0.033275,-93.434303,-45.349857,94.514343,-0.635459,0.261791,0.672692,-0.274121
1323,6.921072,-6.818238,-0.406192,-0.033421,-0.028765,0.036308,-93.433121,-45.350136,94.513458,-0.635464,0.261789,0.672688,-0.274122
1324,6.922540,-6.815275,-0.402677,-0.054768,-0.039428,0.037803,-93.433098,-45.351349,94.513138,-0.635469,0.261783,0.672689,-0.274113
1325,6.924437,-6.818987,-0.406009,-0.042545,-0.043988,0.042347,-93.433479,-45.352768,94.513168,-0.635472,0.261777,0.672693,-0.274103
1326,6.922432,-6.813665,-0.405213,-0.027275,-0.034818,0.051466,-93.434013,-45.354057,94.513588,-0.635473,0.261770,0.672698,-0.274095
1327,6.925638,-6.820006,-0.405141,-0.015054,-0.042432,0.052957,-93.433777,-45.355118,94.513741,-0.635476,0.261762,0.672700,-0.274091
1328,6.929484,-6.819939,-0.405915,-0.021145,-0.051572,0.045293,-93.433792,-45.356270,94.514359,-0.635478,0.261752,0.672704,-0.274088
1329,6.925929,-6.820258,-0.408510,-0.019612,-0.046986,0.037629,-93.434937,-45.357582,94.515778,-0.635475,0.261742,0.672712,-0.274082
1330,6.925715,-6.817094,-0.405026,-0.022655,-0.048502,0.026916,-93.435822,-45.359001,94.516983,-0.635474,0.261732,0.672720,-0.274075
1331,6.928567,-6.821595,-0.407254,-0.036377,-0.056118,0.020779,-93.436722,-45.360798,94.518112,-0.635474,0.261720,0.672728,-0.274066
1332,6.929218,-6.813398,-0.402078,-0.050095,-0.063729,0.016157,-93.437531,-45.363663,94.519020,-0.635478,0.261703,0.672737,-0.274050
1333,6.931967,-6.815538,-0.399372,-0.048540,-0.069799,0.035936,-93.436592,-45.367485,94.518723,-0.635492,0.261678,0.672742,-0.274032
1334,6.932961,-6.817732,-0.399590,-0.030193,-0.075865,0.037407,-93.434753,-45.370663,94.518127,-0.635506,0.261653,0.672742,-0.274022
1335,6.933906,-6.822160,-0.402697,-0.042373,-0.075834,0.038890,-93.433823,-45.372864,94.518326,-0.635514,0.261634,0.672745,-0.274016
1336,6.929359,-6.815024,-0.401951,-0.045402,-0.072755,0.037324,-93.433868,-45.374729,94.518997,-0.635517,0.261619,0.672750,-0.274009
1337,6.927083,-6.817786,-0.407771,-0.031653,-0.069687,0.035764,-93.435165,-45.376163,94.520622,-0.635514,0.261609,0.672760,-0.274002
1338,6.920835,-6.819514,-0.404989,-0.008755,-0.062046,0.025073,-93.436424,-45.375889,94.522530,-0.635506,0.261606,0.672767,-0.274007
1339,6.924587,-6.818592,-0.399981,-0.013308,-0.063548,0.028121,-93.434982,-45.375298,94.522675,-0.635507,0.261601,0.672762,-0.274019
1340,6.925605,-6.813226,-0.401059,-0.013278,-0.060464,0.035728,-93.432587,-45.376129,94.522064,-0.635516,0.261586,0.672757,-0.274025
1341,6.928746,-6.815837,-0.400153,-0.008673,-0.063485,0.043321,-93.430344,-45.377663,94.521591,-0.635527,0.261568,0.672753,-0.274027
1342,6.927691,-6.817311,-0.391853,-0.008629,-0.058861,0.043290,-93.425507,-45.378784,94.519310,-0.635546,0.261548,0.672739,-0.274036
1343,6.930388,-6.816944,-0.396505,-0.022313,-0.071017,0.041734,-93.420219,-45.379940,94.516632,-0.635568,0.261528,0.672722,-0.274046
1344,6.928164,-6.822853,-0.402920,-0.000922,-0.051150,0.040186,-93.418015,-45.380287,94.516167,-0.635575,0.261516,0.672717,-0.274054
1345,6.922612,-6.823114,-0.408443,0.058596,-0.025203,0.037138,-93.417168,-45.378670,94.517082,-0.635570,0.261516,0.672714,-0.274074
1346,6.924834,-6.828421,-0.407668,0.186772,0.052617,0.024950,-93.412788,-45.376167,94.516525,-0.635575,0.261509,0.672697,-0.274110
1347,6.922128,-6.827689,-0.412057,0.221860,0.066341,0.034130,-93.405251,-45.373203,94.514572,-0.635589,0.261496,0.672669,-0.274161
1348,6.922791,-6.823950,-0.411813,0.205057,0.075476,0.038727,-93.398651,-45.370533,94.513214,-0.635600,0.261482,0.672645,-0.274207
1349,6.920816,-6.817657,-0.405596,0.173002,0.058679,0.034150,-93.391823,-45.369316,94.511238,-0.635617,0.261463,0.672621,-0.274243
1350,6.925215,-6.822525,-0.398033,0.130286,0.029698,0.040247,-93.383644,-45.368805,94.507919,-0.635642,0.261440,0.672593,-0.274276
1351,6.924987,-6.817389,-0.395518,-0.010077,-0.049626,0.050913,-93.378014,-45.368664,94.505516,-0.635660,0.261424,0.672574,-0.274296
1352,6.928683,-6.824188,-0.395797,-0.042095,-0.069437,0.043263,-93.376740,-45.368660,94.505310,-0.635663,0.261418,0.672570,-0.274303
1353,6.928164,-6.824409,-0.392793,-0.025281,-0.077035,0.040199,-93.375526,-45.368279,94.505302,-0.635665,0.261413,0.672567,-0.274312
1354,6.926936,-6.819911,-0.395236,-0.009993,-0.078531,0.047811,-93.373947,-45.368202,94.505516,-0.635668,0.261404,0.672563,-0.274323
1355,6.925334,-6.820034,-0.392011,-0.019119,-0.073923,0.031005,-93.372162,-45.368511,94.505630,-0.635673,0.261391,0.672560,-0.274332
1356,6.926746,-6.823406,-0.395232,-0.023667,-0.069314,0.015732,-93.370537,-45.368858,94.505623,-0.635677,0.261380,0.672557,-0.274339
1357,6.928327,-6.818820,-0.392923,-0.026693,-0.063182,0.017237,-93.369247,-45.369984,94.505630,-0.635683,0.261367,0.672556,-0.274341
1358,6.929895,-6.818217,-0.394222,-0.026666,-0.070782,0.020254,-93.367935,-45.372147,94.505600,-0.635692,0.261347,0.672557,-0.274336
1359,6.933156,-6.820249,-0.393917,-0.028167,-0.073806,0.012585,-93.367180,-45.374733,94.506073,-0.635700,0.261325,0.672561,-0.274328
1360,6.931901,-6.819842,-0.398882,-0.014416,-0.078364,0.021703,-93.367668,-45.377140,94.507675,-0.635702,0.261305,0.672571,-0.274321
1361,6.926790,-6.817935,-0.395363,-0.003721,-0.067667,0.032355,-93.368095,-45.378487,94.509422,-0.635700,0.261289,0.672578,-0.274320
1362,6.923066,-6.825689,-0.395534,0.003930,-0.076801,0.033879,-93.367111,-45.377514,94.510368,-0.635697,0.261284,0.672576,-0.274337
1363,6.921214,-6.829917,-0.395920,0.016158,-0.059997,0.032381,-93.365639,-45.374084,94.511108,-0.635690,0.261291,0.672568,-0.274369
1364,6.923538,-6.838103,-0.391039,0.010084,-0.050815,0.037007,-93.362259,-45.369148,94.510269,-0.635686,0.261306,0.672548,-0.274412
1365,6.925513,-6.835722,-0.388960,-0.008187,-0.044672,0.032476,-93.357147,-45.364342,94.507721,-0.635691,0.261320,0.672521,-0.274455
1366,6.926649,-6.836077,-0.392674,-0.008151,-0.061422,0.027931,-93.353302,-45.360691,94.505981,-0.635693,0.261329,0.672500,-0.274489
1367,6.928552,-6.827999,-0.391211,-0.029483,-0.056815,0.034047,-93.351074,-45.358772,94.505302,-0.635695,0.261332,0.672490,-0.274509
1368,6.929823,-6.827373,-0.388418,-0.053865,-0.056779,0.021829,-93.348686,-45.358826,94.503891,-0.635704,0.261327,0.672481,-0.274515
1369,6.929828,-6.824255,-0.391920,-0.041625,-0.064375,0.038592,-93.347031,-45.359554,94.502968,-0.635712,0.261319,0.672476,-0.274515
1370,6.929873,-6.827281,-0.392033,-0.026341,-0.064348,0.035519,-93.346184,-45.360004,94.503006,-0.635715,0.261311,0.672475,-0.274518
1371,6.931378,-6.829769,-0.385733,-0.024779,-0.064311,0.027875,-93.343315,-45.360092,94.501823,-0.635724,0.261302,0.672466,-0.274528
1372,6.927539,-6.831402,-0.392427,-0.029322,-0.061224,0.027873,-93.340660,-45.359402,94.500732,-0.635731,0.261297,0.672456,-0.274541
1373,6.928130,-6.830925,-0.392297,-0.020144,-0.070357,0.030930,-93.339989,-45.358006,94.501167,-0.635728,0.261299,0.672452,-0.274556
1374,6.926560,-6.827944,-0.394502,-0.030806,-0.062709,0.012619,-93.340141,-45.357265,94.502190,-0.635723,0.261298,0.672453,-0.274565
1375,6.928891,-6.822550,-0.395194,-0.038424,-0.070326,0.012602,-93.341560,-45.358135,94.503922,-0.635718,0.261291,0.672463,-0.274561
1376,6.932671,-6.818467,-0.403812,-0.044533,-0.073379,0.017136,-93.346092,-45.361015,94.507820,-0.635706,0.261277,0.672488,-0.274540
1377,6.934398,-6.817474,-0.399806,-0.023182,-0.077966,0.014023,-93.351669,-45.365170,94.512726,-0.635693,0.261255,0.672521,-0.274511
1378,6.936814,-6.815012,-0.403624,-0.017088,-0.070343,0.015478,-93.356407,-45.370171,94.517334,-0.635685,0.261226,0.672552,-0.274480
1379,6.933124,-6.817983,-0.402479,-0.020152,-0.071877,0.018466,-93.361382,-45.374535,94.522079,-0.635674,0.261201,0.672583,-0.274452
1380,6.926157,-6.815102,-0.404299,-0.011008,-0.068835,0.030632,-93.366081,-45.376846,94.526672,-0.635659,0.261186,0.672610,-0.274437
1381,6.921745,-6.819704,-0.401356,0.010347,-0.061211,0.041298,-93.369400,-45.376762,94.530487,-0.635642,0.261183,0.672626,-0.274439
1382,6.927084,-6.822872,-0.402819,0.002715,-0.068843,0.047399,-93.371666,-45.375381,94.533714,-0.635625,0.261184,0.672636,-0.274452
1383,6.922359,-6.820277,-0.401826,-0.003391,-0.071897,0.055024,-93.374268,-45.373817,94.537132,-0.635607,0.261188,0.672647,-0.274464
1384,6.928373,-6.820521,-0.403042,-0.000340,-0.065794,0.061117,-93.376793,-45.372623,94.540413,-0.635590,0.261189,0.672658,-0.274474
1385,6.935279,-6.825745,-0.403025,-0.012549,-0.067321,0.051936,-93.379463,-45.372585,94.543648,-0.635576,0.261185,0.672672,-0.274477
1386,6.938932,-6.822177,-0.402123,-0.036963,-0.067317,0.044267,-93.382332,-45.374104,94.546608,-0.635567,0.261175,0.672689,-0.274468
1387,6.934883,-6.816774,-0.400883,-0.044589,-0.053575,0.028953,-93.384895,-45.377171,94.548820,-0.635564,0.261159,0.672706,-0.274448
1388,6.934579,-6.825768,-0.404364,-0.036956,-0.055097,0.036543,-93.387650,-45.379120,94.551041,-0.635558,0.261150,0.672721,-0.274433
1389,6.930807,-6.820147,-0.406011,-0.038488,-0.073412,0.033467,-93.391830,-45.379734,94.554565,-0.635541,0.261149,0.672741,-0.274424
1391,6.929180,-6.824018,-0.405791,-0.049175,-0.082573,0.031925,-93.396873,-45.379795,94.558899,-0.635520,0.261151,0.672763,-0.274418
1392,6.925633,-6.825264,-0.408022,-0.050708,-0.088684,0.028874,-93.402542,-45.378448,94.563713,-0.635492,0.261162,0.672785,-0.274419
1393,6.927357,-6.822190,-0.405828,-0.030877,-0.110053,0.033453,-93.408073,-45.377102,94.568947,-0.635463,0.261170,0.672807,-0.274424
1394,6.927553,-6.816787,-0.399570,-0.058334,-0.116144,0.010547,-93.411598,-45.377644,94.573021,-0.635446,0.261162,0.672826,-0.274422
1395,6.926930,-6.823782,-0.399445,-0.084251,-0.116119,0.004428,-93.414047,-45.378448,94.575768,-0.635436,0.261155,0.672840,-0.274419
1396,6.927373,-6.824102,-0.396544,-0.070486,-0.103881,0.015108,-93.415321,-45.378124,94.577400,-0.635429,0.261154,0.672846,-0.274422
1397,6.929812,-6.825002,-0.398547,-0.061297,-0.105373,0.021209,-93.415619,-45.377762,94.578476,-0.635425,0.261152,0.672848,-0.274428
1398,6.930543,-6.824416,-0.399981,-0.081107,-0.090085,0.019674,-93.416756,-45.377716,94.579849,-0.635419,0.261150,0.672854,-0.274430
1399,6.932981,-6.822134,-0.396688,-0.053609,-0.085475,0.028810,-93.416901,-45.378426,94.580360,-0.635419,0.261144,0.672857,-0.274428
1400,6.929471,-6.823454,-0.392892,-0.021522,-0.079326,0.039473,-93.413864,-45.378857,94.579193,-0.635430,0.261132,0.672848,-0.274437
1401,6.928398,-6.823246,-0.393514,-0.018422,-0.086906,0.034886,-93.409431,-45.378376,94.577461,-0.635443,0.261120,0.672832,-0.274456
1402,6.928948,-6.821939,-0.391338,-0.022951,-0.086856,0.036401,-93.405006,-45.378090,94.575798,-0.635456,0.261107,0.672817,-0.274474
1403,6.929580,-6.829286,-0.394805,-0.032060,-0.086809,0.040977,-93.401344,-45.377041,94.574524,-0.635465,0.261100,0.672804,-0.274494
1404,6.925200,-6.829743,-0.398258,-0.045761,-0.083725,0.044046,-93.400078,-45.374252,94.574623,-0.635460,0.261108,0.672795,-0.274518
1405,6.930696,-6.825123,-0.401664,-0.054897,-0.082179,0.030319,-93.401276,-45.372444,94.576172,-0.635448,0.261116,0.672798,-0.274530
1406,6.933197,-6.825415,-0.400171,-0.062510,-0.076058,0.034880,-93.403229,-45.372643,94.577972,-0.635440,0.261115,0.672807,-0.274527
1407,6.926845,-6.822530,-0.403185,-0.050289,-0.076043,0.036390,-93.405365,-45.372616,94.579872,-0.635430,0.261116,0.672817,-0.274526
1408,6.924278,-6.825673,-0.396476,-0.021276,-0.071444,0.047072,-93.405548,-45.371147,94.580826,-0.635424,0.261120,0.672817,-0.274538
1409,6.928082,-6.822234,-0.397620,-0.012089,-0.063783,0.047070,-93.403267,-45.369835,94.580330,-0.635427,0.261118,0.672807,-0.274556
1410,6.927084,-6.821886,-0.395228,-0.024264,-0.062223,0.044002,-93.400665,-45.369595,94.579453,-0.635434,0.261110,0.672799,-0.274568
1411,6.922378,-6.820572,-0.394353,-0.034909,-0.063711,0.040941,-93.397705,-45.368973,94.578056,-0.635442,0.261105,0.672787,-0.274581
1412,6.926641,-6.818732,-0.392472,-0.036394,-0.065196,0.039400,-93.394485,-45.368858,94.576370,-0.635453,0.261098,0.672775,-0.274591
1413,6.925196,-6.810490,-0.391793,-0.047034,-0.077358,0.034785,-93.391365,-45.370682,94.574783,-0.635469,0.261079,0.672768,-0.274590
1414,6.923533,-6.811916,-0.391459,-0.053096,-0.080364,0.030163,-93.388832,-45.373119,94.573578,-0.635485,0.261059,0.672764,-0.274585
1415,6.920838,-6.814771,-0.392947,-0.040849,-0.080323,0.039293,-93.386658,-45.374119,94.572754,-0.635494,0.261046,0.672759,-0.274587
1416,6.922829,-6.811706,-0.392677,-0.019450,-0.077233,0.030113,-93.384399,-45.374939,94.572227,-0.635503,0.261032,0.672754,-0.274593
1417,6.922684,-6.818459,-0.392665,-0.025518,-0.072617,0.028567,-93.381737,-45.375614,94.571495,-0.635512,0.261017,0.672747,-0.274601
1418,6.922046,-6.824005,-0.401341,-0.027022,-0.071069,0.019414,-93.381523,-45.374546,94.572380,-0.635508,0.261017,0.672746,-0.274613
1419,6.921652,-6.828909,-0.402543,-0.017861,-0.064963,0.028593,-93.383736,-45.371803,94.574966,-0.635489,0.261030,0.672752,-0.274630
1420,6.925481,-6.826176,-0.404769,-0.001077,-0.066490,0.036241,-93.386261,-45.369061,94.578033,-0.635469,0.261041,0.672760,-0.274648
1421,6.922175,-6.830193,-0.404338,0.000447,-0.080227,0.045415,-93.389030,-45.366081,94.581665,-0.635445,0.261052,0.672769,-0.274668
1422,6.920474,-6.832294,-0.400628,0.006558,-0.078696,0.043925,-93.390457,-45.361652,94.584557,-0.635423,0.261069,0.672770,-0.274701
1423,6.920064,-6.831351,-0.397987,0.008102,-0.069525,0.043963,-93.389633,-45.357086,94.585808,-0.635409,0.261083,0.672762,-0.274739
1424,6.920592,-6.827607,-0.396660,0.003549,-0.083234,0.043988,-93.387886,-45.353531,94.586433,-0.635402,0.261090,0.672753,-0.274773
1425,6.919745,-6.834383,-0.397865,-0.011685,-0.090839,0.028757,-93.386848,-45.350010,94.587585,-0.635392,0.261097,0.672746,-0.274805
1426,6.921086,-6.833213,-0.400615,-0.020824,-0.080142,0.019636,-93.387299,-45.346386,94.589485,-0.635377,0.261110,0.672744,-0.274834
1427,6.926056,-6.830028,-0.407763,-0.019297,-0.074038,0.019649,-93.390450,-45.344566,94.593018,-0.635356,0.261117,0.672756,-0.274845
1428,6.929435,-6.827025,-0.403852,-0.029983,-0.070991,0.019634,-93.394478,-45.344917,94.596977,-0.635338,0.261114,0.672776,-0.274841
1429,6.932196,-6.827206,-0.403922,-0.052870,-0.070987,0.010447,-93.397774,-45.346752,94.599976,-0.635329,0.261104,0.672794,-0.274828
1430,6.936058,-6.818127,-0.397846,-0.055907,-0.060288,0.011916,-93.399536,-45.350853,94.601471,-0.635332,0.261081,0.672810,-0.274803
1431,6.936471,-6.820572,-0.399159,-0.061989,-0.064839,0.016421,-93.399979,-45.356216,94.601822,-0.635345,0.261051,0.672822,-0.274772
1432,6.934560,-6.819396,-0.392326,-0.057380,-0.073957,0.017883,-93.399025,-45.360817,94.601326,-0.635361,0.261022,0.672827,-0.274749
1433,6.931925,-6.820025,-0.391891,-0.042075,-0.075434,0.020882,-93.395912,-45.364506,94.599655,-0.635382,0.260994,0.672823,-0.274737
1434,6.931972,-6.824670,-0.390554,-0.017612,-0.061651,0.028476,-93.391479,-45.366680,94.597359,-0.635404,0.260970,0.672812,-0.274738
1435,6.927210,-6.825585,-0.391964,-0.002307,-0.058551,0.031512,-93.386269,-45.367069,94.594772,-0.635423,0.260954,0.672794,-0.274752
1436,6.926749,-6.821498,-0.388848,0.003843,-0.049348,0.037603,-93.380379,-45.366978,94.591820,-0.635443,0.260940,0.672773,-0.274770
1437,6.926163,-6.822325,-0.388978,-0.011366,-0.047771,0.048268,-93.374023,-45.366932,94.588287,-0.635466,0.260925,0.672750,-0.274788
1438,6.927701,-6.820667,-0.389194,-0.026579,-0.044671,0.046724,-93.368614,-45.366989,94.584991,-0.635486,0.260914,0.672729,-0.274802
1439,6.927061,-6.824071,-0.391368,-0.034168,-0.055310,0.037551,-93.364746,-45.367088,94.582634,-0.635501,0.260906,0.672715,-0.274811
1440,6.926863,-6.827794,-0.390640,-0.026503,-0.062903,0.042125,-93.361794,-45.366108,94.581139,-0.635509,0.260904,0.672702,-0.274825
1441,6.924233,-6.826922,-0.392015,-0.009683,-0.061343,0.052812,-93.358871,-45.364113,94.580017,-0.635513,0.260906,0.672689,-0.274848
1442,6.921309,-6.828863,-0.395198,0.002550,-0.044533,0.043673,-93.356606,-45.361244,94.579498,-0.635511,0.260913,0.672677,-0.274874
1443,6.919775,-6.836015,-0.398343,0.016297,-0.044521,0.055917,-93.355415,-45.356583,94.579849,-0.635500,0.260931,0.672666,-0.274910
1444,6.916455,-6.829910,-0.398537,0.016305,-0.035360,0.063592,-93.354836,-45.350990,94.580673,-0.635484,0.260955,0.672655,-0.274949
1445,6.914898,-6.829709,-0.398807,0.019363,-0.027726,0.060577,-93.354225,-45.345901,94.581314,-0.635470,0.260977,0.672645,-0.274985
1446,6.920158,-6.832376,-0.395090,0.017848,-0.035346,0.037719,-93.352638,-45.341789,94.581299,-0.635463,0.260992,0.672634,-0.275018
1447,6.920104,-6.827612,-0.396066,0.005657,-0.053641,0.033156,-93.351105,-45.339439,94.581474,-0.635459,0.260996,0.672626,-0.275041
1448,6.920201,-6.815056,-0.398502,-0.005017,-0.053633,0.020930,-93.351608,-45.339962,94.583061,-0.635456,0.260986,0.672632,-0.275044
1449,6.919502,-6.815773,-0.399236,0.002614,-0.065837,0.028521,-93.353477,-45.342155,94.585724,-0.635451,0.260968,0.672646,-0.275035
1450,6.924228,-6.814208,-0.404457,-0.030966,-0.071947,0.034578,-93.357674,-45.344635,94.589943,-0.635438,0.260953,0.672671,-0.275020
1451,6.919981,-6.815247,-0.408268,-0.050827,-0.062813,0.043688,-93.365021,-45.346783,94.595726,-0.635414,0.260947,0.672706,-0.274997
1452,6.922882,-6.815259,-0.401466,-0.041686,-0.055197,0.058907,-93.371010,-45.348076,94.600197,-0.635393,0.260947,0.672733,-0.274979
1453,6.924028,-6.821281,-0.400227,-0.035581,-0.059771,0.060398,-93.373886,-45.348755,94.602577,-0.635382,0.260945,0.672747,-0.274972
1454,6.925528,-6.822032,-0.395257,-0.043197,-0.050599,0.051216,-93.374580,-45.348980,94.603355,-0.635379,0.260943,0.672750,-0.274971
1455,6.923585,-6.820323,-0.395175,-0.038595,-0.052099,0.040508,-93.373703,-45.349625,94.602898,-0.635384,0.260937,0.672749,-0.274969
1456,6.930031,-6.819148,-0.394458,-0.030941,-0.053597,0.046572,-93.372498,-45.351345,94.602394,-0.635393,0.260923,0.672748,-0.274964
1457,6.933628,-6.820582,-0.393064,-0.029385,-0.047462,0.037361,-93.370552,-45.354401,94.601418,-0.635408,0.260901,0.672747,-0.274953
1458,6.931674,-6.816787,-0.394313,-0.038514,-0.052009,0.029671,-93.368828,-45.358143,94.600502,-0.635425,0.260875,0.672748,-0.274936
1459,6.934125,-6.813994,-0.400903,-0.032397,-0.059621,0.026550,-93.369781,-45.362751,94.601608,-0.635432,0.260848,0.672762,-0.274911
1460,6.936084,-6.819757,-0.398083,-0.015606,-0.051981,0.037163,-93.371368,-45.367111,94.603432,-0.635436,0.260821,0.672778,-0.274887
1461,6.933910,-6.817132,-0.399574,-0.015596,-0.058072,0.038629,-93.372139,-45.370529,94.604836,-0.635441,0.260797,0.672790,-0.274871
1462,6.929228,-6.822015,-0.402662,-0.007965,-0.065697,0.037063,-93.374168,-45.372372,94.607399,-0.635435,0.260783,0.672804,-0.274863
1463,6.932780,-6.829730,-0.400290,0.011875,-0.059589,0.043154,-93.375664,-45.372040,94.609924,-0.635424,0.260778,0.672813,-0.274870
1464,6.933506,-6.829951,-0.400518,0.027143,-0.044321,0.035517,-93.375381,-45.371212,94.611343,-0.635419,0.260773,0.672814,-0.274884
1465,6.932026,-6.823887,-0.395135,0.046997,-0.041252,0.024819,-93.372818,-45.371490,94.611351,-0.635426,0.260757,0.672808,-0.274898
1466,6.934754,-6.823706,-0.393278,0.060758,-0.030540,0.011056,-93.367676,-45.373322,94.609795,-0.635446,0.260727,0.672796,-0.274909
1467,6.937745,-6.816943,-0.399626,0.045516,-0.028992,0.009479,-93.363991,-45.377064,94.609116,-0.635467,0.260690,0.672793,-0.274905
1468,6.932176,-6.818468,-0.402736,0.043990,-0.032042,0.014004,-93.363632,-45.380867,94.610626,-0.635474,0.260657,0.672803,-0.274894
1469,6.930975,-6.814153,-0.398429,0.031783,-0.032039,0.030747,-93.363373,-45.383530,94.612053,-0.635479,0.260632,0.672811,-0.274889
1470,6.931869,-6.812893,-0.403598,0.001261,-0.039668,0.033748,-93.364288,-45.386360,94.613884,-0.635480,0.260610,0.672822,-0.274877
1471,6.925550,-6.813029,-0.405881,-0.014013,-0.042733,0.035234,-93.368217,-45.388287,94.617447,-0.635468,0.260600,0.672844,-0.274863
1472,6.928371,-6.814335,-0.400645,-0.001814,-0.038162,0.041308,-93.371162,-45.389267,94.620255,-0.635457,0.260594,0.672859,-0.274856
1473,6.933262,-6.815733,-0.397540,0.004297,-0.036626,0.047374,-93.371071,-45.390701,94.621033,-0.635459,0.260581,0.672863,-0.274853
1474,6.931064,-6.820090,-0.398776,-0.001795,-0.048819,0.038189,-93.370461,-45.391682,94.621559,-0.635462,0.260569,0.672865,-0.274854
1475,6.929295,-6.824992,-0.395905,0.005851,-0.047278,0.044287,-93.369408,-45.390797,94.621933,-0.635461,0.260566,0.672862,-0.274867
1476,6.932696,-6.821076,-0.394526,0.016555,-0.044203,0.045805,-93.366844,-45.389919,94.621376,-0.635466,0.260560,0.672853,-0.274884
1477,6.923730,-6.825995,-0.391304,0.010480,-0.050277,0.033601,-93.363068,-45.388393,94.620064,-0.635474,0.260555,0.672837,-0.274907
1478,6.924660,-6.822381,-0.392861,-0.021532,-0.053298,0.030568,-93.359825,-45.385918,94.618790,-0.635477,0.260559,0.672822,-0.274933
1479,6.927512,-6.828038,-0.393882,-0.019980,-0.047168,0.036684,-93.357956,-45.383743,94.618080,-0.635477,0.260565,0.672812,-0.274953
1480,6.929822,-6.823328,-0.392404,-0.015376,-0.050194,0.042792,-93.355949,-45.382111,94.617325,-0.635479,0.260568,0.672802,-0.274969
1481,6.930181,-6.826210,-0.389499,-0.029078,-0.059316,0.039735,-93.353233,-45.381207,94.616089,-0.635486,0.260565,0.672791,-0.274984
1482,6.934421,-6.822917,-0.395937,-0.030579,-0.054712,0.045824,-93.351982,-45.380978,94.615761,-0.635489,0.260562,0.672787,-0.274990
1483,6.933297,-6.827829,-0.396308,-0.013781,-0.045543,0.045806,-93.352257,-45.380867,94.616539,-0.635486,0.260559,0.672789,-0.274994
1484,6.932913,-6.823025,-0.390902,-0.012233,-0.051625,0.033583,-93.350800,-45.380768,94.616272,-0.635490,0.260553,0.672785,-0.275001
1485,6.930188,-6.828816,-0.395880,-0.019841,-0.048550,0.022894,-93.349442,-45.380520,94.616058,-0.635493,0.260548,0.672780,-0.275010
1486,6.932889,-6.831572,-0.397633,-0.018305,-0.047014,0.029003,-93.349915,-45.379086,94.617020,-0.635485,0.260553,0.672781,-0.275020
1488,6.935547,-6.834652,-0.396011,-0.004561,-0.050055,0.032062,-93.350143,-45.377502,94.618011,-0.635478,0.260558,0.672781,-0.275034
1489,6.934897,-6.826026,-0.392547,-0.019801,-0.048509,0.018321,-93.349075,-45.377277,94.618080,-0.635480,0.260553,0.672778,-0.275041
1490,6.932475,-6.827738,-0.397649,-0.030466,-0.048493,0.028988,-93.348999,-45.377689,94.618530,-0.635480,0.260548,0.672779,-0.275042
1491,6.932044,-6.826207,-0.394045,-0.033506,-0.053057,0.024400,-93.349686,-45.377560,94.619408,-0.635476,0.260547,0.672783,-0.275044
1492,6.924261,-6.823469,-0.397446,-0.038071,-0.049993,0.030501,-93.350510,-45.376858,94.620316,-0.635470,0.260550,0.672786,-0.275048
1493,6.919662,-6.816599,-0.401280,-0.064013,-0.049993,0.035079,-93.353912,-45.375584,94.622643,-0.635453,0.260563,0.672796,-0.275048
1494,6.921546,-6.820421,-0.403528,-0.044186,-0.053055,0.044233,-93.359055,-45.374146,94.626175,-0.635429,0.260579,0.672814,-0.275045
1495,6.920478,-6.821719,-0.403062,-0.024360,-0.062223,0.036610,-93.363876,-45.372147,94.630081,-0.635403,0.260594,0.672831,-0.275050
1496,6.922903,-6.821918,-0.404825,-0.013690,-0.056130,0.050349,-93.368233,-45.370117,94.634056,-0.635378,0.260606,0.672846,-0.275058
1497,6.927875,-6.824974,-0.405813,-0.009125,-0.060722,0.035086,-93.372726,-45.368797,94.638290,-0.635354,0.260614,0.672864,-0.275063
1498,6.928062,-6.826908,-0.400141,-0.007603,-0.063777,0.030503,-93.375587,-45.367962,94.641541,-0.635338,0.260616,0.672877,-0.275069
1499,6.927001,-6.825142,-0.394620,-0.012163,-0.068337,0.018292,-93.375275,-45.367428,94.642593,-0.635334,0.260611,0.672877,-0.275079
1500,6.929909,-6.828686,-0.393234,-0.009081,-0.051520,0.021340,-93.372734,-45.367165,94.641899,-0.635341,0.260602,0.672869,-0.275092
1501,6.926274,-6.824921,-0.394273,-0.012103,-0.049964,0.024388,-93.369888,-45.366776,94.640785,-0.635349,0.260595,0.672859,-0.275105
1502,6.928112,-6.823459,-0.390024,0.004716,-0.048403,0.030481,-93.366119,-45.366768,94.639130,-0.635362,0.260584,0.672846,-0.275118
1503,6.931056,-6.820257,-0.389496,0.006282,-0.048360,0.019772,-93.360985,-45.368195,94.636696,-0.635383,0.260562,0.672831,-0.275126
1504,6.931795,-6.821293,-0.389842,-0.016568,-0.052897,0.025839,-93.356567,-45.370468,94.634590,-0.635404,0.260537,0.672820,-0.275128
1505,6.932333,-6.812816,-0.394069,-0.037903,-0.052866,0.030367,-93.354675,-45.373604,94.633797,-0.635419,0.260513,0.672820,-0.275117
1506,6.935051,-6.811589,-0.392455,-0.039408,-0.054366,0.027244,-93.354263,-45.378319,94.633797,-0.635433,0.260484,0.672828,-0.275092
1507,6.930277,-6.812383,-0.393143,-0.050068,-0.054339,0.034808,-93.353920,-45.382484,94.633713,-0.635445,0.260458,0.672835,-0.275070
1508,6.927104,-6.817097,-0.392949,-0.040890,-0.042108,0.043926,-93.353439,-45.384220,94.633369,-0.635452,0.260448,0.672837,-0.275061
1509,6.926879,-6.823180,-0.396435,-0.034769,-0.028356,0.048493,-93.353020,-45.383553,94.632935,-0.635452,0.260452,0.672833,-0.275065
1510,6.926072,-6.831185,-0.390647,-0.040851,-0.023756,0.042406,-93.351463,-45.380806,94.631477,-0.635452,0.260467,0.672821,-0.275082
1511,6.926774,-6.833188,-0.395933,-0.048457,-0.022208,0.043964,-93.349792,-45.376850,94.629700,-0.635449,0.260491,0.672805,-0.275104
1512,6.928491,-6.834794,-0.397103,-0.049971,-0.013042,0.040943,-93.349937,-45.372925,94.628998,-0.635440,0.260519,0.672796,-0.275122
1513,6.930534,-6.834989,-0.397306,-0.053012,-0.008456,0.033339,-93.350349,-45.369717,94.628273,-0.635432,0.260543,0.672789,-0.275133
1514,6.932812,-6.828298,-0.395472,-0.039267,-0.017600,0.042498,-93.350296,-45.368225,94.627388,-0.635430,0.260557,0.672784,-0.275137
1515,6.934121,-6.826073,-0.397020,-0.008736,-0.029794,0.050106,-93.349899,-45.368336,94.627037,-0.635432,0.260556,0.672783,-0.275137
1516,6.928228,-6.832530,-0.389158,0.015702,-0.046556,0.051626,-93.347237,-45.367138,94.626038,-0.635437,0.260554,0.672772,-0.275154
1517,6.927097,-6.828249,-0.389791,0.011158,-0.057202,0.039429,-93.342781,-45.364914,94.624336,-0.635445,0.260552,0.672753,-0.275183
1518,6.927431,-6.826034,-0.390151,0.011190,-0.066327,0.047056,-93.339348,-45.363640,94.623543,-0.635451,0.260545,0.672740,-0.275206
1519,6.923116,-6.828311,-0.387935,0.018852,-0.063242,0.031801,-93.335655,-45.362080,94.622734,-0.635457,0.260538,0.672727,-0.275232
1520,6.921816,-6.829847,-0.387714,-0.011630,-0.066258,0.030293,-93.331841,-45.359604,94.621574,-0.635462,0.260538,0.672710,-0.275262
1521,6.926743,-6.820686,-0.389212,-0.040591,-0.055544,0.025714,-93.329613,-45.358906,94.620758,-0.635467,0.260534,0.672701,-0.275275
1522,6.928718,-6.829576,-0.384336,-0.035978,-0.058559,0.030275,-93.326958,-45.359360,94.619255,-0.635478,0.260526,0.672692,-0.275279
1523,6.928232,-6.837270,-0.384689,-0.052718,-0.063092,0.028759,-93.323242,-45.357677,94.616936,-0.635487,0.260529,0.672675,-0.275298
