seq,ax,ay,az,wroll,wpitch,wyaw,roll,pitch,yaw,q0,q1,q2,q3
7915,0.052801,6.816492,-7.053941,-0.012551,-0.076724,0.063659,135.980759,-0.308406,-179.701981,-0.003470,-0.001403,0.927117,0.374753
7917,0.063557,6.817914,-7.056435,-0.011021,-0.078212,0.060643,135.981216,-0.315846,-179.705399,-0.003519,-0.001351,0.927119,0.374749
7918,0.059133,6.820775,-7.051580,-0.015619,-0.072054,0.066801,135.977798,-0.327048,-179.708649,-0.003599,-0.001288,0.927107,0.374777
7919,0.057507,6.821356,-7.047393,-0.018731,-0.073557,0.069875,135.968231,-0.331684,-179.711929,-0.003626,-0.001246,0.927076,0.374854
7920,0.058113,6.814833,-7.049778,-0.018766,-0.079650,0.071410,135.962448,-0.333583,-179.715363,-0.003630,-0.001211,0.927057,0.374901
7921,0.058815,6.808206,-7.050473,-0.018731,-0.078113,0.048532,135.967041,-0.335348,-179.718658,-0.003633,-0.001179,0.927072,0.374864
7922,0.055407,6.809555,-7.048128,-0.018683,-0.073537,0.045479,135.973740,-0.334472,-179.721588,-0.003617,-0.001158,0.927094,0.374810
7924,0.057692,6.804911,-7.052536,-0.015573,-0.079645,0.033268,135.981827,-0.332471,-179.724350,-0.003591,-0.001143,0.927120,0.374744
7925,0.060500,6.803667,-7.054892,-0.006329,-0.075053,0.036333,135.994827,-0.334424,-179.727051,-0.003598,-0.001115,0.927163,0.374639
7926,0.060569,6.804272,-7.051879,-0.000154,-0.065874,0.037883,136.005432,-0.338708,-179.729645,-0.003624,-0.001080,0.927198,0.374554
7927,0.057648,6.807590,-7.052060,-0.004704,-0.064337,0.053152,136.009613,-0.340448,-179.732269,-0.003630,-0.001054,0.927211,0.374520
7928,0.058835,6.802011,-7.054195,-0.004672,-0.065863,0.057732,136.014252,-0.340397,-179.735138,-0.003620,-0.001031,0.927226,0.374482
7929,0.055452,6.814386,-7.056212,-0.000080,-0.062818,0.062302,136.016388,-0.338622,-179.738068,-0.003596,-0.001013,0.927233,0.374465
7931,0.054745,6.814598,-7.057310,-0.010785,-0.058262,0.053126,136.012543,-0.334080,-179.740845,-0.003550,-0.001005,0.927221,0.374496
7932,0.056421,6.817173,-7.059696,-0.027592,-0.062854,0.056165,136.008759,-0.330945,-179.743530,-0.003516,-0.000994,0.927209,0.374527
7933,0.059352,6.821307,-7.059170,-0.027624,-0.067425,0.059222,136.003067,-0.332067,-179.746399,-0.003516,-0.000967,0.927190,0.374573
7934,0.054691,6.821096,-7.059977,-0.032238,-0.075052,0.059223,135.996567,-0.332056,-179.749435,-0.003506,-0.000942,0.927169,0.374626
7935,0.053914,6.810242,-7.062016,-0.036794,-0.079648,0.056155,135.998688,-0.327779,-179.752625,-0.003461,-0.000930,0.927176,0.374609
7936,0.051592,6.805768,-7.062892,-0.022972,-0.091883,0.057655,136.011047,-0.321589,-179.756058,-0.003399,-0.000923,0.927216,0.374509
7937,0.050250,6.798759,-7.062780,-0.006068,-0.090390,0.049995,136.028519,-0.313861,-179.759552,-0.003325,-0.000920,0.927274,0.374368
7938,0.048177,6.796312,-7.057751,-0.004431,-0.091952,0.039280,136.044952,-0.305200,-179.762817,-0.003244,-0.000923,0.927328,0.374236
7939,0.051491,6.797898,-7.056368,-0.008946,-0.091974,0.028577,136.054306,-0.299248,-179.765823,-0.003186,-0.000918,0.927358,0.374160
7940,0.054877,6.799741,-7.051732,-0.018091,-0.088912,0.036217,136.055344,-0.300028,-179.768692,-0.003183,-0.000892,0.927362,0.374152
7941,0.059884,6.800428,-7.050437,-0.036429,-0.085816,0.027103,136.050278,-0.307658,-179.771454,-0.003236,-0.000845,0.927345,0.374193
7942,0.059001,6.803669,-7.050581,-0.045628,-0.088816,0.037834,136.042618,-0.317263,-179.774216,-0.003305,-0.000791,0.927320,0.374255
7943,0.062705,6.801373,-7.055932,-0.039540,-0.091816,0.043988,136.038788,-0.326879,-179.777267,-0.003373,-0.000735,0.927307,0.374285
7944,0.055511,6.799158,-7.053647,-0.053254,-0.087209,0.042490,136.040176,-0.331617,-179.780396,-0.003401,-0.000694,0.927312,0.374274
7945,0.054328,6.797857,-7.053425,-0.048650,-0.091797,0.033326,136.042313,-0.328334,-179.783401,-0.003364,-0.000680,0.927319,0.374257
7946,0.052403,6.800019,-7.055151,-0.027263,-0.087241,0.039408,136.044754,-0.322554,-179.786362,-0.003308,-0.000675,0.927327,0.374237
7947,0.057867,6.802459,-7.053973,-0.013523,-0.091822,0.037878,136.045059,-0.320532,-179.789368,-0.003282,-0.000658,0.927328,0.374235
7948,0.055059,6.804512,-7.052462,-0.005913,-0.088760,0.042466,136.041656,-0.321438,-179.792404,-0.003279,-0.000630,0.927317,0.374263
7949,0.061762,6.810306,-7.057535,0.007786,-0.090262,0.062327,136.036667,-0.325595,-179.795700,-0.003302,-0.000590,0.927300,0.374303
7950,0.061675,6.817513,-7.058637,0.009261,-0.090217,0.063895,136.029282,-0.334123,-179.799271,-0.003360,-0.000533,0.927276,0.374363
7951,0.062226,6.819397,-7.057065,-0.010650,-0.096282,0.065458,136.018127,-0.341341,-179.802902,-0.003406,-0.000479,0.927240,0.374453
7952,0.054136,6.826440,-7.059999,-0.024470,-0.093227,0.062407,136.004745,-0.341008,-179.806564,-0.003392,-0.000451,0.927196,0.374561
7953,0.056760,6.823606,-7.056209,-0.030655,-0.091722,0.066965,135.991455,-0.335888,-179.810181,-0.003338,-0.000438,0.927153,0.374669
7954,0.059641,6.820654,-7.053499,-0.020037,-0.091720,0.053233,135.981293,-0.335416,-179.813690,-0.003323,-0.000410,0.927119,0.374751
7955,0.060804,6.816704,-7.055518,-0.018532,-0.085598,0.048673,135.977554,-0.338479,-179.816940,-0.003337,-0.000374,0.927107,0.374782
7956,0.058144,6.816666,-7.053879,-0.009371,-0.093214,0.051738,135.977997,-0.340101,-179.820221,-0.003340,-0.000342,0.927108,0.374778
7957,0.059340,6.807499,-7.052993,-0.010863,-0.097788,0.050216,135.982559,-0.339977,-179.823685,-0.003327,-0.000315,0.927123,0.374741
7958,0.059363,6.808644,-7.055767,-0.018430,-0.103884,0.044120,135.991501,-0.340358,-179.827209,-0.003319,-0.000285,0.927153,0.374669
7959,0.053675,6.806076,-7.057914,-0.024461,-0.103896,0.047161,136.001770,-0.336448,-179.830780,-0.003275,-0.000269,0.927186,0.374586
7960,0.053683,6.805610,-7.058033,-0.018282,-0.103926,0.054762,136.012390,-0.328955,-179.834473,-0.003203,-0.000264,0.927221,0.374501
7961,0.056620,6.802283,-7.058937,-0.031940,-0.090206,0.047121,136.022797,-0.325209,-179.837997,-0.003161,-0.000248,0.927255,0.374417
7962,0.060370,6.798755,-7.057776,-0.025757,-0.079506,0.048665,136.033905,-0.327996,-179.841187,-0.003173,-0.000214,0.927292,0.374327
7963,0.055425,6.798792,-7.055696,-0.027220,-0.079492,0.047153,136.042618,-0.330178,-179.844223,-0.003181,-0.000182,0.927320,0.374256
7964,0.055414,6.799376,-7.055457,-0.031759,-0.077972,0.044095,136.047226,-0.328088,-179.847183,-0.003154,-0.000165,0.927335,0.374219
7965,0.054645,6.801698,-7.054271,-0.036326,-0.084085,0.039509,136.047775,-0.325268,-179.850067,-0.003122,-0.000151,0.927337,0.374215
7966,0.052847,6.804206,-7.056839,-0.028702,-0.094782,0.056279,136.045898,-0.321108,-179.853271,-0.003078,-0.000139,0.927331,0.374230
7967,0.052262,6.804650,-7.058298,-0.034807,-0.105482,0.053209,136.044693,-0.315961,-179.856903,-0.003024,-0.000126,0.927327,0.374240
7968,0.052985,6.805240,-7.059129,-0.025646,-0.094813,0.050144,136.044556,-0.311998,-179.860474,-0.002981,-0.000110,0.927327,0.374241
7969,0.052982,6.806166,-7.059855,-0.016483,-0.088716,0.048613,136.044861,-0.309839,-179.863785,-0.002952,-0.000090,0.927328,0.374239
7970,0.055044,6.808504,-7.063920,-0.014946,-0.076502,0.040989,136.046051,-0.310040,-179.866776,-0.002944,-0.000066,0.927332,0.374229
7971,0.055642,6.806551,-7.061856,-0.014931,-0.076486,0.022693,136.047882,-0.312267,-179.869324,-0.002954,-0.000038,0.927337,0.374215
7972,0.059470,6.813969,-7.060236,-0.013424,-0.081034,0.019670,136.044632,-0.317116,-179.871643,-0.002985,-0.000003,0.927327,0.374241
7974,0.061831,6.809695,-7.061871,-0.013452,-0.090143,0.028872,136.039932,-0.325498,-179.874176,-0.003045,0.000045,0.927311,0.374279
7975,0.058195,6.811727,-7.061098,-0.014990,-0.096211,0.033483,136.037811,-0.331276,-179.877075,-0.003082,0.000087,0.927304,0.374296
7976,0.057671,6.809775,-7.055921,-0.016541,-0.105355,0.057910,136.033447,-0.332420,-179.880478,-0.003080,0.000119,0.927290,0.374331
7977,0.057213,6.819177,-7.058360,-0.005915,-0.103824,0.068595,136.024734,-0.332283,-179.884369,-0.003067,0.000150,0.927261,0.374402
7978,0.053872,6.817372,-7.057694,0.003175,-0.100782,0.062481,136.014908,-0.329328,-179.888260,-0.003030,0.000172,0.927229,0.374482
7979,0.055214,6.816577,-7.058511,-0.015177,-0.106900,0.048734,136.008682,-0.325042,-179.891953,-0.002983,0.000188,0.927209,0.374532
7980,0.060854,6.817489,-7.059857,-0.016722,-0.108411,0.048747,136.005157,-0.326499,-179.895599,-0.002983,0.000222,0.927198,0.374561
7981,0.062541,6.818788,-7.061758,-0.012152,-0.100741,0.036580,136.003387,-0.333572,-179.899033,-0.003029,0.000273,0.927192,0.374575
7982,0.062805,6.810922,-7.055589,-0.021304,-0.106802,0.030517,136.003494,-0.340847,-179.902252,-0.003077,0.000323,0.927192,0.374574
7983,0.061321,6.813691,-7.055140,-0.041140,-0.097615,0.030547,136.002640,-0.345444,-179.905350,-0.003104,0.000363,0.927189,0.374581
7984,0.062961,6.823509,-7.053806,-0.024402,-0.086910,0.042777,135.994308,-0.349016,-179.908325,-0.003124,0.000399,0.927162,0.374648
7985,0.058157,6.828338,-7.049445,-0.035195,-0.089954,0.036680,135.976669,-0.349395,-179.911224,-0.003117,0.000424,0.927104,0.374791
7986,0.056899,6.825510,-7.050908,-0.032249,-0.102177,0.038190,135.959610,-0.344623,-179.914246,-0.003069,0.000434,0.927048,0.374930
7987,0.060272,6.825449,-7.052052,-0.036886,-0.093027,0.045813,135.949707,-0.342014,-179.917465,-0.003037,0.000452,0.927016,0.375010
7988,0.058731,6.819226,-7.055561,-0.026203,-0.100652,0.045818,135.948929,-0.341777,-179.920807,-0.003024,0.000478,0.927013,0.375016
7989,0.051132,6.815001,-7.056533,-0.030717,-0.103729,0.042742,135.957336,-0.335076,-179.924286,-0.002958,0.000484,0.927041,0.374948
7990,0.057511,6.810948,-7.054239,-0.018430,-0.111384,0.042718,135.968597,-0.328216,-179.927872,-0.002891,0.000490,0.927078,0.374857
7991,0.060380,6.811931,-7.054671,-0.024466,-0.109844,0.027474,135.978195,-0.329568,-179.931335,-0.002891,0.000522,0.927109,0.374780
7992,0.058551,6.809886,-7.058918,-0.012187,-0.115925,0.019866,135.988190,-0.332036,-179.934586,-0.002900,0.000556,0.927142,0.374699
7993,0.062679,6.815892,-7.060182,-0.024336,-0.114372,0.019893,135.996475,-0.335532,-179.937775,-0.002918,0.000593,0.927169,0.374632
7994,0.069871,6.815565,-7.059810,-0.016680,-0.108205,0.012325,135.999847,-0.346529,-179.940765,-0.002997,0.000654,0.927180,0.374605
7995,0.068148,6.814223,-7.063815,-0.025800,-0.082190,0.009345,136.004471,-0.359962,-179.943268,-0.003098,0.000718,0.927194,0.374567
7996,0.069073,6.812525,-7.059697,-0.019658,-0.074504,0.020081,136.009567,-0.370263,-179.945465,-0.003174,0.000769,0.927211,0.374526
7997,0.067552,6.811552,-7.061410,-0.027255,-0.074464,0.020121,136.013626,-0.377398,-179.947708,-0.003225,0.000810,0.927224,0.374493
7998,0.064623,6.809443,-7.055553,-0.008922,-0.072923,0.030817,136.016235,-0.379273,-179.950043,-0.003232,0.000835,0.927232,0.374472
7999,0.065355,6.808642,-7.055658,-0.013494,-0.079025,0.032345,136.016846,-0.378534,-179.952560,-0.003218,0.000853,0.927234,0.374467
8000,0.059113,6.808414,-7.054807,-0.011963,-0.086673,0.039956,136.017166,-0.373576,-179.955353,-0.003169,0.000860,0.927235,0.374464
8001,0.055233,6.812176,-7.055489,-0.015024,-0.089775,0.044485,136.015411,-0.361939,-179.958405,-0.003065,0.000846,0.927230,0.374479
8002,0.058272,6.818167,-7.055929,-0.013536,-0.091343,0.035287,136.009247,-0.351619,-179.961411,-0.002971,0.000837,0.927210,0.374529
8003,0.055650,6.813080,-7.060424,-0.004399,-0.092898,0.035259,136.006287,-0.344187,-179.964386,-0.002901,0.000837,0.927201,0.374553
8004,0.051565,6.814972,-7.061707,-0.013534,-0.095992,0.029115,136.009064,-0.333943,-179.967361,-0.002809,0.000827,0.927210,0.374531
8005,0.058448,6.816925,-7.067251,-0.007400,-0.103644,0.036724,136.013260,-0.327807,-179.970490,-0.002749,0.000832,0.927224,0.374497
8006,0.061777,6.811740,-7.068625,-0.002763,-0.102095,0.033696,136.021973,-0.331137,-179.973755,-0.002765,0.000870,0.927252,0.374427
8007,0.056715,6.804548,-7.067978,0.000383,-0.095971,0.047449,136.036057,-0.333803,-179.977112,-0.002776,0.000905,0.927298,0.374313
8008,0.056502,6.802567,-7.067858,-0.011720,-0.094448,0.044395,136.051575,-0.332116,-179.980499,-0.002751,0.000927,0.927349,0.374187
8009,0.055810,6.806006,-7.073301,0.003631,-0.089877,0.068805,136.065399,-0.329944,-179.984070,-0.002722,0.000948,0.927394,0.374076
8010,0.054065,6.802656,-7.065130,0.000639,-0.088364,0.059637,136.074310,-0.326732,-179.987732,-0.002684,0.000967,0.927423,0.374003
8011,0.055998,6.800951,-7.064488,-0.014593,-0.085320,0.059629,136.078278,-0.324319,-179.991196,-0.002654,0.000987,0.927436,0.373971
8012,0.060834,6.805358,-7.063326,-0.023746,-0.074619,0.055070,136.077911,-0.327662,-179.994415,-0.002670,0.001024,0.927435,0.373975
8013,0.064135,6.806951,-7.060979,-0.031409,-0.073046,0.044434,136.071854,-0.336795,-179.997284,-0.002735,0.001077,0.927415,0.374023
8014,0.065823,6.801893,-7.056599,-0.037553,-0.086723,0.023126,136.064804,-0.347533,-179.999908,-0.002813,0.001134,0.927391,0.374081
8015,0.062814,6.803807,-7.057622,-0.033006,-0.088207,0.027743,136.059296,-0.354469,179.997482,-0.002860,0.001178,0.927373,0.374125
8016,0.056741,6.809857,-7.058107,-0.033047,-0.095839,0.032318,136.052032,-0.352529,179.994675,-0.002835,0.001194,0.927349,0.374184
8017,0.058425,6.808500,-7.057110,-0.031570,-0.094334,0.039927,136.043655,-0.346813,179.991653,-0.002779,0.001200,0.927322,0.374252
8018,0.055099,6.806226,-7.057045,-0.030070,-0.086726,0.039906,136.038635,-0.341066,179.988617,-0.002723,0.001206,0.927306,0.374293
8019,0.055651,6.802039,-7.057990,-0.036162,-0.073017,0.053616,136.039078,-0.335156,179.985641,-0.002665,0.001211,0.927307,0.374289
8020,0.062154,6.797348,-7.063887,-0.048302,-0.069958,0.050572,136.047928,-0.336187,179.982681,-0.002664,0.001238,0.927336,0.374218
8021,0.060870,6.793493,-7.062455,-0.048197,-0.063826,0.033815,136.062164,-0.341534,179.980026,-0.002699,0.001277,0.927383,0.374102
8022,0.052321,6.796818,-7.063100,-0.042007,-0.080621,0.038384,136.073486,-0.338634,179.977402,-0.002667,0.001288,0.927420,0.374011
8023,0.055493,6.800377,-7.062086,-0.029762,-0.095910,0.055140,136.078140,-0.331341,179.974213,-0.002598,0.001290,0.927435,0.373973
8024,0.054706,6.806929,-7.055366,-0.025220,-0.097452,0.047495,136.071823,-0.326962,179.970779,-0.002551,0.001304,0.927414,0.374025
8025,0.050097,6.809412,-7.054009,-0.016158,-0.109687,0.053572,136.057098,-0.319916,179.967239,-0.002482,0.001310,0.927366,0.374144
8026,0.053199,6.805950,-7.058043,-0.025377,-0.120393,0.065754,136.046875,-0.313129,179.963211,-0.002414,0.001320,0.927333,0.374227
8027,0.056667,6.811166,-7.054134,-0.033055,-0.111232,0.065759,136.038635,-0.312988,179.958984,-0.002399,0.001354,0.927306,0.374294
8028,0.054997,6.812748,-7.056338,-0.040748,-0.109691,0.055092,136.028000,-0.315017,179.955032,-0.002402,0.001393,0.927271,0.374380
8029,0.057949,6.811148,-7.060017,-0.040775,-0.117301,0.052059,136.022598,-0.317498,179.951141,-0.002410,0.001433,0.927254,0.374423
8030,0.059415,6.815498,-7.057830,-0.040793,-0.106588,0.052090,136.018509,-0.322630,179.947311,-0.002438,0.001481,0.927240,0.374457
8031,0.060817,6.818663,-7.058414,-0.037783,-0.098921,0.053652,136.010880,-0.329126,179.943710,-0.002479,0.001531,0.927215,0.374518
8032,0.057016,6.814583,-7.065344,-0.033209,-0.105003,0.044516,136.009155,-0.332328,179.940170,-0.002493,0.001570,0.927209,0.374532
8033,0.059748,6.812045,-7.069507,-0.037723,-0.108043,0.038425,136.017685,-0.333237,179.936661,-0.002489,0.001602,0.927237,0.374463
8034,0.056737,6.815347,-7.071858,-0.034593,-0.101931,0.043011,136.028244,-0.333425,179.933182,-0.002480,0.001630,0.927271,0.374378
8035,0.056067,6.813576,-7.073554,-0.025367,-0.095833,0.038428,136.037857,-0.330921,179.929855,-0.002449,0.001649,0.927303,0.374300
8036,0.052579,6.811320,-7.070479,-0.016148,-0.101955,0.038411,136.046661,-0.325634,179.926590,-0.002395,0.001658,0.927332,0.374229
8037,0.057908,6.810182,-7.064715,-0.014592,-0.115695,0.035353,136.050674,-0.322427,179.923157,-0.002358,0.001675,0.927345,0.374197
8038,0.061698,6.813050,-7.064291,-0.010022,-0.103458,0.036908,136.049133,-0.326914,179.919769,-0.002384,0.001717,0.927340,0.374209
8039,0.064439,6.813803,-7.063882,-0.025307,-0.100354,0.027803,136.044785,-0.336095,179.916656,-0.002448,0.001772,0.927325,0.374245
8040,0.065698,6.810676,-7.065057,-0.040576,-0.114029,0.035489,136.042297,-0.346348,179.913422,-0.002520,0.001832,0.927317,0.374265
8041,0.067765,6.812318,-7.068759,-0.046662,-0.107868,0.032492,136.043564,-0.356551,179.910019,-0.002592,0.001893,0.927321,0.374255
8042,0.063207,6.806973,-7.071723,-0.052710,-0.095623,0.031002,136.050095,-0.362537,179.906860,-0.002630,0.001938,0.927342,0.374202
8043,0.058678,6.809593,-7.067713,-0.063338,-0.097154,0.034050,136.056274,-0.360028,179.903793,-0.002600,0.001954,0.927362,0.374152
8044,0.055677,6.800117,-7.066421,-0.051081,-0.104817,0.046226,136.061813,-0.351692,179.900452,-0.002521,0.001954,0.927380,0.374107
8045,0.053579,6.800108,-7.062120,-0.046450,-0.101809,0.035503,136.068329,-0.340993,179.897034,-0.002424,0.001946,0.927402,0.374054
8046,0.055267,6.805049,-7.059208,-0.041869,-0.098791,0.036996,136.067230,-0.332347,179.893845,-0.002343,0.001944,0.927398,0.374063
8047,0.062607,6.809394,-7.057036,-0.028186,-0.089627,0.047686,136.058319,-0.332988,179.890686,-0.002338,0.001972,0.927369,0.374136
8048,0.063310,6.802999,-7.057973,-0.020598,-0.092636,0.059933,136.051453,-0.340855,179.887329,-0.002390,0.002025,0.927346,0.374191
8049,0.051519,6.817251,-7.052193,-0.028298,-0.085008,0.058406,136.039978,-0.339733,179.883911,-0.002370,0.002049,0.927309,0.374284
8050,0.065782,6.812028,-7.055296,-0.022292,-0.077375,0.066037,136.024658,-0.339808,179.880630,-0.002360,0.002076,0.927259,0.374408
8051,0.062719,6.807783,-7.054861,-0.016220,-0.083436,0.066078,136.019211,-0.348321,179.877213,-0.002417,0.002132,0.927241,0.374452
8052,0.042648,6.808009,-7.051369,-0.028441,-0.083479,0.061459,136.016388,-0.338759,179.873764,-0.002329,0.002128,0.927232,0.374475
8053,0.057147,6.812792,-7.055816,-0.029989,-0.077437,0.059873,136.012222,-0.325240,179.870468,-0.002208,0.002111,0.927218,0.374509
8054,0.074810,6.799229,-7.062215,-0.023834,-0.078899,0.062987,136.019119,-0.338169,179.867142,-0.002302,0.002180,0.927240,0.374453
8055,0.052472,6.808367,-7.059868,-0.032911,-0.081903,0.050827,136.030014,-0.347600,179.863846,-0.002368,0.002237,0.927276,0.374365
8056,0.060914,6.812375,-7.059001,-0.028326,-0.088021,0.063020,136.030060,-0.343944,179.860504,-0.002327,0.002252,0.927276,0.374365
8057,0.083033,6.811026,-7.062092,-0.020700,-0.103191,0.060054,136.028671,-0.361712,179.856812,-0.002459,0.002340,0.927271,0.374376
8058,0.060155,6.811340,-7.055156,-0.019187,-0.107689,0.057078,136.026199,-0.376873,179.852982,-0.002569,0.002421,0.927262,0.374396
8059,0.061058,6.811964,-7.051767,-0.023811,-0.109233,0.057060,136.018448,-0.371801,179.849152,-0.002516,0.002436,0.927237,0.374459
8060,0.072179,6.808428,-7.054811,-0.022315,-0.109215,0.064708,136.013260,-0.374332,179.845184,-0.002523,0.002476,0.927220,0.374501
8061,0.061719,6.810442,-7.054644,-0.029947,-0.096987,0.050995,136.011856,-0.377736,179.841415,-0.002538,0.002518,0.927215,0.374513
8062,0.057025,6.806952,-7.058336,-0.034507,-0.095496,0.060117,136.013626,-0.369433,179.837845,-0.002459,0.002519,0.927221,0.374498
8063,0.063359,6.807197,-7.057137,-0.043625,-0.098574,0.050936,136.018097,-0.362923,179.834229,-0.002395,0.002527,0.927236,0.374462
8064,0.052235,6.811774,-7.054939,-0.028360,-0.101660,0.053956,136.017639,-0.354617,179.830643,-0.002316,0.002529,0.927234,0.374466
8065,0.055085,6.807273,-7.057047,-0.013100,-0.107818,0.056954,136.017090,-0.342079,179.826889,-0.002202,0.002519,0.927233,0.374470
8066,0.056172,6.805556,-7.055939,-0.016125,-0.117001,0.053875,136.020660,-0.334851,179.822937,-0.002131,0.002527,0.927245,0.374442
8067,0.048840,6.808779,-7.057766,-0.010000,-0.117039,0.052313,136.023468,-0.325363,179.818939,-0.002041,0.002528,0.927254,0.374419
8068,0.053881,6.806846,-7.064781,0.002249,-0.121654,0.053804,136.029587,-0.316204,179.814865,-0.001954,0.002531,0.927274,0.374369
8069,0.056763,6.801174,-7.067970,0.003870,-0.117073,0.041600,136.043991,-0.315028,179.810883,-0.001932,0.002559,0.927321,0.374253
8070,0.055129,6.810719,-7.063682,-0.002174,-0.112482,0.047717,136.053162,-0.316087,179.807098,-0.001928,0.002593,0.927351,0.374179
8071,0.057815,6.802710,-7.067593,0.007017,-0.104836,0.050786,136.058441,-0.318177,179.803375,-0.001933,0.002630,0.927368,0.374136
8072,0.063048,6.801904,-7.063880,-0.000559,-0.091059,0.044723,136.066681,-0.325904,179.799911,-0.001984,0.002683,0.927395,0.374070
8073,0.061656,6.802609,-7.059328,0.002509,-0.080328,0.050877,136.069016,-0.335530,179.796768,-0.002052,0.002740,0.927402,0.374051
8074,0.062752,6.803545,-7.061480,-0.006655,-0.083340,0.049388,136.067841,-0.342920,179.793686,-0.002102,0.002789,0.927398,0.374060
8075,0.060059,6.799880,-7.062364,-0.008169,-0.080265,0.038729,136.069321,-0.346876,179.790726,-0.002124,0.002826,0.927402,0.374048
8077,0.055924,6.800410,-7.058704,-0.024941,-0.074168,0.034144,136.070694,-0.344377,179.788055,-0.002095,0.002839,0.927407,0.374037
8078,0.055391,6.801121,-7.055582,-0.032589,-0.081822,0.037173,136.067215,-0.338267,179.785416,-0.002037,0.002841,0.927396,0.374065
8079,0.057360,6.800207,-7.058316,-0.055492,-0.081836,0.034107,136.063416,-0.334191,179.782669,-0.001995,0.002850,0.927383,0.374096
8080,0.053433,6.801913,-7.053570,-0.058563,-0.072695,0.040197,136.058624,-0.330106,179.780014,-0.001953,0.002858,0.927368,0.374135
8081,0.054275,6.803314,-7.055124,-0.060123,-0.074241,0.047807,136.051605,-0.325038,179.777283,-0.001903,0.002864,0.927345,0.374192
8082,0.053285,6.808627,-7.058287,-0.061680,-0.074257,0.052369,136.044861,-0.321095,179.774399,-0.001862,0.002874,0.927323,0.374247
8083,0.056202,6.807506,-7.060040,-0.052543,-0.066632,0.050839,136.040253,-0.319787,179.771545,-0.001842,0.002893,0.927308,0.374284
8084,0.050536,6.806144,-7.056404,-0.037290,-0.069694,0.055407,136.037827,-0.317229,179.768692,-0.001812,0.002908,0.927300,0.374304
8085,0.056927,6.806476,-7.059422,-0.038815,-0.077329,0.055402,136.036728,-0.315614,179.765656,-0.001789,0.002927,0.927296,0.374312
8086,0.058950,6.804673,-7.056489,-0.041858,-0.075776,0.049324,136.036819,-0.320527,179.762619,-0.001818,0.002968,0.927296,0.374312
8087,0.067388,6.807989,-7.054656,-0.037291,-0.080293,0.055487,136.033844,-0.332646,179.759567,-0.001906,0.003032,0.927286,0.374336
8088,0.068478,6.806849,-7.054272,-0.043419,-0.093941,0.060145,136.028946,-0.349504,179.756195,-0.002032,0.003115,0.927270,0.374376
8089,0.064411,6.807114,-7.055190,-0.040379,-0.092359,0.051045,136.025696,-0.360371,179.752716,-0.002108,0.003178,0.927259,0.374402
8090,0.061493,6.808004,-7.053196,-0.038866,-0.083188,0.051060,136.022400,-0.362693,179.749466,-0.002116,0.003212,0.927248,0.374429
8091,0.059918,6.804687,-7.057194,-0.044963,-0.080144,0.043422,136.022125,-0.360143,179.746445,-0.002086,0.003229,0.927247,0.374431
8092,0.053062,6.797690,-7.057063,-0.037273,-0.087812,0.031179,136.029724,-0.351194,179.743546,-0.002004,0.003223,0.927272,0.374370
8093,0.051805,6.800470,-7.055645,-0.029580,-0.072612,0.020440,136.038101,-0.337596,179.741013,-0.001886,0.003198,0.927299,0.374302
8094,0.056691,6.795547,-7.057233,-0.024945,-0.066541,0.028039,136.045868,-0.329692,179.738770,-0.001815,0.003191,0.927325,0.374239
8095,0.055471,6.800966,-7.061124,-0.021832,-0.071126,0.028033,136.054291,-0.327243,179.736450,-0.001788,0.003201,0.927353,0.374171
8096,0.053665,6.805157,-7.056225,-0.021821,-0.077240,0.034125,136.055161,-0.323795,179.733978,-0.001752,0.003210,0.927355,0.374164
8097,0.051646,6.812451,-7.056398,-0.024927,-0.072683,0.034104,136.046387,-0.318323,179.731476,-0.001699,0.003213,0.927327,0.374235
8098,0.049569,6.808788,-7.058476,-0.026505,-0.069662,0.040178,136.037750,-0.311120,179.728973,-0.001632,0.003209,0.927299,0.374305
8099,0.051173,6.811976,-7.056405,-0.029591,-0.071212,0.038628,136.031464,-0.305227,179.726425,-0.001576,0.003211,0.927278,0.374355
8100,0.053703,6.803289,-7.057063,-0.028075,-0.084948,0.038626,136.029205,-0.303809,179.723709,-0.001556,0.003228,0.927271,0.374374
8101,0.052259,6.798466,-7.060333,-0.017335,-0.083416,0.034055,136.037308,-0.303923,179.720840,-0.001548,0.003252,0.927297,0.374308
8102,0.059855,6.796738,-7.061758,-0.015716,-0.081862,0.047816,136.050720,-0.308843,179.717865,-0.001578,0.003292,0.927341,0.374200
8103,0.058029,6.799260,-7.062278,-0.020215,-0.095550,0.040231,136.061951,-0.317267,179.714691,-0.001636,0.003345,0.927377,0.374109
8104,0.054943,6.805372,-7.062107,-0.014082,-0.095529,0.034148,136.065781,-0.320086,179.711563,-0.001649,0.003379,0.927390,0.374078
8105,0.050775,6.814007,-7.064250,-0.012585,-0.087912,0.032609,136.061081,-0.316159,179.708664,-0.001608,0.003390,0.927374,0.374116
8106,0.053861,6.821769,-7.061319,-0.024879,-0.086401,0.037172,136.047302,-0.311683,179.705887,-0.001562,0.003398,0.927329,0.374228
8107,0.048061,6.816769,-7.061534,-0.015816,-0.089472,0.038678,136.032959,-0.306328,179.703018,-0.001509,0.003404,0.927283,0.374344
8108,0.049596,6.815539,-7.058611,-0.011292,-0.094078,0.041702,136.024261,-0.299076,179.699966,-0.001440,0.003405,0.927254,0.374414
8109,0.053343,6.813629,-7.058900,-0.014378,-0.100184,0.043226,136.018768,-0.297194,179.696732,-0.001414,0.003425,0.927236,0.374459
8110,0.056161,6.806024,-7.055578,-0.025059,-0.098632,0.046303,136.018295,-0.301282,179.693359,-0.001436,0.003466,0.927235,0.374463
8111,0.052743,6.803965,-7.057685,-0.011289,-0.104714,0.052429,136.023071,-0.304737,179.689789,-0.001452,0.003506,0.927250,0.374424
8112,0.055207,6.805541,-7.055474,-0.009730,-0.101647,0.055495,136.027771,-0.306625,179.686081,-0.001456,0.003542,0.927265,0.374386
8113,0.056464,6.806344,-7.060394,-0.008178,-0.097044,0.058571,136.031464,-0.310710,179.682388,-0.001477,0.003585,0.927277,0.374356
8114,0.057110,6.805293,-7.062670,-0.015762,-0.098543,0.066227,136.037781,-0.315579,179.678589,-0.001504,0.003632,0.927297,0.374305
8115,0.059280,6.811050,-7.060836,-0.017267,-0.101563,0.066259,136.040451,-0.321404,179.674667,-0.001538,0.003682,0.927306,0.374284
8116,0.059309,6.806876,-7.058657,-0.034057,-0.101529,0.063239,136.038834,-0.327435,179.670776,-0.001574,0.003734,0.927300,0.374297
8117,0.057241,6.807199,-7.056888,-0.040167,-0.098458,0.061731,136.036713,-0.330504,179.666962,-0.001587,0.003775,0.927293,0.374314
8118,0.054778,6.808227,-7.053198,-0.032564,-0.101512,0.061730,136.031616,-0.329122,179.663193,-0.001563,0.003801,0.927276,0.374355
8119,0.052890,6.810894,-7.049502,-0.026518,-0.104582,0.054082,136.021942,-0.324200,179.659470,-0.001511,0.003815,0.927245,0.374434
8120,0.053000,6.806564,-7.052986,-0.021980,-0.087817,0.061692,136.015076,-0.318937,179.655884,-0.001456,0.003827,0.927222,0.374489
8121,0.054453,6.810629,-7.058150,-0.017399,-0.083248,0.061683,136.014938,-0.316408,179.652420,-0.001424,0.003846,0.927222,0.374490
8122,0.055134,6.810022,-7.063319,-0.018894,-0.084772,0.046427,136.019165,-0.316232,179.649155,-0.001412,0.003872,0.927235,0.374456
8123,0.054327,6.811840,-7.067435,-0.027992,-0.069509,0.041852,136.026749,-0.316207,179.646271,-0.001403,0.003895,0.927260,0.374395
8124,0.054680,6.807282,-7.070913,-0.040119,-0.071033,0.051010,136.037796,-0.316078,179.643463,-0.001393,0.003918,0.927296,0.374305
8125,0.054301,6.805436,-7.067662,-0.044608,-0.084764,0.035754,136.049728,-0.315713,179.640549,-0.001381,0.003940,0.927335,0.374209
8126,0.054587,6.805826,-7.062838,-0.038457,-0.084762,0.026601,136.055481,-0.314921,179.637802,-0.001366,0.003959,0.927354,0.374162
8127,0.057561,6.803236,-7.058560,-0.041499,-0.089325,0.038823,136.055618,-0.316670,179.634995,-0.001371,0.003988,0.927354,0.374161
8128,0.061986,6.799741,-7.054374,-0.046080,-0.109122,0.054120,136.053818,-0.323775,179.631577,-0.001417,0.004039,0.927348,0.374176
8129,0.064013,6.803714,-7.057600,-0.033878,-0.096856,0.049599,136.051605,-0.334522,179.627960,-0.001492,0.004103,0.927340,0.374194
8130,0.065567,6.805132,-7.058660,-0.020152,-0.099849,0.052708,136.049667,-0.345717,179.624466,-0.001571,0.004168,0.927333,0.374210
8131,0.066578,6.802929,-7.060204,-0.014039,-0.099793,0.066494,136.050323,-0.356197,179.620712,-0.001644,0.004233,0.927335,0.374205
8132,0.067949,6.807265,-7.059706,-0.015560,-0.105847,0.065017,136.050613,-0.365767,179.616760,-0.001709,0.004296,0.927335,0.374203
8133,0.063807,6.807738,-7.064000,-0.001827,-0.104292,0.055890,136.050400,-0.370600,179.612869,-0.001735,0.004343,0.927334,0.374205
8134,0.064436,6.803228,-7.061568,-0.014014,-0.114966,0.060474,136.053253,-0.370913,179.608917,-0.001725,0.004376,0.927343,0.374182
8135,0.061224,6.804426,-7.064522,-0.024663,-0.105815,0.058944,136.057419,-0.368723,179.604904,-0.001694,0.004401,0.927357,0.374148
8136,0.061445,6.799987,-7.067280,-0.032237,-0.110407,0.054353,136.064987,-0.364557,179.600983,-0.001648,0.004419,0.927382,0.374087
8137,0.060874,6.799269,-7.068614,-0.018424,-0.101263,0.057394,136.075974,-0.360970,179.597122,-0.001607,0.004439,0.927418,0.373998
8138,0.065371,6.794584,-7.068281,-0.029020,-0.092101,0.061980,136.088058,-0.361540,179.593369,-0.001599,0.004471,0.927457,0.373900
8139,0.065984,6.791931,-7.066577,-0.031987,-0.085970,0.060480,136.099854,-0.366470,179.589767,-0.001628,0.004516,0.927495,0.373805
8140,0.065680,6.795309,-7.065385,-0.036510,-0.079841,0.066609,136.106705,-0.371146,179.586273,-0.001655,0.004559,0.927517,0.373750
8141,0.067899,6.801506,-7.067407,-0.041081,-0.081342,0.059003,136.106430,-0.376022,179.582886,-0.001683,0.004603,0.927516,0.373752
8142,0.062494,6.802103,-7.067266,-0.050253,-0.092014,0.043753,136.102493,-0.376938,179.579666,-0.001680,0.004632,0.927503,0.373784
8143,0.055697,6.806871,-7.066074,-0.047237,-0.096629,0.025406,136.095490,-0.367638,179.576691,-0.001595,0.004626,0.927480,0.373840
8144,0.053383,6.810659,-7.067329,-0.036612,-0.089065,0.013135,136.085602,-0.352391,179.574142,-0.001463,0.004597,0.927448,0.373920
8145,0.055547,6.808501,-7.065598,-0.033611,-0.093692,0.005457,136.076965,-0.339906,179.571854,-0.001354,0.004575,0.927421,0.373990
8146,0.050723,6.807038,-7.062067,-0.032124,-0.099839,0.011520,136.069946,-0.328822,179.569443,-0.001256,0.004558,0.927398,0.374047
8147,0.053336,6.811722,-7.065042,-0.030639,-0.096823,0.020639,136.062943,-0.319201,179.566818,-0.001169,0.004548,0.927375,0.374103
8148,0.057474,6.808648,-7.066407,-0.030658,-0.089195,0.034372,136.059097,-0.317472,179.564026,-0.001146,0.004565,0.927363,0.374134
8149,0.058686,6.809242,-7.067953,-0.024545,-0.095273,0.034396,136.059464,-0.321242,179.561050,-0.001167,0.004601,0.927364,0.374131
8150,0.058569,6.804847,-7.063727,-0.032160,-0.096772,0.040527,136.060898,-0.325556,179.557922,-0.001191,0.004641,0.927368,0.374120
8151,0.059156,6.803478,-7.061424,-0.022991,-0.093695,0.037499,136.061859,-0.329296,179.554764,-0.001211,0.004678,0.927371,0.374112
8152,0.060953,6.798427,-7.056318,-0.035190,-0.086038,0.028370,136.062088,-0.333802,179.551895,-0.001239,0.004716,0.927371,0.374110
8153,0.061344,6.801600,-7.053185,-0.039783,-0.090583,0.023822,136.058701,-0.338788,179.549240,-0.001270,0.004754,0.927360,0.374138
8154,0.059653,6.802036,-7.052734,-0.050502,-0.092088,0.026895,136.051727,-0.341548,179.546555,-0.001283,0.004785,0.927337,0.374194
8155,0.062704,6.808483,-7.054501,-0.045971,-0.098171,0.017758,136.042999,-0.344147,179.543854,-0.001295,0.004815,0.927308,0.374265
8156,0.061877,6.811582,-7.058500,-0.052123,-0.093568,0.014730,136.034103,-0.347493,179.541290,-0.001314,0.004847,0.927279,0.374337
8157,0.063954,6.813103,-7.062804,-0.046041,-0.088965,0.019333,136.029205,-0.351095,179.538788,-0.001334,0.004879,0.927263,0.374377
8158,0.065192,6.812413,-7.064949,-0.041455,-0.088931,0.017839,136.029037,-0.356314,179.536285,-0.001368,0.004916,0.927262,0.374379
8159,0.062714,6.814372,-7.061142,-0.038400,-0.085856,0.011759,136.028122,-0.359477,179.533905,-0.001386,0.004946,0.927259,0.374386
8160,0.056192,6.815947,-7.067772,-0.032295,-0.084343,0.022428,136.027054,-0.355115,179.531525,-0.001343,0.004951,0.927255,0.374395
8161,0.060040,6.811737,-7.064439,-0.036851,-0.072157,0.031563,136.029327,-0.349342,179.529037,-0.001288,0.004952,0.927263,0.374376
8162,0.055305,6.812950,-7.061394,-0.032262,-0.076753,0.031545,136.029785,-0.344413,179.526550,-0.001240,0.004956,0.927265,0.374372
8163,0.055263,6.818749,-7.064180,-0.024650,-0.084412,0.043724,136.026306,-0.337309,179.523804,-0.001174,0.004955,0.927253,0.374400
8164,0.055405,6.820242,-7.067314,-0.030773,-0.081382,0.057436,136.022385,-0.331989,179.520676,-0.001120,0.004963,0.927240,0.374432
8165,0.059221,6.817435,-7.063020,-0.029260,-0.078330,0.055911,136.019424,-0.331331,179.517487,-0.001104,0.004987,0.927231,0.374456
8166,0.054767,6.812331,-7.065139,-0.024671,-0.095114,0.043704,136.020477,-0.330660,179.514267,-0.001088,0.005011,0.927234,0.374447
8167,0.051771,6.813545,-7.066401,-0.026157,-0.102768,0.049785,136.025589,-0.324357,179.510834,-0.001026,0.005018,0.927251,0.374406
8168,0.051266,6.809967,-7.060979,-0.035283,-0.096696,0.037546,136.028870,-0.316298,179.507446,-0.000950,0.005019,0.927262,0.374379
8169,0.052482,6.807670,-7.059867,-0.032211,-0.093665,0.029898,136.030777,-0.310466,179.504425,-0.000893,0.005025,0.927268,0.374364
8170,0.053802,6.806538,-7.058876,-0.036768,-0.096720,0.032945,136.032745,-0.308184,179.501450,-0.000865,0.005041,0.927274,0.374348
8171,0.054967,6.807270,-7.057169,-0.023025,-0.092132,0.043637,136.033234,-0.308917,179.498337,-0.000861,0.005069,0.927276,0.374344
8172,0.061055,6.801790,-7.058373,-0.016899,-0.095148,0.039095,136.035995,-0.315248,179.495148,-0.000902,0.005115,0.927284,0.374322
8173,0.060013,6.797937,-7.057178,-0.019898,-0.096624,0.036091,136.043289,-0.324268,179.491989,-0.000965,0.005170,0.927308,0.374263
8174,0.062070,6.799353,-7.059916,-0.009158,-0.098106,0.046816,136.051544,-0.332168,179.488693,-0.001018,0.005222,0.927334,0.374196
8175,0.057625,6.802742,-7.062655,-0.006060,-0.098080,0.045315,136.058334,-0.336264,179.485275,-0.001041,0.005263,0.927356,0.374141
8176,0.057677,6.806937,-7.062061,-0.025882,-0.088922,0.045318,136.060059,-0.335715,179.482010,-0.001026,0.005288,0.927362,0.374128
8177,0.054107,6.812118,-7.060570,-0.041173,-0.090459,0.031573,136.054138,-0.332066,179.479050,-0.000986,0.005300,0.927342,0.374175
8178,0.055264,6.817824,-7.063334,-0.033605,-0.088951,0.025453,136.043549,-0.326915,179.476334,-0.000935,0.005305,0.927308,0.374261
8180,0.054578,6.813056,-7.060925,-0.044338,-0.095064,0.025443,136.034653,-0.323078,179.473648,-0.000895,0.005315,0.927279,0.374333
8181,0.052654,6.815334,-7.062773,-0.033684,-0.092026,0.028480,136.029221,-0.318468,179.470856,-0.000848,0.005322,0.927261,0.374377
8182,0.052203,6.819763,-7.060742,-0.015413,-0.085941,0.031514,136.022446,-0.313342,179.468109,-0.000798,0.005328,0.927239,0.374431
8183,0.056469,6.818536,-7.064519,-0.000189,-0.075257,0.043724,136.016953,-0.312580,179.465363,-0.000782,0.005347,0.927221,0.374476
8184,0.054983,6.818185,-7.060809,-0.004785,-0.082872,0.060523,136.014038,-0.314960,179.462311,-0.000791,0.005380,0.927211,0.374500
8185,0.052156,6.821981,-7.059664,0.002804,-0.090502,0.042210,136.007950,-0.313795,179.459091,-0.000771,0.005402,0.927191,0.374549
8186,0.057568,6.817799,-7.056664,-0.007923,-0.095073,0.040691,136.001038,-0.314003,179.455994,-0.000762,0.005428,0.927168,0.374605
8187,0.056915,6.806598,-7.058700,-0.017063,-0.101153,0.030034,136.003006,-0.317582,179.452866,-0.000781,0.005465,0.927175,0.374589
8188,0.053082,6.804906,-7.057199,-0.023099,-0.104198,0.022410,136.012390,-0.317126,179.449799,-0.000768,0.005488,0.927205,0.374513
8189,0.051517,6.800775,-7.061075,-0.024540,-0.096583,0.019345,136.024506,-0.312277,179.446899,-0.000720,0.005496,0.927245,0.374415
8190,0.052799,6.795325,-7.061522,-0.024424,-0.082862,0.026965,136.041122,-0.308206,179.444183,-0.000679,0.005505,0.927299,0.374280
8191,0.055059,6.790924,-7.064363,-0.019709,-0.085908,0.017815,136.061096,-0.307965,179.441574,-0.000669,0.005525,0.927364,0.374119
8192,0.056968,6.800155,-7.064469,-0.022660,-0.091988,0.023942,136.075470,-0.311141,179.438934,-0.000687,0.005556,0.927411,0.374002
8193,0.061414,6.803992,-7.060541,-0.027224,-0.087368,0.034664,136.076614,-0.318744,179.436142,-0.000739,0.005604,0.927414,0.373993
8194,0.065268,6.808393,-7.057708,-0.027276,-0.081198,0.033203,136.067978,-0.331293,179.433426,-0.000832,0.005667,0.927385,0.374064
8195,0.061256,6.814470,-7.059843,-0.022783,-0.087248,0.040883,136.054504,-0.341252,179.430664,-0.000903,0.005722,0.927341,0.374173
8196,0.054577,6.816931,-7.056234,-0.019832,-0.088771,0.037833,136.038681,-0.340532,179.427780,-0.000887,0.005743,0.927289,0.374301
8197,0.054758,6.815401,-7.058999,-0.018389,-0.090323,0.033230,136.025665,-0.333790,179.424927,-0.000822,0.005744,0.927247,0.374406
8198,0.051639,6.807424,-7.059400,-0.016877,-0.084250,0.030148,136.022919,-0.325819,179.422150,-0.000748,0.005740,0.927238,0.374428
8199,0.049762,6.808061,-7.062930,-0.003106,-0.090395,0.036212,136.028229,-0.316082,179.419312,-0.000661,0.005732,0.927256,0.374385
8200,0.055346,6.808770,-7.060059,0.001505,-0.090412,0.033145,136.033157,-0.311220,179.416351,-0.000612,0.005740,0.927272,0.374345
8201,0.057605,6.803907,-7.062417,0.004593,-0.082762,0.049949,136.038864,-0.314174,179.413315,-0.000626,0.005774,0.927290,0.374299
8202,0.057707,6.802762,-7.060002,0.006168,-0.082733,0.048451,136.046448,-0.319376,179.410187,-0.000658,0.005816,0.927314,0.374238
8203,0.058748,6.807770,-7.062284,0.019927,-0.084231,0.060685,136.050537,-0.324489,179.406921,-0.000689,0.005859,0.927327,0.374205
8204,0.060008,6.803603,-7.062493,0.004686,-0.075046,0.071396,136.053940,-0.330340,179.403473,-0.000726,0.005906,0.927338,0.374177
8205,0.060350,6.795352,-7.061505,-0.004414,-0.082647,0.060742,136.062149,-0.336051,179.400024,-0.000761,0.005953,0.927364,0.374111
8206,0.055856,6.797609,-7.059543,-0.019617,-0.082639,0.051595,136.070160,-0.336990,179.396713,-0.000758,0.005982,0.927390,0.374046
8207,0.058282,6.796715,-7.060702,-0.019582,-0.078065,0.057695,136.074783,-0.335604,179.393509,-0.000737,0.006004,0.927405,0.374009
8208,0.057197,6.788779,-7.060824,-0.019522,-0.087219,0.048542,136.083115,-0.335186,179.390274,-0.000723,0.006029,0.927432,0.373942
8209,0.058275,6.787875,-7.059839,-0.020971,-0.094846,0.034812,136.094025,-0.334551,179.387100,-0.000708,0.006052,0.927468,0.373853
8210,0.055607,6.790614,-7.060375,-0.016340,-0.090270,0.042439,136.101395,-0.332773,179.383987,-0.000684,0.006071,0.927492,0.373794
8211,0.064011,6.787122,-7.066361,-0.017804,-0.094829,0.043983,136.110214,-0.335577,179.380753,-0.000697,0.006107,0.927520,0.373722
8212,0.061381,6.784989,-7.064717,-0.028400,-0.090212,0.045547,136.121994,-0.342514,179.377472,-0.000743,0.006156,0.927558,0.373627
8213,0.059304,6.789823,-7.066814,-0.051232,-0.073411,0.047090,136.129440,-0.345075,179.374405,-0.000754,0.006189,0.927582,0.373567
8214,0.061035,6.796015,-7.068243,-0.043587,-0.062721,0.042521,136.130203,-0.346446,179.371750,-0.000756,0.006215,0.927585,0.373561
8215,0.062536,6.798500,-7.066654,-0.046661,-0.055072,0.057797,136.125366,-0.350003,179.369202,-0.000777,0.006247,0.927568,0.373600
8216,0.061197,6.807620,-7.057298,-0.034549,-0.053530,0.056286,136.109543,-0.353331,179.366669,-0.000794,0.006279,0.927517,0.373729
8217,0.062230,6.812979,-7.059461,-0.030127,-0.059622,0.054771,136.085312,-0.355465,179.364166,-0.000802,0.006306,0.927437,0.373925
8218,0.066027,6.813186,-7.056861,-0.010432,-0.074857,0.047164,136.063339,-0.360065,179.361526,-0.000830,0.006343,0.927365,0.374103
8219,0.063263,6.813484,-7.056672,-0.004443,-0.088566,0.048712,136.045914,-0.364169,179.358597,-0.000852,0.006380,0.927308,0.374244
8220,0.063689,6.809991,-7.057861,-0.013666,-0.102289,0.042618,136.035522,-0.365104,179.355347,-0.000849,0.006409,0.927274,0.374328
8221,0.062317,6.806464,-7.059083,-0.019781,-0.103811,0.044148,136.033279,-0.364498,179.351944,-0.000833,0.006435,0.927266,0.374346
