seq,ax,ay,az,wroll,wpitch,wyaw,roll,pitch,yaw,q0,q1,q2,q3
2844,0.064132,-0.046314,9.907139,0.029051,-0.207788,-0.073348,-0.267842,-0.370886,0.001734,0.999992,-0.002337,-0.003237,0.000008
2845,0.025154,-0.135336,9.920520,0.010177,-0.041557,-0.064518,-0.269314,-0.374113,-0.000531,0.999992,-0.002350,-0.003265,-0.000012
2846,0.031245,-0.133475,9.920264,-0.000821,-0.044478,-0.069092,-0.273374,-0.373810,-0.002723,0.999992,-0.002386,-0.003262,-0.000032
2847,0.027834,-0.136692,9.918884,0.006491,-0.058084,-0.069089,-0.277505,-0.373836,-0.004991,0.999992,-0.002422,-0.003262,-0.000051
2848,0.025056,-0.139740,9.923420,-0.006044,-0.074732,-0.062983,-0.281840,-0.374218,-0.007153,0.999992,-0.002460,-0.003266,-0.000070
2849,0.036002,-0.139203,9.920243,0.008886,-0.097497,-0.070611,-0.286159,-0.375452,-0.009337,0.999992,-0.002497,-0.003276,-0.000090
2850,0.034737,-0.131278,9.925504,0.022310,-0.106546,-0.055348,-0.289765,-0.377441,-0.011392,0.999991,-0.002529,-0.003294,-0.000108
2851,0.036904,-0.127716,9.929752,0.018552,-0.104760,-0.056868,-0.298489,-0.377502,-0.013182,0.999991,-0.002605,-0.003294,-0.000124
2852,0.041539,-0.126105,9.931038,-0.000855,-0.102856,-0.075170,-0.312783,-0.375934,-0.015269,0.999991,-0.002730,-0.003280,-0.000142
2853,0.038388,-0.121872,9.929164,-0.006456,-0.085705,-0.091946,-0.326544,-0.374221,-0.017948,0.999991,-0.002850,-0.003265,-0.000166
2854,0.033598,-0.118209,9.933647,-0.042484,-0.070027,-0.091938,-0.339768,-0.371253,-0.020918,0.999990,-0.002966,-0.003239,-0.000192
2855,0.038835,-0.122888,9.932549,-0.078487,-0.058936,-0.094981,-0.353836,-0.367960,-0.023943,0.999990,-0.003088,-0.003210,-0.000219
2856,0.021290,-0.127188,9.931396,-0.090104,-0.058446,-0.094972,-0.369108,-0.363397,-0.027018,0.999990,-0.003222,-0.003170,-0.000246
2857,0.023372,-0.129482,9.930596,-0.083421,-0.057854,-0.098014,-0.384611,-0.357461,-0.030143,0.999990,-0.003357,-0.003119,-0.000274
2858,0.030261,-0.131459,9.928556,-0.067576,-0.063444,-0.091901,-0.399639,-0.352648,-0.033217,0.999989,-0.003488,-0.003076,-0.000301
2859,0.021805,-0.144880,9.929639,-0.057908,-0.070561,-0.097995,-0.415216,-0.348076,-0.036284,0.999989,-0.003624,-0.003036,-0.000328
2860,0.018386,-0.137171,9.926306,-0.046716,-0.066924,-0.093407,-0.430487,-0.342578,-0.039377,0.999988,-0.003758,-0.002988,-0.000355
2861,0.031889,-0.136605,9.920283,-0.029323,-0.054215,-0.097975,-0.443984,-0.337948,-0.042479,0.999988,-0.003876,-0.002948,-0.000382
2862,0.024782,-0.136377,9.922443,-0.004260,-0.029359,-0.097967,-0.456223,-0.333479,-0.045665,0.999988,-0.003982,-0.002909,-0.000410
2863,0.021052,-0.134245,9.921287,-0.000511,-0.001384,-0.084225,-0.467326,-0.327237,-0.048634,0.999988,-0.004079,-0.002854,-0.000436
2864,0.031051,-0.126046,9.918075,0.015550,0.028058,-0.076588,-0.476724,-0.320818,-0.051264,0.999987,-0.004161,-0.002798,-0.000459
2865,0.031536,-0.130605,9.913756,0.022506,0.036046,-0.084211,-0.485055,-0.314998,-0.053902,0.999987,-0.004234,-0.002747,-0.000482
2866,0.025566,-0.141653,9.914638,-0.002674,0.025747,-0.079625,-0.494902,-0.308894,-0.056586,0.999987,-0.004320,-0.002693,-0.000505
2867,0.029138,-0.139608,9.914336,-0.005006,0.000191,-0.064359,-0.505773,-0.303353,-0.058932,0.999987,-0.004415,-0.002645,-0.000526
2868,0.034985,-0.135324,9.911901,-0.017949,-0.036130,-0.058248,-0.515950,-0.299943,-0.060918,0.999986,-0.004504,-0.002615,-0.000543
2869,0.031264,-0.129555,9.914954,-0.029267,-0.057217,-0.061294,-0.525211,-0.297843,-0.062853,0.999986,-0.004585,-0.002597,-0.000560
2870,0.031079,-0.132936,9.914476,-0.035965,-0.061497,-0.064340,-0.534215,-0.295881,-0.064887,0.999986,-0.004663,-0.002579,-0.000578
2871,0.039466,-0.131735,9.913541,-0.015189,-0.058214,-0.071965,-0.542891,-0.294797,-0.067100,0.999985,-0.004739,-0.002570,-0.000598
2872,0.032374,-0.130242,9.913408,-0.027944,-0.053416,-0.068908,-0.550880,-0.293755,-0.069393,0.999985,-0.004809,-0.002561,-0.000618
2873,0.026710,-0.134265,9.919581,-0.025434,-0.047003,-0.082636,-0.558997,-0.291333,-0.071866,0.999985,-0.004880,-0.002539,-0.000640
2874,0.031095,-0.134562,9.914962,-0.027515,-0.051268,-0.087208,-0.567251,-0.288813,-0.074643,0.999984,-0.004952,-0.002517,-0.000664
2876,0.031015,-0.139438,9.917021,-0.037242,-0.061673,-0.085676,-0.575930,-0.287035,-0.077468,0.999984,-0.005028,-0.002501,-0.000689
2877,0.030694,-0.126632,9.918430,-0.022474,-0.065976,-0.076515,-0.583476,-0.285534,-0.080117,0.999984,-0.005093,-0.002488,-0.000712
2878,0.035469,-0.132600,9.917326,-0.029001,-0.053531,-0.087192,-0.589955,-0.284380,-0.082797,0.999983,-0.005150,-0.002478,-0.000735
2879,0.039186,-0.134495,9.919206,-0.017254,-0.048780,-0.082611,-0.596870,-0.283803,-0.085579,0.999983,-0.005210,-0.002473,-0.000760
2880,0.034431,-0.134720,9.916589,-0.023819,-0.039446,-0.074976,-0.603680,-0.282919,-0.088160,0.999983,-0.005270,-0.002465,-0.000782
2881,0.033081,-0.126697,9.919317,-0.011999,-0.031595,-0.064291,-0.609425,-0.281182,-0.090443,0.999983,-0.005320,-0.002450,-0.000802
2882,0.024376,-0.132432,9.921824,-0.036767,-0.029779,-0.073442,-0.614950,-0.278358,-0.092705,0.999982,-0.005368,-0.002425,-0.000822
2883,0.027583,-0.122359,9.922340,-0.034025,-0.037084,-0.067333,-0.620233,-0.275172,-0.095019,0.999982,-0.005415,-0.002397,-0.000842
2884,0.028655,-0.121641,9.922117,-0.044923,-0.029168,-0.068855,-0.624433,-0.272487,-0.097263,0.999982,-0.005451,-0.002373,-0.000862
2885,0.025082,-0.127731,9.926526,-0.031434,-0.045657,-0.078006,-0.628944,-0.269804,-0.099682,0.999982,-0.005491,-0.002350,-0.000883
2886,0.030965,-0.126468,9.924581,-0.034753,-0.046909,-0.085632,-0.633599,-0.267730,-0.102376,0.999982,-0.005531,-0.002331,-0.000906
2887,0.033434,-0.128536,9.921618,-0.018229,-0.046702,-0.068843,-0.637966,-0.266557,-0.104917,0.999981,-0.005569,-0.002321,-0.000929
2888,0.030230,-0.138381,9.920619,-0.007885,-0.046494,-0.065787,-0.642888,-0.265357,-0.107122,0.999981,-0.005612,-0.002310,-0.000948
2889,0.030304,-0.141535,9.918579,-0.011357,-0.055422,-0.073413,-0.648796,-0.264044,-0.109397,0.999981,-0.005664,-0.002299,-0.000968
2890,0.034246,-0.140067,9.918044,-0.011776,-0.046070,-0.071882,-0.654753,-0.263154,-0.111774,0.999981,-0.005716,-0.002291,-0.000989
2891,0.027684,-0.146910,9.922762,-0.016796,-0.048910,-0.073403,-0.661114,-0.261939,-0.114150,0.999980,-0.005772,-0.002280,-0.001009
2892,0.028920,-0.142686,9.924341,-0.020292,-0.048663,-0.073398,-0.667656,-0.260288,-0.116551,0.999980,-0.005829,-0.002265,-0.001030
2893,0.026944,-0.139459,9.925261,-0.031349,-0.052991,-0.074920,-0.673504,-0.258682,-0.118981,0.999980,-0.005880,-0.002251,-0.001052
2894,0.023867,-0.139074,9.922071,-0.036261,-0.051183,-0.065760,-0.679069,-0.256685,-0.121285,0.999979,-0.005928,-0.002234,-0.001072
2895,0.020936,-0.134133,9.920922,-0.027386,-0.052388,-0.062703,-0.683872,-0.254159,-0.123389,0.999979,-0.005970,-0.002211,-0.001090
2896,0.023756,-0.135613,9.917964,-0.016947,-0.055124,-0.067276,-0.687852,-0.251764,-0.125519,0.999979,-0.006005,-0.002190,-0.001109
2897,0.019980,-0.137563,9.915611,-0.018733,-0.047178,-0.082530,-0.691877,-0.249278,-0.127980,0.999979,-0.006040,-0.002169,-0.001130
2898,0.022950,-0.144487,9.915922,0.003844,-0.043810,-0.084051,-0.696279,-0.246612,-0.130720,0.999979,-0.006079,-0.002145,-0.001154
2899,0.027673,-0.147195,9.915291,0.008050,-0.043555,-0.084046,-0.701021,-0.244712,-0.133483,0.999978,-0.006120,-0.002128,-0.001178
2900,0.026936,-0.148587,9.917932,0.009186,-0.050966,-0.091672,-0.705914,-0.243392,-0.136370,0.999978,-0.006163,-0.002117,-0.001203
2901,0.027515,-0.150243,9.912523,-0.007999,-0.047697,-0.084038,-0.711211,-0.242181,-0.139255,0.999978,-0.006209,-0.002106,-0.001228
2902,0.035294,-0.145985,9.917715,-0.006840,-0.058225,-0.073352,-0.716356,-0.241935,-0.141836,0.999977,-0.006254,-0.002103,-0.001251
2903,0.037506,-0.141288,9.917624,-0.020864,-0.058146,-0.073350,-0.720673,-0.242845,-0.144240,0.999977,-0.006292,-0.002111,-0.001272
2904,0.032968,-0.132135,9.924268,-0.014937,-0.058049,-0.067245,-0.723626,-0.243514,-0.146549,0.999977,-0.006317,-0.002117,-0.001292
2905,0.035304,-0.135817,9.923837,-0.033376,-0.045725,-0.053509,-0.726133,-0.243732,-0.148532,0.999977,-0.006339,-0.002119,-0.001310
2906,0.035511,-0.131116,9.929976,-0.022809,-0.031894,-0.051982,-0.728576,-0.243738,-0.150268,0.999977,-0.006361,-0.002119,-0.001325
2907,0.026456,-0.132586,9.927526,-0.021367,-0.025628,-0.056557,-0.730420,-0.242555,-0.152060,0.999977,-0.006377,-0.002108,-0.001340
2908,0.026062,-0.129456,9.926787,-0.027537,-0.019295,-0.061132,-0.732116,-0.240275,-0.154008,0.999977,-0.006392,-0.002088,-0.001357
2909,0.028944,-0.132583,9.921063,-0.023022,-0.019088,-0.071810,-0.733787,-0.238188,-0.156212,0.999976,-0.006406,-0.002070,-0.001376
2910,0.027291,-0.126674,9.921864,-0.018482,-0.023474,-0.085541,-0.734988,-0.236369,-0.158823,0.999976,-0.006417,-0.002054,-0.001399
2911,0.024856,-0.124737,9.922538,-0.010831,-0.038516,-0.097745,-0.735179,-0.234550,-0.161865,0.999976,-0.006418,-0.002038,-0.001426
2912,0.028028,-0.129674,9.923571,-0.003200,-0.044413,-0.102321,-0.735378,-0.233215,-0.165182,0.999976,-0.006420,-0.002026,-0.001455
2913,0.023857,-0.138954,9.922673,0.004329,-0.051833,-0.096214,-0.736686,-0.232058,-0.168464,0.999976,-0.006432,-0.002016,-0.001483
2914,0.019521,-0.139835,9.925007,-0.012627,-0.042408,-0.102314,-0.739102,-0.230090,-0.171744,0.999976,-0.006453,-0.001998,-0.001512
2915,0.029047,-0.141184,9.922411,-0.014336,-0.033025,-0.091628,-0.741982,-0.228360,-0.174950,0.999976,-0.006478,-0.001983,-0.001540
2916,0.027581,-0.144262,9.918897,-0.034383,-0.020654,-0.085522,-0.745572,-0.227102,-0.177879,0.999976,-0.006509,-0.001972,-0.001565
2917,0.028199,-0.150039,9.923381,-0.040752,-0.017435,-0.080941,-0.750345,-0.225551,-0.180631,0.999975,-0.006551,-0.001958,-0.001589
2918,0.033535,-0.143667,9.921173,-0.041002,-0.012737,-0.077886,-0.755030,-0.224485,-0.183259,0.999975,-0.006592,-0.001948,-0.001612
2919,0.031358,-0.142544,9.921372,-0.035082,-0.020273,-0.070254,-0.758745,-0.223812,-0.185711,0.999975,-0.006624,-0.001942,-0.001634
2920,0.023190,-0.143153,9.923154,-0.029148,-0.029261,-0.065675,-0.762071,-0.222446,-0.187956,0.999975,-0.006653,-0.001930,-0.001653
2921,0.027332,-0.146111,9.921428,-0.001868,-0.038224,-0.070248,-0.765069,-0.221025,-0.190197,0.999974,-0.006680,-0.001918,-0.001673
2922,0.028470,-0.142073,9.913125,-0.017300,-0.042651,-0.067195,-0.767675,-0.220384,-0.192461,0.999974,-0.006702,-0.001912,-0.001692
2923,0.023357,-0.132596,9.917709,-0.014315,-0.042473,-0.068717,-0.769098,-0.219468,-0.194703,0.999974,-0.006715,-0.001904,-0.001712
2924,0.025995,-0.140118,9.916690,-0.015889,-0.045332,-0.074818,-0.770238,-0.218384,-0.197073,0.999974,-0.006725,-0.001894,-0.001733
2925,0.029365,-0.142372,9.917961,-0.016005,-0.042132,-0.087024,-0.772303,-0.217910,-0.199745,0.999974,-0.006743,-0.001890,-0.001756
2926,0.028632,-0.140992,9.917583,-0.023752,-0.040480,-0.082444,-0.774527,-0.217637,-0.202545,0.999974,-0.006762,-0.001887,-0.001780
2927,0.027874,-0.139717,9.919013,-0.016216,-0.028136,-0.085494,-0.776427,-0.216999,-0.205323,0.999974,-0.006779,-0.001881,-0.001805
2928,0.030586,-0.153052,9.918612,-0.010287,-0.032592,-0.097698,-0.779192,-0.216436,-0.208354,0.999973,-0.006803,-0.001876,-0.001831
2929,0.030562,-0.150382,9.917641,-0.016637,-0.024863,-0.091593,-0.782915,-0.216100,-0.211483,0.999973,-0.006836,-0.001873,-0.001858
2930,0.029047,-0.151010,9.915204,-0.033647,-0.029330,-0.073279,-0.786729,-0.215571,-0.214207,0.999973,-0.006869,-0.001868,-0.001882
2931,0.031106,-0.147340,9.918487,-0.044522,-0.038380,-0.076329,-0.790589,-0.215331,-0.216675,0.999973,-0.006903,-0.001866,-0.001904
2932,0.032359,-0.144626,9.920431,-0.050761,-0.044404,-0.071749,-0.793984,-0.215672,-0.219117,0.999972,-0.006932,-0.001869,-0.001925
2933,0.031685,-0.132754,9.922319,-0.070619,-0.047379,-0.058015,-0.796285,-0.216212,-0.221257,0.999972,-0.006952,-0.001873,-0.001944
2934,0.035379,-0.132674,9.923832,-0.052236,-0.041220,-0.059540,-0.797363,-0.216970,-0.223199,0.999972,-0.006962,-0.001880,-0.001961
2935,0.035794,-0.136854,9.924090,-0.055241,-0.039666,-0.079377,-0.798518,-0.217979,-0.225498,0.999972,-0.006972,-0.001888,-0.001981
2936,0.037168,-0.137663,9.920984,-0.046071,-0.041175,-0.067170,-0.800017,-0.219132,-0.227922,0.999972,-0.006985,-0.001898,-0.002002
2937,0.037300,-0.145354,9.919317,-0.046116,-0.039640,-0.079377,-0.802144,-0.220395,-0.230343,0.999972,-0.007004,-0.001909,-0.002024
2938,0.038449,-0.149989,9.918987,-0.035565,-0.047267,-0.079376,-0.805223,-0.221847,-0.232962,0.999971,-0.007031,-0.001922,-0.002047
2939,0.035669,-0.148412,9.919053,-0.044866,-0.051827,-0.074797,-0.808490,-0.223299,-0.235501,0.999971,-0.007059,-0.001934,-0.002069
2940,0.032631,-0.149143,9.922736,-0.040418,-0.053290,-0.067167,-0.811646,-0.224238,-0.237835,0.999971,-0.007087,-0.001942,-0.002089
2941,0.025153,-0.150188,9.927062,-0.031398,-0.033310,-0.070216,-0.814630,-0.223814,-0.240097,0.999971,-0.007113,-0.001938,-0.002109
2942,0.023868,-0.149246,9.932219,-0.022369,-0.042259,-0.068686,-0.817207,-0.222353,-0.242387,0.999970,-0.007135,-0.001925,-0.002129
2943,0.022113,-0.144850,9.933261,-0.025502,-0.032877,-0.077838,-0.819070,-0.220624,-0.244807,0.999970,-0.007152,-0.001910,-0.002150
2944,0.022611,-0.142017,9.937601,-0.028575,-0.032646,-0.073257,-0.820260,-0.218667,-0.247309,0.999970,-0.007162,-0.001893,-0.002172
2945,0.022572,-0.135873,9.934212,-0.023952,-0.024793,-0.074780,-0.820510,-0.216680,-0.249764,0.999970,-0.007164,-0.001875,-0.002193
2946,0.025476,-0.128144,9.933042,-0.025331,-0.029173,-0.080882,-0.819354,-0.214979,-0.252353,0.999970,-0.007154,-0.001860,-0.002216
2947,0.029517,-0.125739,9.933108,-0.035792,-0.021400,-0.080880,-0.817438,-0.213953,-0.255048,0.999970,-0.007138,-0.001851,-0.002239
2948,0.029944,-0.135531,9.929645,-0.035630,-0.027397,-0.076302,-0.816459,-0.213371,-0.257664,0.999970,-0.007129,-0.001846,-0.002262
2949,0.030028,-0.139616,9.927728,-0.088980,-0.034924,-0.093085,-0.817756,-0.213095,-0.260475,0.999970,-0.007140,-0.001843,-0.002286
2950,0.033354,-0.145144,9.926958,-0.163762,-0.039426,-0.090032,-0.822110,-0.213367,-0.263508,0.999970,-0.007178,-0.001845,-0.002313
2951,0.031856,-0.156702,9.925753,-0.191356,-0.045468,-0.091558,-0.829722,-0.213990,-0.266508,0.999969,-0.007245,-0.001851,-0.002339
2952,0.025595,-0.147446,9.918386,-0.124347,-0.046874,-0.086978,-0.836712,-0.213978,-0.269454,0.999969,-0.007306,-0.001850,-0.002365
2953,0.026675,-0.138699,9.918025,-0.101441,-0.040613,-0.091554,-0.840238,-0.213378,-0.272409,0.999969,-0.007337,-0.001845,-0.002391
2954,0.024869,-0.134221,9.914125,-0.041803,-0.038925,-0.065611,-0.840947,-0.212583,-0.275015,0.999969,-0.007343,-0.001837,-0.002414
2955,0.025383,-0.135962,9.913415,0.016330,-0.035703,-0.068661,-0.839367,-0.211600,-0.277242,0.999969,-0.007329,-0.001829,-0.002433
2956,0.031918,-0.135810,9.917390,-0.046094,-0.034061,-0.059503,-0.838022,-0.211242,-0.279367,0.999969,-0.007318,-0.001826,-0.002451
2957,0.034545,-0.150261,9.924099,-0.136093,-0.032486,-0.054926,-0.840629,-0.211728,-0.281260,0.999968,-0.007340,-0.001830,-0.002468
2958,0.031422,-0.149739,9.924041,-0.078174,-0.023278,-0.062554,-0.845080,-0.211984,-0.283201,0.999968,-0.007379,-0.001832,-0.002485
2959,0.034310,-0.152117,9.925665,-0.105712,-0.021697,-0.085442,-0.849082,-0.212032,-0.285652,0.999968,-0.007414,-0.001832,-0.002506
2960,0.033763,-0.147934,9.926248,-0.148485,-0.027762,-0.082389,-0.853937,-0.212379,-0.288435,0.999967,-0.007457,-0.001835,-0.002531
2961,0.029042,-0.149157,9.930744,-0.166810,-0.032262,-0.096121,-0.859369,-0.212390,-0.291394,0.999967,-0.007504,-0.001834,-0.002557
2962,0.029259,-0.138219,9.929879,-0.066030,-0.035203,-0.099171,-0.862315,-0.212089,-0.294635,0.999967,-0.007530,-0.001831,-0.002585
2963,0.031849,-0.137800,9.932817,-0.093335,-0.042743,-0.093066,-0.862803,-0.212237,-0.297827,0.999967,-0.007534,-0.001832,-0.002613
2964,0.032096,-0.137567,9.932098,-0.137416,-0.045726,-0.093066,-0.864359,-0.212833,-0.300915,0.999966,-0.007548,-0.001837,-0.002640
2965,0.031883,-0.140821,9.933428,-0.117427,-0.039552,-0.105273,-0.866570,-0.213370,-0.304207,0.999966,-0.007567,-0.001842,-0.002669
2966,0.031322,-0.138076,9.927989,-0.198148,-0.034897,-0.100694,-0.869785,-0.213637,-0.307628,0.999966,-0.007595,-0.001844,-0.002699
2967,0.034402,-0.138058,9.922019,-0.315467,-0.030259,-0.096117,-0.875960,-0.213979,-0.310900,0.999965,-0.007649,-0.001847,-0.002727
2968,0.036613,-0.146769,9.918465,-0.387059,-0.036341,-0.103747,-0.885977,-0.214848,-0.314220,0.999965,-0.007737,-0.001854,-0.002756
2969,0.036554,-0.142003,9.917850,-0.306068,-0.036334,-0.099169,-0.895952,-0.216008,-0.317589,0.999964,-0.007824,-0.001863,-0.002786
2970,0.036658,-0.153553,9.913541,-0.267827,-0.031746,-0.096117,-0.904267,-0.217063,-0.320830,0.999963,-0.007896,-0.001872,-0.002815
2971,0.037371,-0.143653,9.912566,-0.174642,-0.027161,-0.093065,-0.910254,-0.218007,-0.323972,0.999963,-0.007949,-0.001880,-0.002842
2973,0.038085,-0.154676,9.915497,-0.195892,-0.053103,-0.103748,-0.914908,-0.219413,-0.327237,0.999962,-0.007989,-0.001892,-0.002871
2974,0.043439,-0.169118,9.915869,-0.093712,-0.047041,-0.099170,-0.920483,-0.221696,-0.330588,0.999962,-0.008038,-0.001911,-0.002900
2975,0.042075,-0.179121,9.920568,-0.135132,-0.042530,-0.099170,-0.927219,-0.224122,-0.333858,0.999961,-0.008097,-0.001932,-0.002929
2976,0.040365,-0.163880,9.924598,-0.342824,-0.060879,-0.079333,-0.937385,-0.226396,-0.336796,0.999960,-0.008186,-0.001952,-0.002955
2977,0.041474,-0.183870,9.925508,-0.529165,-0.114313,-0.042711,-0.954289,-0.229713,-0.338772,0.999959,-0.008334,-0.001980,-0.002973
2978,0.038153,-0.183142,9.922193,-0.581331,-0.109740,-0.006088,-0.976578,-0.233520,-0.339507,0.999957,-0.008528,-0.002013,-0.002980
2979,0.028467,-0.175766,9.921638,-0.746307,-0.121850,0.027485,-1.001065,-0.236063,-0.339075,0.999955,-0.008742,-0.002034,-0.002977
2980,0.030985,-0.174678,9.920476,-0.796721,-0.138477,0.029014,-1.027553,-0.238280,-0.338055,0.999953,-0.008973,-0.002053,-0.002969
2981,0.037327,-0.191081,9.920750,-0.690010,-0.158214,0.001549,-1.053727,-0.241883,-0.337450,0.999951,-0.009202,-0.002084,-0.002964
2982,0.033936,-0.179628,9.920180,-0.220100,-0.065047,-0.053382,-1.069884,-0.244475,-0.338242,0.999950,-0.009343,-0.002106,-0.002971
2983,0.038894,-0.180711,9.918223,0.013420,-0.014609,-0.090002,-1.072611,-0.244751,-0.340609,0.999949,-0.009366,-0.002108,-0.002992
2984,0.041716,-0.181209,9.922614,0.146241,0.012888,-0.128151,-1.069061,-0.244452,-0.344248,0.999950,-0.009336,-0.002105,-0.003024
2985,0.039413,-0.178350,9.921601,0.491183,0.072425,-0.143410,-1.057324,-0.242768,-0.348804,0.999951,-0.009233,-0.002090,-0.003063
2986,0.032947,-0.154492,9.922634,0.908016,0.133548,-0.143409,-1.030575,-0.238265,-0.353660,0.999953,-0.009000,-0.002051,-0.003105
2987,0.035671,-0.155176,9.917141,0.908390,0.106187,-0.128150,-0.995292,-0.232938,-0.358276,0.999955,-0.008692,-0.002006,-0.003144
2988,0.030337,-0.155363,9.921624,0.894947,0.087989,-0.111364,-0.961348,-0.228270,-0.362338,0.999958,-0.008395,-0.001965,-0.003179
2989,0.027400,-0.147993,9.918421,0.908936,0.074416,-0.093051,-0.927859,-0.223491,-0.365802,0.999960,-0.008103,-0.001924,-0.003208
2990,0.030761,-0.146198,9.916308,0.709277,0.031834,-0.076264,-0.897716,-0.219835,-0.368663,0.999962,-0.007840,-0.001893,-0.003232
2991,0.035305,-0.153099,9.915564,0.411841,0.018177,-0.057952,-0.877417,-0.218009,-0.370918,0.999964,-0.007663,-0.001878,-0.003251
2992,0.032125,-0.145557,9.921031,0.308141,0.007557,-0.065582,-0.864576,-0.216806,-0.372986,0.999964,-0.007551,-0.001867,-0.003269
2993,0.030378,-0.132323,9.921089,0.280845,0.004597,-0.086944,-0.852462,-0.215410,-0.375539,0.999965,-0.007445,-0.001855,-0.003291
2994,0.031138,-0.124641,9.919036,0.273507,0.006219,-0.105254,-0.839328,-0.213995,-0.378759,0.999966,-0.007331,-0.001843,-0.003319
2995,0.027176,-0.123673,9.918480,0.209740,0.003283,-0.120513,-0.826968,-0.212348,-0.382540,0.999967,-0.007223,-0.001829,-0.003352
2996,0.025100,-0.128838,9.917852,0.213052,-0.004191,-0.157134,-0.816444,-0.210357,-0.387179,0.999967,-0.007131,-0.001812,-0.003392
2997,0.030804,-0.131191,9.915190,0.286472,-0.001015,-0.209015,-0.805744,-0.208868,-0.393288,0.999968,-0.007038,-0.001799,-0.003445
2998,0.033290,-0.128470,9.914746,0.311039,-0.013161,-0.239532,-0.793729,-0.208394,-0.400767,0.999968,-0.006933,-0.001794,-0.003510
2999,0.033215,-0.128551,9.920168,0.141806,-0.003964,-0.257843,-0.784240,-0.208242,-0.409059,0.999969,-0.006850,-0.001793,-0.003582
3000,0.038226,-0.120757,9.922530,0.108407,0.006723,-0.292941,-0.777732,-0.208253,-0.418247,0.999969,-0.006794,-0.001793,-0.003662
3001,0.034314,-0.097677,9.921803,-0.004136,0.002142,-0.320408,-0.770946,-0.208283,-0.428489,0.999969,-0.006734,-0.001792,-0.003751
3002,0.033856,-0.102089,9.924697,-0.583493,-0.031400,-0.349403,-0.774111,-0.208538,-0.439669,0.999968,-0.006762,-0.001794,-0.003849
3003,0.059246,-0.270124,9.924706,-1.010770,0.006723,-1.889062,-0.800789,-0.209804,-0.476966,0.999965,-0.006996,-0.001802,-0.004175
3004,0.047451,-0.214554,9.914843,-0.203937,0.250809,-8.395607,-0.825507,-0.208768,-0.648403,0.999956,-0.007214,-0.001781,-0.005671
3005,0.040952,-0.234835,9.911519,-0.486538,0.320973,-10.901175,-0.839902,-0.204275,-0.970106,0.999936,-0.007344,-0.001720,-0.008478
3006,0.044376,-0.254915,9.909821,-0.444176,0.365200,-12.552225,-0.858893,-0.198973,-1.361103,0.999900,-0.007515,-0.001647,-0.011890
3007,0.041101,-0.256519,9.905667,0.066616,0.426209,-13.913351,-0.868919,-0.192811,-1.802323,0.999846,-0.007608,-0.001563,-0.015740
3008,0.014695,-0.100497,9.904704,0.310658,0.464378,-14.873157,-0.862454,-0.184912,-2.282257,0.999772,-0.007557,-0.001463,-0.019927
3009,0.030026,-0.158688,9.912951,-0.539209,0.324030,-11.912861,-0.863880,-0.177986,-2.728835,0.999687,-0.007574,-0.001373,-0.023822
3010,0.037329,-0.154441,9.917893,-0.539235,0.372851,-13.631055,-0.880892,-0.172995,-3.154689,0.999590,-0.007726,-0.001297,-0.027537
3011,0.039478,-0.174970,9.922077,-0.763595,0.482689,-17.043024,-0.901745,-0.167074,-3.666075,0.999456,-0.007912,-0.001205,-0.031998
3012,0.043959,-0.169994,9.922388,-0.949824,0.665756,-22.049583,-0.929319,-0.158940,-4.317823,0.999256,-0.008156,-0.001080,-0.037681
3013,0.040332,-0.169933,9.924491,-0.997168,0.815246,-26.045984,-0.960168,-0.148144,-5.119683,0.998966,-0.008428,-0.000917,-0.044672
3014,0.032930,-0.194304,9.921280,-1.175768,0.923551,-29.337406,-0.994989,-0.135393,-6.043045,0.998571,-0.008733,-0.000722,-0.052719
3015,0.033514,-0.183940,9.920423,-0.913381,1.022704,-32.055080,-1.028467,-0.121450,-7.066588,0.998058,-0.009023,-0.000505,-0.061636
3016,0.030060,-0.168297,9.920203,-0.391517,1.076078,-32.952324,-1.048103,-0.106541,-8.150404,0.997429,-0.009189,-0.000277,-0.071071
3017,0.021813,-0.172395,9.922594,-0.087824,1.060797,-32.360264,-1.053759,-0.091151,-9.239311,0.996708,-0.009230,-0.000052,-0.080545
3018,0.027337,-0.156690,9.923140,0.537869,0.967688,-30.182768,-1.043891,-0.076765,-10.282041,0.995935,-0.009133,0.000149,-0.089610
3019,0.034851,-0.108849,9.920393,1.275066,0.810458,-25.717915,-1.010173,-0.064580,-11.214026,0.995176,-0.008828,0.000300,-0.097706
3020,0.030928,-0.134658,9.918454,0.986869,0.677628,-21.877159,-0.968951,-0.054412,-12.007540,0.994479,-0.008459,0.000412,-0.104594
3021,0.032213,-0.122885,9.917485,0.362920,0.630247,-21.112673,-0.943781,-0.045608,-12.724269,0.993807,-0.008229,0.000517,-0.110812
3022,0.040317,-0.113519,9.920021,-0.134361,0.591999,-20.574024,-0.937184,-0.038004,-13.419264,0.993117,-0.008161,0.000626,-0.116836
3023,0.040843,-0.135377,9.921647,-0.971955,0.617820,-21.126413,-0.953354,-0.030938,-14.114483,0.992389,-0.008290,0.000754,-0.122859
3024,0.035680,-0.173384,9.926342,-1.896632,0.704681,-23.970739,-1.000356,-0.023310,-14.866336,0.991558,-0.008683,0.000928,-0.129366
3025,0.037690,-0.168363,9.923234,-1.869172,0.779336,-25.920874,-1.062919,-0.015134,-15.698133,0.990589,-0.009207,0.001136,-0.136559
3026,0.043761,-0.182444,9.923377,-1.399174,0.774623,-25.661469,-1.117063,-0.007381,-16.558123,0.989531,-0.009656,0.001340,-0.143988
3027,0.040593,-0.194039,9.921659,-1.324402,0.777530,-25.826271,-1.162368,-0.000493,-17.416542,0.988421,-0.010027,0.001531,-0.151396
3028,0.041759,-0.206022,9.918937,-1.409864,0.810954,-26.342033,-1.208108,0.006047,-18.286320,0.987240,-0.010400,0.001727,-0.158892
3029,0.048250,-0.212323,9.915455,-1.107745,0.850464,-26.529728,-1.250403,0.012633,-19.167852,0.985984,-0.010741,0.001925,-0.166481
3030,0.048073,-0.208138,9.915321,-0.860536,0.860966,-26.944786,-1.283332,0.019068,-20.059441,0.984656,-0.010999,0.002114,-0.174146
3031,0.045792,-0.201649,9.917555,-1.147358,0.912668,-27.726061,-1.316457,0.025577,-20.971001,0.983237,-0.011256,0.002310,-0.181972
3032,0.051707,-0.204908,9.917911,-1.054198,0.962834,-27.512438,-1.352572,0.032837,-21.892056,0.981739,-0.011534,0.002523,-0.189868
3033,0.048769,-0.200658,9.917968,-0.414733,0.945849,-27.013462,-1.376277,0.040345,-22.801252,0.980199,-0.011703,0.002719,-0.197650
3034,0.046459,-0.176123,9.921242,0.293468,0.890721,-26.244402,-1.376672,0.047069,-23.689304,0.978638,-0.011673,0.002868,-0.205239
3035,0.046764,-0.175051,9.924016,0.415769,0.863059,-25.553160,-1.362582,0.053097,-24.552990,0.977065,-0.011520,0.002981,-0.212609
3036,0.046584,-0.219412,9.921706,0.145825,0.870489,-25.925491,-1.352138,0.059003,-25.411354,0.975446,-0.011397,0.003097,-0.219922
3037,0.046759,-0.210823,9.917714,0.415985,0.832137,-26.273409,-1.342751,0.064180,-26.281712,0.973749,-0.011283,0.003209,-0.227324
3038,0.051282,-0.184772,9.919422,0.713669,0.795300,-25.211369,-1.323207,0.068480,-27.140142,0.972020,-0.011084,0.003290,-0.234612
3039,0.051913,-0.206333,9.913218,0.428449,0.744717,-23.166632,-1.303472,0.072645,-27.946768,0.970347,-0.010885,0.003362,-0.241448
3040,0.049113,-0.217231,9.910180,-0.030799,0.721602,-23.525230,-1.297113,0.076382,-28.725279,0.968685,-0.010800,0.003454,-0.248035
3041,0.042155,-0.211813,9.905101,-0.451917,0.820575,-25.508936,-1.305778,0.080669,-29.542845,0.966890,-0.010839,0.003586,-0.254939
3042,0.035572,-0.232286,9.907921,-0.667062,0.835645,-26.215448,-1.325539,0.085921,-30.405279,0.964942,-0.010966,0.003757,-0.262208
3043,0.032129,-0.253058,9.909353,-1.195087,0.881248,-28.496708,-1.358708,0.090831,-31.317520,0.962821,-0.011203,0.003963,-0.269879
3044,0.041771,-0.222673,9.917771,-0.854826,0.963460,-30.947350,-1.394750,0.095217,-32.308628,0.960447,-0.011459,0.004184,-0.278195
3045,0.045468,-0.211150,9.924560,0.654391,0.923570,-27.196632,-1.398708,0.100197,-33.278091,0.958059,-0.011444,0.004333,-0.286310
3046,0.053512,-0.162918,9.926400,1.879909,0.624250,-19.937809,-1.355233,0.104022,-34.063999,0.956077,-0.011042,0.004332,-0.292875
3047,0.056345,-0.153769,9.928841,1.616212,0.477499,-15.447017,-1.294178,0.105351,-34.653984,0.954562,-0.010507,0.004241,-0.297796
3048,0.082113,-0.147383,9.922786,0.215698,0.431406,-15.054860,-1.260782,0.104969,-35.162544,0.953234,-0.010212,0.004196,-0.302030
3049,0.075522,-0.176984,9.918276,-2.129437,0.542449,-16.081816,-1.290785,0.104921,-35.681705,0.951854,-0.010442,0.004323,-0.306345
3050,0.065163,-0.292109,9.926672,-4.125396,0.615374,-18.445482,-1.396748,0.106371,-36.257439,0.950292,-0.011295,0.004675,-0.311119
3051,0.067339,-0.338255,9.929109,-5.422729,0.639484,-22.832525,-1.561108,0.105386,-36.945694,0.948390,-0.012630,0.005189,-0.316814
3052,0.071936,-0.355757,9.926702,-5.624477,0.712411,-26.098015,-1.751038,0.100096,-37.761463,0.946088,-0.014175,0.005771,-0.323549
3053,0.055652,-0.372142,9.924758,-4.423852,0.773154,-25.119904,-1.923644,0.093585,-38.615398,0.943628,-0.015572,0.006321,-0.330582
3054,0.056508,-0.376064,9.927554,-2.783683,0.719484,-23.922060,-2.047732,0.086687,-39.433083,0.941227,-0.016566,0.006740,-0.337300
3055,0.069516,-0.290486,9.913854,-1.984059,0.772608,-25.037521,-2.127849,0.078118,-40.249397,0.938788,-0.017200,0.007029,-0.343993
3056,0.068570,-0.249186,9.914102,-1.113951,0.950840,-24.672836,-2.176159,0.071764,-41.078342,0.936268,-0.017563,0.007249,-0.350773
3057,0.065965,-0.218505,9.915067,-0.702977,1.055840,-24.427176,-2.200792,0.070128,-41.897293,0.933733,-0.017716,0.007438,-0.357454
3058,0.068121,-0.238460,9.918164,-0.604775,1.173050,-26.465820,-2.216400,0.070770,-42.746258,0.931057,-0.017785,0.007623,-0.364361
3059,0.074041,-0.254437,9.913851,-0.526462,1.249046,-28.431223,-2.229853,0.071614,-43.662014,0.928113,-0.017830,0.007816,-0.371789
3060,0.077843,-0.250650,9.912466,-0.458844,1.291453,-29.195724,-2.241116,0.072216,-44.623318,0.924960,-0.017853,0.008007,-0.379560
3061,0.078150,-0.272638,9.912764,-0.360733,1.249927,-28.257292,-2.249958,0.072672,-45.581703,0.921752,-0.017855,0.008190,-0.387282
3062,0.082586,-0.281744,9.913348,-0.326761,1.217547,-27.498917,-2.257231,0.072755,-46.511799,0.918577,-0.017846,0.008360,-0.394750
3063,0.084293,-0.250978,9.914513,-0.350728,1.150060,-26.029467,-2.263698,0.072374,-47.404720,0.915472,-0.017833,0.008519,-0.401896
3064,0.081571,-0.253243,9.914227,-0.591322,1.174130,-26.229374,-2.273798,0.072005,-48.276501,0.912387,-0.017850,0.008687,-0.408848
3065,0.055942,-0.253972,9.913281,-0.641175,1.285230,-28.525904,-2.288799,0.072709,-49.189919,0.909096,-0.017896,0.008889,-0.416106
3066,0.063550,-0.281885,9.911798,-0.575102,1.379576,-30.398224,-2.304226,0.074254,-50.172905,0.905491,-0.017935,0.009112,-0.423888
3067,0.060443,-0.315354,9.910614,-0.535072,1.351840,-30.082367,-2.319291,0.075487,-51.181843,0.901722,-0.017968,0.009336,-0.431842
3068,0.056298,-0.344413,9.910606,-0.487515,1.278338,-28.565609,-2.334250,0.076168,-52.160198,0.898000,-0.018003,0.009552,-0.439524
3069,0.054980,-0.343108,9.917809,-0.198901,1.133127,-25.474092,-2.344047,0.076255,-53.061672,0.894513,-0.018003,0.009732,-0.446574
3070,0.081464,-0.339075,9.922860,-0.218507,0.949722,-21.604357,-2.348957,0.074916,-53.847031,0.891430,-0.017979,0.009864,-0.452693
3071,0.077300,-0.332986,9.923012,-0.433408,0.940234,-21.439571,-2.357350,0.072484,-54.565075,0.888575,-0.017992,0.009991,-0.458270
3072,0.077792,-0.323100,9.920708,-0.460588,1.046724,-23.598770,-2.369357,0.070264,-55.316410,0.885549,-0.018028,0.010140,-0.464085
3073,0.081129,-0.321062,9.920041,-0.370243,1.052496,-23.951271,-2.379964,0.067969,-56.109631,0.882313,-0.018048,0.010291,-0.470204
3074,0.083720,-0.330007,9.915289,-0.289060,1.041474,-23.899403,-2.387756,0.065130,-56.907856,0.879015,-0.018048,0.010427,-0.476338
3076,0.082052,-0.317560,9.919086,-0.111732,0.999934,-23.133402,-2.391022,0.061905,-57.692425,0.875732,-0.018015,0.010539,-0.482345
3077,0.083645,-0.302173,9.918235,0.187725,0.868365,-19.930498,-2.385512,0.058604,-58.410789,0.872692,-0.017920,0.010603,-0.487827
3078,0.085690,-0.289076,9.921616,0.771053,0.784097,-15.676232,-2.364453,0.056972,-59.004837,0.870155,-0.017712,0.010593,-0.492346
3079,0.077715,-0.258103,9.929111,1.343773,0.760877,-12.520631,-2.323054,0.059104,-59.475433,0.868132,-0.017346,0.010503,-0.495919
3080,0.075725,-0.229613,9.931177,1.698373,0.670536,-9.181920,-2.264940,0.064323,-59.837799,0.866568,-0.016850,0.010344,-0.498667
3081,0.074017,-0.221540,9.925223,1.955348,0.525264,-5.986643,-2.196075,0.070309,-60.091187,0.865474,-0.016281,0.010126,-0.500587
3082,0.071294,-0.206697,9.924898,2.126874,0.387627,-3.612315,-2.119956,0.075454,-60.251621,0.864783,-0.015670,0.009854,-0.501804
3083,0.068539,-0.183691,9.927204,1.842170,0.195063,-1.971956,-2.045335,0.077823,-60.344978,0.864384,-0.015089,0.009558,-0.502514
3084,0.072145,-0.191719,9.917528,1.343817,0.042168,-0.961802,-1.983977,0.076040,-60.393967,0.864177,-0.014630,0.009281,-0.502889
3085,0.071530,-0.196982,9.915359,1.239086,-0.052746,-0.403324,-1.933526,0.070989,-60.416695,0.864084,-0.014269,0.009025,-0.503065
3086,0.071873,-0.196736,9.916329,1.154148,-0.069836,-0.305675,-1.886808,0.064491,-60.428436,0.864037,-0.013945,0.008772,-0.503158
3087,0.076848,-0.184071,9.916389,1.163809,-0.077776,-0.241595,-1.841433,0.057592,-60.437462,0.864003,-0.013632,0.008522,-0.503230
3088,0.086111,-0.208243,9.912758,1.532612,-0.067947,-0.224837,-1.782437,0.043547,-60.445152,0.863975,-0.013249,0.008158,-0.503294
3089,0.084634,-0.223567,9.922407,1.941446,-0.050994,-0.252345,-1.705714,0.023203,-60.453045,0.863948,-0.012759,0.007668,-0.503362
3090,0.084820,-0.207240,9.926831,1.993054,-0.021782,-0.253911,-1.623452,0.004333,-60.461464,0.863919,-0.012221,0.007165,-0.503432
3091,0.085562,-0.184292,9.927755,1.948613,-0.004732,-0.223428,-1.539929,-0.013173,-60.469425,0.863891,-0.011668,0.006667,-0.503499
3092,0.081571,-0.183542,9.929488,1.670670,0.001703,-0.215832,-1.462257,-0.029339,-60.476772,0.863866,-0.011153,0.006205,-0.503561
3093,0.072572,-0.158221,9.930230,1.035647,-0.013088,-0.194497,-1.399974,-0.043813,-60.483624,0.863841,-0.010747,0.005823,-0.503617
3094,0.076643,-0.114334,9.920561,0.602369,-0.030858,-0.145693,-1.351186,-0.057816,-60.489307,0.863819,-0.010440,0.005503,-0.503663
3095,0.078182,-0.117822,9.916862,0.031910,-0.060842,-0.115200,-1.317108,-0.072656,-60.493649,0.863803,-0.010248,0.005242,-0.503699
3096,0.081197,-0.133955,9.914785,-0.238187,-0.077088,-0.098439,-1.300316,-0.088209,-60.497177,0.863788,-0.010190,0.005051,-0.503728
3097,0.080647,-0.137457,9.914783,-0.226195,-0.079582,-0.086256,-1.290567,-0.103794,-60.500229,0.863774,-0.010185,0.004891,-0.503752
3098,0.084462,-0.143096,9.913420,-0.107487,-0.074431,-0.077124,-1.279964,-0.119122,-60.502911,0.863762,-0.010172,0.004729,-0.503774
3099,0.080906,-0.150465,9.917952,-0.069772,-0.076872,-0.089354,-1.268340,-0.133914,-60.505665,0.863751,-0.010149,0.004567,-0.503797
3100,0.080117,-0.133513,9.914403,0.044281,-0.079245,-0.077167,-1.253632,-0.147863,-60.508419,0.863739,-0.010100,0.004397,-0.503819
3101,0.075424,-0.127409,9.918038,0.144734,-0.055601,-0.078713,-1.233568,-0.160448,-60.511005,0.863729,-0.010004,0.004214,-0.503840
3102,0.074744,-0.120101,9.916443,0.132323,-0.051721,-0.081784,-1.211321,-0.171613,-60.513702,0.863718,-0.009885,0.004033,-0.503862
3103,0.075304,-0.127989,9.918641,0.055764,-0.056968,-0.063491,-1.191318,-0.182387,-60.516140,0.863708,-0.009782,0.003864,-0.503882
3104,0.071811,-0.115622,9.915897,0.075319,-0.049957,-0.054352,-1.172540,-0.192473,-60.518124,0.863701,-0.009684,0.003705,-0.503898
3105,0.072807,-0.122671,9.920390,0.181842,-0.033748,-0.069628,-1.151791,-0.201585,-60.520210,0.863693,-0.009568,0.003546,-0.503915
3106,0.074250,-0.127212,9.916089,0.167685,-0.040421,-0.080325,-1.131276,-0.210461,-60.522739,0.863683,-0.009452,0.003389,-0.503936
3107,0.070448,-0.128572,9.915059,0.153432,-0.034846,-0.081865,-1.112496,-0.218835,-60.525471,0.863672,-0.009348,0.003243,-0.503957
3108,0.067817,-0.128857,9.914892,0.093340,-0.035308,-0.083403,-1.095768,-0.226217,-60.528259,0.863661,-0.009254,0.003114,-0.503979
3109,0.071362,-0.143097,9.915833,0.023943,-0.054068,-0.087993,-1.083188,-0.233746,-60.531132,0.863649,-0.009192,0.003002,-0.504002
3110,0.069929,-0.146017,9.918344,0.030683,-0.063668,-0.081900,-1.073787,-0.241699,-60.533962,0.863636,-0.009156,0.002901,-0.504024
3111,0.070011,-0.138195,9.921702,0.078630,-0.065610,-0.063599,-1.063363,-0.249444,-60.536381,0.863626,-0.009112,0.002797,-0.504043
3112,0.073879,-0.135767,9.925502,0.115946,-0.067560,-0.057506,-1.050854,-0.257359,-60.538399,0.863618,-0.009052,0.002683,-0.504059
3113,0.074898,-0.129939,9.923940,0.186865,-0.068000,-0.071252,-1.036124,-0.265524,-60.540550,0.863609,-0.008977,0.002557,-0.504076
3114,0.076472,-0.139222,9.923629,0.280613,-0.059284,-0.071263,-1.019438,-0.273537,-60.542923,0.863599,-0.008886,0.002423,-0.504094
3115,0.073535,-0.154565,9.917706,0.223077,-0.058167,-0.069746,-1.005050,-0.280989,-60.545277,0.863590,-0.008811,0.002304,-0.504113
3116,0.073553,-0.153533,9.915415,0.202019,-0.061588,-0.081961,-0.993877,-0.287948,-60.547791,0.863579,-0.008757,0.002202,-0.504132
3117,0.071681,-0.143939,9.911020,0.127599,-0.064977,-0.075865,-0.983708,-0.294609,-60.550407,0.863568,-0.008710,0.002108,-0.504153
3118,0.070296,-0.144049,9.915816,-0.029181,-0.068326,-0.069769,-0.976835,-0.300837,-60.552822,0.863558,-0.008685,0.002031,-0.504171
3119,0.068732,-0.135696,9.916370,-0.365979,-0.074690,-0.068249,-0.977671,-0.306723,-60.555107,0.863547,-0.008717,0.001990,-0.504189
3120,0.070660,-0.118788,9.915764,-0.618678,-0.084093,-0.063679,-0.986001,-0.312703,-60.557308,0.863536,-0.008806,0.001982,-0.504206
3121,0.070984,-0.131190,9.922185,-1.069702,-0.124015,-0.045375,-1.005468,-0.319514,-60.559116,0.863527,-0.008983,0.002016,-0.504219
3122,0.079021,-0.178663,9.918344,-1.360901,-0.159403,-0.025545,-1.042605,-0.328159,-60.560223,0.863518,-0.009301,0.002115,-0.504227
3123,0.079229,-0.188931,9.913914,-0.775040,-0.126167,-0.042335,-1.079459,-0.337380,-60.561260,0.863510,-0.009619,0.002207,-0.504235
3124,0.076877,-0.166169,9.913336,-0.132539,-0.097469,-0.051496,-1.093411,-0.345078,-60.562763,0.863502,-0.009758,0.002211,-0.504247
3125,0.081753,-0.169641,9.919578,-0.400811,-0.132857,-0.046926,-1.098410,-0.352847,-60.564354,0.863494,-0.009830,0.002175,-0.504259
3126,0.068421,-0.179648,9.922975,-1.146770,-0.068980,-0.040828,-1.121280,-0.359058,-60.565762,0.863485,-0.010030,0.002229,-0.504269
3127,0.055163,-0.267481,9.931133,-2.239387,0.037794,-0.063717,-1.178441,-0.360145,-60.567486,0.863472,-0.010465,0.002472,-0.504281
3128,0.056161,-0.260835,9.930171,-2.901873,-0.020167,-0.004204,-1.267237,-0.359554,-60.568607,0.863459,-0.011132,0.002867,-0.504288
3129,0.060591,-0.304383,9.931678,-3.329386,-0.090344,1.001382,-1.374589,-0.360819,-60.551926,0.863522,-0.011947,0.003328,-0.504159
3130,0.054287,-0.324292,9.931129,-2.867338,-0.105586,1.930674,-1.482276,-0.362632,-60.502968,0.863725,-0.012768,0.003783,-0.503787
3131,0.069929,-0.334427,9.920109,-2.097041,-0.221554,2.483061,-1.569418,-0.366104,-60.429272,0.864039,-0.013442,0.004131,-0.503229
3132,0.080973,-0.260710,9.913148,-0.948139,-0.349777,2.637178,-1.622331,-0.373848,-60.343681,0.864407,-0.013879,0.004295,-0.502582
3133,0.077667,-0.275073,9.915411,-0.415561,-0.261328,2.589874,-1.645236,-0.382290,-60.256321,0.864787,-0.014092,0.004321,-0.501923
3134,0.074520,-0.279800,9.913799,-0.192757,-0.178966,1.625487,-1.655590,-0.388117,-60.185886,0.865093,-0.014198,0.004314,-0.501391
3135,0.077490,-0.282793,9.910245,0.069717,-0.088970,0.677886,-1.657696,-0.391921,-60.147377,0.865261,-0.014232,0.004289,-0.501101
3136,0.070357,-0.270704,9.910931,0.649605,0.031555,0.090405,-1.645320,-0.392819,-60.134560,0.865319,-0.014143,0.004227,-0.501005
3137,0.069911,-0.245183,9.917009,0.900173,0.089521,-0.060665,-1.615287,-0.391033,-60.134144,0.865324,-0.013908,0.004109,-0.501002
3138,0.074917,-0.250565,9.915908,0.545128,0.020789,-0.062197,-1.584570,-0.390130,-60.136292,0.865319,-0.013672,0.003982,-0.501020
3139,0.078069,-0.243298,9.914622,0.357872,-0.009857,-0.098825,-1.563725,-0.391731,-60.139008,0.865309,-0.013522,0.003879,-0.501041
3140,0.080958,-0.238105,9.917072,0.187427,-0.045125,-0.086626,-1.548495,-0.395011,-60.142117,0.865297,-0.013421,0.003788,-0.501065
3141,0.087330,-0.241923,9.919607,-0.071555,-0.078926,-0.068324,-1.540884,-0.400232,-60.144684,0.865286,-0.013386,0.003716,-0.501085
3142,0.085389,-0.241487,9.920775,-0.184101,-0.105120,-0.056126,-1.540166,-0.406721,-60.146706,0.865277,-0.013409,0.003664,-0.501101
3143,0.088068,-0.258101,9.917489,-0.109086,-0.096207,-0.031719,-1.541778,-0.413359,-60.148109,0.865270,-0.013450,0.003621,-0.501112
3144,0.084116,-0.271182,9.921785,0.304472,-0.072010,-0.060718,-1.538085,-0.419104,-60.149574,0.865264,-0.013448,0.003561,-0.501124
3145,0.080658,-0.256229,9.922531,0.942353,-0.102677,-0.091240,-1.516703,-0.424060,-60.152039,0.865255,-0.013308,0.003431,-0.501144
3146,0.075305,-0.235603,9.924435,1.185244,-0.118007,-0.079037,-1.477628,-0.428761,-60.154804,0.865247,-0.013033,0.003225,-0.501166
3147,0.076887,-0.214663,9.918751,0.888182,-0.092098,-0.072937,-1.436476,-0.432757,-60.157299,0.865240,-0.012740,0.003015,-0.501186
3148,0.066757,-0.184310,9.926691,0.129034,-0.078325,-0.083624,-1.409327,-0.435124,-60.159912,0.865232,-0.012545,0.002878,-0.501207
3149,0.070583,-0.188336,9.922914,-0.802438,-0.212513,0.032342,-1.408965,-0.438738,-60.160732,0.865228,-0.012558,0.002850,-0.501213
3150,0.069031,-0.210966,9.919564,-1.705324,-0.230777,0.108636,-1.444620,-0.445438,-60.158253,0.865234,-0.012857,0.002955,-0.501194
3151,0.076708,-0.249372,9.915215,-1.862433,-0.224659,0.363465,-1.503335,-0.452647,-60.150196,0.865262,-0.013332,0.003156,-0.501132
3152,0.074200,-0.285257,9.916457,-1.087308,-0.139199,0.390933,-1.553184,-0.458264,-60.137466,0.865312,-0.013733,0.003330,-0.501035
3153,0.079452,-0.281217,9.914013,0.090640,-0.061370,0.351259,-1.570795,-0.461172,-60.124996,0.865364,-0.013879,0.003384,-0.500941
3154,0.077623,-0.264245,9.916230,0.502631,0.045449,0.284118,-1.561106,-0.461098,-60.114407,0.865411,-0.013806,0.003341,-0.500861
3155,0.081577,-0.267520,9.919683,0.716279,0.075968,0.307007,-1.540616,-0.458797,-60.104607,0.865456,-0.013641,0.003267,-0.500788
3156,0.076994,-0.246210,9.917260,0.820085,0.111066,0.041496,-1.514495,-0.455509,-60.098892,0.865485,-0.013430,0.003177,-0.500745
3157,0.077990,-0.233263,9.918694,0.424959,0.024094,0.000295,-1.492558,-0.453159,-60.098267,0.865490,-0.013254,0.003099,-0.500741
3158,0.077962,-0.252958,9.914884,-0.072403,-0.076612,0.030813,-1.485471,-0.453952,-60.097725,0.865493,-0.013204,0.003062,-0.500737
3159,0.081544,-0.261264,9.915690,0.052734,-0.073578,0.009449,-1.485684,-0.456675,-60.096989,0.865496,-0.013218,0.003042,-0.500731
3160,0.081468,-0.246837,9.915174,0.180956,-0.033942,-0.072952,-1.481185,-0.459010,-60.098003,0.865492,-0.013194,0.003005,-0.500739
3161,0.077466,-0.247815,9.919441,0.042234,-0.058360,-0.091263,-1.475616,-0.460656,-60.100716,0.865481,-0.013159,0.002969,-0.500760
3162,0.076453,-0.244110,9.919536,-0.000347,-0.070528,-0.108049,-1.472958,-0.462374,-60.103996,0.865467,-0.013146,0.002945,-0.500785
3163,0.076482,-0.237824,9.919641,0.022748,-0.062849,-0.114153,-1.469798,-0.464025,-60.107658,0.865451,-0.013129,0.002919,-0.500813
3164,0.073451,-0.233126,9.917406,0.027605,-0.064300,-0.095842,-1.465218,-0.465224,-60.111134,0.865436,-0.013100,0.002890,-0.500840
3165,0.072327,-0.239772,9.918727,-0.056067,-0.087079,-0.098893,-1.462272,-0.466373,-60.114342,0.865422,-0.013083,0.002869,-0.500864
3166,0.079790,-0.239299,9.916090,-0.118429,-0.111427,-0.094315,-1.462483,-0.468879,-60.117496,0.865408,-0.013095,0.002851,-0.500888
3167,0.080259,-0.248012,9.917083,-0.054204,-0.094629,-0.088213,-1.463507,-0.472209,-60.120468,0.865395,-0.013117,0.002831,-0.500911
3168,0.082281,-0.251838,9.913513,0.069444,-0.080893,-0.085162,-1.462593,-0.475171,-60.123283,0.865383,-0.013123,0.002805,-0.500932
3169,0.081166,-0.250917,9.915177,0.258685,-0.073259,-0.133992,-1.456740,-0.477781,-60.126877,0.865367,-0.013090,0.002760,-0.500960
3170,0.079530,-0.236404,9.914632,0.477023,-0.064073,-0.135518,-1.442711,-0.479772,-60.131325,0.865349,-0.012993,0.002684,-0.500994
3171,0.073523,-0.237090,9.916211,0.402457,-0.033462,-0.123309,-1.425285,-0.480281,-60.135616,0.865332,-0.012864,0.002605,-0.501027
3172,0.074943,-0.235320,9.915751,0.208838,-0.036386,-0.092789,-1.412753,-0.479827,-60.139206,0.865318,-0.012767,0.002554,-0.501054
3173,0.078286,-0.236175,9.917622,0.128107,-0.048501,-0.086685,-1.405206,-0.480064,-60.142181,0.865306,-0.012711,0.002519,-0.501077
3174,0.077664,-0.234095,9.917123,-0.080818,-0.056056,-0.059217,-1.402705,-0.480879,-60.144581,0.865296,-0.012695,0.002502,-0.501095
3175,0.079218,-0.248396,9.914775,-0.277636,-0.059039,-0.048533,-1.408322,-0.481928,-60.146332,0.865287,-0.012742,0.002519,-0.501108
3176,0.080578,-0.251396,9.914806,0.183097,-0.055938,-0.063791,-1.411159,-0.483228,-60.148140,0.865279,-0.012770,0.002522,-0.501122
3177,0.077290,-0.278829,9.911919,0.822155,-0.077234,-0.086676,-1.398456,-0.484624,-60.150562,0.865270,-0.012680,0.002456,-0.501140
3179,0.078379,-0.262283,9.911659,0.968246,-0.087830,-0.098877,-1.373882,-0.486310,-60.153538,0.865259,-0.012501,0.002336,-0.501163
3180,0.079902,-0.249349,9.909728,1.157231,-0.104546,-0.101926,-1.341510,-0.488658,-60.156788,0.865248,-0.012267,0.002177,-0.501189
3181,0.080791,-0.236064,9.909834,1.312761,-0.115169,-0.115658,-1.301823,-0.491633,-60.160316,0.865237,-0.011980,0.001982,-0.501216
3182,0.084793,-0.214106,9.910096,1.035094,-0.121244,-0.104975,-1.261977,-0.495267,-60.163902,0.865225,-0.011695,0.001780,-0.501244
3183,0.090597,-0.161253,9.913091,0.528979,-0.104492,-0.103454,-1.229310,-0.499551,-60.167358,0.865213,-0.011467,0.001605,-0.501271
3184,0.080266,-0.165021,9.918455,-0.063848,-0.070912,-0.100408,-1.211426,-0.502418,-60.170773,0.865199,-0.011345,0.001506,-0.501297
3185,0.076518,-0.180566,9.919268,-0.849144,-0.032643,-0.074470,-1.219206,-0.502598,-60.173714,0.865186,-0.011404,0.001539,-0.501319
3186,0.076254,-0.191656,9.915071,-1.279104,-0.005024,-0.056159,-1.249985,-0.501230,-60.175926,0.865173,-0.011631,0.001684,-0.501336
3187,0.073788,-0.210569,9.913383,-1.350641,-0.003327,-0.057682,-1.291381,-0.499129,-60.177845,0.865161,-0.011934,0.001881,-0.501349
3188,0.067230,-0.228511,9.911860,-1.358266,0.006061,-0.059203,-1.336448,-0.496037,-60.179798,0.865148,-0.012261,0.002102,-0.501363
3189,0.076177,-0.230343,9.908291,-1.106519,-0.001361,-0.051569,-1.377922,-0.493231,-60.181644,0.865135,-0.012562,0.002305,-0.501376
3190,0.080402,-0.232127,9.908010,-0.651743,-0.027196,-0.042411,-1.406537,-0.492344,-60.183197,0.865125,-0.012774,0.002437,-0.501387
3191,0.080303,-0.228267,9.911132,-0.358612,-0.040859,-0.048515,-1.421313,-0.492571,-60.184711,0.865117,-0.012886,0.002500,-0.501398
3192,0.079860,-0.230142,9.910406,-0.311085,-0.046889,-0.039359,-1.429493,-0.493081,-60.186165,0.865110,-0.012950,0.002532,-0.501409
3193,0.076559,-0.243120,9.910978,-0.161400,-0.049838,-0.056143,-1.435433,-0.493372,-60.187733,0.865102,-0.012996,0.002556,-0.501421
3194,0.072569,-0.249132,9.910920,0.467306,-0.096986,-0.065295,-1.429988,-0.493792,-60.189697,0.865094,-0.012957,0.002529,-0.501436
3195,0.070329,-0.218330,9.911410,1.288458,-0.127304,-0.097336,-1.397977,-0.494907,-60.192341,0.865086,-0.012720,0.002381,-0.501456
3196,0.071492,-0.210835,9.914909,1.684108,-0.148454,-0.111068,-1.342607,-0.496765,-60.195751,0.865077,-0.012310,0.002125,-0.501483
3197,0.075168,-0.204331,9.919781,1.756254,-0.149799,-0.126327,-1.279528,-0.499415,-60.199638,0.865067,-0.011846,0.001829,-0.501514
3198,0.081843,-0.188697,9.923842,1.810103,-0.158843,-0.115646,-1.214174,-0.503151,-60.203602,0.865055,-0.011368,0.001516,-0.501545
3199,0.085794,-0.173708,9.926168,1.586293,-0.114547,-0.120227,-1.150837,-0.507204,-60.207497,0.865044,-0.010908,0.001208,-0.501576
3200,0.090217,-0.192690,9.929065,0.896889,-0.087087,-0.112601,-1.105239,-0.510728,-60.211346,0.865031,-0.010579,0.000982,-0.501605
3201,0.088979,-0.191539,9.930726,0.545975,-0.071848,-0.109550,-1.080503,-0.513711,-60.215004,0.865017,-0.010405,0.000852,-0.501633
3202,0.085720,-0.177430,9.926658,0.607083,-0.062672,-0.114127,-1.060306,-0.515747,-60.218700,0.865003,-0.010262,0.000748,-0.501661
3203,0.084562,-0.170594,9.925415,0.450079,-0.065664,-0.106499,-1.040452,-0.517175,-60.222351,0.864989,-0.010118,0.000651,-0.501689
3204,0.078931,-0.175153,9.921227,0.276254,-0.074709,-0.092764,-1.026572,-0.518089,-60.225643,0.864975,-0.010017,0.000584,-0.501714
3205,0.076907,-0.173234,9.918294,0.282426,-0.071488,-0.094288,-1.016317,-0.518325,-60.228733,0.864963,-0.009941,0.000537,-0.501737
3206,0.075882,-0.173395,9.914660,0.187869,-0.059089,-0.095810,-1.007778,-0.517994,-60.231865,0.864950,-0.009875,0.000503,-0.501761
3207,0.072543,-0.174507,9.914482,0.085650,-0.064968,-0.085126,-1.002963,-0.517136,-60.234844,0.864937,-0.009835,0.000488,-0.501784
3208,0.074121,-0.172522,9.911132,0.280974,-0.037268,-0.098854,-0.996739,-0.515767,-60.237869,0.864924,-0.009782,0.000472,-0.501806
3209,0.075499,-0.159925,9.911247,0.427560,-0.030954,-0.097326,-0.983601,-0.514159,-60.241146,0.864911,-0.009676,0.000426,-0.501831
3210,0.074768,-0.156466,9.908575,0.381971,-0.033804,-0.088169,-0.967561,-0.512603,-60.244244,0.864899,-0.009548,0.000368,-0.501854
3211,0.077380,-0.154092,9.908014,0.286032,-0.050405,-0.075960,-0.953812,-0.511601,-60.246975,0.864889,-0.009440,0.000316,-0.501875
3212,0.079776,-0.165894,9.911459,0.244922,-0.054839,-0.079010,-0.943749,-0.511469,-60.249527,0.864878,-0.009363,0.000273,-0.501894
3213,0.076407,-0.153814,9.917274,0.342644,-0.056214,-0.072904,-0.933099,-0.511351,-60.252048,0.864868,-0.009282,0.000227,-0.501913
3214,0.078670,-0.153418,9.917917,0.153556,-0.066736,-0.079007,-0.923106,-0.511323,-60.254566,0.864858,-0.009207,0.000184,-0.501932
3215,0.076775,-0.160169,9.923081,0.007124,-0.074210,-0.066797,-0.919652,-0.511628,-60.256966,0.864848,-0.009182,0.000167,-0.501951
3216,0.078164,-0.155957,9.922374,0.121589,-0.069471,-0.075950,-0.917194,-0.511919,-60.259308,0.864838,-0.009165,0.000154,-0.501968
3217,0.082080,-0.150547,9.919781,0.030118,-0.072401,-0.066793,-0.913530,-0.512684,-60.261658,0.864827,-0.009141,0.000132,-0.501986
3218,0.083083,-0.159044,9.916686,-0.233814,-0.090623,-0.057637,-0.916200,-0.514257,-60.263695,0.864818,-0.009168,0.000132,-0.502001
3219,0.081900,-0.171269,9.919343,-0.270535,-0.099687,-0.060687,-0.925893,-0.516227,-60.265602,0.864809,-0.009249,0.000160,-0.502016
3220,0.084512,-0.168202,9.918057,-0.092149,-0.079763,-0.083573,-0.933894,-0.518101,-60.267941,0.864798,-0.009318,0.000181,-0.502034
3221,0.080456,-0.167364,9.915813,-0.035789,-0.067454,-0.077467,-0.937316,-0.519241,-60.270576,0.864786,-0.009349,0.000188,-0.502054
3222,0.078158,-0.165433,9.915285,0.011451,-0.059673,-0.072885,-0.938560,-0.519385,-60.273037,0.864775,-0.009359,0.000192,-0.502072
3223,0.077280,-0.175834,9.911438,-0.019188,-0.057972,-0.066778,-0.940273,-0.519043,-60.275311,0.864765,-0.009370,0.000203,-0.502089
3224,0.074141,-0.164729,9.910391,0.015796,-0.047086,-0.063722,-0.941807,-0.518110,-60.277447,0.864756,-0.009378,0.000217,-0.502105
3225,0.072625,-0.171134,9.913873,-0.219271,-0.060583,-0.040829,-0.946168,-0.516784,-60.279152,0.864748,-0.009405,0.000246,-0.502118
3226,0.073656,-0.192013,9.921170,-0.324822,-0.058820,-0.042348,-0.958720,-0.515631,-60.280472,0.864741,-0.009494,0.000310,-0.502128
3227,0.076388,-0.180333,9.919747,-0.163380,-0.047931,-0.057601,-0.970931,-0.514671,-60.282074,0.864733,-0.009582,0.000371,-0.502140
3228,0.075722,-0.161357,9.922462,-0.068827,-0.040111,-0.080487,-0.975506,-0.513644,-60.284336,0.864723,-0.009612,0.000398,-0.502157
3229,0.078455,-0.175280,9.921098,0.016629,-0.035361,-0.083536,-0.976307,-0.512646,-60.287052,0.864711,-0.009614,0.000410,-0.502178
3230,0.079070,-0.166549,9.919764,0.515578,-0.019956,-0.097266,-0.967781,-0.511675,-60.290051,0.864699,-0.009545,0.000380,-0.502200
3231,0.073148,-0.143174,9.916710,0.939980,-0.004515,-0.094213,-0.940909,-0.509717,-60.293259,0.864687,-0.009334,0.000277,-0.502224
3232,0.071996,-0.149460,9.919716,0.886845,-0.010390,-0.095737,-0.906796,-0.506966,-60.296448,0.864676,-0.009065,0.000149,-0.502248
3233,0.074376,-0.156861,9.919896,0.769446,-0.020857,-0.072846,-0.877856,-0.504675,-60.299252,0.864666,-0.008836,0.000039,-0.502269
3234,0.073482,-0.143964,9.919368,0.522305,-0.026764,-0.063688,-0.855520,-0.502874,-60.301525,0.864658,-0.008660,-0.000045,-0.502287
3235,0.074158,-0.148611,9.918548,0.029486,-0.043356,-0.054530,-0.845582,-0.501491,-60.303490,0.864650,-0.008579,-0.000078,-0.502301
3236,0.078569,-0.154353,9.917556,-0.268131,-0.056937,-0.042320,-0.850362,-0.501150,-60.305069,0.864643,-0.008613,-0.000054,-0.502313
3237,0.074749,-0.147903,9.918436,-0.281927,-0.058317,-0.042317,-0.860351,-0.501141,-60.306438,0.864636,-0.008689,-0.000010,-0.502324
3238,0.074109,-0.159974,9.924959,-0.216395,-0.056612,-0.039262,-0.869762,-0.500697,-60.307762,0.864630,-0.008758,0.000035,-0.502334
3239,0.074287,-0.161327,9.930751,0.222916,-0.039645,-0.045362,-0.871709,-0.499897,-60.309132,0.864623,-0.008769,0.000049,-0.502344
3240,0.071890,-0.142417,9.928735,0.735613,-0.022663,-0.056040,-0.855902,-0.498340,-60.310810,0.864617,-0.008643,-0.000008,-0.502356
3241,0.075161,-0.135841,9.928177,0.731187,-0.033158,-0.063668,-0.829406,-0.496804,-60.312809,0.864611,-0.008436,-0.000113,-0.502371
3242,0.076330,-0.142912,9.928937,0.656513,-0.031480,-0.039252,-0.804983,-0.495888,-60.314514,0.864605,-0.008248,-0.000213,-0.502384
3243,0.074450,-0.123779,9.924038,0.526929,-0.038956,-0.040777,-0.783662,-0.495039,-60.315845,0.864601,-0.008083,-0.000300,-0.502394
3244,0.074649,-0.128668,9.923329,-0.019188,-0.064735,-0.033146,-0.773002,-0.494615,-60.317074,0.864596,-0.008001,-0.000343,-0.502403
3245,0.075570,-0.150652,9.922555,-0.373272,-0.084419,-0.036195,-0.780468,-0.495076,-60.318192,0.864591,-0.008059,-0.000314,-0.502412
3246,0.071704,-0.149439,9.923446,-0.277364,-0.082718,-0.045346,-0.794286,-0.495556,-60.319489,0.864584,-0.008166,-0.000257,-0.502422
3247,0.072930,-0.150932,9.922989,-0.184482,-0.080999,-0.060601,-0.804626,-0.495715,-60.321194,0.864576,-0.008244,-0.000212,-0.502435
3248,0.074186,-0.154981,9.923021,0.065561,-0.065561,-0.068227,-0.809378,-0.495823,-60.323284,0.864566,-0.008281,-0.000192,-0.502450
3249,0.072853,-0.156214,9.916735,0.330842,-0.050124,-0.078903,-0.805805,-0.495412,-60.325676,0.864556,-0.008252,-0.000205,-0.502468
3250,0.070732,-0.143441,9.918353,0.426830,-0.046870,-0.081951,-0.795085,-0.494369,-60.328320,0.864545,-0.008167,-0.000244,-0.502488
3251,0.068522,-0.141608,9.920237,0.376419,-0.040534,-0.085000,-0.782432,-0.492772,-60.331070,0.864534,-0.008064,-0.000287,-0.502509
3252,0.062735,-0.135576,9.916502,0.272627,-0.037196,-0.089573,-0.771983,-0.490290,-60.333950,0.864523,-0.007974,-0.000314,-0.502531
3253,0.060130,-0.137607,9.916219,0.066596,-0.046010,-0.094146,-0.766702,-0.487164,-60.336994,0.864510,-0.007921,-0.000313,-0.502553
3254,0.059437,-0.134454,9.919693,-0.049416,-0.051756,-0.086512,-0.766939,-0.484054,-60.339989,0.864497,-0.007909,-0.000288,-0.502576
3255,0.058145,-0.134722,9.918104,-0.273752,-0.065124,-0.078876,-0.772654,-0.481171,-60.342716,0.864485,-0.007939,-0.000241,-0.502596
3256,0.062446,-0.139431,9.915301,-0.337897,-0.067840,-0.075819,-0.783565,-0.478945,-60.345249,0.864473,-0.008012,-0.000177,-0.502616
3257,0.065493,-0.138067,9.918968,-0.249451,-0.069090,-0.068185,-0.794116,-0.477577,-60.347626,0.864462,-0.008086,-0.000120,-0.502633
3258,0.073883,-0.138254,9.919242,-0.266260,-0.070427,-0.042242,-0.803002,-0.477402,-60.349434,0.864453,-0.008152,-0.000079,-0.502647
3259,0.077731,-0.131309,9.919898,-0.199068,-0.071853,-0.023930,-0.810078,-0.478466,-60.350513,0.864448,-0.008210,-0.000056,-0.502655
3260,0.081660,-0.133071,9.923589,-0.086042,-0.065705,0.006589,-0.813387,-0.480170,-60.350780,0.864447,-0.008242,-0.000055,-0.502657
3261,0.084890,-0.143121,9.925599,-0.206553,-0.076390,0.076780,-0.817791,-0.482564,-60.349361,0.864452,-0.008286,-0.000053,-0.502647
3262,0.087793,-0.154117,9.926280,-0.182244,-0.077959,0.154603,-0.825711,-0.485647,-60.345448,0.864469,-0.008359,-0.000042,-0.502617
3263,0.082676,-0.152961,9.922448,0.142616,-0.064245,0.223270,-0.828579,-0.488189,-60.339100,0.864496,-0.008392,-0.000049,-0.502569
3264,0.083958,-0.156444,9.920070,0.482732,-0.038289,0.325509,-0.820441,-0.489572,-60.329914,0.864537,-0.008337,-0.000096,-0.502500
3265,0.085438,-0.145398,9.914527,0.803058,-0.016927,0.435377,-0.800698,-0.490326,-60.317211,0.864594,-0.008191,-0.000189,-0.502404
3266,0.080394,-0.136300,9.914535,0.992265,-0.006219,0.626118,-0.771038,-0.490107,-60.299507,0.864674,-0.007966,-0.000319,-0.502271
3267,0.078830,-0.133437,9.912089,0.926666,-0.021403,1.117466,-0.739090,-0.489180,-60.270454,0.864803,-0.007721,-0.000454,-0.502051
3268,0.074662,-0.128848,9.914052,0.829004,-0.064067,2.200874,-0.710328,-0.489088,-60.215130,0.865048,-0.007503,-0.000583,-0.501634
3269,0.072713,-0.117022,9.912904,0.665740,-0.137272,4.100652,-0.686196,-0.490634,-60.110065,0.865508,-0.007327,-0.000707,-0.500840
3270,0.066149,-0.105833,9.916615,0.554382,-0.221142,6.757288,-0.666963,-0.493726,-59.929043,0.866300,-0.007194,-0.000826,-0.499472
3271,0.066269,-0.106177,9.916980,0.772629,-0.303474,9.415451,-0.646646,-0.498460,-59.659401,0.867473,-0.007059,-0.000967,-0.497432
3272,0.060230,-0.076044,9.915475,1.152665,-0.376637,11.827940,-0.616572,-0.504803,-59.305237,0.869008,-0.006855,-0.001166,-0.494749
3273,0.063048,-0.071108,9.914671,1.157372,-0.428427,13.581227,-0.580112,-0.512590,-58.881645,0.870833,-0.006607,-0.001407,-0.491533
3274,0.060203,-0.075223,9.916557,1.265823,-0.428332,13.860473,-0.542390,-0.521112,-58.424168,0.872790,-0.006351,-0.001659,-0.488052
3276,0.063597,-0.074252,9.912881,1.122467,-0.435862,14.281627,-0.505810,-0.529900,-57.955006,0.874782,-0.006102,-0.001907,-0.484474
3277,0.062099,-0.069050,9.911878,0.805142,-0.441864,14.701258,-0.477274,-0.539026,-57.471851,0.876818,-0.005913,-0.002122,-0.480781
3278,0.067825,-0.076730,9.913084,0.747201,-0.450921,15.136146,-0.455537,-0.548520,-56.974438,0.878897,-0.005777,-0.002311,-0.476970
3279,0.067578,-0.070084,9.915474,0.432887,-0.434040,15.714473,-0.440484,-0.557973,-56.460152,0.881029,-0.005690,-0.002472,-0.473021
3280,0.068045,-0.070994,9.917292,-0.142362,-0.482769,17.806517,-0.440793,-0.567598,-55.901356,0.883325,-0.005719,-0.002572,-0.468719
3281,0.063893,-0.075602,9.918794,0.002612,-0.536063,19.941288,-0.449270,-0.578153,-55.272110,0.885885,-0.005814,-0.002651,-0.463862
3282,0.063853,-0.080380,9.917960,0.199452,-0.563403,21.339037,-0.452959,-0.589367,-54.583965,0.888653,-0.005871,-0.002758,-0.458534
3283,0.053643,-0.079119,9.926689,0.104840,-0.573931,21.798340,-0.455432,-0.600594,-53.864868,0.891513,-0.005917,-0.002873,-0.452948
3284,0.052916,-0.081902,9.930057,0.735041,-0.605795,22.013496,-0.449249,-0.612090,-53.134529,0.894381,-0.005895,-0.003024,-0.447257
3285,0.050213,-0.078223,9.930964,1.534619,-0.581188,20.949928,-0.419229,-0.623904,-52.418339,0.897160,-0.005687,-0.003269,-0.441658
3286,0.054701,-0.067645,9.933671,1.617028,-0.512324,18.578642,-0.373829,-0.634986,-51.759399,0.899686,-0.005354,-0.003562,-0.436490
3287,0.056943,-0.045565,9.939565,1.627753,-0.469406,16.977947,-0.325787,-0.645179,-51.166691,0.901933,-0.004995,-0.003851,-0.431829
3288,0.062702,-0.039795,9.933390,1.719374,-0.428021,16.425562,-0.275454,-0.654763,-50.609882,0.904023,-0.004615,-0.004138,-0.427440
3289,0.062337,-0.027258,9.929739,1.795737,-0.398847,16.312645,-0.222255,-0.663769,-50.064178,0.906049,-0.004208,-0.004428,-0.423128
3290,0.068880,-0.020580,9.918033,1.568444,-0.394095,16.546112,-0.171650,-0.672769,-49.516472,0.908063,-0.003819,-0.004704,-0.418791
3291,0.064947,-0.016099,9.920482,0.890989,-0.361874,16.768896,-0.136464,-0.681517,-48.961178,0.910082,-0.003548,-0.004919,-0.414384
3292,0.060869,-0.003288,9.916281,0.114354,-0.340315,17.003889,-0.125624,-0.689290,-48.398251,0.912107,-0.003466,-0.005037,-0.409907
3293,0.064157,-0.019086,9.911436,-0.399841,-0.344690,17.711918,-0.136826,-0.696648,-47.819607,0.914164,-0.003555,-0.005074,-0.405297
3294,0.060026,-0.026940,9.914753,-1.094139,-0.364318,18.639681,-0.169146,-0.704041,-47.213692,0.916293,-0.003813,-0.005039,-0.400459
3295,0.049531,-0.029419,9.921920,-1.039211,-0.391546,20.054213,-0.212749,-0.711261,-46.568726,0.918530,-0.004159,-0.004967,-0.395297
3296,0.057682,-0.047989,9.923556,-0.837809,-0.452334,22.013504,-0.253055,-0.719164,-45.867519,0.920930,-0.004479,-0.004919,-0.389671
3297,0.060466,-0.074072,9.930778,-0.641041,-0.500929,23.342587,-0.288248,-0.728375,-45.111477,0.923479,-0.004761,-0.004905,-0.383588
3298,0.060148,-0.065197,9.935933,-0.682322,-0.551050,24.047567,-0.321509,-0.738584,-44.321522,0.926099,-0.005030,-0.004911,-0.377214
3299,0.065026,-0.065723,9.930600,-0.557241,-0.569128,24.154385,-0.353209,-0.749419,-43.518028,0.928720,-0.005287,-0.004931,-0.370713
3300,0.065587,-0.074189,9.933281,-0.886882,-0.570424,23.370062,-0.388266,-0.760233,-42.725811,0.931258,-0.005572,-0.004944,-0.364285
3301,0.052391,-0.074377,9.925692,-0.696178,-0.570165,21.903646,-0.425214,-0.770411,-41.971104,0.933634,-0.005872,-0.004948,-0.358145
3302,0.049416,-0.077161,9.918414,-0.398641,-0.565293,21.027767,-0.453400,-0.779928,-41.255417,0.935851,-0.006101,-0.004976,-0.352309
3303,0.039172,-0.077676,9.922809,-0.084305,-0.572598,20.833981,-0.471068,-0.788950,-40.557560,0.937977,-0.006242,-0.005033,-0.346604
3304,0.042121,-0.075516,9.924062,0.532180,-0.628714,21.601521,-0.473237,-0.798577,-39.850124,0.940099,-0.006257,-0.005144,-0.340807
3305,0.042725,-0.064699,9.921396,1.186846,-0.655838,22.385849,-0.454319,-0.809510,-39.116817,0.942260,-0.006101,-0.005329,-0.334783
3306,0.055643,-0.070047,9.920197,1.379158,-0.609735,22.024208,-0.421463,-0.820646,-38.376480,0.944405,-0.005827,-0.005555,-0.328687
3307,0.053977,-0.059624,9.917372,1.183878,-0.551438,20.794313,-0.388505,-0.830810,-37.662678,0.946435,-0.005549,-0.005768,-0.322796
3308,0.061548,-0.080238,9.911170,0.625391,-0.465679,18.781618,-0.367957,-0.839302,-37.002937,0.948278,-0.005369,-0.005927,-0.317341
3309,0.056340,-0.105914,9.915233,-0.258220,-0.355503,15.861003,-0.371656,-0.845118,-36.425423,0.949865,-0.005386,-0.005992,-0.312558
3310,0.057698,-0.120760,9.918787,-0.687183,-0.291093,13.418000,-0.396997,-0.848310,-35.937302,0.951186,-0.005579,-0.005973,-0.308511
3311,0.045646,-0.108763,9.919866,-0.495091,-0.306011,12.735917,-0.425485,-0.850545,-35.501266,0.952351,-0.005799,-0.005937,-0.304891
3312,0.042521,-0.106390,9.918117,-0.054230,-0.340735,13.286780,-0.442841,-0.853086,-35.067425,0.953498,-0.005928,-0.005934,-0.301284
3313,0.044856,-0.100074,9.916216,0.589610,-0.361723,14.211495,-0.442109,-0.856274,-34.608982,0.954695,-0.005906,-0.005986,-0.297467
3314,0.037276,-0.086739,9.913276,0.938987,-0.384227,15.482595,-0.424857,-0.859838,-34.113945,0.955972,-0.005745,-0.006086,-0.293339
3315,0.041437,-0.083985,9.912983,0.693275,-0.418928,17.345753,-0.406384,-0.864011,-33.566662,0.957363,-0.005572,-0.006195,-0.288769
3316,0.046267,-0.073969,9.917506,0.265990,-0.461274,19.306570,-0.399979,-0.869297,-32.955635,0.958889,-0.005499,-0.006284,-0.283660
3317,0.057463,-0.074993,9.923616,0.162210,-0.505172,20.774515,-0.403244,-0.875975,-32.287464,0.960526,-0.005506,-0.006364,-0.278064
3318,0.058063,-0.079259,9.927855,-0.020927,-0.526198,21.297909,-0.412024,-0.883676,-31.586098,0.962209,-0.005559,-0.006442,-0.272180
3319,0.066940,-0.081289,9.929467,0.075171,-0.528925,21.255186,-0.422575,-0.891759,-30.876705,0.963874,-0.005626,-0.006520,-0.266219
3320,0.064843,-0.085172,9.929076,0.242983,-0.524030,20.641768,-0.428718,-0.899896,-30.178246,0.965478,-0.005656,-0.006608,-0.260340
3321,0.053166,-0.106293,9.919634,0.398549,-0.485535,19.472912,-0.429630,-0.907096,-29.509487,0.966980,-0.005641,-0.006700,-0.254701
3322,0.046893,-0.104428,9.920601,0.158866,-0.457684,18.745050,-0.431951,-0.912912,-28.872335,0.968381,-0.005636,-0.006775,-0.249321
3323,0.041303,-0.091493,9.921554,0.039759,-0.446593,18.172832,-0.439597,-0.917831,-28.256868,0.969705,-0.005675,-0.006831,-0.244116
3324,0.039233,-0.086200,9.918490,-0.195282,-0.440063,18.040081,-0.452527,-0.922215,-27.653158,0.970977,-0.005758,-0.006871,-0.239005
3325,0.037296,-0.077963,9.920124,-0.332632,-0.435048,17.904278,-0.471224,-0.926136,-27.053923,0.972212,-0.005888,-0.006896,-0.233926
3326,0.047145,-0.074145,9.923427,-0.320411,-0.437675,17.852400,-0.491573,-0.929999,-26.457819,0.973415,-0.006033,-0.006919,-0.228866
3327,0.049703,-0.079838,9.917703,-0.125069,-0.437270,17.496862,-0.508278,-0.934038,-25.868505,0.974578,-0.006147,-0.006951,-0.223858
3328,0.051885,-0.077727,9.913881,0.003136,-0.449079,17.783739,-0.519548,-0.938222,-25.280338,0.975713,-0.006215,-0.006997,-0.218854
3329,0.043968,-0.086256,9.914240,-0.018202,-0.463926,17.986689,-0.529253,-0.942495,-24.683992,0.976838,-0.006270,-0.007047,-0.213774
3330,0.043405,-0.094895,9.911839,0.061146,-0.480281,18.581806,-0.538580,-0.946818,-24.074333,0.977960,-0.006320,-0.007101,-0.208575
3331,0.040792,-0.099233,9.914454,0.189308,-0.519516,19.666742,-0.545196,-0.951610,-23.436653,0.979105,-0.006345,-0.007165,-0.203130
3332,0.034743,-0.094929,9.914092,0.300688,-0.554156,20.986671,-0.548478,-0.956951,-22.758886,0.980289,-0.006340,-0.007242,-0.197336
3333,0.034904,-0.089571,9.914324,0.308326,-0.587256,22.025831,-0.550227,-0.962830,-22.041790,0.981504,-0.006319,-0.007329,-0.191198
3334,0.040357,-0.084005,9.913084,0.436534,-0.595947,22.758282,-0.550003,-0.969196,-21.295168,0.982728,-0.006280,-0.007425,-0.184799
3335,0.040890,-0.065816,9.916547,0.508325,-0.584809,22.643839,-0.546125,-0.975550,-20.538258,0.983927,-0.006207,-0.007527,-0.178303
3336,0.043795,-0.054562,9.920308,0.394006,-0.567569,22.242521,-0.542196,-0.981591,-19.789951,0.985070,-0.006133,-0.007625,-0.171874
3337,0.044952,-0.079775,9.923039,0.229304,-0.548806,22.083828,-0.543201,-0.987174,-19.050983,0.986158,-0.006100,-0.007711,-0.165519
3338,0.042957,-0.095785,9.919065,0.255267,-0.546823,22.350868,-0.547622,-0.992286,-18.310196,0.987206,-0.006096,-0.007788,-0.159141
3339,0.043794,-0.097964,9.921374,0.281199,-0.543309,22.434799,-0.551760,-0.997133,-17.563549,0.988222,-0.006087,-0.007864,-0.152705
3340,0.039634,-0.124935,9.920398,0.186532,-0.538261,22.331041,-0.557765,-1.001653,-16.817217,0.989195,-0.006093,-0.007935,-0.146266
3341,0.037173,-0.143041,9.917503,0.126884,-0.549982,22.750679,-0.567534,-1.005925,-16.065601,0.990132,-0.006131,-0.008000,-0.139776
3342,0.036141,-0.129559,9.917693,0.177100,-0.563220,23.002464,-0.577762,-1.010251,-15.302791,0.991040,-0.006171,-0.008066,-0.133183
3343,0.031622,-0.136135,9.921723,0.158666,-0.553557,22.828516,-0.587287,-1.014331,-14.538678,0.991905,-0.006204,-0.008132,-0.126572
3344,0.025812,-0.126336,9.924367,0.231802,-0.569814,23.017738,-0.595795,-1.018109,-13.774313,0.992726,-0.006227,-0.008197,-0.119954
3345,0.026851,-0.101849,9.928185,0.218026,-0.589110,23.617432,-0.602699,-1.022097,-12.996809,0.993517,-0.006235,-0.008267,-0.113216
3346,0.028220,-0.095548,9.926749,0.213466,-0.588572,23.350401,-0.609258,-1.026270,-12.213766,0.994266,-0.006239,-0.008339,-0.106425
3347,0.026144,-0.089559,9.923444,0.312698,-0.571245,22.518778,-0.613615,-1.030214,-11.449044,0.994954,-0.006225,-0.008411,-0.099788
3348,0.021478,-0.063240,9.921972,0.561529,-0.549326,21.215639,-0.610757,-1.033685,-10.719919,0.995568,-0.006149,-0.008483,-0.093455
3349,0.025514,-0.062162,9.915174,0.807360,-0.518247,19.972013,-0.598266,-1.036783,-10.033263,0.996111,-0.005992,-0.008556,-0.087487
3350,0.021093,-0.066588,9.910043,0.975356,-0.485640,18.737541,-0.578309,-1.039400,-9.387918,0.996589,-0.005772,-0.008627,-0.081875
3351,0.017464,-0.065600,9.911421,1.041100,-0.457595,18.475086,-0.554248,-1.041279,-8.767529,0.997018,-0.005517,-0.008690,-0.076476
3352,0.018493,-0.068099,9.917471,0.642946,-0.455483,18.546810,-0.535905,-1.042826,-8.150322,0.997416,-0.005311,-0.008745,-0.071104
3353,0.028833,-0.079303,9.918046,0.136413,-0.454917,18.760445,-0.533251,-1.044635,-7.528352,0.997788,-0.005242,-0.008791,-0.065689
3354,0.029938,-0.091605,9.920023,-0.490716,-0.463526,19.047323,-0.550319,-1.046676,-6.898028,0.998133,-0.005343,-0.008828,-0.060201
3355,0.035076,-0.088841,9.918422,-0.890496,-0.490457,19.698900,-0.584980,-1.048999,-6.252052,0.998455,-0.005596,-0.008862,-0.054576
3356,0.036555,-0.093109,9.919785,-1.290261,-0.532657,20.123110,-0.633147,-1.051970,-5.588132,0.998751,-0.005966,-0.008900,-0.048794
3357,0.033579,-0.117507,9.917256,-1.152928,-0.561120,20.464922,-0.686305,-1.055325,-4.911415,0.999019,-0.006378,-0.008944,-0.042900
3358,0.029652,-0.143777,9.916041,-0.798972,-0.574309,20.501553,-0.732229,-1.058544,-4.228361,0.999254,-0.006726,-0.008995,-0.036948
3359,0.027753,-0.137060,9.916473,-0.339733,-0.558492,19.962908,-0.764537,-1.061204,-3.553664,0.999452,-0.006955,-0.009049,-0.031066
3360,0.028662,-0.150543,9.916521,-0.101740,-0.524362,18.621628,-0.784507,-1.063106,-2.910306,0.999609,-0.007079,-0.009100,-0.025456
3361,0.029470,-0.159123,9.918845,0.224732,-0.445981,16.224409,-0.794239,-1.063834,-2.329273,0.999725,-0.007118,-0.009141,-0.020388
3362,0.034528,-0.152970,9.919525,0.558841,-0.347772,12.978774,-0.791148,-1.063020,-1.842329,0.999803,-0.007052,-0.009164,-0.016140
3363,0.033067,-0.126344,9.919919,0.799928,-0.272459,9.824695,-0.775663,-1.060940,-1.462103,0.999852,-0.006886,-0.009171,-0.012821
3364,0.033769,-0.115630,9.918943,0.749626,-0.213931,6.693502,-0.754224,-1.058142,-1.186682,0.999881,-0.006677,-0.009165,-0.010416
3365,0.031324,-0.105309,9.920442,0.519290,-0.144720,4.004827,-0.735306,-1.054544,-1.008301,0.999898,-0.006497,-0.009146,-0.008857
3366,0.029007,-0.093024,9.919407,0.198953,-0.104494,1.972300,-0.723731,-1.050080,-0.908646,0.999906,-0.006388,-0.009113,-0.007987
3367,0.028700,-0.080051,9.911177,-0.174755,-0.091734,0.656957,-0.722217,-1.045418,-0.864814,0.999910,-0.006371,-0.009075,-0.007604
3368,0.031905,-0.083674,9.917027,-0.672050,-0.083558,-0.017498,-0.734441,-1.040931,-0.854158,0.999910,-0.006476,-0.009036,-0.007512
3369,0.031650,-0.109389,9.918408,-0.938981,-0.079969,-0.229597,-0.759795,-1.036546,-0.858269,0.999909,-0.006698,-0.008995,-0.007549
3370,0.030174,-0.123501,9.918174,-0.623024,-0.077097,-0.266203,-0.784480,-1.021329,-0.866525,0.999908,-0.006913,-0.008860,-0.007622
3371,0.034226,-0.120870,9.917276,-0.119302,-0.067361,-0.241763,-0.794494,-0.995756,-0.875005,0.999909,-0.006999,-0.008636,-0.007696
3372,0.033365,-0.128851,9.926800,0.363061,-0.053120,-0.252420,-0.788006,-0.970765,-0.883255,0.999910,-0.006941,-0.008418,-0.007766
3373,0.028071,-0.123163,9.922472,1.226895,-0.073994,-0.305802,-0.759223,-0.946145,-0.892557,0.999913,-0.006689,-0.008205,-0.007843
3374,0.028163,-0.087893,9.923115,1.984164,-0.094893,-0.383605,-0.700042,-0.922569,-0.904081,0.999918,-0.006172,-0.008002,-0.007938
3375,0.029094,-0.066535,9.929227,2.064222,-0.115860,-0.470569,-0.622878,-0.900609,-0.918399,0.999922,-0.005498,-0.007815,-0.008057
3376,0.022363,-0.049431,9.930390,1.909394,-0.117004,-0.552960,-0.545489,-0.879228,-0.935558,0.999926,-0.004823,-0.007633,-0.008200
3377,0.024549,-0.044144,9.931623,1.293707,-0.101384,-0.554479,-0.481349,-0.857881,-0.954116,0.999928,-0.004263,-0.007451,-0.008357
3379,0.027912,-0.051596,9.938691,0.288715,-0.058391,-0.490382,-0.446805,-0.836777,-0.971610,0.999930,-0.003961,-0.007269,-0.008507
3380,0.028415,-0.091013,9.942527,-0.426811,-0.015479,-0.403393,-0.447122,-0.815293,-0.986520,0.999930,-0.003963,-0.007081,-0.008636
3381,0.031200,-0.086467,9.935940,-0.410187,0.013624,-0.348444,-0.463048,-0.793618,-0.999025,0.999930,-0.004101,-0.006890,-0.008746
3382,0.035861,-0.108044,9.933062,-0.401297,0.013625,-0.304177,-0.479952,-0.772884,-1.009863,0.999929,-0.004248,-0.006707,-0.008841
3383,0.035303,-0.090044,9.929033,0.172201,-0.009345,-0.272117,-0.486972,-0.753628,-1.019427,0.999930,-0.004308,-0.006538,-0.008924
3384,0.035755,-0.084127,9.925051,0.349161,-0.014054,-0.244638,-0.478809,-0.735484,-1.028027,0.999930,-0.004236,-0.006380,-0.008998
3385,0.030849,-0.059951,9.917193,0.309654,-0.021828,-0.233947,-0.465498,-0.717740,-1.036024,0.999931,-0.004119,-0.006226,-0.009066
3386,0.029674,-0.064146,9.919713,0.091731,-0.021975,-0.183584,-0.454931,-0.700132,-1.043021,0.999932,-0.004025,-0.006073,-0.009126
3387,0.031166,-0.042355,9.919569,-0.026909,-0.005383,-0.139326,-0.448698,-0.682857,-1.048460,0.999933,-0.003970,-0.005923,-0.009173
3388,0.025999,-0.049440,9.919009,-0.554412,0.017296,-0.128640,-0.452110,-0.665147,-1.053003,0.999933,-0.003998,-0.005768,-0.009212
3389,0.024703,-0.030635,9.915567,-0.692724,0.009460,-0.105747,-0.465547,-0.647148,-1.057002,0.999933,-0.004115,-0.005610,-0.009247
3390,0.031409,-0.045473,9.922472,-0.892022,0.016799,-0.069122,-0.483959,-0.630265,-1.060017,0.999933,-0.004274,-0.005461,-0.009273
3391,0.033578,-0.061851,9.921103,-0.969433,0.007245,-0.053858,-0.509465,-0.614847,-1.062137,0.999933,-0.004495,-0.005324,-0.009292
3392,0.032081,-0.083177,9.921126,-0.868528,-0.014562,-0.050799,-0.537481,-0.600553,-1.063916,0.999932,-0.004739,-0.005197,-0.009309
3393,0.031255,-0.095972,9.924516,-0.451934,-0.028759,-0.030953,-0.559265,-0.587127,-1.065280,0.999932,-0.004928,-0.005078,-0.009321
3394,0.030957,-0.140971,9.931243,-0.491946,-0.012464,-0.035516,-0.579494,-0.574014,-1.066340,0.999931,-0.005103,-0.004962,-0.009331
3395,0.029832,-0.135537,9.929041,-0.313984,-0.003821,-0.050760,-0.600522,-0.560793,-1.067703,0.999931,-0.005286,-0.004845,-0.009343
3396,0.026363,-0.134798,9.927771,-0.270207,0.001769,-0.061426,-0.616573,-0.547338,-1.069514,0.999930,-0.005425,-0.004726,-0.009359
3397,0.025921,-0.142221,9.932600,-0.365290,0.025666,-0.062937,-0.633498,-0.533462,-1.071534,0.999930,-0.005572,-0.004603,-0.009376
3398,0.032214,-0.122481,9.925559,-0.515178,0.044909,-0.069027,-0.652773,-0.519888,-1.073707,0.999929,-0.005739,-0.004483,-0.009395
3399,0.031815,-0.105767,9.920090,-0.232921,0.048815,-0.073595,-0.665746,-0.506959,-1.076100,0.999929,-0.005851,-0.004369,-0.009416
3400,0.028991,-0.107580,9.918114,-0.095480,0.045082,-0.065957,-0.669762,-0.494161,-1.078458,0.999929,-0.005885,-0.004257,-0.009436
3401,0.028413,-0.112918,9.921972,-0.057255,0.058127,-0.064422,-0.671255,-0.481307,-1.080660,0.999929,-0.005897,-0.004145,-0.009455
3402,0.029731,-0.104340,9.913421,0.000839,0.046718,-0.064413,-0.670745,-0.468925,-1.082840,0.999930,-0.005892,-0.004037,-0.009473
3403,0.027389,-0.117356,9.922566,-0.020448,0.049020,-0.078138,-0.670030,-0.457020,-1.085243,0.999930,-0.005885,-0.003933,-0.009493
3404,0.032218,-0.118553,9.921331,-0.038787,0.043644,-0.084233,-0.671353,-0.445811,-1.087964,0.999930,-0.005895,-0.003835,-0.009517
3405,0.033253,-0.119783,9.925691,-0.058665,0.044300,-0.091855,-0.673532,-0.435632,-1.090912,0.999930,-0.005914,-0.003745,-0.009542
3406,0.032133,-0.120305,9.920610,-0.060244,0.035774,-0.104054,-0.676177,-0.425937,-1.094188,0.999930,-0.005936,-0.003660,-0.009570
3407,0.030303,-0.121017,9.923593,-0.058772,0.033348,-0.102520,-0.678865,-0.416475,-1.097639,0.999930,-0.005959,-0.003577,-0.009600
3408,0.028787,-0.122569,9.922122,-0.034422,0.021767,-0.085728,-0.681252,-0.407240,-1.100782,0.999930,-0.005979,-0.003496,-0.009627
3409,0.024439,-0.122520,9.924453,-0.023808,0.020887,-0.076563,-0.683119,-0.397954,-1.103489,0.999930,-0.005994,-0.003415,-0.009650
3410,0.022388,-0.119895,9.922723,-0.020801,0.010873,-0.079607,-0.684431,-0.388542,-1.106094,0.999930,-0.006005,-0.003333,-0.009672
3411,0.025928,-0.118760,9.925556,-0.028443,0.011508,-0.068918,-0.685405,-0.379739,-1.108572,0.999930,-0.006013,-0.003256,-0.009694
3412,0.026517,-0.119091,9.926652,-0.023869,0.019720,-0.062807,-0.686313,-0.371485,-1.110774,0.999930,-0.006020,-0.003184,-0.009712
3413,0.026248,-0.122607,9.923763,-0.040684,0.021804,-0.065852,-0.687766,-0.363375,-1.112924,0.999930,-0.006032,-0.003113,-0.009731
3414,0.028984,-0.120580,9.923206,-0.037670,0.020798,-0.068897,-0.689558,-0.355759,-1.115175,0.999930,-0.006047,-0.003046,-0.009750
3415,0.031634,-0.121808,9.923498,-0.027016,0.024311,-0.062788,-0.690991,-0.348881,-1.117376,0.999929,-0.006059,-0.002986,-0.009769
3416,0.028250,-0.119547,9.923190,-0.016350,0.024760,-0.050575,-0.691917,-0.342104,-1.119274,0.999929,-0.006067,-0.002926,-0.009785
3417,0.029521,-0.116032,9.923084,-0.013271,0.023681,-0.062778,-0.692021,-0.335362,-1.121176,0.999929,-0.006067,-0.002867,-0.009801
3418,0.032852,-0.115494,9.924348,0.006625,0.017973,-0.056669,-0.691332,-0.329402,-1.123179,0.999929,-0.006061,-0.002815,-0.009819
3419,0.031394,-0.114472,9.924681,0.011273,0.022919,-0.059717,-0.690093,-0.323846,-1.125133,0.999930,-0.006050,-0.002767,-0.009835
3420,0.031481,-0.118558,9.922643,0.008266,0.032437,-0.052084,-0.689156,-0.318108,-1.127010,0.999930,-0.006041,-0.002717,-0.009851
3421,0.033635,-0.119093,9.923407,0.009801,0.031244,-0.071917,-0.688725,-0.312639,-1.129090,0.999929,-0.006037,-0.002669,-0.009869
3422,0.033508,-0.127704,9.924026,0.011269,0.019340,-0.082594,-0.689143,-0.307775,-1.131671,0.999929,-0.006040,-0.002626,-0.009891
3423,0.032323,-0.129235,9.924611,-0.001071,0.024218,-0.096323,-0.690714,-0.303078,-1.134652,0.999929,-0.006053,-0.002585,-0.009917
3424,0.033590,-0.133521,9.924042,-0.005819,0.013825,-0.102422,-0.693095,-0.298645,-1.137960,0.999929,-0.006074,-0.002546,-0.009946
3425,0.031610,-0.127634,9.922546,-0.005974,0.012581,-0.117677,-0.695339,-0.294494,-1.141623,0.999929,-0.006093,-0.002509,-0.009978
3426,0.029110,-0.119194,9.921397,-0.006020,0.014410,-0.105466,-0.696133,-0.290047,-1.145344,0.999928,-0.006100,-0.002470,-0.010010
3427,0.030730,-0.114742,9.921055,-0.001393,0.017759,-0.094781,-0.695565,-0.285569,-1.148691,0.999928,-0.006095,-0.002431,-0.010039
3428,0.031186,-0.112296,9.920214,0.007864,0.016506,-0.094778,-0.694099,-0.281402,-1.151864,0.999928,-0.006081,-0.002395,-0.010066
3429,0.029890,-0.110366,9.916692,0.012571,0.024404,-0.093249,-0.692019,-0.277188,-1.155014,0.999928,-0.006063,-0.002358,-0.010094
3430,0.032466,-0.115547,9.917714,0.000464,0.018548,-0.087144,-0.690437,-0.273203,-1.158036,0.999928,-0.006049,-0.002323,-0.010120
3431,0.039994,-0.117357,9.921229,0.005089,0.020238,-0.094772,-0.689709,-0.270395,-1.161078,0.999928,-0.006042,-0.002298,-0.010146
3432,0.035332,-0.114678,9.917644,0.003614,0.028004,-0.093244,-0.688884,-0.267819,-1.164224,0.999927,-0.006035,-0.002276,-0.010173
3433,0.031437,-0.111024,9.918167,0.006758,0.034299,-0.094769,-0.687450,-0.264277,-1.167376,0.999927,-0.006022,-0.002245,-0.010201
3434,0.034141,-0.106035,9.925435,0.002335,0.045171,-0.091715,-0.685236,-0.260432,-1.170509,0.999927,-0.006003,-0.002211,-0.010228
3435,0.026740,-0.101047,9.926735,0.011712,0.043862,-0.082558,-0.682032,-0.256095,-1.173445,0.999927,-0.005974,-0.002174,-0.010253
3436,0.019899,-0.106663,9.924455,0.021078,0.051801,-0.085607,-0.678668,-0.250412,-1.176279,0.999927,-0.005945,-0.002124,-0.010278
3437,0.025266,-0.111749,9.931553,0.022730,0.061265,-0.081026,-0.676254,-0.244462,-1.179085,0.999927,-0.005923,-0.002072,-0.010302
3438,0.025432,-0.112809,9.929269,-0.000086,0.056940,-0.081023,-0.674876,-0.239151,-1.181813,0.999927,-0.005911,-0.002026,-0.010325
3439,0.022190,-0.116162,9.924518,0.009107,0.052623,-0.073390,-0.674222,-0.233876,-1.184410,0.999927,-0.005904,-0.001980,-0.010348
3440,0.031139,-0.119845,9.922641,0.016720,0.072666,-0.079492,-0.674006,-0.229066,-1.186982,0.999927,-0.005902,-0.001938,-0.010370
3441,0.033916,-0.120611,9.921969,-0.004693,0.068197,-0.081016,-0.674464,-0.225295,-1.189682,0.999927,-0.005906,-0.001905,-0.010393
3442,0.027857,-0.121792,9.919332,-0.000181,0.051534,-0.084066,-0.675392,-0.221704,-1.192453,0.999927,-0.005914,-0.001873,-0.010417
3443,0.031199,-0.128253,9.918323,0.008857,0.054718,-0.074908,-0.676811,-0.218200,-1.195117,0.999926,-0.005926,-0.001842,-0.010440
3444,0.034044,-0.130379,9.922717,0.022415,0.047167,-0.081011,-0.678637,-0.215481,-1.197727,0.999926,-0.005942,-0.001818,-0.010463
3445,0.028184,-0.127896,9.927787,0.029874,0.032001,-0.084061,-0.680013,-0.212953,-1.200485,0.999926,-0.005953,-0.001796,-0.010487
3446,0.025915,-0.125863,9.925090,0.049579,0.026043,-0.071851,-0.680445,-0.210079,-1.203088,0.999925,-0.005957,-0.001771,-0.010509
3447,0.031841,-0.114910,9.927462,0.054120,0.029207,-0.065746,-0.679196,-0.207691,-1.205390,0.999925,-0.005946,-0.001750,-0.010529
3448,0.028017,-0.115335,9.927032,0.057211,0.024719,-0.068798,-0.676818,-0.205614,-1.207645,0.999925,-0.005925,-0.001732,-0.010549
3449,0.025701,-0.107501,9.921910,0.045090,0.023322,-0.062692,-0.673945,-0.203119,-1.209850,0.999925,-0.005900,-0.001710,-0.010568
3450,0.032895,-0.105862,9.920109,0.043712,0.021884,-0.062692,-0.670481,-0.201217,-1.211956,0.999925,-0.005869,-0.001694,-0.010586
3451,0.033271,-0.104880,9.926500,0.051502,0.017335,-0.077951,-0.666758,-0.200219,-1.214314,0.999925,-0.005837,-0.001685,-0.010607
3452,0.028893,-0.112678,9.921740,0.057707,0.020439,-0.085581,-0.663575,-0.198912,-1.217052,0.999925,-0.005809,-0.001674,-0.010630
3453,0.033781,-0.109914,9.920858,0.060814,0.018961,-0.079477,-0.660841,-0.197667,-1.219813,0.999925,-0.005785,-0.001663,-0.010654
3454,0.032561,-0.111083,9.923491,0.044089,0.022029,-0.085581,-0.658278,-0.196790,-1.222574,0.999925,-0.005763,-0.001656,-0.010678
3455,0.029201,-0.123282,9.918999,0.037944,0.023602,-0.074898,-0.657473,-0.195430,-1.225255,0.999925,-0.005755,-0.001644,-0.010702
3456,0.036069,-0.121088,9.914298,0.030194,0.025147,-0.074897,-0.657931,-0.194394,-1.227756,0.999925,-0.005759,-0.001635,-0.010724
3457,0.037706,-0.120112,9.916253,0.031622,0.020523,-0.065742,-0.658198,-0.194268,-1.230104,0.999924,-0.005762,-0.001634,-0.010744
3458,0.036136,-0.120945,9.917913,0.025422,0.023528,-0.068795,-0.658514,-0.194191,-1.232350,0.999924,-0.005764,-0.001633,-0.010764
3459,0.040338,-0.126128,9.914145,0.032914,0.040246,-0.065743,-0.659382,-0.194044,-1.234598,0.999924,-0.005772,-0.001631,-0.010783
3460,0.034572,-0.117274,9.914623,0.022122,0.031035,-0.090157,-0.659933,-0.193630,-1.237205,0.999924,-0.005777,-0.001627,-0.010806
3461,0.022412,-0.124588,9.917192,0.014394,0.043315,-0.079475,-0.660617,-0.191450,-1.240042,0.999923,-0.005783,-0.001608,-0.010831
3462,0.024443,-0.123621,9.916744,-0.011689,0.052614,-0.079473,-0.662454,-0.187975,-1.242703,0.999923,-0.005798,-0.001578,-0.010854
3463,0.027063,-0.120558,9.914856,-0.002642,0.052717,-0.080997,-0.664147,-0.184887,-1.245393,0.999923,-0.005813,-0.001550,-0.010877
3464,0.027385,-0.127989,9.916446,0.006376,0.031426,-0.076418,-0.665901,-0.182544,-1.248027,0.999922,-0.005828,-0.001530,-0.010900
3465,0.035921,-0.134543,9.921315,0.018350,0.042110,-0.064210,-0.668587,-0.181316,-1.250375,0.999922,-0.005851,-0.001518,-0.010920
3466,0.044211,-0.130927,9.916276,0.019627,0.034357,-0.062685,-0.671263,-0.181716,-1.252494,0.999922,-0.005875,-0.001522,-0.010939
3467,0.045975,-0.138968,9.926810,0.023932,0.031108,-0.068790,-0.674174,-0.183279,-1.254686,0.999921,-0.005900,-0.001535,-0.010958
3468,0.043596,-0.135843,9.930857,0.022105,0.040074,-0.077947,-0.677404,-0.184653,-1.257133,0.999921,-0.005929,-0.001546,-0.010980
3469,0.042623,-0.126665,9.931179,0.014273,0.056697,-0.079474,-0.679503,-0.185228,-1.259767,0.999921,-0.005947,-0.001551,-0.011003
3470,0.035132,-0.119613,9.928255,0.012667,0.058125,-0.087105,-0.680113,-0.184660,-1.262562,0.999920,-0.005952,-0.001546,-0.011027
3471,0.031371,-0.124344,9.927716,0.011080,0.053529,-0.091683,-0.680511,-0.183066,-1.265561,0.999920,-0.005956,-0.001532,-0.011053
3472,0.025361,-0.118498,9.914459,0.026287,0.044424,-0.090156,-0.680574,-0.180800,-1.268608,0.999920,-0.005956,-0.001512,-0.011080
3473,0.026359,-0.119076,9.912310,0.014065,0.035350,-0.073370,-0.680092,-0.178421,-1.271349,0.999920,-0.005952,-0.001491,-0.011103
3474,0.022534,-0.121927,9.914416,0.014025,0.014083,-0.079472,-0.680152,-0.176349,-1.273904,0.999919,-0.005952,-0.001473,-0.011126
3475,0.026617,-0.118849,9.910748,0.024667,0.006541,-0.065737,-0.680023,-0.174856,-1.276327,0.999919,-0.005951,-0.001460,-0.011147
3476,0.026828,-0.118368,9.912316,0.026179,0.009646,-0.062685,-0.679353,-0.173907,-1.278470,0.999919,-0.005945,-0.001451,-0.011165
3477,0.023768,-0.119205,9.917685,0.020059,0.024975,-0.064210,-0.678800,-0.172415,-1.280591,0.999919,-0.005940,-0.001438,-0.011184
3478,0.025535,-0.127883,9.920026,0.041335,0.034208,-0.058105,-0.678921,-0.170427,-1.282637,0.999919,-0.005941,-0.001421,-0.011201
3479,0.029861,-0.125726,9.917088,0.045779,0.041866,-0.055052,-0.679250,-0.168801,-1.284533,0.999918,-0.005944,-0.001407,-0.011218
3480,0.030502,-0.130473,9.918918,0.024264,0.044906,-0.076415,-0.680106,-0.167538,-1.286735,0.999918,-0.005951,-0.001395,-0.011237
3482,0.029081,-0.129006,9.916238,0.022563,0.049474,-0.064208,-0.681646,-0.166124,-1.289090,0.999918,-0.005964,-0.001383,-0.011258
3483,0.034703,-0.130280,9.918391,0.023919,0.034172,-0.065734,-0.683134,-0.165336,-1.291266,0.999918,-0.005977,-0.001376,-0.011277
3484,0.030299,-0.124657,9.919022,0.022258,0.021909,-0.087097,-0.684154,-0.165165,-1.293819,0.999917,-0.005986,-0.001374,-0.011299
3485,0.028949,-0.126517,9.923099,0.020628,0.029524,-0.082519,-0.684818,-0.164536,-1.296652,0.999917,-0.005992,-0.001368,-0.011324
3486,0.026475,-0.123059,9.925094,0.028168,0.032588,-0.065732,-0.685195,-0.163368,-1.299131,0.999917,-0.005995,-0.001358,-0.011345
3487,0.029837,-0.117507,9.927672,0.034249,0.035644,-0.076414,-0.684456,-0.162211,-1.301513,0.999917,-0.005989,-0.001348,-0.011366
3488,0.030496,-0.113998,9.928399,0.038868,0.049349,-0.068784,-0.682669,-0.161200,-1.303952,0.999916,-0.005973,-0.001339,-0.011387
3489,0.030013,-0.111463,9.926095,0.023692,0.056946,-0.073363,-0.680521,-0.159886,-1.306345,0.999916,-0.005954,-0.001327,-0.011408
3490,0.029070,-0.110680,9.924148,0.023793,0.043189,-0.084046,-0.678375,-0.158581,-1.308992,0.999916,-0.005935,-0.001316,-0.011431
3491,0.032177,-0.113159,9.927343,0.033032,0.046196,-0.084047,-0.676306,-0.157709,-1.311814,0.999916,-0.005917,-0.001309,-0.011455
3492,0.030309,-0.116802,9.927438,0.030015,0.035459,-0.076417,-0.674789,-0.157118,-1.314505,0.999916,-0.005904,-0.001303,-0.011479
3493,0.024560,-0.113561,9.923832,0.025464,0.027827,-0.088625,-0.673500,-0.156127,-1.317269,0.999916,-0.005893,-0.001295,-0.011503
3494,0.028872,-0.113477,9.924030,0.036193,0.023255,-0.082521,-0.671839,-0.155230,-1.320133,0.999915,-0.005878,-0.001287,-0.011528
3495,0.028119,-0.114053,9.927031,0.037759,0.035441,-0.073366,-0.670067,-0.154575,-1.322744,0.999915,-0.005863,-0.001281,-0.011551
3496,0.027113,-0.115032,9.922797,0.033205,0.035430,-0.077944,-0.668553,-0.153574,-1.325280,0.999915,-0.005849,-0.001273,-0.011573
3497,0.033595,-0.118034,9.925211,0.033197,0.038429,-0.084049,-0.667554,-0.153080,-1.327994,0.999915,-0.005841,-0.001268,-0.011596
3498,0.039422,-0.118999,9.920981,0.034681,0.038285,-0.071842,-0.666956,-0.153747,-1.330605,0.999915,-0.005835,-0.001274,-0.011619
3499,0.035798,-0.119864,9.923810,0.033100,0.041177,-0.071844,-0.666565,-0.154576,-1.333013,0.999914,-0.005832,-0.001281,-0.011640
3500,0.037771,-0.117079,9.917091,0.040686,0.030350,-0.065742,-0.665911,-0.155353,-1.335319,0.999914,-0.005827,-0.001288,-0.011660
3501,0.035798,-0.114316,9.918254,0.045259,0.027154,-0.070322,-0.664543,-0.156338,-1.337597,0.999914,-0.005815,-0.001297,-0.011680
3502,0.029898,-0.113606,9.919351,0.051381,0.042330,-0.074900,-0.662694,-0.156338,-1.340032,0.999914,-0.005799,-0.001297,-0.011701
3503,0.031721,-0.117398,9.921441,0.048320,0.043801,-0.081005,-0.661140,-0.155652,-1.342646,0.999914,-0.005785,-0.001291,-0.011724
3504,0.031791,-0.121996,9.912536,0.040616,0.037629,-0.084057,-0.660637,-0.155242,-1.345410,0.999913,-0.005781,-0.001287,-0.011748
3505,0.032113,-0.119544,9.912777,0.038997,0.055867,-0.090162,-0.660540,-0.154692,-1.348328,0.999913,-0.005780,-0.001282,-0.011774
3506,0.033071,-0.121722,9.914968,0.026699,0.052731,-0.085585,-0.660656,-0.154028,-1.351274,0.999913,-0.005781,-0.001276,-0.011799
3507,0.032904,-0.119275,9.915923,0.029662,0.040433,-0.077956,-0.660898,-0.153715,-1.354015,0.999913,-0.005783,-0.001273,-0.011823
3508,0.027447,-0.121834,9.914384,0.024994,0.044960,-0.076430,-0.661174,-0.153005,-1.356601,0.999912,-0.005785,-0.001267,-0.011846
3509,0.030868,-0.121510,9.918060,0.035571,0.052552,-0.081008,-0.661556,-0.151913,-1.359240,0.999912,-0.005788,-0.001257,-0.011869
3510,0.026685,-0.131363,9.918489,0.030821,0.049465,-0.084060,-0.662742,-0.150704,-1.362004,0.999912,-0.005799,-0.001246,-0.011893
3511,0.026463,-0.130683,9.916556,0.029058,0.061668,-0.088637,-0.664895,-0.148958,-1.364896,0.999911,-0.005817,-0.001231,-0.011918
3512,0.028817,-0.132640,9.913109,0.019659,0.066220,-0.100844,-0.667307,-0.147193,-1.368070,0.999911,-0.005838,-0.001215,-0.011946
3513,0.032272,-0.132796,9.914739,0.013304,0.064624,-0.110000,-0.670111,-0.146001,-1.371600,0.999910,-0.005863,-0.001204,-0.011976
3514,0.029668,-0.122805,9.919368,0.010078,0.070646,-0.090163,-0.672034,-0.144863,-1.374956,0.999910,-0.005879,-0.001194,-0.012006
3515,0.034443,-0.121086,9.919088,0.000838,0.070547,-0.099319,-0.672953,-0.143871,-1.378139,0.999910,-0.005887,-0.001185,-0.012033
3516,0.037359,-0.124517,9.919752,0.006851,0.068864,-0.085588,-0.674043,-0.143683,-1.381245,0.999909,-0.005897,-0.001183,-0.012060
3517,0.036686,-0.120102,9.920573,0.005243,0.067162,-0.071856,-0.674931,-0.143782,-1.383893,0.999909,-0.005905,-0.001183,-0.012084
3518,0.032948,-0.118197,9.920259,0.009786,0.057864,-0.061177,-0.675130,-0.143636,-1.386133,0.999909,-0.005906,-0.001182,-0.012103
3519,0.033576,-0.128198,9.919692,0.014273,0.050113,-0.071859,-0.675940,-0.143475,-1.388368,0.999908,-0.005913,-0.001180,-0.012123
3520,0.033369,-0.126772,9.924505,0.014121,0.048463,-0.065757,-0.677481,-0.143517,-1.390676,0.999908,-0.005927,-0.001181,-0.012143
3521,0.034634,-0.123948,9.925486,0.009426,0.048331,-0.067285,-0.678647,-0.143689,-1.392908,0.999908,-0.005937,-0.001182,-0.012162
3522,0.034000,-0.124117,9.919569,0.009331,0.049721,-0.076441,-0.679599,-0.143901,-1.395320,0.999907,-0.005945,-0.001183,-0.012183
3523,0.035722,-0.125262,9.917555,0.021435,0.061784,-0.087124,-0.680450,-0.143994,-1.398064,0.999907,-0.005953,-0.001184,-0.012207
3524,0.034914,-0.125639,9.915733,0.032004,0.054004,-0.090177,-0.681043,-0.144103,-1.401038,0.999907,-0.005958,-0.001185,-0.012233
3525,0.032911,-0.125579,9.913166,0.037995,0.052349,-0.087127,-0.681373,-0.144096,-1.404011,0.999906,-0.005961,-0.001185,-0.012259
3526,0.029136,-0.127529,9.910812,0.047025,0.047683,-0.084076,-0.681625,-0.143637,-1.406879,0.999906,-0.005963,-0.001180,-0.012284
3527,0.030141,-0.130017,9.918549,0.048394,0.050666,-0.076446,-0.682116,-0.142943,-1.409569,0.999906,-0.005967,-0.001174,-0.012308
3528,0.031855,-0.126014,9.920499,0.049776,0.039895,-0.071869,-0.682390,-0.142654,-1.412054,0.999906,-0.005970,-0.001171,-0.012329
3529,0.031909,-0.122282,9.921454,0.031379,0.053525,-0.062715,-0.682189,-0.142501,-1.414312,0.999905,-0.005968,-0.001170,-0.012349
3530,0.033875,-0.127122,9.922948,0.034337,0.051881,-0.058138,-0.682347,-0.142346,-1.416344,0.999905,-0.005969,-0.001168,-0.012367
3531,0.031408,-0.125517,9.926273,0.052531,0.057870,-0.071872,-0.682459,-0.142077,-1.418529,0.999905,-0.005970,-0.001166,-0.012386
3532,0.035325,-0.129065,9.924063,0.073762,0.048588,-0.085608,-0.682093,-0.142013,-1.421170,0.999905,-0.005967,-0.001165,-0.012409
3533,0.030923,-0.135060,9.927732,0.094926,0.051517,-0.073401,-0.681941,-0.142015,-1.423833,0.999904,-0.005966,-0.001165,-0.012432
3534,0.028274,-0.138861,9.923838,0.108387,0.043815,-0.077979,-0.682164,-0.141417,-1.426366,0.999904,-0.005968,-0.001160,-0.012454
3535,0.027530,-0.136320,9.923096,0.073010,0.045293,-0.081031,-0.682878,-0.140609,-1.429024,0.999904,-0.005974,-0.001153,-0.012477
3536,0.028931,-0.135872,9.916733,0.043759,0.029979,-0.073402,-0.684375,-0.140120,-1.431604,0.999903,-0.005987,-0.001148,-0.012500
3537,0.025086,-0.134438,9.915937,-0.005313,0.032992,-0.073401,-0.686970,-0.139622,-1.434056,0.999903,-0.006010,-0.001143,-0.012521
3538,0.028382,-0.125793,9.911518,-0.013109,0.026851,-0.084082,-0.689480,-0.139144,-1.436687,0.999902,-0.006032,-0.001139,-0.012544
3539,0.031199,-0.115943,9.914439,-0.011609,0.029821,-0.091713,-0.690229,-0.139327,-1.439627,0.999902,-0.006038,-0.001140,-0.012570
3540,0.029054,-0.108419,9.914503,-0.037446,0.023630,-0.093240,-0.689653,-0.139635,-1.442723,0.999902,-0.006033,-0.001143,-0.012597
3541,0.028489,-0.106192,9.918344,-0.104412,0.034245,-0.087138,-0.689678,-0.139599,-1.445747,0.999901,-0.006033,-0.001142,-0.012623
3542,0.027847,-0.098901,9.914097,-0.249132,0.035713,-0.062723,-0.692325,-0.139234,-1.448266,0.999901,-0.006057,-0.001139,-0.012645
3543,0.029066,-0.095940,9.918209,-0.381567,0.046332,-0.032206,-0.698562,-0.138719,-1.449875,0.999901,-0.006111,-0.001133,-0.012659
3544,0.026338,-0.088782,9.917420,-0.384214,0.055435,0.008992,-0.705928,-0.137730,-1.450296,0.999900,-0.006175,-0.001124,-0.012663
3545,0.028769,-0.102218,9.920026,-0.371631,0.061487,0.036457,-0.713507,-0.136469,-1.449575,0.999900,-0.006241,-0.001112,-0.012657
3546,0.026188,-0.105530,9.919384,-0.104319,0.059907,-0.000167,-0.717782,-0.135159,-1.449004,0.999900,-0.006278,-0.001100,-0.012652
3547,0.025369,-0.112490,9.924929,0.365881,0.053770,-0.055101,-0.710547,-0.133710,-1.449955,0.999900,-0.006215,-0.001088,-0.012660
3548,0.025667,-0.117483,9.925790,0.712392,0.032375,-0.119190,-0.690889,-0.132739,-1.452882,0.999901,-0.006043,-0.001082,-0.012685
3549,0.028033,-0.127884,9.929955,0.846656,0.015536,-0.207695,-0.665134,-0.132729,-1.458338,0.999901,-0.005819,-0.001084,-0.012733
3550,0.027150,-0.119557,9.924737,1.017470,0.015470,-0.309933,-0.635245,-0.133194,-1.466968,0.999902,-0.005558,-0.001091,-0.012808
3551,0.028496,-0.104172,9.924364,0.961021,0.003192,-0.380126,-0.602097,-0.133929,-1.478473,0.999902,-0.005269,-0.001101,-0.012908
3552,0.029473,-0.095435,9.922795,0.456047,-0.004521,-0.462527,-0.577031,-0.135221,-1.492520,0.999902,-0.005050,-0.001114,-0.013030
3553,0.026390,-0.101694,9.918175,-0.094762,0.009145,-0.576973,-0.570291,-0.136210,-1.509847,0.999900,-0.004992,-0.001123,-0.013181
3554,0.028074,-0.116345,9.915467,-0.422976,0.019772,-0.776869,-0.580739,-0.136676,-1.532410,0.999897,-0.005083,-0.001125,-0.013378
3555,0.027486,-0.109599,9.916405,-0.668843,0.005979,-1.088158,-0.601436,-0.137370,-1.563490,0.999892,-0.005264,-0.001127,-0.013650
3556,0.036334,-0.138318,9.912776,-1.254926,0.070018,-2.859757,-0.635041,-0.137484,-1.629295,0.999883,-0.005558,-0.001121,-0.014224
3557,0.040471,-0.150811,9.912398,-1.288633,0.242394,-7.719830,-0.678825,-0.135002,-1.805664,0.999858,-0.005942,-0.001085,-0.015763
3558,0.040977,-0.138908,9.915633,-0.827915,0.358303,-10.954793,-0.714884,-0.129587,-2.117002,0.999809,-0.006258,-0.001015,-0.018480
3559,0.041851,-0.107236,9.915455,-0.647865,0.474206,-14.525458,-0.738667,-0.121972,-2.541810,0.999733,-0.006468,-0.000921,-0.022186
3560,0.042016,-0.147133,9.918202,-0.682966,0.603837,-18.201414,-0.759799,-0.112096,-3.087437,0.999614,-0.006654,-0.000799,-0.026946
3561,0.038205,-0.137970,9.924257,-0.074169,0.634284,-19.069666,-0.771881,-0.100717,-3.708824,0.999453,-0.006761,-0.000660,-0.032365
3562,0.036207,-0.125659,9.926121,0.499582,0.541135,-16.031549,-0.763777,-0.089843,-4.294036,0.999275,-0.006690,-0.000534,-0.037468
3563,0.036804,-0.137553,9.921218,0.513320,0.493759,-14.673475,-0.746068,-0.080274,-4.805956,0.999099,-0.006534,-0.000427,-0.041931
3564,0.035533,-0.171121,9.917418,0.632257,0.431118,-13.242159,-0.727495,-0.071874,-5.271367,0.998922,-0.006371,-0.000335,-0.045988
3565,0.035394,-0.141812,9.914936,0.925131,0.359320,-11.455300,-0.702440,-0.064907,-5.683116,0.998751,-0.006150,-0.000262,-0.049577
3566,0.034887,-0.132851,9.916352,0.601586,0.356184,-12.097717,-0.677225,-0.058818,-6.075777,0.998577,-0.005929,-0.000199,-0.052998
3567,0.033051,-0.132520,9.918729,0.146812,0.394248,-13.849480,-0.664970,-0.052507,-6.508340,0.998370,-0.005820,-0.000128,-0.056767
3568,0.032839,-0.126238,9.918951,0.010957,0.401794,-14.777245,-0.662566,-0.045905,-6.985567,0.998126,-0.005796,-0.000048,-0.060924
3569,0.034954,-0.111959,9.924740,0.006364,0.413909,-15.373880,-0.662102,-0.039346,-7.488198,0.997849,-0.005788,0.000035,-0.065301
3570,0.034369,-0.100650,9.929403,-0.040909,0.455011,-16.297068,-0.661941,-0.032275,-8.016169,0.997537,-0.005782,0.000123,-0.069898
3571,0.031771,-0.119559,9.928556,0.215463,0.476277,-16.585468,-0.658539,-0.024363,-8.564340,0.997192,-0.005747,0.000217,-0.074668
3572,0.034393,-0.122681,9.924273,0.757143,0.460916,-16.672447,-0.642456,-0.016383,-9.118767,0.996820,-0.005600,0.000303,-0.079492
3573,0.036626,-0.109035,9.922234,1.152345,0.485215,-17.633780,-0.610661,-0.008385,-9.690661,0.996412,-0.005316,0.000377,-0.084465
3574,0.030455,-0.102421,9.919696,1.265274,0.500362,-18.334183,-0.570193,0.000367,-10.290250,0.995958,-0.004956,0.000449,-0.089678
3575,0.034721,-0.089312,9.918538,1.683400,0.471253,-18.564596,-0.520795,0.009173,-10.905335,0.995465,-0.004517,0.000512,-0.095022
3576,0.040225,-0.033720,9.914532,1.987177,0.429915,-18.073254,-0.458174,0.017149,-11.516057,0.994947,-0.003963,0.000550,-0.100326
3577,0.039393,-0.029174,9.918000,1.587577,0.402297,-17.630735,-0.396246,0.024574,-12.111195,0.994414,-0.003416,0.000578,-0.105492
3578,0.043094,-0.034182,9.924105,1.108590,0.392979,-17.513241,-0.349563,0.031842,-12.696984,0.993863,-0.003001,0.000613,-0.110574
3579,0.050779,-0.025778,9.923260,0.867619,0.403473,-18.456263,-0.315332,0.039123,-13.296528,0.993272,-0.002694,0.000658,-0.115773
3580,0.049874,-0.027439,9.921079,0.261938,0.450573,-19.683107,-0.295495,0.047238,-13.932233,0.992615,-0.002510,0.000722,-0.121281
3581,0.046821,-0.060644,9.924355,-0.339244,0.499202,-21.332636,-0.296980,0.056816,-14.615878,0.991874,-0.002508,0.000821,-0.127200
3582,0.043684,-0.043702,9.925824,-0.340773,0.543258,-23.038620,-0.309158,0.067635,-15.355451,0.991032,-0.002595,0.000945,-0.133599
3583,0.037787,-0.036694,9.928954,-0.467380,0.556805,-24.099140,-0.323042,0.079160,-16.141132,0.990092,-0.002694,0.001080,-0.140390
3585,0.036041,-0.029297,9.926375,-1.002902,0.610033,-25.582338,-0.347731,0.091367,-16.969210,0.989051,-0.002884,0.001236,-0.147541
3586,0.034519,-0.043965,9.929996,-1.167625,0.648002,-26.804609,-0.384364,0.104319,-17.842390,0.987897,-0.003172,0.001419,-0.155072
3587,0.034388,-0.051186,9.929528,-1.011923,0.647816,-26.688637,-0.421650,0.117164,-18.734015,0.986659,-0.003464,0.001608,-0.162753
3588,0.038744,-0.086147,9.927641,-1.228600,0.662874,-26.970934,-0.460859,0.129448,-19.628424,0.985358,-0.003770,0.001799,-0.170448
3589,0.044146,-0.091539,9.924015,-1.115725,0.708426,-28.362583,-0.502707,0.141510,-20.550747,0.983953,-0.004096,0.001998,-0.178372
3590,0.044753,-0.111990,9.926966,-0.668696,0.717336,-28.791367,-0.535778,0.153384,-21.503428,0.982434,-0.004344,0.002187,-0.186545
3591,0.047764,-0.111477,9.925452,-0.264404,0.706396,-28.815788,-0.555040,0.164548,-22.463657,0.980836,-0.004471,0.002352,-0.194770
3592,0.049528,-0.089119,9.922420,0.063650,0.704595,-29.445995,-0.561541,0.174966,-23.434801,0.979150,-0.004488,0.002490,-0.203075
3593,0.055471,-0.069794,9.923688,0.288023,0.704299,-29.294935,-0.557925,0.184967,-24.413925,0.977379,-0.004417,0.002607,-0.211433
3594,0.053292,-0.069363,9.924732,0.678758,0.667369,-27.836149,-0.543649,0.194575,-25.366215,0.975589,-0.004256,0.002698,-0.219548
3595,0.058394,-0.030750,9.923771,1.017677,0.586174,-25.223768,-0.516264,0.203048,-26.250637,0.973866,-0.003985,0.002749,-0.227071
3596,0.058199,-0.017598,9.924459,0.876010,0.540062,-23.284321,-0.484365,0.210327,-27.059187,0.972241,-0.003680,0.002773,-0.233938
3597,0.062920,-0.018340,9.921896,0.719087,0.506143,-21.508144,-0.457259,0.216990,-27.805803,0.970697,-0.003418,0.002797,-0.240268
3598,0.055555,-0.018974,9.917788,0.408025,0.464596,-20.380486,-0.438130,0.223076,-28.504017,0.969215,-0.003226,0.002828,-0.246178
3599,0.055776,-0.016187,9.916339,-0.466113,0.465783,-20.061569,-0.438873,0.228896,-29.178120,0.967750,-0.003203,0.002898,-0.251875
3600,0.046795,-0.040462,9.914425,-1.444059,0.512761,-20.958817,-0.471189,0.235379,-29.861877,0.966229,-0.003444,0.003044,-0.257644
3601,0.047504,-0.076796,9.909100,-2.440416,0.605527,-22.948626,-0.538020,0.243317,-30.593767,0.964562,-0.003969,0.003287,-0.263807
3602,0.031098,-0.104684,9.910313,-4.236443,0.814287,-30.794937,-0.653354,0.253733,-31.489645,0.962465,-0.004887,0.003678,-0.271336
3603,0.031517,-0.149495,9.908497,-7.079329,1.259588,-40.129021,-0.848499,0.269167,-32.671967,0.959605,-0.006445,0.004337,-0.281244
3604,0.042410,-0.211468,9.903658,-8.370444,1.256241,-44.093384,-1.115196,0.282958,-34.076000,0.956069,-0.008581,0.005212,-0.292968
3605,0.045946,-0.267953,9.905058,-7.882401,1.350515,-44.804474,-1.396805,0.289426,-35.557987,0.952177,-0.010836,0.006127,-0.305293
3606,0.046269,-0.285036,9.907755,-6.976216,1.449355,-45.137127,-1.654882,0.291617,-37.057449,0.948074,-0.012884,0.007002,-0.317711
3607,0.064260,-0.320763,9.908888,-5.374135,1.477967,-40.888966,-1.869874,0.291315,-38.491776,0.943998,-0.014567,0.007778,-0.329539
3608,0.065384,-0.318972,9.912399,-2.342175,1.277655,-34.846313,-2.005590,0.289090,-39.754662,0.940291,-0.015601,0.008323,-0.339913
3609,0.055866,-0.304912,9.918701,-0.373646,1.382543,-32.740551,-2.055396,0.288378,-40.881836,0.936895,-0.015928,0.008622,-0.349142
3610,0.061403,-0.297131,9.917819,0.174343,1.255500,-32.082893,-2.061741,0.288440,-41.962997,0.933558,-0.015897,0.008792,-0.357965
3611,0.064270,-0.279502,9.917830,0.339389,1.169641,-31.005602,-2.055163,0.285683,-43.015144,0.930233,-0.015771,0.008894,-0.366522
3612,0.070525,-0.264945,9.918754,0.197782,1.074611,-28.956299,-2.047106,0.281675,-44.015110,0.927000,-0.015641,0.008973,-0.374627
3613,0.079451,-0.270523,9.928929,-0.230687,1.173349,-27.157244,-2.048022,0.279725,-44.950996,0.923909,-0.015581,0.009087,-0.382186
3614,0.084388,-0.269746,9.926607,-0.382974,1.243071,-26.491957,-2.058570,0.281630,-45.845940,0.920895,-0.015588,0.009260,-0.389389
3615,0.082369,-0.273955,9.929473,-0.526108,1.381454,-26.255455,-2.074056,0.287288,-46.726006,0.917876,-0.015621,0.009478,-0.396447
3616,0.083381,-0.271591,9.931895,-0.704333,1.380978,-25.828213,-2.094884,0.295361,-47.595097,0.914840,-0.015686,0.009734,-0.403394
3617,0.079250,-0.275169,9.930864,-0.725378,1.349985,-25.313992,-2.118940,0.303163,-48.448502,0.911807,-0.015777,0.009999,-0.410193
3618,0.076110,-0.256666,9.922450,-0.317599,1.120629,-24.387770,-2.135970,0.307330,-49.277767,0.908813,-0.015824,0.010208,-0.416778
3619,0.067907,-0.266795,9.927748,-0.349259,1.042357,-23.208244,-2.146194,0.307737,-50.071754,0.905902,-0.015832,0.010358,-0.423064
3620,0.073616,-0.241293,9.930924,-0.568569,1.000710,-22.929012,-2.159989,0.306908,-50.841396,0.903038,-0.015874,0.010509,-0.429138
3621,0.073264,-0.255637,9.927698,-0.539126,0.980416,-22.048569,-2.176461,0.305441,-51.591667,0.900207,-0.015940,0.010664,-0.435040
3622,0.070876,-0.257189,9.928622,-0.349481,0.957076,-21.248999,-2.189374,0.304207,-52.313942,0.897445,-0.015978,0.010804,-0.440704
3623,0.070691,-0.284325,9.926393,-0.254486,0.941372,-20.875162,-2.197993,0.303017,-53.016670,0.894724,-0.015983,0.010926,-0.446199
3624,0.078598,-0.260593,9.919974,-0.193061,0.953120,-21.349739,-2.203993,0.301424,-53.721066,0.891964,-0.015969,0.011036,-0.451690
3625,0.075477,-0.280705,9.914903,-0.145358,0.969438,-21.804483,-2.208094,0.299537,-54.440952,0.889108,-0.015939,0.011138,-0.457284
3626,0.077535,-0.279404,9.912166,-0.112947,0.997968,-22.588825,-2.211359,0.297589,-55.181503,0.886134,-0.015899,0.011238,-0.463021
3627,0.078844,-0.271919,9.913859,-0.077464,1.014284,-23.118334,-2.213338,0.295444,-55.943962,0.883033,-0.015848,0.011336,-0.468907
3628,0.082411,-0.252071,9.913034,-0.115177,1.004652,-22.845211,-2.214667,0.293123,-56.710697,0.879875,-0.015792,0.011429,-0.474805
3629,0.081492,-0.267713,9.908836,-0.241384,0.967550,-21.926619,-2.218483,0.290709,-57.457550,0.876761,-0.015757,0.011529,-0.480529
3630,0.084310,-0.296760,9.908112,-0.251700,0.947232,-21.389511,-2.225476,0.288174,-58.180134,0.873713,-0.015748,0.011639,-0.486048
3631,0.085949,-0.311505,9.908658,-0.230046,0.987943,-22.198269,-2.233280,0.285629,-58.907257,0.870610,-0.015744,0.011753,-0.491582
3632,0.082334,-0.326475,9.908025,-0.307628,1.091224,-24.449026,-2.242895,0.283451,-59.685432,0.867250,-0.015746,0.011884,-0.497482
3633,0.081664,-0.343619,9.904678,-0.363900,1.212824,-27.125517,-2.255824,0.281760,-60.545788,0.863488,-0.015761,0.012046,-0.503978
3634,0.083491,-0.351920,9.910996,-0.305764,1.329845,-29.780647,-2.269650,0.280324,-61.495106,0.859282,-0.015771,0.012227,-0.511113
3635,0.082443,-0.314331,9.913661,-0.307079,1.451444,-32.234348,-2.282102,0.279267,-62.529633,0.854631,-0.015757,0.012418,-0.518848
3636,0.076068,-0.270922,9.914167,-0.283824,1.519651,-33.125507,-2.292389,0.279130,-63.619957,0.849654,-0.015715,0.012613,-0.526955
3637,0.080913,-0.260798,9.917485,-0.374910,1.464260,-32.357986,-2.302430,0.278975,-64.712334,0.844591,-0.015669,0.012808,-0.535030
3638,0.081639,-0.252754,9.917480,-0.267587,1.408859,-30.975513,-2.311486,0.278089,-65.768845,0.839621,-0.015621,0.012989,-0.542793
3639,0.078331,-0.230011,9.916764,0.245695,1.419078,-28.901794,-2.309101,0.278793,-66.767769,0.834858,-0.015486,0.013118,-0.550092
3640,0.071811,-0.211040,9.918048,0.385201,1.348440,-26.751778,-2.294500,0.281735,-67.696335,0.830375,-0.015259,0.013194,-0.556840
3641,0.076342,-0.231806,9.915046,0.361425,1.221347,-24.575827,-2.277770,0.284520,-68.552727,0.826193,-0.015026,0.013245,-0.563031
3642,0.072578,-0.223995,9.910621,0.615335,1.204116,-23.135368,-2.257388,0.287505,-69.348816,0.822264,-0.014773,0.013269,-0.568759
3643,0.074368,-0.215115,9.910753,0.821959,1.202146,-22.389206,-2.228958,0.291977,-70.108482,0.818480,-0.014459,0.013257,-0.574201
3644,0.066575,-0.208616,9.912887,0.792077,1.139147,-22.123705,-2.197387,0.296525,-70.851257,0.814745,-0.014125,0.013223,-0.579497
3645,0.071592,-0.226833,9.906874,0.971207,1.019692,-21.273781,-2.163808,0.299179,-71.575317,0.811071,-0.013790,0.013159,-0.584637
3646,0.068834,-0.230122,9.910206,1.467669,0.936852,-20.472683,-2.119634,0.299909,-72.271782,0.807508,-0.013395,0.013021,-0.589560
3647,0.070054,-0.222538,9.909608,1.829834,0.832652,-19.975245,-2.061257,0.298977,-72.946503,0.804030,-0.012913,0.012790,-0.594311
3648,0.062404,-0.186225,9.914205,1.941795,0.726937,-19.619715,-1.994247,0.295939,-73.606873,0.800599,-0.012387,0.012493,-0.598943
3649,0.070084,-0.184349,9.911689,1.609741,0.615119,-18.835403,-1.930361,0.290688,-74.248131,0.797241,-0.011900,0.012189,-0.603421
3650,0.066980,-0.184241,9.919224,0.655073,0.648259,-19.369488,-1.888331,0.284762,-74.885170,0.793878,-0.011572,0.011991,-0.607849
3651,0.070543,-0.183925,9.921336,-0.140930,0.698187,-20.286581,-1.875970,0.279730,-75.546440,0.790358,-0.011445,0.011957,-0.612422
3652,0.073519,-0.183743,9.922595,-0.570729,0.755736,-20.478859,-1.884289,0.275801,-76.226242,0.786710,-0.011452,0.012042,-0.617100
3653,0.077575,-0.204867,9.919704,-0.789988,0.784282,-20.312548,-1.903910,0.273013,-76.906517,0.783030,-0.011529,0.012197,-0.621757
3654,0.082745,-0.213041,9.918251,-0.893321,0.799081,-20.852737,-1.929494,0.270284,-77.593063,0.779288,-0.011645,0.012387,-0.626435
3655,0.083561,-0.216656,9.915020,-0.438175,0.786403,-20.840544,-1.949316,0.266906,-78.288399,0.775470,-0.011722,0.012544,-0.631150
3656,0.083216,-0.208636,9.914392,0.177219,0.787461,-20.703224,-1.950948,0.263330,-78.981232,0.771640,-0.011677,0.012600,-0.635828
3657,0.087190,-0.184123,9.914046,0.946795,0.756469,-20.834469,-1.928580,0.259335,-79.673950,0.767784,-0.011473,0.012518,-0.640484
3658,0.086994,-0.156175,9.916990,1.728667,0.740733,-20.456051,-1.879108,0.255082,-80.362518,0.763926,-0.011092,0.012280,-0.645092
3659,0.086112,-0.123690,9.921477,2.564032,0.689904,-18.823324,-1.801333,0.251625,-81.017548,0.760233,-0.010525,0.011880,-0.649456
3660,0.090681,-0.106965,9.920798,3.265166,0.620761,-16.484091,-1.696971,0.249184,-81.606361,0.756895,-0.009788,0.011323,-0.653365
3661,0.092574,-0.081314,9.922339,3.072126,0.537874,-14.971912,-1.583577,0.247033,-82.130913,0.753905,-0.009003,0.010703,-0.656834
3662,0.078013,-0.097514,9.925608,2.122178,0.462640,-13.153019,-1.489653,0.244968,-82.599907,0.751218,-0.008355,0.010185,-0.659923
3663,0.077374,-0.111147,9.925025,1.162955,0.366073,-11.736970,-1.428880,0.242403,-83.014923,0.748827,-0.007936,0.009847,-0.662645
3664,0.077301,-0.115217,9.925756,0.290629,0.325968,-11.309720,-1.399550,0.238679,-83.399178,0.746603,-0.007733,0.009679,-0.665155
3665,0.074250,-0.120739,9.926678,-0.597000,0.293499,-11.399757,-1.400107,0.234081,-83.777779,0.744401,-0.007732,0.009678,-0.667618
3666,0.071451,-0.148051,9.922956,-1.315322,0.241208,-11.756832,-1.428335,0.227967,-84.163795,0.742145,-0.007918,0.009830,-0.670120
3667,0.081070,-0.164181,9.920034,-1.504216,0.249943,-12.965375,-1.472664,0.220105,-84.575882,0.739727,-0.008215,0.010068,-0.672782
3668,0.078849,-0.161649,9.922037,-1.355882,0.333441,-14.012169,-1.517782,0.212376,-85.025589,0.737077,-0.008511,0.010316,-0.675676
3669,0.080140,-0.172245,9.917626,-1.379966,0.357434,-14.936887,-1.560715,0.205307,-85.508179,0.734221,-0.008784,0.010561,-0.678771
3670,0.087729,-0.164202,9.915456,-1.022544,0.396675,-15.817356,-1.597834,0.197966,-86.020882,0.731174,-0.009017,0.010774,-0.682047
3671,0.088938,-0.146209,9.922184,-0.259155,0.475578,-15.455725,-1.615280,0.191970,-86.542259,0.728061,-0.009115,0.010881,-0.685365
3672,0.081425,-0.148277,9.930005,0.109066,0.502616,-14.483721,-1.613137,0.188519,-87.041473,0.725068,-0.009075,0.010886,-0.688531
3673,0.093196,-0.163901,9.927002,0.053053,0.451826,-13.885568,-1.606035,0.185369,-87.514526,0.722220,-0.009004,0.010861,-0.691519
3674,0.093364,-0.168660,9.928342,0.547859,0.468158,-13.270633,-1.592054,0.182021,-87.967369,0.719483,-0.008893,0.010791,-0.694370
3675,0.085891,-0.155952,9.935527,0.868717,0.441780,-12.066688,-1.564256,0.179729,-88.389893,0.716919,-0.008694,0.010640,-0.697021
3676,0.090913,-0.147528,9.928007,0.771498,0.377260,-10.951246,-1.532259,0.177266,-88.773735,0.714583,-0.008473,0.010458,-0.699421
3677,0.100206,-0.120392,9.921846,0.750619,0.337130,-10.311896,-1.501518,0.173703,-89.128304,0.712417,-0.008272,0.010274,-0.701632
3678,0.097029,-0.100773,9.923430,0.780161,0.301568,-9.614558,-1.469680,0.169529,-89.460541,0.710382,-0.008070,0.010077,-0.703698
3679,0.093513,-0.133301,9.924889,0.145883,0.261443,-9.197989,-1.448412,0.164916,-89.774200,0.708454,-0.007939,0.009939,-0.705642
3680,0.096416,-0.151059,9.923778,-0.627363,0.265573,-11.154236,-1.452077,0.159136,-90.113495,0.706361,-0.007968,0.009950,-0.707737
3682,0.091866,-0.152189,9.924541,-0.672782,0.280393,-11.357195,-1.469976,0.152768,-90.488770,0.704038,-0.008085,0.010048,-0.710045
3683,0.092922,-0.160884,9.926388,-0.455752,0.250969,-10.145619,-1.485077,0.146636,-90.847244,0.701812,-0.008184,0.010129,-0.712243
3684,0.087723,-0.157378,9.926044,-0.141062,0.230713,-8.740252,-1.491155,0.140900,-91.162102,0.699851,-0.008229,0.010155,-0.714169
3685,0.089290,-0.129670,9.923116,-0.012471,0.208941,-7.934573,-1.488887,0.135550,-91.440086,0.698116,-0.008224,0.010128,-0.715865
3686,0.087119,-0.117163,9.920035,0.369495,0.196328,-6.216391,-1.477008,0.130807,-91.676018,0.696642,-0.008161,0.010041,-0.717303
3687,0.087596,-0.110737,9.922318,0.556174,0.160834,-5.424446,-1.455142,0.126489,-91.870110,0.695427,-0.008038,0.009892,-0.718484
3688,0.085844,-0.103800,9.920584,0.564333,0.140604,-4.724054,-1.429779,0.122012,-92.039307,0.694367,-0.007898,0.009717,-0.719512
3689,0.085860,-0.096814,9.920929,0.291731,0.114276,-4.223559,-1.408630,0.117400,-92.188484,0.693431,-0.007786,0.009567,-0.720418
3690,0.086256,-0.081914,9.920419,0.084770,0.069639,-3.144738,-1.395076,0.112319,-92.311310,0.692659,-0.007726,0.009459,-0.721162
3691,0.083701,-0.126734,9.925538,-0.442700,-0.005511,-1.866021,-1.394538,0.106309,-92.394814,0.692133,-0.007754,0.009425,-0.721667
3692,0.079699,-0.257055,9.957461,-0.498978,0.071950,-2.958592,-1.407963,0.100612,-92.475220,0.691625,-0.007864,0.009481,-0.722152
3693,0.076713,-0.219897,9.953465,-0.054916,0.129589,-3.924511,-1.417151,0.096530,-92.589989,0.690900,-0.007936,0.009522,-0.722844
3694,0.074471,-0.234809,9.957436,-0.273059,0.121626,-4.219024,-1.421973,0.092912,-92.725792,0.690042,-0.007976,0.009540,-0.723662
3695,0.073904,-0.229692,9.958498,-0.001392,0.112144,-3.994720,-1.426069,0.089057,-92.862724,0.689176,-0.008014,0.009552,-0.724486
3696,0.072736,-0.146217,9.949123,0.952525,0.136239,-3.187513,-1.407546,0.085964,-92.982491,0.688420,-0.007912,0.009425,-0.725208
3697,0.080413,-0.029041,9.924769,0.328992,0.016886,-1.035965,-1.378692,0.082406,-93.052917,0.687976,-0.007756,0.009226,-0.725634
3698,0.099204,-0.143566,9.922606,-1.657204,-0.316142,0.192396,-1.393391,0.072060,-93.066856,0.687886,-0.007908,0.009258,-0.725717
3699,0.066961,-0.046101,9.935289,0.323971,-0.052505,0.558610,-1.408607,0.061582,-93.054176,0.687964,-0.008067,0.009290,-0.725640
3700,0.053604,-0.018935,9.945708,0.358301,-0.032926,0.427375,-1.387106,0.057104,-93.037697,0.688070,-0.007968,0.009126,-0.725543
3701,0.058739,0.048270,9.939259,-0.109233,-0.028589,0.288511,-1.370591,0.053174,-93.025726,0.688146,-0.007894,0.008997,-0.725473
3702,0.057115,0.058847,9.924744,0.241259,-0.008995,0.206106,-1.354321,0.049500,-93.017456,0.688200,-0.007821,0.008871,-0.725425
3703,0.039564,0.133381,9.930036,1.562383,0.256310,0.009258,-1.308285,0.050952,-93.013954,0.688225,-0.007535,0.008588,-0.725407
3704,0.072162,0.039855,9.913734,-0.270636,0.004300,-0.012109,-1.271498,0.052185,-93.014084,0.688227,-0.007306,0.008363,-0.725411
3705,0.086950,-0.003694,9.903258,-0.280799,-0.005696,-0.041119,-1.253446,0.040939,-93.014961,0.688222,-0.007269,0.008181,-0.725418
3706,0.087221,-0.109293,9.913391,-0.112134,-0.007071,-0.057932,-1.228801,0.022354,-93.016586,0.688212,-0.007239,0.007914,-0.725431
3707,0.082607,-0.121777,9.921651,0.037316,-0.011428,-0.062538,-1.210926,0.004597,-93.018585,0.688199,-0.007244,0.007694,-0.725445
3708,0.080711,-0.123442,9.921741,0.044698,-0.020270,-0.061038,-1.192498,-0.012140,-93.020630,0.688186,-0.007239,0.007477,-0.725460
3709,0.078677,-0.124754,9.922791,0.042860,-0.033618,-0.070218,-1.174866,-0.028296,-93.022797,0.688172,-0.007235,0.007268,-0.725475
3710,0.078771,-0.115782,9.924097,0.063920,-0.034704,-0.073292,-1.156776,-0.043959,-93.025185,0.688157,-0.007225,0.007060,-0.725491
3711,0.078922,-0.116025,9.922173,0.069740,-0.029647,-0.085522,-1.137992,-0.059053,-93.027817,0.688141,-0.007208,0.006850,-0.725509
3712,0.078601,-0.108132,9.919979,0.078620,-0.016922,-0.082491,-1.118845,-0.073328,-93.030632,0.688123,-0.007183,0.006644,-0.725528
3713,0.084378,-0.099422,9.918136,0.099778,-0.008777,-0.077934,-1.098236,-0.087291,-93.033318,0.688107,-0.007148,0.006430,-0.725546
3714,0.087097,-0.103340,9.916266,0.099560,-0.006762,-0.070327,-1.077483,-0.101430,-93.035812,0.688091,-0.007112,0.006213,-0.725563
3715,0.086163,-0.107531,9.918669,0.091601,-0.015407,-0.068823,-1.058334,-0.115379,-93.038162,0.688077,-0.007086,0.006009,-0.725579
3716,0.087383,-0.106189,9.924352,0.097306,-0.022492,-0.062739,-1.040154,-0.129139,-93.040359,0.688063,-0.007064,0.005811,-0.725593
3717,0.091483,-0.110977,9.927450,0.083104,-0.037210,-0.068863,-1.023060,-0.143305,-93.042564,0.688049,-0.007050,0.005618,-0.725608
3718,0.086133,-0.115493,9.928809,0.070314,-0.045781,-0.070408,-1.007893,-0.157270,-93.044899,0.688034,-0.007048,0.005438,-0.725624
3719,0.088685,-0.115808,9.926688,0.081865,-0.049718,-0.064322,-0.993748,-0.170705,-93.047157,0.688020,-0.007048,0.005268,-0.725638
3720,0.092229,-0.110283,9.924811,0.084262,-0.041457,-0.065867,-0.979364,-0.184199,-93.049332,0.688006,-0.007047,0.005096,-0.725653
3721,0.090646,-0.107180,9.923450,0.062272,-0.043859,-0.053677,-0.964954,-0.197335,-93.051338,0.687994,-0.007043,0.004926,-0.725666
3722,0.086283,-0.101577,9.921188,0.073876,-0.041607,-0.062849,-0.950364,-0.209459,-93.053307,0.687981,-0.007032,0.004761,-0.725679
3723,0.090544,-0.097308,9.920774,0.073308,-0.033220,-0.070494,-0.935123,-0.220982,-93.055550,0.687967,-0.007014,0.004595,-0.725693
3724,0.093094,-0.100743,9.921912,0.066607,-0.032481,-0.073563,-0.920419,-0.232615,-93.057983,0.687952,-0.006999,0.004433,-0.725709
3725,0.090020,-0.103827,9.921985,0.064398,-0.033235,-0.072054,-0.906989,-0.243811,-93.060432,0.687937,-0.006989,0.004280,-0.725725
3726,0.089847,-0.105828,9.919214,0.086531,-0.033938,-0.070542,-0.894187,-0.254340,-93.062843,0.687922,-0.006979,0.004136,-0.725740
3727,0.096285,-0.110832,9.918259,0.081114,-0.028555,-0.056822,-0.882222,-0.265030,-93.064995,0.687908,-0.006975,0.003996,-0.725753
3728,0.092777,-0.112039,9.921692,0.092406,-0.032323,-0.049207,-0.871169,-0.275614,-93.066780,0.687897,-0.006975,0.003863,-0.725765
3729,0.089175,-0.102684,9.921244,0.106782,-0.032960,-0.059901,-0.859283,-0.285230,-93.068619,0.687885,-0.006965,0.003730,-0.725777
3730,0.091269,-0.099146,9.922236,0.109013,-0.019828,-0.064491,-0.846260,-0.294158,-93.070732,0.687872,-0.006943,0.003594,-0.725790
3731,0.091772,-0.101806,9.923216,0.097487,-0.014321,-0.075185,-0.833719,-0.302719,-93.073097,0.687857,-0.006922,0.003463,-0.725805
3732,0.088835,-0.099868,9.925569,0.096606,-0.022507,-0.078249,-0.821876,-0.310799,-93.075691,0.687841,-0.006902,0.003340,-0.725821
3733,0.091176,-0.105287,9.926467,0.083462,-0.027617,-0.085889,-0.811003,-0.318764,-93.078461,0.687824,-0.006887,0.003224,-0.725838
3734,0.092460,-0.111199,9.926384,0.068682,-0.022051,-0.090478,-0.802061,-0.326805,-93.081421,0.687805,-0.006884,0.003119,-0.725856
3735,0.092565,-0.109456,9.925659,0.072158,-0.037839,-0.079805,-0.794041,-0.334882,-93.084290,0.687787,-0.006887,0.003020,-0.725874
3736,0.094798,-0.116270,9.927161,0.074051,-0.038363,-0.084393,-0.786700,-0.343184,-93.087029,0.687769,-0.006896,0.002924,-0.725891
3737,0.092523,-0.119378,9.921584,0.071274,-0.035815,-0.084401,-0.780589,-0.351180,-93.089844,0.687751,-0.006910,0.002837,-0.725908
3738,0.090095,-0.117675,9.922018,0.077625,-0.033213,-0.081357,-0.774783,-0.358370,-93.092628,0.687734,-0.006920,0.002757,-0.725925
3739,0.089095,-0.108369,9.924148,0.077938,-0.038198,-0.072209,-0.768004,-0.365011,-93.095192,0.687717,-0.006922,0.002675,-0.725941
3740,0.087526,-0.115271,9.923292,0.079779,-0.038568,-0.066113,-0.761167,-0.371259,-93.097511,0.687703,-0.006920,0.002594,-0.725955
3741,0.083179,-0.111871,9.922121,0.087680,-0.043456,-0.060015,-0.754734,-0.376809,-93.099617,0.687689,-0.006917,0.002520,-0.725968
3742,0.085670,-0.106320,9.926973,0.089527,-0.049844,-0.064598,-0.747496,-0.382168,-93.101700,0.687676,-0.006907,0.002442,-0.725980
3743,0.086994,-0.109361,9.921100,0.080692,-0.056245,-0.055448,-0.740361,-0.387926,-93.103706,0.687664,-0.006901,0.002363,-0.725993
3744,0.085550,-0.116032,9.919642,0.082451,-0.055002,-0.063084,-0.734527,-0.393578,-93.105682,0.687651,-0.006901,0.002292,-0.726005
3745,0.083678,-0.110715,9.919597,0.078080,-0.053721,-0.070718,-0.729082,-0.398683,-93.107903,0.687637,-0.006901,0.002227,-0.726018
3746,0.084509,-0.099541,9.917417,0.072288,-0.053945,-0.067671,-0.722408,-0.403493,-93.110214,0.687623,-0.006891,0.002156,-0.726032
3747,0.088528,-0.104813,9.918223,0.077204,-0.049613,-0.070729,-0.715385,-0.408538,-93.112534,0.687608,-0.006881,0.002081,-0.726047
3748,0.087365,-0.101326,9.920726,0.094298,-0.043765,-0.087519,-0.708388,-0.413524,-93.115181,0.687591,-0.006871,0.002007,-0.726063
3749,0.089240,-0.097455,9.919907,0.102272,-0.042486,-0.081421,-0.700496,-0.418294,-93.118011,0.687574,-0.006854,0.001929,-0.726080
3750,0.090890,-0.102554,9.918503,0.107167,-0.045799,-0.087530,-0.692758,-0.423276,-93.120827,0.687556,-0.006839,0.001850,-0.726097
3751,0.086628,-0.108902,9.921091,0.118062,-0.050606,-0.089060,-0.686117,-0.427979,-93.123779,0.687537,-0.006829,0.001780,-0.726115
3752,0.083664,-0.099207,9.917521,0.115233,-0.043142,-0.087538,-0.679259,-0.431782,-93.126717,0.687519,-0.006812,0.001714,-0.726133
3753,0.089030,-0.095509,9.915802,0.115534,-0.050943,-0.081438,-0.671385,-0.435682,-93.129555,0.687501,-0.006789,0.001640,-0.726150
3754,0.088204,-0.097958,9.917358,0.120402,-0.048088,-0.082969,-0.663551,-0.439972,-93.132294,0.687484,-0.006769,0.001565,-0.726166
3755,0.091087,-0.094380,9.921862,0.126786,-0.042184,-0.086025,-0.655676,-0.444173,-93.135124,0.687466,-0.006748,0.001490,-0.726183
3756,0.096818,-0.093336,9.922445,0.113347,-0.040909,-0.087557,-0.647730,-0.448938,-93.138023,0.687448,-0.006731,0.001412,-0.726201
3757,0.095832,-0.102184,9.924737,0.110513,-0.044234,-0.087562,-0.641066,-0.454042,-93.140961,0.687429,-0.006723,0.001339,-0.726219
3758,0.090702,-0.106801,9.927668,0.104512,-0.038348,-0.084513,-0.636084,-0.458344,-93.143829,0.687411,-0.006721,0.001282,-0.726236
3759,0.090566,-0.107143,9.929112,0.092358,-0.047670,-0.082989,-0.632071,-0.462035,-93.146606,0.687394,-0.006720,0.001234,-0.726253
3760,0.088283,-0.106952,9.929311,0.093924,-0.055439,-0.064680,-0.628401,-0.465640,-93.149055,0.687378,-0.006721,0.001189,-0.726268
3761,0.088922,-0.102740,9.930758,0.104670,-0.055558,-0.063156,-0.624230,-0.469092,-93.151169,0.687365,-0.006718,0.001142,-0.726280
3762,0.084722,-0.102587,9.930923,0.109333,-0.061745,-0.064683,-0.619512,-0.472187,-93.153282,0.687352,-0.006709,0.001094,-0.726293
3763,0.082693,-0.098699,9.926418,0.106383,-0.061776,-0.064685,-0.614529,-0.474681,-93.155434,0.687338,-0.006695,0.001048,-0.726306
3764,0.079524,-0.097058,9.919971,0.114143,-0.061763,-0.066212,-0.609106,-0.476592,-93.157616,0.687325,-0.006674,0.001002,-0.726319
3765,0.079874,-0.098088,9.921666,0.111212,-0.057147,-0.081471,-0.603719,-0.478087,-93.160065,0.687309,-0.006651,0.000959,-0.726334
3766,0.079214,-0.107434,9.918302,0.102088,-0.066258,-0.090627,-0.599710,-0.479575,-93.162910,0.687291,-0.006637,0.000925,-0.726351
3767,0.080889,-0.104627,9.915675,0.091380,-0.066217,-0.089100,-0.596822,-0.481269,-93.165886,0.687273,-0.006630,0.000897,-0.726369
