seq,ax,ay,az,wroll,wpitch,wyaw,roll,pitch,yaw,q0,q1,q2,q3
61,-0.116691,-1.932035,9.720602,-2.314100,2.031115,-1.017442,-11.241419,0.674578,-0.134074,0.995175,-0.097934,0.005973,-0.000588
62,-0.105364,-1.989696,9.565307,12.192592,12.372225,-38.550415,-11.085596,0.782413,-0.827584,0.995280,-0.096535,0.007493,-0.006529
63,-0.309290,-1.800108,9.725891,16.055172,15.854190,-39.542717,-10.635919,0.999439,-2.194404,0.995491,-0.092496,0.010457,-0.018257
64,-0.444758,-1.612274,10.118002,23.566969,15.832690,-39.048531,-10.003501,1.284649,-3.577730,0.995675,-0.086790,0.013884,-0.030119
65,-0.724622,-1.559147,10.582036,25.844315,17.182333,-34.107731,-9.212968,1.624394,-4.871712,0.995817,-0.079631,0.017529,-0.041222
66,-0.855216,-1.418848,10.598138,24.668787,16.735483,-27.234098,-8.406487,2.026868,-5.968985,0.995869,-0.072265,0.021431,-0.050623
67,-0.791670,-1.353313,10.761696,18.174744,13.383883,-22.287722,-7.727141,2.408344,-6.857211,0.995806,-0.065992,0.024959,-0.058242
68,-0.738335,-1.432978,10.740074,12.183717,10.389935,-18.204245,-7.253423,2.713052,-7.578660,0.995635,-0.061538,0.027754,-0.064443
69,-0.711840,-1.430583,10.524127,6.464531,8.173679,-14.142473,-6.970977,2.953153,-8.152642,0.995406,-0.058793,0.029976,-0.069368
70,-0.627730,-1.312937,10.186888,1.795754,5.939272,-11.843865,-6.857684,3.134373,-8.611608,0.995143,-0.057568,0.031712,-0.073286
71,-0.680348,-1.293101,9.782445,-3.732118,5.252919,-10.158166,-6.911566,3.275476,-8.998667,0.994834,-0.057830,0.033167,-0.076555
72,-0.755642,-1.338343,9.607059,-8.556397,3.357587,-7.749707,-7.134628,3.381253,-9.313021,0.994484,-0.059598,0.034397,-0.079160
73,-0.705413,-1.176292,9.102567,-8.441292,0.646000,-7.430804,-7.433312,3.415213,-9.572961,0.994136,-0.062086,0.035039,-0.081305
74,-0.471030,-1.324735,8.917013,-14.609851,-5.171930,-6.287662,-7.830176,3.310074,-9.789985,0.993781,-0.065542,0.034533,-0.083130
75,-0.090987,-1.526239,8.903411,-14.790732,-13.627073,-3.586988,-8.326609,2.976595,-9.909184,0.993462,-0.070067,0.032075,-0.084231
76,0.231222,-1.516809,9.125296,-6.857768,-20.307117,-2.419156,-8.687979,2.402318,-9.924813,0.993309,-0.073636,0.027375,-0.084653
77,0.289270,-1.404640,9.129823,1.882609,-20.886389,-2.451434,-8.769953,1.711369,-9.901340,0.993341,-0.074879,0.021432,-0.084898
78,0.250578,-1.479230,9.424767,3.508854,-20.059814,-0.260741,-8.678699,1.029984,-9.842937,0.993475,-0.074613,0.015420,-0.084863
79,0.079044,-1.374638,9.523958,6.914402,-17.009048,2.350241,-8.503266,0.424334,-9.716295,0.993682,-0.073557,0.009958,-0.084182
80,-0.050541,-1.317621,9.611731,5.104823,-13.985391,4.740570,-8.302230,-0.069414,-9.524096,0.993930,-0.072188,0.005407,-0.082844
81,-0.048328,-1.279517,9.646266,0.003952,-12.637638,10.014421,-8.218424,-0.473134,-9.216969,0.994172,-0.071756,0.001652,-0.080434
82,0.131828,-1.289215,9.563278,-5.170606,-14.327184,17.412247,-8.310318,-0.852023,-8.699846,0.994430,-0.072809,-0.001899,-0.076183
83,0.310110,-1.470027,9.700450,-10.173738,-14.913393,24.491280,-8.579732,-1.231355,-7.937229,0.994694,-0.075360,-0.005513,-0.069814
84,0.432547,-1.554067,9.747574,-11.806553,-14.530558,30.090912,-8.969711,-1.577401,-6.962953,0.994939,-0.078877,-0.008949,-0.061609
85,0.345853,-1.565529,9.692645,-14.621907,-12.421966,35.928726,-9.444520,-1.844771,-5.804468,0.995131,-0.083022,-0.011855,-0.051777
86,0.162453,-1.623680,9.801761,-17.865211,-10.456136,41.565628,-10.030473,-2.002046,-4.466308,0.995203,-0.088019,-0.013984,-0.040337
87,-0.097008,-1.939502,9.969626,-22.585117,-8.187008,47.131020,-10.757512,-2.040839,-2.955440,0.995065,-0.094150,-0.015307,-0.027339
88,-0.120451,-2.024655,9.752857,-24.006454,-9.355561,49.904442,-11.591698,-2.013978,-1.311400,0.994649,-0.101162,-0.016328,-0.013158
89,-0.088902,-2.211907,9.632400,-26.407974,-11.203195,51.698845,-12.492307,-1.995794,0.416724,0.993913,-0.108720,-0.017708,0.001720
90,0.018012,-2.377252,9.492533,-25.184532,-12.126096,50.858994,-13.413163,-1.991422,2.170087,0.992868,-0.116419,-0.019467,0.016775
91,0.127648,-2.576341,9.312304,-26.374321,-11.625612,47.046013,-14.330684,-1.984645,3.849565,0.991554,-0.124067,-0.021362,0.031161
92,0.372529,-2.560997,9.221636,-24.788771,-12.124964,40.642750,-15.235842,-1.994087,5.364111,0.990046,-0.131594,-0.023431,0.044069
93,0.415154,-2.595179,9.344919,-23.428831,-9.912877,34.409561,-16.085114,-2.009892,6.668044,0.988479,-0.138640,-0.025472,0.055126
94,0.211519,-2.578586,9.564959,-20.452084,-4.679686,27.264997,-16.852798,-1.951466,7.723189,0.986984,-0.145050,-0.026674,0.064120
95,-0.058215,-2.613634,9.567256,-17.705761,0.708548,21.253119,-17.514208,-1.775599,8.515772,0.985672,-0.150671,-0.026574,0.071019
96,-0.292026,-2.532925,9.396172,-13.118528,5.839883,15.634147,-18.043337,-1.483785,9.068240,0.984616,-0.155293,-0.025143,0.076044
97,-0.540967,-2.631063,9.406825,-10.917109,11.612334,9.491792,-18.450499,-1.076360,9.375149,0.983844,-0.159015,-0.022341,0.079161
98,-0.800140,-2.825948,9.424027,-6.415579,17.846245,2.981053,-18.739639,-0.544568,9.415785,0.983382,-0.161870,-0.018035,0.080209
99,-0.798880,-2.868787,9.317625,-3.360044,21.387394,-3.754961,-18.901312,0.070343,9.192884,0.983247,-0.163719,-0.012555,0.079150
100,-0.866812,-3.143507,9.497546,-6.018710,25.727213,-10.639379,-19.060690,0.734973,8.710779,0.983249,-0.165569,-0.006267,0.075952
101,-0.867412,-3.411859,9.485869,-7.367069,27.252201,-16.507181,-19.296957,1.420277,7.993189,0.983237,-0.168034,0.000508,0.070778
102,-0.770953,-3.383665,9.323791,-8.599924,25.405064,-19.687639,-19.588785,2.047028,7.131824,0.983171,-0.170851,0.006990,0.064313
103,-0.607209,-3.252044,8.952777,-13.783916,21.030542,-20.561354,-19.997383,2.548003,6.237833,0.982900,-0.174517,0.012419,0.057423
104,-0.454170,-3.463772,8.895555,-20.785013,14.514552,-20.044859,-20.612988,2.868367,5.396379,0.982255,-0.179819,0.016178,0.050774
105,-0.082767,-3.351045,8.703082,-21.312685,3.996283,-20.774580,-21.351934,2.912254,4.649413,0.981374,-0.186055,0.017439,0.044551
106,0.074406,-3.437239,8.831216,-23.729242,-1.842324,-20.420406,-22.133923,2.691081,3.997148,0.980379,-0.192590,0.016339,0.038721
107,0.161916,-3.747948,8.981505,-23.449448,-6.002384,-19.194834,-22.944368,2.317011,3.436716,0.979260,-0.199356,0.013843,0.033401
108,0.235825,-3.789783,9.377228,-14.341074,-9.699517,-17.772602,-23.590719,1.833103,2.973621,0.978344,-0.204728,0.010350,0.028664
109,0.288979,-3.820977,9.567213,-2.678853,-12.450116,-15.214799,-23.883810,1.274065,2.618387,0.977990,-0.207102,0.006147,0.024652
110,0.174914,-3.789356,9.608330,5.996471,-13.360514,-9.617648,-23.831892,0.713494,2.413345,0.978189,-0.206555,0.001743,0.021890
111,0.269164,-3.877106,9.583613,9.007115,-16.791891,-3.551527,-23.581627,0.165284,2.414071,0.978676,-0.204323,-0.002893,0.020915
112,0.417610,-3.871251,9.497965,10.702801,-20.114305,1.391746,-23.253315,-0.413315,2.625386,0.979235,-0.201399,-0.008149,0.021712
113,0.348287,-3.835298,9.097399,4.293699,-20.597157,6.652829,-23.007910,-0.984488,3.015195,0.979581,-0.199138,-0.013663,0.024067
114,0.307289,-4.027235,8.582196,-9.045966,-19.442900,11.119037,-23.098356,-1.482252,3.549394,0.979282,-0.199704,-0.018867,0.027751
115,0.310420,-4.270913,8.391102,-18.060404,-16.558809,13.129965,-23.567719,-1.872617,4.158874,0.978271,-0.203478,-0.023395,0.032181
116,0.326790,-4.239364,8.448443,-17.173166,-12.732364,12.267035,-24.175270,-2.147347,4.744194,0.976982,-0.208433,-0.026973,0.036544
117,0.357271,-4.288500,8.512615,-16.689835,-7.694381,9.338018,-24.757776,-2.308014,5.213384,0.975739,-0.213216,-0.029399,0.040100
118,0.294230,-4.664191,8.821316,-14.315105,0.429179,6.282796,-25.286022,-2.307438,5.500862,0.974643,-0.217637,-0.030125,0.042411
119,0.186211,-4.432672,9.075727,-3.621254,7.810181,2.125926,-25.587446,-2.123050,5.568713,0.974054,-0.220265,-0.028800,0.043265
120,0.138562,-4.204786,9.243276,5.607262,12.103917,-0.990148,-25.549906,-1.815386,5.442719,0.974190,-0.220112,-0.025929,0.042799
121,-0.077267,-4.058708,9.219738,12.338408,17.155338,-2.306281,-25.243477,-1.398356,5.184045,0.974884,-0.217735,-0.021777,0.041464
122,-0.448945,-3.783865,9.246696,20.069798,22.428951,-1.900047,-24.696676,-0.829849,4.842055,0.976033,-0.213359,-0.016101,0.039717
123,-0.427179,-3.454525,9.149440,26.203711,20.600893,-2.065299,-23.922340,-0.203411,4.486738,0.977551,-0.207022,-0.009848,0.037927
124,-0.386761,-3.443592,9.222328,25.424852,17.380573,-2.222601,-23.062323,0.348785,4.169271,0.979141,-0.199876,-0.004291,0.036249
125,-0.345642,-3.410851,9.231915,22.197834,14.653217,-2.076212,-22.271410,0.813839,3.897581,0.980534,-0.193254,0.000397,0.034736
126,-0.393031,-3.372772,9.332911,16.843359,12.534657,-1.083936,-21.624617,1.214418,3.679380,0.981622,-0.187819,0.004382,0.033518
127,-0.261927,-3.205150,9.278023,31.942631,9.939083,0.815674,-20.814966,1.561942,3.539528,0.982911,-0.180959,0.007821,0.032833
128,-0.126960,-3.236566,9.293318,17.280167,-1.833168,-1.659403,-19.996395,1.683954,3.479714,0.984176,-0.173958,0.009194,0.032447
129,-0.011326,-3.243825,9.337971,4.857015,-9.923840,-3.678671,-19.627878,1.469489,3.463002,0.984770,-0.170739,0.007480,0.031956
130,0.156041,-3.283720,9.265546,-4.152752,-1.855742,-2.328730,-19.616779,1.250948,3.435032,0.984826,-0.170590,0.005646,0.031391
131,0.537900,-3.367708,9.158072,-6.567178,-8.971944,-4.775573,-19.796494,1.041111,3.384540,0.984598,-0.172081,0.003870,0.030652
132,0.709062,-3.670981,9.327937,-11.884251,-13.360628,-6.767516,-20.104771,0.625590,3.330637,0.984190,-0.174628,0.000301,0.029567
133,0.620962,-3.511979,9.474668,-6.164893,-13.424585,-8.416366,-20.406116,0.119167,3.247830,0.983785,-0.177095,-0.003997,0.028075
134,0.648173,-3.482515,9.351215,-1.764426,-14.680678,-8.279655,-20.538069,-0.416913,3.150746,0.983621,-0.178103,-0.008480,0.026403
135,0.485186,-3.643416,9.219937,-3.994314,-13.730987,-5.138112,-20.633505,-0.938796,3.107709,0.983478,-0.178799,-0.012913,0.025211
136,-0.028603,-3.552150,9.043265,-3.549227,-6.796027,0.190034,-20.759989,-1.287998,3.151581,0.983256,-0.179792,-0.016006,0.025023
137,-0.238606,-3.570842,8.753667,-4.728616,-2.446374,6.087172,-20.901432,-1.394789,3.304246,0.982993,-0.180956,-0.017194,0.026144
138,-0.186762,-3.911458,8.648396,-11.247931,-1.948323,10.376533,-21.174412,-1.364674,3.586796,0.982494,-0.183262,-0.017450,0.028574
139,-0.173253,-4.037521,8.675446,-13.395226,-1.349118,12.680772,-21.593800,-1.275670,3.964784,0.981721,-0.186826,-0.017408,0.031894
140,-0.017980,-4.140742,8.938910,-12.233320,-1.536967,12.469515,-22.029575,-1.164583,4.371927,0.980887,-0.190533,-0.017256,0.035498
141,0.219481,-4.264007,9.055090,-9.961164,-2.137011,9.326863,-22.406536,-1.083937,4.731442,0.980140,-0.193733,-0.017290,0.038653
142,0.326717,-4.203392,9.194026,-5.782310,-1.251431,5.032060,-22.673458,-1.044348,4.974128,0.979602,-0.195994,-0.017457,0.040756
143,0.259540,-4.061953,9.148976,-10.759083,-1.955556,1.337206,-22.951321,-1.052451,5.092718,0.979082,-0.198347,-0.017830,0.041712
144,0.017665,-3.981544,9.125602,-2.426623,11.596308,3.936580,-23.171398,-0.870078,5.110612,0.978691,-0.200296,-0.016384,0.042151
145,-0.272225,-3.543524,8.994601,20.757114,26.148630,7.385272,-22.865156,-0.217274,5.038624,0.979226,-0.197941,-0.010569,0.042708
147,-0.221393,-3.647693,8.953952,11.432433,16.871964,4.422993,-22.328890,0.520322,4.945590,0.980114,-0.193635,-0.003903,0.043206
148,-0.338115,-3.628303,9.068435,9.340563,14.876766,4.126854,-21.983604,1.064075,4.877882,0.980648,-0.190876,0.000994,0.043541
149,-0.290425,-3.591839,9.144167,8.450053,6.181699,1.396562,-21.688091,1.424099,4.832747,0.981095,-0.188469,0.004263,0.043741
150,0.002637,-3.645086,9.319397,4.137774,-13.351641,-5.661151,-21.478809,1.286844,4.810781,0.981470,-0.186629,0.003203,0.043323
151,0.247258,-3.829867,9.405846,-1.708212,-8.479083,-3.216494,-21.438353,0.894097,4.806539,0.981596,-0.186148,-0.000140,0.042650
152,0.274780,-3.601668,9.427263,0.976100,-8.584722,-4.512075,-21.450747,0.582298,4.790773,0.981620,-0.186145,-0.002790,0.042009
153,0.473946,-3.561336,9.340165,0.012529,-11.063677,-5.341639,-21.434528,0.217462,4.757564,0.981694,-0.185879,-0.005855,0.041134
154,0.372657,-3.735320,9.250284,-2.717547,-9.150424,-6.124991,-21.479628,-0.165997,4.702969,0.981666,-0.186134,-0.009068,0.040041
155,0.018818,-3.499849,9.019783,-0.569686,-3.000082,-5.662594,-21.533897,-0.426433,4.594511,0.981627,-0.186517,-0.011141,0.038683
156,-0.234461,-3.462129,8.980757,-1.896773,2.241195,-3.393744,-21.573994,-0.493623,4.458752,0.981609,-0.186850,-0.011509,0.037407
157,-0.373328,-3.572693,9.078632,-3.718097,4.536924,-0.400970,-21.666838,-0.411919,4.358354,0.981487,-0.187683,-0.010675,0.036672
158,-0.385238,-3.647859,9.063409,-4.039780,22.722836,7.802602,-21.796003,0.055766,4.304739,0.981269,-0.188946,-0.006623,0.036972
159,-0.352606,-3.552351,9.119088,4.107240,18.028234,7.604075,-21.795086,0.781706,4.291160,0.981207,-0.189167,-0.000384,0.038051
160,-0.169150,-3.693891,9.232404,0.593011,2.350013,2.591602,-21.716280,1.160129,4.323533,0.981275,-0.188609,0.002830,0.038950
161,-0.064594,-3.637073,9.216093,3.698733,-1.035165,2.569422,-21.643333,1.212283,4.395381,0.981363,-0.188003,0.003184,0.039648
162,0.044435,-3.563314,9.180061,5.387867,-1.309062,2.129286,-21.490070,1.204724,4.482620,0.981584,-0.186690,0.003030,0.040379
163,-0.169737,-3.517472,9.079667,5.319465,2.361537,4.059741,-21.309689,1.258679,4.572282,0.981836,-0.185164,0.003411,0.041229
164,-0.215432,-3.319172,9.018365,14.924088,3.167105,6.594121,-20.969194,1.408664,4.704648,0.982309,-0.182300,0.004609,0.042591
165,-0.183219,-3.245207,8.971902,5.386143,1.373174,10.554011,-20.624435,1.580837,4.945104,0.982731,-0.179414,0.005838,0.044907
166,-0.239653,-3.145146,9.040054,4.516990,-0.425516,14.220479,-20.448393,1.740748,5.326273,0.982819,-0.177983,0.006687,0.048414
167,-0.269616,-2.975631,9.014171,5.624138,-2.472738,17.443989,-20.263266,1.879105,5.838099,0.982850,-0.176480,0.007164,0.053005
168,-0.153350,-2.760778,9.234130,6.430875,-5.707740,18.033377,-20.042271,1.954828,6.440501,0.982879,-0.174655,0.006998,0.058273
169,0.036742,-2.370918,9.211002,11.573368,-8.510124,13.719728,-19.722820,1.911961,7.019119,0.983065,-0.171927,0.005924,0.063154
170,0.154275,-2.353571,9.223699,12.591942,-9.216803,7.540099,-19.306417,1.751567,7.452065,0.983475,-0.168290,0.004141,0.066616
171,0.357988,-2.388810,9.016839,11.844514,-10.213983,0.456834,-18.892744,1.488970,7.684128,0.983997,-0.164601,0.001792,0.068220
172,0.389956,-2.384832,9.015602,11.528584,-8.202180,-6.560145,-18.503326,1.165454,7.686282,0.984612,-0.161074,-0.000760,0.067781
173,0.290364,-2.471408,8.921812,11.041447,-6.043301,-7.643767,-18.129995,0.865462,7.536154,0.985269,-0.157700,-0.002912,0.066083
174,0.232439,-3.135035,9.164518,-4.647644,-21.333956,-8.590356,-18.024717,0.347698,7.420488,0.985549,-0.156512,-0.007146,0.064386
175,0.366770,-3.273127,9.272717,-11.462884,-24.221851,-8.328409,-18.292919,-0.461700,7.389884,0.985266,-0.158371,-0.014213,0.062985
176,0.158819,-3.445654,9.589160,-2.043100,-3.270495,0.339424,-18.518166,-0.938513,7.408572,0.984961,-0.160035,-0.018461,0.062448
177,0.299037,-3.916174,9.945512,-5.487473,-4.034439,4.229307,-18.645496,-1.029689,7.519604,0.984723,-0.161059,-0.019470,0.063253
178,0.561835,-4.116836,9.940145,-6.839739,-5.269597,0.314924,-18.853231,-1.152190,7.641214,0.984364,-0.162751,-0.020810,0.064087
179,0.399695,-4.155776,9.839204,-7.306550,-1.358088,-3.614410,-19.088715,-1.274467,7.625093,0.984037,-0.164705,-0.021968,0.063728
180,0.048234,-4.297346,9.810142,-9.004627,3.727623,-3.303514,-19.357901,-1.275053,7.503235,0.983714,-0.167039,-0.021945,0.062629
181,0.079311,-4.290539,9.630539,-9.193810,3.742316,-4.155352,-19.657824,-1.199202,7.344543,0.983359,-0.169686,-0.021223,0.061323
182,-0.070395,-4.169508,9.149146,-10.214871,5.055286,-5.997471,-19.977064,-1.118611,7.135592,0.982992,-0.172508,-0.020388,0.059594
183,-0.277424,-4.205760,8.853255,-12.001273,6.742877,-3.969866,-20.343210,-0.991242,6.911854,0.982549,-0.175756,-0.019144,0.057806
184,-0.284613,-4.111178,8.783495,-11.304853,6.045247,-2.653582,-20.728857,-0.830443,6.733738,0.982036,-0.179175,-0.017682,0.056468
185,-0.246164,-3.982655,8.699059,-10.173511,4.391243,-1.681932,-21.085108,-0.693774,6.604157,0.981533,-0.182316,-0.016481,0.055521
186,-0.158652,-4.033353,8.783913,-35.741299,12.990329,3.824619,-21.849644,-0.411146,6.531352,0.980315,-0.189011,-0.014313,0.055254
187,-0.167156,-3.948955,8.928886,-21.449080,10.226257,4.685390,-22.802780,0.000386,6.515599,0.978682,-0.197362,-0.011231,0.055708
188,-0.125802,-3.939022,9.175077,-6.097686,-1.164075,0.201694,-23.261885,0.171128,6.531738,0.977858,-0.201363,-0.010025,0.056100
189,0.095317,-3.950657,8.866051,-6.202665,-4.147077,-2.241945,-23.466904,0.076353,6.535410,0.977504,-0.203065,-0.010940,0.055945
190,0.143579,-4.062462,9.058665,-7.852373,-4.080974,-2.693568,-23.701160,-0.082222,6.514834,0.977113,-0.204988,-0.012370,0.055464
191,0.095004,-4.068400,9.057919,-5.612303,-1.908464,-3.472422,-23.925436,-0.215034,6.461138,0.976748,-0.206842,-0.013514,0.054742
192,0.137598,-4.083735,9.062101,-3.286963,-0.659941,-6.166625,-24.073175,-0.319446,6.331791,0.976550,-0.208067,-0.014239,0.053432
193,0.101265,-4.017664,9.107321,1.533359,1.158594,-5.739807,-24.101278,-0.392793,6.147217,0.976589,-0.208295,-0.014542,0.051722
194,-0.042923,-4.068365,9.344622,5.381693,3.187696,-2.869889,-23.984962,-0.385038,5.986634,0.976871,-0.207327,-0.014133,0.050382
195,-0.100021,-3.931197,9.175165,16.662716,10.349942,1.571483,-23.617041,-0.187274,5.875757,0.977566,-0.204290,-0.012086,0.049834
196,-0.139625,-3.803048,9.134865,19.204634,10.256095,2.566020,-23.019333,0.155518,5.803083,0.978620,-0.199345,-0.008772,0.049872
197,-0.182924,-3.770047,9.146052,16.522322,8.877531,5.493938,-22.423927,0.501588,5.803869,0.979604,-0.194405,-0.005556,0.050510
198,-0.209740,-3.518711,9.061351,23.054756,7.072929,6.550406,-21.763414,0.823537,5.889820,0.980627,-0.188890,-0.002650,0.051806
199,-0.144251,-3.356349,9.168444,25.630703,0.565287,6.157393,-20.949650,1.019252,6.040939,0.981845,-0.182005,-0.000845,0.053427
200,-0.077172,-3.343200,9.218554,18.381750,-4.864690,5.610919,-20.212523,1.021200,6.250172,0.982896,-0.175685,-0.000806,0.055229
201,0.011293,-3.301697,9.253802,13.012151,-9.579986,4.970839,-19.685326,0.855259,6.498395,0.983597,-0.171080,-0.002347,0.057117
202,0.034753,-3.142303,9.215416,12.999478,-9.292265,5.369941,-19.248449,0.616278,6.765971,0.984140,-0.167205,-0.004572,0.059076
203,0.112166,-3.398993,9.159698,-9.153780,-11.088589,4.783020,-19.182051,0.351227,7.037545,0.984127,-0.166485,-0.007210,0.061027
204,0.054117,-3.366620,9.120732,-10.711083,-5.579289,4.691208,-19.512125,0.141870,7.278997,0.983536,-0.169189,-0.009539,0.062770
205,0.007291,-3.339562,9.056194,-9.677929,-1.093632,4.616233,-19.851505,0.089473,7.462660,0.982935,-0.172056,-0.010450,0.064238
206,0.015403,-3.460585,9.035657,-7.153111,-0.149057,4.008218,-20.131712,0.119178,7.604918,0.982427,-0.174463,-0.010569,0.065477
207,0.012626,-3.617881,9.118517,-8.410254,-0.153076,2.421398,-20.390846,0.151556,7.707209,0.981968,-0.176693,-0.010597,0.066380
208,0.010818,-3.637269,9.164321,-6.873990,-0.456450,0.528930,-20.645447,0.159314,7.756809,0.981543,-0.178874,-0.010756,0.066793
209,-0.016291,-3.759951,9.169538,-7.891067,-0.246340,-0.411480,-20.891518,0.149081,7.762776,0.981155,-0.180975,-0.010996,0.066805
210,-0.013078,-3.843051,9.075557,-9.443417,-0.549813,-1.011009,-21.180466,0.128204,7.745409,0.980708,-0.183438,-0.011316,0.066595
211,-0.058846,-3.825491,9.133009,-9.285541,-0.149648,-1.307537,-21.492676,0.103293,7.713649,0.980226,-0.186098,-0.011658,0.066251
212,-0.056739,-3.755436,9.159996,-7.702492,-0.322516,-1.342800,-21.775869,0.079702,7.675498,0.979787,-0.188511,-0.011961,0.065857
213,-0.066905,-3.644902,9.234868,-4.840718,0.109194,-1.005355,-21.984968,0.061822,7.640501,0.979464,-0.190292,-0.012176,0.065507
214,-0.026841,-3.652246,9.206329,-4.111856,-0.202075,-0.548173,-22.134199,0.050668,7.617088,0.979230,-0.191563,-0.012317,0.065272
215,0.049015,-3.533354,9.259124,-1.514919,-0.395711,-2.132527,-22.228004,0.024570,7.579476,0.979097,-0.192354,-0.012531,0.064897
216,0.123830,-3.525704,9.165147,-0.920213,0.148389,-4.207539,-22.268593,-0.019236,7.483225,0.979088,-0.192687,-0.012766,0.063996
217,0.136519,-3.650122,9.095294,-3.803255,1.208551,-6.079080,-22.347206,-0.063380,7.316027,0.979053,-0.193353,-0.012905,0.062485
218,0.134008,-3.590649,9.034979,-4.736216,2.243870,-8.609647,-22.489176,-0.103574,7.067784,0.978949,-0.194572,-0.012904,0.060280
219,0.040380,-3.518329,9.065045,-4.203269,4.532983,-9.922658,-22.637539,-0.117775,6.739220,0.978867,-0.195869,-0.012542,0.057432
220,-0.056564,-3.535491,9.207929,-5.551080,5.805643,-9.622240,-22.799505,-0.084604,6.372220,0.978765,-0.197307,-0.011708,0.054337
221,-0.052202,-3.504221,9.224323,-5.825705,4.658051,-10.331707,-22.988701,-0.053359,5.998024,0.978607,-0.198974,-0.010881,0.051177
222,-0.117918,-3.297221,9.248315,-1.598522,4.893308,-10.646667,-23.112076,-0.043782,5.613957,0.978558,-0.200068,-0.010184,0.047902
223,-0.165434,-3.438541,9.257181,-4.031623,4.970755,-10.373554,-23.205658,-0.030288,5.227203,0.978549,-0.200905,-0.009430,0.044615
224,-0.063908,-3.322360,9.115233,-3.449517,3.148154,-12.246493,-23.330055,-0.054975,4.827416,0.978482,-0.201990,-0.008985,0.041148
225,-0.025232,-3.421142,8.876367,-8.346449,3.193778,-13.142422,-23.525900,-0.126205,4.397109,0.978287,-0.203671,-0.008898,0.037333
226,-0.143984,-3.490059,8.797492,-14.341795,5.165835,-10.568974,-23.902992,-0.157720,3.979284,0.977742,-0.206912,-0.008535,0.033681
227,-0.162180,-3.740715,8.936927,-22.944645,5.115243,-6.865958,-24.523685,-0.120847,3.644095,0.976700,-0.212239,-0.007783,0.030846
228,-0.108933,-4.234150,8.876986,-33.143997,3.069680,-2.192927,-25.458183,-0.061355,3.449679,0.974984,-0.220226,-0.007154,0.029242
229,-0.201189,-4.417499,9.109273,-30.683441,2.928571,3.554379,-26.521898,0.037948,3.426244,0.972898,-0.229293,-0.006535,0.029174
230,-0.285313,-4.437881,9.272882,-18.855862,1.233173,10.422697,-27.347157,0.204896,3.602706,0.971163,-0.236327,-0.005694,0.030966
231,-0.318506,-4.603288,9.293271,-5.984488,-0.685408,16.271404,-27.759079,0.418217,3.993160,0.970176,-0.239858,-0.004816,0.034697
232,-0.131223,-4.760735,8.894197,2.360178,-5.159746,18.459696,-27.814583,0.601331,4.550918,0.969857,-0.240361,-0.004453,0.039800
233,-0.154319,-4.415522,8.928159,15.293418,-6.591846,21.154022,-27.512657,0.734031,5.226729,0.970216,-0.237825,-0.004627,0.045809
234,-0.060323,-4.491952,8.756519,15.445291,-8.523238,23.560879,-26.989634,0.850739,6.004759,0.970939,-0.233409,-0.005013,0.052660
235,0.147751,-4.494298,8.632809,11.187473,-9.862712,21.305977,-26.533430,0.913938,6.810482,0.971454,-0.229533,-0.005881,0.059638
236,0.190394,-4.541152,8.639597,3.506386,-8.072160,20.042418,-26.276447,0.952879,7.560762,0.971547,-0.227332,-0.006906,0.066090
237,0.002310,-4.318548,9.021634,5.097128,-3.545734,18.460001,-26.121365,1.062827,8.222064,0.971433,-0.226039,-0.007188,0.071923
238,-0.033213,-4.187316,9.012008,9.875493,-1.550649,14.717785,-25.860958,1.228688,8.756389,0.971559,-0.223901,-0.006662,0.076792
239,0.039039,-4.323539,8.989174,12.670523,-0.334294,8.471690,-25.476936,1.367523,9.118479,0.972022,-0.220713,-0.005923,0.080151
240,-0.055560,-4.210020,9.089621,17.950922,-5.115347,-1.605762,-24.963213,1.333870,9.260810,0.972910,-0.216324,-0.006118,0.081322
241,-0.096254,-3.929651,9.118835,19.657597,3.662981,-5.773003,-24.338825,1.260259,9.159413,0.974164,-0.210976,-0.006115,0.080358
242,-0.093540,-3.890871,8.895142,14.233198,4.168776,-12.330284,-23.781309,1.256113,8.830326,0.975406,-0.206247,-0.005167,0.077578
243,-0.266291,-4.058564,8.970845,9.961245,8.504666,-14.676503,-23.388983,1.269213,8.333283,0.976431,-0.202933,-0.003909,0.073384
244,-0.316574,-3.844144,9.049206,14.144487,8.053267,-18.691742,-23.001259,1.303561,7.713178,0.977488,-0.199664,-0.002287,0.068168
245,-0.083320,-3.821852,8.985663,19.914801,0.896761,-24.515963,-22.449072,1.163045,6.991275,0.978876,-0.194889,-0.001931,0.061775
246,-0.407970,-3.635882,9.125027,29.139635,4.034128,-20.413986,-21.644527,0.958341,6.266603,0.980626,-0.187925,-0.002061,0.055253
247,-0.280907,-3.524469,9.115624,37.670059,2.035547,-15.753993,-20.540724,0.836452,5.667403,0.982684,-0.178426,-0.001640,0.049944
248,0.122878,-3.464459,9.239577,34.598839,-5.296754,-16.197805,-19.342415,0.604549,5.185339,0.984725,-0.168055,-0.002404,0.045477
250,-0.155710,-3.478811,9.382051,28.138390,-0.394743,-9.723282,-18.299875,0.375485,4.807741,0.986380,-0.159013,-0.003438,0.041930
251,-0.465296,-3.337967,9.433104,25.652868,7.305914,0.002163,-17.404884,0.435626,4.617827,0.987655,-0.151330,-0.002341,0.040398
252,-0.324897,-3.357108,9.356646,16.460562,3.866003,2.989478,-16.703283,0.628673,4.610214,0.988548,-0.145347,-0.000418,0.040590
253,-0.307439,-3.214751,9.412785,15.400864,2.008282,5.609918,-16.170998,0.763320,4.719977,0.989159,-0.140800,0.000798,0.041704
254,-0.449783,-3.071382,9.400348,16.071896,3.490034,8.471169,-15.643562,0.915894,4.920606,0.989705,-0.136302,0.002069,0.043613
255,-0.218291,-2.766578,9.434084,16.570726,-1.777942,9.235665,-15.094844,1.021701,5.197558,0.990224,-0.131607,0.002874,0.046117
256,-0.127932,-2.512979,9.488032,18.593464,-4.708457,10.425653,-14.502825,1.000954,5.542229,0.990751,-0.126490,0.002553,0.049059
257,0.188527,-2.542282,9.475526,15.575696,-8.494299,5.344003,-13.928423,0.852223,5.851177,0.991255,-0.121465,0.001184,0.051562
258,0.040660,-2.750224,9.535507,9.091344,-4.271137,1.170677,-13.515396,0.671200,6.007368,0.991635,-0.117812,-0.000357,0.052724
259,-0.077849,-2.531273,9.328956,10.431251,-1.254425,-0.128261,-13.189637,0.585532,6.045535,0.991957,-0.114954,-0.000987,0.052969
260,-0.227643,-2.439475,9.284330,-2.109781,7.335985,0.139008,-13.051206,0.684236,6.022627,0.992096,-0.113800,-0.000046,0.052870
261,-0.459554,-2.556304,9.355950,-13.601084,19.597155,2.453120,-13.314012,1.131104,5.962139,0.991806,-0.116273,0.003762,0.052796
262,-0.625797,-2.584728,9.340226,-0.886529,5.234985,5.042654,-13.554912,1.562619,5.987365,0.991481,-0.118548,0.007359,0.053463
263,-0.450583,-2.422387,9.376286,-8.946934,7.501022,10.548659,-13.713006,1.830028,6.190114,0.991171,-0.120050,0.009387,0.055503
264,-0.434685,-2.357095,9.484512,-4.071670,-1.868711,10.681476,-13.919271,2.005740,6.511354,0.990757,-0.121943,0.010465,0.058482
265,-0.347941,-2.526437,9.547094,-9.126441,-4.093614,11.130416,-14.126317,1.997265,6.888276,0.990340,-0.123762,0.009879,0.061750
266,-0.175034,-2.682754,9.470462,-12.247159,-6.409509,11.270590,-14.468746,1.919960,7.293491,0.989758,-0.126713,0.008578,0.065195
267,0.040101,-2.605073,9.557331,-9.532401,-7.530988,7.917065,-14.819916,1.776092,7.661777,0.989181,-0.129691,0.006719,0.068240
268,-0.030816,-2.516746,9.567407,-8.263135,-5.139811,5.400280,-15.108591,1.629394,7.930768,0.988718,-0.132112,0.004971,0.070411
269,-0.028058,-2.588241,9.605100,-9.646414,-4.220139,4.153357,-15.401726,1.520830,8.125524,0.988278,-0.134584,0.003626,0.071978
270,0.031597,-2.462258,9.515512,-7.439953,-3.787113,1.995901,-15.683048,1.419770,8.260089,0.987879,-0.136953,0.002417,0.073027
271,0.061973,-2.401827,9.553760,-7.556137,-3.061476,0.260364,-15.931393,1.320212,8.327364,0.987556,-0.139034,0.001318,0.073493
272,-0.125178,-2.467378,9.578955,-10.610934,0.563921,-0.520219,-16.234018,1.279050,8.334741,0.987188,-0.141616,0.000761,0.073509
273,-0.184609,-2.504120,9.579890,-10.416190,2.120004,-1.173192,-16.585369,1.314027,8.295100,0.986768,-0.144663,0.000886,0.073214
274,-0.236314,-2.438791,9.593742,-8.822309,3.254809,-1.891318,-16.907764,1.385118,8.220392,0.986391,-0.147481,0.001389,0.072663
275,-0.230326,-2.515079,9.585594,-9.318304,2.717097,-1.658065,-17.212234,1.462947,8.134642,0.986034,-0.150147,0.001978,0.072030
276,-0.350200,-2.596993,9.616748,-9.620951,3.753013,-0.847562,-17.529789,1.553384,8.062556,0.985641,-0.152931,0.002652,0.071534
277,-0.245117,-2.565445,9.596890,-8.073098,1.308292,-0.613212,-17.826048,1.626349,8.013751,0.985257,-0.155520,0.003161,0.071219
278,-0.234730,-2.634004,9.583502,-8.614125,0.212241,0.667844,-18.104364,1.650722,8.006759,0.984875,-0.157927,0.003207,0.071199
279,-0.159540,-2.594160,9.532836,-7.306944,-1.749058,1.539243,-18.368484,1.637874,8.049715,0.984485,-0.160190,0.002873,0.071558
280,-0.111763,-2.860758,9.540230,-10.169470,-3.033655,2.468963,-18.657265,1.583466,8.138371,0.984034,-0.162640,0.002099,0.072250
281,-0.044279,-2.805842,9.536506,-7.196361,-3.865158,2.271049,-18.943689,1.500072,8.250244,0.983572,-0.165051,0.001042,0.073097
282,-0.080442,-2.798456,9.526313,-5.802527,-3.263991,2.812712,-19.157314,1.415391,8.369117,0.983204,-0.166834,0.000005,0.073996
283,-0.051294,-2.859983,9.518670,-5.252565,-3.330281,2.654926,-19.338615,1.341654,8.491420,0.982875,-0.168343,-0.000924,0.074938
284,-0.048282,-3.029793,9.492128,-6.136315,-2.934634,2.055166,-19.525951,1.269301,8.600210,0.982542,-0.169903,-0.001829,0.075763
285,-0.127780,-2.816532,9.432709,-1.386955,-1.357921,2.321337,-19.649321,1.226369,8.692944,0.982306,-0.170932,-0.002417,0.076493
286,-0.110680,-2.921490,9.404705,-2.410200,-1.490660,2.176538,-19.710760,1.206882,8.779538,0.982160,-0.171445,-0.002754,0.077205
287,-0.056424,-3.010135,9.394810,-2.530644,-1.934376,0.936108,-19.791698,1.170695,8.847670,0.982000,-0.172113,-0.003221,0.077733
288,-0.082517,-3.014523,9.370849,-1.829991,-1.436390,0.406922,-19.863575,1.125445,8.887785,0.981874,-0.172698,-0.003718,0.078007
289,-0.139685,-3.065430,9.421144,-2.083864,-0.696596,0.414627,-19.928326,1.096678,8.912762,0.981765,-0.173234,-0.004047,0.078176
290,-0.070659,-3.110805,9.451302,-2.446485,-1.640796,-1.164724,-20.003798,1.055796,8.914319,0.981658,-0.173853,-0.004451,0.078125
291,-0.117206,-3.128951,9.463513,-1.793978,-0.867144,-1.511698,-20.074970,1.001248,8.886723,0.981579,-0.174429,-0.004925,0.077803
292,-0.175319,-3.172720,9.454488,-1.659513,-0.206759,-1.132618,-20.133137,0.969296,8.851485,0.981520,-0.174908,-0.005184,0.077450
293,-0.197598,-3.080105,9.411330,0.670855,-0.268121,-0.790984,-20.150076,0.950826,8.824111,0.981516,-0.175042,-0.005312,0.077187
294,-0.072335,-3.178575,9.433956,0.216724,-2.111208,-1.315084,-20.135595,0.901513,8.804807,0.981561,-0.174887,-0.005695,0.076948
295,-0.091745,-3.069483,9.460102,18.860289,-4.514996,-2.372907,-19.817934,0.776721,8.784769,0.982077,-0.172085,-0.006522,0.076605
296,-0.078905,-3.002728,9.400531,20.917553,-4.329098,-1.060609,-19.155045,0.618702,8.779887,0.983085,-0.166299,-0.007427,0.076372
297,-0.092576,-2.981949,9.379990,18.455482,-2.553730,0.717514,-18.498528,0.508344,8.811440,0.984017,-0.160590,-0.007981,0.076530
298,-0.019334,-3.172258,9.460570,5.360407,-5.096968,-0.473870,-18.101255,0.388619,8.855247,0.984556,-0.157095,-0.008805,0.076770
299,-0.084503,-2.963665,9.443959,15.185743,-0.389236,0.862151,-17.758625,0.303647,8.889747,0.985009,-0.154092,-0.009352,0.076979
300,-0.113659,-2.931961,9.362741,14.718852,2.591311,2.572295,-17.259960,0.355841,8.933110,0.985634,-0.149835,-0.008625,0.077460
301,-0.032297,-3.059797,9.451035,1.660924,-2.189955,-0.073130,-16.986721,0.374526,8.970824,0.985961,-0.147494,-0.008328,0.077828
302,-0.105609,-2.997915,9.649715,6.887113,0.075738,-0.391146,-16.844252,0.338576,8.973763,0.986146,-0.146244,-0.008544,0.077818
303,-0.153852,-2.867215,9.530563,10.762499,3.918286,2.596885,-16.549990,0.412887,8.989815,0.986498,-0.143760,-0.007725,0.078071
304,-0.182856,-2.850141,9.538553,9.087802,4.024358,3.989785,-16.218575,0.570886,9.057719,0.986842,-0.141009,-0.006222,0.078871
305,-0.105014,-2.959417,9.560103,1.317972,-2.256107,2.664178,-16.044128,0.630048,9.156038,0.986979,-0.139542,-0.005712,0.079799
306,-0.161544,-2.961613,9.550165,11.654696,-1.759875,3.479518,-15.826716,0.593862,9.272928,0.987165,-0.137638,-0.006012,0.080774
307,-0.034142,-2.917118,9.404758,12.176713,-3.116781,3.167915,-15.428244,0.545357,9.401484,0.987553,-0.134164,-0.006300,0.081846
308,0.036278,-3.095823,9.623357,9.668123,-3.188884,1.332834,-15.063304,0.463684,9.501534,0.987915,-0.130955,-0.006858,0.082635
309,0.106568,-3.085776,9.738122,10.493965,-3.359563,-1.686540,-14.727122,0.356668,9.523918,0.988292,-0.127978,-0.007564,0.082729
310,-0.001271,-3.213069,10.007833,6.391953,-1.952715,-2.503281,-14.445959,0.253327,9.478654,0.988647,-0.125482,-0.008203,0.082244
311,0.008225,-2.522635,10.446471,11.421966,-1.069644,-4.475753,-14.149451,0.175753,9.378386,0.989048,-0.122876,-0.008552,0.081316
312,-0.291459,-2.476911,11.868157,-2.211012,4.454064,-0.370043,-13.996262,0.210820,9.286295,0.989273,-0.121585,-0.008043,0.080570
313,-0.935399,-4.072597,12.746128,-33.779949,16.603828,12.684994,-14.595359,0.601529,9.398420,0.988497,-0.127022,-0.005217,0.081925
314,-0.653574,-4.835466,14.315695,-39.969452,9.233676,10.085402,-15.820770,1.116402,9.651430,0.986814,-0.137941,-0.001962,0.084657
315,-0.488518,-5.919493,14.408462,-31.468538,6.807292,10.870244,-17.005508,1.471629,9.910008,0.985067,-0.148389,-0.000116,0.087309
316,-0.409240,-6.671234,13.642727,-9.146868,6.288860,6.114876,-17.676641,1.764033,10.115271,0.983954,-0.154371,0.001608,0.089457
317,-0.292112,-6.940639,12.001346,13.520983,5.694318,1.095267,-17.601891,1.990655,10.169680,0.983953,-0.153898,0.003540,0.090221
318,0.081606,-5.227456,11.612860,58.967094,1.643968,-9.951587,-16.399981,2.064334,9.993045,0.985631,-0.143617,0.005342,0.088750
319,-0.276483,-5.089493,10.281117,64.871231,10.495261,-7.161273,-14.348492,2.183501,9.665128,0.988264,-0.126013,0.008318,0.085941
320,-0.439873,-4.163973,9.964617,75.903465,11.023589,-7.353229,-12.016352,2.477628,9.346354,0.990785,-0.106050,0.012904,0.083261
321,-0.556392,-2.448856,9.459743,96.720734,8.650455,-5.245820,-9.153018,2.761397,9.079782,0.993244,-0.081418,0.017629,0.080794
322,-0.509889,-1.591347,9.365801,91.841942,4.702802,-5.030842,-6.022647,2.960078,8.881434,0.995184,-0.054355,0.021649,0.078648
323,-0.454290,-0.580560,8.384768,82.860794,-2.684059,-5.124016,-3.122005,2.980124,8.710796,0.996351,-0.029127,0.023851,0.076595
324,-0.445755,0.658183,7.495378,80.430931,-3.812014,-4.968307,-0.410508,2.866714,8.547464,0.996894,-0.005435,0.024678,0.074587
325,-0.361331,2.359983,6.865003,79.581055,-1.696047,-3.698301,2.247593,2.777286,8.401734,0.996863,0.017779,0.025601,0.072744
326,-0.811883,1.927043,7.219707,19.891035,10.434280,0.625772,3.902349,2.925667,8.358000,0.996502,0.032087,0.027926,0.071940
327,-1.045146,2.510030,7.178566,7.782985,14.033487,2.151198,4.367450,3.329474,8.431604,0.996231,0.035851,0.031751,0.072325
328,-0.304326,1.937278,6.756522,-16.046417,-1.058005,4.536082,4.237300,3.536885,8.558722,0.996141,0.034547,0.033510,0.073395
329,-0.241356,1.982066,6.376050,-14.244674,-2.110280,7.337220,3.744125,3.470642,8.752303,0.996171,0.030248,0.032670,0.075242
330,-0.603577,0.705480,5.336255,-34.735462,7.814451,3.717778,2.939438,3.554680,8.942075,0.996211,0.023141,0.032909,0.077099
331,0.105584,-0.199283,4.566279,-45.451839,-12.748488,-0.853926,1.606023,3.471094,8.987052,0.996404,0.011593,0.031288,0.077880
332,0.154736,-0.929969,3.679688,-54.668633,-15.065741,-5.466340,-0.068874,3.009590,8.873415,0.996658,-0.002630,0.026135,0.077347
333,-0.198619,-0.767336,3.061348,-38.660458,1.388634,-9.334996,-1.636391,2.778547,8.629918,0.996745,-0.016059,0.023100,0.075555
334,-0.323077,-1.299234,2.489028,-54.047447,7.146715,-11.094781,-3.198714,2.907080,8.284934,0.996627,-0.029660,0.023275,0.072891
335,-0.009926,-1.096099,2.742712,-30.387079,-11.299629,-9.517537,-4.622626,2.814467,7.947071,0.996415,-0.041920,0.021686,0.070206
336,-0.087550,-0.712337,2.796563,-6.250643,-9.875291,-7.230350,-5.244162,2.439157,7.697055,0.996409,-0.047062,0.018144,0.068005
337,0.051394,-0.932590,3.230755,-9.328341,-16.380222,-1.616957,-5.507888,1.990020,7.590584,0.996449,-0.049082,0.014127,0.066938
338,-0.005440,-1.159752,4.168485,-2.764234,-15.563051,-1.440717,-5.709137,1.455073,7.591886,0.996446,-0.050527,0.009357,0.066747
339,-0.097179,-0.690001,5.797809,13.719420,-10.767716,0.718838,-5.525886,1.017166,7.622634,0.996561,-0.048685,0.005642,0.066818
340,0.381312,-0.168268,8.408246,18.589287,-14.936793,-3.597358,-4.987480,0.586165,7.613516,0.996821,-0.043753,0.002210,0.066550
341,-0.032599,0.350344,10.624844,11.443684,-5.428458,-6.290073,-4.488043,0.234160,7.477350,0.997099,-0.039205,-0.000516,0.065236
342,-0.412964,0.585244,12.684373,1.529265,3.085322,-9.905310,-4.272963,0.174412,7.211047,0.997322,-0.037302,-0.000826,0.062900
343,-0.233435,0.592149,14.643247,-14.968157,2.741049,-13.016376,-4.498532,0.241760,6.822628,0.997452,-0.039303,-0.000231,0.059540
344,-0.494078,0.254520,15.907111,-23.208374,6.347775,-14.010727,-5.137163,0.354453,6.360969,0.997444,-0.044917,0.000599,0.055564
345,-1.038930,0.037342,15.862666,-22.228012,7.753141,-7.951203,-5.897566,0.552959,5.974150,0.997295,-0.051624,0.002132,0.052289
347,-0.921695,-1.423029,15.957852,-26.909763,5.673389,0.155797,-6.718384,0.760795,5.820557,0.996953,-0.058855,0.003644,0.051072
348,-0.161475,-1.726397,16.017179,-23.950851,-3.581538,-3.525100,-7.566933,0.787855,5.760370,0.996514,-0.066246,0.003536,0.050590
349,-0.718963,-1.936633,15.849817,-24.492083,2.572148,-0.293274,-8.375053,0.762531,5.699089,0.996051,-0.073259,0.002998,0.050065
350,-0.099236,-2.735904,15.622885,-36.998951,-4.109758,-0.508487,-9.399981,0.735012,5.690232,0.995362,-0.082153,0.002318,0.049993
351,0.039041,-4.043590,15.235726,-54.030807,-4.994239,-4.250193,-10.917540,0.571616,5.638462,0.994224,-0.095257,0.000281,0.049435
352,0.193005,-3.855731,14.591225,-43.274529,-3.583267,-11.172952,-12.540819,0.379758,5.415908,0.992885,-0.109254,-0.001870,0.047324
353,-0.206334,-4.564129,13.335178,-41.903095,1.642526,-8.702062,-13.962061,0.273374,5.100776,0.991588,-0.121525,-0.003043,0.044458
354,0.000199,-4.977230,12.718940,-30.489719,2.784702,-5.655432,-15.169746,0.284528,4.851231,0.990345,-0.131980,-0.003127,0.042279
355,-0.208968,-4.597208,12.019924,1.131837,5.873705,-4.349139,-15.660175,0.379294,4.652316,0.989836,-0.136256,-0.002253,0.040660
356,-0.450743,-3.783705,11.371483,40.928730,11.549788,0.626592,-14.960443,0.643433,4.516134,0.990676,-0.130300,0.000434,0.039795
357,-0.382318,-3.167500,10.804444,56.134766,9.517260,4.779041,-13.343010,1.006418,4.518082,0.992378,-0.116426,0.004137,0.040169
358,0.037741,-2.046206,10.477346,73.650940,4.623383,3.209452,-11.179049,1.265408,4.598657,0.994340,-0.097757,0.007074,0.041002
359,-0.244689,-0.528293,9.326319,93.938339,6.948371,3.707289,-8.385298,1.474698,4.680597,0.996371,-0.073567,0.009838,0.041662
360,-0.398849,0.409464,8.733043,85.807823,10.783953,5.656851,-5.388272,1.786463,4.799873,0.997867,-0.047609,0.013590,0.042555
361,-0.213448,1.168390,8.032469,69.123787,6.490618,4.876006,-2.802677,2.086380,4.953335,0.998582,-0.025215,0.017127,0.043637
362,-0.563543,1.971496,7.459449,53.194580,14.093052,8.673778,-0.756551,2.436215,5.168925,0.998729,-0.007552,0.020939,0.045221
363,-0.806678,2.651863,7.272095,31.156660,15.301810,11.774368,0.664781,2.927071,5.508080,0.998510,0.004566,0.025789,0.047884
364,-0.781682,1.943083,7.724640,-13.093984,12.081864,12.511643,0.988276,3.378404,5.919065,0.998208,0.007087,0.029883,0.051352
365,-0.018459,1.536108,7.230675,-25.523666,-5.130309,13.849409,0.370905,3.490371,6.359149,0.997998,0.001541,0.030587,0.055341
366,-0.116823,0.957447,6.622788,-36.843826,-3.020015,13.928006,-0.641394,3.355964,6.822297,0.997775,-0.007327,0.028897,0.059638
367,-0.363808,0.358837,5.862707,-38.122173,1.460286,12.245439,-1.865046,3.339894,7.259927,0.997408,-0.018080,0.028050,0.063750
368,0.119464,-0.971522,4.926826,-52.892582,-12.712231,9.589255,-3.360411,3.169383,7.632936,0.996918,-0.031085,0.025630,0.067316
369,0.350600,-1.479636,3.559201,-54.023808,-21.788279,4.559678,-5.128387,2.614139,7.909518,0.996290,-0.046192,0.019649,0.069900
370,-0.323677,-1.693920,2.536211,-59.233322,8.986480,-0.768195,-7.012120,2.409296,7.993762,0.995391,-0.062455,0.016672,0.070839
371,-0.207276,-1.558829,1.853915,-62.252308,3.272109,-3.982616,-9.040691,2.601809,7.890921,0.994147,-0.080163,0.017157,0.070360
372,0.276475,-1.649049,1.454159,-70.204437,-27.688625,-8.081253,-11.252723,2.166287,7.763673,0.992596,-0.099072,0.012133,0.069210
373,-0.378288,-1.499504,1.884656,-43.707111,11.069733,0.169093,-13.152754,1.867407,7.688573,0.990928,-0.115340,0.008474,0.068457
374,-0.395516,-1.614409,2.586658,-24.578756,4.787701,4.393247,-14.290246,2.142376,7.704654,0.989663,-0.125326,0.010152,0.068972
375,0.283054,-1.344780,4.536983,7.250591,-23.735981,-3.096350,-14.575668,1.841473,7.804319,0.989355,-0.127628,0.007271,0.069528
376,-0.414386,-0.903479,6.944072,21.652222,-5.489625,3.776368,-14.090522,1.372134,7.934615,0.989899,-0.123173,0.003370,0.070125
377,-0.485481,-0.625591,10.095802,18.886589,-0.648404,-3.090698,-13.413852,1.275441,7.968871,0.990604,-0.117269,0.002912,0.070302
378,-0.484053,-1.396323,12.518880,-13.617247,0.467851,-4.099635,-13.328635,1.244427,7.852818,0.990767,-0.116512,0.002815,0.069266
379,-0.568508,-0.998397,14.700284,-6.270420,1.100192,-5.736840,-13.663679,1.231297,7.687335,0.990523,-0.119396,0.002671,0.067830
380,-0.712038,-0.607541,15.308439,6.090161,1.673120,-2.030955,-13.669641,1.245752,7.550582,0.990595,-0.119453,0.002935,0.066663
381,-0.342983,-1.263672,15.877362,-0.477791,-1.507481,-4.762319,-13.578505,1.221887,7.439885,0.990758,-0.118649,0.002896,0.065679
382,0.041721,-2.344446,15.494748,-5.917022,-7.122765,-2.636770,-13.686762,1.052971,7.353962,0.990720,-0.119491,0.001463,0.064764
383,-0.007578,-1.682962,14.951015,21.305677,-7.258729,-2.747393,-13.430716,0.798864,7.322946,0.991036,-0.117138,-0.000558,0.064235
384,0.362275,-2.145209,14.721896,4.169950,-7.079705,-5.496753,-13.007058,0.534870,7.243328,0.991537,-0.113330,-0.002526,0.063288
385,0.135484,-2.965667,15.102651,-22.546728,-1.828411,-6.143312,-13.314575,0.345950,7.088567,0.991332,-0.115893,-0.004174,0.061752
386,-0.037175,-3.887296,15.716832,-39.614990,5.172691,-5.517800,-14.351873,0.353349,6.887014,0.990348,-0.124874,-0.004449,0.059978
387,-0.233457,-4.708931,16.213947,-42.844185,7.879410,-3.597618,-15.727676,0.523829,6.684389,0.988864,-0.136849,-0.003456,0.058375
388,-0.255912,-5.431269,15.893603,-29.528290,10.255228,-4.262293,-16.936142,0.776845,6.473983,0.987441,-0.147399,-0.001620,0.056846
389,-0.470936,-5.256564,14.751390,-2.855037,12.099324,-3.507703,-17.479624,1.094730,6.240472,0.986799,-0.152229,0.001158,0.055246
390,-0.928144,-5.455819,13.330910,11.774604,14.810238,3.159112,-17.334173,1.521386,6.101420,0.986986,-0.151165,0.005087,0.054605
391,-0.610043,-4.850554,11.411088,31.650856,9.858190,5.858603,-16.609919,1.958679,6.125571,0.987824,-0.145118,0.009172,0.055327
392,-0.528516,-3.609791,10.426614,44.857178,6.231215,7.985514,-15.329519,2.280092,6.274553,0.989239,-0.134230,0.012391,0.056878
393,-0.547093,-3.601175,10.613999,28.116177,5.925601,14.376132,-14.100479,2.570802,6.584367,0.990394,-0.123785,0.015179,0.059728
394,-0.501171,-3.490507,10.484914,27.381891,3.103265,17.353546,-13.153112,2.842540,7.062879,0.991053,-0.115796,0.017541,0.064007
395,-0.636086,-2.505825,10.044554,52.753162,2.656091,19.656719,-11.787779,3.069696,7.645261,0.991961,-0.104197,0.019741,0.069036
396,-0.297948,-1.419794,10.046349,71.995201,-5.901248,18.236826,-9.675018,3.133271,8.276959,0.993302,-0.086045,0.021088,0.074183
397,-0.188339,-0.958610,9.246524,76.600159,-5.844552,17.618156,-7.166528,3.026273,8.898687,0.994562,-0.064333,0.021428,0.079044
398,-0.315079,0.751746,7.571037,100.015205,-1.837302,12.855618,-4.197641,2.948886,9.417029,0.995549,-0.038598,0.022622,0.082944
399,-0.736049,1.638017,7.001719,82.353943,8.861980,11.528211,-1.139462,3.082738,9.816732,0.995900,-0.012205,0.025948,0.085794
400,-0.229665,1.688531,7.033805,37.008427,1.139237,8.497443,0.867194,3.250320,10.147837,0.995671,0.005027,0.028918,0.088189
401,-0.403706,1.789188,6.974017,7.578289,4.536715,5.860798,1.623900,3.340345,10.390073,0.995407,0.011468,0.030306,0.090087
402,-0.778003,1.908079,6.636049,-7.678425,10.928446,3.247522,1.631920,3.594057,10.549053,0.995216,0.011291,0.032531,0.091429
403,-0.153223,1.454004,6.700622,-28.116816,-3.420531,4.711343,1.044099,3.716229,10.684577,0.995119,0.006048,0.033130,0.092759
404,0.050232,0.889208,5.713655,-32.699005,-10.713433,5.203378,0.040603,3.479265,10.847087,0.995065,-0.002517,0.030255,0.094463
405,-0.183350,-0.023870,5.186155,-39.921879,-6.132716,0.656176,-1.163868,3.199513,10.947189,0.994974,-0.012769,0.026820,0.095627
406,-0.102297,-0.718892,4.066285,-40.109402,-7.298249,-0.995443,-2.497488,2.976099,10.949225,0.994813,-0.024163,0.023765,0.095913
407,0.202897,-0.987695,2.903456,-42.163120,-19.518970,-4.905978,-3.872046,2.524603,10.875656,0.994619,-0.035710,0.018717,0.095429
408,-0.301039,-1.509437,2.053218,-63.084328,5.687422,-6.256375,-5.632892,2.279810,10.708067,0.994146,-0.050766,0.015199,0.094152
409,-0.062047,-1.364321,2.148918,-42.405224,-7.642231,-6.611949,-7.398995,2.223391,10.502136,0.993427,-0.066013,0.013376,0.092559
410,0.047081,-1.066020,2.084769,-21.907572,-14.601146,-9.431806,-8.478056,1.819510,10.286626,0.993019,-0.075030,0.009145,0.090560
411,-0.224541,-1.606078,2.848942,-26.788080,-0.675771,-6.474240,-9.296060,1.527466,10.062793,0.992688,-0.081880,0.006128,0.088481
412,-0.174383,-1.007600,4.880247,14.011897,-7.855815,-8.921263,-9.514931,1.345138,9.833769,0.992736,-0.083630,0.004547,0.086379
413,-0.685860,-0.438531,7.258599,23.270153,2.201781,-7.047479,-8.898999,1.210239,9.585417,0.993376,-0.078185,0.004011,0.084111
414,0.076152,-0.702123,9.676340,9.319071,-12.167278,-17.633835,-8.363373,0.984488,9.203043,0.994036,-0.073369,0.002691,0.080633
415,-0.760754,-0.510809,11.980259,3.877264,1.455655,-12.946825,-8.150304,0.733906,8.725101,0.994527,-0.071343,0.000964,0.076327
416,-0.231434,0.155995,14.086135,0.155313,-4.972312,-14.359282,-8.088736,0.611459,8.282691,0.994864,-0.070728,0.000215,0.072412
417,-0.530256,-0.645755,14.882357,-15.172093,2.394291,-11.420587,-8.342899,0.507414,7.863629,0.994972,-0.072872,-0.000582,0.068708
418,0.193637,-1.307540,15.217209,-23.757465,-6.110784,-10.670961,-8.994707,0.390189,7.509243,0.994758,-0.078467,-0.001747,0.065548
419,-0.473899,-1.242433,15.319302,-22.263376,3.506740,-3.777984,-9.762856,0.307812,7.278415,0.994346,-0.085092,-0.002730,0.063471
420,0.056408,-1.645920,14.676742,-24.687231,-1.800655,-3.129065,-10.546116,0.315244,7.160682,0.993805,-0.091894,-0.003005,0.062436
421,0.020876,-2.628411,14.217827,-31.749596,-0.458405,-4.710877,-11.487234,0.253210,7.039335,0.993087,-0.100023,-0.003949,0.061304
422,-0.147138,-3.222927,14.069876,-32.913967,-0.216249,-1.894338,-12.565318,0.219340,6.934118,0.992160,-0.109348,-0.004719,0.060320
423,-0.031086,-2.983301,14.237474,-23.616600,-0.957466,-6.061004,-13.507831,0.170159,6.809441,0.991296,-0.117485,-0.005512,0.059151
424,-0.303161,-3.515674,14.394650,-25.252821,1.149265,-5.659959,-14.322762,0.126636,6.618917,0.990536,-0.124520,-0.006102,0.057416
425,0.062054,-3.988263,14.975489,-25.551329,-1.182058,-6.951340,-15.169831,0.072594,6.415936,0.989692,-0.131824,-0.006760,0.055554
426,-0.258335,-3.868025,14.937341,-16.943605,3.171279,-8.275245,-15.878242,0.036655,6.162400,0.988981,-0.137938,-0.007108,0.053280
427,-0.323432,-3.682317,14.571690,1.470938,6.088570,-6.829180,-16.136566,0.115865,5.878045,0.988791,-0.140220,-0.006197,0.050907
428,-0.379725,-4.035697,13.165832,11.927470,7.864842,-2.934294,-15.914121,0.294831,5.657610,0.989144,-0.138388,-0.004287,0.049232
429,-0.184745,-3.931653,12.032548,13.052180,6.350402,-1.292400,-15.498808,0.504052,5.525752,0.989677,-0.134893,-0.002146,0.048354
430,-0.216592,-3.405100,10.757634,18.332769,4.514909,-0.106260,-14.976471,0.672713,5.455711,0.990295,-0.130450,-0.000388,0.047950
431,-0.422488,-3.047865,9.985225,13.853939,5.771347,7.707685,-14.438987,0.870781,5.534852,0.990840,-0.125885,0.001462,0.048852
432,0.050495,-3.168020,10.288233,-2.796175,-0.316780,8.515697,-14.250820,1.026152,5.774128,0.990922,-0.124327,0.002627,0.051086
433,-0.360983,-3.329953,10.882693,-0.583122,4.789836,13.458014,-14.300764,1.189029,6.110614,0.990690,-0.124839,0.003647,0.054172
434,-0.175432,-2.584430,10.449549,30.747498,1.166370,13.010704,-13.788825,1.392316,6.514626,0.991009,-0.120523,0.005222,0.057861
435,-0.072089,-2.013715,10.514682,45.035675,0.298276,15.430600,-12.514358,1.523014,6.971342,0.992028,-0.109583,0.006561,0.061877
436,-0.013116,-1.057242,9.766286,68.084900,0.381730,13.712650,-10.616384,1.631222,7.445137,0.993425,-0.093229,0.008138,0.065954
437,-0.314269,-0.067521,8.422865,79.392540,5.437284,10.134800,-8.148140,1.790596,7.821626,0.994953,-0.071935,0.010704,0.069130
438,-0.118183,1.028762,7.552514,70.164696,2.123336,5.108379,-5.648979,1.945048,8.057963,0.996115,-0.050339,0.013449,0.071000
439,-0.501441,1.386203,7.015119,38.826866,10.044511,6.788725,-3.826803,2.162757,8.239419,0.996637,-0.034652,0.016415,0.072416
440,-0.601623,1.859171,6.835662,16.412960,11.766714,6.394269,-2.898173,2.539048,8.436013,0.996687,-0.026843,0.020229,0.074069
441,-0.278466,1.306771,7.418694,-22.694929,2.663999,5.297151,-2.994400,2.789542,8.617715,0.996490,-0.027875,0.022301,0.075719
442,0.170906,0.935600,7.299740,-36.850578,-8.232590,6.939625,-3.976894,2.709820,8.826370,0.996093,-0.036404,0.020892,0.077699
443,0.147474,0.961746,6.953171,-31.194315,-8.475016,7.286380,-5.099397,2.451056,9.084292,0.995569,-0.046028,0.017777,0.080044
444,0.178141,0.115903,6.380421,-34.167721,-9.299992,3.779058,-6.180063,2.174255,9.296958,0.995000,-0.055253,0.014515,0.081929
445,0.406420,-1.162505,5.871553,-41.712086,-15.702640,-1.350823,-7.441588,1.765654,9.386561,0.994346,-0.065927,0.010014,0.082636
446,0.007829,-1.225034,3.963783,-32.533630,-6.819548,-0.546269,-8.678427,1.390066,9.407462,0.993627,-0.076393,0.005851,0.082677
447,-0.307598,-1.398191,3.236052,-31.042330,4.697519,-1.380008,-9.738512,1.350064,9.381974,0.992903,-0.085552,0.004758,0.082478
448,0.132891,-2.159485,2.750916,-48.162083,-12.253039,-9.344831,-11.061858,1.194182,9.229733,0.991983,-0.096900,0.002585,0.081080
450,0.435638,-1.858243,3.151557,-19.576519,-25.582851,-10.309482,-12.193408,0.510858,9.034445,0.991208,-0.106225,-0.003946,0.078785
451,-0.138420,-1.840346,3.473445,-3.929158,-4.223976,-3.455586,-12.585358,-0.023289,8.914458,0.990971,-0.109260,-0.008720,0.077224
452,0.133024,-1.671284,5.723537,20.829082,-13.063155,-6.390016,-12.303490,-0.339922,8.816337,0.991321,-0.106618,-0.011177,0.076101
453,-0.013753,-1.451755,7.725161,26.199333,-10.103170,-4.993507,-11.518646,-0.756693,8.710007,0.992108,-0.099559,-0.014171,0.074890
454,-0.607150,-0.709214,10.171152,29.558756,-2.753523,1.830927,-10.589241,-0.976991,8.699017,0.992889,-0.091364,-0.015463,0.074730
455,-0.384346,-1.091808,12.487684,8.949290,-5.022416,0.838168,-9.948607,-1.096207,8.765275,0.993339,-0.085723,-0.016128,0.075299
456,-0.227590,-0.388767,14.027705,6.422634,-6.816050,1.794255,-9.694031,-1.283063,8.842468,0.993469,-0.083379,-0.017637,0.075865
457,0.437845,-0.487165,14.962092,-5.542988,-8.332038,-1.062267,-9.680703,-1.529840,8.897058,0.993431,-0.083086,-0.019806,0.076157
458,0.262351,-0.571314,15.550048,-8.313930,-3.321121,-0.952991,-9.911711,-1.726896,8.897223,0.993248,-0.084954,-0.021668,0.075968
459,1.080245,-1.401701,14.986485,-13.912447,-6.933428,-3.387530,-10.280851,-1.907824,8.856065,0.992983,-0.088037,-0.023448,0.075398
460,0.686033,-1.267306,14.369517,-7.107929,-0.125510,-4.427422,-10.627511,-2.047121,8.749229,0.992769,-0.090968,-0.024798,0.074288
461,0.749594,-1.954997,13.856042,-15.229929,2.926548,-8.014417,-10.992300,-2.040045,8.536752,0.992611,-0.094179,-0.024798,0.072374
462,0.316187,-2.473410,12.820176,-14.294196,5.657556,-5.503429,-11.475740,-1.943626,8.287813,0.992368,-0.098482,-0.024055,0.070198
463,0.468370,-3.290681,12.408990,-23.251898,3.611224,-3.453376,-12.095726,-1.822949,8.110160,0.991938,-0.103964,-0.023229,0.068641
464,0.082180,-3.139440,13.371554,-20.199331,6.491054,-3.393220,-12.815357,-1.683385,7.962212,0.991362,-0.110307,-0.022310,0.067351
465,-0.213517,-3.594021,14.193414,-23.292610,9.670732,-1.365695,-13.536441,-1.439140,7.823720,0.990740,-0.116719,-0.020481,0.066264
466,-0.197787,-4.574995,14.674863,-28.669338,10.601303,-1.472789,-14.399640,-1.122799,7.696368,0.989913,-0.124389,-0.018110,0.065355
467,-0.676795,-4.872773,14.692052,-12.537608,14.929789,1.461904,-15.084635,-0.711393,7.587838,0.989211,-0.130561,-0.014826,0.064781
468,-0.501350,-4.450977,13.938581,7.000754,12.599100,0.771136,-15.176295,-0.258741,7.504735,0.989135,-0.131621,-0.010875,0.064574
469,-0.338851,-4.611831,12.132681,9.452352,9.028938,0.293701,-14.901958,0.094097,7.428970,0.989466,-0.129458,-0.007589,0.064344
470,0.002821,-4.598472,10.504234,9.674827,2.866266,-1.616200,-14.583402,0.280232,7.357338,0.989846,-0.126815,-0.005723,0.063951
471,0.035280,-3.483700,9.325036,16.203009,-0.417716,-4.802114,-14.152639,0.293213,7.243739,0.990378,-0.123105,-0.005248,0.063005
472,0.156331,-3.252896,8.974947,-3.402207,-1.298984,-7.483664,-13.940112,0.215742,7.052174,0.990715,-0.121236,-0.005598,0.061276
473,0.125869,-3.413761,9.410868,-18.456093,0.672371,-4.964560,-14.305050,0.154682,6.853657,0.990433,-0.124368,-0.006106,0.059476
474,-0.219824,-3.781088,10.282106,-9.127057,7.742595,-1.538021,-14.765302,0.262973,6.713689,0.989989,-0.128408,-0.005252,0.058363
475,-0.454280,-3.756550,10.930316,18.166466,11.504802,0.724589,-14.615417,0.569879,6.619555,0.990174,-0.127269,-0.002419,0.057896
476,-0.455374,-3.344232,11.352901,50.211269,9.757191,8.274958,-13.475098,0.950223,6.679629,0.991317,-0.117598,0.001386,0.058825
477,-0.357972,-2.439481,11.539095,81.765587,6.383644,13.096834,-11.270490,1.289684,6.970772,0.993196,-0.098688,0.005210,0.061599
478,0.012998,-1.098764,10.509151,108.358597,0.178922,10.962474,-8.094670,1.464947,7.348641,0.995317,-0.071247,0.008203,0.064820
479,-0.080389,-0.115060,9.050578,105.432701,1.652810,11.650124,-4.525304,1.535541,7.721362,0.996828,-0.040289,0.010701,0.067800
480,-0.606897,1.418566,7.816519,96.138695,9.973239,11.083684,-1.158628,1.747857,8.089490,0.997331,-0.011160,0.014500,0.070678
481,-0.146964,1.866876,6.659042,66.512848,0.381718,9.297173,1.560948,1.919185,8.427470,0.997081,0.012352,0.017701,0.073233
482,-0.202147,2.403759,6.053555,40.927189,2.266907,7.867467,3.360292,1.951330,8.716732,0.996573,0.027937,0.019199,0.075453
483,-0.650904,2.390800,6.566374,0.654499,11.153090,2.697092,4.060023,2.163463,8.906693,0.996230,0.033845,0.021560,0.076918
484,-0.157666,2.483943,6.825751,-21.461397,-2.820048,5.215208,3.718885,2.293406,9.046703,0.996212,0.030763,0.022498,0.078161
485,0.704714,2.080909,7.051651,-38.073765,-20.161955,11.790322,2.736048,1.895221,9.307706,0.996315,0.022451,0.018416,0.080708
486,0.147512,1.892600,7.516036,-39.974499,-6.513231,9.321795,1.444971,1.438064,9.642416,0.996317,0.011509,0.013563,0.083876
487,0.569828,0.562139,6.345516,-44.046097,-15.128291,3.537108,0.049748,1.074931,9.853371,0.996262,-0.000373,0.009383,0.085873
488,0.350940,-0.236823,5.160677,-35.300381,-12.927406,3.523006,-1.270959,0.609363,9.975225,0.996133,-0.011511,0.004333,0.086993
489,0.177753,-0.215803,4.113212,-14.673725,-7.730692,1.176643,-2.103051,0.267486,10.063557,0.995972,-0.018485,0.000715,0.087736
490,0.083110,-0.973066,3.061757,-29.750263,-6.951935,-0.947110,-2.843412,0.023198,10.077737,0.995828,-0.024733,-0.001978,0.087809
491,0.052232,-1.965310,2.187458,-63.019169,-7.602897,-1.209603,-4.389420,-0.220997,10.057467,0.995425,-0.037979,-0.005277,0.087517
492,-0.417974,-1.617259,2.336455,-31.918131,12.887990,3.118931,-5.971387,-0.130415,10.081715,0.994785,-0.051785,-0.005709,0.087688
493,-0.288200,-1.614224,2.755139,-19.592293,4.969657,0.375795,-6.829742,0.171522,10.109019,0.994334,-0.059465,-0.003760,0.088036
494,-0.451588,-1.684632,4.950784,4.797041,1.703815,-2.818483,-7.076498,0.277092,10.054904,0.994238,-0.061689,-0.003004,0.087614
495,-0.666976,-1.344003,6.543461,16.300699,4.749381,-7.883721,-6.725893,0.362579,9.865023,0.994560,-0.058715,-0.001897,0.086019
496,-1.359898,-0.524637,8.709469,19.598631,12.755820,-5.688129,-6.129808,0.627189,9.607594,0.995023,-0.053736,0.000969,0.083914
497,-0.715454,-0.033987,11.382035,6.230381,-4.192528,-3.723208,-5.701579,0.753097,9.436564,0.995329,-0.050105,0.002451,0.082479
498,-0.464064,0.268998,13.209694,-4.979120,-8.831627,3.119678,-5.680419,0.536050,9.448482,0.995348,-0.049767,0.000575,0.082489
499,-0.328650,-0.019584,14.040796,-20.393379,-9.687426,9.712591,-6.101500,0.251005,9.693087,0.995000,-0.053215,-0.002317,0.084484
500,0.380576,-0.003536,15.113445,-26.743383,-14.417967,12.744490,-6.886420,-0.105752,10.110701,0.994316,-0.059744,-0.006210,0.087904
501,1.315521,-0.484527,15.022355,-26.584518,-21.068533,9.000824,-7.778043,-0.646065,10.545520,0.993495,-0.067019,-0.011834,0.091303
502,1.351138,-0.969830,14.451265,-27.157825,-13.374220,2.942939,-8.678452,-1.185476,10.824222,0.992709,-0.074347,-0.017405,0.093264
503,1.189356,-1.579899,14.156931,-27.475046,-7.393297,-2.308762,-9.590622,-1.525020,10.890067,0.992021,-0.081953,-0.021133,0.093443
504,1.109674,-1.815159,13.085491,-19.393785,-2.167420,-10.067938,-10.366885,-1.717269,10.714801,0.991575,-0.088547,-0.023293,0.091628
505,0.580992,-2.410460,12.167855,-23.076683,5.580923,-11.228488,-11.064061,-1.726771,10.355422,0.991300,-0.094644,-0.023636,0.088368
506,0.496839,-2.669214,11.685766,-23.604170,8.688073,-10.164666,-11.830843,-1.564417,9.959006,0.990951,-0.101483,-0.022472,0.084927
507,-0.227589,-2.932647,11.304137,-23.723967,16.303493,-6.621542,-12.610924,-1.216610,9.597507,0.990508,-0.108555,-0.019703,0.081983
508,-0.122422,-3.009301,10.798306,-23.355860,13.750851,-3.301798,-13.391067,-0.765890,9.324121,0.989935,-0.115665,-0.016092,0.079946
509,-0.107522,-3.136603,10.556906,-23.377640,11.063328,0.186960,-14.168509,-0.376829,9.175114,0.989214,-0.122672,-0.013117,0.078967
510,-0.254326,-3.203453,10.433414,-19.783089,9.428355,3.439583,-14.887811,-0.031312,9.147854,0.988417,-0.129121,-0.010602,0.079038
511,-0.247432,-3.065821,10.119911,-14.550839,5.807694,5.895677,-15.459947,0.254301,9.231603,0.987673,-0.134245,-0.008632,0.080040
512,-0.154621,-3.135984,9.898348,-12.194214,1.602087,7.789876,-15.904652,0.434678,9.417812,0.986991,-0.138190,-0.007613,0.081826
513,-0.287327,-3.041536,9.667127,-7.502257,1.405336,8.048087,-16.230932,0.555772,9.657515,0.986403,-0.141070,-0.007099,0.084016
514,-0.237882,-2.960817,9.573361,-5.752584,-0.774430,8.501979,-16.449110,0.643375,9.919301,0.985924,-0.142996,-0.006831,0.086364
515,-0.166344,-2.734861,9.518701,-1.899202,-2.095475,8.054247,-16.573479,0.675887,10.197448,0.985551,-0.144073,-0.006995,0.088789
516,-0.127141,-2.545543,9.404735,10.896718,-2.140471,5.986230,-16.420666,0.674567,10.441880,0.985551,-0.142743,-0.007193,0.090899
517,-0.014202,-2.500524,9.409451,-0.195890,-3.077913,4.054154,-16.240213,0.637906,10.626942,0.985632,-0.141150,-0.007593,0.092458
518,0.190825,-2.455789,9.455362,-0.877789,-5.250932,2.170017,-16.256712,0.533791,10.765428,0.985516,-0.141199,-0.008672,0.093520
519,0.172234,-2.432667,9.535226,0.035608,-3.345758,-0.800490,-16.270277,0.402647,10.827468,0.985468,-0.141204,-0.009888,0.093892
520,0.138288,-2.370070,9.593269,0.362114,-1.225345,-2.507634,-16.263876,0.314068,10.795873,0.985515,-0.141080,-0.010606,0.093512
521,0.099189,-2.510251,9.744238,-2.891055,0.782549,-3.150453,-16.306499,0.280539,10.707419,0.985539,-0.141428,-0.010820,0.092706
522,-0.024181,-2.447559,9.827651,-1.026249,2.698713,-4.211961,-16.372486,0.301679,10.573359,0.985562,-0.142025,-0.010525,0.091573
523,-0.121171,-2.263471,9.822449,2.828215,4.016036,-4.517955,-16.343466,0.368109,10.402239,0.985725,-0.141843,-0.009719,0.090186
524,-0.093673,-2.183857,9.713467,4.199076,3.395362,-3.470081,-16.227512,0.449388,10.239820,0.985983,-0.140921,-0.008728,0.088898
525,-0.132228,-2.227150,9.668523,3.924092,3.707209,-3.780320,-16.093405,0.529480,10.090814,0.986250,-0.139839,-0.007753,0.087723
526,-0.209140,-1.964514,9.639884,9.094925,4.060127,-3.351864,-15.877926,0.621186,9.940876,0.986612,-0.138062,-0.006618,0.086556
527,-0.184329,-1.814816,9.643118,47.820877,5.870409,-0.373331,-14.930617,0.764312,9.837082,0.987776,-0.130012,-0.004551,0.085874
528,-0.063349,-1.881536,9.691259,35.046345,-1.974866,-1.654879,-13.550389,0.819370,9.788587,0.989299,-0.118147,-0.002991,0.085560
529,-0.045103,-1.848828,9.844311,25.963741,-3.648451,-1.049258,-12.533952,0.717914,9.766578,0.990338,-0.109293,-0.003087,0.085297
530,-0.046750,-1.766925,9.793840,21.930229,-2.902505,0.756341,-11.735557,0.610205,9.784936,0.991076,-0.102311,-0.003441,0.085380
531,0.062203,-1.876686,9.743052,7.958007,-7.544755,0.140627,-11.236975,0.442653,9.834227,0.991493,-0.097872,-0.004562,0.085679
532,0.127918,-2.179631,9.610832,-13.545641,-8.947523,-1.581285,-11.329953,0.168461,9.864802,0.991417,-0.098472,-0.007030,0.085705
533,0.007845,-2.263372,9.461716,-17.842999,1.120053,-1.431729,-11.853164,0.030636,9.842241,0.990986,-0.102896,-0.008593,0.085353
534,-0.113554,-2.561260,9.349346,-32.563126,9.345344,-1.701255,-12.693444,0.190037,9.754562,0.990256,-0.110284,-0.007756,0.084683
535,0.016120,-2.817701,9.370493,-11.740499,2.595314,-5.962020,-13.432615,0.355051,9.585491,0.989630,-0.116801,-0.006705,0.083339
536,-0.033010,-2.967925,9.375254,-13.733231,2.602715,-8.723640,-13.858703,0.381892,9.327044,0.989371,-0.120514,-0.006512,0.081110
537,-0.179762,-2.996185,9.379887,-14.093187,4.481031,-8.498871,-14.324615,0.426558,9.019870,0.989081,-0.124584,-0.006122,0.078481
538,-0.227855,-3.161558,9.564974,-15.697602,4.648089,-8.061577,-14.823640,0.504360,8.714520,0.988726,-0.128958,-0.005449,0.075906
539,-0.146301,-3.051368,9.673203,-11.394341,3.772602,-8.228926,-15.277963,0.569335,8.415875,0.988393,-0.132932,-0.004843,0.073383
540,-0.314717,-2.957647,9.689329,-6.838036,6.545681,-5.756701,-15.584745,0.673175,8.145408,0.988190,-0.135652,-0.003824,0.071160
541,-0.335934,-2.949145,9.749055,-3.423544,7.202354,-2.876456,-15.758521,0.854975,7.945070,0.988081,-0.137265,-0.002124,0.069643
542,-0.243708,-2.738203,9.687454,1.513873,5.866898,-2.469400,-15.792796,1.040385,7.800151,0.988099,-0.137670,-0.000372,0.068613
543,-0.327504,-2.607857,9.548017,7.896368,12.094850,0.856037,-15.638161,1.321322,7.693224,0.988300,-0.136496,0.002271,0.068023
544,-0.324465,-2.456869,9.410227,13.475606,8.583376,1.741393,-15.283357,1.665090,7.643112,0.988682,-0.133628,0.005507,0.067978
545,-0.197752,-2.446599,9.536016,12.628498,-2.188923,-1.936569,-14.849250,1.767217,7.612478,0.989179,-0.129937,0.006681,0.067807
546,-0.261281,-2.519305,9.429594,5.634334,0.225941,-2.974935,-14.546986,1.714774,7.541921,0.989570,-0.127294,0.006485,0.067122
547,-0.288177,-2.570130,9.475377,1.333062,1.563828,-3.001374,-14.433991,1.718659,7.437953,0.989755,-0.126314,0.006700,0.066222
548,-0.133667,-2.557714,9.497552,2.350757,-7.622155,-5.771821,-14.375963,1.584450,7.321389,0.989912,-0.125734,0.005702,0.065066
549,-0.275475,-2.643290,9.412755,-3.436290,0.702388,-4.043134,-14.397398,1.432101,7.191580,0.989989,-0.125832,0.004516,0.063781
550,-0.308458,-2.718767,9.157108,2.807160,0.788091,-2.850658,-14.410896,1.427525,7.074154,0.990040,-0.125941,0.004598,0.062762
551,-0.145799,-2.690939,9.163971,-0.791979,-1.277905,-3.529125,-14.379801,1.393236,6.973161,0.990135,-0.125651,0.004429,0.061851
553,-0.265415,-2.602591,9.244500,-10.360191,2.179670,-1.772285,-14.567819,1.385678,6.883839,0.989976,-0.127268,0.004362,0.061078
554,-0.270099,-2.586651,9.493577,-7.537842,2.421864,0.431664,-14.867162,1.454104,6.842791,0.989650,-0.129887,0.004840,0.060812
555,-0.102807,-2.695783,9.794870,-5.707497,-0.683182,0.820068,-15.087601,1.487452,6.855490,0.989386,-0.131808,0.004996,0.060968
556,-0.256257,-2.708041,9.978652,-8.085635,1.538551,2.191585,-15.316319,1.514351,6.900163,0.989092,-0.133798,0.005054,0.061395
557,-0.369849,-2.653979,10.099980,-10.032824,2.176502,5.725734,-15.615269,1.609209,7.010907,0.988662,-0.136431,0.005581,0.062475
558,-0.120271,-3.257084,9.810684,-21.770937,-0.884649,2.387386,-16.141783,1.666858,7.135145,0.987945,-0.141007,0.005638,0.063641
559,-0.207388,-3.685538,9.317730,-30.880083,0.895888,-1.000608,-17.018654,1.673828,7.157052,0.986823,-0.148568,0.005183,0.063880
560,-0.479903,-3.985296,8.896788,-37.110996,4.845622,-1.763161,-18.153917,1.751377,7.084239,0.985327,-0.158374,0.005317,0.063408
561,-0.402760,-4.258755,8.535872,-41.239239,3.124199,-3.237735,-19.463423,1.850357,6.962725,0.983497,-0.169667,0.005622,0.062567
562,-0.234055,-4.727027,8.142005,-48.656357,-0.500022,-7.516539,-20.967319,1.829504,6.779123,0.981290,-0.182542,0.004914,0.061030
563,-0.567523,-4.686204,8.184663,-46.979771,2.319895,-4.654077,-22.567179,1.782651,6.578917,0.978762,-0.196195,0.004004,0.059303
564,-0.605824,-4.854959,8.324626,-44.814178,0.789026,-2.104702,-24.100660,1.785455,6.455356,0.976112,-0.209272,0.003460,0.058304
565,-0.391780,-4.986331,8.494627,-41.884598,-4.502768,-2.141631,-25.546532,1.699274,6.417066,0.973433,-0.221532,0.002066,0.057852
566,-0.356063,-5.167515,8.719953,-37.928127,-6.365143,-0.635422,-26.875433,1.516123,6.455035,0.970822,-0.232724,-0.000235,0.057825
567,-0.411627,-5.200837,8.868807,-29.692631,-6.168872,1.916504,-27.999397,1.340359,6.570117,0.968474,-0.242153,-0.002531,0.058423
568,-0.141237,-5.218404,8.744696,-23.947418,-9.191417,0.196859,-28.889978,1.131809,6.723057,0.966530,-0.249570,-0.005078,0.059239
569,-0.024452,-5.217998,8.665595,-20.099817,-9.583513,-1.059244,-29.621674,0.851738,6.863142,0.964901,-0.255593,-0.008128,0.059763
570,0.075871,-5.243846,8.402249,-18.360350,-8.987138,-2.202175,-30.261351,0.556427,6.970393,0.963459,-0.260821,-0.011189,0.059948
571,0.067472,-5.307817,8.228240,-18.865519,-6.099015,-3.140241,-30.881409,0.294713,7.021571,0.962052,-0.265892,-0.013829,0.059709
572,0.012332,-5.145119,8.465455,-15.792578,-1.241821,-4.654231,-31.459242,0.122903,6.973844,0.960752,-0.270659,-0.015458,0.058833
573,-0.001573,-4.807621,8.655050,-8.510919,2.051248,-6.183666,-31.864574,0.039746,6.813122,0.959882,-0.274036,-0.015978,0.057233
574,-0.161349,-4.325705,8.706700,1.168802,5.306943,-4.608588,-31.987152,0.048887,6.595623,0.959694,-0.275097,-0.015441,0.055417
575,-0.362524,-4.034812,8.782867,8.129466,8.513976,-1.643238,-31.832676,0.189504,6.385452,0.960144,-0.273896,-0.013685,0.054012
576,-0.153915,-3.756624,8.902168,15.437806,5.596890,-3.015427,-31.440851,0.349121,6.196010,0.961139,-0.270705,-0.011714,0.052847
577,-0.158039,-3.728949,8.724167,20.667315,4.270335,-1.109924,-30.840080,0.454428,6.052294,0.962595,-0.265722,-0.010219,0.051944
578,-0.145600,-3.757426,8.695057,25.596788,2.584326,1.435248,-30.069532,0.555809,5.999113,0.964368,-0.259292,-0.008896,0.051793
579,0.178120,-3.797661,8.697168,32.253674,-1.626467,-1.179702,-29.105476,0.571981,5.994982,0.966515,-0.251177,-0.008315,0.051866
580,0.356031,-3.718452,8.923502,42.597393,-2.790959,-4.555292,-27.858513,0.461680,5.946436,0.969229,-0.240601,-0.008581,0.051312
581,0.181112,-3.625529,8.993739,54.621967,0.744258,-5.648396,-26.239426,0.353798,5.810662,0.972606,-0.226846,-0.008502,0.050063
582,0.090795,-3.011657,8.883421,69.765884,3.002185,-7.709520,-24.168226,0.315329,5.582290,0.976650,-0.209229,-0.007507,0.048192
583,-0.330853,-2.846701,9.096508,69.169853,8.094231,-3.414806,-21.855143,0.412875,5.339230,0.980764,-0.189526,-0.005296,0.046414
584,-0.558484,-3.182765,9.109550,52.088749,8.697911,0.442074,-19.836527,0.657045,5.192338,0.983983,-0.172319,-0.002160,0.045605
585,0.088307,-3.120732,9.579893,40.262196,-1.701081,-3.959236,-18.299019,0.748410,5.098285,0.986233,-0.159137,-0.000630,0.044947
586,-0.639871,-2.609237,10.366830,34.406345,5.929114,2.043722,-17.055351,0.805661,5.047657,0.987915,-0.148446,0.000417,0.044589
587,-1.143557,-3.077036,10.758729,15.130967,9.978910,10.469824,-16.227806,1.119681,5.170715,0.988872,-0.141427,0.003297,0.046032
588,-0.426609,-2.849030,10.308958,12.319605,-0.006875,8.563349,-15.764813,1.367450,5.429088,0.989292,-0.137537,0.005312,0.048544
589,-0.136528,-1.772016,10.199522,28.589891,-2.446404,7.284562,-15.076797,1.398349,5.694940,0.989980,-0.131620,0.005565,0.050843
590,-0.851595,-1.523489,10.095713,33.663525,7.636870,15.312129,-14.030452,1.576359,6.037982,0.990954,-0.122671,0.007202,0.053945
591,-0.021521,-1.387648,9.519272,34.419586,-3.143083,12.496310,-12.883045,1.757311,6.470609,0.991889,-0.112857,0.008883,0.057791
592,0.731687,-0.821551,9.510408,42.922543,-13.410861,4.126420,-11.585000,1.546353,6.800841,0.992971,-0.101535,0.007416,0.060365
593,0.347272,-0.690175,10.033820,42.529919,-6.773670,1.160923,-10.157741,1.231870,6.951799,0.994126,-0.089008,0.005321,0.061337
594,0.326070,-0.771660,10.208474,38.436317,-6.186313,-3.214277,-8.808537,1.012807,6.953004,0.995132,-0.077183,0.004139,0.061135
595,0.415100,-0.587401,9.880689,36.206944,-7.761178,-9.509716,-7.567453,0.752126,6.776279,0.996029,-0.066261,0.002638,0.059402
596,0.463068,-0.762828,9.910769,28.917318,-9.938380,-14.462426,-6.485922,0.409943,6.416113,0.996816,-0.056681,0.000400,0.056074
597,0.311685,-0.926147,9.903100,24.521032,-8.737988,-18.228006,-5.597425,0.042529,5.907503,0.997479,-0.048782,-0.002146,0.051486
598,0.293733,-0.836589,9.674335,22.706833,-7.757623,-21.854889,-4.809098,-0.292234,5.267262,0.998066,-0.041793,-0.004473,0.045802
599,0.073643,-1.016962,9.966836,13.219125,-3.768077,-23.829599,-4.205073,-0.543842,4.523356,0.998544,-0.036472,-0.006187,0.039262
600,-0.124565,-0.850543,10.076486,14.535960,-0.515459,-24.678745,-3.734262,-0.671636,3.721782,0.998931,-0.032374,-0.006913,0.032264
601,-0.339323,-0.724962,9.980232,17.406979,4.784331,-22.484758,-3.193021,-0.648065,2.932751,0.999273,-0.027707,-0.006364,0.025422
602,-0.416210,-0.605900,9.923611,17.188641,6.207534,-18.615501,-2.609830,-0.499545,2.239169,0.999542,-0.022683,-0.004802,0.019435
603,-0.347452,-0.640572,10.004711,17.174923,4.931179,-14.650915,-2.033161,-0.336370,1.677620,0.999732,-0.017697,-0.003194,0.014585
604,-0.368486,-0.513457,9.897871,22.410746,4.596982,-10.450999,-1.371490,-0.189908,1.254791,0.999867,-0.011949,-0.001788,0.010929
605,-0.297956,-0.598665,9.784148,21.578169,2.786172,-6.255840,-0.637777,-0.071401,0.974317,0.999948,-0.005560,-0.000670,0.008499
606,-0.160726,-0.406254,9.729072,22.372135,-0.858614,-4.307031,0.094863,-0.039905,0.798218,0.999975,0.000830,-0.000342,0.006966
607,-0.011057,-0.329876,9.690156,19.715824,-3.839969,-1.798519,0.796480,-0.117306,0.696056,0.999957,0.006957,-0.000981,0.006081
608,0.045796,-0.194376,9.790526,15.237191,-4.679594,-0.697599,1.379189,-0.258373,0.651937,0.999909,0.012048,-0.002186,0.005716
609,0.169739,-0.158563,9.712317,8.865124,-6.195127,-0.327339,1.781032,-0.439043,0.629947,0.999856,0.015563,-0.003745,0.005556
610,0.206244,-0.217013,9.877603,-19.745564,-11.287846,0.265252,1.599796,-0.730266,0.620445,0.999867,0.013994,-0.006296,0.005503
611,0.213482,-0.219553,9.928109,-19.778381,-8.589217,0.825489,0.940912,-1.061884,0.631815,0.999908,0.008262,-0.009221,0.005589
612,0.264884,-0.117365,9.972064,-10.010675,-7.218740,-0.004935,0.444243,-1.325511,0.642437,0.999910,0.003941,-0.011545,0.005651
613,0.241319,-0.146793,9.955437,-7.643185,-2.717436,-0.127974,0.150081,-1.491076,0.639224,0.999899,0.001382,-0.013004,0.005595
614,0.176731,-0.219751,9.984441,-9.892120,3.519697,-0.616055,-0.141854,-1.477701,0.626889,0.999901,-0.001167,-0.012902,0.005454
615,0.189696,-0.117797,9.965880,-3.292586,3.215926,-2.419421,-0.360338,-1.365655,0.575921,0.999912,-0.003084,-0.011933,0.004988
616,0.028794,-0.350744,9.946393,-7.121976,3.085732,-4.370492,-0.531286,-1.261458,0.461961,0.999921,-0.004592,-0.011027,0.003980
617,0.063455,-0.342405,9.979418,-12.425557,2.154247,-7.346359,-0.852882,-1.176498,0.265566,0.999917,-0.007419,-0.010284,0.002241
618,0.090838,-0.417695,9.735711,-21.727070,1.278210,-10.689583,-1.415989,-1.125260,-0.036216,0.999875,-0.012359,-0.009815,-0.000437
619,0.141064,-0.384945,9.873557,-32.910080,-0.303803,-13.180407,-2.318722,-1.122061,-0.434492,0.999739,-0.020269,-0.009713,-0.003989
620,0.051123,-0.549154,9.853510,-35.836838,0.937918,-11.586235,-3.456222,-1.132462,-0.847418,0.999467,-0.030227,-0.009655,-0.007689
621,0.191977,-0.571633,9.679702,-35.481846,-0.755258,-9.401107,-4.637795,-1.154323,-1.196451,0.999072,-0.040562,-0.009642,-0.010839
622,0.226463,-0.805667,9.619177,-40.925331,-0.483632,-6.248037,-5.905749,-1.199033,-1.454412,0.998530,-0.051640,-0.009795,-0.013213
623,0.351263,-1.148081,9.997003,-42.424908,-1.728182,-3.412992,-7.291381,-1.254535,-1.610053,0.997808,-0.063730,-0.010031,-0.014717
624,0.260868,-1.392778,9.714681,-33.590523,-0.327179,-1.220892,-8.556481,-1.299420,-1.681905,0.997030,-0.074753,-0.010212,-0.015481
625,0.353567,-1.334461,9.627898,-32.450916,-1.558917,-1.233202,-9.656235,-1.337061,-1.717189,0.996257,-0.084326,-0.010364,-0.015912
626,0.366391,-1.391866,10.078341,-25.346972,-1.243427,3.188946,-10.620393,-1.377308,-1.676972,0.995513,-0.092706,-0.010612,-0.015682
627,0.385051,-1.640804,10.297490,3.849467,-0.045796,11.511967,-10.984473,-1.352815,-1.432154,0.995248,-0.095844,-0.010554,-0.013569
628,0.227582,-1.562634,9.968130,41.380260,2.572694,18.900747,-10.241632,-1.218797,-0.941474,0.995911,-0.089335,-0.009860,-0.009132
629,0.197215,-1.399637,9.909358,60.352356,2.930227,23.524275,-8.559546,-1.013827,-0.258739,0.997168,-0.074644,-0.008654,-0.002912
630,0.241294,-1.476854,10.066268,63.803177,1.840699,24.524389,-6.503572,-0.830496,0.524660,0.998355,-0.056689,-0.007495,0.004160
631,0.206928,-1.288435,9.856977,61.769924,0.972980,19.395712,-4.421351,-0.714221,1.248778,0.999180,-0.038503,-0.006648,0.010649
632,0.034848,-0.868576,9.601026,44.763206,1.276789,10.530085,-2.652369,-0.646719,1.744266,0.999602,-0.023055,-0.005994,0.015086
633,0.070513,-0.551203,9.789398,18.914513,-0.034423,3.144008,-1.593783,-0.618124,1.971131,0.999742,-0.013813,-0.005632,0.017124
634,0.160508,-0.455434,10.028076,-2.692485,-3.508899,-1.394007,-1.323795,-0.676556,2.001854,0.999765,-0.011447,-0.006105,0.017399
635,0.110227,-0.269231,9.912855,4.532447,-0.534597,-4.202022,-1.292019,-0.746098,1.910305,0.999778,-0.011164,-0.006698,0.016595
636,0.112291,-0.209856,9.825631,8.530637,-0.090849,-4.837514,-1.072359,-0.759587,1.759837,0.999817,-0.009255,-0.006771,0.015294
637,0.106453,-0.137564,9.878378,9.251909,-0.081266,-5.062394,-0.773795,-0.765079,1.594883,0.999859,-0.006659,-0.006770,0.013872
638,0.093974,-0.068380,9.937639,9.425924,0.246511,-4.965795,-0.460270,-0.764121,1.427713,0.999892,-0.003933,-0.006718,0.012432
639,0.101740,0.005235,9.908085,11.476970,-0.505175,-4.894321,-0.109697,-0.769246,1.263381,0.999916,-0.000883,-0.006723,0.011018
640,0.139416,0.125856,9.912223,14.371024,-2.646422,-4.444892,0.323268,-0.821455,1.107636,0.999923,0.002890,-0.007141,0.009686
641,0.175561,0.214996,9.929059,13.733600,-3.918096,-4.009596,0.793864,-0.929436,0.965711,0.999907,0.006996,-0.008052,0.008483
642,0.218505,0.270991,9.930430,11.518937,-4.566397,-3.603729,1.217003,-1.068586,0.836393,0.999873,0.010687,-0.009247,0.007397
643,0.229475,0.276195,9.895190,7.661374,-3.113879,-3.132029,1.538956,-1.193861,0.721106,0.999835,0.013494,-0.010333,0.006432
644,0.248224,0.307334,9.920160,5.318744,-2.222393,-2.702620,1.757436,-1.279985,0.621323,0.999804,0.015395,-0.011085,0.005592
645,0.214910,0.313747,9.912913,3.548857,0.968777,-2.479034,1.907183,-1.298116,0.534317,0.999786,0.016694,-0.011249,0.004850
646,0.196879,0.328744,9.909901,3.192713,2.450756,-2.412184,2.021283,-1.238371,0.454747,0.999777,0.017680,-0.010735,0.004158
647,0.180603,0.355527,9.906651,3.009058,2.729333,-2.383277,2.126236,-1.149202,0.377969,0.999772,0.018586,-0.009966,0.003484
648,0.158307,0.334242,9.936543,-0.028470,2.896462,-2.429836,2.177384,-1.052494,0.301310,0.999773,0.019023,-0.009133,0.002803
649,0.128315,0.267799,9.953866,-3.270711,3.255193,-2.438659,2.123745,-0.947011,0.224040,0.999792,0.018548,-0.008226,0.002108
650,0.164658,0.325230,9.911613,1.663983,-0.290114,-2.426901,2.098238,-0.894657,0.144789,0.999801,0.018319,-0.007783,0.001406
651,0.178121,0.336856,9.957019,1.682678,-1.993774,-2.522963,2.155371,-0.929606,0.060937,0.999790,0.018812,-0.008101,0.000684
652,0.179830,0.317687,9.957094,1.135485,-1.957921,-2.829004,2.203887,-0.992028,-0.030709,0.999778,0.019228,-0.008661,-0.000101
653,0.183417,0.382082,9.918569,5.838969,-1.663585,-3.117193,2.321932,-1.048431,-0.132132,0.999752,0.020250,-0.009171,-0.000967
654,0.189782,0.464090,9.894996,8.829795,-1.419746,-3.426441,2.568488,-1.095087,-0.243326,0.999701,0.022391,-0.009601,-0.001909
656,0.183202,0.463613,9.911628,5.011314,-0.346896,-3.472964,2.801414,-1.119093,-0.359605,0.999649,0.024413,-0.009840,-0.002898
657,0.170347,0.483725,9.893393,4.071815,0.816891,-3.163229,2.954928,-1.105748,-0.469707,0.999614,0.025743,-0.009752,-0.003849
658,0.166889,0.507924,9.884838,3.231654,1.225780,-2.634955,3.078438,-1.066669,-0.564448,0.999585,0.026814,-0.009437,-0.004674
659,0.193849,0.523064,9.896017,2.109685,-0.419543,-2.019392,3.168874,-1.049025,-0.641192,0.999562,0.027597,-0.009305,-0.005340
660,0.191983,0.595651,9.896055,4.623385,-0.309534,-1.574954,3.282212,-1.057789,-0.701687,0.999530,0.028581,-0.009402,-0.005856
661,0.176111,0.618665,9.901979,4.174348,0.875993,-1.328637,3.429717,-1.045517,-0.749455,0.999491,0.029864,-0.009315,-0.006264
662,0.156485,0.549156,9.935405,-1.178411,2.179431,-1.195131,3.480337,-0.992149,-0.788391,0.999479,0.030306,-0.008863,-0.006614
663,0.141561,0.591205,9.897319,1.874147,2.595672,-1.073822,3.492476,-0.910426,-0.821328,0.999480,0.030414,-0.008159,-0.006922
664,0.125739,0.627084,9.912373,2.707661,2.864195,-0.958808,3.569262,-0.817508,-0.849521,0.999464,0.031088,-0.007361,-0.007187
665,0.114530,0.575869,9.925543,-1.331973,2.726303,-0.821812,3.592509,-0.722659,-0.873319,0.999461,0.031296,-0.006542,-0.007420
666,0.107159,0.550963,9.912091,-2.405081,2.209726,-0.807235,3.530486,-0.638871,-0.895336,0.999481,0.030759,-0.005813,-0.007638
667,0.110193,0.614170,9.871511,1.351638,1.043760,-0.864955,3.513191,-0.583038,-0.919833,0.999486,0.030611,-0.005331,-0.007867
