seq,ax,ay,az,wroll,wpitch,wyaw,roll,pitch,yaw,q0,q1,q2,q3
7326,-0.067165,6.980567,7.042494,0.021428,-0.089319,0.011197,44.746975,0.388082,0.384661,0.924716,0.380628,0.004409,0.001815
7328,-0.071148,6.980669,7.034230,0.323470,0.083975,-0.128946,44.752708,0.389401,0.383205,0.924697,0.380674,0.004415,0.001799
7329,-0.066055,6.981952,7.037333,0.198555,-0.135969,0.089356,44.761402,0.389250,0.382126,0.924668,0.380744,0.004411,0.001790
7330,-0.064935,6.982244,7.042655,-0.082272,-0.194004,0.124388,44.763332,0.382837,0.380783,0.924662,0.380760,0.004354,0.001800
7331,-0.066513,6.983033,7.043228,-0.084893,-0.079468,0.010680,44.760540,0.378015,0.379172,0.924671,0.380738,0.004310,0.001804
7332,-0.068547,6.988948,7.045588,0.089669,0.048044,-0.094389,44.760605,0.378626,0.377812,0.924671,0.380738,0.004311,0.001791
7333,-0.069249,6.997654,7.044110,0.498068,0.079083,-0.124399,44.770386,0.382698,0.376715,0.924638,0.380817,0.004340,0.001768
7335,-0.073851,6.999148,7.037395,0.723940,0.239426,-0.272068,44.790752,0.391120,0.375765,0.924571,0.380981,0.004405,0.001731
7336,-0.074779,6.989925,7.035952,0.196799,0.218990,-0.252308,44.806087,0.402700,0.374946,0.924519,0.381104,0.004496,0.001686
7337,-0.070989,6.988456,7.032167,0.117552,-0.022316,-0.004125,44.811321,0.408038,0.374224,0.924502,0.381147,0.004537,0.001662
7338,-0.069309,6.983865,7.036667,-0.320049,-0.141849,0.093663,44.807941,0.405045,0.373354,0.924513,0.381119,0.004510,0.001665
7339,-0.065779,6.979859,7.036860,-0.447788,-0.266833,0.214929,44.795135,0.396587,0.372204,0.924556,0.381016,0.004437,0.001684
7340,-0.061823,6.980396,7.036329,-0.271555,-0.366744,0.314275,44.783142,0.382880,0.371024,0.924596,0.380920,0.004323,0.001721
7342,-0.061614,6.984922,7.033912,0.134042,-0.279581,0.219353,44.780834,0.368969,0.369749,0.924604,0.380902,0.004206,0.001757
7343,-0.063525,6.990490,7.036396,0.297937,-0.103299,0.036549,44.788029,0.361435,0.368280,0.924580,0.380961,0.004141,0.001770
7344,-0.066715,6.991331,7.032239,0.420629,0.086738,-0.137270,44.799995,0.362422,0.366894,0.924541,0.381057,0.004144,0.001755
7345,-0.071195,6.992656,7.034083,0.274155,0.266681,-0.305098,44.811569,0.371797,0.365814,0.924502,0.381150,0.004216,0.001715
7346,-0.076561,6.989420,7.035318,-0.021483,0.423717,-0.471564,44.815773,0.389083,0.364741,0.924488,0.381184,0.004352,0.001648
7347,-0.074906,6.986574,7.039814,-0.376890,0.223631,-0.277578,44.809128,0.405537,0.363487,0.924510,0.381129,0.004481,0.001584
7349,-0.074242,6.982972,7.038869,-0.413617,0.081968,-0.134304,44.795933,0.413988,0.362204,0.924553,0.381023,0.004545,0.001546
7350,-0.073600,6.981575,7.037197,-0.255764,-0.015142,-0.065339,44.784771,0.417122,0.360627,0.924590,0.380932,0.004564,0.001523
7351,-0.070528,6.978590,7.034849,-0.166453,-0.155762,0.073539,44.777718,0.415004,0.358718,0.924614,0.380876,0.004541,0.001515
7352,-0.067019,6.976444,7.034676,-0.167860,-0.290461,0.213232,44.772133,0.406359,0.356872,0.924633,0.380831,0.004465,0.001529
7353,-0.066296,6.974315,7.028066,0.072880,-0.254363,0.182832,44.770538,0.395263,0.355163,0.924638,0.380819,0.004370,0.001552
7354,-0.064589,6.970171,7.030155,-0.177203,-0.254151,0.169643,44.768787,0.385109,0.353365,0.924644,0.380805,0.004282,0.001572
7356,-0.063506,6.968688,7.031383,-0.279861,-0.220846,0.150962,44.761150,0.375725,0.351584,0.924670,0.380744,0.004200,0.001589
7357,-0.063778,6.969161,7.033185,-0.252965,-0.154039,0.075874,44.752266,0.368627,0.349870,0.924699,0.380672,0.004137,0.001599
7358,-0.061691,6.975477,7.031883,0.137814,-0.188462,0.110612,44.750336,0.362385,0.348058,0.924706,0.380657,0.004081,0.001605
7359,-0.061648,6.983436,7.037891,0.243697,-0.149515,0.080515,44.756683,0.356142,0.346354,0.924685,0.380709,0.004025,0.001612
7360,-0.068226,6.986425,7.033789,0.478992,0.167476,-0.233386,44.768715,0.358148,0.344756,0.924645,0.380806,0.004036,0.001592
7361,-0.067610,6.988915,7.038615,0.274992,0.127061,-0.189182,44.781273,0.366594,0.343213,0.924603,0.380907,0.004099,0.001551
7363,-0.073580,7.000007,7.042821,0.420381,0.310834,-0.370190,44.792858,0.378341,0.341738,0.924564,0.381000,0.004189,0.001499
7364,-0.076483,6.998925,7.045784,0.132221,0.347665,-0.392642,44.802048,0.395087,0.340449,0.924534,0.381073,0.004320,0.001433
7365,-0.080083,7.000939,7.044027,0.203238,0.390173,-0.425270,44.807632,0.413419,0.339442,0.924515,0.381118,0.004464,0.001364
7366,-0.075944,7.001855,7.047113,0.051825,0.092172,-0.138368,44.811878,0.425742,0.338443,0.924500,0.381152,0.004561,0.001314
7367,-0.075681,7.011155,7.044687,0.480613,0.000875,-0.047717,44.820747,0.429028,0.337336,0.924471,0.381223,0.004583,0.001294
7368,-0.068691,7.004041,7.040611,0.266941,-0.310180,0.263758,44.833199,0.422834,0.336256,0.924429,0.381324,0.004530,0.001306
7370,-0.066980,6.999897,7.042459,-0.090050,-0.340769,0.272087,44.836140,0.408844,0.334940,0.924420,0.381348,0.004413,0.001341
7371,-0.067740,7.001868,7.043405,-0.098662,-0.206384,0.132518,44.832985,0.397622,0.333293,0.924431,0.381323,0.004317,0.001366
7372,-0.063160,7.001424,7.050599,-0.382284,-0.318324,0.253293,44.824959,0.386887,0.331688,0.924458,0.381259,0.004225,0.001389
7373,-0.063234,6.991632,7.048691,-0.631537,-0.247319,0.168277,44.808052,0.375247,0.330028,0.924514,0.381123,0.004125,0.001415
7374,-0.062710,6.998729,7.046877,-0.095034,-0.198394,0.106458,44.795921,0.366749,0.328042,0.924555,0.381025,0.004050,0.001427
7375,-0.064909,7.002291,7.046227,0.189207,-0.042740,-0.036353,44.797482,0.363074,0.326040,0.924550,0.381038,0.004014,0.001423
7377,-0.062171,6.997553,7.043877,0.110406,-0.141689,0.051798,44.802460,0.360712,0.324056,0.924533,0.381079,0.003988,0.001415
7378,-0.064521,6.998756,7.039252,0.305693,-0.025704,-0.073946,44.809383,0.358993,0.321828,0.924510,0.381135,0.003967,0.001402
7379,-0.064419,6.991657,7.039149,-0.046996,-0.017914,-0.087911,44.813679,0.360378,0.319402,0.924496,0.381169,0.003970,0.001378
7380,-0.065664,6.991657,7.042381,-0.213869,0.034073,-0.127468,44.809311,0.363099,0.317045,0.924510,0.381134,0.003984,0.001350
7381,-0.065594,6.990698,7.038407,-0.044749,0.001394,-0.104117,44.804985,0.366238,0.314723,0.924525,0.381099,0.004002,0.001321
7382,-0.064265,6.992451,7.035896,0.157299,-0.068101,-0.040794,44.806843,0.367152,0.312226,0.924518,0.381114,0.004001,0.001298
7384,-0.065053,6.989752,7.034924,0.064626,-0.045045,-0.050749,44.810524,0.366889,0.309815,0.924506,0.381144,0.003991,0.001279
7385,-0.065335,6.997919,7.038275,0.224390,-0.037668,-0.052023,44.815338,0.367118,0.307628,0.924490,0.381183,0.003985,0.001261
7386,-0.064272,6.988410,7.040484,-0.312263,-0.073163,-0.020072,44.813862,0.366655,0.305474,0.924495,0.381171,0.003974,0.001245
7387,-0.061679,6.986170,7.045839,-0.610236,-0.173432,0.086017,44.798473,0.362964,0.303357,0.924546,0.381047,0.003937,0.001241
7388,-0.062428,6.991663,7.050996,-0.445356,-0.119261,0.050546,44.780872,0.357899,0.301536,0.924605,0.380905,0.003890,0.001243
7389,-0.065148,6.995176,7.044792,0.132767,0.043359,-0.102802,44.775642,0.357614,0.300026,0.924622,0.380863,0.003883,0.001232
7391,-0.065197,6.993637,7.041300,0.267061,0.055044,-0.111743,44.782303,0.361297,0.298643,0.924600,0.380917,0.003908,0.001209
7392,-0.062667,6.999979,7.042537,0.419025,-0.090771,0.034350,44.793732,0.361783,0.297308,0.924562,0.381009,0.003908,0.001196
7393,-0.068976,6.996371,7.043033,0.136873,0.165014,-0.216013,44.802990,0.364795,0.296032,0.924532,0.381084,0.003928,0.001175
7394,-0.071031,6.989231,7.042891,-0.250021,0.223004,-0.283153,44.801098,0.375246,0.294686,0.924538,0.381068,0.004008,0.001130
7395,-0.066777,6.987317,7.040683,-0.216641,-0.033659,-0.037115,44.793308,0.381246,0.293121,0.924563,0.381005,0.004051,0.001097
7396,-0.068194,6.985083,7.041385,-0.246726,-0.016526,-0.056065,44.785564,0.381746,0.291430,0.924589,0.380943,0.004049,0.001082
7398,-0.073761,6.980784,7.040932,-0.327341,0.224086,-0.294207,44.775986,0.388314,0.289723,0.924621,0.380865,0.004096,0.001047
7399,-0.068552,6.984498,7.041862,-0.120088,-0.023881,-0.037048,44.768520,0.394571,0.288153,0.924646,0.380805,0.004141,0.001014
7400,-0.070070,6.984449,7.039062,0.071124,-0.003028,-0.060515,44.767693,0.395398,0.286683,0.924648,0.380798,0.004143,0.000999
7401,-0.070744,6.981816,7.047010,-0.359542,0.012541,-0.080041,44.762878,0.397160,0.285131,0.924664,0.380759,0.004152,0.000981
7402,-0.068117,6.983720,7.045848,-0.196753,-0.103943,0.047833,44.753590,0.396456,0.283677,0.924695,0.380685,0.004142,0.000972
7403,-0.067464,6.983936,7.041762,0.063529,-0.120608,0.071511,44.751362,0.392398,0.282455,0.924703,0.380667,0.004105,0.000976
7404,-0.067782,6.981367,7.041400,-0.000258,-0.089182,0.018413,44.752407,0.388860,0.281058,0.924699,0.380675,0.004072,0.000976
7405,-0.068313,6.983463,7.042953,0.010564,-0.053618,-0.016637,44.752571,0.387149,0.279403,0.924699,0.380677,0.004052,0.000968
7406,-0.068732,6.989610,7.041003,0.340322,-0.022019,-0.038739,44.758408,0.386903,0.277860,0.924679,0.380724,0.004045,0.000957
7407,-0.069966,6.992840,7.040251,0.444938,0.024215,-0.091183,44.771484,0.388454,0.276348,0.924636,0.380829,0.004053,0.000939
7408,-0.068019,6.997314,7.042204,0.422534,-0.081752,0.004600,44.785931,0.388790,0.274648,0.924588,0.380946,0.004050,0.000923
7409,-0.067821,7.000807,7.041718,0.428645,-0.091227,0.014158,44.800098,0.386524,0.272839,0.924541,0.381060,0.004026,0.000916
7411,-0.063483,7.000761,7.040110,0.347450,-0.237578,0.175393,44.813023,0.380410,0.271219,0.924498,0.381165,0.003971,0.000923
7412,-0.064808,7.000508,7.040810,0.182449,-0.134733,0.063978,44.821850,0.373196,0.269675,0.924469,0.381236,0.003908,0.000934
7413,-0.066883,6.999217,7.044752,-0.121997,-0.002078,-0.061483,44.822842,0.371549,0.268097,0.924466,0.381245,0.003889,0.000927
7414,-0.069199,6.993122,7.045084,-0.402626,0.110399,-0.177326,44.814091,0.375635,0.266546,0.924495,0.381174,0.003917,0.000901
7415,-0.070295,6.993919,7.045545,-0.287468,0.134155,-0.181703,44.802582,0.382744,0.265173,0.924533,0.381081,0.003970,0.000867
7416,-0.072460,6.994807,7.045142,-0.110505,0.168516,-0.220280,44.795940,0.391044,0.263974,0.924555,0.381027,0.004033,0.000830
7417,-0.071477,6.994813,7.043473,0.027083,0.070390,-0.112359,44.794540,0.397776,0.262845,0.924559,0.381016,0.004083,0.000798
7418,-0.070926,6.998662,7.042993,0.219710,0.003360,-0.043944,44.798645,0.400484,0.261863,0.924546,0.381049,0.004102,0.000781
7419,-0.071506,6.998641,7.041656,0.230700,0.005196,-0.041040,44.806149,0.401583,0.260959,0.924521,0.381109,0.004108,0.000770
7420,-0.072345,6.995791,7.035983,0.271364,0.023061,-0.070548,44.814510,0.403228,0.259971,0.924493,0.381177,0.004118,0.000756
7421,-0.074316,6.991675,7.035354,0.041785,0.101188,-0.142869,44.819721,0.407204,0.258907,0.924475,0.381219,0.004146,0.000734
7422,-0.077306,6.992309,7.034214,0.057499,0.192659,-0.236623,44.821365,0.415136,0.257873,0.924470,0.381232,0.004207,0.000699
7423,-0.075036,6.984551,7.034031,-0.266517,0.046520,-0.102379,44.817875,0.421946,0.256675,0.924481,0.381203,0.004258,0.000667
7424,-0.071096,6.984518,7.035187,-0.263222,-0.152956,0.098652,44.809036,0.420732,0.255381,0.924511,0.381132,0.004244,0.000661
7425,-0.074149,6.984142,7.039592,-0.380269,-0.014493,-0.026315,44.798306,0.417902,0.254269,0.924546,0.381046,0.004217,0.000662
7426,-0.065468,6.984341,7.044329,-0.459054,-0.360797,0.306194,44.784309,0.410177,0.253173,0.924593,0.380933,0.004151,0.000679
7427,-0.066704,6.977111,7.045768,-0.677378,-0.253777,0.212998,44.765354,0.396811,0.252101,0.924656,0.380781,0.004040,0.000716
7428,-0.066246,6.980251,7.044083,-0.293547,-0.179072,0.155006,44.749172,0.387369,0.251377,0.924710,0.380650,0.003961,0.000742
7429,-0.066785,6.982467,7.046116,-0.132626,-0.099082,0.088098,44.742069,0.381225,0.250991,0.924734,0.380593,0.003910,0.000759
7430,-0.070069,6.986474,7.045445,0.148326,0.075269,-0.103540,44.742329,0.381124,0.250529,0.924733,0.380595,0.003908,0.000756
7431,-0.075550,6.988780,7.040761,0.435421,0.304174,-0.336922,44.752056,0.390783,0.249767,0.924701,0.380673,0.003983,0.000717
7432,-0.078216,6.987011,7.044573,0.116735,0.335273,-0.387615,44.761250,0.406853,0.248696,0.924670,0.380747,0.004109,0.000655
7433,-0.080914,6.988609,7.047292,-0.024904,0.334640,-0.386957,44.762775,0.423872,0.247392,0.924664,0.380759,0.004242,0.000588
7434,-0.084261,6.989697,7.045542,0.074131,0.353220,-0.421160,44.763577,0.441496,0.245901,0.924661,0.380765,0.004380,0.000517
7435,-0.079575,6.992785,7.041643,0.346515,0.039272,-0.108298,44.770576,0.452354,0.244243,0.924638,0.380821,0.004462,0.000467
7436,-0.081874,6.997721,7.038216,0.610574,0.060661,-0.126451,44.786514,0.456293,0.242639,0.924585,0.380950,0.004488,0.000441
7437,-0.073449,7.003702,7.038356,0.681120,-0.310280,0.245642,44.808037,0.451941,0.241118,0.924513,0.381124,0.004448,0.000442
7438,-0.071535,7.002469,7.039839,0.353660,-0.359594,0.278891,44.825260,0.437859,0.239450,0.924456,0.381263,0.004329,0.000475
7439,-0.075806,6.997512,7.041701,-0.097224,-0.085150,0.002803,44.829525,0.429292,0.237555,0.924442,0.381298,0.004254,0.000488
7440,-0.069449,6.990982,7.039421,-0.316046,-0.267166,0.201194,44.822624,0.422731,0.235827,0.924465,0.381242,0.004195,0.000496
7441,-0.066024,6.985002,7.040581,-0.533315,-0.358120,0.298395,44.808460,0.409469,0.234388,0.924513,0.381129,0.004083,0.000529
7442,-0.070933,6.985369,7.039768,-0.345074,-0.066368,-0.006237,44.793812,0.401018,0.232858,0.924562,0.381011,0.004010,0.000545
7443,-0.075163,6.989005,7.038599,0.005679,0.165162,-0.232636,44.788147,0.404991,0.231193,0.924581,0.380965,0.004036,0.000519
7444,-0.071060,6.992998,7.032639,0.477767,-0.031529,-0.032710,44.796192,0.409688,0.229624,0.924554,0.381030,0.004069,0.000490
7445,-0.074234,6.994123,7.035591,0.324754,0.045311,-0.128699,44.809547,0.411746,0.227877,0.924509,0.381138,0.004080,0.000469
7446,-0.073889,6.990438,7.040306,-0.154781,0.012389,-0.102381,44.812370,0.415143,0.225823,0.924500,0.381160,0.004100,0.000441
7447,-0.075715,6.990418,7.042321,-0.265784,0.062087,-0.152910,44.805347,0.419022,0.223679,0.924523,0.381104,0.004125,0.000411
7448,-0.073185,6.989651,7.042248,-0.219386,-0.071722,-0.016488,44.797234,0.420898,0.221562,0.924550,0.381038,0.004133,0.000388
7449,-0.071504,6.991530,7.040105,0.021218,-0.141902,0.070916,44.793922,0.417732,0.219697,0.924561,0.381012,0.004101,0.000384
7450,-0.069553,6.995656,7.042181,0.145029,-0.198522,0.142053,44.796680,0.411205,0.218218,0.924552,0.381034,0.004043,0.000393
7451,-0.070305,6.996930,7.043249,0.118575,-0.112838,0.075015,44.801067,0.404973,0.217129,0.924538,0.381070,0.003989,0.000405
7452,-0.065292,6.995356,7.037799,0.233564,-0.258270,0.238771,44.806931,0.396900,0.216481,0.924518,0.381117,0.003922,0.000426
7453,-0.064513,6.984879,7.035547,-0.167298,-0.240086,0.204674,44.808037,0.385798,0.215871,0.924515,0.381126,0.003831,0.000458
7454,-0.065178,6.981025,7.035543,-0.337834,-0.146322,0.113109,44.799603,0.377497,0.215091,0.924543,0.381059,0.003761,0.000480
7455,-0.067839,6.975264,7.034544,-0.449429,0.024104,-0.066287,44.786484,0.375501,0.214210,0.924587,0.380953,0.003742,0.000480
7456,-0.069392,6.983497,7.034377,0.052495,0.088888,-0.139757,44.779858,0.379257,0.213099,0.924609,0.380899,0.003768,0.000459
7457,-0.075621,6.982453,7.035110,0.053623,0.305662,-0.356318,44.781620,0.389748,0.211863,0.924603,0.380913,0.003849,0.000414
7458,-0.074677,6.986061,7.032588,0.277609,0.202522,-0.238076,44.787136,0.402739,0.210798,0.924584,0.380958,0.003950,0.000362
7459,-0.073313,6.986471,7.037432,0.043504,0.059740,-0.112442,44.792480,0.409956,0.209732,0.924566,0.381001,0.004005,0.000329
7460,-0.072418,6.988023,7.040458,-0.078606,-0.017512,-0.014103,44.791885,0.411942,0.208731,0.924568,0.380996,0.004018,0.000314
7461,-0.067624,6.979039,7.041047,-0.481928,-0.225357,0.192875,44.782539,0.406970,0.207994,0.924599,0.380921,0.003975,0.000325
7462,-0.062354,6.979718,7.040659,-0.347924,-0.390360,0.359419,44.768707,0.393202,0.207300,0.924645,0.380809,0.003862,0.000366
7463,-0.062669,6.982871,7.042816,-0.155757,-0.276785,0.242317,44.760311,0.378245,0.206590,0.924674,0.380742,0.003739,0.000410
7464,-0.061437,6.981721,7.041636,-0.067897,-0.227954,0.179471,44.756580,0.367322,0.205659,0.924686,0.380712,0.003647,0.000439
7465,-0.060142,6.978577,7.037930,-0.011904,-0.211217,0.140589,44.755245,0.358368,0.204293,0.924691,0.380702,0.003571,0.000458
7466,-0.064607,6.982321,7.036274,0.222568,0.034762,-0.099700,44.758747,0.355800,0.202706,0.924679,0.380730,0.003545,0.000454
7467,-0.063652,6.980839,7.038103,0.056846,0.000776,-0.078097,44.763393,0.358307,0.201019,0.924664,0.380767,0.003559,0.000431
7468,-0.061751,6.974582,7.037066,-0.221043,-0.100976,0.014457,44.760635,0.357868,0.199090,0.924673,0.380745,0.003549,0.000417
7469,-0.067900,6.976795,7.037311,-0.118761,0.163771,-0.224321,44.754963,0.361074,0.197343,0.924692,0.380700,0.003569,0.000393
7470,-0.068305,6.979238,7.038142,0.004454,0.159089,-0.210926,44.753052,0.370003,0.195980,0.924698,0.380684,0.003637,0.000352
7471,-0.070465,6.980354,7.037136,0.114889,0.190940,-0.250725,44.755032,0.379563,0.194624,0.924691,0.380700,0.003709,0.000309
7472,-0.078236,6.984649,7.039878,0.150568,0.443708,-0.487197,44.759449,0.395733,0.193338,0.924676,0.380735,0.003836,0.000245
7473,-0.083781,6.991324,7.043860,0.236342,0.554111,-0.585341,44.765896,0.420129,0.192356,0.924654,0.380786,0.004029,0.000156
7474,-0.079981,6.991761,7.045977,0.106816,0.223914,-0.259183,44.771599,0.439248,0.191496,0.924635,0.380832,0.004181,0.000085
7475,-0.083912,6.992021,7.043976,0.137133,0.254475,-0.299842,44.775658,0.451470,0.190497,0.924621,0.380864,0.004276,0.000037
7476,-0.079791,6.988724,7.044058,-0.051003,-0.013592,-0.035752,44.777084,0.458259,0.189354,0.924616,0.380876,0.004327,0.000005
7477,-0.076605,6.984473,7.043403,-0.205290,-0.186086,0.125896,44.772804,0.454839,0.188077,0.924630,0.380841,0.004295,0.000006
7478,-0.072028,6.985357,7.040953,-0.034213,-0.337474,0.290209,44.768803,0.443759,0.186855,0.924644,0.380809,0.004202,0.000033
7479,-0.075094,6.983078,7.039697,-0.038095,-0.138451,0.088192,44.767590,0.433687,0.185746,0.924648,0.380800,0.004117,0.000058
7480,-0.072641,6.986855,7.040456,0.098069,-0.175435,0.144700,44.768581,0.427239,0.184817,0.924645,0.380808,0.004062,0.000071
7481,-0.075929,6.984794,7.037630,0.118604,0.015514,-0.033908,44.772190,0.424046,0.184251,0.924633,0.380837,0.004034,0.000077
7482,-0.072444,6.985202,7.036608,0.137829,-0.096907,0.086929,44.776463,0.422461,0.183923,0.924619,0.380872,0.004020,0.000080
7483,-0.073356,6.985507,7.032975,0.258649,-0.045390,0.035496,44.783077,0.419340,0.183701,0.924597,0.380925,0.003994,0.000088
7484,-0.068612,6.988165,7.033899,0.265437,-0.227721,0.207394,44.791809,0.413258,0.183367,0.924568,0.380996,0.003944,0.000105
7485,-0.068970,6.982087,7.031374,0.031738,-0.161706,0.144008,44.796757,0.404526,0.182950,0.924552,0.381036,0.003872,0.000131
7486,-0.067341,6.987574,7.029343,0.300716,-0.164447,0.147767,44.802296,0.397242,0.182571,0.924534,0.381081,0.003812,0.000152
7487,-0.067671,6.985126,7.029704,0.121094,-0.110358,0.089368,44.809326,0.391207,0.182147,0.924511,0.381138,0.003762,0.000168
7488,-0.066534,6.983615,7.027077,0.086762,-0.121132,0.086133,44.812782,0.386408,0.181503,0.924499,0.381166,0.003721,0.000179
7489,-0.067700,6.980456,7.027906,-0.114244,-0.033637,0.007958,44.812321,0.383473,0.180798,0.924501,0.381162,0.003695,0.000183
7490,-0.069788,6.984664,7.035813,-0.245372,0.059029,-0.100654,44.806324,0.384862,0.180000,0.924521,0.381114,0.003704,0.000172
7491,-0.067474,6.981107,7.036827,-0.378756,-0.051894,0.014485,44.795914,0.385959,0.179065,0.924555,0.381030,0.003709,0.000161
7492,-0.064590,6.982659,7.034707,-0.110937,-0.173598,0.133140,44.787746,0.381558,0.178163,0.924583,0.380964,0.003671,0.000169
7493,-0.066797,6.984145,7.036712,-0.046913,-0.053759,0.014754,44.785107,0.377132,0.177243,0.924591,0.380943,0.003632,0.000176
7494,-0.062615,6.986773,7.035095,0.154623,-0.194655,0.156468,44.786896,0.372184,0.176351,0.924586,0.380958,0.003589,0.000186
7495,-0.060596,6.984911,7.029713,0.267442,-0.235913,0.203095,44.793926,0.362869,0.175549,0.924562,0.381015,0.003511,0.000210
7496,-0.061755,6.988397,7.031974,0.252504,-0.131036,0.068301,44.802586,0.355342,0.174449,0.924534,0.381085,0.003447,0.000226
7497,-0.061847,6.986648,7.031734,0.097959,-0.084849,0.001330,44.808418,0.351971,0.172737,0.924514,0.381132,0.003414,0.000223
7498,-0.065343,6.985321,7.034446,-0.123707,0.073559,-0.165548,44.807980,0.353767,0.170662,0.924516,0.381128,0.003422,0.000200
7499,-0.068883,6.989100,7.035217,-0.003391,0.214786,-0.304779,44.805843,0.362700,0.168487,0.924523,0.381111,0.003487,0.000153
7500,-0.069648,6.990264,7.037250,-0.023256,0.182081,-0.273913,44.805386,0.374190,0.166306,0.924524,0.381107,0.003572,0.000097
7501,-0.071071,6.980924,7.037003,-0.388566,0.163769,-0.257610,44.798500,0.384522,0.164082,0.924547,0.381051,0.003648,0.000045
7502,-0.076770,6.984200,7.038339,-0.229124,0.325397,-0.406052,44.788197,0.398101,0.161976,0.924581,0.380968,0.003751,-0.000017
7503,-0.075835,6.984115,7.040164,-0.200727,0.201168,-0.270278,44.781021,0.412270,0.160158,0.924604,0.380910,0.003859,-0.000078
7504,-0.075515,6.979573,7.038974,-0.268468,0.083840,-0.169729,44.773186,0.420808,0.158298,0.924630,0.380846,0.003922,-0.000121
7505,-0.074069,6.972486,7.037088,-0.402867,-0.037903,-0.048806,44.761986,0.423916,0.156251,0.924667,0.380756,0.003940,-0.000148
7506,-0.074954,6.984572,7.036684,0.214035,-0.015302,-0.044946,44.758827,0.424387,0.154517,0.924678,0.380731,0.003938,-0.000163
7507,-0.071536,6.986053,7.039394,0.179319,-0.152230,0.086017,44.765373,0.421922,0.153037,0.924656,0.380783,0.003913,-0.000167
7508,-0.066998,6.988111,7.038508,0.232794,-0.316237,0.252273,44.772232,0.412408,0.151541,0.924633,0.380839,0.003831,-0.000148
7509,-0.070166,6.992816,7.037476,0.409729,-0.114126,0.077819,44.782932,0.403442,0.150394,0.924598,0.380926,0.003755,-0.000128
7510,-0.070748,6.998405,7.039140,0.473046,-0.029421,-0.010357,44.797630,0.400952,0.149506,0.924549,0.381044,0.003732,-0.000127
7511,-0.069384,6.990950,7.034842,0.188033,-0.068157,0.020754,44.808647,0.399676,0.148483,0.924513,0.381133,0.003718,-0.000131
7512,-0.072699,6.993640,7.029233,0.431887,0.073934,-0.093703,44.818974,0.400601,0.147688,0.924478,0.381217,0.003723,-0.000141
7514,-0.075855,6.999957,7.025666,0.731135,0.193015,-0.207556,44.838360,0.407296,0.147264,0.924414,0.381373,0.003776,-0.000168
7515,-0.074271,6.992809,7.031013,0.019136,0.075967,-0.118111,44.850857,0.414302,0.146577,0.924372,0.381474,0.003830,-0.000197
7516,-0.074842,6.991166,7.030645,-0.164264,0.050726,-0.097927,44.848431,0.418339,0.145513,0.924380,0.381454,0.003859,-0.000219
7517,-0.073614,7.003430,7.033292,0.258856,-0.029236,-0.007975,44.850002,0.419837,0.144514,0.924375,0.381467,0.003868,-0.000232
7518,-0.070971,7.001050,7.035274,0.054398,-0.153516,0.096902,44.855213,0.416633,0.143417,0.924357,0.381509,0.003838,-0.000230
7519,-0.072097,6.992787,7.038405,-0.452778,-0.092410,0.020145,44.848564,0.412351,0.141909,0.924380,0.381455,0.003799,-0.000228
7520,-0.066318,6.999701,7.029697,0.245306,-0.290126,0.242298,44.845100,0.404746,0.140514,0.924391,0.381428,0.003733,-0.000214
7521,-0.065559,6.995304,7.031287,0.030628,-0.275480,0.222548,44.849682,0.392599,0.139359,0.924376,0.381465,0.003631,-0.000183
7522,-0.067358,6.980995,7.037191,-0.839243,-0.119793,0.051622,44.836201,0.384706,0.137953,0.924421,0.381356,0.003563,-0.000167
7523,-0.066172,6.982989,7.036124,-0.565494,-0.111306,0.045789,44.812778,0.380829,0.136390,0.924499,0.381167,0.003526,-0.000166
7524,-0.067747,6.983083,7.037179,-0.379507,-0.016997,-0.042997,44.797020,0.379280,0.134916,0.924552,0.381040,0.003509,-0.000173
7525,-0.075511,6.975527,7.042840,-0.753286,0.306480,-0.370727,44.778122,0.387561,0.133421,0.924614,0.380888,0.003571,-0.000212
7526,-0.075413,6.983112,7.045235,-0.348984,0.251107,-0.305780,44.759743,0.402100,0.131962,0.924675,0.380739,0.003683,-0.000271
7527,-0.072312,6.984103,7.045410,-0.128577,0.030752,-0.068306,44.751778,0.409825,0.130842,0.924701,0.380675,0.003742,-0.000306
7528,-0.075330,6.979026,7.043437,-0.183099,0.104039,-0.130782,44.746578,0.413757,0.130067,0.924719,0.380633,0.003771,-0.000325
7529,-0.068597,6.978334,7.042718,-0.116576,-0.196576,0.172291,44.741577,0.412174,0.129473,0.924735,0.380592,0.003756,-0.000324
7530,-0.066192,6.981958,7.038536,0.249243,-0.288191,0.256176,44.743786,0.401409,0.128857,0.924728,0.380611,0.003667,-0.000293
7531,-0.064644,6.978233,7.034475,0.250329,-0.264726,0.238792,44.752110,0.389057,0.128228,0.924701,0.380678,0.003565,-0.000258
7532,-0.066052,6.984955,7.034073,0.456254,-0.136212,0.096719,44.763882,0.380374,0.127494,0.924662,0.380773,0.003493,-0.000235
7533,-0.067341,6.987057,7.038383,0.241677,-0.019365,-0.034954,44.775505,0.377808,0.126398,0.924623,0.380867,0.003469,-0.000236
7534,-0.073367,6.987537,7.040201,0.065036,0.247726,-0.293980,44.780609,0.384372,0.125188,0.924606,0.380908,0.003518,-0.000268
7535,-0.073806,6.987454,7.045978,-0.213681,0.228745,-0.261231,44.778126,0.396526,0.124213,0.924614,0.380888,0.003612,-0.000316
7536,-0.073193,6.991735,7.040677,0.193088,0.107389,-0.142798,44.777767,0.405246,0.123378,0.924615,0.380885,0.003680,-0.000351
7537,-0.076114,6.986210,7.040877,-0.041107,0.171384,-0.213177,44.780300,0.412723,0.122440,0.924607,0.380905,0.003737,-0.000384
7538,-0.072466,6.984981,7.038415,-0.005872,-0.027300,-0.000549,44.779510,0.416937,0.121603,0.924609,0.380899,0.003768,-0.000405
7539,-0.067974,6.990182,7.037642,0.243667,-0.251699,0.201915,44.783466,0.411272,0.120709,0.924596,0.380931,0.003720,-0.000393
7540,-0.065434,6.984495,7.033241,0.141021,-0.327920,0.258397,44.789871,0.399011,0.119349,0.924575,0.380983,0.003616,-0.000364
7541,-0.068931,6.987560,7.031604,0.278480,-0.098643,0.027487,44.796848,0.390609,0.117721,0.924552,0.381039,0.003543,-0.000349
7542,-0.063929,6.983796,7.029172,0.145840,-0.248220,0.174776,44.803913,0.384132,0.116040,0.924529,0.381096,0.003485,-0.000341
7543,-0.064869,6.986080,7.025535,0.301949,-0.159577,0.092923,44.811363,0.376165,0.114415,0.924504,0.381157,0.003415,-0.000328
7544,-0.061780,6.980775,7.024277,0.051960,-0.219066,0.166457,44.817257,0.368642,0.113034,0.924485,0.381204,0.003350,-0.000314
7545,-0.066149,6.984303,7.024551,0.131166,0.013210,-0.069762,44.820297,0.365072,0.111759,0.924475,0.381229,0.003317,-0.000313
7546,-0.065712,6.978494,7.024934,-0.160853,0.020359,-0.073344,44.819798,0.367150,0.110461,0.924476,0.381225,0.003330,-0.000330
7547,-0.070413,6.987840,7.025912,0.202956,0.196493,-0.236064,44.820492,0.373349,0.109351,0.924474,0.381231,0.003376,-0.000360
7548,-0.070749,6.989847,7.030723,0.094402,0.158267,-0.205221,44.825443,0.382727,0.108303,0.924457,0.381270,0.003448,-0.000400
7549,-0.072008,6.993437,7.031415,0.163807,0.145842,-0.199882,44.829735,0.391081,0.107087,0.924443,0.381305,0.003511,-0.000437
7550,-0.068933,7.000626,7.035673,0.226512,-0.032156,-0.008503,44.836235,0.394874,0.105960,0.924421,0.381357,0.003538,-0.000459
7551,-0.070863,7.006204,7.039482,0.236235,0.033328,-0.067502,44.843941,0.395781,0.105076,0.924395,0.381420,0.003542,-0.000470
7552,-0.069482,7.000304,7.040967,-0.144121,-0.025972,-0.019890,44.845474,0.396895,0.104129,0.924390,0.381432,0.003548,-0.000481
7553,-0.064537,6.997262,7.041906,-0.323672,-0.242772,0.180300,44.837669,0.391834,0.102867,0.924416,0.381369,0.003503,-0.000474
7554,-0.065816,6.994559,7.041769,-0.338547,-0.160246,0.102578,44.826618,0.383746,0.101474,0.924453,0.381280,0.003433,-0.000458
7555,-0.066997,6.994066,7.041025,-0.205803,-0.064394,0.000905,44.817535,0.379875,0.100059,0.924483,0.381207,0.003398,-0.000456
7556,-0.062325,6.992653,7.042680,-0.241698,-0.239135,0.163627,44.810055,0.374353,0.098438,0.924508,0.381147,0.003348,-0.000451
7557,-0.061545,6.994316,7.045221,-0.203777,-0.232495,0.160439,44.802624,0.364970,0.096731,0.924533,0.381087,0.003266,-0.000433
7558,-0.068652,6.999400,7.042550,0.196494,0.135543,-0.178730,44.802494,0.364039,0.095376,0.924534,0.381086,0.003254,-0.000441
7559,-0.071030,7.003913,7.045148,0.272239,0.238418,-0.280182,44.810295,0.373851,0.094341,0.924508,0.381149,0.003330,-0.000482
7560,-0.069039,7.001718,7.042176,0.228403,0.104962,-0.125277,44.818638,0.382673,0.093581,0.924480,0.381216,0.003399,-0.000518
7561,-0.070786,6.994841,7.045413,-0.255979,0.113819,-0.129606,44.818176,0.388254,0.093138,0.924481,0.381212,0.003442,-0.000540
7562,-0.074491,6.995921,7.043536,-0.135388,0.225144,-0.251259,44.811642,0.396736,0.092617,0.924502,0.381159,0.003509,-0.000572
7563,-0.069876,6.990200,7.045079,-0.385515,-0.030331,-0.011848,44.802956,0.402130,0.091794,0.924531,0.381089,0.003550,-0.000597
7564,-0.065595,6.988734,7.040460,-0.184575,-0.246324,0.203260,44.793446,0.396610,0.090808,0.924563,0.381013,0.003502,-0.000586
7565,-0.066702,6.976241,7.037937,-0.500857,-0.175680,0.110292,44.782013,0.387937,0.089562,0.924601,0.380920,0.003428,-0.000567
7566,-0.067344,6.981566,7.035623,-0.079952,-0.093922,0.024196,44.772327,0.383168,0.087989,0.924634,0.380842,0.003384,-0.000563
7567,-0.064965,6.985318,7.033127,0.286246,-0.154740,0.097002,44.775745,0.378804,0.086503,0.924622,0.380870,0.003344,-0.000561
7568,-0.067068,6.988086,7.035011,0.294916,-0.038386,-0.023027,44.785427,0.375651,0.085111,0.924590,0.380948,0.003314,-0.000562
7569,-0.070935,6.990917,7.034332,0.358646,0.149964,-0.194381,44.796314,0.379523,0.083850,0.924554,0.381036,0.003341,-0.000585
7570,-0.070039,7.000619,7.037581,0.511746,0.092978,-0.130358,44.810814,0.386210,0.082863,0.924506,0.381153,0.003392,-0.000616
7571,-0.072290,6.995070,7.032732,0.335482,0.139086,-0.174773,44.824928,0.392538,0.081981,0.924458,0.381267,0.003440,-0.000645
7572,-0.069220,6.996655,7.034472,0.188464,-0.029913,-0.008295,44.833656,0.395980,0.081100,0.924429,0.381337,0.003464,-0.000664
7573,-0.068695,6.992481,7.035454,-0.103617,-0.081209,0.039826,44.835064,0.394296,0.080167,0.924425,0.381349,0.003448,-0.000665
7574,-0.066790,6.992524,7.036333,-0.153253,-0.150761,0.096325,44.830780,0.389954,0.079051,0.924439,0.381314,0.003409,-0.000660
7575,-0.067093,6.989022,7.035852,-0.229779,-0.119377,0.058322,44.824383,0.384944,0.077705,0.924460,0.381263,0.003364,-0.000654
7576,-0.064053,6.997269,7.041553,-0.058498,-0.202573,0.145647,44.819572,0.378742,0.076333,0.924477,0.381224,0.003309,-0.000644
7577,-0.065483,6.989665,7.040098,-0.277921,-0.105373,0.050234,44.813957,0.372800,0.075032,0.924495,0.381179,0.003257,-0.000635
7578,-0.067637,6.991587,7.037886,-0.049944,0.027666,-0.084432,44.808483,0.372283,0.073715,0.924514,0.381135,0.003249,-0.000644
7579,-0.067946,6.987049,7.038854,-0.220604,0.045466,-0.106714,44.803955,0.375392,0.072313,0.924528,0.381098,0.003269,-0.000665
7580,-0.068533,6.990443,7.043054,-0.207178,0.049068,-0.113232,44.796825,0.379093,0.070822,0.924552,0.381041,0.003294,-0.000689
7581,-0.068738,6.991346,7.039674,0.049402,0.022187,-0.090259,44.794186,0.382326,0.069252,0.924561,0.381019,0.003315,-0.000713
7582,-0.070750,6.990486,7.038675,0.078168,0.082251,-0.155682,44.796303,0.386449,0.067570,0.924554,0.381036,0.003343,-0.000740
7583,-0.064329,6.991789,7.041079,0.018654,-0.218799,0.136560,44.797901,0.385059,0.065740,0.924548,0.381049,0.003325,-0.000750
7584,-0.065140,6.996212,7.043224,0.093556,-0.182691,0.093861,44.799759,0.377605,0.063750,0.924542,0.381065,0.003259,-0.000741
7585,-0.070985,6.996665,7.040706,0.192866,0.116565,-0.194788,44.804523,0.378008,0.061780,0.924527,0.381103,0.003255,-0.000759
7586,-0.069135,6.990087,7.043647,-0.243806,0.051892,-0.131703,44.803658,0.383835,0.059898,0.924529,0.381096,0.003296,-0.000793
7587,-0.069004,6.995461,7.045927,-0.101707,0.016489,-0.078584,44.797886,0.387113,0.058214,0.924548,0.381050,0.003317,-0.000818
7588,-0.074903,6.993453,7.041245,0.036730,0.247723,-0.300572,44.796799,0.394690,0.056832,0.924552,0.381041,0.003373,-0.000854
7589,-0.074533,6.980389,7.036580,-0.295108,0.187162,-0.233026,44.792473,0.406099,0.055628,0.924566,0.381006,0.003462,-0.000901
7590,-0.069806,6.972994,7.031741,-0.355461,-0.096222,0.044669,44.781631,0.409387,0.054467,0.924602,0.380918,0.003484,-0.000921
7591,-0.077161,6.976923,7.030876,-0.061066,0.171106,-0.223603,44.774681,0.412373,0.053229,0.924625,0.380862,0.003504,-0.000941
7592,-0.077050,6.971899,7.027996,-0.083604,0.147081,-0.210583,44.772259,0.421235,0.051827,0.924633,0.380842,0.003571,-0.000982
7593,-0.073460,6.975728,7.033114,-0.107586,-0.068429,0.013658,44.769062,0.424477,0.050420,0.924643,0.380817,0.003593,-0.001004
7594,-0.079636,6.985412,7.036355,0.189840,0.153071,-0.204428,44.770424,0.427717,0.049156,0.924639,0.380828,0.003615,-0.001025
7595,-0.077384,6.994774,7.037340,0.518289,0.044729,-0.101166,44.782215,0.433645,0.047863,0.924599,0.380923,0.003658,-0.001055
7596,-0.071609,6.990249,7.040347,0.080414,-0.232923,0.175950,44.792187,0.430541,0.046538,0.924566,0.381003,0.003629,-0.001056
7597,-0.072137,6.993384,7.040692,0.098228,-0.199052,0.131905,44.795139,0.421817,0.045107,0.924556,0.381027,0.003553,-0.001039
7598,-0.071157,6.993739,7.038781,0.171606,-0.179710,0.099619,44.799633,0.414618,0.043397,0.924542,0.381064,0.003490,-0.001029
7599,-0.068404,6.990788,7.042092,-0.130411,-0.230846,0.157906,44.800304,0.406739,0.041621,0.924540,0.381069,0.003420,-0.001017
7600,-0.076037,6.991725,7.046892,-0.301567,0.143332,-0.201608,44.793095,0.406217,0.040077,0.924564,0.381011,0.003411,-0.001027
7601,-0.079720,6.991870,7.044415,-0.110658,0.297843,-0.363833,44.786217,0.418074,0.038569,0.924586,0.380955,0.003501,-0.001079
7602,-0.077420,6.986701,7.047963,-0.401020,0.122971,-0.177919,44.777679,0.429413,0.037101,0.924614,0.380886,0.003588,-0.001128
7603,-0.079243,6.988067,7.048409,-0.283893,0.120468,-0.158940,44.766243,0.436247,0.035972,0.924652,0.380794,0.003640,-0.001159
7604,-0.077363,6.990317,7.048799,-0.087151,-0.006172,-0.026656,44.760063,0.439778,0.035117,0.924672,0.380744,0.003665,-0.001178
7605,-0.069780,6.990906,7.046043,0.107841,-0.358787,0.307011,44.760395,0.432169,0.034152,0.924672,0.380747,0.003601,-0.001160
7606,-0.069534,6.990792,7.045687,0.106660,-0.308635,0.272529,44.763962,0.417469,0.033177,0.924660,0.380776,0.003479,-0.001120
7607,-0.071621,6.990024,7.041432,0.218731,-0.121732,0.074523,44.769382,0.408303,0.032233,0.924642,0.380820,0.003402,-0.001097
7608,-0.077225,6.989788,7.039524,0.230968,0.179716,-0.224474,44.776867,0.410749,0.031139,0.924617,0.380880,0.003418,-0.001114
7609,-0.075950,6.986191,7.037746,0.071869,0.105928,-0.169574,44.781906,0.418755,0.029830,0.924600,0.380921,0.003478,-0.001151
7610,-0.076921,6.980917,7.035330,-0.087354,0.100477,-0.156834,44.781639,0.425028,0.028392,0.924601,0.380919,0.003524,-0.001184
7611,-0.076833,6.981628,7.036897,-0.114694,0.047085,-0.111781,44.778263,0.429928,0.026946,0.924612,0.380891,0.003559,-0.001212
7612,-0.077547,6.986989,7.039644,0.022590,0.040527,-0.096138,44.776718,0.433405,0.025515,0.924617,0.380879,0.003582,-0.001235
7613,-0.067775,6.979167,7.043093,-0.427735,-0.393996,0.322704,44.769951,0.426563,0.024047,0.924640,0.380825,0.003522,-0.001224
7614,-0.066271,6.984654,7.041421,-0.070047,-0.395306,0.338377,44.761650,0.409464,0.022605,0.924668,0.380758,0.003379,-0.001178
7615,-0.066380,6.981411,7.043957,-0.212556,-0.273172,0.208028,44.756931,0.395141,0.021226,0.924684,0.380720,0.003259,-0.001142
7617,-0.065979,6.985042,7.045885,-0.082586,-0.174671,0.131255,44.752003,0.385859,0.019987,0.924701,0.380680,0.003180,-0.001121
7618,-0.064297,6.984493,7.046157,-0.063811,-0.168462,0.135844,44.749561,0.378664,0.019122,0.924709,0.380661,0.003119,-0.001104
7619,-0.068828,6.992315,7.045093,0.330582,0.071973,-0.091283,44.754002,0.376999,0.018517,0.924694,0.380697,0.003104,-0.001103
7620,-0.071509,6.987488,7.044573,0.107978,0.178513,-0.209546,44.761307,0.383494,0.017896,0.924670,0.380756,0.003154,-0.001130
7621,-0.070007,6.989971,7.046041,0.070975,0.069855,-0.089918,44.764290,0.389947,0.017267,0.924660,0.380780,0.003204,-0.001156
7622,-0.066677,6.988715,7.040681,0.195469,-0.119655,0.087217,44.768723,0.389390,0.016651,0.924645,0.380815,0.003197,-0.001160
7623,-0.067205,6.987514,7.036818,0.265230,-0.089693,0.048929,44.776382,0.385314,0.015804,0.924619,0.380877,0.003162,-0.001153
7624,-0.067107,6.978275,7.030573,0.063872,-0.056609,0.000385,44.781868,0.383005,0.014670,0.924601,0.380922,0.003139,-0.001155
7625,-0.067501,6.974758,7.028043,-0.012353,-0.027876,-0.032060,44.782719,0.382377,0.013303,0.924599,0.380928,0.003129,-0.001164
7626,-0.069503,6.975626,7.024630,0.152390,0.064688,-0.126977,44.785046,0.384680,0.011854,0.924591,0.380947,0.003143,-0.001183
7627,-0.069812,6.975363,7.021251,0.250017,0.060759,-0.129714,44.791740,0.389178,0.010291,0.924568,0.381001,0.003174,-0.001211
7628,-0.069904,6.973036,7.021616,0.069563,0.030651,-0.095411,44.797058,0.392902,0.008702,0.924551,0.381044,0.003199,-0.001236
7629,-0.070357,6.980994,7.028821,0.049420,0.021133,-0.081599,44.799030,0.395593,0.007216,0.924544,0.381060,0.003216,-0.001257
7630,-0.069926,6.980680,7.032565,-0.146463,-0.014200,-0.045287,44.797401,0.397166,0.005797,0.924549,0.381047,0.003224,-0.001274
7631,-0.070339,6.981971,7.035086,-0.176819,-0.003252,-0.036690,44.792004,0.397922,0.004622,0.924567,0.381003,0.003226,-0.001286
7632,-0.068523,6.983906,7.040417,-0.258958,-0.080398,0.042107,44.784733,0.396869,0.003704,0.924591,0.380945,0.003214,-0.001289
7633,-0.070041,6.987616,7.042310,-0.126440,-0.011099,-0.020651,44.778309,0.395534,0.002884,0.924613,0.380893,0.003201,-0.001291
7634,-0.068480,6.986488,7.043305,-0.138150,-0.067220,0.042476,44.773895,0.394352,0.002223,0.924627,0.380857,0.003189,-0.001293
7635,-0.069261,6.992167,7.041953,0.196734,-0.021484,0.003336,44.774868,0.392764,0.001724,0.924624,0.380865,0.003175,-0.001292
7636,-0.070682,6.988087,7.044828,-0.092519,0.037690,-0.074935,44.776596,0.393797,0.001067,0.924618,0.380879,0.003181,-0.001300
7637,-0.070940,6.989594,7.044579,-0.027232,0.039420,-0.066964,44.774601,0.396375,0.000293,0.924625,0.380863,0.003199,-0.001315
7638,-0.068613,6.991291,7.047872,-0.065509,-0.083090,0.054220,44.773048,0.396008,-0.000370,0.924630,0.380851,0.003194,-0.001319
7639,-0.070263,6.996276,7.049397,0.081485,-0.016497,-0.017918,44.773308,0.394403,-0.001110,0.924629,0.380853,0.003179,-0.001320
7640,-0.070280,6.995476,7.051447,-0.047816,-0.002190,-0.028713,44.773865,0.394729,-0.001881,0.924627,0.380857,0.003179,-0.001327
7641,-0.069837,7.003075,7.054934,0.105397,-0.016469,-0.009965,44.774818,0.394963,-0.002558,0.924624,0.380865,0.003178,-0.001333
7642,-0.068717,7.000995,7.054115,0.043984,-0.059089,0.025583,44.777306,0.393885,-0.003260,0.924616,0.380885,0.003167,-0.001336
7643,-0.063936,7.003403,7.052629,0.187176,-0.245087,0.203795,44.781155,0.387594,-0.004117,0.924603,0.380916,0.003114,-0.001322
7644,-0.066895,6.990841,7.045493,-0.066489,-0.078314,0.035788,44.783161,0.380956,-0.005080,0.924597,0.380933,0.003057,-0.001307
7645,-0.062325,6.985774,7.041008,-0.111829,-0.223015,0.182079,44.780178,0.374833,-0.006040,0.924607,0.380909,0.003004,-0.001295
7646,-0.061374,6.984118,7.034762,0.111927,-0.223772,0.181826,44.780178,0.365275,-0.006980,0.924607,0.380909,0.002924,-0.001271
7647,-0.066906,6.984138,7.035987,0.053737,0.065963,-0.113760,44.782932,0.362609,-0.008028,0.924598,0.380931,0.002899,-0.001270
7648,-0.070150,6.980899,7.031235,0.092939,0.219746,-0.263055,44.785366,0.370413,-0.009131,0.924590,0.380951,0.002958,-0.001305
7649,-0.067972,6.984458,7.034762,0.067919,0.081105,-0.110450,44.788040,0.378357,-0.010017,0.924581,0.380972,0.003019,-0.001339
7650,-0.069688,6.990977,7.039416,0.131121,0.100715,-0.137125,44.791355,0.383415,-0.010810,0.924569,0.380999,0.003058,-0.001362
7651,-0.072879,6.993035,7.042608,0.046374,0.194124,-0.226022,44.794308,0.391166,-0.011643,0.924559,0.381023,0.003117,-0.001395
7652,-0.071026,6.989228,7.042529,-0.137417,0.061614,-0.079432,44.792786,0.397778,-0.012253,0.924564,0.381010,0.003169,-0.001421
7653,-0.071882,6.988181,7.044806,-0.263880,0.047399,-0.055816,44.786095,0.400655,-0.012573,0.924587,0.380956,0.003191,-0.001433
7654,-0.073963,6.988163,7.047902,-0.323577,0.108257,-0.133560,44.776299,0.404720,-0.012986,0.924619,0.380877,0.003222,-0.001450
7655,-0.074084,6.980936,7.046710,-0.479696,0.082408,-0.113927,44.762909,0.409881,-0.013677,0.924663,0.380769,0.003262,-0.001472
7656,-0.072904,6.979404,7.041071,-0.180901,0.008065,-0.040265,44.751884,0.412761,-0.014440,0.924700,0.380680,0.003283,-0.001488
7657,-0.073676,6.982883,7.041290,0.066208,0.024330,-0.058511,44.749969,0.414304,-0.015229,0.924706,0.380665,0.003293,-0.001499
7658,-0.072253,6.987079,7.038173,0.388867,-0.043604,-0.007756,44.757542,0.414853,-0.016239,0.924681,0.380726,0.003294,-0.001509
7659,-0.067543,6.988883,7.033916,0.551286,-0.242411,0.189625,44.773212,0.409334,-0.017444,0.924629,0.380852,0.003245,-0.001501
7660,-0.066682,6.997963,7.031743,0.861227,-0.238361,0.196310,44.796741,0.399116,-0.018523,0.924551,0.381042,0.003159,-0.001477
7661,-0.064306,6.998019,7.033232,0.570665,-0.265009,0.219804,44.820599,0.388276,-0.019516,0.924472,0.381235,0.003068,-0.001449
7662,-0.065295,6.994141,7.030692,0.285965,-0.152378,0.102049,44.834869,0.379561,-0.020615,0.924425,0.381350,0.002993,-0.001429
7663,-0.064530,6.985002,7.036631,-0.480777,-0.123356,0.066068,44.831619,0.374326,-0.021868,0.924436,0.381324,0.002947,-0.001422
7664,-0.065730,6.988855,7.041421,-0.479144,-0.041763,-0.007387,44.815605,0.371685,-0.023114,0.924489,0.381195,0.002922,-0.001423
7665,-0.068343,6.994864,7.042204,-0.106240,0.081360,-0.141485,44.805843,0.373902,-0.024409,0.924521,0.381116,0.002935,-0.001440
7666,-0.066723,6.991280,7.041398,-0.115009,-0.004480,-0.057820,44.802147,0.377152,-0.025863,0.924534,0.381086,0.002957,-0.001463
7667,-0.063399,6.997545,7.045903,-0.015335,-0.163673,0.095188,44.799965,0.374724,-0.027396,0.924541,0.381069,0.002932,-0.001467
7668,-0.064808,7.004498,7.045381,0.310709,-0.089997,0.029626,44.804871,0.370259,-0.028899,0.924525,0.381108,0.002891,-0.001465
7669,-0.065737,7.008626,7.039088,0.689455,-0.012081,-0.039838,44.821529,0.369172,-0.030219,0.924469,0.381243,0.002878,-0.001472
7670,-0.062827,6.994504,7.042426,-0.189241,-0.123958,0.078544,44.829865,0.367109,-0.031360,0.924442,0.381310,0.002857,-0.001475
7671,-0.066100,6.994114,7.045380,-0.419378,0.015554,-0.066637,44.819714,0.365687,-0.032493,0.924475,0.381228,0.002842,-0.001479
7672,-0.067791,6.989636,7.042226,-0.369957,0.104241,-0.137563,44.806557,0.369502,-0.033500,0.924519,0.381122,0.002870,-0.001499
7673,-0.068481,6.992613,7.037145,0.090339,0.104946,-0.150792,44.801880,0.375363,-0.034453,0.924534,0.381084,0.002914,-0.001526
7674,-0.071060,6.989184,7.036503,0.022640,0.168087,-0.221696,44.803753,0.382966,-0.035651,0.924528,0.381099,0.002971,-0.001561
7675,-0.069494,6.998746,7.034823,0.465517,0.048922,-0.103761,44.811886,0.389355,-0.036950,0.924501,0.381165,0.003018,-0.001593
7676,-0.066866,7.001806,7.032454,0.605948,-0.095848,0.039871,44.829735,0.389551,-0.038257,0.924441,0.381309,0.003015,-0.001605
7677,-0.070011,7.001183,7.035049,0.285686,0.018975,-0.096996,44.844585,0.389314,-0.039835,0.924392,0.381429,0.003008,-0.001617
7678,-0.071672,6.999063,7.035988,0.010641,0.096711,-0.149571,44.849514,0.393579,-0.041389,0.924375,0.381469,0.003037,-0.001644
7679,-0.070289,6.994549,7.035903,-0.223037,0.012742,-0.051531,44.845966,0.397236,-0.042479,0.924387,0.381440,0.003063,-0.001665
7680,-0.079815,6.988906,7.037067,-0.467670,0.372132,-0.415931,44.834446,0.407278,-0.043481,0.924425,0.381347,0.003141,-0.001706
7681,-0.080649,6.990968,7.034637,-0.172125,0.345891,-0.371567,44.823772,0.425018,-0.044352,0.924460,0.381261,0.003281,-0.001772
7682,-0.080007,6.988762,7.033810,-0.113047,0.193274,-0.208575,44.819016,0.438208,-0.044876,0.924475,0.381222,0.003386,-0.001820
7683,-0.081865,6.984537,7.033786,-0.227009,0.176235,-0.183813,44.813351,0.447186,-0.045174,0.924494,0.381177,0.003458,-0.001852
7684,-0.078311,6.985896,7.035414,-0.185477,-0.041227,0.014487,44.806473,0.450771,-0.045591,0.924517,0.381121,0.003485,-0.001867
7685,-0.076682,6.988780,7.027483,0.321589,-0.111173,0.104750,44.808735,0.447568,-0.045971,0.924509,0.381139,0.003458,-0.001860
7686,-0.076103,6.984349,7.024852,0.229130,-0.118806,0.105186,44.817917,0.442383,-0.046190,0.924479,0.381213,0.003415,-0.001844
7687,-0.068184,6.991721,7.025462,0.425411,-0.409036,0.391013,44.828823,0.430314,-0.046526,0.924443,0.381302,0.003317,-0.001807
7688,-0.066674,6.995009,7.025603,0.442248,-0.402708,0.354515,44.843273,0.411959,-0.047254,0.924395,0.381418,0.003166,-0.001752
