seq,ax,ay,az,wroll,wpitch,wyaw,roll,pitch,yaw
6750,6.905532,6.969598,0.124398,-0.036458,-0.101425,0.046150,88.977478,-44.730888,-88.547249
6752,6.903683,6.977841,0.125270,-0.052121,-0.089947,-0.053319,88.979156,-44.730827,-88.551735
6753,6.898309,6.979232,0.122398,-0.027784,-0.121640,-0.134166,88.981377,-44.727764,-88.556778
6754,6.904925,6.978421,0.121555,-0.011677,-0.137966,-0.029614,88.985046,-44.725109,-88.562927
6755,6.902829,6.970607,0.125029,-0.049970,-0.095433,0.044019,88.987869,-44.725407,-88.568398
6756,6.903217,6.969329,0.124316,-0.047187,-0.084793,0.062230,88.989197,-44.727245,-88.572578
6757,6.900571,6.969168,0.125112,-0.059151,-0.075349,0.028845,88.990036,-44.728802,-88.576294
6759,6.903163,6.969818,0.127689,-0.092377,-0.042775,0.051482,88.989441,-44.730175,-88.579041
6760,6.898554,6.961608,0.131238,-0.139108,0.011997,0.074440,88.986061,-44.732292,-88.579712
6761,6.894258,6.964291,0.127178,-0.096597,-0.032923,-0.033890,88.982475,-44.732971,-88.580193
6762,6.899569,6.970674,0.126657,-0.090880,-0.047406,-0.054723,88.980698,-44.731514,-88.582115
6763,6.900682,6.982471,0.129423,-0.118451,-0.014787,-0.198709,88.978310,-44.727303,-88.583672
6764,6.905511,6.976012,0.124946,-0.056039,-0.076319,-0.052720,88.976967,-44.723141,-88.585907
6766,6.909297,6.977496,0.127060,-0.083034,-0.059443,-0.003843,88.976913,-44.722240,-88.589119
6767,6.914230,6.977178,0.134622,-0.166362,0.014148,0.079371,88.973488,-44.723511,-88.590157
6768,6.912101,6.975852,0.133863,-0.149070,-0.014962,0.072984,88.968208,-44.726051,-88.590118
6769,6.911985,6.962782,0.129672,-0.098086,-0.074244,0.226504,88.965469,-44.731071,-88.592079
6770,6.904821,6.969226,0.138205,-0.209419,0.024222,0.036730,88.961098,-44.735470,-88.593140
6771,6.904274,6.969190,0.134579,-0.162328,-0.026600,0.021624,88.954918,-44.736439,-88.593170
6773,6.902532,6.967395,0.132382,-0.124585,-0.048704,0.012877,88.951370,-44.737041,-88.594925
6774,6.905552,6.963742,0.134374,-0.137256,-0.019380,0.093643,88.948097,-44.738834,-88.596474
6775,6.900502,6.972036,0.135710,-0.140952,-0.008057,-0.069354,88.943901,-44.739254,-88.597107
6776,6.899370,6.971981,0.130989,-0.057590,-0.075297,-0.065896,88.942017,-44.737026,-88.599129
6777,6.897533,6.965665,0.131573,-0.054332,-0.070587,-0.015020,88.942589,-44.735725,-88.602592
6778,6.897548,6.966351,0.129764,-0.026432,-0.089056,-0.017883,88.943886,-44.735226,-88.606346
6780,6.894262,6.976545,0.131610,-0.049039,-0.068189,-0.190651,88.945297,-44.731800,-88.610130
6781,6.894752,6.974469,0.132949,-0.069869,-0.060523,-0.160996,88.945541,-44.725986,-88.613297
6782,6.896186,6.969698,0.129490,-0.040507,-0.106500,-0.079158,88.946526,-44.722034,-88.617310
6783,6.897933,6.978139,0.133240,-0.102010,-0.063982,-0.143491,88.947037,-44.718372,-88.621407
6784,6.901777,6.972715,0.129585,-0.069247,-0.109327,-0.022457,88.947075,-44.715656,-88.625534
6785,6.898416,6.966122,0.127972,-0.058398,-0.120871,0.020515,88.948746,-44.715694,-88.630936
6787,6.904946,6.965060,0.124960,-0.028227,-0.141754,0.130113,88.951599,-44.718296,-88.637032
6788,6.907182,6.971193,0.130290,-0.089840,-0.069110,0.074676,88.953033,-44.721760,-88.641884
6789,6.905461,6.970891,0.125077,-0.008930,-0.113811,0.040499,88.954384,-44.723736,-88.646126
6790,6.901761,6.975728,0.127650,-0.037300,-0.079140,-0.074114,88.956802,-44.723232,-88.650665
6791,6.902177,6.978772,0.129097,-0.049132,-0.059320,-0.100342,88.957703,-44.720371,-88.653992
6792,6.899517,6.980236,0.129287,-0.044921,-0.064318,-0.135332,88.958244,-44.716476,-88.656982
6794,6.901062,6.976744,0.125225,0.000955,-0.108016,-0.073700,88.960434,-44.713055,-88.661133
6795,6.902795,6.976864,0.121159,0.045242,-0.161548,-0.040237,88.965675,-44.711231,-88.667496
6796,6.902870,6.977351,0.123931,-0.000118,-0.108986,-0.039743,88.970917,-44.709980,-88.673874
6797,6.906906,6.972648,0.122930,-0.002739,-0.115979,0.063146,88.974571,-44.710442,-88.679138
6798,6.909297,6.970385,0.125629,-0.048470,-0.077751,0.107332,88.976860,-44.713333,-88.683609
6799,6.909195,6.972400,0.130926,-0.125045,-0.008857,0.083321,88.975342,-44.716541,-88.685562
6801,6.907336,6.966672,0.132471,-0.138754,0.002479,0.121224,88.970993,-44.719948,-88.685631
6802,6.910367,6.961103,0.127116,-0.065274,-0.073562,0.217366,88.968666,-44.725620,-88.687157
6803,6.911781,6.965072,0.124843,-0.034100,-0.098985,0.172065,88.969749,-44.732166,-88.691048
6804,6.909804,6.964079,0.121555,0.009555,-0.121871,0.140215,88.972893,-44.737434,-88.696091
6805,6.911837,6.966547,0.119417,0.044172,-0.145233,0.119368,88.978111,-44.741837,-88.702240
6806,6.910947,6.964244,0.125311,-0.032979,-0.070407,0.126747,88.981804,-44.746010,-88.707207
6808,6.910739,6.966944,0.128917,-0.081286,-0.029297,0.081556,88.981468,-44.749496,-88.709450
6809,6.912645,6.965946,0.130762,-0.110112,-0.008740,0.116248,88.978867,-44.752823,-88.710281
6810,6.914610,6.960643,0.132737,-0.130435,-0.002228,0.199227,88.974937,-44.758076,-88.710396
6811,6.910743,6.958329,0.128695,-0.071754,-0.065913,0.159349,88.972588,-44.764069,-88.711845
6812,6.908647,6.967911,0.123213,-0.000927,-0.139333,0.000062,88.974724,-44.766788,-88.716591
6813,6.908494,6.966478,0.118513,0.063156,-0.207697,0.018398,88.981491,-44.767208,-88.724731
6814,6.903071,6.965057,0.113356,0.126018,-0.261601,-0.035693,88.992409,-44.767056,-88.735764
6815,6.904229,6.968567,0.112767,0.120684,-0.249749,-0.077618,89.004997,-44.765308,-88.747803
6816,6.906899,6.968430,0.119082,0.015461,-0.141449,-0.034144,89.013763,-44.763557,-88.757027
6817,6.912226,6.962148,0.121724,-0.039636,-0.093890,0.108972,89.017227,-44.764874,-88.762520
6818,6.912205,6.961349,0.124015,-0.090343,-0.045074,0.102562,89.017296,-44.768440,-88.765694
6819,6.914678,6.960263,0.128280,-0.159010,0.011920,0.137595,89.013626,-44.772446,-88.766373
6820,6.910277,6.962881,0.131690,-0.198431,0.045145,0.046114,89.006668,-44.775490,-88.764954
6821,6.908473,6.966317,0.128637,-0.141636,-0.009975,-0.020407,89.000412,-44.775909,-88.764122
6822,6.906744,6.973360,0.125215,-0.097274,-0.058108,-0.121072,88.997589,-44.773567,-88.765770
6823,6.907359,6.980127,0.125814,-0.098994,-0.071977,-0.179237,88.996559,-44.768604,-88.768951
6824,6.907013,6.979998,0.124964,-0.079289,-0.085697,-0.177910,88.996292,-44.762691,-88.772789
6825,6.909910,6.978886,0.124658,-0.082973,-0.083165,-0.102941,88.996452,-44.758064,-88.776871
6826,6.913466,6.974984,0.122923,-0.074740,-0.097673,-0.004470,88.996849,-44.756332,-88.781166
6827,6.911491,6.969252,0.124226,-0.071431,-0.083719,0.034609,88.997414,-44.756889,-88.785416
6828,6.906215,6.960194,0.124873,-0.065555,-0.059945,0.073014,88.997467,-44.758728,-88.788742
6829,6.902395,6.957572,0.126376,-0.084977,-0.049476,0.066087,88.996735,-44.761074,-88.791252
6830,6.901893,6.959423,0.126122,-0.072691,-0.058034,0.029926,88.995850,-44.762699,-88.793732
6831,6.898964,6.955867,0.124871,-0.042863,-0.078616,0.029400,88.996162,-44.763729,-88.796921
6832,6.904722,6.961119,0.127857,-0.100723,-0.039428,0.034678,88.995697,-44.764828,-88.799660
6833,6.908713,6.970597,0.124293,-0.061239,-0.097129,-0.040496,88.995255,-44.764771,-88.802864
6834,6.916193,6.971176,0.120330,0.005594,-0.152861,0.043955,88.998474,-44.764908,-88.808746
6835,6.917350,6.973762,0.120707,-0.004893,-0.149763,0.020047,89.003471,-44.766064,-88.815819
6836,6.921304,6.962682,0.123454,-0.067293,-0.116831,0.202516,89.006607,-44.769844,-88.821976
6837,6.914367,6.963006,0.122002,-0.043261,-0.125253,0.098075,89.008682,-44.774925,-88.827545
6838,6.916544,6.957605,0.126030,-0.094625,-0.063455,0.188902,89.009430,-44.779762,-88.831863
6839,6.908316,6.960841,0.128284,-0.124682,-0.024786,0.032207,89.007164,-44.783474,-88.833847
6840,6.904666,6.960507,0.123880,-0.069653,-0.079990,-0.015694,89.005638,-44.783772,-88.836288
6841,6.897802,6.969931,0.125181,-0.063215,-0.058579,-0.204734,89.005783,-44.780144,-88.839622
6842,6.902342,6.961759,0.126004,-0.077009,-0.056957,-0.035073,89.005424,-44.776180,-88.842438
6843,6.900655,6.963465,0.124885,-0.068315,-0.063494,-0.079042,89.005035,-44.774319,-88.845322
6844,6.904279,6.961439,0.124955,-0.088882,-0.065613,-0.007943,89.004570,-44.772903,-88.848381
6845,6.904385,6.960639,0.126767,-0.115513,-0.036372,0.007456,89.002846,-44.772926,-88.850777
6846,6.904315,6.966567,0.125788,-0.114712,-0.058643,-0.068247,89.000595,-44.771946,-88.853027
6847,6.902879,6.967232,0.124917,-0.103419,-0.070944,-0.096069,88.999146,-44.769241,-88.856133
6848,6.897676,6.970510,0.125057,-0.111436,-0.067324,-0.178052,88.997925,-44.764709,-88.859482
6849,6.894741,6.972101,0.127531,-0.129391,-0.032068,-0.216236,88.995667,-44.758163,-88.861977
6850,6.894807,6.967678,0.127301,-0.121090,-0.032486,-0.146027,88.992668,-44.752148,-88.863647
6851,6.897116,6.968283,0.124449,-0.076344,-0.065376,-0.111420,88.991074,-44.747887,-88.866051
6852,6.902956,6.972918,0.122255,-0.042566,-0.091758,-0.083168,88.991737,-44.744690,-88.869820
6853,6.908153,6.977561,0.123062,-0.037337,-0.088217,-0.073777,88.993431,-44.742134,-88.874115
6854,6.909778,6.979061,0.116822,0.033432,-0.172226,-0.065903,88.997704,-44.739880,-88.880280
6855,6.913432,6.983899,0.116395,0.024166,-0.176569,-0.067094,89.004456,-44.737762,-88.888504
6856,6.912332,6.984930,0.116855,0.010002,-0.156103,-0.099200,89.010567,-44.735088,-88.896378
6857,6.904357,6.979319,0.118410,-0.028884,-0.115585,-0.107523,89.014801,-44.731716,-88.902840
6858,6.905107,6.975389,0.120240,-0.064989,-0.093139,-0.048773,89.016724,-44.729176,-88.907799
6859,6.904736,6.975965,0.120473,-0.069162,-0.073692,-0.054391,89.017273,-44.727505,-88.911751
6860,6.899697,6.970034,0.118225,-0.028020,-0.101124,-0.040580,89.018585,-44.725975,-88.915909
6861,6.900538,6.969124,0.118966,-0.051606,-0.102511,-0.003583,89.020630,-44.725304,-88.920700
6862,6.901712,6.968003,0.121882,-0.075990,-0.068341,0.019295,89.021324,-44.725609,-88.924706
6863,6.900185,6.962234,0.116925,-0.015020,-0.125050,0.079690,89.022972,-44.727310,-88.929199
6864,6.905088,6.967594,0.120859,-0.062312,-0.082634,0.078713,89.025063,-44.730007,-88.934006
6865,6.909226,6.968741,0.123824,-0.109769,-0.046721,0.117184,89.024277,-44.733315,-88.936966
6866,6.909318,6.963611,0.122391,-0.101035,-0.063844,0.171738,89.022514,-44.738155,-88.939445
6867,6.912592,6.965503,0.117867,-0.046256,-0.130342,0.174584,89.023163,-44.743980,-88.943863
6868,6.913385,6.965888,0.120772,-0.071083,-0.094949,0.153146,89.024841,-44.749508,-88.949020
6869,6.908375,6.960003,0.124913,-0.126453,-0.039940,0.134791,89.023682,-44.754337,-88.952057
6870,6.903754,6.958271,0.122784,-0.098650,-0.057482,0.075040,89.021484,-44.757862,-88.954262
6871,6.902893,6.962025,0.129147,-0.152396,0.028848,-0.000278,89.017746,-44.759121,-88.954903
6872,6.901005,6.963884,0.133688,-0.216678,0.089007,-0.053674,89.009659,-44.758186,-88.952148
6873,6.902155,6.961789,0.130701,-0.195279,0.045913,-0.003302,89.000587,-44.757195,-88.949020
6874,6.903640,6.961677,0.127474,-0.142988,-0.010904,0.025390,88.994362,-44.757553,-88.948181
6875,6.908727,6.969495,0.132973,-0.207859,0.041892,-0.013573,88.988007,-44.757748,-88.947456
6876,6.910028,6.977503,0.126230,-0.109606,-0.054098,-0.095330,88.982948,-44.755936,-88.947792
6877,6.907587,6.975801,0.122453,-0.043192,-0.115401,-0.087295,88.983253,-44.752937,-88.951836
6878,6.903620,6.978104,0.129486,-0.121434,-0.033620,-0.146958,88.983047,-44.749084,-88.955444
6879,6.905912,6.971607,0.126409,-0.078232,-0.071015,-0.033006,88.981499,-44.746113,-88.957977
6880,6.902000,6.964170,0.122257,-0.010625,-0.120781,0.020380,88.983185,-44.745956,-88.962471
6881,6.900224,6.953432,0.122971,-0.032061,-0.113643,0.129865,88.986313,-44.748531,-88.967918
6882,6.902366,6.954289,0.123249,-0.040056,-0.104337,0.136822,88.988625,-44.753040,-88.972923
6883,6.905581,6.950024,0.120545,-0.007764,-0.120992,0.205495,88.991455,-44.758816,-88.978065
6884,6.903120,6.952668,0.122423,-0.042463,-0.094252,0.134167,88.994080,-44.764538,-88.982986
6885,6.905056,6.955530,0.126790,-0.109348,-0.031907,0.114999,88.993568,-44.768726,-88.985847
6886,6.908129,6.956881,0.128530,-0.119253,-0.008582,0.130128,88.990356,-44.772823,-88.986694
6887,6.903806,6.963336,0.131089,-0.134175,0.025503,-0.024883,88.985817,-44.774563,-88.986244
6888,6.903014,6.969136,0.130459,-0.125852,0.003594,-0.105609,88.981049,-44.772392,-88.985626
6889,6.902463,6.977714,0.126935,-0.065283,-0.040936,-0.210342,88.978577,-44.767147,-88.986641
6890,6.904491,6.980762,0.124555,-0.012985,-0.093017,-0.213193,88.979607,-44.760124,-88.989960
6891,6.899354,6.980541,0.123498,-0.004504,-0.100690,-0.247386,88.982658,-44.752510,-88.994698
6892,6.906699,6.973436,0.119791,0.015587,-0.140825,-0.039540,88.986908,-44.747791,-89.000481
6893,6.906792,6.974376,0.120755,0.014153,-0.121302,-0.032740,88.991745,-44.746662,-89.006660
6894,6.908961,6.969211,0.125144,-0.041253,-0.049793,0.059857,88.994125,-44.747166,-89.010674
6895,6.906708,6.962971,0.121140,-0.004026,-0.084416,0.111961,88.995537,-44.750072,-89.013748
6896,6.908205,6.967075,0.121399,-0.008487,-0.077754,0.074355,88.997948,-44.753227,-89.017471
6897,6.904792,6.974958,0.126020,-0.052628,-0.019299,-0.073186,88.998528,-44.753273,-89.019745
6898,6.902302,6.972702,0.126341,-0.062623,-0.007766,-0.079641,88.997108,-44.750736,-89.020454
6899,6.900354,6.976840,0.124248,-0.044232,-0.033881,-0.151973,88.996086,-44.746887,-89.021523
6900,6.896960,6.984022,0.128268,-0.092651,0.017751,-0.274339,88.994186,-44.739780,-89.022079
6901,6.896886,6.980761,0.128274,-0.095214,0.014688,-0.229298,88.990662,-44.731377,-89.021523
6902,6.900339,6.975346,0.126902,-0.080151,-0.013240,-0.100718,88.987816,-44.725880,-89.021622
6903,6.903838,6.974591,0.126003,-0.063301,-0.038800,-0.031496,88.986313,-44.723682,-89.022888
6904,6.905933,6.971019,0.125567,-0.057953,-0.059174,0.055799,88.985909,-44.724121,-89.025185
6905,6.909544,6.969693,0.125877,-0.069118,-0.067413,0.112694,88.985825,-44.726967,-89.028069
6906,6.910676,6.971250,0.129027,-0.101752,-0.030318,0.112815,88.984528,-44.730755,-89.030281
6907,6.907143,6.969826,0.134510,-0.169913,0.033329,0.085742,88.979889,-44.734062,-89.030113
6908,6.906049,6.970853,0.134488,-0.163987,0.028132,0.046371,88.973267,-44.736240,-89.028618
6909,6.903244,6.968105,0.132153,-0.124098,-0.009735,0.034040,88.968132,-44.737576,-89.028152
6910,6.907351,6.966087,0.131991,-0.114789,-0.009566,0.107422,88.964432,-44.739937,-89.028549
6911,6.906230,6.966664,0.134379,-0.146456,0.008668,0.077667,88.960045,-44.743027,-89.028496
6912,6.903153,6.971440,0.126721,-0.038889,-0.083844,-0.025862,88.958183,-44.743912,-89.030243
6913,6.903000,6.972263,0.128283,-0.056856,-0.067274,-0.031514,88.959099,-44.743004,-89.033806
6914,6.904004,6.972321,0.133604,-0.132080,-0.003590,-0.029242,88.957146,-44.742012,-89.035500
6915,6.898456,6.971826,0.127960,-0.042268,-0.087088,-0.095470,88.955780,-44.739960,-89.037682
6917,6.900144,6.973701,0.125336,-0.001012,-0.114368,-0.093041,88.958435,-44.736877,-89.042480
6918,6.903054,6.970850,0.125877,-0.013933,-0.098442,-0.023094,88.961731,-44.735004,-89.047523
6919,6.902478,6.969210,0.125870,-0.020723,-0.090515,-0.007428,88.964279,-44.734550,-89.051964
6920,6.907158,6.968717,0.125956,-0.010512,-0.083652,0.067459,88.966629,-44.735615,-89.056038
6921,6.908496,6.963417,0.129969,-0.065190,-0.018683,0.149458,88.966980,-44.739258,-89.058334
6922,6.909761,6.959477,0.129157,-0.047399,-0.028199,0.206014,88.965775,-44.745197,-89.059288
6923,6.911663,6.958597,0.131242,-0.059530,-0.018102,0.212086,88.964630,-44.752178,-89.060196
6924,6.912004,6.957512,0.125105,0.022884,-0.096734,0.207318,88.965797,-44.759209,-89.062714
6925,6.906902,6.963460,0.123914,0.015930,-0.114277,0.049435,88.969849,-44.763546,-89.067558
6926,6.908860,6.971511,0.121522,0.024547,-0.140949,-0.042996,88.974747,-44.763737,-89.073555
6927,6.905861,6.970994,0.122191,0.002637,-0.129293,-0.072884,88.979706,-44.761883,-89.079948
6928,6.906178,6.975066,0.121104,0.004994,-0.135454,-0.111967,88.984253,-44.758877,-89.086235
6929,6.902146,6.975837,0.125729,-0.062284,-0.075443,-0.177891,88.986870,-44.754112,-89.091293
6930,6.903270,6.976705,0.130206,-0.103428,-0.006130,-0.158804,88.985558,-44.748528,-89.093353
6931,6.903524,6.971965,0.133957,-0.143132,0.031783,-0.074487,88.981087,-44.744637,-89.092842
6932,6.908295,6.962238,0.128401,-0.081691,-0.044627,0.108757,88.977547,-44.745209,-89.093132
6933,6.906639,6.960809,0.128254,-0.079439,-0.049791,0.120798,88.976349,-44.749062,-89.095253
6934,6.913498,6.959653,0.127537,-0.081183,-0.055628,0.207311,88.975304,-44.754562,-89.097580
6935,6.911933,6.950722,0.119936,0.005370,-0.156454,0.275686,88.977402,-44.762669,-89.102348
6936,6.915272,6.950216,0.121685,-0.025776,-0.125938,0.296268,88.981560,-44.772282,-89.108742
6937,6.911504,6.957860,0.126179,-0.081704,-0.052192,0.135503,88.982597,-44.779537,-89.112755
6938,6.912482,6.955326,0.127408,-0.108276,-0.024600,0.148147,88.980614,-44.784283,-89.114433
6939,6.910297,6.964027,0.129157,-0.106797,-0.002189,0.023702,88.977425,-44.787155,-89.114990
6940,6.912020,6.971555,0.135438,-0.170721,0.073337,-0.047286,88.971634,-44.786739,-89.113335
6941,6.908270,6.974737,0.134640,-0.137679,0.052649,-0.126028,88.964455,-44.783810,-89.110451
6942,6.911224,6.976663,0.135774,-0.143560,0.048979,-0.104534,88.958153,-44.779938,-89.108154
6943,6.910264,6.977108,0.135394,-0.129288,0.039505,-0.104498,88.952202,-44.776421,-89.106163
6944,6.910178,6.969170,0.132397,-0.086478,-0.012549,-0.008125,88.948196,-44.774532,-89.105583
6945,6.909121,6.966883,0.124670,0.013578,-0.130513,0.004818,88.949356,-44.774529,-89.108948
6946,6.907696,6.960894,0.121162,0.049586,-0.170294,0.061030,88.955353,-44.775711,-89.115974
6947,6.904713,6.959791,0.121231,0.051665,-0.158229,0.029557,88.962448,-44.777325,-89.123650
6948,6.901818,6.956217,0.117571,0.087299,-0.198251,0.032997,88.970650,-44.778481,-89.131996
6949,6.900311,6.958998,0.119707,0.059665,-0.145486,-0.023374,88.978767,-44.778740,-89.140053
6950,6.899583,6.958295,0.121021,0.024806,-0.109311,-0.027421,88.984398,-44.777966,-89.146057
6951,6.900316,6.966799,0.120051,0.013440,-0.109988,-0.128470,88.988724,-44.775444,-89.151283
6952,6.901036,6.969585,0.117166,0.035808,-0.136399,-0.152358,88.993683,-44.770821,-89.157166
6953,6.906630,6.968441,0.121247,-0.018132,-0.090739,-0.059308,88.997787,-44.767368,-89.162582
6954,6.906136,6.970287,0.120390,-0.033118,-0.118122,-0.074744,89.000427,-44.765186,-89.167542
6955,6.907299,6.968825,0.124392,-0.093299,-0.056008,-0.037240,89.001236,-44.763374,-89.171669
6956,6.907401,6.965022,0.129464,-0.147791,0.001597,0.010276,88.998123,-44.762939,-89.172966
6957,6.907440,6.966797,0.133437,-0.195221,0.039865,-0.006886,88.991714,-44.762985,-89.171982
6958,6.903435,6.972294,0.131424,-0.170028,0.013991,-0.123311,88.984772,-44.760796,-89.170769
6959,6.902896,6.970982,0.128404,-0.125365,-0.016816,-0.110615,88.979958,-44.756901,-89.170929
6960,6.904010,6.971332,0.125531,-0.082292,-0.069058,-0.089571,88.977974,-44.753593,-89.173027
6961,6.902286,6.970568,0.121043,-0.028199,-0.125668,-0.084175,88.979408,-44.750755,-89.177673
6962,6.901151,6.966701,0.120428,-0.026584,-0.127992,-0.048231,88.982727,-44.748623,-89.183693
6963,6.900578,6.965174,0.120059,-0.033416,-0.136747,-0.037718,88.986130,-44.747276,-89.189934
6964,6.901677,6.967672,0.124653,-0.098231,-0.084445,-0.055309,88.987617,-44.745792,-89.195168
6965,6.900667,6.969413,0.126560,-0.123844,-0.052430,-0.071177,88.986214,-44.743725,-89.198433
6966,6.901581,6.966850,0.123810,-0.081979,-0.088748,-0.034281,88.985138,-44.742004,-89.201775
6967,6.909897,6.967099,0.120345,-0.035666,-0.138061,0.078870,88.986916,-44.742821,-89.207085
6968,6.911180,6.968644,0.121329,-0.038026,-0.109792,0.070354,88.989738,-44.745380,-89.212837
6969,6.911848,6.963305,0.121835,-0.048222,-0.094767,0.149168,88.991615,-44.749096,-89.217552
6970,6.918939,6.968229,0.124122,-0.067735,-0.069696,0.160927,88.992310,-44.754314,-89.221275
6971,6.917802,6.972111,0.132891,-0.175400,0.044526,0.090999,88.988609,-44.758522,-89.221771
6972,6.915103,6.975559,0.133798,-0.184934,0.047972,-0.008402,88.981049,-44.759865,-89.219559
6973,6.918203,6.976550,0.133973,-0.166336,0.030597,0.030432,88.973885,-44.760208,-89.217705
6974,6.919544,6.971534,0.128946,-0.083567,-0.052962,0.106159,88.970039,-44.762493,-89.218163
6975,6.909005,6.970521,0.129239,-0.089325,-0.041882,-0.017764,88.968704,-44.763988,-89.220352
6976,6.910132,6.969940,0.126369,-0.057863,-0.094699,-0.001151,88.968506,-44.763710,-89.223564
6977,6.905347,6.970539,0.125075,-0.027622,-0.105306,-0.064232,88.970406,-44.762680,-89.228279
6978,6.899491,6.972384,0.121952,-0.000378,-0.138225,-0.152241,88.974030,-44.759148,-89.234085
6979,6.898572,6.987607,0.120817,0.008568,-0.136078,-0.361920,88.978844,-44.750668,-89.240738
6980,6.903571,6.986041,0.116452,0.058253,-0.191867,-0.268758,88.985558,-44.740253,-89.248695
6981,6.901364,6.990993,0.114955,0.067818,-0.191177,-0.322824,88.994164,-44.730515,-89.257935
6982,6.903526,6.987334,0.118377,0.003887,-0.132609,-0.212480,89.000854,-44.721684,-89.265739
6983,6.907678,6.987203,0.121586,-0.023267,-0.096652,-0.144870,89.004425,-44.715794,-89.271278
6984,6.904210,6.983089,0.125148,-0.076925,-0.054615,-0.118203,89.005333,-44.711460,-89.274933
6985,6.901154,6.978262,0.125705,-0.087852,-0.044387,-0.077762,89.004272,-44.708221,-89.277328
6986,6.899531,6.972195,0.127859,-0.111405,-0.034425,-0.016646,89.002281,-44.706676,-89.279221
6987,6.899273,6.974510,0.126764,-0.088180,-0.072268,-0.049928,89.000725,-44.705589,-89.281738
6988,6.899845,6.967887,0.126910,-0.110516,-0.062227,0.043544,88.999641,-44.705524,-89.284904
6989,6.902791,6.966058,0.123834,-0.069455,-0.094772,0.109086,88.999184,-44.708111,-89.288521
6990,6.906464,6.969038,0.123894,-0.068872,-0.093843,0.113360,88.999931,-44.711880,-89.292854
6991,6.909713,6.975972,0.124540,-0.070415,-0.065450,0.067776,89.000191,-44.714939,-89.296524
6992,6.904848,6.978282,0.118662,0.002824,-0.122525,-0.038004,89.002159,-44.715496,-89.300919
6993,6.905881,6.985721,0.114446,0.058456,-0.174737,-0.112273,89.008125,-44.713081,-89.307961
6994,6.905241,6.988041,0.115032,0.033507,-0.160126,-0.136860,89.015251,-44.709015,-89.315895
6995,6.903574,6.985230,0.117057,-0.003036,-0.121354,-0.113842,89.020477,-44.704926,-89.322594
6996,6.902402,6.983692,0.116678,-0.012647,-0.118176,-0.103272,89.024223,-44.701370,-89.328308
6997,6.906198,6.980201,0.123021,-0.091879,-0.029332,0.000696,89.024948,-44.699707,-89.331802
6998,6.903681,6.974492,0.128773,-0.170439,0.050767,0.038579,89.020210,-44.700352,-89.331284
6999,6.901816,6.968189,0.131283,-0.186849,0.067544,0.086442,89.012268,-44.702404,-89.328461
7000,6.900424,6.970627,0.134145,-0.210013,0.082245,0.040340,89.003143,-44.704475,-89.324890
7001,6.906206,6.966963,0.127268,-0.112918,-0.015768,0.148030,88.996613,-44.707592,-89.323257
7002,6.906619,6.965325,0.125110,-0.075021,-0.058163,0.173070,88.994614,-44.712963,-89.324867
7003,6.906372,6.966826,0.124138,-0.058047,-0.074320,0.124700,88.994499,-44.717972,-89.327858
7004,6.908009,6.965662,0.119711,-0.003017,-0.121534,0.142952,88.996628,-44.722481,-89.332329
7005,6.909972,6.963827,0.118305,0.013917,-0.141978,0.184225,89.001068,-44.728012,-89.338379
7006,6.906072,6.963847,0.131370,-0.149332,0.019310,0.131267,89.000748,-44.733307,-89.341125
7007,6.905636,6.961505,0.130644,-0.144972,0.013395,0.140441,88.995224,-44.737820,-89.340248
7008,6.904068,6.964601,0.128199,-0.114692,-0.015270,0.084323,88.990868,-44.741566,-89.340210
7009,6.908811,6.969977,0.135022,-0.199422,0.066063,0.059585,88.984749,-44.743946,-89.338951
7010,6.906140,6.968728,0.130155,-0.126936,0.008375,0.025289,88.978050,-44.745338,-89.337166
7011,6.908005,6.967975,0.117657,0.035452,-0.159174,0.048841,88.978989,-44.746620,-89.340668
7012,6.909807,6.967545,0.117811,0.029003,-0.153184,0.069702,88.985191,-44.748688,-89.347954
7013,6.909441,6.967310,0.118528,0.019839,-0.144043,0.062023,88.990883,-44.750965,-89.354881
7014,6.906399,6.960104,0.111861,0.103412,-0.220151,0.118638,88.998901,-44.754082,-89.363350
7015,6.909389,6.964154,0.116847,0.034695,-0.147094,0.092172,89.007210,-44.757710,-89.371887
7016,6.906633,6.965896,0.123542,-0.057715,-0.043642,0.022703,89.009949,-44.759682,-89.376320
7017,6.906427,6.974256,0.121230,-0.034357,-0.064855,-0.078137,89.010216,-44.758781,-89.378876
7018,6.908864,6.971162,0.121522,-0.049762,-0.064450,-0.013156,89.010979,-44.757301,-89.381950
7020,6.906198,6.971589,0.123160,-0.071196,-0.054815,-0.053271,89.010941,-44.756226,-89.384766
7021,6.901625,6.972837,0.114639,0.032050,-0.160562,-0.120880,89.013901,-44.753380,-89.389900
7022,6.898920,6.977212,0.115062,0.012592,-0.150500,-0.203036,89.019875,-44.748070,-89.397324
7023,6.898920,6.979584,0.121203,-0.073847,-0.072209,-0.225464,89.022659,-44.740993,-89.402733
7024,6.897374,6.980705,0.119244,-0.030580,-0.087644,-0.234294,89.023697,-44.733387,-89.406670
7025,6.896472,6.987076,0.117285,-0.007940,-0.090617,-0.293590,89.026146,-44.724640,-89.411064
7026,6.899324,6.987720,0.118420,-0.028679,-0.074017,-0.230695,89.028389,-44.715946,-89.415123
7027,6.901487,6.989261,0.116528,0.000909,-0.091785,-0.196745,89.030777,-44.708870,-89.419174
7028,6.899383,6.983817,0.109632,0.088096,-0.170061,-0.131762,89.036667,-44.703465,-89.425446
7029,6.900933,6.983041,0.110988,0.053031,-0.137542,-0.101898,89.044159,-44.699654,-89.432739
7030,6.904367,6.980470,0.116600,-0.025610,-0.065760,-0.014437,89.047997,-44.697773,-89.437553
7031,6.904757,6.973759,0.121201,-0.082489,0.001105,0.075765,89.047249,-44.698814,-89.439049
7032,6.908026,6.970684,0.121990,-0.094901,0.012165,0.154286,89.044022,-44.702648,-89.438660
7033,6.907360,6.970474,0.126920,-0.157568,0.063866,0.143196,89.038467,-44.707584,-89.436760
7034,6.905942,6.970552,0.125327,-0.120234,0.021287,0.131041,89.032356,-44.712128,-89.434647
7035,6.906828,6.971761,0.129317,-0.158894,0.059858,0.121034,89.026291,-44.716305,-89.432640
7036,6.908759,6.972022,0.128147,-0.142763,0.027051,0.120037,89.019775,-44.720303,-89.430519
7037,6.908204,6.963723,0.124781,-0.095920,-0.022258,0.212525,89.015617,-44.725842,-89.430267
7038,6.908618,6.957809,0.126850,-0.110616,0.004922,0.260327,89.012314,-44.733719,-89.430473
7039,6.907753,6.952546,0.125520,-0.097913,-0.006584,0.289436,89.008720,-44.742882,-89.430290
7040,6.905029,6.952592,0.123060,-0.066420,-0.044310,0.210737,89.006683,-44.751244,-89.431290
7041,6.904154,6.962247,0.124469,-0.071153,-0.027831,0.061644,89.005508,-44.755810,-89.432877
7042,6.905009,6.969250,0.124831,-0.066252,-0.044915,-0.035475,89.004395,-44.756256,-89.434555
7043,6.907003,6.974857,0.122324,-0.041360,-0.079408,-0.073584,89.004684,-44.754471,-89.437515
7044,6.908854,6.974694,0.127179,-0.109838,-0.027228,-0.050881,89.003967,-44.752434,-89.440071
7045,6.909080,6.970369,0.124059,-0.072465,-0.063832,0.017398,89.002449,-44.751900,-89.442223
7046,6.908711,6.963488,0.123103,-0.072004,-0.073241,0.079397,89.002266,-44.753548,-89.445396
7047,6.906869,6.966364,0.123305,-0.075165,-0.058308,0.019103,89.001961,-44.755226,-89.448448
7048,6.904199,6.963612,0.119888,-0.028216,-0.113981,0.013262,89.003075,-44.755825,-89.452469
7049,6.908045,6.972177,0.119095,-0.004449,-0.119844,-0.044751,89.006409,-44.755360,-89.457977
7050,6.908290,6.975876,0.114994,0.031620,-0.167019,-0.087398,89.011642,-44.753242,-89.464767
7051,6.907888,6.981322,0.112564,0.053560,-0.187634,-0.148462,89.018990,-44.749413,-89.473183
7052,6.908603,6.983594,0.119080,-0.036497,-0.095191,-0.165103,89.024033,-44.744267,-89.479942
7053,6.912227,6.989257,0.119977,-0.055599,-0.068474,-0.169668,89.025284,-44.738739,-89.483917
7054,6.907108,6.988564,0.118078,-0.047806,-0.086105,-0.206781,89.026230,-44.732513,-89.487694
7055,6.908930,6.991768,0.121719,-0.084626,-0.034481,-0.209506,89.026131,-44.725609,-89.490692
7056,6.904998,6.991566,0.120202,-0.055016,-0.055852,-0.218584,89.025429,-44.718506,-89.492989
7057,6.905688,6.983152,0.113725,0.030924,-0.135660,-0.076184,89.028259,-44.713642,-89.497581
7058,6.902297,6.976111,0.114764,0.019911,-0.119724,-0.020180,89.033348,-44.712109,-89.503616
7059,6.901536,6.977158,0.116676,-0.000689,-0.093034,-0.033287,89.037186,-44.711285,-89.508621
7060,6.901045,6.975074,0.119564,-0.033731,-0.060785,-0.005079,89.039162,-44.710682,-89.512245
7061,6.905441,6.967373,0.121589,-0.059002,-0.042931,0.132676,89.039299,-44.712833,-89.514633
7062,6.903967,6.970945,0.120470,-0.055235,-0.063709,0.063863,89.039101,-44.716141,-89.517052
7063,6.903933,6.973389,0.120464,-0.051307,-0.068470,0.015775,89.039490,-44.717510,-89.520134
7064,6.905381,6.973296,0.119887,-0.052371,-0.075222,0.026281,89.040123,-44.718250,-89.523483
7065,6.908678,6.965639,0.114782,-0.003598,-0.127164,0.151900,89.042480,-44.721279,-89.528160
7066,6.910656,6.966168,0.118432,-0.069269,-0.069740,0.167133,89.044434,-44.726654,-89.532646
7067,6.912780,6.965532,0.121485,-0.104251,-0.032386,0.186926,89.043121,-44.732574,-89.534897
7068,6.916038,6.968186,0.125877,-0.162464,0.022475,0.189155,89.038727,-44.738846,-89.534981
7069,6.915454,6.965047,0.127922,-0.180472,0.047741,0.203300,89.031738,-44.745358,-89.533173
7070,6.914653,6.970274,0.128499,-0.171429,0.034235,0.121431,89.024429,-44.750755,-89.531120
7071,6.911187,6.970435,0.127592,-0.135402,0.016246,0.064610,89.018433,-44.753841,-89.529869
7072,6.911931,6.971823,0.124469,-0.081143,-0.017463,0.041230,89.014816,-44.755604,-89.529854
7073,6.908703,6.967999,0.119116,-0.005377,-0.088079,0.030633,89.015091,-44.756828,-89.532303
7074,6.910534,6.967785,0.116981,0.028346,-0.121961,0.046278,89.018921,-44.758171,-89.537193
7075,6.909322,6.974764,0.119474,-0.000845,-0.079057,-0.075556,89.022713,-44.757736,-89.541931
7076,6.914284,6.975703,0.123660,-0.064508,-0.018280,-0.037801,89.023270,-44.755882,-89.544266
7077,6.910799,6.973909,0.126131,-0.101074,0.007600,-0.056516,89.020714,-44.754314,-89.544556
7078,6.913336,6.972675,0.125939,-0.104280,0.003872,-0.012796,89.017113,-44.753143,-89.544312
7079,6.912551,6.976046,0.127243,-0.112840,0.019270,-0.068341,89.013138,-44.751793,-89.543793
7080,6.909650,6.970511,0.125997,-0.103295,0.001646,-0.027686,89.009209,-44.750183,-89.543343
7081,6.909144,6.974329,0.124051,-0.076930,-0.031247,-0.073279,89.006721,-44.748512,-89.544075
7082,6.909288,6.972007,0.124662,-0.088928,-0.024474,-0.037957,89.004906,-44.746677,-89.545425
7083,6.908778,6.980164,0.127165,-0.120115,0.003663,-0.128665,89.001816,-44.743904,-89.545982
7084,6.907913,6.981316,0.127870,-0.131624,0.000171,-0.139346,88.997643,-44.739437,-89.546005
7085,6.907729,6.978164,0.127030,-0.112543,-0.015059,-0.075877,88.993881,-44.735859,-89.546448
7086,6.906075,6.974593,0.120380,-0.017333,-0.108552,-0.038833,88.993790,-44.733974,-89.549393
7087,6.900558,6.975877,0.119312,0.002502,-0.116192,-0.116225,88.997299,-44.731461,-89.554726
7088,6.896614,6.970536,0.115276,0.047858,-0.167678,-0.104186,89.002892,-44.727871,-89.561485
7089,6.895816,6.969922,0.112973,0.058837,-0.177094,-0.091119,89.010406,-44.724712,-89.569641
7090,6.896548,6.975075,0.115385,0.023123,-0.139463,-0.137453,89.017067,-44.720997,-89.577164
7091,6.891164,6.977687,0.120584,-0.057221,-0.064432,-0.227037,89.019966,-44.714973,-89.582092
7092,6.898849,6.979443,0.117828,-0.025409,-0.096013,-0.128766,89.021339,-44.709095,-89.585999
7093,6.901318,6.979630,0.121126,-0.059332,-0.048047,-0.064415,89.022362,-44.705925,-89.589455
7094,6.901488,6.974985,0.122224,-0.077085,-0.033162,0.010510,89.021446,-44.705051,-89.591377
7095,6.900600,6.978229,0.122441,-0.076188,-0.031713,-0.037925,89.019974,-44.704613,-89.592918
7096,6.905156,6.977159,0.123491,-0.088797,-0.020431,0.045422,89.018066,-44.704754,-89.594131
7097,6.903718,6.980543,0.128519,-0.163039,0.029830,-0.022261,89.013718,-44.705135,-89.593903
7098,6.901829,6.980146,0.126918,-0.141244,0.007127,-0.052878,89.008041,-44.703865,-89.593056
7099,6.905144,6.985084,0.124919,-0.097583,-0.032851,-0.074905,89.004524,-44.701744,-89.593712
7100,6.905219,6.979500,0.125174,-0.108872,-0.039652,0.000971,89.002304,-44.700535,-89.595444
7101,6.905562,6.976564,0.120727,-0.052355,-0.090237,0.034279,89.001755,-44.701168,-89.598488
7102,6.903622,6.971856,0.118533,-0.008424,-0.108507,0.060133,89.003990,-44.702801,-89.603104
7103,6.903487,6.971399,0.120099,-0.023754,-0.088818,0.063870,89.006660,-44.704914,-89.607666
7104,6.899649,6.967514,0.124135,-0.074358,-0.032562,0.062279,89.006996,-44.707054,-89.610458
7105,6.901690,6.969284,0.122119,-0.028014,-0.051137,0.050318,89.006645,-44.708954,-89.612381
7106,6.903737,6.973309,0.126004,-0.067349,-0.016328,0.031167,89.006149,-44.710335,-89.613937
7107,6.906388,6.966703,0.123054,-0.042010,-0.063058,0.141487,89.005592,-44.713238,-89.615738
7108,6.909285,6.967441,0.120936,-0.022276,-0.093520,0.162821,89.007004,-44.718346,-89.619270
7109,6.909476,6.964866,0.118414,-0.013429,-0.119200,0.167984,89.009834,-44.723927,-89.624138
