seq,ax,ay,az,wroll,wpitch,wyaw,roll,pitch,yaw,q0,q1,q2,q3
30,0.278776,-9.472062,1.237500,-14.334353,9.113421,23.750063,-82.556610,-1.671609,12.586536,0.747961,-0.654470,-0.083205,0.072805
31,-1.275675,-9.940335,-0.547175,20.386246,12.144767,2.588185,-82.579323,-1.079142,12.295701,0.747694,-0.655284,-0.077700,0.074287
32,-1.294250,-9.283674,-0.388895,29.046644,3.864331,-9.019752,-82.001686,-0.925726,12.025183,0.751079,-0.651801,-0.074782,0.073779
33,-1.664706,-9.135150,-0.253529,35.815334,-3.820763,-14.851143,-81.157921,-1.067294,11.973992,0.755967,-0.646181,-0.074881,0.073190
34,-1.222490,-9.143907,-0.014241,39.691231,-8.472239,-11.983377,-80.129852,-1.294041,12.111942,0.761763,-0.639111,-0.076495,0.073508
35,-1.806955,-8.579833,0.251597,40.988899,-11.249606,-13.237906,-79.001442,-1.495634,12.367954,0.767956,-0.631248,-0.078527,0.074859
36,-2.251699,-8.147834,0.910103,40.524406,-12.312572,-10.555364,-77.806961,-1.592270,12.683637,0.774332,-0.622913,-0.080110,0.077279
37,-2.481765,-8.069528,1.123373,37.211124,-8.360647,-5.737524,-76.625763,-1.498252,12.970847,0.780465,-0.614777,-0.080211,0.080564
38,-2.008658,-7.533280,1.004782,32.772762,-2.939039,-4.812590,-75.583664,-1.285995,13.122679,0.785803,-0.607729,-0.078828,0.083461
39,-2.196627,-7.250535,0.942630,27.115623,2.693365,-14.302363,-74.737411,-1.173230,13.055366,0.790259,-0.602050,-0.077080,0.084171
40,-1.700853,-7.249456,0.619156,21.705345,7.695543,-26.063526,-74.125473,-1.377126,12.718122,0.793811,-0.597876,-0.076279,0.081178
41,-1.526215,-6.683636,0.367107,14.232729,12.807294,-42.768661,-73.786896,-2.033227,12.082290,0.796308,-0.595408,-0.077281,0.073563
42,-1.109174,-6.475371,-0.004430,3.795897,15.439070,-57.304943,-73.796242,-3.183566,11.176339,0.797221,-0.595147,-0.080551,0.061244
43,-1.230703,-6.938507,-0.368026,-10.839836,15.195611,-65.878281,-74.271103,-4.710831,10.138190,0.795613,-0.597939,-0.085932,0.045665
44,-0.998285,-7.977834,-0.968236,-28.897682,9.369753,-65.349411,-75.346527,-6.410861,9.198706,0.790466,-0.604688,-0.093046,0.029306
45,-0.613372,-9.147101,-0.901166,-48.840508,-1.536862,-54.181393,-77.089005,-8.050441,8.639028,0.781273,-0.615685,-0.101563,0.015147
46,-0.394086,-10.746465,-0.941899,-70.167061,-15.776757,-38.286636,-79.537659,-9.374234,8.662493,0.767821,-0.630988,-0.110778,0.005732
47,-0.623054,-11.896297,-1.030616,-89.102043,-29.957392,-17.871189,-82.707741,-10.145718,9.333721,0.749977,-0.650538,-0.119700,0.002607
48,0.179239,-12.113213,-0.955664,-103.024971,-40.820942,-0.593369,-86.450912,-10.300831,10.542254,0.728302,-0.673212,-0.127800,0.005450
49,0.339513,-11.697391,-0.742605,-109.319527,-45.886177,8.980085,-90.480560,-9.979919,12.042404,0.704075,-0.697048,-0.135110,0.012160
50,-0.084857,-10.995915,-1.046087,-110.613899,-46.115772,14.847519,-94.548019,-9.280725,13.589522,0.678551,-0.720562,-0.141134,0.020998
51,-0.133604,-10.309897,-1.662290,-107.161606,-40.269455,20.449963,-98.500381,-8.280159,14.971145,0.652631,-0.743012,-0.145160,0.030590
52,0.001368,-9.889808,-2.280685,-101.844437,-31.289265,22.424326,-102.232071,-7.135547,16.026428,0.627164,-0.763879,-0.146985,0.039372
53,-0.327585,-9.736811,-3.064853,-95.929390,-23.528706,21.866652,-105.725677,-5.983607,16.741362,0.602537,-0.783038,-0.147069,0.046604
54,-0.391647,-9.332165,-3.886496,-92.461388,-15.855559,22.325073,-109.050774,-4.870978,17.152906,0.578495,-0.800861,-0.145722,0.052248
55,-0.514940,-9.005255,-4.424285,-86.290222,-5.478711,20.916693,-112.206444,-3.871712,17.236452,0.555288,-0.817380,-0.142938,0.055801
56,-0.969869,-8.646814,-5.023355,-76.568672,0.557936,20.941488,-115.092224,-2.984739,17.034092,0.533778,-0.832165,-0.138752,0.057714
57,-0.976529,-8.410434,-5.324681,-64.152382,3.076967,22.039194,-117.606972,-2.145558,16.662563,0.514739,-0.844815,-0.133517,0.059193
58,-1.213358,-8.024849,-5.510751,-48.317574,6.071891,22.680477,-119.640022,-1.342281,16.171568,0.499110,-0.854970,-0.127411,0.060680
59,-1.387673,-7.735482,-5.578695,-32.601334,7.250592,25.574310,-121.139175,-0.525576,15.572001,0.487372,-0.862609,-0.120223,0.062609
60,-1.302118,-7.642190,-5.738351,-18.125210,4.756462,28.946869,-122.130714,0.366664,14.923725,0.479348,-0.867957,-0.112120,0.065607
61,-1.216242,-7.753992,-6.004651,-6.941823,3.546188,30.839741,-122.699112,1.320974,14.271484,0.474463,-0.871393,-0.103520,0.069593
62,-1.495001,-7.833527,-6.066038,-0.259618,3.648417,30.791265,-122.971992,2.293625,13.611221,0.471831,-0.873466,-0.094619,0.074021
63,-1.491213,-7.920238,-6.043715,1.700369,2.212634,25.241676,-123.092812,3.191786,13.015946,0.470418,-0.874703,-0.086428,0.078308
64,-1.636768,-8.135528,-5.620360,3.814394,3.957089,8.906460,-123.098312,3.767585,12.615062,0.470089,-0.875152,-0.080978,0.081039
65,-1.866574,-8.056460,-5.178855,5.126204,9.470274,-5.434060,-122.978401,3.862187,12.395020,0.471069,-0.874832,-0.078819,0.080939
66,-1.992251,-8.232866,-4.673650,10.698888,14.429035,-17.575157,-122.676476,3.514621,12.271885,0.473790,-0.873601,-0.079122,0.077998
67,-1.956672,-8.486922,-4.433456,23.411774,14.023911,-29.917454,-122.002487,2.792579,12.303098,0.479572,-0.870602,-0.081951,0.073124
68,-1.955039,-8.940786,-4.434537,34.892624,14.668595,-35.397549,-120.892700,1.818416,12.473273,0.488758,-0.865487,-0.086709,0.067298
69,-1.857968,-9.048836,-5.015153,37.976536,17.101772,-28.470116,-119.584259,0.839843,12.559889,0.499413,-0.859400,-0.090864,0.061331
70,-1.717622,-9.331059,-5.505888,31.900684,14.099855,-21.415947,-118.409142,0.066024,12.512664,0.508871,-0.853917,-0.093318,0.056285
71,-1.505529,-9.219924,-5.876218,20.464838,11.035644,-16.205223,-117.598907,-0.485698,12.440284,0.515374,-0.850078,-0.094859,0.052524
72,-1.186215,-8.717283,-5.952936,2.994626,13.677189,-10.334195,-117.340210,-0.885349,12.281511,0.517672,-0.848831,-0.095365,0.049058
73,-1.039195,-8.070827,-6.282796,-12.033715,13.927811,-5.232642,-117.699905,-1.159157,11.996410,0.515327,-0.850540,-0.094630,0.045442
74,-0.912891,-7.724104,-5.920167,-18.853830,9.788365,-0.999515,-118.460037,-1.272813,11.699830,0.509870,-0.854122,-0.093222,0.042646
75,-0.776097,-7.633500,-5.986944,-15.173686,6.453183,1.768380,-119.262520,-1.238602,11.459850,0.503939,-0.857883,-0.091573,0.041193
76,-0.728249,-7.454711,-6.014450,-11.495021,3.360742,3.734788,-119.942368,-1.097401,11.275894,0.498806,-0.861075,-0.089821,0.040911
77,-0.708272,-7.249949,-5.995525,-7.442506,0.256144,5.455338,-120.495033,-0.858644,11.150283,0.494525,-0.863685,-0.088043,0.041736
78,-0.687422,-7.232543,-5.756473,-2.020574,-0.792947,7.075002,-120.870956,-0.543544,11.054301,0.491501,-0.865521,-0.086105,0.043416
79,-0.765369,-7.265174,-5.986163,4.361588,-2.005262,5.636641,-121.038109,-0.209381,10.987426,0.490025,-0.866433,-0.084235,0.045532
80,-0.791277,-7.323397,-6.020358,7.653605,-2.410321,2.458689,-121.048897,0.071057,10.982234,0.489742,-0.866600,-0.083002,0.047623
81,-0.695837,-7.724301,-5.925748,8.975019,-1.830884,-1.406327,-120.955917,0.234829,11.034217,0.490303,-0.866230,-0.082655,0.049150
82,-0.637258,-8.205916,-5.771247,7.055581,-0.689547,-6.898533,-120.820404,0.230269,11.141262,0.491284,-0.865571,-0.083425,0.049672
83,-0.423250,-8.442614,-5.330594,2.708939,0.264493,-13.599917,-120.727295,0.010317,11.322080,0.492074,-0.864947,-0.085694,0.048856
84,-0.121284,-8.746973,-4.768648,-0.249546,0.549228,-21.396362,-120.678947,-0.462019,11.608305,0.492673,-0.864309,-0.089862,0.046558
85,0.095973,-8.817575,-4.385079,-1.313517,0.080655,-25.523773,-120.630943,-1.132681,11.997639,0.493386,-0.863454,-0.095657,0.043212
86,0.399210,-8.765658,-4.075671,-0.975210,-1.142801,-25.508959,-120.556885,-1.872474,12.444037,0.494337,-0.862336,-0.102164,0.039620
87,0.483898,-8.769910,-3.981579,0.132950,-3.246463,-21.951244,-120.441200,-2.545051,12.904808,0.495560,-0.860994,-0.108474,0.036647
88,0.624039,-8.641832,-3.854976,2.646772,-5.476714,-15.330963,-120.259819,-3.036037,13.338515,0.497159,-0.859454,-0.113779,0.035004
89,0.707011,-8.568842,-3.998003,3.594621,-7.349824,-5.840487,-120.030357,-3.265094,13.693801,0.498947,-0.857934,-0.117355,0.035056
90,0.757032,-8.401514,-3.921207,2.910677,-8.580485,1.559408,-119.808945,-3.227884,13.952619,0.500493,-0.856729,-0.119062,0.036693
91,0.673377,-8.294741,-3.850673,3.396977,-9.266449,7.335806,-119.590088,-2.981867,14.130564,0.501871,-0.855769,-0.119255,0.039544
92,0.727416,-8.174660,-4.055067,5.197880,-10.585685,11.262698,-119.352165,-2.581435,14.260548,0.503270,-0.854880,-0.118401,0.043361
93,0.529085,-8.407166,-4.363115,5.097772,-11.839452,14.698338,-119.121162,-2.048806,14.372099,0.504496,-0.854123,-0.116819,0.048072
94,0.165915,-8.659208,-4.684833,5.521547,-12.700129,18.989433,-118.913795,-1.353621,14.455898,0.505393,-0.853588,-0.114307,0.053842
95,-0.210887,-8.870893,-4.955678,6.673799,-13.448555,22.875765,-118.705795,-0.486965,14.501310,0.506130,-0.853163,-0.110730,0.060708
96,-0.621813,-9.011225,-5.079333,6.471970,-13.990033,25.339439,-118.498817,0.518206,14.518479,0.506707,-0.852796,-0.106298,0.068462
97,-1.234991,-9.070756,-4.958249,5.563685,-13.535818,26.792801,-118.309158,1.628164,14.509061,0.507028,-0.852515,-0.101179,0.076839
98,-1.916953,-9.024738,-4.782866,5.933050,-12.720946,25.832478,-118.115837,2.798368,14.480645,0.507280,-0.852177,-0.095608,0.085558
99,-2.257055,-8.721281,-4.625982,6.236938,-11.619923,20.567373,-117.906380,3.908906,14.476716,0.507649,-0.851640,-0.090436,0.093930
100,-2.539737,-8.576076,-4.523238,4.242663,-9.565512,14.407209,-117.725388,4.848329,14.518250,0.507913,-0.851074,-0.086360,0.101193
101,-2.925237,-8.312691,-4.516266,2.852271,-6.298367,7.491027,-117.609543,5.581128,14.583142,0.507872,-0.850684,-0.083426,0.106969
102,-3.090397,-8.070623,-4.616590,1.052042,-2.512696,0.873188,-117.573029,6.084455,14.646112,0.507491,-0.850577,-0.081580,0.110981
103,-2.906055,-7.991917,-4.531849,-1.111828,2.104829,-4.551656,-117.619850,6.334497,14.675609,0.506817,-0.850807,-0.080712,0.112919
104,-2.899858,-7.928954,-4.447532,-2.124958,6.885891,-8.066570,-117.721497,6.362166,14.635182,0.506068,-0.851289,-0.080387,0.112873
105,-2.876301,-7.894727,-4.443690,-0.606446,10.678175,-10.351677,-117.819656,6.235012,14.513554,0.505609,-0.851786,-0.080153,0.111330
106,-2.618211,-7.999237,-4.500702,-0.159092,12.648805,-10.504156,-117.890350,6.006365,14.326528,0.505532,-0.852190,-0.079862,0.108770
107,-2.227470,-8.132529,-4.542346,-0.123606,13.858702,-9.457130,-117.953651,5.718849,14.086757,0.505617,-0.852586,-0.079434,0.105546
108,-1.918401,-8.209629,-4.782866,-0.692696,14.489532,-8.664856,-118.037842,5.394307,13.805380,0.505609,-0.853091,-0.078876,0.101848
110,-1.428339,-8.282184,-4.949980,-3.815294,15.611086,-10.112707,-118.202835,4.990842,13.502898,0.505083,-0.853948,-0.078579,0.097415
111,-0.833517,-8.339211,-4.961227,-9.538201,17.011484,-11.437556,-118.517639,4.453362,13.187813,0.503561,-0.855436,-0.078893,0.091826
112,-0.333445,-8.411933,-4.842327,-12.474195,18.788292,-12.976562,-118.957405,3.777591,12.855570,0.501213,-0.857434,-0.079753,0.085039
113,0.126120,-8.431809,-4.947937,-12.539470,19.505432,-13.981606,-119.429909,2.986631,12.515018,0.498675,-0.859523,-0.081026,0.077319
114,0.585231,-8.323101,-4.851894,-11.428009,19.162851,-13.587296,-119.872330,2.131548,12.181141,0.496343,-0.861422,-0.082545,0.069150
115,0.844095,-8.293999,-4.842444,-7.978396,16.904253,-10.760085,-120.220390,1.309601,11.864161,0.494609,-0.862875,-0.083932,0.061354
116,0.859343,-8.441162,-4.960640,-3.846450,13.691940,-8.114399,-120.430023,0.612612,11.583261,0.493736,-0.863721,-0.084937,0.054743
117,0.877451,-8.328367,-5.160006,-3.364911,9.453931,-6.054147,-120.571045,0.063023,11.370816,0.493192,-0.864261,-0.085768,0.049580
118,1.013505,-8.354486,-4.834771,-4.465451,5.873550,-3.862560,-120.711601,-0.356477,11.235508,0.492499,-0.864785,-0.086610,0.045727
119,1.005734,-8.437871,-4.888944,-5.055513,2.847046,-2.627656,-120.855522,-0.668416,11.166356,0.491665,-0.865313,-0.087481,0.042965
120,0.983465,-8.449685,-4.768095,-6.807954,0.473457,-1.899014,-121.027687,-0.894552,11.157841,0.490527,-0.865951,-0.088446,0.041087
121,1.077735,-8.349896,-4.718296,-6.870809,-1.770416,-0.872801,-121.219360,-1.055720,11.200183,0.489177,-0.866660,-0.089521,0.039899
122,1.087021,-8.482672,-4.674076,-6.074178,-3.457254,0.626379,-121.387856,-1.149606,11.276387,0.487942,-0.867273,-0.090555,0.039381
123,0.927112,-8.463991,-4.897902,-5.425656,-5.133668,1.959685,-121.535583,-1.158175,11.375539,0.486795,-0.867818,-0.091393,0.039620
124,0.761455,-8.337681,-4.906142,-4.347359,-6.757109,3.376103,-121.671036,-1.073629,11.497429,0.485666,-0.868337,-0.092006,0.040670
125,0.538133,-8.270720,-4.922642,-2.233134,-7.950702,6.352778,-121.758209,-0.875182,11.620437,0.484815,-0.868705,-0.092132,0.042627
126,0.287022,-8.173324,-5.005390,-1.079042,-8.407823,9.429523,-121.799721,-0.545087,11.713527,0.484218,-0.868964,-0.091462,0.045492
127,0.041623,-8.110819,-5.049994,0.414910,-8.711360,11.478648,-121.808983,-0.105385,11.772351,0.483785,-0.869157,-0.090056,0.049069
128,-0.316433,-8.102020,-5.144840,2.900344,-8.589790,11.921976,-121.762520,0.406618,11.812099,0.483716,-0.869148,-0.088175,0.053155
129,-0.594520,-8.108010,-5.276881,4.318665,-8.400167,12.039756,-121.665535,0.958959,11.843093,0.483989,-0.868932,-0.086025,0.057546
130,-0.746071,-8.175157,-5.548556,4.526139,-8.496173,10.186533,-121.564445,1.502860,11.888264,0.484279,-0.868666,-0.084008,0.061930
131,-0.998987,-8.200372,-5.618398,3.890661,-8.096472,6.881047,-121.488190,1.984839,11.973953,0.484397,-0.868440,-0.082566,0.065995
132,-1.343471,-8.051284,-5.591617,3.676018,-6.749675,5.549471,-121.434441,2.416286,12.074727,0.484365,-0.868270,-0.081461,0.069721
133,-1.600663,-8.017469,-5.561537,2.931700,-5.012794,7.054024,-121.403313,2.856479,12.129542,0.484171,-0.868222,-0.079980,0.073301
134,-1.698146,-8.058142,-5.501755,2.361499,-3.106777,7.818934,-121.392662,3.312178,12.112411,0.483845,-0.868301,-0.077899,0.076678
135,-1.876431,-7.913778,-5.354578,2.658285,-0.489866,7.474819,-121.383011,3.745738,12.026988,0.483572,-0.868411,-0.075394,0.079597
136,-1.792338,-7.917005,-5.295926,3.255898,1.612836,6.946031,-121.356644,4.124647,11.881799,0.483519,-0.868464,-0.072655,0.081861
137,-1.625681,-8.032625,-5.309865,2.509402,2.788279,4.087854,-121.327866,4.397942,11.719366,0.483598,-0.868487,-0.070234,0.083256
138,-1.370607,-8.041063,-5.231831,0.801846,3.502047,-1.679866,-121.328659,4.492522,11.605131,0.483586,-0.868573,-0.068964,0.083487
139,-1.230669,-8.054552,-5.212872,-1.399898,3.995118,-6.041626,-121.382713,4.399467,11.562046,0.483294,-0.868814,-0.069075,0.082571
140,-0.833680,-8.283441,-5.261772,-5.133394,4.087561,-9.286060,-121.522888,4.152165,11.577854,0.482449,-0.869358,-0.070351,0.080684
141,-0.641334,-8.320969,-5.194689,-7.850161,3.796140,-11.753439,-121.752922,3.785255,11.648685,0.480990,-0.870220,-0.072610,0.078064
142,-0.305765,-8.366512,-5.100528,-9.186899,2.994034,-12.418070,-122.030388,3.353301,11.765677,0.479196,-0.871222,-0.075515,0.075105
143,0.061434,-8.369784,-5.107475,-8.885867,1.716543,-10.857554,-122.311104,2.911795,11.907055,0.477368,-0.872198,-0.078633,0.072158
144,0.299291,-8.310608,-5.083535,-7.633986,0.520523,-8.489237,-122.560982,2.514967,12.050156,0.475733,-0.873035,-0.081542,0.069565
145,0.344845,-8.162941,-4.993279,-5.002474,-1.145282,-5.065279,-122.741608,2.214884,12.182499,0.474545,-0.873603,-0.083913,0.067702
146,0.512030,-8.130969,-5.022614,-2.674546,-2.437083,-1.876518,-122.838547,2.026849,12.296808,0.473907,-0.873862,-0.085625,0.066672
147,0.625132,-8.008419,-5.184370,-1.589216,-3.191464,-0.014187,-122.894318,1.913279,12.393393,0.473527,-0.873984,-0.086867,0.066165
148,0.507488,-7.928456,-5.363829,-3.707724,-3.652909,1.083793,-122.995552,1.856430,12.479139,0.472757,-0.874318,-0.087816,0.066009
149,0.561289,-8.006671,-5.531012,-6.939284,-4.321998,1.290864,-123.205360,1.836048,12.568121,0.471122,-0.875107,-0.088701,0.066059
150,0.631001,-8.089309,-5.725612,-8.958107,-4.038767,1.622887,-123.513954,1.820505,12.656960,0.468727,-0.876298,-0.089621,0.066065
151,0.491815,-8.113867,-5.998728,-10.191626,-3.361946,3.752662,-123.894417,1.837587,12.708661,0.465769,-0.877815,-0.090166,0.066107
152,0.031205,-8.059478,-6.100843,-10.244557,-2.342559,9.698471,-124.313911,1.993884,12.659925,0.462437,-0.879602,-0.089399,0.066777
153,-0.411418,-8.060911,-5.959568,-7.432996,-0.381300,16.521877,-124.683876,2.359187,12.447882,0.459383,-0.881362,-0.086507,0.068441
154,-0.939101,-7.958512,-5.866593,-3.268828,1.838159,20.672079,-124.927689,2.897298,12.072050,0.457241,-0.882750,-0.081589,0.070891
155,-1.472607,-7.789663,-5.673379,-0.619474,3.531399,22.140020,-125.055000,3.541294,11.587186,0.455980,-0.883718,-0.075337,0.073820
156,-2.036484,-7.746669,-5.521152,1.473455,4.638885,20.153585,-125.095055,4.218669,11.068427,0.455403,-0.884295,-0.068633,0.076940
157,-2.168986,-7.729797,-5.424302,2.936661,5.490820,14.737844,-125.063599,4.812530,10.594441,0.455442,-0.884486,-0.062559,0.079639
158,-2.094608,-7.612080,-5.538187,2.318280,5.554062,8.662638,-125.020355,5.231116,10.217641,0.455674,-0.884524,-0.057931,0.081382
159,-2.318072,-7.465233,-5.462690,0.843369,6.615270,4.563575,-125.021324,5.501626,9.921510,0.455643,-0.884671,-0.054552,0.082283
160,-2.392652,-7.434920,-5.619924,-0.071962,7.691502,2.619542,-125.073700,5.683514,9.652451,0.455277,-0.884998,-0.051778,0.082588
161,-2.267128,-7.506467,-5.660017,-0.606122,8.679482,2.976298,-125.161682,5.811773,9.369176,0.454693,-0.885465,-0.049135,0.082411
162,-2.208284,-7.526382,-5.690113,0.478776,9.634251,3.279123,-125.242912,5.910961,9.053007,0.454210,-0.885912,-0.046350,0.081886
163,-2.059783,-7.693009,-5.742702,2.435153,10.343723,1.548835,-125.269409,5.953648,8.728504,0.454201,-0.886140,-0.043688,0.080918
164,-1.494424,-7.951916,-5.902712,2.943665,9.711493,-3.541634,-125.240685,5.843857,8.469789,0.454690,-0.886134,-0.042109,0.079058
165,-1.039619,-8.115045,-5.824068,1.322418,8.896053,-10.135714,-125.203232,5.512882,8.345122,0.455317,-0.886061,-0.042453,0.076027
166,-0.605019,-8.047858,-5.588349,1.143886,9.317660,-16.395697,-125.161301,4.953073,8.351837,0.456055,-0.885925,-0.044733,0.071756
167,-0.153741,-8.169478,-5.556379,-0.024406,9.088654,-19.915045,-125.117577,4.206198,8.451091,0.456876,-0.885722,-0.048483,0.066413
168,0.152540,-8.201978,-5.464105,-2.133769,8.791701,-19.796131,-125.114487,3.379159,8.590694,0.457408,-0.885612,-0.052891,0.060596
169,0.415907,-8.130626,-5.348390,-3.290607,9.044494,-15.116830,-125.159767,2.596039,8.685400,0.457549,-0.885668,-0.056796,0.054912
170,0.590790,-8.078981,-5.314006,-2.692475,9.050333,-8.045211,-125.215584,1.958131,8.663897,0.457552,-0.885806,-0.059217,0.049875
171,0.786481,-8.084774,-5.329241,-4.285550,7.878363,-2.595901,-125.290436,1.492168,8.537784,0.457324,-0.886085,-0.060141,0.045734
172,0.963173,-8.093321,-5.269258,-5.794539,7.014904,0.239137,-125.412300,1.144598,8.359876,0.456665,-0.886592,-0.060203,0.042275
173,1.018357,-8.080213,-5.242741,-4.956402,6.430841,1.119279,-125.537010,0.853886,8.165975,0.455941,-0.887126,-0.059907,0.039189
174,0.964683,-8.117775,-5.292431,-3.796208,5.193544,1.374023,-125.624680,0.603926,7.985585,0.455465,-0.887511,-0.059535,0.036491
175,0.981509,-8.177411,-5.312352,-3.244781,3.598997,1.220109,-125.680496,0.392883,7.842289,0.455193,-0.887756,-0.059282,0.034258
176,1.004676,-8.114808,-5.445835,-2.290767,1.586293,2.273303,-125.718231,0.232393,7.738751,0.455018,-0.887920,-0.059128,0.032584
177,0.948864,-8.120231,-5.520703,-3.493346,-0.684427,3.618159,-125.773552,0.153405,7.669546,0.454650,-0.888155,-0.058921,0.031669
178,0.926390,-8.163907,-5.361704,-5.914863,-3.332212,5.131103,-125.880867,0.169498,7.638846,0.453818,-0.888600,-0.058649,0.031617
179,0.860596,-8.140027,-5.412601,-5.716053,-5.484199,6.889909,-126.015755,0.283488,7.640660,0.452711,-0.889161,-0.058250,0.032440
180,0.726900,-8.001009,-5.421858,-4.208240,-6.986377,7.951705,-126.129288,0.483634,7.663508,0.451717,-0.889645,-0.057669,0.034026
181,0.388053,-8.144320,-5.502263,-2.995002,-7.636160,9.542297,-126.199432,0.771295,7.688751,0.451008,-0.889973,-0.056752,0.036323
182,-0.079751,-8.075094,-5.542363,1.326485,-7.746817,9.956312,-126.179230,1.146858,7.704381,0.450952,-0.889961,-0.055386,0.039309
183,-0.460770,-7.918465,-5.755580,6.237705,-8.079784,9.306681,-126.028793,1.577213,7.728786,0.451865,-0.889431,-0.053820,0.042816
184,-0.890705,-7.770495,-5.840004,8.831476,-8.903527,8.450869,-125.784966,2.047973,7.784534,0.453458,-0.888511,-0.052290,0.046797
185,-1.273346,-7.697312,-5.930505,9.105015,-9.738867,6.915818,-125.515770,2.550514,7.887201,0.455194,-0.887456,-0.050967,0.051214
186,-1.486437,-7.460780,-5.924198,8.944358,-10.832684,4.432575,-125.265625,3.049784,8.055553,0.456734,-0.886431,-0.050154,0.055852
187,-1.677077,-7.353991,-5.909349,7.453933,-11.330192,2.483993,-125.058479,3.523382,8.288231,0.457901,-0.885533,-0.049943,0.060525
188,-1.830807,-7.353706,-5.914549,5.946400,-11.139729,1.805403,-124.907204,3.977479,8.550004,0.458609,-0.884834,-0.050049,0.065137
189,-1.756665,-7.450456,-5.804406,4.484854,-10.303666,0.287409,-124.796585,4.385273,8.819036,0.459006,-0.884283,-0.050411,0.069401
190,-1.791273,-7.643924,-5.680585,4.286035,-9.104169,-1.560603,-124.687904,4.712279,9.093807,0.459424,-0.883729,-0.051137,0.073065
191,-1.617681,-7.738878,-5.551892,4.689265,-8.781728,-3.606043,-124.547897,4.950485,9.386747,0.460124,-0.883035,-0.052335,0.076133
192,-1.381664,-7.885345,-5.471713,3.474146,-9.229198,-5.432807,-124.397202,5.098202,9.719883,0.460939,-0.882275,-0.054198,0.078675
193,-1.092136,-8.146287,-5.313897,1.008693,-9.309651,-7.225756,-124.275604,5.155165,10.096897,0.461564,-0.881603,-0.056782,0.080688
194,-0.832208,-8.203492,-5.148297,-0.729439,-9.450397,-6.949268,-124.192726,5.149151,10.493793,0.461924,-0.881067,-0.059800,0.082284
195,-0.469355,-8.255206,-5.147016,-1.659952,-9.875648,-4.952828,-124.143318,5.133162,10.878174,0.462040,-0.880662,-0.062785,0.083738
196,-0.260056,-8.449578,-5.070826,-2.667866,-9.322030,-2.052698,-124.117752,5.141138,11.215913,0.461980,-0.880370,-0.065328,0.085175
197,-0.194450,-8.446914,-5.204001,-1.975803,-8.232438,0.210554,-124.100731,5.184522,11.482743,0.461870,-0.880150,-0.067188,0.086592
198,-0.296843,-8.223175,-5.436179,-2.456703,-6.691131,1.765883,-124.118393,5.257930,11.674499,0.461518,-0.880112,-0.068373,0.087915
199,-0.516516,-8.285070,-5.753447,-5.691676,-5.359172,3.587369,-124.243683,5.372317,11.791063,0.460354,-0.880553,-0.068897,0.089183
200,-0.645888,-8.217354,-5.819577,-7.111499,-4.094708,3.624166,-124.472672,5.510181,11.851728,0.458410,-0.881442,-0.068979,0.090343
201,-0.871745,-7.935680,-6.033645,-6.888773,-2.592554,2.212012,-124.750435,5.625964,11.883933,0.456131,-0.882537,-0.068976,0.091191
202,-1.059240,-7.837046,-5.927258,-7.473792,-1.093932,1.372878,-125.052238,5.710416,11.894009,0.453713,-0.883732,-0.068953,0.091696
203,-1.195704,-7.904285,-5.915961,-5.783233,-0.596755,1.797771,-125.325249,5.791442,11.881380,0.451535,-0.884820,-0.068748,0.092104
204,-1.220548,-7.721583,-5.781875,-2.264265,0.162637,0.463557,-125.501671,5.859087,11.861185,0.450121,-0.885528,-0.068462,0.092439
205,-1.255976,-7.667022,-5.635873,-1.590759,1.256060,0.028244,-125.597275,5.890528,11.834041,0.449372,-0.885920,-0.068203,0.092517
206,-1.246102,-7.748111,-5.574531,-1.469077,1.800071,0.774007,-125.665245,5.911820,11.783315,0.448866,-0.886216,-0.067781,0.092442
207,-1.153021,-7.718815,-5.736191,-0.375438,2.396146,1.748411,-125.718002,5.936079,11.700116,0.448501,-0.886472,-0.067083,0.092272
208,-1.000392,-7.617258,-5.439271,-0.597011,3.018484,2.542280,-125.755737,5.955054,11.583485,0.448284,-0.886688,-0.066135,0.091939
209,-0.897454,-7.600661,-5.359718,0.028930,3.100926,3.103708,-125.770149,5.968330,11.445956,0.448269,-0.886823,-0.065029,0.091495
210,-0.902867,-7.469395,-5.481830,1.617443,2.715070,2.323673,-125.755714,5.974523,11.313796,0.448480,-0.886841,-0.063970,0.091034
211,-0.872644,-7.614928,-5.404785,1.783722,2.185831,0.606659,-125.710373,5.953501,11.218298,0.448927,-0.886716,-0.063279,0.090523
213,-0.732300,-7.744359,-5.272517,2.294146,1.302771,-0.889511,-125.623810,5.889308,11.175958,0.449692,-0.886401,-0.063140,0.089911
214,-0.741851,-7.981707,-5.540013,2.690320,0.879212,-3.063504,-125.510757,5.777021,11.187687,0.450665,-0.885951,-0.063592,0.089156
215,-0.738347,-8.157063,-5.578945,2.210481,1.177432,-4.561511,-125.399422,5.615812,11.236187,0.451641,-0.885484,-0.064528,0.088169
216,-0.676597,-8.339627,-5.609694,1.683591,1.759512,-3.692904,-125.297966,5.434466,11.279227,0.452565,-0.885056,-0.065512,0.087002
217,-0.651109,-8.223138,-5.749285,1.324222,2.732306,-1.972886,-125.225792,5.270586,11.274727,0.453281,-0.884768,-0.066082,0.085766
218,-0.788222,-8.058493,-5.728780,-1.112616,3.497375,0.162577,-125.226501,5.155618,11.207209,0.453434,-0.884805,-0.066024,0.084615
219,-0.780934,-7.952346,-5.697323,-2.965328,3.783054,2.711967,-125.313065,5.108356,11.079350,0.452903,-0.885218,-0.065290,0.083697
220,-0.730378,-7.905934,-5.519858,-2.824944,3.589592,3.414953,-125.423851,5.103393,10.919448,0.452168,-0.885746,-0.064155,0.082965
221,-0.638514,-7.686785,-5.470140,-0.148315,3.220790,3.109078,-125.482574,5.101040,10.763756,0.451828,-0.886064,-0.063003,0.082300
222,-0.664252,-7.505636,-5.373181,2.778357,2.787967,1.771617,-125.451805,5.081501,10.634345,0.452176,-0.886012,-0.062059,0.081656
223,-0.626542,-7.540724,-5.300234,7.009844,2.098767,0.058786,-125.293182,5.032039,10.550157,0.453506,-0.885429,-0.061494,0.081028
224,-0.598799,-7.391684,-5.180781,13.263342,1.691913,-1.719756,-124.950714,4.942730,10.514819,0.456254,-0.884086,-0.061340,0.080384
225,-0.623679,-7.363355,-5.392298,17.671328,1.465123,-2.068419,-124.448273,4.832566,10.506177,0.460229,-0.882077,-0.061370,0.079773
226,-0.715343,-7.656684,-5.347607,18.996632,1.074890,-2.100937,-123.858704,4.732777,10.508060,0.464847,-0.879691,-0.061383,0.079333
227,-0.692869,-8.052518,-5.260719,20.719494,0.609726,-1.718300,-123.193108,4.650922,10.519891,0.470012,-0.876964,-0.061353,0.079113
228,-0.679888,-8.275143,-5.244058,21.475460,0.141521,-1.495993,-122.469238,4.582956,10.539810,0.475588,-0.873962,-0.061289,0.079065
229,-0.624881,-8.781869,-5.194039,19.054934,-0.201492,-1.475294,-121.757881,4.519583,10.569510,0.481038,-0.870971,-0.061293,0.079089
230,-0.679558,-9.053659,-5.081728,15.525733,-0.744433,-1.009088,-121.124779,4.469380,10.608666,0.485859,-0.868274,-0.061367,0.079213
231,-0.725821,-9.163313,-5.108581,9.416242,-1.685773,-0.300063,-120.650009,4.455431,10.658910,0.489430,-0.866225,-0.061479,0.079577
232,-0.644964,-9.169081,-4.953580,0.982690,-2.056388,0.421122,-120.419373,4.471125,10.715779,0.491119,-0.865210,-0.061680,0.080062
233,-0.546750,-9.060027,-4.989047,-4.905787,-1.689776,0.322555,-120.432854,4.484033,10.767172,0.490970,-0.865241,-0.062021,0.080372
234,-0.589787,-8.369854,-5.000475,-9.362535,-2.421732,-0.036943,-120.651741,4.492165,10.825130,0.489268,-0.866147,-0.062577,0.080562
235,-0.580923,-7.588274,-4.557363,-12.025589,-3.674123,-0.579266,-121.010422,4.513433,10.917295,0.486471,-0.867626,-0.063436,0.080917
236,-0.497575,-6.799227,-4.030854,-6.283526,-4.357385,-0.508136,-121.305580,4.546557,11.041741,0.484117,-0.868810,-0.064445,0.081530
237,-0.526435,-6.100919,-3.711385,5.434196,-5.471054,-0.377356,-121.303635,4.603470,11.190253,0.483974,-0.868724,-0.065326,0.082588
238,-0.536278,-5.730940,-3.007367,21.662378,-6.990936,-0.086033,-120.792160,4.701485,11.376434,0.487621,-0.866460,-0.065942,0.084409
239,-0.411877,-5.783655,-2.286673,43.503674,-7.383320,-0.171963,-119.528664,4.808871,11.599475,0.496876,-0.860917,-0.066210,0.086901
240,-0.423691,-6.286692,-1.903962,68.373062,-6.878502,-0.707081,-117.373924,4.885061,11.838333,0.512718,-0.851298,-0.065993,0.089762
241,-0.593080,-7.567486,-1.587971,88.319313,-6.522032,-1.585435,-114.396019,4.929910,12.085444,0.534423,-0.837557,-0.065233,0.092926
242,-0.854907,-9.333930,-1.115148,100.146530,-5.819647,-2.666225,-110.831146,4.943493,12.337971,0.559992,-0.820392,-0.064052,0.096241
243,-1.168341,-11.893501,-1.393347,98.155930,-4.700848,-4.506433,-107.121338,4.900891,12.577722,0.586089,-0.801696,-0.062801,0.099194
244,-1.666821,-14.405583,-1.850225,72.461517,-3.023454,-5.866852,-103.970039,4.798275,12.775833,0.607838,-0.785140,-0.061958,0.101236
245,-2.082244,-16.655752,-2.850998,26.669703,-0.947578,-7.261623,-102.135017,4.648778,12.907229,0.620362,-0.775186,-0.062037,0.101923
246,-2.212373,-18.205872,-3.813040,-39.784000,0.768523,-8.265470,-102.292229,4.451197,12.971353,0.619435,-0.775933,-0.063691,0.100856
247,-2.348938,-18.460428,-4.655790,-108.645065,2.699977,-8.489376,-104.784355,4.225521,12.978675,0.602630,-0.789138,-0.067119,0.097941
248,-1.760256,-14.705358,-4.258617,-169.791748,6.795182,-6.959908,-109.466125,3.994750,12.897262,0.570189,-0.813072,-0.071647,0.093085
249,-0.491400,-10.589259,-4.344609,-212.466019,11.546996,-4.693532,-115.888199,3.709197,12.684484,0.524192,-0.843800,-0.076504,0.085860
250,-0.635893,-7.318903,-4.243272,-238.649231,12.098138,-1.921226,-123.482689,3.409332,12.394029,0.467649,-0.876805,-0.081038,0.077135
251,0.171186,-3.640315,-2.223491,-233.812943,16.968624,-0.497746,-131.364182,3.021714,12.039310,0.406866,-0.907073,-0.084734,0.067065
252,0.827670,-0.055109,-1.635022,-229.844894,18.061535,0.494665,-139.506775,2.196281,11.643620,0.342390,-0.933874,-0.088552,0.052984
253,0.408595,0.063123,-2.163954,-213.864578,17.886343,3.617954,-147.801651,1.263249,11.269777,0.274904,-0.956383,-0.091290,0.037766
254,-0.338276,0.438206,-2.375280,-205.232117,12.614718,0.911500,-155.701630,0.792878,10.969110,0.208843,-0.973243,-0.091985,0.026848
255,0.376816,2.274423,-3.235410,-179.807007,7.890499,-1.472405,-163.177307,0.481783,10.836721,0.145231,-0.984873,-0.092799,0.017953
256,0.126021,3.074140,-5.506427,-155.377930,2.416916,1.030855,-169.863388,0.219646,10.802829,0.087771,-0.991681,-0.093596,0.010217
257,0.040313,3.177954,-6.925211,-119.122223,0.029683,0.414356,-175.344040,0.158717,10.775142,0.040310,-0.994765,-0.093759,0.005192
258,0.348885,3.841383,-7.892409,-92.596886,-2.610483,-3.530192,-179.636475,0.162949,10.829206,0.003024,-0.995532,-0.094357,0.001715
259,0.261672,3.983548,-8.858583,-61.384792,-3.016195,-2.158410,177.139526,0.206114,10.924075,-0.025018,-0.995143,-0.095201,-0.000586
260,0.090087,3.397296,-8.658247,-43.350620,0.917131,-0.569854,174.869919,0.213766,10.967429,-0.044727,-0.994416,-0.095550,-0.002422
261,-0.198418,3.723368,-8.706900,-36.323463,2.632165,-3.366843,173.093323,0.165018,11.036994,-0.060095,-0.993548,-0.096079,-0.004362
262,-0.406550,3.860868,-8.510241,-30.843159,3.563122,-0.930046,171.537796,0.113425,11.119326,-0.073528,-0.992576,-0.096691,-0.006165
263,-0.296627,3.755610,-8.839502,-22.996283,3.271544,2.728936,170.245651,0.046286,11.105372,-0.084660,-0.991701,-0.096445,-0.007826
264,-0.221495,3.411716,-9.046167,-19.144682,-1.028195,4.965767,169.227890,0.023545,10.984464,-0.093455,-0.991012,-0.095307,-0.008780
265,-0.262021,3.410611,-8.924953,-20.349724,-3.599008,4.819074,168.307922,0.102864,10.809022,-0.101487,-0.990368,-0.093788,-0.008704
266,-0.148865,2.938301,-9.328493,-13.482041,-5.669112,7.686108,167.545044,0.239288,10.572413,-0.108206,-0.989848,-0.091813,-0.007927
267,-0.172657,3.000101,-9.651172,-14.199061,-6.553240,5.505442,166.949921,0.408652,10.312558,-0.113495,-0.989459,-0.089693,-0.006684
268,-0.464949,3.167108,-9.347053,-21.129593,-6.722330,4.786474,166.228378,0.621872,10.093352,-0.119898,-0.988867,-0.087980,-0.005180
269,-0.472799,3.291963,-8.956456,-17.443398,-1.026361,6.371519,165.432434,0.757729,9.879270,-0.126875,-0.988153,-0.086245,-0.004382
270,-0.220133,3.365770,-9.096888,-13.856416,2.004520,7.698855,164.756592,0.716232,9.654125,-0.132680,-0.987561,-0.084230,-0.004987
271,-0.211667,3.795028,-8.945179,-18.236847,3.726835,5.177980,164.051666,0.580149,9.470543,-0.138665,-0.986880,-0.082453,-0.006455
272,-0.131701,3.773539,-8.941388,-16.691078,4.042385,5.930246,163.285431,0.412827,9.327073,-0.145153,-0.986057,-0.080962,-0.008265
273,-0.031703,3.792357,-8.970467,-15.617710,3.593759,4.048830,162.582474,0.242117,9.203900,-0.151091,-0.985256,-0.079627,-0.010066
274,-0.102338,4.142665,-8.774580,-18.650986,2.974167,0.952739,161.835968,0.114095,9.157042,-0.157423,-0.984299,-0.078981,-0.011620
275,-0.260014,4.318751,-8.590350,-16.144588,2.059419,0.157520,161.052094,0.051012,9.165508,-0.164108,-0.983201,-0.078882,-0.012714
276,-0.343110,4.268408,-8.572219,-13.645680,-0.178948,0.335605,160.355774,0.061644,9.167407,-0.170087,-0.982183,-0.078835,-0.013104
277,-0.377860,4.403281,-8.393133,-13.351532,-1.198403,0.484570,159.712021,0.131370,9.146058,-0.175652,-0.981218,-0.078685,-0.012917
278,-0.376318,4.439208,-8.402468,-8.690203,-1.464098,1.401041,159.150314,0.216368,9.100193,-0.180522,-0.980365,-0.078362,-0.012503
279,-0.195609,4.324640,-8.573048,-4.710085,-2.022273,1.804977,158.758682,0.290066,9.028596,-0.183929,-0.979780,-0.077824,-0.012026
280,-0.022124,4.330512,-8.708853,-5.515820,-2.330827,1.487485,158.449112,0.347553,8.950332,-0.186622,-0.979324,-0.077216,-0.011617
281,0.064748,4.369397,-8.728214,-5.613163,-1.137218,1.080221,158.135406,0.374356,8.888512,-0.189326,-0.978847,-0.076700,-0.011498
282,0.158234,4.468271,-8.758320,-4.125054,0.096501,-0.164597,157.845581,0.359434,8.867142,-0.191794,-0.978381,-0.076463,-0.011783
283,0.150193,4.514016,-8.701214,-4.782489,0.694105,-1.185020,157.567093,0.324110,8.892253,-0.194145,-0.977901,-0.076589,-0.012313
284,0.041399,4.534987,-8.683353,-3.979605,1.030494,-1.283897,157.291412,0.290830,8.940636,-0.196470,-0.977404,-0.076915,-0.012864
285,-0.084510,4.556313,-8.684844,-3.028586,1.209157,-1.822470,157.048615,0.271992,9.002205,-0.198521,-0.976947,-0.077380,-0.013294
286,-0.103985,4.501825,-8.549265,-1.428913,1.262347,-2.155193,156.852432,0.266896,9.078722,-0.200180,-0.976555,-0.078000,-0.013604
287,-0.142125,4.407138,-8.520936,0.105465,0.938488,-2.007313,156.718124,0.272118,9.156384,-0.201319,-0.976265,-0.078655,-0.013787
288,-0.134266,4.240064,-8.400262,1.402348,0.880064,-1.688566,156.647400,0.282763,9.224474,-0.201921,-0.976092,-0.079245,-0.013865
289,-0.384495,4.047375,-7.767618,4.435748,1.960877,-3.089811,156.649414,0.305562,9.315889,-0.201908,-0.976029,-0.080064,-0.013831
290,-0.382793,3.524367,-6.688474,12.057219,3.344565,-2.132308,156.817581,0.318992,9.430318,-0.200471,-0.976241,-0.081083,-0.013799
291,-0.386116,2.808962,-5.868775,26.736832,4.239632,0.202965,157.379364,0.285866,9.509134,-0.195650,-0.977162,-0.081765,-0.013818
292,-0.484539,1.923527,-5.105716,42.092045,4.811888,0.133028,158.521423,0.242013,9.561899,-0.185865,-0.979032,-0.082279,-0.013463
293,-0.491700,1.195494,-4.503565,56.721596,4.174556,1.280388,160.274796,0.225400,9.596097,-0.170848,-0.981739,-0.082743,-0.012396
294,-0.210181,0.611532,-4.619767,70.303993,2.299091,7.214995,162.623810,0.179430,9.501306,-0.150665,-0.985109,-0.082105,-0.010968
295,-0.300311,0.194045,-5.455389,75.665237,-2.424218,8.433470,165.394547,0.175185,9.254521,-0.126820,-0.988639,-0.080212,-0.008743
296,-0.398672,0.043626,-6.272383,76.304535,-5.861647,8.080210,168.288651,0.326885,8.959291,-0.101933,-0.991716,-0.077987,-0.005139
297,-0.206139,0.133558,-7.200222,75.722740,-9.023763,11.061351,171.125320,0.573321,8.605475,-0.077524,-0.994151,-0.075187,-0.000831
298,0.093444,0.038211,-8.103995,71.329941,-8.628571,10.383748,173.809174,0.818148,8.215203,-0.054370,-0.995923,-0.071908,0.003243
299,-0.047224,-0.460892,-9.108445,74.228912,-8.307398,4.722578,176.449417,1.056000,7.942319,-0.031542,-0.997058,-0.069503,0.007043
300,0.484307,-0.478699,-10.550331,74.735748,-0.415089,1.068004,179.118256,1.146200,7.841806,-0.008360,-0.997575,-0.068451,0.009452
301,0.187273,-0.868871,-10.884264,80.569588,18.972683,-1.663386,-178.150192,0.765248,7.850023,0.015647,-0.997510,-0.068333,0.007766
302,0.029630,-0.793455,-10.345160,78.573959,18.075184,-5.902466,-175.399155,0.104335,7.944228,0.039980,-0.996796,-0.069179,0.003688
303,0.401358,-0.920084,-11.344074,83.891350,20.205118,-5.946815,-172.661346,-0.587523,8.073084,0.064199,-0.995438,-0.070575,-0.000599
304,0.520049,-1.195958,-11.545528,91.195381,31.629894,-1.636258,-169.762390,-1.511170,8.064041,0.089916,-0.993378,-0.071201,-0.006829
305,0.981571,-2.090348,-10.543817,91.092949,31.461325,1.393854,-166.725021,-2.612713,7.852266,0.116836,-0.990528,-0.070623,-0.014680
306,1.416983,-2.822476,-11.951317,87.238876,11.726611,-1.670846,-163.733551,-3.405414,7.667810,0.143063,-0.987009,-0.070357,-0.019893
307,1.578376,-3.441135,-12.970493,86.148781,15.518404,-3.217407,-160.858566,-3.951142,7.599846,0.168053,-0.982949,-0.071030,-0.022907
308,1.303011,-3.705511,-12.165940,78.557350,12.863806,-2.233923,-158.154083,-4.490561,7.519367,0.191458,-0.978531,-0.071742,-0.025969
309,1.911487,-4.043856,-12.303052,56.505314,0.652497,-6.354957,-155.980362,-4.826374,7.566045,0.210159,-0.974537,-0.073219,-0.027378
310,1.105301,-3.552048,-12.215315,55.334785,-4.586102,-10.257742,-154.282730,-4.933233,7.854166,0.224692,-0.971076,-0.076263,-0.026632
311,0.838935,-2.945258,-10.819880,62.459427,-7.606326,-3.831057,-152.573196,-4.851327,8.174809,0.239181,-0.967439,-0.079192,-0.024130
312,1.325585,-3.201414,-10.209507,75.776909,-7.850166,4.281309,-150.533768,-4.644051,8.312031,0.256280,-0.963039,-0.080309,-0.020665
313,1.249948,-3.393517,-9.333776,88.777420,-7.479423,6.237516,-148.031784,-4.397853,8.309243,0.277117,-0.957340,-0.080134,-0.016853
314,0.594956,-3.954885,-7.608635,102.031960,-5.284581,8.089154,-145.020859,-4.117148,8.239012,0.302023,-0.949918,-0.079239,-0.012597
316,0.683492,-5.048174,-7.042818,108.042511,-3.854866,22.220642,-141.549164,-3.694077,7.928657,0.330431,-0.940748,-0.075834,-0.007608
317,0.892002,-6.349637,-6.061377,97.732307,0.742195,25.897652,-137.982193,-3.171342,7.339844,0.359294,-0.930619,-0.069631,-0.002840
318,0.359785,-7.312412,-5.726199,87.512901,-0.860850,25.645906,-134.645340,-2.593576,6.705033,0.386004,-0.920365,-0.062655,0.001694
319,-0.183876,-8.231774,-5.900093,81.659668,-3.373585,27.107824,-131.571884,-1.847229,6.144994,0.410292,-0.910236,-0.055479,0.007301
320,-0.002914,-8.273276,-5.837787,79.053658,-7.945113,28.006887,-128.693329,-0.955639,5.692524,0.432749,-0.900107,-0.048366,0.013989
321,-0.035895,-8.555572,-5.638054,79.559013,-11.562276,19.824381,-125.904381,-0.087001,5.465951,0.454249,-0.889598,-0.042811,0.021007
322,-0.235832,-8.830420,-5.516200,83.888840,-14.436202,20.226566,-123.067627,0.741173,5.446540,0.475822,-0.878234,-0.038688,0.028325
323,-0.179597,-8.962559,-5.239162,87.729332,-16.783478,17.056240,-120.123863,1.563178,5.565668,0.497855,-0.865793,-0.035269,0.036034
324,-0.190593,-9.366658,-4.468048,86.246155,-17.734140,13.001729,-117.125694,2.275317,5.833380,0.519923,-0.852466,-0.033064,0.043452
325,-0.298968,-9.818977,-4.311101,85.872597,-19.021883,13.719954,-114.142685,2.926957,6.196445,0.541464,-0.838598,-0.031487,0.050776
326,-0.529363,-10.527592,-3.649781,83.987007,-20.703440,8.136199,-111.182037,3.506851,6.671300,0.562406,-0.824248,-0.030720,0.058066
327,-0.486797,-10.513270,-3.716162,82.540176,-20.930756,0.280211,-108.285797,3.858384,7.282732,0.582519,-0.809638,-0.031766,0.064411
328,-0.820009,-10.670151,-2.554054,75.338982,-20.752296,-1.117815,-105.528885,4.040222,7.958690,0.601312,-0.795222,-0.033938,0.069962
329,-0.959327,-10.505891,-1.923966,75.201202,-20.209520,-1.471297,-102.848724,4.184750,8.641677,0.619210,-0.780759,-0.036160,0.075410
330,-1.096151,-10.125488,-2.345961,75.021675,-18.001938,-2.175124,-100.237534,4.288936,9.284930,0.636323,-0.766264,-0.038152,0.080481
331,-1.031330,-10.030278,-3.386750,63.013660,-14.945516,0.305840,-98.003632,4.384490,9.827173,0.650673,-0.753556,-0.039595,0.084915
332,-1.287370,-9.909671,-2.467785,40.894020,-11.095424,3.783677,-96.418167,4.558891,10.237823,0.660585,-0.744385,-0.040071,0.088948
333,-1.249362,-9.892098,-2.793216,27.667107,-7.538280,7.203981,-95.441742,4.839160,10.514668,0.666454,-0.738709,-0.039452,0.092692
334,-1.056135,-10.339782,-3.408891,16.595064,-4.340863,11.914410,-94.963661,5.215345,10.661170,0.669089,-0.735972,-0.037789,0.096109
335,-1.201242,-10.647281,-2.873487,5.331956,-0.638220,13.763171,-94.878342,5.672770,10.682133,0.669218,-0.735579,-0.035154,0.099172
336,-1.380799,-10.402551,-2.361203,4.956805,3.737206,17.757755,-94.941116,6.227232,10.563700,0.668420,-0.736098,-0.031178,0.101992
337,-1.153988,-10.641427,-2.932171,7.125245,7.416944,18.248310,-94.995308,6.828965,10.301168,0.667756,-0.736582,-0.025992,0.104278
338,-0.962139,-11.029440,-3.159873,1.827597,11.240464,14.667720,-95.157814,7.322009,9.909758,0.666611,-0.737668,-0.020717,0.105106
339,-0.862428,-10.859002,-3.090618,-9.030631,15.753901,6.956876,-95.611885,7.579095,9.390584,0.663918,-0.740407,-0.016272,0.103660
340,-1.007157,-10.872254,-3.176842,-21.774767,19.229773,-0.719050,-96.470734,7.555531,8.760318,0.658930,-0.745444,-0.013085,0.099760
341,-0.867679,-10.773494,-2.674818,-36.243397,21.341351,-7.496287,-97.749138,7.267642,8.071778,0.651399,-0.752827,-0.011328,0.093821
342,-0.956984,-10.731882,-3.280011,-41.967899,22.462534,-12.944405,-99.343483,6.754717,7.370050,0.641820,-0.761902,-0.010865,0.086341
343,-1.145033,-10.716002,-3.460598,-49.295059,23.272352,-15.025414,-101.160995,6.119745,6.672970,0.630614,-0.772081,-0.011058,0.078070
344,-1.190049,-10.571321,-3.806390,-54.380394,21.608410,-14.047517,-103.166100,5.476637,6.017628,0.617850,-0.783094,-0.011434,0.069959
345,-0.880910,-10.588532,-4.223101,-60.228722,19.451550,-10.774664,-105.340698,4.893691,5.433322,0.603557,-0.794769,-0.011794,0.062625
346,-0.595892,-10.602858,-4.965132,-64.749962,17.731272,-7.497979,-107.692169,4.388269,4.905769,0.587661,-0.807070,-0.011965,0.056115
347,-0.331197,-10.490700,-5.130017,-73.011177,16.655109,-6.709223,-110.246475,3.919450,4.424479,0.569970,-0.820048,-0.012110,0.050094
348,-0.264513,-10.400676,-5.982536,-76.615242,15.945255,-7.445113,-112.990067,3.432803,3.992986,0.550557,-0.833534,-0.012513,0.044183
349,-0.419703,-10.710337,-6.544845,-84.954300,16.657404,-6.421099,-115.928505,2.945869,3.582248,0.529333,-0.847449,-0.012859,0.038354
350,-0.209788,-10.750248,-6.889798,-91.660912,16.594240,-7.748294,-119.076744,2.437124,3.191807,0.506140,-0.861740,-0.013224,0.032440
351,-0.615357,-10.822673,-7.121724,-94.163422,15.328219,-8.275276,-122.320305,1.914551,2.866034,0.481779,-0.875777,-0.013847,0.026692
352,-0.442861,-10.329391,-7.626216,-93.498558,11.737759,-5.246119,-125.557205,1.480069,2.613951,0.457011,-0.889075,-0.014375,0.021915
353,0.074574,-10.310405,-7.555537,-97.145981,9.504283,1.674922,-128.797424,1.196780,2.367669,0.431796,-0.901674,-0.014119,0.018343
354,-0.189927,-9.863029,-7.378457,-100.018761,6.863420,4.637546,-132.069672,1.074176,2.095638,0.405939,-0.913669,-0.012903,0.015992
355,-0.410894,-8.996082,-7.590667,-99.734825,0.756465,4.544628,-135.350952,1.104820,1.900446,0.379634,-0.924938,-0.011678,0.015216
356,0.095217,-8.513561,-7.828675,-98.611328,-0.891352,6.695982,-138.598389,1.225113,1.767073,0.353272,-0.935333,-0.010645,0.015450
357,-0.215644,-8.484065,-7.617480,-93.782433,2.102967,3.037781,-141.687622,1.292449,1.634036,0.327938,-0.944524,-0.009768,0.015332
358,-0.811906,-7.357926,-7.614778,-91.268669,0.969687,-7.548412,-144.614670,1.243484,1.665254,0.303711,-0.952592,-0.010546,0.014753
359,-0.332020,-6.546598,-7.758832,-96.513504,0.312253,-13.825192,-147.606018,1.071949,1.948035,0.278735,-0.960172,-0.013715,0.013723
360,-0.006052,-6.330268,-7.483617,-101.919197,6.153584,-16.549133,-150.747726,0.714364,2.329197,0.252331,-0.967407,-0.018092,0.011163
361,-0.172981,-5.643829,-7.000453,-114.040016,9.053002,-26.316826,-154.123123,0.152138,2.847332,0.223803,-0.974317,-0.023917,0.006856
362,-0.398989,-4.596685,-6.753458,-136.614716,6.527957,-32.249111,-158.074585,-0.443282,3.632697,0.190194,-0.981227,-0.031853,0.002232
363,-0.185590,-3.685464,-6.101480,-164.299911,8.406168,-31.325127,-162.874619,-0.974453,4.542719,0.149102,-0.987991,-0.040454,-0.002502
364,-0.139599,-2.931148,-5.850434,-155.632538,8.882198,-29.658159,-167.982742,-1.454553,5.444855,0.105151,-0.993241,-0.048560,-0.007638
365,-0.174670,-2.124881,-5.350938,-144.348022,9.229514,-28.966209,-172.760574,-1.848371,6.345337,0.063920,-0.996289,-0.056244,-0.012579
366,-0.381528,-1.406844,-5.069450,-130.938416,8.104237,-23.798624,-177.146973,-2.100125,7.180576,0.025989,-0.997532,-0.063047,-0.016726
367,0.061443,-0.946988,-4.536131,-106.881172,9.279260,-16.356102,179.084030,-2.309867,7.829042,-0.006597,-0.997443,-0.068091,-0.020654
368,0.181837,-0.592883,-4.741554,-68.606964,8.472982,-12.246488,176.352631,-2.568314,8.305813,-0.030110,-0.996671,-0.071652,-0.024645
369,0.418011,-0.223966,-4.858150,-56.541641,8.647864,-12.114946,174.425919,-2.848972,8.725851,-0.046579,-0.995707,-0.074755,-0.028456
370,0.213633,0.118515,-5.732323,-46.569881,6.165855,-9.316158,172.821045,-3.075763,9.103206,-0.060262,-0.994666,-0.077498,-0.031667
371,0.608896,0.582177,-6.525645,-34.973209,3.462531,-6.570794,171.527466,-3.217767,9.383965,-0.071303,-0.993704,-0.079476,-0.033946
372,0.665994,0.888964,-7.596470,-25.927443,1.268363,-5.160527,170.549118,-3.315091,9.588006,-0.079649,-0.992898,-0.080880,-0.035608
373,0.728166,1.091518,-8.539589,-19.408573,-1.272493,-2.943054,169.835266,-3.333077,9.719205,-0.085778,-0.992286,-0.081779,-0.036365
374,0.726746,1.231651,-9.159806,-13.292252,-2.994179,0.222017,169.346725,-3.288499,9.748120,-0.090032,-0.991899,-0.081910,-0.036351
375,0.851949,1.306933,-9.239410,-6.574538,-3.507168,1.469053,169.082062,-3.225962,9.696687,-0.092387,-0.991736,-0.081434,-0.035958
376,0.718817,1.381059,-9.496620,-0.248930,-3.443404,2.029422,169.038177,-3.160651,9.613765,-0.092842,-0.991770,-0.080758,-0.035357
377,0.740167,1.263396,-9.319423,0.716369,-2.722208,1.234738,169.123367,-3.100080,9.536704,-0.092173,-0.991903,-0.080168,-0.034710
378,0.598508,0.794134,-9.063023,7.216008,-0.780442,-4.183461,169.367188,-3.058832,9.567893,-0.090084,-0.992082,-0.080546,-0.034207
379,0.605868,0.893628,-8.611840,16.179102,0.488227,-9.504004,169.877106,-3.033247,9.784535,-0.085624,-0.992323,-0.082594,-0.033789
380,0.436286,0.655721,-8.076680,21.978792,1.478929,-10.072876,170.622864,-3.022859,10.105191,-0.079078,-0.992625,-0.085597,-0.033382
381,0.310787,0.539038,-7.755137,27.243174,1.498455,-11.417026,171.559982,-3.008204,10.460090,-0.070869,-0.992971,-0.088953,-0.032774
382,0.331670,0.280879,-7.309502,32.782536,0.429809,-8.143736,172.688507,-2.981351,10.780436,-0.061019,-0.993372,-0.092064,-0.031834
383,0.099361,0.318666,-7.160285,36.496628,-3.332692,-0.817671,173.973083,-2.884103,10.916575,-0.049925,-0.993900,-0.093642,-0.030016
384,0.075383,-0.144202,-7.180849,39.524445,-6.311636,6.744853,175.394562,-2.678384,10.796503,-0.037793,-0.994578,-0.093041,-0.027028
385,0.243574,-0.034504,-7.266140,41.909897,-7.735070,5.736336,176.912003,-2.421784,10.566732,-0.024879,-0.995220,-0.091461,-0.023516
386,0.195706,-0.198946,-7.166247,46.030811,-8.750488,5.483165,178.504532,-2.134547,10.363983,-0.011312,-0.995677,-0.090054,-0.019727
387,0.260306,-0.183794,-7.308629,52.703796,-8.569300,3.246265,-179.750061,-1.835580,10.211919,0.003598,-0.995899,-0.089021,-0.015760
388,0.580170,-0.286950,-6.934570,54.041080,-5.143937,-4.120835,-177.909012,-1.642643,10.228643,0.019449,-0.995727,-0.089380,-0.012648
389,0.450280,-0.691524,-7.052027,61.062672,-2.747701,-6.168592,-175.926102,-1.581228,10.403452,0.036644,-0.995113,-0.091085,-0.010511
390,0.447057,-1.886494,-7.088342,70.558342,-0.309153,-10.416691,-173.562943,-1.604583,10.676840,0.057196,-0.993921,-0.093665,-0.008696
391,0.374868,-2.131717,-7.565306,77.544724,-0.036238,-18.035517,-170.859558,-1.700875,11.138992,0.080732,-0.991891,-0.097911,-0.006993
392,-0.133406,-3.531370,-8.426831,77.876152,0.520214,-24.581354,-168.008377,-1.820501,11.827247,0.105515,-0.988941,-0.104103,-0.004955
393,0.005279,-3.675450,-9.876996,85.067787,1.788087,-23.219637,-165.046906,-1.988600,12.587255,0.131203,-0.985127,-0.110920,-0.002840
394,-0.318700,-3.724928,-10.197149,72.305992,-0.135206,-21.366436,-162.283066,-2.156311,13.289971,0.155084,-0.980925,-0.117195,-0.000650
395,-0.606130,-3.688850,-11.225393,66.186302,-6.205756,-13.665501,-159.928452,-2.135468,13.878060,0.175173,-0.976924,-0.122167,0.002835
396,-0.010578,-4.792561,-11.805970,57.848160,-4.278319,-4.428082,-157.843002,-1.990852,14.223821,0.192757,-0.973254,-0.124795,0.006869
397,0.534068,-3.653719,-12.093733,57.923073,-2.771408,2.739391,-155.957932,-1.873367,14.298507,0.208614,-0.969914,-0.125087,0.010052
398,-0.045624,-4.174618,-11.579695,49.169445,-7.790852,9.342231,-154.289551,-1.609580,14.194005,0.222454,-0.966984,-0.123542,0.013897
399,0.599846,-4.650249,-11.677737,57.047436,-6.187516,7.167842,-152.618622,-1.266975,14.054717,0.236202,-0.963910,-0.121457,0.018293
400,1.297779,-4.454412,-11.202319,58.558659,-0.679794,3.794321,-150.810623,-1.154564,13.950228,0.251286,-0.960213,-0.120034,0.020920
401,0.996182,-3.696208,-10.233129,65.561020,-0.501083,4.561507,-148.926453,-1.179737,13.841019,0.267086,-0.956056,-0.118821,0.022426
402,1.399141,-4.698224,-8.794323,73.379372,1.590244,3.106445,-146.761154,-1.263190,13.721889,0.285210,-0.950929,-0.117593,0.023678
403,1.253248,-4.866072,-8.206960,84.168427,6.961486,0.901615,-144.201584,-1.504975,13.581382,0.306639,-0.944364,-0.116518,0.023928
404,1.247884,-5.951447,-7.228215,83.888107,8.111684,5.351378,-141.381805,-1.795349,13.339566,0.330103,-0.936644,-0.114745,0.023716
405,0.113100,-6.885005,-6.234167,89.731636,9.907975,7.865027,-138.318100,-1.945638,12.966946,0.355240,-0.927779,-0.111515,0.024401
406,0.169827,-8.172023,-5.607018,93.459846,9.648139,11.628729,-134.965805,-1.934654,12.497791,0.382327,-0.917442,-0.106962,0.026176
407,-0.710046,-8.671268,-5.881742,90.627243,6.478574,18.444189,-131.578308,-1.670566,11.950993,0.409208,-0.906368,-0.100882,0.029464
408,-0.327955,-9.258818,-5.208989,86.802101,4.033146,19.883049,-128.325500,-1.179676,11.402727,0.434558,-0.895090,-0.093872,0.034074
409,-0.516120,-9.040756,-5.064092,95.143990,2.316200,17.672974,-125.024567,-0.648399,10.942477,0.459927,-0.882805,-0.087181,0.039010
410,-0.094250,-8.909945,-4.950459,94.893875,0.233605,16.948410,-121.670975,-0.124617,10.592142,0.485326,-0.869447,-0.081128,0.044035
411,-0.649861,-9.111731,-4.893070,93.767067,0.127247,17.659700,-118.413200,0.432644,10.300469,0.509582,-0.855718,-0.075186,0.049186
412,-0.211106,-9.243406,-4.258190,93.271049,-1.028850,15.085530,-115.212822,0.981593,10.071649,0.533010,-0.841501,-0.069545,0.054229
413,-0.230694,-9.942578,-3.858654,95.882057,-2.352059,14.301563,-111.970222,1.465539,9.930414,0.556346,-0.826333,-0.064608,0.058974
414,-0.705080,-10.251447,-3.706996,92.387169,-4.514736,15.234845,-108.761139,1.997777,9.869267,0.578933,-0.810641,-0.059799,0.064209
415,-0.431839,-10.448443,-3.631687,88.560860,-7.817235,17.030283,-105.725395,2.602909,9.908135,0.599753,-0.795192,-0.055164,0.070161
416,-0.267849,-10.550662,-3.179121,81.476898,-10.330304,14.907338,-102.903648,3.181426,10.068284,0.618624,-0.780285,-0.051369,0.076289
417,-0.416696,-10.766543,-2.409861,77.707550,-11.814785,12.149095,-100.245720,3.669791,10.338129,0.635995,-0.765758,-0.048660,0.082207
419,-0.514932,-10.443340,-2.338289,70.945305,-13.660937,12.990628,-97.771774,4.126183,10.690025,0.651751,-0.751844,-0.046567,0.088218
420,-0.360813,-10.842571,-2.095966,62.849506,-13.137195,10.355602,-95.582344,4.525587,11.082834,0.665350,-0.739226,-0.045068,0.093934
421,-0.494951,-10.260592,-1.273473,53.165573,-11.302690,10.091495,-93.677048,4.848042,11.456534,0.676953,-0.728025,-0.043952,0.098912
422,-0.517555,-9.964615,-1.242037,45.420986,-11.294768,6.827553,-92.064606,5.102712,11.813144,0.686585,-0.718381,-0.043251,0.103241
423,-0.825800,-10.251887,-1.931052,33.890701,-10.180347,6.571742,-90.861244,5.305457,12.152706,0.693592,-0.711078,-0.043032,0.106992
424,-0.890692,-10.253983,-1.277535,18.703150,-6.899044,4.358804,-90.143204,5.479831,12.419755,0.697615,-0.706683,-0.042935,0.109950
425,-0.904151,-9.637415,-0.888428,10.310450,-3.672792,4.831649,-89.784439,5.627267,12.583422,0.699523,-0.704490,-0.042687,0.111980
426,-1.001015,-10.790189,-1.213336,4.499458,-0.579271,4.387420,-89.677200,5.775101,12.641027,0.699980,-0.703869,-0.042023,0.113270
427,-0.798808,-10.926644,-0.869773,-5.339875,3.377922,1.353083,-89.839676,5.847115,12.580252,0.698971,-0.704909,-0.041366,0.113278
428,-0.923160,-10.614714,-0.199148,-11.746706,7.199090,-1.428180,-90.218872,5.814960,12.395409,0.696847,-0.707273,-0.040797,0.111820
429,-0.849208,-10.859267,-0.933747,-13.154531,9.494333,-3.675264,-90.736031,5.699884,12.109122,0.694035,-0.710474,-0.040231,0.109196
430,-1.098436,-11.017268,-1.013094,-21.433426,12.937207,-6.044062,-91.463951,5.513729,11.725325,0.690043,-0.714942,-0.039662,0.105478
431,-0.868522,-10.695375,-0.943999,-30.924967,14.848004,-6.369449,-92.480721,5.279691,11.257880,0.684306,-0.721127,-0.039065,0.100872
432,-1.430074,-10.623963,-1.369967,-34.747841,16.664150,-4.276784,-93.727089,5.092061,10.731226,0.677039,-0.728653,-0.037930,0.096148
433,-1.182229,-10.425771,-1.906747,-40.665531,17.009359,-1.771199,-95.175751,4.993344,10.163823,0.668321,-0.737315,-0.036073,0.091722
434,-1.116238,-10.311502,-1.923530,-46.620068,17.942057,1.771508,-96.830513,4.961938,9.568656,0.658094,-0.747066,-0.033696,0.087572
435,-0.873082,-10.327934,-2.601846,-48.570858,16.756836,1.845162,-98.625465,4.954285,8.971589,0.646762,-0.757454,-0.031160,0.083614
436,-0.824444,-10.431415,-3.246495,-54.513298,14.657777,-2.400223,-100.586151,4.846787,8.438184,0.634166,-0.768539,-0.029609,0.079401
437,-0.484722,-10.407592,-3.586107,-62.984653,12.580274,-5.707973,-102.790993,4.585583,8.002031,0.619741,-0.780684,-0.029582,0.074688
438,-0.355674,-10.599923,-4.224873,-73.865585,10.141324,-9.930608,-105.310394,4.176921,7.681478,0.602905,-0.794168,-0.031160,0.069512
439,-0.404367,-10.498117,-4.854654,-86.788651,7.569668,-13.513779,-108.227463,3.655617,7.496550,0.582937,-0.809260,-0.034280,0.064087
440,-0.488413,-10.269367,-5.322696,-99.255547,5.548711,-13.626343,-111.560951,3.113342,7.431635,0.559520,-0.825836,-0.038324,0.058848
441,-0.422629,-10.049397,-6.011409,-107.245308,5.157283,-8.431273,-115.229927,2.676915,7.402883,0.533070,-0.843284,-0.042017,0.054252
442,-0.554082,-10.042366,-6.687660,-114.961639,5.789516,-1.220001,-119.153763,2.437859,7.305790,0.504070,-0.861049,-0.044177,0.050562
443,-0.486713,-9.598468,-7.125618,-115.137596,8.193132,3.302937,-123.190247,2.346353,7.081798,0.473579,-0.878346,-0.044593,0.047349
444,-0.543261,-9.663168,-7.711412,-110.754364,11.033048,9.261822,-127.125641,2.335119,6.693473,0.443300,-0.894240,-0.043206,0.044200
445,-0.254348,-9.501213,-8.148551,-103.065872,13.046118,14.448202,-130.818954,2.379073,6.129774,0.414436,-0.908270,-0.039981,0.041094
446,-0.284841,-9.398440,-8.248758,-96.460258,12.770566,15.416481,-134.217453,2.428656,5.476591,0.387519,-0.920380,-0.035768,0.038080
447,-0.227478,-9.566937,-8.049581,-82.389694,11.481807,17.068260,-137.178268,2.487432,4.810615,0.363798,-0.930280,-0.031146,0.035507
448,-0.336294,-9.217293,-8.232762,-68.017609,8.743332,15.366060,-139.591934,2.566831,4.189477,0.344279,-0.937889,-0.026564,0.033626
449,0.080012,-8.578656,-7.977861,-61.828018,9.324250,7.047021,-141.625671,2.523406,3.717738,0.327728,-0.943959,-0.023395,0.031443
450,-0.103857,-8.253979,-7.674312,-54.872570,9.429408,-2.012394,-143.388733,2.264881,3.470477,0.313312,-0.948962,-0.022538,0.028264
451,-0.723401,-7.919142,-7.897815,-53.232716,5.788523,-2.659768,-144.979248,2.006908,3.394188,0.300206,-0.953254,-0.022972,0.025603
452,-0.324671,-6.665732,-8.179214,-64.951172,3.760044,-16.029781,-146.785873,1.715700,3.568665,0.285189,-0.957849,-0.025558,0.023239
453,-0.565130,-6.356375,-7.492615,-78.214417,5.676051,-16.412605,-149.020905,1.310925,3.946793,0.266507,-0.963150,-0.030129,0.020214
454,-0.841644,-6.109829,-7.478685,-83.028442,0.560717,-13.226989,-151.508453,1.042271,4.327079,0.245563,-0.968603,-0.034353,0.018099
455,-0.427079,-5.186814,-7.599241,-95.114037,-0.549074,-19.296114,-154.292526,0.861858,4.810783,0.221953,-0.974125,-0.039245,0.016663
456,-0.149177,-4.480867,-6.852467,-113.585960,2.663819,-25.915302,-157.594421,0.544746,5.484560,0.193834,-0.979855,-0.046009,0.013953
457,-0.674689,-4.056626,-6.640423,-123.988976,1.110148,-20.139015,-161.340408,0.274235,6.179697,0.161754,-0.985355,-0.052801,0.011096
458,-0.196701,-3.012671,-6.917485,-148.901581,-1.380834,-21.610710,-165.707504,0.153576,6.844126,0.124101,-0.990472,-0.059061,0.008753
459,0.026898,-1.881002,-6.189318,-177.318832,2.491637,-21.969193,-171.040039,0.000307,7.548968,0.077941,-0.994782,-0.065628,0.005145
460,-0.414458,-1.488335,-5.894575,-170.531311,-0.077942,-11.752913,-176.725784,-0.054042,8.098342,0.028531,-0.997096,-0.070597,0.001547
461,-0.263920,-0.601097,-5.897889,-152.957062,-0.433116,-7.154985,177.993179,0.035428,8.406418,-0.017487,-0.997157,-0.073288,-0.000975
462,0.183086,-0.239229,-5.493447,-131.830765,4.361067,-5.053696,173.344666,-0.005160,8.610137,-0.057879,-0.995497,-0.074938,-0.004402
463,0.016320,0.200058,-5.088994,-94.858444,6.701194,-3.880224,169.683044,-0.191654,8.784243,-0.089519,-0.993035,-0.076122,-0.008546
464,0.000662,0.384359,-5.593408,-57.473370,6.164064,-3.350724,167.280182,-0.377749,8.944072,-0.110180,-0.990843,-0.077128,-0.011903
465,0.174084,0.860757,-5.848163,-48.768074,7.876606,-3.776330,165.642548,-0.591836,9.113372,-0.124161,-0.989063,-0.078178,-0.015036
466,0.290002,1.370582,-6.497480,-37.816738,7.430808,-3.528791,164.282211,-0.847020,9.296970,-0.135687,-0.987404,-0.079272,-0.018379
467,0.283985,1.907162,-7.334283,-29.585926,5.781044,-4.295969,163.200653,-1.062063,9.484052,-0.144813,-0.985956,-0.080430,-0.021213
468,0.329137,1.914338,-8.226163,-20.629782,4.068408,-3.740211,162.420761,-1.210301,9.660054,-0.151377,-0.984828,-0.081598,-0.023266
469,0.269490,2.225000,-8.866512,-9.473802,1.572635,-4.156532,162.005508,-1.280364,9.812596,-0.154860,-0.984165,-0.082728,-0.024370
470,0.251873,2.436867,-9.148216,-2.518950,0.054609,-4.832368,161.884384,-1.268910,9.961783,-0.155877,-0.983892,-0.083999,-0.024562
471,0.128143,2.462427,-9.385862,3.538625,-0.757308,-5.239767,161.979156,-1.202478,10.116005,-0.155082,-0.983905,-0.085434,-0.024131
472,0.087335,2.466077,-9.266471,7.466025,-2.256255,-4.020650,162.241577,-1.092473,10.245780,-0.152887,-0.984156,-0.086752,-0.023163
473,0.025720,2.526989,-9.105896,8.183919,-3.033605,-2.894681,162.568008,-0.953472,10.327753,-0.150176,-0.984519,-0.087706,-0.021830
474,-0.079288,2.395447,-8.683567,8.420686,-3.998950,-0.578596,162.897675,-0.794481,10.347429,-0.147465,-0.984924,-0.088144,-0.020236
475,-0.171129,2.189456,-7.954508,13.604278,-4.918932,1.790764,163.312073,-0.615207,10.284429,-0.144053,-0.985488,-0.087902,-0.018297
476,-0.095780,1.517089,-7.001412,25.864607,-5.194948,3.549776,164.048233,-0.436486,10.151238,-0.137877,-0.986483,-0.087088,-0.016033
477,-0.168308,0.781205,-6.107245,43.543324,-5.251244,3.332747,165.369431,-0.256559,9.994202,-0.126651,-0.988113,-0.086112,-0.013303
478,-0.253277,0.515447,-5.423352,58.007351,-6.382416,2.171025,167.284103,-0.028254,9.859767,-0.110309,-0.990175,-0.085381,-0.009761
479,-0.377889,0.010145,-5.141013,65.031044,-6.827832,5.409889,169.603790,0.251520,9.694348,-0.090460,-0.992307,-0.084349,-0.005477
480,-0.042089,-0.898387,-5.219322,73.038780,-6.870834,7.622043,172.304733,0.497701,9.448596,-0.067232,-0.994323,-0.082465,-0.001208
481,-0.229794,-1.039894,-5.812137,80.537453,-8.284640,7.525698,175.325516,0.745701,9.175228,-0.041170,-0.995925,-0.080180,0.003219
482,-0.333380,-1.008916,-6.823658,74.696716,-11.533368,8.209011,178.287140,1.107858,8.901123,-0.015651,-0.996816,-0.077731,0.008478
483,-0.581235,-1.873440,-7.578676,73.564064,-10.102690,9.933004,-178.896744,1.531206,8.604735,0.008597,-0.997056,-0.074881,0.014046
484,-0.163614,-2.320871,-8.577817,83.444420,-8.185749,4.050241,-175.922485,1.879586,8.397098,0.034275,-0.996594,-0.072575,0.018952
485,-0.149790,-2.285856,-9.801952,73.475929,-5.424766,-0.831505,-173.024002,2.093279,8.374498,0.059336,-0.995398,-0.071760,0.022625
486,-0.073615,-1.999995,-10.161659,52.745609,-3.076797,-10.719802,-170.749268,2.173401,8.590017,0.078984,-0.993880,-0.073109,0.024889
487,0.023744,-2.137053,-10.392263,52.697975,2.781332,-14.475443,-168.895798,2.056153,9.006333,0.095035,-0.992213,-0.076403,0.025398
488,0.524892,-2.067072,-10.493473,51.383625,5.150968,-20.076170,-167.114059,1.718117,9.542040,0.110574,-0.990270,-0.080963,0.024179
489,0.547610,-2.002266,-10.153396,52.724213,6.184886,-23.067797,-165.383774,1.244616,10.192055,0.125738,-0.988020,-0.086722,0.022029
490,0.483115,-2.144419,-9.677405,75.007217,6.197600,-29.704870,-163.290268,0.699453,10.978233,0.144057,-0.984917,-0.093757,0.019910
491,0.198658,-3.104379,-9.198560,107.974770,9.982744,-26.539211,-160.238892,0.076543,11.778842,0.170622,-0.979979,-0.100973,0.018262
492,0.340099,-4.242650,-8.940284,128.303238,11.795561,-24.388184,-156.214111,-0.626218,12.427421,0.205449,-0.972649,-0.107032,0.016990
493,0.796024,-4.897653,-8.651401,138.360748,13.288708,-23.142431,-151.644897,-1.424911,12.947837,0.244706,-0.962941,-0.112334,0.015635
494,0.016935,-5.823336,-7.940242,137.458481,14.299945,-19.524773,-146.898895,-2.215186,13.315064,0.285036,-0.951289,-0.116580,0.014615
495,-0.189743,-7.387784,-7.440741,122.974884,12.713050,-7.688477,-142.328079,-2.787776,13.417650,0.323244,-0.938771,-0.118335,0.014841
496,0.277001,-8.214258,-7.357080,113.231865,10.146653,2.271096,-138.113998,-3.083455,13.233753,0.357825,-0.926271,-0.117131,0.016213
497,0.504925,-8.610338,-7.132344,105.390343,6.682484,8.442708,-134.222290,-3.141022,12.898617,0.389174,-0.913890,-0.114033,0.018582
498,-0.240551,-9.167581,-6.957431,104.180618,2.984011,16.460062,-130.519714,-2.883579,12.489972,0.418374,-0.901394,-0.109232,0.022794
499,0.373822,-9.694775,-7.409712,102.280479,0.106249,22.512156,-126.935913,-2.342072,12.039277,0.446060,-0.888608,-0.102884,0.028651
500,0.435531,-9.323755,-7.260516,105.453773,0.150176,20.586901,-123.435631,-1.741612,11.620760,0.472681,-0.875270,-0.096305,0.034647
501,0.481504,-9.386522,-6.937192,95.585464,-0.878258,19.408714,-120.129654,-1.173945,11.282537,0.497450,-0.861846,-0.090269,0.040216
502,0.244134,-9.852325,-6.825695,80.985306,-0.685915,20.377422,-117.279770,-0.588121,10.988637,0.518437,-0.849723,-0.084417,0.045465
503,0.294220,-9.908369,-6.213106,71.819733,-0.783463,18.680248,-114.850433,-0.004169,10.725410,0.536046,-0.838999,-0.078777,0.050288
504,0.237514,-10.104351,-5.716846,69.444519,-1.079144,15.133231,-112.616020,0.498615,10.526762,0.552052,-0.828737,-0.073921,0.054492
505,0.252284,-10.211782,-5.235161,66.877144,-1.954524,13.758787,-110.461082,0.928588,10.395793,0.567309,-0.818467,-0.069816,0.058292
506,0.135474,-10.631736,-4.715128,62.354023,-4.079588,10.461505,-108.408531,1.300926,10.353717,0.581643,-0.808346,-0.066569,0.061943
507,-0.020703,-10.002052,-4.086913,63.591579,-6.041483,3.468643,-106.398827,1.538574,10.442386,0.595514,-0.798063,-0.064851,0.065214
508,0.068210,-10.080991,-3.493088,58.850861,-5.375736,1.378440,-104.436005,1.629004,10.602061,0.608939,-0.787692,-0.064340,0.067784
509,-0.270196,-10.075946,-3.105559,53.512447,-3.455822,2.621261,-102.627754,1.702566,10.726860,0.621164,-0.777947,-0.063709,0.069966
510,-0.264716,-10.176111,-2.404986,47.593506,-2.456263,3.113978,-100.982727,1.810946,10.802121,0.632143,-0.768954,-0.062603,0.072014
511,-0.198611,-9.752037,-2.067369,49.179779,-0.991277,1.471710,-99.389488,1.884716,10.844218,0.642693,-0.760099,-0.061460,0.073601
512,-0.229278,-10.150048,-1.557514,46.609989,-0.080202,3.842477,-97.797218,1.958885,10.848330,0.653137,-0.751126,-0.060034,0.074956
513,-0.590514,-10.167417,-1.860463,47.115803,-1.268903,3.690181,-96.258980,2.094923,10.854099,0.663059,-0.742347,-0.058270,0.076667
514,-0.102973,-9.924070,-1.372224,42.821636,-3.228136,3.108729,-94.810188,2.212685,10.916203,0.672264,-0.733926,-0.057000,0.078514
515,-0.421347,-9.811314,-1.691328,40.124115,-3.546891,3.341673,-93.506111,2.312290,11.017540,0.680430,-0.726223,-0.056151,0.080388
516,-0.682043,-9.891464,-1.655503,32.531136,-2.730390,8.233028,-92.428070,2.533118,11.106791,0.687006,-0.719846,-0.054623,0.082830
517,-0.618518,-9.715933,-1.438940,26.904657,-1.619365,8.788063,-91.584023,2.852645,11.163089,0.692009,-0.714882,-0.052424,0.085555
518,-0.554307,-9.687059,-1.294324,21.371244,-0.775318,9.809537,-90.927620,3.182091,11.189363,0.695820,-0.711037,-0.050084,0.088047
519,-0.814892,-9.901811,-1.318795,16.969799,0.908041,11.179094,-90.447083,3.555782,11.174600,0.698515,-0.708275,-0.047332,0.090462
520,-0.723804,-10.141685,-0.880124,12.391973,2.182446,12.475452,-90.100479,3.975072,11.113024,0.700367,-0.706350,-0.044099,0.092796
522,-0.796996,-10.414272,-0.916726,8.777724,2.854110,9.324801,-89.871605,4.349929,11.021144,0.701545,-0.705123,-0.041037,0.094612
523,-0.718101,-10.497803,-0.979086,2.936760,4.915947,6.675780,-89.816147,4.616501,10.882509,0.701781,-0.704925,-0.038493,0.095410
524,-0.707285,-10.643349,-0.681030,-5.407798,6.082054,5.337024,-89.988586,4.801370,10.689803,0.700726,-0.706104,-0.036310,0.095304
525,-0.834450,-10.543607,-0.919393,-12.166726,6.782754,1.735386,-90.410179,4.904774,10.465084,0.698223,-0.708778,-0.034636,0.094435
526,-0.787897,-10.478085,-1.116325,-21.294643,7.802448,1.301659,-91.122025,4.940928,10.209113,0.693986,-0.713189,-0.033408,0.092891
527,-0.631864,-10.216650,-1.188454,-30.378529,8.307941,0.888828,-92.146225,4.944366,9.926961,0.687807,-0.719446,-0.032445,0.090917
528,-0.861509,-10.195313,-1.289193,-37.347221,7.534688,2.411072,-93.430016,4.966882,9.648666,0.679904,-0.727191,-0.031561,0.089039
529,-0.631488,-10.115559,-1.939895,-42.668701,8.394269,3.670865,-94.943138,5.028722,9.362555,0.670414,-0.736197,-0.030531,0.087335
530,-0.500709,-10.188173,-2.301752,-50.138290,7.761674,4.290438,-96.704391,5.087237,9.064807,0.659198,-0.746504,-0.029591,0.085522
531,-0.624906,-10.007814,-2.824032,-56.975288,6.135808,-0.285807,-98.720360,5.073736,8.808625,0.646163,-0.758050,-0.029473,0.083455
532,-0.833671,-9.799267,-3.310919,-66.306526,5.756643,-2.206144,-101.027374,4.972987,8.599569,0.630997,-0.770948,-0.030300,0.081020
533,-0.634330,-9.709688,-3.835552,-79.254807,6.398399,-4.300323,-103.721786,4.800017,8.402787,0.612960,-0.785607,-0.031780,0.078053
534,-0.627645,-9.810364,-4.193088,-90.950081,5.598223,-7.759053,-106.816177,4.517706,8.242732,0.591834,-0.801892,-0.034225,0.074373
535,-1.059904,-9.538880,-4.722736,-102.237541,6.702068,-8.103807,-110.276894,4.198864,8.113727,0.567654,-0.819412,-0.037124,0.070395
536,-0.518418,-9.316209,-5.510916,-109.979111,9.011435,-3.104731,-114.068863,3.924354,7.922540,0.540532,-0.837790,-0.039339,0.066226
537,-0.472526,-9.474899,-6.425170,-116.817581,10.227081,0.765654,-118.115715,3.712389,7.636609,0.510912,-0.856443,-0.040468,0.061942
538,-0.611591,-9.458408,-7.413803,-118.135094,9.654231,6.038651,-122.297241,3.615497,7.279713,0.479572,-0.874639,-0.040386,0.058193
539,-0.855057,-8.986160,-8.213071,-116.164284,9.453311,13.976671,-126.475136,3.706929,6.814806,0.447545,-0.891702,-0.038503,0.055577
540,-0.305833,-9.173467,-8.764210,-112.396317,10.308675,22.826685,-130.537720,3.959009,6.163621,0.415820,-0.907203,-0.034372,0.053807
541,-0.640305,-9.416016,-8.868525,-100.679810,12.536089,23.851149,-134.266159,4.235258,5.353454,0.386313,-0.920447,-0.028658,0.052145
542,-0.851700,-9.490679,-8.797956,-78.551384,10.952646,22.852720,-137.329697,4.478581,4.521673,0.361826,-0.930593,-0.022513,0.050708
543,-0.595101,-9.456312,-8.862911,-54.854481,12.109874,15.884555,-139.539856,4.591739,3.788671,0.344082,-0.937504,-0.017148,0.048989
544,-0.230537,-9.230776,-8.946596,-39.698055,12.079305,4.236979,-141.035110,4.429629,3.282149,0.332089,-0.942022,-0.014094,0.045963
545,-0.842216,-8.764012,-8.522926,-34.649796,9.753284,-1.556819,-142.139832,4.122225,3.032941,0.323190,-0.945281,-0.013353,0.042588
546,-1.031112,-8.235957,-8.484203,-39.956116,3.340950,0.982110,-143.228241,3.948115,2.920152,0.314293,-0.948360,-0.013304,0.040710
547,-0.458400,-7.962418,-8.039075,-50.038116,6.198996,-6.643439,-144.551605,3.755353,2.915672,0.303379,-0.951967,-0.014249,0.038941
548,-0.758316,-6.987812,-8.115597,-58.899792,6.835513,-14.760454,-146.191208,3.357847,3.097183,0.289787,-0.956261,-0.017330,0.035877
549,-1.019369,-6.412271,-7.741128,-85.653824,1.025200,-10.962019,-148.445114,3.050390,3.395267,0.270927,-0.961776,-0.021265,0.033655
550,-0.570076,-5.642000,-7.492202,-98.196846,-1.150390,-15.168551,-151.347855,2.870984,3.781031,0.246427,-0.968276,-0.025758,0.032420
551,-0.267957,-4.850268,-7.318297,-100.779015,0.926533,-28.120922,-154.502548,2.537518,4.431718,0.219622,-0.974568,-0.032819,0.030110
552,-0.489237,-3.899496,-7.609638,-105.125191,-0.936554,-25.600300,-157.816452,2.169402,5.253543,0.191293,-0.980280,-0.041328,0.027373
553,-0.194559,-3.585030,-7.091564,-124.112740,-3.806845,-17.538921,-161.529190,1.994736,5.958505,0.159357,-0.985699,-0.048503,0.025498
554,0.076827,-3.047214,-6.659026,-128.179428,3.708070,-19.997797,-165.574585,1.780751,6.566526,0.124449,-0.990451,-0.054865,0.022581
555,0.156206,-2.366512,-6.560241,-136.942612,7.982870,-23.367849,-169.825409,1.367046,7.237200,0.087740,-0.994071,-0.061806,0.017455
556,-0.096680,-1.534637,-6.419153,-147.161179,8.338309,-19.042307,-174.431244,0.956975,7.905291,0.047885,-0.996437,-0.068443,0.011670
557,-0.014216,-0.898630,-5.991477,-155.889908,7.479761,-14.650820,-179.387146,0.649697,8.454332,0.004916,-0.997252,-0.073679,0.006048
558,-0.201008,-0.001708,-5.714139,-146.539566,7.890005,-13.506418,175.616821,0.418612,8.932055,-0.038409,-0.996217,-0.077950,0.000662
559,-0.232686,0.394700,-5.641288,-124.905113,6.458840,-8.747112,171.101379,0.265688,9.324314,-0.077508,-0.993670,-0.081214,-0.004002
560,-0.094202,0.650738,-5.721676,-96.686523,5.858070,-6.871860,167.449570,0.146048,9.615141,-0.109026,-0.990499,-0.083446,-0.007898
561,0.084230,1.018588,-5.985004,-73.618431,6.683703,-6.839781,164.680283,-0.005203,9.886342,-0.132792,-0.987391,-0.085393,-0.011530
562,0.055900,1.760933,-6.387558,-57.321915,7.422827,-8.182461,162.533539,-0.178236,10.193066,-0.151097,-0.984518,-0.087569,-0.015019
563,0.191739,1.910378,-6.949032,-42.721024,7.743997,-8.037274,160.890152,-0.356701,10.529263,-0.165010,-0.982010,-0.089968,-0.018287
564,0.002028,2.379012,-7.526435,-28.526867,7.053152,-10.428271,159.745880,-0.498170,10.902129,-0.174628,-0.980032,-0.092754,-0.020963
565,-0.148708,2.802256,-8.144598,-16.827942,5.050419,-9.679295,159.022079,-0.546657,11.286407,-0.180700,-0.978599,-0.095825,-0.022569
566,-0.138836,2.802967,-8.677403,-4.391366,3.698836,-9.041869,158.719543,-0.534139,11.629274,-0.183225,-0.977826,-0.098711,-0.023263
567,-0.251867,2.801361,-9.205684,9.468655,1.750404,-10.699515,158.894058,-0.457073,11.968019,-0.181736,-0.977798,-0.101760,-0.022993
568,-0.356958,2.983349,-9.459744,15.166718,-0.225921,-10.489594,159.401794,-0.298614,12.306590,-0.177481,-0.978266,-0.104998,-0.021713
569,-0.199600,2.994662,-9.673338,18.741823,-1.744232,-8.353868,160.053360,-0.109866,12.589765,-0.172042,-0.978968,-0.107824,-0.019928
570,-0.187719,3.076078,-9.730551,15.580996,-2.354092,-6.355271,160.697800,0.068990,12.797883,-0.166670,-0.979694,-0.109973,-0.018095
571,-0.161582,2.986893,-9.453437,11.957134,-3.050710,-4.501556,161.209274,0.238496,12.939731,-0.162437,-0.980262,-0.111506,-0.016354
572,-0.008460,2.920217,-9.099238,10.526969,-2.465020,-3.920275,161.619141,0.378794,13.043634,-0.159052,-0.980709,-0.112647,-0.014899
573,-0.044435,2.801545,-8.774137,11.826227,-1.476106,-4.245262,162.013382,0.480045,13.152534,-0.155763,-0.981124,-0.113767,-0.013792
574,-0.128333,2.477466,-8.568604,17.998125,-0.037251,-4.536752,162.543274,0.551656,13.284567,-0.151280,-0.981688,-0.115055,-0.012826
575,-0.174208,2.112532,-8.554004,33.763203,1.235009,-5.182356,163.475540,0.591431,13.446147,-0.143312,-0.982716,-0.116591,-0.011751
576,-0.310200,1.924873,-8.386969,45.476143,1.658406,-5.501550,164.887680,0.619114,13.632031,-0.131202,-0.984212,-0.118355,-0.010288
577,-0.436529,1.483142,-7.943939,54.291748,0.994579,-2.039704,166.653107,0.656331,13.766978,-0.116053,-0.985969,-0.119698,-0.008280
578,-0.467554,1.014040,-7.362707,63.015057,0.522416,3.660557,168.732559,0.692965,13.749487,-0.098181,-0.987926,-0.119708,-0.005776
579,-0.416833,0.322443,-6.497377,62.119003,-0.297877,9.643118,170.987930,0.723301,13.536841,-0.078757,-0.989883,-0.117982,-0.003011
580,-0.532614,0.108995,-5.635339,52.063812,-2.373211,11.702487,173.088150,0.812626,13.184189,-0.060693,-0.991508,-0.115013,0.000112
581,-0.398217,0.044874,-5.145440,34.518543,-3.128901,16.560469,174.701080,0.956530,12.711566,-0.046863,-0.992714,-0.110963,0.003170
582,-0.279162,-0.335825,-5.190592,26.065203,-3.508172,22.730949,175.890564,1.083494,12.054724,-0.036646,-0.993752,-0.105268,0.005632
583,-0.014183,-0.652434,-5.866005,24.147545,-3.392687,22.530857,176.954422,1.165242,11.299672,-0.027445,-0.994713,-0.098678,0.007499
584,-0.115152,-0.600159,-6.428174,32.024551,-2.336297,16.956528,178.111206,1.218942,10.642424,-0.017396,-0.995483,-0.092896,0.009061
585,0.281976,-1.147336,-7.523615,47.261139,-2.087654,16.606976,179.655899,1.239313,10.086046,-0.003942,-0.996063,-0.087931,0.010509
586,0.108801,-2.037814,-7.928123,77.298744,0.269051,9.645530,-177.964447,1.210664,9.653672,0.016810,-0.996256,-0.083940,0.012020
587,0.080838,-2.184781,-8.844708,100.720474,-2.103770,2.360507,-174.674301,1.210331,9.461086,0.045428,-0.995502,-0.081887,0.014346
588,-0.081186,-3.014170,-8.926812,116.464691,-1.942573,-5.678340,-170.745224,1.242245,9.528459,0.079495,-0.993311,-0.081909,0.017468
589,0.042506,-3.467682,-9.621340,125.823906,-2.596337,-6.307354,-166.412048,1.251826,9.744017,0.116944,-0.989441,-0.083041,0.020855
590,0.073334,-4.636332,-9.411514,125.535950,-1.415582,-11.019871,-161.935532,1.198746,10.043069,0.155475,-0.983900,-0.084804,0.024032
591,0.045406,-5.159029,-10.217204,123.634338,-2.119394,-14.032574,-157.516510,1.072621,10.458027,0.193292,-0.976855,-0.087567,0.026909
592,0.096415,-6.209660,-10.214431,115.644249,3.219389,-16.729445,-153.309235,0.807291,10.917681,0.229116,-0.968714,-0.090941,0.028781
593,-0.071802,-6.162350,-10.635134,104.101112,4.535462,-9.632777,-149.496567,0.459236,11.243521,0.261414,-0.960235,-0.093461,0.029617
594,0.435296,-6.416041,-10.467362,91.729210,3.921572,-9.256508,-146.180511,0.134177,11.433466,0.289306,-0.952039,-0.094965,0.030088
595,-0.154136,-6.095005,-10.209362,84.770172,4.744730,-6.337800,-143.266052,-0.156797,11.560232,0.313630,-0.944188,-0.096009,0.030442
596,0.019704,-6.320467,-9.309988,77.632629,3.151434,1.157701,-140.630310,-0.305684,11.547159,0.335389,-0.936690,-0.095612,0.031387
597,0.397125,-6.712335,-8.279764,81.710228,1.098105,6.317910,-138.011597,-0.301226,11.405206,0.356743,-0.928900,-0.093706,0.033158
598,0.241973,-7.759765,-7.121265,85.522598,0.545106,3.283612,-135.161469,-0.247058,11.267282,0.379734,-0.919870,-0.091566,0.035456
599,-0.039626,-8.627123,-6.469662,92.440750,3.882504,11.917168,-132.025391,-0.120865,11.037975,0.404742,-0.909359,-0.088296,0.038139
600,0.258385,-9.590627,-5.637169,95.938782,3.238785,18.559296,-128.641846,0.178106,10.617290,0.431341,-0.897431,-0.082712,0.041487
601,0.235141,-10.085230,-5.857319,96.247711,4.516667,18.238041,-125.195770,0.557946,10.143290,0.458043,-0.884510,-0.076250,0.044990
602,-0.277975,-10.179555,-5.878098,90.044403,4.362678,16.299938,-121.929283,0.948475,9.702166,0.482982,-0.871498,-0.069933,0.048254
603,0.036354,-10.172808,-6.176317,88.069237,2.862727,19.307398,-118.898491,1.394783,9.299154,0.505741,-0.858783,-0.063637,0.051648
604,-0.022816,-10.105466,-6.153568,82.247101,-1.236910,9.560457,-116.091095,1.778498,9.050446,0.526493,-0.846370,-0.058746,0.054878
605,-0.162856,-9.702525,-6.386364,77.250237,-2.385391,2.952425,-113.556641,1.966555,9.013991,0.544977,-0.834586,-0.056355,0.057358
606,-0.103728,-9.890720,-5.891998,71.119148,-3.950398,1.498919,-111.263283,2.046295,9.077209,0.561485,-0.823503,-0.055258,0.059356
607,-0.039284,-9.934656,-5.690692,65.445328,-5.809773,1.072016,-109.179726,2.102569,9.206901,0.576259,-0.813113,-0.054805,0.061402
608,-0.021609,-9.398249,-4.826054,59.177582,-6.610106,0.586901,-107.302574,2.146857,9.385838,0.589373,-0.803492,-0.054818,0.063521
609,-0.201912,-9.570445,-4.250874,50.975754,-6.566769,5.723580,-105.642929,2.273007,9.558620,0.600764,-0.794828,-0.054427,0.066087
610,-0.011620,-10.170174,-3.344062,41.590538,-7.069810,9.561557,-104.208923,2.537297,9.706719,0.610393,-0.787260,-0.053198,0.069363
611,-0.197791,-9.767879,-2.562100,38.586254,-7.128880,11.491934,-102.904015,2.888644,9.851487,0.618979,-0.780299,-0.051483,0.073131
612,-0.281308,-9.957673,-1.853173,36.231003,-6.776165,11.760917,-101.626068,3.282635,9.995970,0.627258,-0.773401,-0.049470,0.077141
613,-0.398381,-10.397659,-1.976942,36.276592,-5.958122,8.717219,-100.368851,3.627760,10.140816,0.635345,-0.766512,-0.047663,0.080781
614,-0.493775,-10.452749,-1.684398,35.549587,-5.695549,3.801352,-99.135796,3.840172,10.298437,0.643278,-0.759628,-0.046635,0.083575
615,-0.654963,-9.667594,-2.024994,38.080486,-5.033180,-0.737153,-97.915855,3.904737,10.466798,0.651152,-0.752688,-0.046479,0.085445
616,-0.685278,-9.916117,-2.083167,33.295483,-4.245612,-2.324117,-96.798538,3.873170,10.621763,0.658369,-0.746231,-0.046835,0.086580
617,-0.706080,-9.831064,-2.130016,28.874046,-3.174158,-2.716191,-95.870628,3.805127,10.746449,0.664349,-0.740802,-0.047336,0.087242
618,-0.747706,-9.524303,-1.933019,22.352253,-2.331577,0.337539,-95.148155,3.784231,10.832731,0.668957,-0.736556,-0.047463,0.087909
619,-0.634814,-9.397707,-1.810764,18.186352,-1.911664,3.934441,-94.609947,3.869298,10.887879,0.672299,-0.733413,-0.046899,0.088996
620,-0.552555,-9.628945,-1.665334,14.711856,-1.923550,7.015067,-94.195053,4.048880,10.928420,0.674772,-0.731020,-0.045770,0.090543
621,-0.609552,-9.649930,-1.529188,12.098375,-3.060044,8.346770,-93.868591,4.296650,10.984601,0.676603,-0.729156,-0.044396,0.092571
622,-0.462810,-9.489190,-1.376272,8.827559,-3.940168,8.405478,-93.627197,4.558140,11.074549,0.677844,-0.727781,-0.043212,0.094845
623,-0.420279,-9.856628,-1.243898,5.925004,-5.159030,6.759030,-93.469803,4.774257,11.202871,0.678550,-0.726871,-0.042605,0.097025
625,-0.589515,-9.926707,-1.013151,3.395617,-4.360681,2.283568,-93.376053,4.890278,11.346654,0.678920,-0.726299,-0.042743,0.098642
626,-0.650110,-9.862797,-0.808702,2.051283,-3.931705,-1.234730,-93.319542,4.884328,11.480212,0.679168,-0.725912,-0.043576,0.099417
627,-0.573935,-9.948764,-0.828569,1.377208,-3.044979,-3.253131,-93.286713,4.782330,11.598088,0.679364,-0.725638,-0.044905,0.099487
628,-0.615719,-9.933859,-0.778992,0.204204,-1.544833,-5.050320,-93.286476,4.613090,11.679890,0.679445,-0.725545,-0.046435,0.098909
629,-0.732667,-9.905746,-0.563311,-0.618752,-0.372843,-6.080998,-93.304642,4.409281,11.721395,0.679474,-0.725562,-0.047932,0.097867
630,-0.783058,-9.746188,-0.592674,0.788092,-0.308745,-4.384257,-93.302002,4.233131,11.742706,0.679626,-0.725471,-0.049118,0.096888
631,-0.862140,-10.051808,-0.407220,0.608367,0.362618,-2.224725,-93.268272,4.133630,11.748861,0.679921,-0.725230,-0.049723,0.096313
632,-0.750993,-9.744079,-0.172267,2.552211,2.585771,-2.793508,-93.178329,4.059129,11.707326,0.680589,-0.724686,-0.049831,0.095638
633,-0.954445,-10.047424,-0.257916,5.883420,3.748370,-0.696210,-92.995499,4.015893,11.608358,0.681863,-0.723625,-0.049313,0.094857
634,-0.863722,-10.041540,-0.415828,5.460178,5.258917,-0.635761,-92.787796,4.014438,11.461293,0.683296,-0.722450,-0.048222,0.094060
635,-0.846622,-10.259447,-0.722773,1.315509,6.981671,-0.279557,-92.696831,4.009259,11.257273,0.684040,-0.721990,-0.046893,0.092849
636,-0.664922,-9.947384,-1.068697,-3.143657,8.707618,-0.888190,-92.803909,3.983330,10.992309,0.683599,-0.722726,-0.045465,0.091062
637,-0.885896,-10.044167,-1.446038,-10.265751,7.165144,-0.166073,-93.155739,3.962192,10.720712,0.681607,-0.724921,-0.044153,0.089174
638,-0.827749,-9.889298,-1.798657,-20.087214,6.251437,0.234488,-93.833389,3.971900,10.485942,0.677482,-0.729032,-0.043128,0.087585
639,-0.651799,-9.909842,-2.211391,-27.343452,5.658296,2.480896,-94.835945,4.008142,10.270256,0.671212,-0.735023,-0.042295,0.086172
640,-0.494794,-9.987660,-2.472262,-35.384811,4.865376,4.372477,-96.116364,4.086417,10.069231,0.663046,-0.742574,-0.041497,0.085035
641,-0.377220,-10.046022,-3.026352,-43.544449,3.440865,4.658096,-97.688423,4.179087,9.896948,0.652852,-0.751688,-0.040998,0.084081
642,-0.133210,-10.403427,-3.618783,-54.511261,4.404656,2.472361,-99.608566,4.209116,9.731325,0.640262,-0.762589,-0.041130,0.082656
643,-0.057784,-10.173293,-4.176359,-66.780533,4.744590,-1.789352,-101.941132,4.101020,9.559844,0.624812,-0.775503,-0.042237,0.080139
644,-0.366179,-9.686028,-4.507363,-82.698898,4.486377,-4.358206,-104.759041,3.891828,9.413557,0.605812,-0.790646,-0.044299,0.076866
645,-0.560838,-9.198582,-5.229261,-98.100838,4.224948,-4.621601,-108.121376,3.671386,9.294880,0.582597,-0.808086,-0.046827,0.073381
646,-0.577846,-9.039208,-5.868484,-112.864174,5.821980,-0.405725,-112.009026,3.518685,9.143614,0.555057,-0.827422,-0.048942,0.069919
647,-0.742878,-8.778174,-6.696805,-121.711670,6.275900,6.722125,-116.299942,3.531067,8.894752,0.523830,-0.847733,-0.049627,0.066992
648,-1.055862,-8.625422,-7.712891,-135.793320,4.071242,15.288316,-120.985535,3.797419,8.544763,0.488747,-0.868614,-0.048526,0.065428
649,-0.557975,-8.828197,-8.289026,-146.028412,5.551924,22.477589,-126.049530,4.240447,8.042366,0.449867,-0.889577,-0.045713,0.064678
650,-0.428494,-8.646845,-8.745732,-137.749969,9.111665,23.004776,-131.087006,4.639071,7.363528,0.410444,-0.908729,-0.041684,0.063328
651,-1.086829,-8.462070,-9.273978,-119.623940,5.863809,20.991758,-135.622040,4.977504,6.665231,0.374331,-0.924459,-0.037405,0.062073
652,-1.185168,-8.429659,-9.499852,-97.405724,5.889784,23.404676,-139.411240,5.339968,5.976779,0.343718,-0.936473,-0.032709,0.061695
653,-0.798261,-8.556176,-9.087648,-72.755974,11.742134,21.597624,-142.318756,5.570242,5.208120,0.320133,-0.945039,-0.027273,0.060594
654,-1.419378,-8.593021,-9.047136,-40.541702,14.822984,17.472570,-144.175995,5.598350,4.428463,0.305164,-0.950265,-0.021711,0.058302
655,-1.337208,-8.846364,-9.086387,-25.236912,10.970731,16.665255,-145.164398,5.596599,3.728778,0.297307,-0.952981,-0.016399,0.056284
656,-0.931095,-8.664717,-8.678771,-20.636261,17.135273,12.951908,-145.763519,5.482930,3.076062,0.292675,-0.954640,-0.011549,0.053585
657,-1.099237,-8.055508,-8.185206,-31.313919,18.096523,5.112298,-146.428589,5.150390,2.520561,0.287486,-0.956479,-0.008063,0.049351
658,-1.167568,-7.578483,-7.965112,-35.337074,16.256979,0.929337,-147.321228,4.738847,2.145235,0.280294,-0.958841,-0.006320,0.044928
659,-0.657108,-7.219600,-7.680014,-36.042755,12.145778,-3.160772,-148.272766,4.317193,1.945696,0.272500,-0.961269,-0.006026,0.040864
660,-0.764551,-6.289313,-7.239358,-43.377342,13.320671,-12.774832,-149.349289,3.806659,1.972940,0.263563,-0.963917,-0.007818,0.036575
661,-0.709375,-5.729917,-7.027939,-55.911575,7.703110,-15.611757,-150.767822,3.279340,2.223843,0.251653,-0.967200,-0.011551,0.032577
662,-0.257303,-5.217595,-6.742933,-53.984921,6.995158,-18.165167,-152.366608,2.786005,2.616610,0.238145,-0.970657,-0.016361,0.029052
663,-0.326578,-4.630507,-6.677234,-51.680405,6.099997,-23.946074,-153.909561,2.249567,3.155378,0.225064,-0.973757,-0.022387,0.025329
664,-0.583570,-3.733237,-6.898484,-65.011551,4.080534,-28.561878,-155.711090,1.742540,3.880427,0.209729,-0.977055,-0.029898,0.021979
665,-0.130115,-3.354325,-6.859327,-75.682167,3.176701,-26.249920,-157.982697,1.288185,4.674276,0.190336,-0.980807,-0.037882,0.018812
666,0.000487,-3.056940,-6.710397,-75.875717,5.049782,-26.439512,-160.440155,0.823925,5.448816,0.169331,-0.984386,-0.045620,0.015151
667,-0.149808,-2.589842,-7.028604,-80.378937,2.352309,-29.128374,-162.994843,0.404560,6.290340,0.147439,-0.987542,-0.053741,0.011598
668,0.281407,-2.114408,-7.107686,-87.535439,0.845593,-27.665279,-165.784790,0.070354,7.188291,0.123452,-0.990368,-0.062131,0.008365
669,0.345875,-1.821885,-7.041765,-88.370178,1.778563,-28.236576,-168.717682,-0.243926,8.089936,0.098202,-0.992661,-0.070406,0.004821
670,-0.143588,-1.607981,-7.289981,-77.993286,0.355453,-26.999226,-171.475830,-0.455134,8.991844,0.074400,-0.994135,-0.078465,0.001877
671,-0.179735,-1.143758,-7.598760,-77.475502,-1.679895,-26.951700,-174.057678,-0.507662,9.885066,0.052021,-0.994913,-0.086269,0.000058
672,-0.125582,-0.867602,-7.413570,-83.630768,-1.139540,-24.029375,-176.738785,-0.488237,10.733598,0.028729,-0.995193,-0.093613,-0.001579
673,-0.438687,-0.793330,-7.420509,-79.579475,-1.933706,-19.510942,-179.418243,-0.394097,11.457101,0.005395,-0.994986,-0.099831,-0.002915
674,-0.337683,-0.377595,-7.647395,-73.476707,-3.096225,-14.060216,178.092957,-0.218877,12.011189,-0.016350,-0.994376,-0.104579,-0.003640
675,-0.225964,0.230962,-7.670405,-77.508713,-3.499553,-9.915811,175.607361,-0.026339,12.400918,-0.038075,-0.993421,-0.107919,-0.004368
676,-0.155749,0.587854,-7.771186,-72.280792,-3.906729,-3.116350,173.115585,0.157009,12.602699,-0.059829,-0.992155,-0.109641,-0.005231
677,-0.001221,0.903546,-8.072423,-52.153599,-4.798294,0.655706,171.049881,0.320168,12.622334,-0.077858,-0.990882,-0.109809,-0.005809
678,0.163517,1.191268,-8.509095,-33.512280,-4.680155,1.929950,169.640579,0.449705,12.553886,-0.090165,-0.989900,-0.109239,-0.005986
679,0.091656,1.275500,-8.888491,-19.377838,-4.036736,2.143740,168.798050,0.549390,12.461007,-0.097540,-0.989285,-0.108474,-0.005849
680,0.127386,1.276216,-9.154275,-3.528830,-3.745836,1.293965,168.483658,0.635735,12.380244,-0.100339,-0.989078,-0.107836,-0.005331
681,-0.029088,1.365539,-9.523046,8.905641,-3.517731,-1.885944,168.655823,0.733935,12.366937,-0.098945,-0.989226,-0.107812,-0.004309
682,-0.110505,1.457334,-9.656447,11.451907,-3.326761,-2.009529,169.072113,0.851619,12.409552,-0.095459,-0.989521,-0.108292,-0.002937
683,-0.344101,1.713303,-9.643689,8.078066,-3.343983,-3.852951,169.443985,0.992498,12.485484,-0.092377,-0.989732,-0.109068,-0.001429
684,-0.422071,1.717920,-9.601975,8.366993,-3.837938,-1.704662,169.735184,1.160103,12.555312,-0.090019,-0.989869,-0.109803,0.000241
685,-0.552568,1.616294,-9.750517,8.564363,-4.089633,0.709078,170.033051,1.337096,12.548944,-0.087613,-0.990074,-0.109878,0.002061
686,-0.458228,1.643576,-9.701029,0.163119,-4.103220,2.765767,170.191574,1.503724,12.468928,-0.086397,-0.990239,-0.109306,0.003714
687,-0.579295,1.729699,-9.719814,-13.414536,-3.652852,3.775702,169.968048,1.651993,12.339099,-0.088461,-0.990162,-0.108301,0.004882
688,-0.546062,1.876473,-9.809690,-24.882315,-3.536726,6.592333,169.310562,1.780307,12.146622,-0.094250,-0.989791,-0.106767,0.005527
689,-0.432794,2.107549,-9.862038,-36.698460,-2.721245,6.541845,168.249695,1.866899,11.910075,-0.103477,-0.989075,-0.104848,0.005500
690,-0.387109,2.382545,-9.601927,-47.385990,-1.850381,5.888711,166.796799,1.909423,11.689321,-0.116037,-0.987873,-0.103048,0.004760
691,-0.420146,2.635218,-9.441401,-45.767365,0.151245,4.199490,165.181717,1.907390,11.516984,-0.129941,-0.986294,-0.101620,0.003485
692,-0.369758,2.594793,-10.043628,-31.813633,1.710458,2.240163,163.860138,1.857082,11.420501,-0.141263,-0.984829,-0.100763,0.001999
693,-0.196589,2.794439,-9.908157,-14.356748,5.052488,-0.535431,163.099899,1.732973,11.425447,-0.147690,-0.983898,-0.100660,0.000258
694,-0.278371,1.959936,-10.415010,7.056269,8.120015,3.416750,163.061508,1.496495,11.445719,-0.147820,-0.983890,-0.100535,-0.001833
695,-0.356227,1.029985,-11.847871,10.782491,7.166359,8.296458,163.582474,1.196784,11.337583,-0.143095,-0.984713,-0.099244,-0.003817
696,0.039948,1.072238,-11.932363,-1.885280,6.722826,8.839600,164.015472,0.880724,11.134492,-0.139118,-0.985483,-0.097132,-0.005913
697,-0.097139,1.550974,-10.241342,-19.379910,6.908183,10.621941,163.889969,0.551244,10.890123,-0.139942,-0.985591,-0.094625,-0.008555
698,-0.438632,1.608047,-9.438859,-38.060654,3.718324,15.233015,163.102158,0.280435,10.529819,-0.146530,-0.984938,-0.091123,-0.011072
699,-0.291300,2.682710,-8.293076,-60.848110,0.002746,13.087106,161.519562,0.124130,10.099344,-0.160045,-0.983177,-0.087050,-0.013069
700,0.026970,3.816246,-6.694252,-64.411629,-0.718019,11.333673,159.279968,0.014266,9.711615,-0.179198,-0.980165,-0.083291,-0.015101
701,-0.168370,3.696693,-6.680286,-51.197544,-3.271255,13.997808,157.112534,-0.069741,9.294830,-0.197705,-0.976907,-0.079293,-0.016670
702,0.164400,3.761614,-7.556236,-37.200565,-4.678244,12.026296,155.493149,-0.119185,8.844266,-0.211526,-0.974326,-0.075127,-0.017378
703,0.545429,3.805491,-7.886832,-26.019064,-2.769129,6.194972,154.380280,-0.191063,8.517623,-0.220983,-0.972445,-0.072045,-0.018086
704,0.492043,3.870070,-8.281632,-13.364847,0.378195,-0.211274,153.715988,-0.278187,8.411675,-0.226579,-0.971225,-0.070868,-0.019033
705,0.272454,3.925491,-8.074385,-4.707887,4.553231,-5.757222,153.425720,-0.362100,8.537779,-0.228964,-0.970580,-0.071720,-0.020175
706,0.018490,4.491258,-7.972824,-0.859003,8.769818,-10.528573,153.299774,-0.454285,8.880216,-0.229907,-0.970120,-0.074412,-0.021721
707,-0.114768,4.587710,-7.961971,0.401935,11.181788,-9.240973,153.212326,-0.585371,9.324622,-0.230470,-0.969665,-0.077892,-0.023781
708,-0.463750,4.933167,-7.326108,7.346673,9.562560,-5.840614,153.207214,-0.721318,9.706042,-0.230333,-0.969407,-0.080843,-0.025702
709,-0.537931,4.185617,-8.325036,15.843145,5.493151,1.021543,153.503265,-0.814616,9.891471,-0.227717,-0.969878,-0.082293,-0.026651
710,-0.473365,4.408941,-8.759761,22.938648,1.159746,6.949869,154.149109,-0.878120,9.821842,-0.222216,-0.971202,-0.081727,-0.026590
711,-0.230271,4.535357,-7.469522,34.934654,-2.280375,11.137404,155.047638,-0.916397,9.543583,-0.214628,-0.973114,-0.079499,-0.025752
712,-0.158284,3.703054,-8.590924,45.242233,-8.106426,13.874128,156.343689,-0.877064,9.094145,-0.203732,-0.975782,-0.076029,-0.023717
713,0.033023,3.754495,-9.358667,47.791965,-7.956345,12.128043,157.943939,-0.766500,8.590877,-0.190256,-0.978851,-0.072239,-0.020874
714,0.206324,4.452761,-7.848101,45.931011,-0.699084,9.054772,159.439560,-0.758390,8.210855,-0.177535,-0.981485,-0.069263,-0.019271
715,0.121084,3.868408,-8.727469,51.953907,-0.079335,4.734903,160.938522,-0.830265,7.992517,-0.164672,-0.983857,-0.067531,-0.018667
716,0.109572,4.028913,-8.811802,53.495983,2.760347,0.692649,162.586212,-0.897817,7.922024,-0.150479,-0.986166,-0.067096,-0.018183
717,0.083814,4.122014,-7.472862,62.090588,3.835962,-1.068434,164.300507,-0.994704,7.962914,-0.135644,-0.988284,-0.067598,-0.018061
718,0.483678,3.351396,-6.933960,79.118629,1.552615,-0.833327,166.384735,-1.102141,8.020329,-0.117573,-0.990553,-0.068300,-0.017816
719,0.094189,3.038366,-6.489860,106.681648,-4.315136,-1.002601,169.211960,-1.079593,8.043373,-0.093111,-0.993138,-0.068937,-0.015949
720,0.235939,1.802693,-4.269692,138.871979,-7.361742,3.337062,173.010101,-0.913102,7.978418,-0.060258,-0.995724,-0.068952,-0.012175
721,0.057398,-0.696575,-5.071818,177.514114,-14.728242,7.895137,178.310898,-0.582198,7.761797,-0.014362,-0.997591,-0.067600,-0.006066
722,-0.474353,-2.380159,-5.862372,210.286835,-19.910877,7.597704,-174.774200,0.063296,7.518662,0.045454,-0.996812,-0.065472,0.003540
723,-1.011598,-5.707901,-7.927601,229.316956,-28.964054,13.303388,-166.835449,1.051858,7.317564,0.113809,-0.991409,-0.062341,0.016415
724,-0.458954,-8.716887,-9.655793,227.053177,-37.210026,15.204798,-158.570343,2.321249,7.210830,0.184263,-0.980656,-0.058017,0.031552
725,-1.154602,-10.188267,-11.084501,206.493134,-34.329033,8.670696,-150.776260,3.600703,7.378609,0.249667,-0.965685,-0.054325,0.046562
726,-1.149004,-11.276021,-11.310456,173.105652,-29.079748,5.415692,-144.002853,4.647538,7.778115,0.305413,-0.948944,-0.051953,0.059413
728,-0.876203,-11.611275,-10.100425,130.296890,-20.159445,1.798364,-138.572800,5.350722,8.224028,0.349271,-0.933119,-0.050531,0.068882
729,-0.826281,-10.484625,-8.148321,90.957603,-8.410916,-4.369340,-134.564331,5.627448,8.607804,0.381242,-0.920131,-0.050237,0.074100
730,-1.444576,-9.751544,-6.804753,60.610741,-0.235431,-8.134439,-131.763611,5.568616,8.881859,0.403480,-0.910427,-0.050799,0.075805
731,-0.893283,-9.353283,-6.001448,38.205643,-1.185259,-5.842887,-129.868240,5.412689,9.077712,0.418476,-0.903556,-0.051661,0.076125
732,-0.864322,-8.956098,-5.578282,19.500231,-2.992032,-6.008627,-128.677734,5.283736,9.277293,0.427811,-0.899078,-0.052922,0.076395
733,-0.905135,-8.843640,-5.798359,8.467203,-5.088777,-6.738684,-128.022980,5.187746,9.531139,0.432849,-0.896504,-0.054839,0.076906
734,-0.812279,-8.796948,-5.782323,-0.731468,-5.764772,-9.252490,-127.739937,5.074611,9.850307,0.434941,-0.895279,-0.057579,0.077373
735,-0.455110,-8.331184,-5.589668,-8.099661,-5.361357,-10.695747,-127.749214,4.885174,10.211469,0.434786,-0.895128,-0.061137,0.077264
736,-0.402276,-7.786760,-5.213530,-9.863440,-2.665552,-13.460979,-127.921432,4.588490,10.573993,0.433455,-0.895573,-0.065226,0.076233
737,-0.315965,-7.332741,-4.825487,-5.326385,-0.964642,-14.538557,-128.042358,4.196404,10.918769,0.432628,-0.895804,-0.069505,0.074411
738,0.058777,-7.157953,-4.481809,3.256751,0.115740,-13.367649,-127.924156,3.749924,11.226736,0.433752,-0.895121,-0.073547,0.072171
739,0.160353,-6.475094,-4.198860,13.900047,0.757285,-10.280962,-127.487251,3.310342,11.465372,0.437405,-0.893242,-0.076830,0.069945
740,0.498247,-6.805876,-4.785553,25.274286,-1.116792,-5.633897,-126.733818,2.956656,11.634396,0.443481,-0.890168,-0.079065,0.068362
741,0.266553,-7.516551,-5.992399,31.884825,0.453156,-4.859424,-125.769043,2.681268,11.744661,0.451139,-0.886267,-0.080434,0.067335
742,0.105169,-8.318765,-6.676464,31.187000,4.729271,-5.324333,-124.776978,2.395520,11.767294,0.459033,-0.882243,-0.081177,0.065925
743,-0.054167,-8.629971,-7.198115,25.307320,4.764251,-3.884068,-123.937721,2.112521,11.717848,0.465756,-0.878816,-0.081471,0.064151
744,-0.121193,-9.266364,-7.623462,16.020725,4.125886,-2.900997,-123.383011,1.890855,11.651417,0.470231,-0.876535,-0.081567,0.062580
745,-0.517941,-9.351158,-7.242084,5.614385,4.277286,-2.594516,-123.147896,1.726168,11.580068,0.472206,-0.875570,-0.081576,0.061197
746,-0.271670,-8.692621,-6.329237,-1.328553,-0.784208,2.175699,-123.168777,1.692753,11.532345,0.472099,-0.875679,-0.081361,0.060730
747,-0.225673,-8.370603,-5.968009,-3.964478,-4.867367,6.008612,-123.322250,1.849565,11.534426,0.470794,-0.876356,-0.080810,0.061827
748,-0.240956,-8.420712,-5.512309,-1.867248,-2.990248,9.157819,-123.448067,2.121274,11.503918,0.469619,-0.876971,-0.079523,0.063689
749,-0.437850,-8.477179,-5.391511,3.214543,-0.890565,10.555521,-123.416794,2.429843,11.377387,0.469668,-0.877009,-0.077263,0.065548
750,-0.632436,-8.532217,-5.086548,8.092897,2.461476,11.494485,-123.193344,2.742522,11.155499,0.471242,-0.876312,-0.074142,0.067171
751,-0.771137,-8.782031,-5.048114,11.725531,6.774526,13.173927,-122.806938,3.038897,10.805715,0.474153,-0.874999,-0.070007,0.068230
752,-0.867103,-8.604367,-5.025807,14.485291,8.127115,15.679146,-122.323517,3.354826,10.340919,0.477859,-0.873319,-0.064847,0.068987
753,-0.872199,-8.520931,-5.182145,16.000471,5.500126,15.765811,-121.800438,3.723099,9.872170,0.481830,-0.871433,-0.059404,0.070103
754,-0.722696,-8.408225,-5.015329,16.221035,2.606453,15.478140,-121.265083,4.123126,9.485604,0.485821,-0.869405,-0.054430,0.071765
755,-0.740368,-8.252842,-5.065659,17.855597,-0.289933,13.072012,-120.709412,4.520608,9.207393,0.489899,-0.867192,-0.050258,0.073836
756,-0.732164,-8.423312,-4.932078,21.340845,-3.213614,9.074092,-120.066414,4.868919,9.070792,0.494575,-0.864501,-0.047291,0.076145
757,-0.944614,-8.466953,-4.595653,25.689007,-5.932974,6.239070,-119.257996,5.172629,9.079229,0.500416,-0.860993,-0.045474,0.078786
758,-1.116659,-8.464633,-4.203652,28.652649,-6.492076,5.907174,-118.289398,5.478690,9.169046,0.507367,-0.856700,-0.044105,0.081844
759,-1.168585,-8.651281,-3.869404,30.807102,-5.723877,7.998708,-117.203560,5.817656,9.250617,0.515124,-0.851823,-0.042390,0.085132
760,-0.931269,-8.610671,-3.481031,29.436106,-3.316603,10.878499,-116.083115,6.184746,9.256241,0.523117,-0.846738,-0.039898,0.088267
761,-1.098965,-8.362617,-3.330048,25.199493,0.506865,12.212244,-115.066978,6.560614,9.144053,0.530373,-0.842091,-0.036525,0.090844
762,-0.692060,-8.346533,-3.238953,19.057976,3.560131,13.055414,-114.254395,6.897848,8.916417,0.536226,-0.838358,-0.032613,0.092488
763,-0.693354,-8.404301,-3.157021,14.617584,5.815914,10.592204,-113.636002,7.136783,8.621734,0.540778,-0.835511,-0.028821,0.093003
764,-0.522268,-8.343403,-3.407837,13.200569,6.665154,4.510419,-113.145119,7.206460,8.335752,0.544526,-0.833248,-0.026007,0.092271
765,-0.813339,-8.395793,-3.447821,12.820011,7.332856,-3.657109,-112.710815,7.054888,8.116694,0.547978,-0.831242,-0.024803,0.090228
766,-0.678579,-8.386423,-3.407560,11.792121,7.560939,-9.962597,-112.299911,6.689592,7.975251,0.551357,-0.829336,-0.025235,0.087008
767,-0.855784,-8.167907,-3.531305,6.763999,8.823532,-15.175148,-112.007256,6.149135,7.878929,0.553961,-0.827984,-0.026958,0.082722
768,-0.636760,-8.284878,-3.278100,-0.310463,11.233509,-19.001886,-111.917725,5.455139,7.780665,0.555190,-0.827597,-0.029579,0.077278
769,-1.072391,-8.251869,-3.157144,-4.249825,13.678084,-21.197943,-111.988152,4.671059,7.647561,0.555317,-0.827967,-0.032496,0.070973
770,-0.725509,-8.728790,-3.374716,-11.388874,14.486569,-20.167494,-112.239113,3.871021,7.473902,0.554132,-0.829192,-0.035290,0.064292
771,-0.238739,-9.815975,-2.858564,-14.767483,14.587531,-20.217459,-112.600967,3.029651,7.288799,0.552124,-0.830919,-0.038226,0.057204
772,0.031501,-10.847326,-2.455646,4.825862,13.902936,-20.025991,-112.577286,2.157367,7.119500,0.552868,-0.830741,-0.041211,0.050084
773,-0.334544,-11.469407,-2.507712,32.149769,12.952519,-18.376484,-111.716553,1.350635,6.955644,0.559578,-0.826472,-0.043601,0.043781
774,-0.110263,-12.186744,-2.110096,56.717171,12.328363,-14.753020,-109.964340,0.668777,6.764388,0.572540,-0.817731,-0.044972,0.038625
775,-0.191935,-12.037506,-1.472420,84.966232,11.991056,-11.229935,-107.297264,0.122392,6.521955,0.591727,-0.804129,-0.045182,0.034576
776,-0.551373,-11.592293,-1.481185,108.905304,10.457078,-5.918612,-103.783264,-0.217138,6.239758,0.616316,-0.785614,-0.043992,0.032100
777,-0.726704,-11.106568,-1.204970,114.521896,8.803794,-2.458247,-99.843964,-0.337471,5.956835,0.643075,-0.764033,-0.041651,0.031203
778,-0.545157,-10.441210,-0.862808,111.449387,5.704037,0.334102,-95.923401,-0.314934,5.726912,0.668891,-0.741675,-0.038940,0.031413
779,-0.782482,-9.844118,-0.432770,104.223091,2.879125,5.337933,-92.226631,-0.128511,5.582489,0.692451,-0.719819,-0.035873,0.032951
780,-0.333648,-9.962908,-0.050430,92.896843,-2.150557,13.008570,-88.878380,0.263284,5.571792,0.713070,-0.699402,-0.032391,0.036310
781,0.192079,-9.642816,0.373011,86.388512,-5.582407,17.246330,-85.853821,0.769784,5.723644,0.731065,-0.680446,-0.029090,0.041127
782,-0.238553,-9.196526,0.447665,82.999313,-8.185621,19.852324,-83.030884,1.354819,6.009900,0.747285,-0.662328,-0.025904,0.047075
783,-0.436174,-8.953605,0.916485,77.671272,-8.624975,20.985441,-80.374825,2.014839,6.384762,0.762003,-0.644937,-0.022519,0.053864
784,0.048784,-8.973825,1.316120,71.259857,-10.346280,21.134613,-77.906158,2.633292,6.826767,0.775216,-0.628467,-0.019584,0.060709
785,-0.270789,-8.528625,1.498954,71.588051,-11.211657,18.443098,-75.544106,3.153570,7.324690,0.787464,-0.612429,-0.017405,0.067292
786,-1.273047,-7.722058,1.514557,70.906754,-13.730292,24.648048,-73.202347,3.797937,7.916925,0.799086,-0.596329,-0.014599,0.075100
787,-1.098342,-7.883518,1.818636,60.605331,-14.905505,35.263287,-71.043053,4.726739,8.677588,0.809062,-0.581390,-0.010452,0.085412
788,-0.422840,-8.285156,1.667223,45.440559,-17.491375,32.087048,-69.337685,5.627393,9.558611,0.816279,-0.569535,-0.007104,0.096269
789,-0.531095,-8.141038,1.770362,23.065422,-21.977562,24.881487,-68.297325,6.229784,10.500560,0.820103,-0.562276,-0.006510,0.105992
790,-0.842377,-8.033905,1.933409,-3.031669,-24.089117,25.887459,-68.054688,6.703394,11.512053,0.819900,-0.560674,-0.007817,0.115529
791,-1.053595,-9.175452,2.390389,-9.872656,-21.869854,31.305500,-68.332733,7.297540,12.562512,0.816866,-0.562856,-0.008979,0.125868
792,-1.432494,-9.320962,2.304683,-4.808187,-25.682291,25.583364,-68.620689,7.900924,13.633989,0.813599,-0.565115,-0.010245,0.136371
793,-2.118281,-9.056183,2.062910,8.022827,-33.030895,30.668333,-68.588776,8.494843,14.873141,0.811553,-0.565091,-0.012052,0.148014
794,-1.970593,-9.125998,1.637969,18.859652,-35.343338,33.675831,-68.157547,9.179177,16.311140,0.810902,-0.562289,-0.013629,0.161506
795,-1.439004,-9.579922,2.405668,25.680525,-33.202461,25.120642,-67.413078,9.689521,17.723663,0.811803,-0.557179,-0.015764,0.174005
796,-1.161960,-9.368847,2.695794,27.434114,-36.588181,9.018838,-66.486771,9.711482,19.006208,0.814250,-0.550421,-0.020360,0.183353
797,-1.242287,-9.301786,3.243550,37.770908,-36.060383,2.906697,-65.338776,9.332292,20.185820,0.818330,-0.541677,-0.026862,0.190264
798,-0.973049,-9.319775,4.464948,48.417450,-27.450470,-6.976212,-63.798019,8.735129,21.115133,0.824812,-0.529816,-0.032979,0.194662
799,-0.911410,-9.671991,5.047951,70.350517,-22.276081,-13.517712,-61.706509,7.951314,21.702826,0.834410,-0.513664,-0.037860,0.196152
800,-1.518981,-9.276553,4.397583,99.972664,-21.425179,-14.236242,-58.836342,7.143535,22.102936,0.847378,-0.491537,-0.040712,0.196682
801,-1.567152,-8.614238,4.242005,110.773010,-16.838850,-16.547289,-55.394218,6.399708,22.347807,0.862251,-0.464853,-0.041445,0.196768
802,-1.030040,-8.347575,4.446343,103.845169,-13.241348,-23.109877,-51.962669,5.595744,22.344904,0.876706,-0.437766,-0.041734,0.194951
803,-0.672168,-8.002002,4.658571,95.826622,-11.880116,-26.385384,-48.835785,4.674301,22.123436,0.889660,-0.412495,-0.042807,0.191104
804,-0.788570,-7.016431,5.783871,90.633026,-5.925943,-29.451569,-45.879532,3.775643,21.699234,0.901546,-0.388299,-0.043531,0.185862
805,-0.369485,-6.992138,6.458880,86.195900,-1.501063,-33.059292,-43.011887,2.941517,21.037849,0.912725,-0.364678,-0.043426,0.179046
806,0.419969,-6.533280,7.288659,88.498405,2.938825,-42.734138,-40.147770,2.033836,20.073736,0.923669,-0.340831,-0.043395,0.169667
807,1.017477,-5.391286,8.056122,92.426193,9.257997,-54.604851,-37.079319,1.012249,18.676743,0.935047,-0.315094,-0.043328,0.156609
808,1.020824,-4.582347,8.651144,86.823303,12.391875,-61.276909,-33.918980,-0.002945,16.891582,0.946139,-0.288529,-0.042867,0.140479
809,0.749854,-4.259989,8.842739,76.496918,12.894629,-63.330452,-30.969532,-0.903529,14.909145,0.955800,-0.263732,-0.042171,0.122940
810,0.396432,-3.050011,9.462647,70.038849,17.168306,-66.690399,-28.219183,-1.611115,12.772556,0.964099,-0.240724,-0.040663,0.104459
811,0.114640,-2.144928,9.650759,65.265404,19.345755,-62.431900,-25.541195,-2.048334,10.569421,0.971326,-0.218468,-0.037714,0.085878
812,-0.069264,-2.041631,10.171005,56.158772,17.905149,-49.684074,-23.078041,-2.210344,8.600245,0.977138,-0.198018,-0.033841,0.069604
813,-0.203407,-2.006465,10.613746,62.261223,15.758945,-34.737049,-20.719725,-2.143371,7.075428,0.981859,-0.178321,-0.029458,0.057332
814,0.029302,-0.979366,10.124405,77.504372,13.318079,-24.429014,-18.012234,-1.945596,5.974266,0.986326,-0.155431,-0.024902,0.048808
815,0.507424,-0.735340,9.976822,77.029541,6.689941,-13.740161,-15.057527,-1.792012,5.258817,0.990308,-0.130159,-0.021497,0.043428
816,0.595642,-0.828964,9.977797,72.429672,1.113242,-8.259659,-12.257652,-1.782418,4.862051,0.993340,-0.105999,-0.019979,0.040510
817,0.435337,-0.430290,9.519423,74.780228,-0.761543,-4.547585,-9.550776,-1.846705,4.642947,0.995636,-0.082520,-0.019417,0.039020
818,0.405388,0.167209,8.942570,70.857834,-1.425941,-0.395934,-6.870354,-1.913785,4.557820,0.997314,-0.059201,-0.019039,0.038687
819,0.681838,-0.280044,9.561745,56.897594,-2.110741,2.524313,-4.547093,-2.004588,4.591447,0.998286,-0.038932,-0.019053,0.039326
820,0.583546,-0.269395,10.079784,50.707275,-3.665563,0.291618,-2.653901,-2.140431,4.639443,0.998756,-0.022379,-0.019595,0.040026
821,0.303568,-0.213883,9.943708,41.439121,-6.635391,-1.820363,-1.062361,-2.324451,4.617074,0.998948,-0.008444,-0.020639,0.040083
822,0.311701,-0.159013,9.574027,30.363064,-8.801849,-4.626553,0.157743,-2.572116,4.511448,0.998971,0.002259,-0.022372,0.039381
823,0.313963,-0.099891,9.652257,20.711319,-8.714385,-9.668194,1.012245,-2.847313,4.270984,0.998950,0.009750,-0.024498,0.037469
824,-0.253083,0.225208,9.626750,17.224403,-6.391346,-12.909286,1.658647,-3.027507,3.889333,0.998958,0.015357,-0.025908,0.034301
825,-0.446689,0.518932,9.383114,14.347273,-3.840376,-12.205977,2.230064,-3.057867,3.464465,0.998982,0.020250,-0.026076,0.030731
826,-0.252372,0.757729,9.415967,11.474040,0.485339,-11.490546,2.729624,-2.967678,3.065503,0.999007,0.024494,-0.025241,0.027348
827,-0.388419,0.717087,9.908377,9.131790,5.294546,-12.304125,3.139639,-2.728950,2.672216,0.999054,0.027935,-0.023158,0.023954
828,-0.637642,0.866035,9.920979,9.429174,7.524159,-13.386322,3.507911,-2.346236,2.255471,0.999116,0.030998,-0.019858,0.020295
829,-0.573984,0.940517,9.811582,5.834154,6.766202,-14.030622,3.826285,-1.928758,1.813166,0.999167,0.033642,-0.016291,0.016373
831,-0.585237,0.942077,9.629777,2.693822,7.185845,-14.182041,4.028666,-1.526578,1.358611,0.999218,0.035302,-0.012896,0.012316
832,-0.680567,0.831702,9.887987,2.050937,7.153720,-11.827881,4.149030,-1.122115,0.942441,0.999260,0.036277,-0.009488,0.008573
833,-0.731341,0.825405,10.027104,3.137951,4.837239,-8.837399,4.257515,-0.763666,0.613394,0.999272,0.037180,-0.006461,0.005597
834,-0.561283,0.653941,10.023480,3.491979,2.155446,-7.015726,4.371227,-0.512150,0.358915,0.999257,0.038150,-0.004347,0.003300
835,-0.479135,0.616347,9.879612,4.666390,0.687463,-5.960007,4.492292,-0.357694,0.147350,0.999226,0.039196,-0.003069,0.001407
836,-0.481729,0.602417,10.044204,6.200696,-0.634390,-5.194191,4.651191,-0.262241,-0.037495,0.999174,0.040577,-0.002300,-0.000234
837,-0.522459,0.567061,9.907138,6.491134,-2.191239,-5.179138,4.833070,-0.215216,-0.213264,0.999107,0.042160,-0.001955,-0.001780
838,-0.288985,0.426850,9.854824,3.959598,-2.215034,-6.494658,4.961447,-0.207191,-0.412977,0.999055,0.043276,-0.001962,-0.003522
839,-0.321624,0.434225,9.900970,-2.933481,-2.399553,-10.002893,4.919594,-0.210719,-0.693276,0.999059,0.042906,-0.002097,-0.005965
840,-0.342346,0.347194,9.961771,-13.196039,-2.924236,-15.761880,4.585256,-0.210668,-1.128486,0.999150,0.039983,-0.002231,-0.009766
841,-0.209796,0.217136,9.838795,-25.703598,-4.151106,-21.938940,3.861449,-0.237085,-1.763938,0.999313,0.033655,-0.002586,-0.015314
842,-0.016089,0.017968,9.971591,-37.466854,-4.972848,-26.947073,2.724338,-0.320347,-2.586138,0.999460,0.023703,-0.003331,-0.022493
843,-0.112926,-0.085371,9.920428,-39.584690,-5.343105,-28.431812,1.359480,-0.443299,-3.514366,0.999453,0.011739,-0.004230,-0.030616
844,-0.026457,-0.250844,9.734159,-39.652821,-3.778378,-26.626652,-0.028414,-0.564959,-4.433506,0.999240,-0.000438,-0.004917,-0.038681
845,-0.000650,-0.428775,9.850965,-36.598606,-2.703639,-21.610922,-1.356649,-0.668256,-5.235590,0.998866,-0.012092,-0.005284,-0.045738
846,0.053298,-0.564375,9.918777,-28.291756,-0.136647,-14.582487,-2.485215,-0.724448,-5.836420,0.998442,-0.021979,-0.005208,-0.051034
847,0.153257,-0.605996,9.799704,-23.194870,0.585195,-10.109985,-3.374987,-0.735817,-6.247262,0.998050,-0.029753,-0.004804,-0.054655
848,0.050191,-0.681182,9.933212,-25.661434,0.785206,-7.563200,-4.205455,-0.729146,-6.542385,0.997665,-0.036994,-0.004255,-0.057256
849,0.211534,-0.711972,10.118291,-17.185070,1.442872,-2.658877,-4.921968,-0.706115,-6.715137,0.997328,-0.043225,-0.003631,-0.058776
850,0.357527,-0.695456,9.863749,-7.461430,0.099298,1.937143,-5.319209,-0.704605,-6.729389,0.997165,-0.046682,-0.003408,-0.058912
851,0.312263,-0.607569,9.823077,3.619426,-0.901210,7.038205,-5.351789,-0.735096,-6.579522,0.997226,-0.046976,-0.003718,-0.057621
852,0.421143,-0.597710,9.921673,27.799248,0.316843,17.815689,-4.787457,-0.743382,-6.166794,0.997645,-0.042054,-0.004226,-0.054012
853,0.495895,-0.360184,9.814264,54.143208,0.379341,28.544306,-3.374372,-0.725076,-5.398580,0.998429,-0.029707,-0.004931,-0.047259
854,0.060993,-0.294292,9.773443,62.864143,1.304840,35.004986,-1.383560,-0.675682,-4.343569,0.999189,-0.012288,-0.005434,-0.037963
855,-0.011703,-0.093460,10.104242,61.049339,4.381568,34.606720,0.699788,-0.559810,-3.184870,0.999584,0.005969,-0.005053,-0.027759
856,-0.177903,0.181406,10.155896,56.163815,5.021891,30.839207,2.658267,-0.406217,-2.090360,0.999560,0.023127,-0.003966,-0.018154
857,-0.421295,0.515134,10.096597,39.818344,4.604074,22.428242,4.259757,-0.245397,-1.193757,0.999253,0.037140,-0.002527,-0.010330
858,-0.373836,0.687283,10.069341,20.472630,4.543656,13.693717,5.261657,-0.078927,-0.580065,0.998933,0.045896,-0.000920,-0.005025
859,-0.160510,0.945767,10.068873,8.553521,2.373657,6.152483,5.742280,0.046275,-0.239347,0.998742,0.050091,0.000299,-0.002106
860,-0.155554,1.038008,9.828104,6.740886,0.341890,4.067996,6.002296,0.096929,-0.065133,0.998628,0.052356,0.000815,-0.000612
861,-0.041108,1.004189,9.804833,3.589904,-0.126155,3.523198,6.176328,0.099529,0.061150,0.998547,0.053872,0.000896,0.000486
862,-0.078783,0.992686,9.844424,1.811963,-0.019134,3.536910,6.259384,0.090636,0.177873,0.998507,0.054595,0.000875,0.001507
863,-0.092008,0.977369,9.836990,0.708301,-0.223277,3.562814,6.289026,0.083696,0.295039,0.998491,0.054852,0.000871,0.002531
864,-0.040702,0.977305,9.888291,0.091315,-0.372572,3.538371,6.287133,0.068293,0.411573,0.998489,0.054836,0.000792,0.003554
865,-0.042641,1.017388,9.883583,-0.794162,-0.669992,3.684844,6.262348,0.041976,0.529321,0.998497,0.054620,0.000618,0.004592
866,-0.070564,1.045921,9.828784,-2.450040,-0.984106,3.394894,6.200850,0.008577,0.643616,0.998521,0.054085,0.000379,0.005604
867,-0.013892,1.003841,9.864615,-4.987895,-1.212813,2.789081,6.069632,-0.033346,0.742167,0.998577,0.052944,0.000052,0.006483
868,0.009784,0.847640,9.897944,-5.530250,-0.877090,2.012383,5.874689,-0.075682,0.818142,0.998660,0.051247,-0.000294,0.007164
869,-0.063604,0.880985,9.772298,-5.676004,-0.210084,1.206678,5.664115,-0.093786,0.869720,0.998749,0.049413,-0.000442,0.007621
870,-0.023345,0.882395,9.780738,-7.190235,-0.109093,0.295672,5.434239,-0.093028,0.894129,0.998845,0.047410,-0.000441,0.007832
871,0.067308,0.898325,9.865130,-8.884320,-0.145742,-0.867080,5.157096,-0.097189,0.884260,0.998957,0.044994,-0.000500,0.007747
872,0.061522,0.823104,9.960156,-9.127220,0.177525,-2.837029,4.848709,-0.098153,0.822850,0.999079,0.042305,-0.000552,0.007210
873,0.004087,0.874780,9.849457,-9.374506,0.008072,-5.536383,4.537991,-0.085872,0.684055,0.999198,0.039595,-0.000512,0.005994
874,0.095285,0.688579,9.885045,-10.612167,-0.355260,-7.863406,4.201123,-0.079445,0.460957,0.999320,0.036656,-0.000545,0.004045
875,0.041973,0.520532,9.983522,-9.532548,-0.450127,-8.699592,3.843661,-0.081271,0.184724,0.999436,0.033537,-0.000655,0.001635
876,-0.019849,0.442300,9.948963,-6.638917,-0.831595,-8.789620,3.543126,-0.083349,-0.107468,0.999521,0.030914,-0.000756,-0.000915
877,-0.041091,0.445890,9.836141,-4.813319,-1.472268,-7.889338,3.324635,-0.098491,-0.387236,0.999573,0.029006,-0.000957,-0.003353
878,0.012113,0.368606,9.975020,-3.947492,-1.992463,-5.942264,3.152172,-0.138700,-0.620646,0.999606,0.027497,-0.001359,-0.005381
