seq,ax,ay,az,wroll,wpitch,wyaw,roll,pitch,yaw,q0,q1,q2,q3
60,0.280137,-3.003489,9.316925,-2.197676,8.740072,24.728716,-17.867718,-1.639203,0.528341,0.987767,-0.155212,-0.014847,0.002333
61,-1.281408,-4.759032,9.139272,8.526406,3.406635,15.708418,-18.268576,-1.048192,1.533503,0.987209,-0.158607,-0.011155,0.011760
62,-1.610258,-4.624605,8.818722,16.779989,-1.128597,9.742614,-18.629229,-0.091608,1.937547,0.986675,-0.161819,-0.003525,0.016555
63,-1.427139,-4.666428,8.642472,19.619562,-3.928943,7.046785,-18.805380,0.688761,2.233974,0.986340,-0.163454,0.002744,0.020213
64,-1.705788,-4.617430,8.452452,19.410204,-6.473182,2.290807,-18.952845,1.310482,2.431145,0.986027,-0.164833,0.007785,0.022806
65,-1.770035,-4.430014,8.417109,19.089775,-7.225688,-2.971737,-19.070631,1.862985,2.479937,0.985764,-0.165942,0.012444,0.024030
66,-1.590431,-4.364494,8.374545,16.709793,-7.330178,-8.762462,-19.183533,2.273849,2.353686,0.985550,-0.166961,0.016139,0.023553
67,-1.258362,-4.460313,8.512382,13.306003,-7.565620,-15.499730,-19.390888,2.443291,2.026957,0.985275,-0.168718,0.018034,0.021021
68,-1.823850,-4.247872,8.668522,12.506016,-8.771381,-23.311180,-19.606590,2.530917,1.480053,0.985027,-0.170492,0.019562,0.016484
69,-1.511777,-4.178161,8.714993,13.248029,-9.822672,-27.284760,-19.729923,2.563926,0.765141,0.984920,-0.171427,0.020898,0.010410
70,-1.390868,-4.194742,8.743374,11.644944,-11.984148,-30.274399,-19.838699,2.395767,-0.038099,0.984837,-0.172217,0.020650,0.003274
71,-1.323422,-4.228811,8.746605,9.106476,-14.377877,-32.145626,-20.014097,2.085074,-0.889298,0.984618,-0.173596,0.019266,-0.004480
72,-1.370369,-4.142342,8.690602,5.811288,-16.280142,-32.187199,-20.264196,1.710171,-1.740597,0.984222,-0.175655,0.017361,-0.012325
73,-0.610715,-4.338242,8.707734,0.968714,-16.642321,-28.568447,-20.653786,1.171345,-2.515765,0.983553,-0.178991,0.013989,-0.019764
74,-0.296016,-4.451510,8.742870,-3.436223,-15.878551,-26.166452,-21.224655,0.440883,-3.188166,0.982528,-0.183985,0.008903,-0.026634
75,-0.194918,-4.380083,8.795872,-4.854606,-12.844602,-24.194860,-21.844851,-0.260301,-3.800526,0.981328,-0.189449,0.004054,-0.032989
76,0.039557,-4.311070,8.888535,-4.456376,-9.119588,-22.079845,-22.380491,-0.859405,-4.378473,0.980189,-0.194201,0.000061,-0.038927
77,0.208029,-4.211891,9.032829,-1.713450,-5.803854,-20.160252,-22.749399,-1.371861,-4.930822,0.979279,-0.197533,-0.003242,-0.044527
78,0.261767,-4.070798,8.956716,1.742861,-3.093972,-17.949224,-22.914070,-1.775146,-5.455554,0.978700,-0.199107,-0.005713,-0.049710
79,0.349840,-4.045123,8.993079,2.533818,-0.858627,-16.357714,-22.950916,-2.075470,-5.953467,0.978340,-0.199569,-0.007395,-0.054482
80,0.579737,-4.012833,9.021878,2.784820,0.120533,-15.315682,-22.940861,-2.356787,-6.431933,0.978048,-0.199638,-0.008969,-0.059051
81,0.648297,-3.962752,8.989144,3.270966,0.752953,-13.498635,-22.898436,-2.643026,-6.877411,0.977802,-0.199445,-0.010660,-0.063341
82,0.642561,-4.007489,8.947571,-0.201205,0.620935,-12.172906,-22.914249,-2.893692,-7.277145,0.977468,-0.199741,-0.012095,-0.067183
83,0.541446,-4.162699,9.082387,-3.263187,0.150527,-11.565714,-23.075037,-3.091406,-7.640745,0.976902,-0.201253,-0.013049,-0.070642
84,0.539913,-4.110560,8.951371,-1.070003,1.319285,-10.286970,-23.265747,-3.222991,-7.978438,0.976306,-0.202988,-0.013456,-0.073770
85,0.342436,-4.167054,8.951535,0.653200,2.834870,-8.701321,-23.391798,-3.235168,-8.289447,0.975874,-0.204104,-0.012924,-0.076455
86,0.093898,-4.194117,8.972997,1.558483,4.436742,-7.481530,-23.478792,-3.067667,-8.577855,0.975584,-0.204778,-0.010923,-0.078626
87,-0.115603,-4.232498,9.000255,4.493242,6.719938,-5.486238,-23.504740,-2.715795,-8.842992,0.975477,-0.204808,-0.007434,-0.080268
88,-0.185335,-4.035904,8.825609,8.014154,9.276623,-3.649504,-23.401613,-2.217765,-9.082785,0.975652,-0.203627,-0.002836,-0.081432
89,-0.229290,-4.009184,8.906932,6.129004,10.256983,-2.365199,-23.237789,-1.651475,-9.299493,0.975949,-0.201862,0.002255,-0.082288
90,-0.075569,-4.046575,8.813526,4.614060,8.962303,-1.491312,-23.207708,-1.059409,-9.479703,0.976016,-0.201196,0.007595,-0.082793
91,0.090194,-4.025157,8.776598,5.164543,6.205019,-1.170137,-23.280478,-0.626337,-9.614943,0.975881,-0.201502,0.011575,-0.083182
92,0.054763,-4.071217,8.878972,8.028378,3.495472,1.358565,-23.291767,-0.407523,-9.672641,0.975860,-0.201436,0.013548,-0.083289
93,-0.025076,-4.020708,8.998993,10.874331,0.747801,5.001187,-23.155073,-0.229212,-9.601294,0.976182,-0.200153,0.014843,-0.082386
94,0.050940,-3.687120,9.131665,13.712420,-3.019392,6.377711,-22.762585,-0.146784,-9.411301,0.977010,-0.196775,0.014937,-0.080675
95,-0.212021,-3.412378,9.569100,14.849141,-4.854686,10.905292,-22.108147,-0.105093,-9.094998,0.978343,-0.191203,0.014305,-0.077990
96,-0.218223,-3.273681,9.700373,13.981562,-5.429136,15.924396,-21.353380,0.012498,-8.615561,0.979914,-0.184735,0.014023,-0.073794
97,0.123847,-3.138281,9.721447,9.508327,-4.743805,18.277452,-20.673225,0.084672,-8.022105,0.981370,-0.178941,0.013276,-0.068681
98,0.344223,-3.162679,9.606084,3.026640,-3.842838,16.822920,-20.217697,0.041026,-7.424459,0.982414,-0.175128,0.011716,-0.063678
99,0.093001,-3.491293,9.481910,-3.102185,-1.072569,15.894854,-20.116564,0.044046,-6.884862,0.982858,-0.174312,0.010865,-0.059056
100,0.192877,-3.531925,8.881305,-8.156572,1.682698,11.307718,-20.368551,0.137235,-6.462992,0.982690,-0.176467,0.011144,-0.055271
101,-0.044998,-3.683630,8.738403,-14.264679,4.268809,6.706930,-20.910372,0.291876,-6.216932,0.981972,-0.181063,0.012341,-0.052864
102,-0.190856,-3.839005,8.500054,-15.527053,5.045825,2.277282,-21.651201,0.533536,-6.134983,0.980832,-0.187304,0.014617,-0.051686
103,-0.280358,-3.919786,8.526937,-14.799804,5.354707,-0.482882,-22.424772,0.791448,-6.175268,0.979538,-0.193795,0.017238,-0.051493
104,-0.270056,-4.050486,8.616240,-13.004191,3.666137,-1.975006,-23.130686,0.998162,-6.275167,0.978287,-0.199710,0.019494,-0.051877
105,-0.126724,-4.345423,8.975371,-9.529951,2.614961,-3.143820,-23.735641,1.083841,-6.399302,0.977164,-0.204808,0.020720,-0.052678
106,-0.005701,-4.398460,9.117595,-4.625673,1.721902,-4.660792,-24.170935,1.042121,-6.550930,0.976307,-0.208512,0.020840,-0.053967
107,-0.021476,-4.372408,9.429349,-2.471974,1.384078,-6.188527,-24.405895,0.932749,-6.738817,0.975784,-0.210535,0.020365,-0.055726
108,-0.110286,-4.309592,9.603887,-2.034190,2.132927,-6.849427,-24.503931,0.843906,-6.961137,0.975490,-0.211377,0.020066,-0.057766
110,0.021304,-4.095391,9.399233,-3.422382,1.690013,-6.939631,-24.548237,0.752556,-7.195900,0.975282,-0.211763,0.019745,-0.059926
111,-0.028198,-3.851947,8.991795,-3.732897,-1.577467,-6.454591,-24.573225,0.596898,-7.398361,0.975118,-0.212027,0.018808,-0.061933
112,-0.096411,-3.736925,8.594800,-1.478296,-5.160525,-5.056916,-24.559765,0.390233,-7.524961,0.975056,-0.212009,0.017277,-0.063396
113,-0.202182,-3.713495,8.403517,-0.154720,-7.792486,-2.389475,-24.512327,0.178284,-7.547549,0.975110,-0.211722,0.015489,-0.063987
114,0.126895,-3.953850,8.703471,1.170050,-11.569174,-0.709439,-24.461996,-0.139626,-7.460565,0.975213,-0.211482,0.012595,-0.063841
115,0.144630,-4.027469,8.982807,6.072979,-12.286857,1.917978,-24.325977,-0.561762,-7.278112,0.975504,-0.210570,0.008590,-0.063076
116,0.284465,-4.000784,9.275814,8.235651,-9.876426,3.722903,-24.036032,-0.933320,-7.041894,0.976099,-0.208309,0.004836,-0.061758
117,0.444221,-3.887050,9.411482,5.253330,-6.785691,3.167098,-23.707470,-1.249834,-6.826639,0.976748,-0.205673,0.001574,-0.060502
118,0.624275,-3.863287,9.455664,0.504148,-4.845868,0.108613,-23.486523,-1.564473,-6.702076,0.977142,-0.203941,-0.001448,-0.059998
119,0.460918,-3.911387,9.143362,-1.980982,-2.478645,-3.622733,-23.435749,-1.838798,-6.709210,0.977165,-0.203638,-0.003802,-0.060542
120,0.375137,-3.950167,8.752192,-4.357024,-1.195799,-7.259205,-23.558748,-2.029279,-6.850307,0.976823,-0.204783,-0.005109,-0.062086
121,0.260389,-4.279160,8.718221,-7.686213,-1.206468,-9.400028,-23.894121,-2.173789,-7.083472,0.976052,-0.207722,-0.005737,-0.064346
122,0.418813,-4.737317,8.909545,-6.528736,-1.365111,-10.672538,-24.398346,-2.337974,-7.361188,0.974923,-0.212111,-0.006337,-0.067034
123,0.341079,-4.719470,8.793134,-0.476500,-1.372733,-10.034584,-24.832809,-2.516165,-7.643217,0.973890,-0.215914,-0.007067,-0.069786
124,0.268660,-4.487820,8.629445,2.834131,-1.227412,-8.007889,-25.051638,-2.627636,-7.886775,0.973289,-0.217848,-0.007419,-0.072077
125,0.377752,-4.461694,8.892854,3.234040,-1.059168,-7.456780,-25.116957,-2.713669,-8.096601,0.973003,-0.218464,-0.007709,-0.074025
126,0.303332,-4.223091,8.984095,5.528482,-0.843597,-5.907743,-25.030706,-2.777754,-8.281970,0.973024,-0.217781,-0.007957,-0.075713
127,0.168458,-3.916669,9.069502,6.263547,-0.836092,-4.266776,-24.690348,-2.684248,-8.430284,0.973600,-0.214846,-0.007108,-0.076777
128,0.260263,-3.883759,9.182797,6.168176,-0.229974,-3.278765,-24.191748,-2.503330,-8.549319,0.974504,-0.210507,-0.005684,-0.077430
129,0.421818,-3.818427,9.247635,8.003156,-0.026209,-2.163054,-23.658699,-2.437587,-8.642408,0.975431,-0.205937,-0.005317,-0.078079
130,0.504530,-3.769576,9.318069,10.447872,0.159904,-1.906801,-23.134167,-2.473204,-8.714670,0.976303,-0.201495,-0.005851,-0.078731
131,0.611597,-3.807255,9.363119,12.014351,0.530282,-3.033156,-22.646343,-2.554025,-8.800135,0.977067,-0.197392,-0.006728,-0.079571
132,0.593898,-3.737279,9.298286,14.587644,0.911213,-3.356914,-22.124962,-2.648523,-8.911715,0.977846,-0.193010,-0.007709,-0.080648
133,0.574368,-3.557977,9.211114,15.451900,0.199673,-3.024480,-21.546268,-2.734134,-9.021438,0.978703,-0.188132,-0.008668,-0.081683
134,0.482462,-3.555344,9.274030,15.696573,-0.381920,-1.751972,-20.957945,-2.796072,-9.098125,0.979580,-0.183151,-0.009495,-0.082390
135,0.347966,-3.513742,9.283181,17.410452,-1.256039,1.814193,-20.373484,-2.790284,-9.089027,0.980510,-0.178147,-0.009879,-0.082254
136,0.360520,-3.402991,9.191207,19.781834,-2.200126,6.033545,-19.748755,-2.738037,-8.946255,0.981585,-0.172753,-0.010095,-0.080899
137,0.462305,-3.334543,9.198317,21.423691,-3.316880,9.645495,-19.080276,-2.707876,-8.668213,0.982779,-0.166979,-0.010713,-0.078411
138,0.533207,-3.305832,9.165434,23.483377,-3.686283,12.743093,-18.389183,-2.714744,-8.275103,0.984029,-0.161014,-0.011797,-0.074979
139,0.607887,-3.287829,9.138910,24.030470,-3.379992,13.650914,-17.708542,-2.744163,-7.816139,0.985252,-0.155132,-0.013117,-0.071001
140,0.642028,-3.294627,9.104720,23.611179,-2.635965,11.816608,-17.084650,-2.792873,-7.374364,0.986333,-0.149738,-0.014500,-0.067189
141,0.603471,-3.168059,9.102401,21.659620,-1.881239,9.283453,-16.526331,-2.840161,-7.007740,0.987247,-0.144906,-0.015699,-0.064018
142,0.538880,-3.014350,9.074239,16.950827,-0.946242,7.347002,-16.061375,-2.856877,-6.720600,0.987980,-0.140867,-0.016455,-0.061498
143,0.470008,-3.063234,9.298684,11.896427,0.211852,5.239780,-15.848702,-2.818289,-6.502641,0.988365,-0.138983,-0.016501,-0.059542
144,0.422444,-2.955886,9.538696,11.582785,0.735533,4.429718,-15.759659,-2.717316,-6.337070,0.988586,-0.138146,-0.015875,-0.057982
145,0.379627,-2.690828,9.632016,11.998551,1.351072,3.718847,-15.473680,-2.569124,-6.210237,0.989030,-0.135595,-0.014891,-0.056675
146,0.393750,-2.536575,9.785673,12.017277,1.826097,2.942260,-15.025638,-2.429550,-6.118806,0.989632,-0.131654,-0.014012,-0.055669
147,0.320188,-2.446026,10.007419,13.580567,2.046157,2.023708,-14.508629,-2.304940,-6.058844,0.990275,-0.127126,-0.013252,-0.054951
148,0.234932,-2.158250,10.086660,16.345259,2.594508,0.891562,-13.855887,-2.149431,-6.036391,0.991028,-0.121413,-0.012243,-0.054519
149,0.167246,-1.822272,10.018734,14.888463,4.285964,-1.226317,-13.085145,-1.947425,-6.077065,0.991845,-0.114660,-0.010820,-0.054588
150,0.116942,-1.746144,10.092717,9.263119,6.919012,-2.520188,-12.395458,-1.675143,-6.188144,0.992515,-0.108575,-0.008685,-0.055230
151,-0.271693,-1.844703,10.345578,2.010721,13.059270,-7.373891,-11.970395,-1.199418,-6.425989,0.992870,-0.104685,-0.004549,-0.056829
152,-0.408926,-1.566442,10.285923,-0.235105,19.497782,-14.180626,-11.701084,-0.467399,-6.893591,0.992958,-0.101993,0.002078,-0.060223
153,-0.313696,-0.950461,9.628633,11.204824,18.268250,-16.405067,-11.127276,0.288832,-7.520931,0.993159,-0.096578,0.008862,-0.065032
154,-0.478836,-1.055856,9.637450,-6.037547,17.023157,-15.921037,-10.593228,0.968163,-8.158758,0.993227,-0.091476,0.014958,-0.070054
155,-0.455599,-1.553106,10.036569,-27.947617,14.344984,-11.368922,-10.894262,1.568538,-8.701323,0.992621,-0.093611,0.020787,-0.074215
156,-0.016890,-2.148771,10.083274,-28.257162,7.437162,-4.473260,-11.813526,1.876447,-9.033569,0.991601,-0.101294,0.024340,-0.076643
157,-0.064150,-2.376001,9.699508,-5.569203,0.894553,3.275162,-12.507333,1.882997,-9.085603,0.990934,-0.107280,0.024909,-0.076938
158,-0.094862,-2.495202,9.138411,-14.740060,1.500965,10.410142,-13.035304,1.854680,-8.877250,0.990570,-0.111910,0.024815,-0.075049
159,0.157330,-2.494854,9.148288,-18.297123,-1.428610,17.299337,-13.779173,1.791543,-8.433121,0.990109,-0.118476,0.024298,-0.071116
160,0.077744,-2.011560,7.808020,11.892347,-5.698284,19.761753,-13.987622,1.609665,-7.806956,0.990276,-0.120519,0.022198,-0.065856
161,-0.025875,-1.268172,7.140438,15.358807,-9.497532,23.680059,-13.378343,1.377216,-7.040604,0.991333,-0.115522,0.019066,-0.059583
162,0.050941,-1.397586,7.468575,-11.537976,-13.729960,26.547083,-13.016567,1.059079,-6.131008,0.992147,-0.112689,0.015231,-0.052085
163,0.187745,-2.351513,9.074758,-25.745445,-17.750538,24.016808,-13.571839,0.579132,-5.187460,0.991992,-0.117810,0.010360,-0.044340
164,0.266169,-3.249552,9.933600,-14.066501,-16.828724,15.730684,-14.483648,0.005703,-4.405342,0.991290,-0.125962,0.004894,-0.038122
165,0.316503,-3.700772,10.857771,-23.150240,-13.640708,10.382010,-15.476193,-0.522895,-3.853241,0.990303,-0.134720,0.000008,-0.033927
166,0.210088,-3.910268,11.202653,-28.576077,-9.797575,4.989224,-16.679983,-0.913024,-3.494936,0.988898,-0.145215,-0.003457,-0.031326
167,0.286056,-4.231066,11.305760,-28.874638,-4.844730,-1.157259,-17.956360,-1.165324,-3.355958,0.987227,-0.156277,-0.005471,-0.030508
168,0.053747,-4.204755,10.937447,-24.871384,-0.324808,-6.395672,-19.137884,-1.267293,-3.442271,0.985526,-0.166477,-0.005908,-0.031453
169,-0.217134,-3.768710,10.044015,-23.157745,1.000734,-5.099774,-20.121906,-1.181778,-3.624122,0.984021,-0.174920,-0.004625,-0.032934
170,-0.218229,-3.924599,9.971575,-26.065563,1.748404,-4.517843,-21.055349,-0.996347,-3.790747,0.982539,-0.182886,-0.002501,-0.034104
171,-0.103592,-4.134155,9.761577,-23.538189,2.170770,-4.822553,-22.015078,-0.830173,-3.959935,0.980942,-0.191065,-0.000510,-0.035296
172,-0.060972,-4.083004,9.398314,-23.542362,1.195017,-2.035864,-22.938118,-0.708402,-4.086850,0.979347,-0.198924,0.001035,-0.036173
173,-0.046846,-4.200659,8.903580,-22.255743,0.138208,1.588498,-23.858923,-0.601524,-4.101984,0.977724,-0.206756,0.002265,-0.036100
174,0.092536,-4.285640,8.513469,-18.081013,-0.342152,4.338366,-24.747864,-0.521498,-4.009104,0.976128,-0.214313,0.003053,-0.035141
175,0.272585,-3.999460,8.097684,-11.430970,-1.239754,5.897713,-25.424414,-0.521664,-3.841415,0.974896,-0.220077,0.002937,-0.033696
176,0.449918,-3.841467,7.918936,-6.350301,-2.373083,7.415502,-25.805962,-0.630696,-3.613608,0.974212,-0.223356,0.001678,-0.031961
177,0.651012,-3.978754,7.975685,-3.868006,-2.269583,6.032158,-26.027611,-0.850361,-3.376698,0.973817,-0.225295,-0.000593,-0.030376
178,0.732442,-3.913288,8.248622,-2.398560,-0.907587,2.848017,-26.137346,-1.136121,-3.219760,0.973604,-0.226290,-0.003301,-0.029606
179,0.623277,-3.789367,8.564840,-2.333501,1.266472,-1.861943,-26.095259,-1.390415,-3.209811,0.973652,-0.225987,-0.005493,-0.030020
180,0.430903,-4.040887,8.927058,-3.761959,5.232755,-6.603577,-26.025604,-1.513407,-3.388094,0.973721,-0.225431,-0.006206,-0.031773
181,0.186910,-4.254572,9.264995,-1.713134,10.179616,-9.818823,-25.978580,-1.430314,-3.750152,0.973723,-0.225029,-0.004802,-0.034685
182,-0.224952,-4.181302,9.505104,2.050995,14.097619,-8.548823,-25.813501,-1.069505,-4.205980,0.973959,-0.223539,-0.000895,-0.037850
183,-0.547175,-4.265837,9.598749,5.244591,17.882416,-4.139475,-25.516720,-0.400633,-4.630117,0.974477,-0.220796,0.005514,-0.040168
184,-0.413478,-4.296047,9.319270,9.371566,21.053797,0.613221,-25.164631,0.442216,-4.960950,0.975099,-0.217473,0.013191,-0.041399
185,-0.214382,-4.012730,9.009759,9.968843,21.183033,3.178806,-24.765882,1.253356,-5.199373,0.975779,-0.213726,0.020398,-0.041957
186,-0.062392,-4.059042,8.707272,5.106030,19.756266,4.430056,-24.480654,1.923256,-5.367844,0.976224,-0.210982,0.026310,-0.042201
187,0.268418,-4.108595,8.350557,0.733607,17.647621,2.767688,-24.469978,2.354700,-5.520145,0.976157,-0.210664,0.030260,-0.042701
188,0.548304,-4.076186,8.054906,-3.110035,12.221655,-0.947758,-24.687202,2.428659,-5.705765,0.975679,-0.212431,0.031314,-0.044085
189,0.318595,-4.134439,8.294771,-9.622547,4.059461,-4.982246,-25.081360,2.207716,-5.914841,0.974877,-0.215833,0.029981,-0.046176
190,0.044454,-4.375892,8.571011,-11.035285,-3.134280,-7.168378,-25.589357,1.848969,-6.108474,0.973848,-0.220276,0.027510,-0.048383
191,-0.054849,-4.422302,8.766097,-5.916851,-10.839867,-8.470595,-26.006596,1.359152,-6.245102,0.972987,-0.224028,0.023795,-0.050407
192,-0.472924,-4.484819,8.723229,-0.750861,-20.354042,-5.527120,-26.216452,0.784356,-6.228473,0.972567,-0.226089,0.018977,-0.051360
193,-0.678951,-4.290217,8.823512,0.648108,-26.296148,-1.200457,-26.253864,0.227865,-5.986860,0.972562,-0.226698,0.013794,-0.050406
194,-0.602031,-4.238530,8.595110,0.797744,-27.832327,3.535453,-26.217642,-0.291835,-5.553202,0.972767,-0.226654,0.008509,-0.047756
195,-0.579748,-4.330580,8.466791,-1.595195,-28.098755,9.446416,-26.272181,-0.734598,-4.946772,0.972843,-0.227318,0.003571,-0.043481
196,-0.554431,-4.229035,8.354465,-5.006120,-25.896013,15.474988,-26.453941,-1.027234,-4.174969,0.972712,-0.228966,-0.000386,-0.037507
197,-0.124520,-4.140607,8.544138,-8.859075,-19.752398,17.308496,-26.699877,-1.217351,-3.346908,0.972437,-0.231088,-0.003589,-0.030864
198,0.211752,-4.473543,8.629824,-8.100723,-13.895378,17.349957,-27.004246,-1.383870,-2.578414,0.971981,-0.233669,-0.006487,-0.024694
199,0.448217,-4.589408,8.775373,-4.437411,-8.825099,15.094460,-27.284218,-1.525525,-1.922886,0.971512,-0.236019,-0.008978,-0.019444
200,0.564506,-4.495426,8.816547,-1.217821,-2.888599,10.320918,-27.405350,-1.627232,-1.456135,0.971319,-0.237016,-0.010785,-0.015707
201,0.587916,-4.527355,8.948635,-1.283158,3.664228,4.418102,-27.418253,-1.647229,-1.244760,0.971317,-0.237106,-0.011390,-0.013958
202,0.379031,-4.570175,9.090150,-0.744075,9.034836,-1.692054,-27.396463,-1.530677,-1.303417,0.971371,-0.236919,-0.010283,-0.014213
203,0.211280,-4.280670,9.024132,1.322943,14.241255,-5.767848,-27.265396,-1.250157,-1.595196,0.971639,-0.235807,-0.007320,-0.016098
204,0.054899,-4.263958,8.994865,1.341034,18.471504,-8.914145,-27.049175,-0.824538,-2.065620,0.972056,-0.233945,-0.002779,-0.019207
205,-0.099343,-4.195065,8.982748,1.736028,20.350620,-10.174225,-26.829025,-0.294789,-2.645043,0.972441,-0.231989,0.002853,-0.023047
206,-0.162705,-4.173475,8.812243,1.248900,19.878378,-10.034976,-26.633234,0.262869,-3.248539,0.972734,-0.230176,0.008760,-0.027055
207,-0.195177,-3.991771,8.602881,1.381205,18.592667,-8.853584,-26.460110,0.785940,-3.816445,0.972949,-0.228507,0.014293,-0.030845
208,-0.278198,-3.988350,8.484840,1.925442,15.233123,-8.957067,-26.288082,1.235439,-4.331542,0.973142,-0.226828,0.019084,-0.034349
209,-0.384986,-3.995478,8.405196,0.993818,10.071523,-8.090027,-26.160728,1.573509,-4.771156,0.973247,-0.225543,0.022783,-0.037435
210,-0.392932,-4.253253,8.513382,1.198451,4.774084,-7.654853,-26.114275,1.760173,-5.115412,0.973215,-0.225003,0.025029,-0.040000
211,-0.548681,-4.256529,8.689631,5.225245,-0.849795,-6.664196,-26.030058,1.808803,-5.358980,0.973291,-0.224213,0.025889,-0.041991
213,-0.467860,-4.410065,8.765443,9.143601,-6.762032,-3.099289,-25.820856,1.723936,-5.450463,0.973668,-0.222452,0.025269,-0.042982
214,-0.247378,-4.475473,8.880096,10.087615,-11.147349,1.300031,-25.564243,1.468003,-5.349828,0.974208,-0.220402,0.022804,-0.042678
215,0.143477,-4.360234,8.998506,12.209772,-12.747291,3.637365,-25.237823,1.035841,-5.106355,0.974924,-0.217847,0.018544,-0.041496
216,0.528930,-4.073809,8.842875,12.240362,-12.703451,5.099811,-24.817429,0.445157,-4.796392,0.975812,-0.214535,0.012782,-0.040032
217,0.878242,-4.026956,8.812953,9.335253,-11.259822,5.548587,-24.425619,-0.250481,-4.470841,0.976605,-0.211465,0.006117,-0.038585
218,1.066609,-4.027215,8.844208,5.616641,-8.316781,2.728592,-24.170801,-0.975012,-4.213196,0.977075,-0.209526,-0.000618,-0.037723
219,1.145816,-4.019853,8.949862,1.785012,-4.600323,-1.312910,-24.054033,-1.884962,-4.105273,0.977167,-0.208787,-0.008615,-0.038452
220,0.975219,-3.898939,8.965885,-0.289892,-1.441321,-3.534201,-23.983765,-2.800211,-4.140684,0.977063,-0.208439,-0.016381,-0.040401
221,0.840849,-3.751798,9.107346,-0.758453,1.390289,-3.876138,-23.817041,-3.341686,-4.262605,0.977162,-0.207180,-0.020840,-0.042386
222,0.532013,-3.670993,9.310505,-0.198906,4.254948,-3.684486,-23.499857,-3.454610,-4.434926,0.977631,-0.204537,-0.021613,-0.043998
223,0.269372,-3.695619,9.488599,1.286560,7.287787,-3.420285,-23.186998,-3.219409,-4.636863,0.978182,-0.201836,-0.019369,-0.045253
224,0.012138,-3.685194,9.468483,2.293521,9.779686,-2.586533,-22.944084,-2.785121,-4.850094,0.978651,-0.199661,-0.015383,-0.046284
225,-0.155646,-3.802373,9.395700,4.569618,10.383009,-0.092329,-22.704268,-2.208959,-5.027036,0.979144,-0.197441,-0.010250,-0.046780
226,-0.281316,-3.895593,9.355921,4.601999,9.549101,1.791612,-22.506132,-1.580613,-5.129518,0.979579,-0.195534,-0.004783,-0.046573
227,-0.203574,-3.964839,9.224820,3.519900,7.832917,2.909434,-22.397251,-1.010575,-5.166335,0.979848,-0.194396,0.000111,-0.045921
228,-0.219552,-3.822724,9.169611,2.143110,3.828080,6.003421,-22.354534,-0.470449,-5.101519,0.980017,-0.193831,0.004603,-0.044455
229,-0.446774,-3.659358,8.983992,1.876046,-1.440675,10.953363,-22.291887,0.122194,-4.854639,0.980266,-0.193091,0.009232,-0.041347
230,-0.566936,-3.713160,9.109790,-0.409625,-4.840594,12.837543,-22.244415,0.566645,-4.447634,0.980504,-0.192566,0.012333,-0.037121
231,-0.580680,-3.804932,9.054083,-0.299902,-7.441976,15.163810,-22.268591,0.803642,-3.938379,0.980620,-0.192754,0.013512,-0.032361
232,-0.639295,-3.725435,8.862922,-0.059165,-9.628356,17.091782,-22.310190,0.986646,-3.333694,0.980704,-0.193131,0.014071,-0.026872
233,-0.522076,-3.830246,8.730692,-0.180348,-9.727474,16.608707,-22.381834,1.116248,-2.692982,0.980713,-0.193791,0.014113,-0.021161
234,-0.180290,-4.044999,8.876695,0.262532,-8.297030,13.807352,-22.514662,1.119395,-2.112612,0.980582,-0.194997,0.013177,-0.016173
235,0.089462,-4.070470,8.857186,1.149195,-6.786878,12.026354,-22.660748,0.981875,-1.621888,0.980400,-0.196320,0.011181,-0.012194
236,0.134913,-4.087527,8.941319,1.568357,-4.148606,7.333436,-22.859262,0.722849,-1.257789,0.980104,-0.198081,0.008358,-0.009508
237,0.169587,-4.117565,9.063243,1.291371,-0.534280,1.520261,-23.100111,0.419973,-1.094714,0.979706,-0.200179,0.005503,-0.008626
238,0.138069,-4.044301,9.142513,0.387992,2.682117,-2.663073,-23.267075,0.203027,-1.127494,0.979412,-0.201624,0.003719,-0.009280
239,0.114171,-3.949257,9.152342,-0.842436,5.525438,-6.745357,-23.341911,0.129966,-1.325723,0.979262,-0.202264,0.003451,-0.011100
240,0.007857,-3.810385,9.062845,-0.038118,7.926928,-10.906692,-23.338274,0.176204,-1.684577,0.979230,-0.202216,0.004479,-0.014085
241,-0.026452,-3.721508,8.949587,-1.368293,9.280363,-13.030804,-23.309589,0.273507,-2.164325,0.979214,-0.201934,0.006152,-0.018015
242,0.005740,-3.822531,8.944140,-2.246917,9.492367,-13.374180,-23.334158,0.372930,-2.692189,0.979079,-0.202093,0.007937,-0.022348
243,-0.140311,-3.730844,8.974535,-2.203880,8.962915,-12.814144,-23.373512,0.488326,-3.214610,0.978900,-0.202362,0.009853,-0.026605
244,-0.319967,-3.701327,8.993500,-1.058849,8.215775,-11.649615,-23.359388,0.666590,-3.701892,0.978805,-0.202147,0.012232,-0.030453
245,-0.327066,-3.780622,9.075136,-1.078103,6.892076,-7.901589,-23.327728,0.878502,-4.100093,0.978750,-0.201766,0.014735,-0.033484
246,-0.345976,-3.819190,9.205628,0.807191,4.463856,-3.578175,-23.239468,1.120803,-4.349183,0.978828,-0.200897,0.017216,-0.035197
247,-0.208709,-3.774452,9.287909,2.660943,1.675179,0.742052,-23.023680,1.294896,-4.429631,0.979176,-0.198981,0.018776,-0.035613
248,0.095509,-3.792826,9.273829,3.861589,-1.452538,4.022356,-22.754824,1.181903,-4.354785,0.979666,-0.196734,0.017599,-0.035212
249,0.335643,-3.849889,9.295309,4.120075,-5.628028,6.743740,-22.542387,0.859991,-4.143046,0.980098,-0.195054,0.014420,-0.033983
250,0.369654,-3.904708,9.318708,2.424794,-9.177665,7.225157,-22.426962,0.469261,-3.834084,0.980379,-0.194220,0.010520,-0.032018
251,0.405776,-3.738867,9.285598,-0.018112,-11.198233,5.608471,-22.372940,-0.002426,-3.507134,0.980542,-0.193912,0.005916,-0.030023
252,0.209978,-3.491286,9.073721,-2.710763,-11.925814,5.008272,-22.343843,-0.459192,-3.196844,0.980639,-0.193786,0.001475,-0.028141
253,-0.002600,-3.361751,8.869529,-4.431036,-11.012017,3.920187,-22.344511,-0.787862,-2.914406,0.980675,-0.193864,-0.001816,-0.026279
254,-0.077070,-3.531341,8.734936,-5.030085,-8.673764,3.003320,-22.425774,-0.975135,-2.683482,0.980568,-0.194590,-0.003792,-0.024622
255,-0.019387,-3.484491,8.634892,-0.931189,-5.666965,0.746770,-22.495167,-1.074118,-2.534957,0.980470,-0.195196,-0.004877,-0.023522
256,-0.016894,-3.543379,8.678818,2.180419,-2.332116,-0.183758,-22.444813,-1.099110,-2.475901,0.980565,-0.194767,-0.005201,-0.023057
257,-0.032529,-3.776606,8.891523,5.404416,0.574402,-2.345511,-22.353327,-0.985568,-2.502880,0.980728,-0.193966,-0.004202,-0.023092
258,-0.045935,-3.805881,8.919546,8.054067,3.426396,-4.137811,-22.237310,-0.752505,-2.625830,0.980922,-0.192934,-0.002023,-0.023748
259,-0.173514,-3.519022,8.983200,7.892379,5.889588,-4.457487,-21.961987,-0.409286,-2.815991,0.981371,-0.190511,0.001175,-0.024802
260,-0.478345,-3.304613,9.022840,4.257892,6.156693,-2.112417,-21.535034,0.156664,-2.991725,0.982064,-0.186725,0.006220,-0.025390
261,-0.787762,-3.097162,8.926606,1.206542,4.104715,1.905188,-21.191364,0.778010,-3.054860,0.982611,-0.183630,0.011572,-0.024952
262,-0.641107,-2.843632,8.932652,-2.743634,2.012015,6.718914,-20.968973,1.247329,-2.953508,0.982970,-0.181622,0.015389,-0.023360
263,-0.309948,-2.916769,9.240449,-5.558170,0.121010,8.832807,-20.811514,1.528089,-2.718099,0.983246,-0.180240,0.017395,-0.020918
264,-0.106617,-2.831017,9.399989,-5.355775,-2.233613,7.334368,-20.674074,1.577531,-2.445850,0.983505,-0.179091,0.017369,-0.018524
265,0.201294,-2.737012,9.436687,-5.658115,-3.414319,5.278588,-20.495760,1.411288,-2.206487,0.983832,-0.177627,0.015542,-0.016755
266,0.548736,-2.875502,9.470305,-4.265301,-2.606362,0.828199,-20.321257,1.047582,-2.067978,0.984145,-0.176210,0.012180,-0.016149
267,0.532907,-3.095541,9.367743,0.219743,-1.666076,-4.208327,-20.154694,0.598219,-2.091985,0.984412,-0.174852,0.008333,-0.017060
268,0.242453,-3.126216,9.031525,3.849425,-1.382668,-6.809204,-19.959291,0.229702,-2.246002,0.984685,-0.173226,0.005370,-0.018955
269,0.082163,-3.308652,8.875040,4.234150,-1.713139,-4.711372,-19.801067,0.000135,-2.409191,0.984890,-0.171900,0.003616,-0.020709
270,0.101804,-3.540544,8.913293,4.920939,-1.146104,-2.567667,-19.823820,-0.166803,-2.507308,0.984831,-0.172124,0.002332,-0.021803
271,0.076012,-3.686024,9.018363,3.900300,-0.783493,-0.738279,-20.032360,-0.289925,-2.547318,0.984502,-0.173938,0.001375,-0.022329
272,0.075651,-3.675098,9.169562,1.106574,-0.501470,0.851647,-20.300152,-0.345184,-2.536573,0.984092,-0.176249,0.000936,-0.022318
273,0.195848,-3.896678,9.412180,-1.918220,-0.050128,1.905951,-20.555820,-0.381712,-2.488799,0.983703,-0.178451,0.000598,-0.021963
274,0.311557,-3.861727,9.417572,-3.057869,1.584997,0.022718,-20.802580,-0.435106,-2.466403,0.983318,-0.180579,0.000152,-0.021853
275,0.273766,-3.884151,9.561783,-4.477994,2.577605,-2.751697,-21.054487,-0.488838,-2.532314,0.982902,-0.182749,-0.000156,-0.022504
276,0.279121,-3.887281,9.345826,-3.892983,3.561147,-5.063725,-21.310688,-0.531083,-2.689374,0.982456,-0.184955,-0.000214,-0.023919
277,0.216120,-4.047283,9.033678,-3.705217,4.183157,-6.080196,-21.616505,-0.554331,-2.907424,0.981910,-0.187581,0.000007,-0.025826
278,0.079452,-3.973301,8.917392,-2.699847,3.906762,-7.389503,-21.938309,-0.538782,-3.163606,0.981320,-0.190333,0.000638,-0.027994
279,-0.146261,-4.129585,8.988493,-1.865351,3.354826,-5.977823,-22.226200,-0.448950,-3.413660,0.980783,-0.192774,0.001898,-0.029981
280,-0.294766,-4.227317,8.897697,-1.749828,2.560908,-4.156933,-22.531923,-0.274331,-3.605894,0.980228,-0.195340,0.003800,-0.031323
281,-0.339573,-4.227181,9.143191,-2.403219,1.066842,-1.087731,-22.828455,-0.070386,-3.709286,0.979704,-0.197817,0.005803,-0.031845
282,-0.370368,-4.166678,9.226481,-2.084026,-1.126096,2.839040,-23.059656,0.122078,-3.682313,0.979321,-0.199741,0.007465,-0.031268
283,-0.349655,-4.274237,9.165772,-2.373564,-2.887305,8.569410,-23.275518,0.302923,-3.481943,0.979003,-0.201551,0.008716,-0.029223
284,-0.110155,-4.148787,9.074388,-1.410257,-3.699951,9.813323,-23.471371,0.414760,-3.158074,0.978738,-0.203221,0.009147,-0.026244
285,0.001156,-4.216984,9.086929,0.607636,-4.034153,9.872816,-23.595497,0.423686,-2.806581,0.978594,-0.204306,0.008625,-0.023216
286,0.051148,-4.214314,8.930333,3.825753,-3.685282,9.652824,-23.717522,0.358798,-2.458227,0.978441,-0.205386,0.007472,-0.020349
287,0.202364,-4.163264,9.011646,5.571107,-2.253804,7.596789,-23.788317,0.196819,-2.156576,0.978362,-0.206036,0.005559,-0.018061
288,0.235220,-4.049709,9.101510,6.865766,-0.860983,4.408301,-23.687239,-0.026551,-1.953286,0.978568,-0.205215,0.003272,-0.016729
289,0.142641,-4.151259,9.112359,6.908092,-0.141932,2.965778,-23.507980,-0.154779,-1.834586,0.978901,-0.203705,0.001939,-0.015949
290,0.076328,-4.006294,9.002245,7.185382,0.384182,2.727591,-23.326935,-0.158316,-1.749288,0.979233,-0.202160,0.001733,-0.015229
291,-0.024767,-3.979293,9.046259,5.579808,0.756512,2.867978,-23.151833,-0.103526,-1.671054,0.979553,-0.200658,0.002041,-0.014467
292,-0.140705,-4.012977,9.124248,4.802777,0.938469,2.538538,-23.020739,0.008390,-1.599080,0.979793,-0.199525,0.002856,-0.013659
293,-0.194809,-3.933768,9.098619,5.156476,1.027595,2.018462,-22.894203,0.152756,-1.541729,0.980022,-0.198427,0.003976,-0.012922
294,-0.269452,-3.810714,9.091556,4.933621,0.443943,2.955710,-22.734383,0.312925,-1.474550,0.980306,-0.197044,0.005213,-0.012077
295,-0.211320,-3.831632,9.019273,4.318630,-0.153503,3.979908,-22.584873,0.459232,-1.369492,0.980572,-0.195754,0.006270,-0.010935
296,-0.175053,-3.849468,9.049617,4.158161,-0.722216,3.935845,-22.473379,0.558114,-1.242095,0.980772,-0.194797,0.006889,-0.009682
297,-0.145867,-3.811262,9.007158,4.348441,-1.539756,4.261010,-22.387745,0.623454,-1.101864,0.980926,-0.194066,0.007203,-0.008376
298,-0.140503,-3.746996,8.961797,3.639902,-2.432111,5.170584,-22.316368,0.663827,-0.931884,0.981057,-0.193462,0.007257,-0.006857
299,0.011046,-3.723268,8.978590,2.540897,-2.641485,5.344404,-22.253633,0.608407,-0.738117,0.981175,-0.192941,0.006452,-0.005295
300,0.080353,-3.763391,9.128520,1.904347,-2.291634,4.396346,-22.207756,0.443439,-0.557162,0.981264,-0.192566,0.004734,-0.004026
301,0.190389,-3.746852,9.095411,2.787637,-1.669151,2.807194,-22.156530,0.208756,-0.421474,0.981359,-0.192142,0.002495,-0.003259
302,0.153220,-3.527872,9.174360,1.704856,-0.863575,0.384883,-22.003160,-0.031519,-0.356499,0.981617,-0.190836,0.000324,-0.003106
303,0.210942,-3.525585,9.295664,0.568086,0.168065,-2.058694,-21.768993,-0.243194,-0.378533,0.982001,-0.188835,-0.001460,-0.003645
304,0.120409,-3.610973,9.349410,1.497105,0.981902,-4.239648,-21.577057,-0.399946,-0.484066,0.982307,-0.187196,-0.002638,-0.004803
305,-0.044967,-3.401806,9.254823,2.416611,1.300751,-5.962452,-21.398243,-0.436422,-0.657026,0.982588,-0.185669,-0.002678,-0.006341
306,-0.166174,-3.340986,9.279956,0.652113,0.921439,-6.085807,-21.220999,-0.388962,-0.858308,0.982864,-0.184150,-0.001957,-0.007987
307,-0.172977,-3.527466,9.175310,0.523070,0.176566,-4.643305,-21.117907,-0.261689,-1.031970,0.983021,-0.183259,-0.000595,-0.009271
308,-0.185935,-3.574062,9.103485,-0.197252,-0.422940,-4.058215,-21.122593,-0.088832,-1.165615,0.983007,-0.183286,0.001102,-0.010141
309,-0.178219,-3.581164,9.064839,-2.808466,-1.097732,-3.148300,-21.217146,0.004033,-1.268499,0.982848,-0.184087,0.002072,-0.010874
310,-0.107670,-3.541939,9.106277,-6.426592,-1.388636,-2.252370,-21.390673,0.006183,-1.337508,0.982561,-0.185573,0.002219,-0.011459
311,-0.061086,-3.545712,9.121952,-8.265293,-0.640629,-2.066089,-21.630823,-0.010919,-1.392247,0.982164,-0.187633,0.002186,-0.011951
312,-0.010003,-3.487532,9.164678,-9.162222,0.822864,-3.974970,-21.881817,-0.027888,-1.486987,0.981740,-0.189784,0.002224,-0.012786
313,-0.045401,-3.393979,9.209608,-8.529673,1.785836,-5.397088,-22.074583,-0.030887,-1.648187,0.981400,-0.191432,0.002489,-0.014168
314,-0.129606,-3.220256,9.286122,-7.644629,2.707828,-6.324716,-22.152510,0.009978,-1.857531,0.981244,-0.192089,0.003199,-0.015891
316,-0.071721,-3.347390,9.389414,-5.331027,2.503721,-7.356093,-22.140697,0.054066,-2.101531,0.981229,-0.191973,0.003984,-0.017906
317,-0.009667,-3.290539,9.343652,-3.458486,2.212394,-6.338249,-22.067848,0.057868,-2.342425,0.981311,-0.191340,0.004408,-0.019966
318,0.079683,-3.329502,9.217631,-2.936497,1.903995,-5.140461,-21.968487,0.028056,-2.545316,0.981439,-0.190487,0.004472,-0.021757
319,0.131138,-3.478978,9.220842,-4.211003,2.047026,-3.816121,-21.941599,-0.021435,-2.708308,0.981449,-0.190260,0.004314,-0.023236
320,0.192206,-3.663949,9.113087,-4.035076,2.014397,-3.205986,-22.023254,-0.081262,-2.842093,0.981283,-0.190967,0.004041,-0.024478
321,0.204483,-3.706686,9.041589,-4.784381,2.538630,-1.153894,-22.179623,-0.130701,-2.937752,0.980998,-0.192313,0.003812,-0.025375
322,0.204469,-3.772788,9.160318,-5.046999,2.238879,-1.131277,-22.363047,-0.161857,-3.002848,0.980673,-0.193888,0.003696,-0.025978
323,0.119888,-3.684762,9.418020,-4.222737,2.419980,-0.177771,-22.484488,-0.163778,-3.052525,0.980455,-0.194925,0.003791,-0.026403
324,0.056348,-3.659147,9.443920,-1.795748,1.852130,0.031192,-22.488882,-0.126933,-3.082224,0.980443,-0.194954,0.004158,-0.026594
325,0.063706,-3.517020,9.562296,0.079288,1.507152,0.641511,-22.367487,-0.086997,-3.093596,0.980649,-0.193905,0.004491,-0.026628
326,-0.084351,-3.410192,9.515378,2.768091,1.293627,-0.060376,-22.114019,-0.026214,-3.102653,0.981076,-0.191721,0.004968,-0.026614
327,-0.215546,-3.416243,9.456977,4.753428,1.193478,-0.920770,-21.784491,0.081910,-3.133215,0.981621,-0.188873,0.005868,-0.026711
328,-0.251997,-3.478027,9.340536,6.668596,0.601126,-2.426362,-21.387117,0.255290,-3.195119,0.982261,-0.185423,0.007361,-0.026982
329,-0.194510,-3.329833,9.203741,8.435997,0.179836,-2.312886,-20.897697,0.426367,-3.271212,0.983029,-0.181178,0.008834,-0.027395
330,-0.032839,-3.369224,9.203512,9.307301,-0.219557,-3.895104,-20.412029,0.443331,-3.365761,0.983765,-0.176998,0.009009,-0.028217
331,0.264058,-3.415761,9.226962,11.689829,-0.229478,-6.375014,-19.993042,0.275085,-3.523605,0.984363,-0.173433,0.007700,-0.029861
332,0.352125,-3.288486,9.161626,12.928996,-0.275083,-7.414666,-19.568846,0.009044,-3.738053,0.984930,-0.169849,0.005620,-0.032127
333,0.086800,-3.403145,9.049591,11.530984,-0.842102,-4.369246,-19.193914,-0.193256,-3.918202,0.985418,-0.166676,0.004037,-0.033989
334,0.024483,-3.380566,9.307246,10.101859,-0.439389,-1.372373,-18.940395,-0.262188,-4.001709,0.985754,-0.164513,0.003489,-0.034815
335,0.208402,-3.378938,9.337452,10.997956,0.472552,-0.202176,-18.732021,-0.344149,-4.026301,0.986038,-0.162744,0.002755,-0.035149
336,0.278859,-3.403945,9.279381,11.443476,0.265153,-0.629903,-18.554926,-0.521256,-4.042816,0.986269,-0.161272,0.001200,-0.035544
337,0.169619,-3.568588,9.114623,10.856221,1.008696,-0.856090,-18.536036,-0.654350,-4.070505,0.986275,-0.161149,0.000087,-0.035969
338,0.470003,-3.466462,9.320592,12.401007,3.166926,-4.718503,-18.460121,-0.742674,-4.177701,0.986338,-0.160522,-0.000547,-0.037015
339,0.256494,-3.521963,9.053068,14.569319,4.099894,-7.697389,-18.201550,-0.810323,-4.410285,0.986613,-0.158319,-0.000891,-0.039110
340,-0.284514,-3.561414,8.982852,13.695944,2.859854,-5.846237,-17.986305,-0.698414,-4.657435,0.986834,-0.156429,0.000337,-0.041084
341,-0.745370,-3.493784,9.012894,10.961269,1.579036,0.762369,-17.983257,-0.125303,-4.755345,0.986853,-0.156200,0.005405,-0.041147
342,-0.608948,-3.461825,9.219304,11.190882,-0.521195,6.234644,-18.095865,0.657555,-4.647330,0.986765,-0.156899,0.012038,-0.039138
343,-0.407874,-3.553805,9.061212,9.605663,-4.121029,11.893700,-18.099098,1.055489,-4.337680,0.986858,-0.156825,0.015042,-0.035924
344,-0.098907,-3.585928,9.183780,6.012980,-6.812350,14.701503,-18.103086,1.072586,-3.863661,0.986992,-0.156915,0.014541,-0.031817
345,0.172186,-3.516600,9.203840,3.349756,-6.900125,14.037426,-18.189697,0.898405,-3.341854,0.987014,-0.157771,0.012347,-0.027553
346,0.522690,-3.545663,9.165441,2.008073,-5.701116,10.432534,-18.334745,0.576382,-2.892405,0.986920,-0.159141,0.008985,-0.024115
347,0.502135,-3.472975,9.147546,-0.698486,-4.169493,5.768130,-18.638798,0.049349,-2.586539,0.986551,-0.161887,0.004080,-0.022202
348,0.244249,-3.267534,9.208062,-1.300407,-2.507862,1.918679,-18.952106,-0.430486,-2.428720,0.986113,-0.164676,-0.000216,-0.021522
349,0.218206,-3.251952,9.126214,-0.866556,-0.348630,-1.444961,-19.118366,-0.667972,-2.404434,0.985860,-0.166148,-0.002263,-0.021657
350,0.170633,-3.304705,9.118364,-2.403872,0.625785,-2.635400,-19.260605,-0.771728,-2.469047,0.985632,-0.167391,-0.003034,-0.022367
351,0.009540,-3.203562,9.211607,-4.529726,1.051635,-3.302184,-19.404781,-0.762440,-2.571289,0.985401,-0.168631,-0.002775,-0.023236
352,-0.040221,-3.223625,9.292452,-6.588078,1.477908,-3.163138,-19.573755,-0.687291,-2.687293,0.985134,-0.170073,-0.001923,-0.024126
353,-0.005168,-3.269276,9.309221,-7.579765,1.850772,-3.732119,-19.787800,-0.602357,-2.814705,0.984795,-0.171897,-0.000957,-0.025098
354,-0.098660,-3.293535,9.341443,-8.615672,1.396641,-3.023880,-20.031933,-0.511057,-2.939578,0.984406,-0.173976,0.000071,-0.026034
355,-0.095694,-3.185795,9.312083,-8.142132,1.057063,-2.938177,-20.247383,-0.413528,-3.047911,0.984059,-0.175805,0.001123,-0.026815
356,-0.110262,-3.265627,9.268866,-8.748791,0.476353,-1.636325,-20.445700,-0.327554,-3.129273,0.983740,-0.177487,0.002034,-0.027378
357,-0.063117,-3.264000,9.222118,-8.459791,-0.211291,-0.180392,-20.657610,-0.261020,-3.159953,0.983407,-0.179290,0.002704,-0.027534
358,0.008188,-3.288992,9.214553,-9.624943,-0.951079,1.196096,-20.877068,-0.235233,-3.137869,0.983069,-0.181168,0.002943,-0.027298
359,0.132579,-3.300657,9.203462,-10.414651,-1.210587,1.388320,-21.121218,-0.267151,-3.085162,0.982691,-0.183270,0.002643,-0.026891
360,0.174376,-3.381388,9.278879,-11.091413,-0.721164,0.832726,-21.386332,-0.337330,-3.039217,0.982271,-0.185560,0.002029,-0.026604
361,0.214194,-3.407227,9.286409,-10.088101,-0.019749,-0.462987,-21.642057,-0.415194,-3.029176,0.981851,-0.187769,0.001405,-0.026641
362,0.217680,-3.466982,9.303121,-9.989629,0.652645,-1.868583,-21.874693,-0.492448,-3.069541,0.981452,-0.189779,0.000864,-0.027112
363,0.125770,-3.522954,9.288811,-9.331183,1.332878,-3.341239,-22.099743,-0.538993,-3.162973,0.981051,-0.191716,0.000675,-0.027988
364,0.060237,-3.486012,9.325735,-9.412683,1.404586,-3.815814,-22.298117,-0.543493,-3.291616,0.980685,-0.193414,0.000902,-0.029095
365,0.014833,-3.542550,9.218398,-8.561782,1.064509,-3.466303,-22.476498,-0.524595,-3.420705,0.980351,-0.194934,0.001329,-0.030166
366,-0.027068,-3.632838,9.220017,-9.031016,0.985515,-3.301366,-22.675011,-0.488929,-3.538988,0.979984,-0.196622,0.001889,-0.031114
367,-0.049447,-3.572251,9.190550,-8.169594,0.563284,-3.238623,-22.860556,-0.446615,-3.650560,0.979637,-0.198195,0.002494,-0.031992
368,-0.032857,-3.508618,9.174314,-6.219865,0.286004,-2.222182,-22.959469,-0.410076,-3.741195,0.979443,-0.199028,0.002991,-0.032701
369,0.044146,-3.565142,9.219585,-3.978557,0.118399,-0.949467,-22.972857,-0.391484,-3.793709,0.979407,-0.199136,0.003245,-0.033117
370,0.039294,-3.457934,9.320590,-0.622222,-0.145432,0.260640,-22.755613,-0.376216,-3.806106,0.979780,-0.197275,0.003334,-0.033203
371,0.092516,-3.214011,9.357017,5.374623,-1.125016,2.616672,-22.300497,-0.370322,-3.756143,0.980571,-0.193382,0.003169,-0.032778
372,0.090960,-3.208665,9.377100,9.588188,-2.141419,5.836294,-21.609940,-0.387734,-3.608128,0.981759,-0.187477,0.002580,-0.031557
373,0.177485,-3.184523,9.465496,10.823892,-2.781258,8.132591,-20.736416,-0.445645,-3.365605,0.983219,-0.180007,0.001461,-0.029586
374,0.133129,-3.056485,9.422216,11.486021,-2.929758,8.880081,-20.000896,-0.502080,-3.070349,0.984423,-0.173707,0.000339,-0.027144
375,0.189120,-2.962088,9.437472,11.011710,-3.017019,9.426242,-19.406412,-0.530565,-2.751998,0.985381,-0.168604,-0.000515,-0.024450
376,0.199747,-2.930887,9.460247,8.044580,-2.440791,8.695099,-18.801991,-0.594437,-2.440102,0.986314,-0.163413,-0.001639,-0.021853
377,0.244358,-2.878319,9.534079,5.418205,-1.622265,7.339739,-18.231230,-0.693530,-2.169696,0.987157,-0.158509,-0.002975,-0.019652
378,0.161925,-2.780151,9.517774,4.927964,-1.166669,6.143160,-17.732555,-0.756144,-1.946298,0.987869,-0.154214,-0.003901,-0.017797
379,0.149273,-2.707651,9.568950,5.438039,-0.811308,5.230572,-17.319439,-0.755046,-1.758990,0.988447,-0.150645,-0.004202,-0.016166
380,0.137845,-2.762811,9.567546,5.509280,-0.524475,4.273789,-17.007990,-0.735461,-1.602864,0.988875,-0.147950,-0.004279,-0.014782
381,0.144328,-2.765811,9.604062,5.305524,-0.503151,3.474183,-16.739599,-0.719786,-1.475507,0.989236,-0.145627,-0.004340,-0.013653
382,0.067589,-2.652658,9.517211,5.908967,-0.522910,3.217840,-16.466255,-0.694486,-1.364832,0.989595,-0.143260,-0.004292,-0.012655
383,0.132309,-2.739209,9.579561,5.947673,-0.069625,2.090201,-16.199932,-0.668205,-1.277946,0.989936,-0.140954,-0.004201,-0.011862
384,0.168047,-2.756451,9.629897,5.781592,0.056913,1.035750,-15.974393,-0.668954,-1.228221,0.990217,-0.139003,-0.004291,-0.011425
385,0.122781,-2.643192,9.572416,5.009729,0.265860,0.584042,-15.762951,-0.670260,-1.204156,0.990474,-0.137175,-0.004353,-0.011211
386,0.083656,-2.716269,9.615017,4.735233,0.690177,-0.127010,-15.579160,-0.638632,-1.201369,0.990695,-0.135584,-0.004100,-0.011142
387,0.093423,-2.738762,9.684776,5.585096,1.277815,-1.538446,-15.416592,-0.594123,-1.236715,0.990885,-0.134175,-0.003690,-0.011390
388,0.075984,-2.608284,9.566184,5.070899,1.311519,-1.712364,-15.233382,-0.549468,-1.300375,0.991095,-0.132589,-0.003248,-0.011883
389,0.065801,-2.769723,9.625663,5.337498,1.395655,-1.037845,-15.113919,-0.490578,-1.355848,0.991229,-0.131552,-0.002688,-0.012292
390,0.059318,-2.700483,9.710338,8.768617,0.976184,-1.016430,-14.964571,-0.440493,-1.398330,0.991398,-0.130256,-0.002222,-0.012599
391,0.001418,-2.586344,9.629730,9.522234,0.630126,1.185569,-14.683267,-0.371453,-1.402104,0.991717,-0.127814,-0.001651,-0.012549
392,0.009127,-2.697643,9.636638,9.710766,0.107216,2.374397,-14.448430,-0.281971,-1.346936,0.991986,-0.125772,-0.000963,-0.011970
393,0.012919,-2.678188,9.645818,12.756691,-0.319704,2.722404,-14.243063,-0.220393,-1.262632,0.992221,-0.123988,-0.000542,-0.011172
394,-0.058251,-2.494906,9.603972,14.239071,-0.664250,2.846088,-13.895850,-0.173223,-1.167923,0.992602,-0.120976,-0.000268,-0.010300
395,-0.147750,-2.549684,9.570422,13.861380,-0.878561,4.619426,-13.526229,-0.059905,-1.040130,0.993000,-0.117765,0.000550,-0.009075
396,-0.158212,-2.641242,9.536826,15.335618,-1.350617,4.123744,-13.206128,0.064027,-0.888668,0.993337,-0.114982,0.001447,-0.007639
397,-0.119441,-2.530779,9.550045,14.995666,-1.481326,3.698135,-12.849977,0.114249,-0.750486,0.993698,-0.111893,0.001724,-0.006396
398,-0.070626,-2.471081,9.667318,12.725077,-1.778488,3.277068,-12.579885,0.137293,-0.625138,0.993965,-0.109552,0.001789,-0.005291
399,-0.006210,-2.494905,9.645526,11.564625,-2.034718,3.383906,-12.458982,0.115180,-0.503485,0.994086,-0.108506,0.001476,-0.004259
400,0.143345,-2.583533,9.644229,9.739697,-2.123897,1.425988,-12.475390,-0.021748,-0.411037,0.994073,-0.108653,0.000201,-0.003586
401,0.281885,-2.585272,9.750860,7.327780,-2.163169,-0.132233,-12.501278,-0.230719,-0.374824,0.994047,-0.108884,-0.001645,-0.003471
402,0.189916,-2.822604,10.204762,6.006077,-2.919276,-2.354148,-12.501049,-0.421390,-0.396447,0.994041,-0.108887,-0.003279,-0.003839
403,0.073025,-2.832627,10.966770,7.150401,-5.489180,-5.152740,-12.486779,-0.616342,-0.487147,0.994043,-0.108772,-0.004884,-0.004811
404,-0.181941,-2.439414,12.260484,9.674032,-7.733327,-5.801150,-12.235915,-0.808101,-0.618170,0.994261,-0.106609,-0.006437,-0.006115
405,-0.472823,-2.691802,13.142090,19.202541,-6.686675,-6.653845,-11.673463,-0.907975,-0.771453,0.994757,-0.101742,-0.007198,-0.007503
406,-0.554507,-2.879425,14.076747,22.964205,-5.236632,-5.167188,-10.936169,-0.893838,-0.923651,0.995381,-0.095348,-0.006996,-0.008767
407,-0.348702,-3.062808,14.271182,25.358027,-4.558891,-3.973556,-10.173387,-0.858096,-1.039795,0.995987,-0.088725,-0.006654,-0.009702
408,0.044165,-3.106931,14.142124,34.311031,-2.946552,-2.851801,-9.318981,-0.877959,-1.126353,0.996612,-0.081303,-0.006837,-0.010419
409,0.320720,-3.613547,12.697114,44.165585,1.319981,-3.756619,-8.374818,-0.914871,-1.224846,0.997236,-0.073098,-0.007181,-0.011243
410,0.790409,-3.066624,11.957726,41.399483,2.548788,-5.496271,-7.468504,-1.008821,-1.379829,0.997759,-0.065227,-0.008000,-0.012588
411,0.978864,-2.736928,10.908392,43.870342,5.367994,-7.098728,-6.566529,-1.183807,-1.599221,0.998200,-0.057408,-0.009513,-0.014523
412,0.712177,-2.448995,9.908013,50.527916,15.691676,-8.354756,-5.564720,-1.144935,-1.886431,0.998628,-0.048698,-0.009179,-0.016926
413,0.202656,-2.183280,10.310267,54.139809,32.689552,-6.461097,-4.385177,-0.479160,-2.194947,0.999073,-0.038331,-0.003445,-0.019299
414,-0.171940,-1.833441,10.571978,62.905357,35.740349,-4.440677,-2.928248,0.706795,-2.442737,0.999431,-0.025413,0.006709,-0.021150
415,-0.474153,0.106499,9.124739,76.648750,30.655657,-5.929877,-0.685278,1.959644,-2.641864,0.999573,-0.005583,0.017233,-0.022947
416,-0.753000,0.674825,9.109076,65.178146,25.208252,1.934863,2.029049,3.099689,-2.676232,0.999194,0.018326,0.026622,-0.023819
417,-0.689913,1.665087,8.912817,52.097797,13.566792,1.959483,4.547348,3.909355,-2.538725,0.998356,0.040395,0.033195,-0.023475
419,-0.993301,2.316458,7.317813,26.249601,-2.238628,4.830082,6.751434,4.285675,-2.342876,0.997313,0.059593,0.036115,-0.022596
420,-0.830746,3.006619,6.700012,-11.124122,-8.486779,5.822459,8.261922,4.329819,-2.090013,0.996475,0.072660,0.036359,-0.020898
421,-0.421698,1.897169,7.139250,-49.854935,-7.265522,9.540155,8.248982,4.087774,-1.796256,0.996613,0.072427,0.034442,-0.018189
422,-0.263892,1.781476,6.057259,-59.507626,-4.853870,-0.258853,7.048944,3.756934,-1.622330,0.997444,0.061899,0.031844,-0.016138
423,-0.664825,1.163086,5.336245,-65.263565,-1.531377,3.290700,5.527650,3.711921,-1.544458,0.998201,0.048625,0.031697,-0.015016
424,0.284042,0.391520,4.196389,-57.424751,-3.739298,1.482699,3.696850,3.437149,-1.457356,0.998937,0.032620,0.029562,-0.013672
425,0.294932,-0.266549,3.178550,-40.151096,-0.769134,-5.919309,1.708097,2.691360,-1.538434,0.999518,0.015215,0.023280,-0.013770
426,-0.370123,-1.015463,2.472088,-21.649067,3.426067,-11.168891,-0.649569,2.603404,-1.873792,0.999594,-0.005295,0.022806,-0.016218
427,0.163286,-1.146825,2.162741,-7.567469,3.729486,-13.060349,-3.212576,2.676607,-2.378230,0.999133,-0.027533,0.023923,-0.020084
428,-0.092235,-1.118713,1.934508,12.001979,3.252902,-19.811865,-5.331820,2.492756,-3.022457,0.998361,-0.045912,0.022947,-0.025327
429,-0.618716,-1.483351,2.582423,21.292236,5.511394,-17.352518,-6.857105,2.962750,-3.750197,0.997393,-0.058907,0.027748,-0.031106
430,-0.268518,-1.096946,3.709512,28.437889,6.288564,-17.058182,-7.434539,3.521833,-4.416715,0.996761,-0.063573,0.033139,-0.036444
431,-0.434652,-0.600991,5.530952,30.313532,5.550693,-6.941351,-6.828511,3.752926,-4.855479,0.996877,-0.058085,0.035178,-0.040313
432,-0.900662,-0.224397,7.938294,21.887976,5.103271,-6.487865,-5.707907,4.059437,-5.078188,0.997231,-0.048143,0.037544,-0.042457
433,-1.067360,0.133641,10.809018,3.870635,3.015687,-0.469192,-4.805793,4.363758,-5.170045,0.997452,-0.040138,0.039889,-0.043435
434,-1.312963,1.015168,13.172306,-4.683128,3.630062,-5.339474,-4.179780,4.590175,-5.225986,0.997562,-0.034576,0.041639,-0.044064
435,-1.760938,1.053534,14.900528,-17.200659,-2.188674,2.058751,-3.827076,4.757409,-5.225062,0.997607,-0.031437,0.042959,-0.044132
436,-1.247028,0.782007,15.958134,-22.563969,-5.909797,0.980366,-3.868795,4.706044,-5.114719,0.997655,-0.031862,0.042497,-0.043172
437,-1.303308,1.104260,15.808867,-15.526191,-9.514133,3.754889,-3.893640,4.445713,-4.968596,0.997789,-0.032234,0.040199,-0.041972
438,-0.106550,0.225921,15.613435,-18.077953,-10.858300,5.476378,-3.917227,3.950818,-4.749609,0.998013,-0.032700,0.035836,-0.040210
439,0.017130,-0.042144,14.605169,-15.636710,-11.424056,4.734803,-4.113439,3.257403,-4.526425,0.998213,-0.034725,0.029799,-0.038430
440,0.376705,-0.659954,14.359596,-19.820583,-7.525185,1.009928,-4.480076,2.584851,-4.391119,0.998282,-0.038184,0.024018,-0.037390
441,0.602675,-1.368198,13.723191,-20.928316,-4.552899,-5.618929,-5.150386,1.968462,-4.445389,0.998121,-0.044225,0.018889,-0.037968
442,0.263537,-1.970423,13.843524,-19.530428,-0.046484,-8.104936,-6.004979,1.531775,-4.666746,0.997739,-0.051788,0.015470,-0.039955
443,-0.089706,-1.655651,13.516447,-19.418819,2.579771,-12.740871,-6.826736,1.360095,-5.018301,0.997230,-0.058959,0.014443,-0.042992
444,-0.070881,-2.095085,13.924026,-30.021852,-1.161006,-10.674872,-7.772613,1.241660,-5.409485,0.996565,-0.067187,0.013997,-0.046344
445,-0.310823,-2.259859,13.156313,-29.061752,-5.823030,-11.926198,-8.918463,1.030521,-5.767767,0.995705,-0.077197,0.012866,-0.049459
446,-0.675650,-2.107837,12.955692,-34.293392,-6.950024,-7.723712,-10.074586,0.850240,-6.058753,0.994753,-0.087288,0.012021,-0.051992
447,-0.622514,-2.997277,12.141362,-37.403069,-4.057105,3.676672,-11.441041,0.820159,-6.096538,0.993625,-0.099154,0.012412,-0.052199
448,-0.874947,-3.272040,12.066326,-33.519035,1.538642,10.209450,-12.931773,1.042696,-5.870254,0.992347,-0.111996,0.014795,-0.049854
449,-0.917542,-3.671525,12.513669,-20.729580,7.977013,17.407637,-14.123521,1.560547,-5.469580,0.991272,-0.122143,0.019364,-0.045674
450,-0.669429,-4.306640,12.582675,-3.310812,11.651327,25.060419,-14.844736,2.232743,-4.876375,0.990642,-0.128219,0.024797,-0.039662
451,-0.495154,-3.968695,12.534438,36.444679,10.371500,23.766462,-14.573949,2.845545,-4.191486,0.991069,-0.125815,0.029250,-0.033116
452,-0.191736,-2.806150,12.251401,73.583824,3.122697,19.197659,-12.750666,3.145781,-3.548326,0.993059,-0.110101,0.030702,-0.027711
453,0.243934,-1.432528,11.088194,96.652069,-5.392528,15.593060,-9.590944,2.953619,-2.963245,0.995891,-0.082879,0.027834,-0.023603
454,0.321441,-0.225944,9.528329,104.541046,-9.121899,12.028143,-5.654168,2.388410,-2.465524,0.998357,-0.048852,0.021872,-0.020456
455,-0.069882,1.675467,8.293575,91.638527,-9.424747,7.671668,-1.335737,1.820393,-2.096153,0.999642,-0.011362,0.016095,-0.018103
456,0.001569,2.171579,7.094354,46.668903,-9.415273,7.844448,2.423648,1.352534,-1.801169,0.999579,0.021330,0.011466,-0.015962
457,-0.309494,1.913777,6.704306,1.739342,-5.910395,7.638713,4.542569,1.059759,-1.526119,0.999078,0.039749,0.008712,-0.013673
458,-0.720549,1.692083,6.731467,-27.535553,-2.688654,6.800998,5.069065,1.151517,-1.275273,0.998905,0.044328,0.009546,-0.011562
459,-0.319315,1.947732,6.541491,-52.656006,-2.709397,0.764398,4.606115,1.319650,-1.140271,0.999072,0.040295,0.011106,-0.010405
460,0.187080,1.361992,6.709300,-64.173698,-1.484507,0.137401,3.420743,1.194335,-1.114502,0.999450,0.029945,0.010127,-0.010032
461,-0.220974,0.838975,6.134706,-55.611050,1.513271,3.586136,1.893020,1.108155,-1.039170,0.999774,0.016605,0.009519,-0.009226
462,0.176278,0.445015,5.115189,-43.186012,0.203290,-3.382699,0.556700,1.044080,-1.027438,0.999906,0.004939,0.009067,-0.009010
463,-0.090490,-0.145880,4.330509,-23.103113,-0.891771,-9.851058,-0.527105,0.911877,-1.244406,0.999899,-0.004513,0.008007,-0.010822
464,-0.293195,-0.666085,3.070120,-0.049545,0.570070,-7.603433,-1.504390,1.093028,-1.546031,0.999779,-0.012997,0.009714,-0.013364
465,-0.335115,-1.619158,1.560000,22.678787,1.286720,-5.858009,-3.272851,1.618082,-1.820855,0.999373,-0.028326,0.014566,-0.015478
466,-0.088909,-1.963161,1.403676,39.359554,-1.569912,-4.727881,-5.760792,1.960412,-2.098827,0.998439,-0.049923,0.018003,-0.017429
467,-0.536696,-2.047434,1.799672,44.962605,-1.975226,-0.876955,-7.813627,2.333811,-2.304891,0.997295,-0.067697,0.021684,-0.018674
468,0.123727,-2.231157,2.255049,38.737045,-0.419878,-0.836515,-9.449656,2.517357,-2.453925,0.996172,-0.081863,0.023650,-0.019526
469,0.037343,-2.220810,4.775935,21.630144,-1.249114,-4.067922,-10.516872,2.184762,-2.612231,0.995392,-0.091175,0.021068,-0.020947
470,-0.601823,-0.789735,7.858996,5.869930,-1.780326,-9.958178,-10.506210,2.065285,-2.851855,0.995371,-0.091066,0.020219,-0.023127
471,-1.221921,-0.415387,10.553717,-22.292822,-0.194239,-14.561331,-10.255954,2.240239,-3.228012,0.995461,-0.088780,0.021980,-0.026301
472,-0.640683,-0.265794,13.460671,-38.173489,-3.430632,-15.058261,-10.563561,2.301976,-3.676039,0.995100,-0.091346,0.022944,-0.030083
473,-0.780512,0.108189,15.614375,-34.979183,-7.960787,-10.965402,-10.965185,2.080622,-4.034552,0.994705,-0.094832,0.021424,-0.033300
474,-1.049874,0.123620,15.983251,-23.254211,-8.663532,-7.285974,-11.018939,1.847489,-4.245576,0.994625,-0.095337,0.019592,-0.035318
475,-0.449004,-0.320192,16.015793,-20.289927,-10.480463,-2.779583,-10.866981,1.565189,-4.319640,0.994756,-0.094102,0.017156,-0.036222
476,0.239236,-0.585122,15.400358,-6.040783,-12.257543,0.165468,-10.534986,1.074242,-4.269289,0.995074,-0.091390,0.012748,-0.036229
477,0.111834,-0.614327,14.250330,-0.940154,-8.030521,0.617023,-9.954519,0.579222,-4.181844,0.995569,-0.086518,0.008198,-0.035909
478,0.295636,-0.918204,13.367355,-7.226860,-4.814983,3.908315,-9.504352,0.241160,-4.064106,0.995940,-0.082719,0.005034,-0.035162
479,0.696447,-1.410803,13.072713,-13.484614,-2.764297,3.319046,-9.459653,-0.076369,-3.921872,0.996009,-0.082432,0.002158,-0.034156
480,0.685406,-2.081761,13.185301,-14.832257,0.358782,2.871619,-9.772670,-0.354056,-3.811993,0.995801,-0.085234,-0.000244,-0.033402
481,0.628212,-2.049683,13.811162,-22.285797,3.744666,-2.918029,-10.315508,-0.498557,-3.823135,0.995374,-0.089992,-0.001332,-0.033612
482,0.431133,-2.442690,14.343412,-28.787107,6.294891,-3.214259,-11.083137,-0.495371,-3.953166,0.994711,-0.096658,-0.000969,-0.034747
483,0.321278,-3.030043,14.212405,-31.071516,6.600956,-5.314054,-12.091911,-0.395471,-4.133795,0.993772,-0.105381,0.000369,-0.036229
484,-0.051800,-3.510942,13.691249,-31.438820,8.097833,-2.942764,-13.267753,-0.193511,-4.320146,0.992590,-0.115505,0.002678,-0.037634
485,0.105313,-3.445417,12.612799,-24.932180,5.296342,-4.143638,-14.386161,0.008848,-4.487459,0.991370,-0.125114,0.004979,-0.038833
486,-0.236633,-3.698567,11.327450,-19.648277,1.938058,1.513042,-15.366755,0.150102,-4.560924,0.990243,-0.133541,0.006617,-0.039259
487,-0.240229,-3.549579,10.494847,-17.644024,0.763811,3.239051,-16.280146,0.307092,-4.498796,0.989173,-0.141380,0.008208,-0.038475
488,-0.113642,-3.561360,10.105659,-25.967041,-3.996627,5.398352,-17.274761,0.354931,-4.347727,0.987960,-0.149955,0.008757,-0.037037
489,0.411260,-4.054892,10.075002,-24.332315,-3.646365,9.188515,-18.435513,0.215511,-4.078920,0.986470,-0.160019,0.007556,-0.034827
490,-0.281697,-4.584823,11.535603,-3.945527,3.532659,11.297194,-19.233656,0.263811,-3.754799,0.985428,-0.166894,0.007742,-0.031916
491,0.232275,-4.390075,11.957676,44.048016,2.357629,11.483322,-18.736271,0.470293,-3.428030,0.986233,-0.162582,0.008916,-0.028844
492,0.280538,-3.596159,11.665808,83.176018,-0.075673,12.372604,-16.585085,0.496954,-3.062268,0.989199,-0.144060,0.008144,-0.025815
493,0.257915,-2.027226,11.220218,105.396141,3.403821,11.980103,-13.110718,0.504697,-2.688380,0.993191,-0.114028,0.007052,-0.022802
494,-0.115172,-0.246645,10.387590,111.368500,0.929757,7.711980,-8.750574,0.567913,-2.381749,0.996866,-0.076169,0.006526,-0.020344
495,-0.120944,0.982157,7.992165,84.977547,-4.903723,9.553883,-4.348110,0.551728,-2.077540,0.999108,-0.037841,0.005498,-0.017933
496,-0.198304,1.615493,6.632669,29.147400,-3.322394,7.660361,-1.061015,0.489109,-1.766990,0.999830,-0.009192,0.004410,-0.015379
497,-0.098438,1.974990,6.236105,-18.798897,-2.952614,7.068443,0.614068,0.449530,-1.504580,0.999891,0.005410,0.003852,-0.013150
498,-0.430242,2.082948,6.237907,-45.754631,-2.417303,11.780589,1.033731,0.510729,-1.178155,0.999896,0.009066,0.004364,-0.010321
499,-0.082334,1.978280,6.212892,-67.632729,-3.731467,13.317278,0.561404,0.551075,-0.749459,0.999955,0.004930,0.004777,-0.006564
500,0.896113,1.667878,6.369224,-77.136787,-3.818065,9.897798,-0.589531,0.092022,-0.348027,0.999982,-0.005142,0.000819,-0.003033
501,0.502422,1.047111,6.483307,-68.994240,-1.318261,9.566733,-2.046354,-0.514757,-0.003246,0.999831,-0.017857,-0.004491,-0.000109
502,0.474805,0.332038,4.662839,-44.122505,-2.304202,7.308271,-3.278057,-0.967457,0.289279,0.999553,-0.028580,-0.008511,0.002282
503,0.473378,-0.621227,3.299744,-21.191303,-2.636382,-1.652136,-4.419684,-1.556866,0.400768,0.999160,-0.038508,-0.013710,0.002971
504,0.130452,-1.181771,2.367684,-1.666011,-2.413366,-4.005048,-6.000085,-1.998787,0.354682,0.998476,-0.052275,-0.017580,0.002178
505,-0.309823,-1.299685,1.050953,19.261438,-3.862649,-0.334165,-8.263803,-1.673945,0.373309,0.997293,-0.071997,-0.014804,0.002196
506,-0.238201,-1.673156,0.953227,28.835861,-4.935013,0.032222,-10.990921,-0.988301,0.470779,0.995362,-0.095727,-0.008978,0.003263
507,0.315071,-1.853082,2.342353,30.652460,-4.120812,-1.523582,-12.958163,-1.016886,0.530787,0.993568,-0.112794,-0.009340,0.003601
508,0.264239,-1.593328,4.223433,24.615297,-1.639085,-3.681550,-13.446904,-1.440786,0.496636,0.993041,-0.117013,-0.012994,0.002832
509,-0.223371,-1.079486,6.323627,22.918686,-0.115864,-4.117861,-12.815178,-1.453196,0.378554,0.993673,-0.111549,-0.012971,0.001867
510,-0.342987,-1.112300,9.649326,2.375426,0.142749,-8.463256,-11.973238,-1.210227,0.166048,0.994491,-0.104275,-0.010655,0.000340
511,-0.351997,-0.617824,11.969488,-4.434291,-0.457903,-4.796115,-11.369934,-0.996229,-0.060525,0.995043,-0.099059,-0.008599,-0.001387
512,-0.530803,-0.168877,13.878413,-15.231318,-1.046438,-3.364513,-10.879810,-0.794967,-0.202337,0.995470,-0.094811,-0.006739,-0.002415
513,-0.374928,-0.582790,15.077108,-23.246698,-4.194169,2.505970,-10.719713,-0.659376,-0.211368,0.995609,-0.093420,-0.005557,-0.002374
514,0.370184,-1.006683,15.607848,-27.724651,-4.781145,-0.121644,-10.918388,-0.735973,-0.152531,0.995442,-0.095143,-0.006267,-0.001936
515,0.449892,-0.825002,14.999008,-14.436555,-5.332546,0.149807,-11.006851,-0.971633,-0.127435,0.995353,-0.095911,-0.008333,-0.001920
516,0.783379,-1.451547,14.571266,-19.536428,-4.842193,-5.664227,-11.028263,-1.284042,-0.193322,0.995307,-0.096104,-0.010991,-0.002756
517,0.268636,-1.802358,13.695488,-16.098627,-2.335717,-5.350065,-11.250404,-1.517225,-0.356974,0.995088,-0.098053,-0.012871,-0.004398
518,0.596038,-2.002248,12.845123,-12.495472,-0.736847,-5.551594,-11.475866,-1.642494,-0.530808,0.994870,-0.100033,-0.013798,-0.006041
519,0.541703,-2.562517,12.301617,-10.622462,-0.294958,-3.583295,-11.769413,-1.770635,-0.678467,0.994585,-0.102604,-0.014762,-0.007473
520,0.420036,-3.034421,12.101801,-11.297787,0.983441,-1.514181,-12.240278,-1.818200,-0.760254,0.994142,-0.106702,-0.015068,-0.008287
522,0.183066,-2.794557,12.370964,-12.733086,2.366194,-3.648862,-12.754268,-1.747704,-0.852740,0.993657,-0.111169,-0.014330,-0.009089
523,0.332582,-3.609623,13.555536,-17.887016,3.292875,-4.982396,-13.370062,-1.630729,-1.011391,0.993047,-0.116520,-0.013106,-0.010422
524,-0.202534,-3.783792,13.696380,-10.078739,3.132036,-7.544167,-14.006175,-1.458016,-1.235401,0.992385,-0.122042,-0.011313,-0.012251
525,-0.280230,-3.775574,13.313802,-2.697612,2.257786,-6.409971,-14.375803,-1.216756,-1.480069,0.991985,-0.125242,-0.008918,-0.014142
526,-0.040916,-3.827027,12.867464,2.924086,1.700585,-7.592207,-14.534477,-1.044058,-1.719490,0.991797,-0.126614,-0.007139,-0.016036
527,0.273781,-3.587193,11.651443,14.473754,0.336771,-4.691298,-14.439226,-1.014514,-1.922449,0.991875,-0.125798,-0.006674,-0.017755
528,0.275956,-2.894816,10.228302,18.886944,-1.401495,-4.122165,-14.044764,-1.097534,-2.057584,0.992272,-0.122402,-0.007309,-0.018990
529,0.635077,-2.701830,9.387237,10.628369,-1.298063,-2.715692,-13.774746,-1.406718,-2.153883,0.992506,-0.120117,-0.009931,-0.020130
530,0.686824,-2.559773,9.067910,-2.730056,-0.488871,-4.388710,-13.889991,-1.797616,-2.256676,0.992311,-0.121185,-0.013188,-0.021441
531,0.530972,-2.437566,9.586091,-18.432613,1.638483,-4.015159,-14.336577,-1.981432,-2.393557,0.991774,-0.125097,-0.014546,-0.022877
532,0.515018,-3.309157,10.728148,-25.945805,3.352993,0.187119,-15.205929,-1.997419,-2.470602,0.990778,-0.132629,-0.014421,-0.023671
533,0.473706,-4.591311,11.792858,-6.119352,4.420854,3.615905,-16.110304,-1.889242,-2.430728,0.989727,-0.140422,-0.013348,-0.023308
534,0.145316,-3.641188,11.890605,44.629082,4.405914,7.519399,-15.763179,-1.652725,-2.282016,0.990215,-0.137369,-0.011553,-0.021700
535,0.335596,-3.316457,12.397482,68.079460,2.671376,13.479794,-13.898554,-1.392553,-1.971305,0.992408,-0.121171,-0.009980,-0.018544
536,0.538463,-2.428251,11.577990,93.648811,1.428935,15.211611,-11.096705,-1.266328,-1.522339,0.995152,-0.096817,-0.009713,-0.014290
537,0.542543,-0.858540,9.734090,103.063408,0.779409,11.524695,-7.493846,-1.288642,-1.101959,0.997746,-0.065450,-0.010592,-0.010330
538,-0.121259,1.222968,8.147889,82.017509,1.279997,9.787998,-3.510729,-1.213916,-0.776546,0.999450,-0.030701,-0.010380,-0.007098
539,0.385599,1.085773,7.200015,30.267378,1.061885,5.312311,-0.489523,-1.155436,-0.548735,0.999928,-0.004320,-0.010062,-0.004831
540,0.108361,1.897821,6.235820,3.474207,2.791726,1.184445,1.283543,-1.161488,-0.468165,0.999878,0.011159,-0.010181,-0.003972
541,-0.250927,2.082250,6.145965,-26.890963,4.007518,0.740146,2.321797,-0.904398,-0.460789,0.999756,0.020228,-0.007972,-0.003860
542,-0.309218,2.079161,6.535342,-49.405910,3.034703,2.674752,2.394519,-0.507046,-0.422098,0.999765,0.020878,-0.004501,-0.003590
543,0.367934,2.105251,6.450684,-62.749081,0.715570,4.513356,1.798895,-0.414074,-0.316531,0.999867,0.015688,-0.003656,-0.002705
544,0.244012,1.876653,6.960260,-68.023819,1.059043,7.827642,0.810291,-0.562229,-0.118116,0.999962,0.007066,-0.004914,-0.000996
545,0.381755,0.880836,6.485120,-57.624062,2.044878,8.740120,-0.450803,-0.691310,0.154789,0.999973,-0.003926,-0.006038,0.001327
546,0.585194,-0.298879,5.605750,-34.324791,-0.054421,5.141975,-1.807004,-0.988201,0.390288,0.999833,-0.015738,-0.008676,0.003269
547,0.065014,-0.283912,4.168805,-11.483250,0.648837,0.620668,-2.767278,-1.188820,0.494821,0.999646,-0.024100,-0.010475,0.004066
548,0.734021,-1.763955,3.661535,4.494319,1.175326,-4.861963,-3.885593,-1.537449,0.447194,0.999329,-0.033846,-0.013541,0.003445
549,-0.121257,-2.288342,2.540185,29.903229,1.533463,-8.766413,-5.695968,-1.754027,0.285821,0.998647,-0.049642,-0.015411,0.001730
550,-0.267991,-2.304629,1.917094,42.149605,-0.349462,-9.474962,-7.628792,-1.367451,0.065272,0.997714,-0.066513,-0.011944,-0.000226
551,-0.222314,-2.369776,2.673504,31.940081,-1.482697,-9.045102,-9.385468,-0.981029,-0.167858,0.996609,-0.081822,-0.008412,-0.002160
552,-0.235931,-2.539804,4.419854,25.597803,-0.314220,-7.349034,-10.587142,-0.712513,-0.395722,0.995708,-0.092278,-0.005873,-0.004012
553,-0.576671,-1.799746,5.719035,21.416965,-2.354257,-6.864602,-10.921137,-0.393318,-0.606291,0.995440,-0.095177,-0.002913,-0.005593
554,-0.216710,-1.547396,8.376753,-0.364695,-3.726488,-4.202865,-10.835271,-0.192227,-0.765369,0.995508,-0.094424,-0.001039,-0.006808
555,-0.198359,-1.022285,11.013779,-15.122979,-4.598311,-7.082100,-10.843631,-0.236022,-0.924780,0.995490,-0.094501,-0.001288,-0.008229
556,-0.295466,-0.261419,12.698239,-21.137709,-5.329841,-5.414108,-10.816316,-0.321710,-1.100648,0.995496,-0.094272,-0.001890,-0.009827
557,0.264464,-0.747857,13.972880,-28.755449,-8.888031,-3.930885,-10.924376,-0.550358,-1.212404,0.995387,-0.095233,-0.003774,-0.010989
558,-0.036369,-0.960028,14.942179,-32.713295,-8.454687,-2.241727,-11.324964,-0.857238,-1.262076,0.995024,-0.098741,-0.006357,-0.011697
559,0.281600,-0.687829,14.851634,-27.309280,-10.171193,-0.721942,-11.664313,-1.152742,-1.256906,0.994702,-0.101713,-0.008892,-0.011933
560,0.736919,-1.443365,14.806950,-29.829784,-9.820843,1.794097,-12.005278,-1.555585,-1.181525,0.994358,-0.104698,-0.012421,-0.011673
561,0.613083,-2.184482,14.153308,-22.045990,-7.192503,4.831969,-12.487086,-1.917137,-1.021068,0.993874,-0.108883,-0.015661,-0.010676
562,1.033401,-2.358959,13.575097,-19.628500,-5.144238,3.699442,-12.944412,-2.222864,-0.843277,0.993397,-0.112839,-0.018443,-0.009497
563,1.165059,-2.431028,12.748960,-15.500813,-1.946077,4.193398,-13.337925,-2.528048,-0.693833,0.992958,-0.116235,-0.021207,-0.008574
564,1.287704,-3.050903,12.117101,-14.812171,1.836189,3.150700,-13.792447,-2.762041,-0.574442,0.992450,-0.120155,-0.023325,-0.007869
565,1.038747,-3.003206,11.418981,-11.261918,3.268731,1.444305,-14.301921,-2.894907,-0.515055,0.991881,-0.124556,-0.024504,-0.007603
566,1.216958,-2.904824,10.879242,-12.632726,3.804061,-1.662905,-14.764594,-3.012324,-0.543084,0.991341,-0.128567,-0.025458,-0.008076
567,0.828024,-3.025705,10.544459,-11.014347,3.717123,-1.713608,-15.232902,-3.096349,-0.624130,0.990782,-0.132636,-0.026057,-0.008977
568,0.532777,-3.192191,10.848217,-12.023784,2.502183,-1.399302,-15.713124,-3.048016,-0.695782,0.990223,-0.136803,-0.025516,-0.009648
569,0.218359,-3.185275,11.779041,-15.602272,1.515684,-0.968763,-16.194887,-2.893626,-0.751333,0.989670,-0.140973,-0.024073,-0.010046
570,-0.118568,-3.577734,13.015861,-18.765047,0.994033,-0.510511,-16.707230,-2.634842,-0.791488,0.989082,-0.145397,-0.021744,-0.010172
571,-0.401419,-4.311615,14.091660,-19.358459,0.222816,-0.039818,-17.320175,-2.302130,-0.810249,0.988353,-0.150678,-0.018795,-0.010013
572,-0.466679,-4.218222,14.077967,-8.129064,-1.382859,1.665447,-17.765406,-1.966278,-0.782289,0.987820,-0.154502,-0.015898,-0.009393
573,-0.080257,-4.230428,13.582030,-0.479232,-2.986092,2.767794,-17.865831,-1.746191,-0.692630,0.987724,-0.155348,-0.014114,-0.008336
574,0.376554,-3.989734,12.130232,10.318258,-4.132843,2.110356,-17.700174,-1.736652,-0.579107,0.987956,-0.153906,-0.014197,-0.007324
575,0.679181,-3.569124,10.192123,18.798706,-3.486429,0.944385,-17.298439,-1.917762,-0.490041,0.988469,-0.150433,-0.015901,-0.006744
576,0.997601,-2.823302,8.790863,16.425192,-2.327149,-1.807446,-16.799452,-2.269177,-0.474248,0.989059,-0.146129,-0.018984,-0.006986
577,0.999472,-2.335253,8.405718,5.452517,0.435119,-5.372851,-16.398491,-2.688174,-0.583994,0.989476,-0.142693,-0.022490,-0.008388
578,0.710092,-2.100503,8.229529,-8.334634,2.683844,-9.287504,-16.295074,-2.972009,-0.840860,0.989520,-0.141859,-0.024631,-0.010936
579,0.773864,-2.623051,8.729700,-22.914303,5.145423,-10.304166,-16.728918,-3.105483,-1.193954,0.988905,-0.145687,-0.025292,-0.014246
580,0.763575,-3.088449,10.450891,-23.840593,5.056030,-10.785092,-17.493967,-3.162822,-1.578478,0.987842,-0.152375,-0.025180,-0.017805
581,0.320660,-2.819472,11.953809,16.007385,6.963701,-5.909760,-17.419994,-3.023640,-1.914125,0.987919,-0.151795,-0.023547,-0.020499
582,0.050435,-3.749790,12.371147,46.310799,7.578566,-3.547266,-16.171679,-2.650120,-2.143648,0.989560,-0.141023,-0.020260,-0.021767
583,0.777546,-3.349268,12.321467,72.496185,6.472900,-1.575593,-14.122622,-2.364056,-2.286199,0.991956,-0.123289,-0.018016,-0.022329
584,0.175037,-2.501365,12.075869,96.080490,5.975694,1.670053,-11.171698,-2.130938,-2.334553,0.994836,-0.097677,-0.016520,-0.022081
585,-0.051247,-0.959488,9.617510,102.282944,5.513127,5.555243,-7.543405,-1.756100,-2.251759,0.997504,-0.066061,-0.013996,-0.020612
586,0.374504,-0.320666,7.979490,63.825565,3.185069,2.944380,-4.336605,-1.534129,-2.133139,0.999012,-0.038074,-0.012671,-0.019106
587,0.293667,0.920639,7.203190,31.045116,1.808119,4.819526,-2.061677,-1.516259,-2.029832,0.999590,-0.018220,-0.012909,-0.017946
588,-0.380233,1.686783,6.267935,2.504508,0.918319,6.604645,-0.325309,-1.299574,-1.870517,0.999798,-0.003023,-0.011293,-0.016354
589,-0.211401,1.837848,6.086880,-30.088709,-1.444213,8.116624,0.614466,-0.977044,-1.652798,0.999846,0.005238,-0.008603,-0.014376
590,-0.082907,1.862489,7.061367,-52.410336,-2.143033,7.884476,0.521887,-0.841053,-1.410911,0.999887,0.004463,-0.007395,-0.012278
591,0.107313,1.652495,6.966858,-62.069691,-3.555521,9.982475,-0.276733,-0.871334,-1.131929,0.999919,-0.002490,-0.007580,-0.009896
592,0.635875,1.716833,6.916649,-64.941727,-3.883499,12.295640,-1.286397,-1.169039,-0.774296,0.999861,-0.011294,-0.010125,-0.006871
593,0.424981,0.709872,7.633365,-55.350533,-2.007170,13.941975,-2.443659,-1.514207,-0.343483,0.999680,-0.021361,-0.013147,-0.003278
594,0.773549,0.289242,6.070043,-26.975101,-1.565705,4.626014,-3.337134,-1.880854,-0.037485,0.999441,-0.029119,-0.016396,-0.000805
595,0.359831,-0.144851,4.819241,-5.002582,0.372571,-1.233729,-3.591961,-2.235791,0.015557,0.999319,-0.031332,-0.019504,-0.000476
596,0.416537,-1.003422,3.728352,16.181656,1.345516,-4.349669,-3.807162,-2.477735,-0.062226,0.999214,-0.033222,-0.021591,-0.001261
597,0.056660,-1.722339,2.694529,33.838913,0.680770,-11.507298,-4.584595,-2.579808,-0.258803,0.998942,-0.040038,-0.022403,-0.003156
598,0.176486,-2.168236,1.798192,44.235107,0.683538,-13.725005,-6.122993,-2.620142,-0.552889,0.998294,-0.053503,-0.022573,-0.006038
599,0.239617,-2.015134,2.696844,38.262188,0.714292,-11.570985,-7.651343,-2.794034,-0.839032,0.997436,-0.066877,-0.023837,-0.008930
600,0.287307,-2.484631,4.151943,30.220129,2.036297,-8.098800,-8.650486,-2.902564,-1.066310,0.996771,-0.075626,-0.024552,-0.011186
601,0.026541,-1.911032,6.069573,19.371038,1.395929,-8.496463,-9.118431,-2.812833,-1.283747,0.996451,-0.079735,-0.023575,-0.013115
602,0.029787,-1.478936,8.288279,4.071904,1.374740,-7.208148,-9.123639,-2.589929,-1.529658,0.996465,-0.079808,-0.021464,-0.015100
603,-0.244970,-0.825148,10.549503,-9.747190,-0.705996,-4.770955,-9.057616,-2.339003,-1.735240,0.996531,-0.079243,-0.019149,-0.016703
604,-0.596928,-0.800043,12.265640,-18.089159,-3.683141,0.513659,-9.104217,-2.047135,-1.811560,0.996540,-0.079625,-0.016551,-0.017173
605,-0.075819,-0.744204,13.317793,-23.775602,-10.208570,5.174087,-9.339373,-1.949597,-1.699575,0.996406,-0.081642,-0.015747,-0.016165
606,0.345319,-0.873018,14.248179,-26.826603,-10.389175,4.589677,-9.702100,-2.139942,-1.500234,0.996138,-0.084787,-0.017498,-0.014621
607,0.028343,-1.088328,14.620344,-23.223194,-12.137017,9.439078,-10.078456,-2.362484,-1.222490,0.995847,-0.088033,-0.019597,-0.012435
608,1.053965,-1.601157,14.318648,-23.919025,-10.893304,7.607860,-10.498866,-2.681652,-0.889411,0.995487,-0.091645,-0.022591,-0.009868
609,1.074127,-2.134295,14.179149,-23.880535,-8.326282,8.646730,-11.077855,-3.088408,-0.571900,0.994944,-0.096620,-0.026340,-0.007567
610,1.140412,-2.569581,13.772502,-20.508953,-4.573536,6.107355,-11.731823,-3.382534,-0.291127,0.994320,-0.102230,-0.029100,-0.005542
611,1.072333,-2.717513,12.691791,-14.428087,-3.014990,8.547116,-12.323816,-3.576239,-0.024162,0.993738,-0.107293,-0.031001,-0.003559
612,1.570383,-3.209001,11.916659,-15.175289,0.291569,6.466990,-12.962020,-3.774912,0.240217,0.993076,-0.112744,-0.032962,-0.001636
613,0.990702,-3.255310,11.329525,-12.078058,1.576363,6.199735,-13.671206,-3.891866,0.457298,0.992327,-0.118817,-0.034189,-0.000081
614,1.098308,-3.252134,10.680637,-10.462674,3.817017,3.053199,-14.318769,-3.882426,0.604652,0.991642,-0.124379,-0.034267,0.001011
615,0.763475,-3.153377,10.233172,-9.019633,4.649514,3.982468,-14.901252,-3.796487,0.701028,0.991021,-0.129397,-0.033637,0.001767
616,0.361075,-3.252976,10.204052,-10.342939,4.335677,5.815367,-15.464385,-3.539904,0.835203,0.990439,-0.134252,-0.031585,0.003063
617,0.183041,-3.110719,9.959967,-7.536787,2.914902,7.257848,-15.967060,-3.181470,1.023655,0.989921,-0.138584,-0.028730,0.004988
618,0.071029,-2.988518,9.763762,-5.909599,1.578354,8.720220,-16.325712,-2.814165,1.264754,0.989548,-0.141668,-0.025872,0.007435
619,0.032418,-3.088771,9.694729,-4.009095,0.386801,9.906406,-16.604322,-2.469391,1.557492,0.989242,-0.144057,-0.023282,0.010335
620,0.119245,-2.886550,9.497125,-0.947212,-0.401657,8.927378,-16.780302,-2.121532,1.861384,0.989041,-0.145571,-0.020682,0.013365
621,0.154093,-2.900842,9.471400,-1.867710,-1.260361,7.566842,-16.882326,-1.817631,2.133997,0.988915,-0.146458,-0.018420,0.016090
622,0.393365,-2.856133,9.502991,-3.178544,-1.310221,5.491735,-16.981157,-1.730405,2.354866,0.988764,-0.147292,-0.017965,0.018092
623,0.370872,-2.810859,9.599481,-3.605260,-1.235985,3.408667,-17.031244,-1.798069,2.507174,0.988668,-0.147686,-0.018753,0.019311
625,0.442043,-2.693327,9.569047,-5.717791,-0.517756,0.793056,-17.079432,-1.869441,2.579404,0.988586,-0.148074,-0.019470,0.019833
626,0.479884,-2.681839,9.594409,-8.565770,0.188235,-2.025517,-17.201393,-1.948955,2.557793,0.988422,-0.149113,-0.020149,0.019522
627,0.470175,-2.666131,9.587087,-8.697487,1.277232,-3.679816,-17.355701,-2.022447,2.455525,0.988228,-0.150447,-0.020675,0.018516
628,0.458087,-2.641751,9.561144,-8.867202,2.070286,-5.367664,-17.494047,-2.071848,2.289849,0.988066,-0.151660,-0.020904,0.016997
629,0.513833,-2.587411,9.523227,-9.172515,2.912124,-6.671005,-17.611778,-2.117054,2.067232,0.987934,-0.152707,-0.021014,0.014996
630,0.483538,-2.592740,9.543296,-8.191305,3.378568,-6.588820,-17.696217,-2.150591,1.817640,0.987847,-0.153475,-0.020980,0.012784
631,0.485051,-2.549569,9.622634,-8.780087,3.588744,-6.555445,-17.750557,-2.161895,1.565344,0.987798,-0.153988,-0.020744,0.010584
632,0.487008,-2.655599,9.700882,-8.187792,3.745536,-7.182792,-17.803175,-2.167643,1.301559,0.987748,-0.154488,-0.020443,0.008293
633,0.436505,-2.600078,9.656094,-6.733390,4.106901,-7.115808,-17.826363,-2.155397,1.026342,0.987736,-0.154738,-0.019968,0.005933
634,0.445483,-2.661504,9.752923,-6.591243,4.083809,-6.809233,-17.818151,-2.125765,0.755123,0.987763,-0.154716,-0.019346,0.003636
635,0.482531,-2.732411,9.747012,-4.624281,3.898880,-5.912144,-17.799551,-2.104558,0.505050,0.987797,-0.154599,-0.018825,0.001512
636,0.443294,-2.843818,9.682572,-1.990865,3.875682,-4.519120,-17.752815,-2.076565,0.294254,0.987865,-0.154232,-0.018300,-0.000259
637,0.358095,-2.810315,9.629494,-1.762532,3.553602,-3.234364,-17.688221,-2.013761,0.128918,0.987960,-0.153703,-0.017536,-0.001590
638,0.334922,-2.806925,9.594603,-2.530644,2.850201,-2.430220,-17.636232,-1.935454,0.002243,0.988039,-0.153276,-0.016693,-0.002570
639,0.215451,-2.714321,9.498347,-3.251385,2.122592,-1.716043,-17.601715,-1.844904,-0.093145,0.988096,-0.152994,-0.015785,-0.003266
640,0.169324,-2.582344,9.423575,-5.296331,1.468471,-1.908195,-17.576593,-1.742108,-0.174250,0.988141,-0.152789,-0.014791,-0.003825
641,0.112388,-2.538864,9.473413,-7.388285,0.750390,-2.043856,-17.583683,-1.646152,-0.254552,0.988141,-0.152860,-0.013857,-0.004391
642,0.149183,-2.424949,9.384885,-7.473375,-0.088265,-1.576790,-17.593447,-1.576971,-0.322420,0.988134,-0.152952,-0.013169,-0.004885
643,0.184126,-2.410613,9.460076,-7.748963,-0.377774,-0.809180,-17.579857,-1.544059,-0.365473,0.988154,-0.152840,-0.012828,-0.005211
644,0.270530,-2.384335,9.537861,-7.729900,-0.760617,0.023962,-17.552723,-1.546979,-0.379972,0.988189,-0.152608,-0.012836,-0.005336
645,0.305004,-2.471322,9.671603,-7.358376,-1.371045,1.514710,-17.523525,-1.583148,-0.352397,0.988225,-0.152353,-0.013185,-0.005143
646,0.333892,-2.482161,9.622867,-6.262197,-1.972417,3.121399,-17.491619,-1.635912,-0.269055,0.988264,-0.152068,-0.013753,-0.004491
647,0.308162,-2.551614,9.698237,-6.795862,-2.614965,4.560248,-17.471478,-1.689936,-0.130717,0.988289,-0.151877,-0.014403,-0.003367
648,0.235304,-2.685247,9.626010,-6.415889,-3.576215,6.583604,-17.504755,-1.723602,0.071943,0.988245,-0.152138,-0.014961,-0.001668
649,0.211118,-2.835528,9.553259,-5.610775,-4.412143,8.549054,-17.594578,-1.739065,0.349122,0.988124,-0.152875,-0.015463,0.000690
650,0.276944,-2.888558,9.511678,-5.640736,-5.123013,9.048080,-17.722343,-1.774319,0.674779,0.987943,-0.153930,-0.016205,0.003433
651,0.376409,-3.044491,9.525656,-5.161362,-5.632745,9.263206,-17.884212,-1.861601,1.019437,0.987699,-0.155267,-0.017429,0.006262
652,0.484825,-3.141058,9.465669,-3.328884,-5.692671,9.057078,-18.057320,-2.001195,1.369069,0.987422,-0.156687,-0.019120,0.009057
653,0.632763,-3.147618,9.488372,-2.265571,-5.322680,7.402721,-18.194254,-2.196252,1.688398,0.987178,-0.157784,-0.021251,0.011516
654,0.679290,-3.256784,9.460549,-0.345060,-4.265278,5.650463,-18.327339,-2.488005,1.948628,0.986921,-0.158830,-0.024137,0.013326
655,0.668368,-3.348361,9.408507,1.721197,-2.800798,4.264344,-18.485310,-2.799930,2.150597,0.986622,-0.160087,-0.027123,0.014594
656,0.640090,-3.297873,9.382451,2.958823,-1.375486,2.423672,-18.592285,-3.015799,2.287236,0.986413,-0.160931,-0.029187,0.015440
657,0.642263,-3.286511,9.387043,4.218418,-0.018198,0.909734,-18.578550,-3.121998,2.352608,0.986402,-0.160773,-0.030191,0.015856
658,0.593181,-3.383533,9.326248,6.854079,0.983910,-0.398061,-18.536921,-3.157396,2.363234,0.986452,-0.160404,-0.030505,0.015908
659,0.577556,-3.260535,9.316400,7.188377,1.516123,-2.557278,-18.475681,-3.174543,2.312802,0.986540,-0.159887,-0.030573,0.015466
660,0.542034,-3.214956,9.290463,7.358374,1.987509,-3.906185,-18.340242,-3.167586,2.198202,0.986745,-0.158753,-0.030336,0.014525
661,0.467066,-3.200003,9.270150,8.425648,2.286865,-4.519464,-18.178392,-3.105691,2.048410,0.987000,-0.157410,-0.029577,0.013364
662,0.374098,-3.134927,9.243487,8.453801,2.557795,-5.088311,-17.992752,-2.966064,1.876897,0.987301,-0.155880,-0.028119,0.012125
663,0.345701,-3.040107,9.317824,7.264685,2.636786,-4.807134,-17.774403,-2.779619,1.696488,0.987651,-0.154073,-0.026247,0.010875
664,0.324418,-3.062611,9.370752,7.694728,2.224424,-3.517337,-17.551235,-2.591110,1.541789,0.987998,-0.152212,-0.024395,0.009844
665,0.296882,-2.970274,9.386306,8.147707,1.474783,-2.319119,-17.310129,-2.414875,1.432344,0.988355,-0.150180,-0.022711,0.009183
666,0.362243,-2.912060,9.410975,7.361928,0.915515,-1.571184,-17.039660,-2.298190,1.358764,0.988731,-0.147876,-0.021588,0.008753
667,0.378845,-2.947889,9.519570,6.887331,0.229122,-0.823395,-16.804602,-2.255701,1.315397,0.989043,-0.145861,-0.021148,0.008477
668,0.437994,-2.881600,9.500485,6.839870,-0.340145,-0.464824,-16.594593,-2.276078,1.296165,0.989307,-0.144050,-0.021284,0.008324
669,0.454175,-2.818993,9.454721,5.796087,-0.627422,-0.028528,-16.390205,-2.346372,1.292966,0.989551,-0.142277,-0.021872,0.008247
670,0.461635,-2.765285,9.509681,4.494585,-0.843012,0.758715,-16.205399,-2.423308,1.310778,0.989765,-0.140668,-0.022545,0.008341
671,0.444976,-2.796354,9.455345,5.108035,-1.151507,1.636047,-16.043917,-2.477707,1.358135,0.989949,-0.139256,-0.023061,0.008716
672,0.488023,-2.700936,9.401196,4.283950,-1.046391,1.941185,-15.900943,-2.518971,1.425989,0.990110,-0.138002,-0.023488,0.009281
673,0.445898,-2.756850,9.358506,3.734451,-0.834442,2.130363,-15.791335,-2.550451,1.500760,0.990230,-0.137035,-0.023841,0.009912
674,0.467940,-2.836353,9.379818,3.787344,-0.405754,1.407071,-15.733178,-2.566065,1.566015,0.990290,-0.136517,-0.024048,0.010469
675,0.486641,-2.926162,9.316501,4.040698,0.184518,-0.050193,-15.788696,-2.595128,1.597082,0.990216,-0.136986,-0.024342,0.010691
676,0.446036,-2.927001,9.391803,2.190657,0.597831,-1.862953,-15.951949,-2.615418,1.574970,0.990018,-0.138398,-0.024505,0.010441
677,0.293019,-2.965358,9.468648,2.434362,0.601449,-2.207556,-16.118277,-2.538133,1.515289,0.989836,-0.139859,-0.023780,0.009984
678,0.187665,-2.791488,9.625394,2.549340,0.432063,-1.584495,-16.156809,-2.340111,1.455170,0.989827,-0.140231,-0.022000,0.009700
679,0.165816,-2.586483,9.660430,2.879682,0.177544,0.189130,-15.972546,-2.098849,1.426627,0.990090,-0.138676,-0.019865,0.009782
680,0.160607,-2.455128,9.719918,3.665383,-0.431544,2.923902,-15.693048,-1.923745,1.471900,0.990445,-0.136276,-0.018382,0.010431
681,0.314912,-2.357895,9.671398,4.363129,-1.374098,6.039907,-15.323497,-1.854317,1.616172,0.990875,-0.133068,-0.017915,0.011818
682,0.621865,-2.341430,9.402063,3.219376,-1.311088,7.151935,-14.927277,-1.982353,1.830708,0.991288,-0.129587,-0.019225,0.013591
683,0.879182,-2.563374,9.245053,-0.778036,-0.095132,5.388597,-14.830460,-2.373707,2.035812,0.991315,-0.128646,-0.022829,0.014940
684,0.952672,-2.810851,9.135138,-2.533208,2.447384,0.919636,-15.125944,-2.855974,2.138174,0.990882,-0.131091,-0.027154,0.015211
685,0.968626,-2.876094,9.114612,-4.725207,6.507815,-5.387736,-15.529110,-3.130143,2.042711,0.990370,-0.134548,-0.029465,0.013966
686,0.893409,-3.077460,9.167581,-6.672555,11.517296,-14.095022,-15.922618,-3.140493,1.661813,0.989941,-0.138044,-0.029143,0.010561
687,0.450420,-3.261988,9.339884,-6.691450,15.459733,-21.530888,-16.372995,-2.941104,0.980955,0.989479,-0.142126,-0.026619,0.004816
688,0.074400,-3.367392,9.273417,-4.678000,17.140711,-25.221701,-16.807816,-2.516235,0.092986,0.989026,-0.146098,-0.021839,-0.002406
689,-0.109095,-3.426778,9.271070,-5.898039,16.403934,-24.777012,-17.240681,-1.990137,-0.855557,0.988507,-0.149988,-0.016051,-0.009984
690,-0.253295,-3.580891,9.143851,-7.060279,14.269715,-22.214243,-17.746937,-1.462913,-1.746350,0.987806,-0.154415,-0.010261,-0.017025
691,-0.459304,-3.602342,9.084733,-8.616341,10.789947,-15.987628,-18.326797,-0.946222,-2.474043,0.986946,-0.159384,-0.004712,-0.022627
692,-0.299583,-3.575349,9.096847,-9.555593,6.746873,-8.772301,-18.915440,-0.516088,-2.955382,0.986050,-0.164378,-0.000204,-0.026177
693,-0.115043,-3.447496,9.135083,-9.165060,3.706927,-2.944360,-19.429476,-0.253875,-3.196299,0.985264,-0.168738,0.002523,-0.027863
694,0.005352,-3.390152,9.151233,-10.311915,0.927135,0.969798,-19.864691,-0.133495,-3.253203,0.984609,-0.172448,0.003749,-0.028161
695,0.206499,-3.265309,9.196527,-12.709339,-1.465785,4.142101,-20.272821,-0.148509,-3.170014,0.984008,-0.175960,0.003593,-0.027456
696,0.414516,-3.447292,9.351473,-16.040314,-2.534969,6.079647,-20.737961,-0.289362,-2.986376,0.983320,-0.179990,0.002207,-0.026087
697,0.494208,-3.476845,9.604838,-21.627964,-2.095448,4.904131,-21.330706,-0.492039,-2.786290,0.982406,-0.185119,0.000281,-0.024687
698,0.257944,-3.571707,9.870337,-28.660196,-1.437303,4.127027,-22.075687,-0.632440,-2.623344,0.981205,-0.191528,-0.001033,-0.023524
699,0.243834,-3.770684,9.948509,-33.243153,-0.960180,3.485933,-22.994089,-0.687111,-2.490644,0.979660,-0.199394,-0.001543,-0.022492
700,0.246566,-4.232985,9.783826,-36.544956,-0.562318,1.407451,-24.120028,-0.732608,-2.405087,0.977666,-0.209017,-0.001866,-0.021859
701,0.200276,-4.346755,9.361976,-38.126205,-0.056024,-3.596188,-25.413486,-0.799371,-2.432284,0.975233,-0.220051,-0.002135,-0.022238
702,0.117868,-4.536630,8.686350,-38.072254,-0.481845,-8.856076,-26.803400,-0.909475,-2.612616,0.972444,-0.231885,-0.002435,-0.024015
703,0.342667,-4.759542,8.225449,-38.032860,-1.602197,-14.857676,-28.291008,-1.166160,-2.943239,0.969244,-0.244545,-0.003589,-0.027388
704,0.434199,-4.945577,7.861577,-37.472164,-2.275939,-20.909868,-29.834036,-1.622776,-3.425472,0.965662,-0.257688,-0.005984,-0.032522
705,0.359791,-4.961053,7.797964,-36.294796,-2.123991,-24.303823,-31.314129,-2.156726,-4.028394,0.961950,-0.270301,-0.008627,-0.038913
706,0.306468,-5.089564,7.874538,-35.496605,-2.255338,-24.653273,-32.657696,-2.663558,-4.675966,0.958339,-0.281750,-0.010820,-0.045667
707,0.410924,-5.278489,8.035696,-33.559414,-2.589390,-21.068762,-33.870377,-3.127838,-5.266227,0.954904,-0.292073,-0.012704,-0.051873
708,0.469645,-5.517790,8.038765,-30.808580,-2.490052,-15.650077,-34.968010,-3.519161,-5.721733,0.951702,-0.301385,-0.014262,-0.056796
709,0.330551,-5.646286,8.051363,-27.601309,-2.529197,-10.200612,-35.949993,-3.755617,-6.023954,0.948836,-0.309648,-0.014919,-0.060052
710,0.280326,-5.790977,8.017530,-24.740185,-4.246377,-4.552442,-36.812004,-3.837383,-6.157249,0.946375,-0.316822,-0.014774,-0.061487
711,0.330241,-5.758092,8.023783,-21.861872,-6.141998,2.162408,-37.540913,-3.830913,-6.089928,0.944379,-0.322825,-0.014519,-0.061007
712,0.341123,-5.872252,7.978335,-18.031023,-7.415111,7.639673,-38.125969,-3.752173,-5.829959,0.942888,-0.327583,-0.014302,-0.058718
713,0.370890,-5.881584,8.027699,-14.146519,-8.465517,11.557382,-38.560219,-3.616923,-5.423685,0.941896,-0.331062,-0.014141,-0.055046
714,0.597598,-5.949115,8.290087,-11.814840,-8.268118,13.965596,-38.824532,-3.490860,-4.929752,0.941406,-0.333137,-0.014413,-0.050657
715,0.702338,-5.868731,8.501473,-8.341002,-6.610909,14.949673,-38.896778,-3.387977,-4.416254,0.941451,-0.333639,-0.015031,-0.046151
716,0.811016,-5.768737,8.557920,-4.382782,-4.828910,13.522472,-38.758217,-3.302785,-3.948934,0.942063,-0.332419,-0.015742,-0.042045
717,0.860468,-5.450013,8.633869,-2.906486,-3.120425,11.094001,-38.429054,-3.261065,-3.572948,0.943160,-0.329651,-0.016600,-0.038786
718,0.882150,-5.228879,8.608803,-2.074918,-1.650133,9.304727,-37.963768,-3.251020,-3.289383,0.944587,-0.325774,-0.017481,-0.036353
719,0.791241,-4.985087,8.383777,0.617859,-0.700435,8.691565,-37.106518,-3.290359,-3.080153,0.947050,-0.318671,-0.018660,-0.034601
720,0.730121,-4.937371,8.215178,2.456267,-0.391683,8.003484,-35.962269,-3.346651,-2.912225,0.950217,-0.309178,-0.019924,-0.033171
721,0.554332,-4.977386,8.131226,3.830553,-0.422585,9.005327,-35.177532,-3.281882,-2.715885,0.952386,-0.302621,-0.020131,-0.031232
722,0.568768,-5.343327,8.068957,5.212586,-0.819280,10.396818,-34.716663,-3.119567,-2.457840,0.953710,-0.298725,-0.019578,-0.028582
723,0.588993,-5.485217,8.060497,6.161611,-0.972057,9.935762,-34.364162,-2.986893,-2.171657,0.954729,-0.295728,-0.019299,-0.025796
724,0.573904,-5.515491,8.286116,5.649694,-0.656523,9.140474,-34.081944,-2.884622,-1.898737,0.955539,-0.293321,-0.019208,-0.023212
725,0.508243,-5.515014,8.351802,7.428301,-0.000534,8.337673,-33.762970,-2.759125,-1.656611,0.956429,-0.290612,-0.018839,-0.020820
726,0.524002,-5.529251,8.302473,9.816869,0.853848,6.979478,-33.423172,-2.628602,-1.454810,0.957352,-0.287734,-0.018317,-0.018751
728,0.464820,-5.355798,8.253397,14.204119,0.371503,5.415291,-33.003284,-2.522225,-1.294435,0.958448,-0.284194,-0.017893,-0.017079
729,0.427881,-5.182707,8.191469,19.555914,-0.029830,4.518018,-32.399666,-2.431474,-1.160168,0.959969,-0.279117,-0.017550,-0.015639
730,0.407761,-5.129016,7.982510,26.335718,-0.531866,3.825236,-31.625008,-2.367218,-1.037820,0.961863,-0.272601,-0.017407,-0.014340
731,0.488081,-5.000873,7.878952,31.685246,-1.084445,2.314469,-30.708103,-2.364730,-0.934499,0.964026,-0.264880,-0.017739,-0.013326
732,0.528776,-4.925397,7.926872,36.797981,-1.812755,0.692173,-29.649803,-2.444147,-0.864360,0.966424,-0.255956,-0.018688,-0.012747
733,0.550301,-4.873001,8.005949,39.914505,-0.996922,-1.520685,-28.489410,-2.566764,-0.850023,0.968943,-0.246156,-0.019883,-0.012699
734,0.574869,-4.808264,8.009497,43.219803,0.359050,-5.787422,-27.272593,-2.711500,-0.946784,0.971461,-0.235874,-0.021045,-0.013605
735,0.549081,-4.728697,8.075602,46.060753,1.666255,-10.286025,-26.004002,-2.868946,-1.192478,0.973946,-0.225156,-0.022050,-0.015768
736,0.389635,-4.497459,8.330406,47.938885,2.398619,-13.064683,-24.644606,-2.980649,-1.563379,0.976466,-0.213665,-0.022496,-0.018874
737,0.333506,-3.791326,8.543681,50.083790,2.975844,-16.036955,-23.054638,-3.034902,-2.039327,0.979237,-0.200195,-0.022388,-0.022722
738,0.198636,-3.151878,8.874137,49.018570,3.085057,-16.585989,-21.199104,-3.031118,-2.588060,0.982233,-0.184420,-0.021838,-0.027054
739,-0.002544,-2.779403,9.457429,46.111397,2.193946,-14.189819,-19.241091,-2.923040,-3.112983,0.985136,-0.167689,-0.020600,-0.031033
740,-0.050266,-2.178237,9.800762,43.986561,0.184791,-10.623202,-17.240349,-2.754689,-3.534899,0.987837,-0.150502,-0.019133,-0.034087
741,0.155989,-1.827871,9.929733,39.793236,-2.001724,-7.503890,-15.269157,-2.657080,-3.836127,0.990211,-0.133514,-0.018521,-0.036243
742,0.253714,-1.854516,10.031344,33.752899,-4.178185,-5.739805,-13.552223,-2.682660,-4.042052,0.992028,-0.118704,-0.019071,-0.037771
743,0.317847,-1.709056,9.833821,31.949028,-5.859053,-4.244350,-12.098014,-2.795638,-4.180671,0.993381,-0.106162,-0.020400,-0.038830
744,0.310687,-1.633116,9.456463,28.798460,-7.326389,-1.352683,-10.833672,-2.954425,-4.238324,0.994433,-0.095254,-0.022157,-0.039232
745,0.519987,-1.859862,9.411503,21.171009,-8.632317,0.292290,-9.921104,-3.185876,-4.210420,0.995109,-0.087395,-0.024500,-0.038985
746,0.484510,-1.981437,9.516341,15.968403,-8.742130,1.355909,-9.397619,-3.458984,-4.129198,0.995449,-0.082911,-0.027110,-0.038360
747,0.594199,-2.147311,9.478109,12.719503,-8.302588,4.728321,-9.145594,-3.711104,-3.970058,0.995607,-0.080754,-0.029497,-0.037090
748,0.730542,-2.514275,9.587962,6.484670,-7.729056,6.461926,-9.211683,-3.968635,-3.719283,0.995558,-0.081330,-0.031892,-0.035106
749,0.995408,-2.389127,9.551385,2.843358,-6.407501,5.401523,-9.705214,-4.341370,-3.441225,0.995156,-0.085627,-0.035186,-0.033099
750,0.983031,-2.088258,9.250890,0.121495,-4.167681,4.131963,-10.197568,-4.704229,-3.214041,0.994710,-0.089910,-0.038372,-0.031556
751,0.834254,-1.887292,9.254470,-6.349865,-2.737016,2.903595,-10.493469,-4.876676,-3.062863,0.994449,-0.092462,-0.039909,-0.030478
752,0.758863,-1.885996,9.499887,-10.276753,-1.179040,0.875700,-10.862923,-4.926889,-2.981272,0.994148,-0.095649,-0.040314,-0.029940
753,0.781904,-1.725701,9.661164,-8.064161,-0.312062,-1.683230,-11.167852,-4.921783,-2.989897,0.993889,-0.098296,-0.040183,-0.030118
754,0.782510,-1.887203,10.053546,-4.503757,0.220793,-5.215724,-11.314612,-4.907377,-3.107466,0.993737,-0.099607,-0.039917,-0.031176
755,0.755465,-2.104560,10.405429,4.101073,0.820937,-9.865141,-11.282548,-4.881868,-3.359786,0.993704,-0.099411,-0.039486,-0.033332
756,0.817490,-2.063023,10.180878,18.899403,1.385926,-14.406207,-10.876931,-4.872601,-3.764047,0.993930,-0.096030,-0.039185,-0.036691
757,0.692634,-1.745143,9.857334,30.400522,1.641183,-17.700615,-9.981963,-4.865528,-4.303128,0.994470,-0.088447,-0.038993,-0.041057
758,0.586131,-1.493835,9.702260,36.774998,1.873908,-18.977734,-8.724603,-4.808249,-4.923619,0.995169,-0.077722,-0.038523,-0.045979
759,0.577310,-1.250257,9.590308,41.944141,1.580350,-17.979692,-7.256224,-4.718244,-5.549734,0.995855,-0.065141,-0.037971,-0.050875
760,0.480731,-0.978741,9.604432,46.570129,1.334236,-14.598167,-5.623068,-4.594675,-6.102350,0.996474,-0.051073,-0.037372,-0.055085
761,0.746311,-0.906974,9.639088,47.567120,1.736238,-11.520338,-3.949712,-4.493780,-6.544040,0.996933,-0.036615,-0.037153,-0.058348
762,1.052835,-1.020081,9.923153,43.243618,1.772409,-10.534575,-2.476715,-4.511863,-6.910028,0.997125,-0.023927,-0.037981,-0.061053
763,1.341790,-1.105637,10.150200,39.382687,1.935699,-13.949528,-1.301246,-4.652138,-7.305858,0.997052,-0.013909,-0.039778,-0.064116
764,1.544525,-0.929917,10.227456,36.190994,2.568181,-21.417278,-0.307934,-4.873386,-7.877732,0.996724,-0.005599,-0.042230,-0.068744
765,1.653786,-0.741086,10.101869,28.239897,2.898059,-30.554344,0.520728,-5.128116,-8.725479,0.996109,0.001123,-0.044952,-0.075791
766,1.720619,-0.657252,10.226401,18.036438,1.152513,-43.574829,1.072583,-5.412141,-9.940165,0.995124,0.005224,-0.047843,-0.086095
767,1.752727,-0.442003,9.959930,13.662110,-0.696846,-58.784977,1.445462,-5.742678,-11.626610,0.993593,0.007460,-0.051108,-0.100523
768,1.557777,0.004633,9.734952,9.104053,-1.932427,-72.095406,1.842684,-6.054287,-13.801641,0.991344,0.009597,-0.054349,-0.119125
769,1.249686,0.083926,9.767136,0.576273,-4.190796,-81.995476,2.165825,-6.257621,-16.375326,0.988302,0.010907,-0.056702,-0.141157
770,1.150704,0.146710,9.880755,-1.687552,-6.426815,-91.050209,2.355725,-6.389935,-19.268532,0.984347,0.010909,-0.058371,-0.165933
771,0.995409,0.467955,9.809225,1.569990,-6.800593,-97.134033,2.668420,-6.464063,-22.424927,0.979342,0.011844,-0.059809,-0.192798
772,0.855517,0.592967,9.811337,4.159870,-6.157485,-101.425011,3.186140,-6.421892,-25.764139,0.973272,0.014576,-0.060770,-0.220991
773,0.864436,0.655708,9.872808,7.209132,-5.736886,-105.831985,3.818307,-6.286380,-29.247545,0.966074,0.018351,-0.061424,-0.250184
774,0.841543,0.939612,9.740624,13.309017,-4.756317,-109.868202,4.645487,-6.078424,-32.872028,0.957608,0.023828,-0.062262,-0.280253
775,0.688202,1.112807,9.661762,13.539100,-4.193658,-110.907570,5.623906,-5.754053,-36.579792,0.947915,0.030788,-0.062976,-0.310714
776,0.539131,1.082970,9.781919,8.206858,-4.654479,-107.341721,6.446477,-5.324728,-40.234066,0.937393,0.036788,-0.062865,-0.340572
777,0.257348,1.192866,10.129260,2.913742,-5.970730,-99.703194,6.977445,-4.829138,-43.693096,0.926595,0.040783,-0.061656,-0.368723
778,0.012254,1.128953,10.147376,0.348542,-6.765931,-89.592743,7.267655,-4.290803,-46.853691,0.916025,0.043261,-0.059461,-0.394323
779,0.158004,1.153330,9.953424,-2.795292,-7.788656,-81.217239,7.375167,-3.830821,-49.707767,0.905902,0.044307,-0.057283,-0.417250
780,0.474747,1.171402,9.924184,-6.505249,-8.354810,-77.990074,7.339167,-3.571412,-52.373768,0.895965,0.043682,-0.056136,-0.438392
781,0.452038,1.124641,9.855556,-8.097280,-7.707128,-78.875160,7.196192,-3.420696,-55.000778,0.885730,0.041887,-0.055388,-0.458978
782,0.390903,1.138961,9.721620,-11.326584,-7.682017,-82.529816,6.974058,-3.256556,-57.701801,0.874738,0.039566,-0.054179,-0.479930
783,0.372828,1.148557,9.897806,-16.405151,-9.498650,-86.312660,6.633049,-3.114321,-60.530861,0.862727,0.036275,-0.052578,-0.501619
784,0.053432,0.949144,9.965500,-25.001204,-10.486147,-89.489746,6.035502,-2.959618,-63.479462,0.849699,0.031191,-0.049617,-0.524001
785,-0.232288,0.839434,10.020341,-27.383989,-10.676062,-87.399460,5.208031,-2.728812,-66.447136,0.836031,0.024963,-0.044784,-0.546281
786,-0.242577,0.843847,9.929165,-24.114460,-12.914857,-81.540154,4.413550,-2.535343,-69.287979,0.822373,0.019104,-0.040072,-0.567214
787,-0.033674,0.924745,9.790693,-19.538000,-13.938005,-73.718468,3.828530,-2.509661,-71.906898,0.809278,0.014183,-0.037325,-0.586067
788,0.249707,1.057084,9.546809,-17.667585,-13.004423,-65.872292,3.460340,-2.652634,-74.266586,0.797078,0.010098,-0.036666,-0.602677
789,0.526901,1.021706,9.741351,-13.684776,-11.305877,-55.103928,3.246693,-2.913914,-76.314545,0.786193,0.006566,-0.037481,-0.616808
790,0.630642,0.977535,9.799370,-9.676044,-10.647075,-44.501858,3.155344,-3.235373,-78.004433,0.777006,0.003627,-0.039250,-0.628257
791,0.824729,1.119173,9.869440,-6.182814,-8.433718,-35.325005,3.211250,-3.573188,-79.365646,0.769473,0.001653,-0.041867,-0.637304
792,1.111174,1.113597,9.870433,1.845719,-5.569479,-25.426374,3.477994,-3.926924,-80.408844,0.763617,0.001057,-0.045733,-0.644046
793,0.884175,0.739686,10.064328,14.223805,-2.827165,-14.894445,3.958430,-4.184434,-81.101982,0.759688,0.002504,-0.050162,-0.648345
794,0.665110,0.768362,9.766260,23.443865,-0.744538,-7.159545,4.666199,-4.247959,-81.478569,0.757524,0.006656,-0.054607,-0.650486
795,0.842238,0.697031,9.969314,23.114225,1.791461,-2.473416,5.448534,-4.227000,-81.637161,0.756559,0.011866,-0.058925,-0.651157
796,0.711893,0.566105,10.044254,24.292807,4.156521,0.764678,6.119627,-4.141729,-81.647087,0.756415,0.016777,-0.062178,-0.650914
797,0.471373,0.460019,10.026642,19.305714,3.970910,1.138610,6.604695,-3.943048,-81.582924,0.756683,0.021148,-0.063614,-0.650337
798,0.661139,0.739054,9.830966,10.109324,3.693759,-1.659807,6.756820,-3.746407,-81.552574,0.756804,0.023290,-0.063177,-0.650165
799,0.846261,0.876187,10.082963,5.146418,3.283028,-4.233868,6.750019,-3.653940,-81.618660,0.756418,0.023736,-0.062544,-0.650658
800,0.682304,1.091275,9.813177,6.436489,2.443234,-6.019080,6.844981,-3.606998,-81.770393,0.755530,0.024548,-0.062807,-0.651634
801,0.715388,1.170845,9.733217,1.858449,1.325873,-7.309951,6.963493,-3.566454,-81.981789,0.754295,0.025444,-0.063261,-0.652985
802,0.718053,1.247756,9.841659,-0.830140,1.684088,-7.209199,7.006691,-3.534789,-82.217110,0.752939,0.025780,-0.063353,-0.654527
803,0.688351,1.281859,9.890808,-1.031350,1.845508,-4.670033,7.013932,-3.493395,-82.408463,0.751837,0.025959,-0.063166,-0.655803
804,0.755652,1.253979,9.829794,-0.298610,1.771551,-1.265624,7.034354,-3.510967,-82.501732,0.751301,0.025941,-0.063419,-0.656393
805,0.807345,1.248589,9.816284,-0.159440,1.587101,1.826046,7.064909,-3.624930,-82.488014,0.751389,0.025493,-0.064336,-0.656220
806,0.867324,1.255776,9.814584,-0.148465,1.539641,4.066295,7.089761,-3.796789,-82.386292,0.751991,0.024726,-0.065579,-0.655437
807,0.931453,1.289935,9.780481,0.169358,1.270628,5.120925,7.133427,-4.017710,-82.231865,0.752893,0.023833,-0.067241,-0.654265
808,1.012207,1.291200,9.807731,0.383511,0.555754,5.340906,7.195506,-4.294362,-82.059334,0.753898,0.022758,-0.069372,-0.652922
809,1.064229,1.332760,9.783273,0.776287,-0.238643,4.916960,7.278759,-4.617457,-81.894562,0.754854,0.021558,-0.071932,-0.651580
810,1.092838,1.318933,9.808647,1.030214,-0.880354,4.213758,7.374734,-4.950448,-81.752014,0.755676,0.020379,-0.074636,-0.650360
811,1.129676,1.281646,9.852060,2.051332,-1.419611,3.580750,7.449697,-5.273539,-81.630859,0.756374,0.019109,-0.077161,-0.649291
812,1.159103,1.359964,9.786257,3.750017,-1.680976,3.104887,7.578047,-5.585490,-81.530899,0.756938,0.018246,-0.079920,-0.648324
813,1.110991,1.417154,9.774405,3.515771,-1.592443,2.873070,7.784355,-5.840419,-81.448677,0.757384,0.018215,-0.082748,-0.647450
814,1.057595,1.420502,9.800301,3.054165,-1.490935,2.952441,7.979148,-5.995333,-81.368904,0.757810,0.018679,-0.084853,-0.646664
815,1.041418,1.434641,9.802745,2.897528,-1.347678,3.251492,8.135744,-6.078410,-81.279709,0.758292,0.019309,-0.086268,-0.645894
816,1.001363,1.484052,9.771296,2.124443,-1.159808,3.626783,8.278608,-6.112170,-81.179016,0.758836,0.020139,-0.087277,-0.645093
817,0.961166,1.418522,9.797350,0.850598,-1.018860,4.108862,8.353474,-6.095114,-81.059967,0.759492,0.020823,-0.087565,-0.644260
818,0.984968,1.401603,9.792519,1.039649,-0.967860,4.139303,8.350303,-6.066514,-80.925774,0.760244,0.021066,-0.087334,-0.643395
819,0.974201,1.401562,9.799554,1.394914,-0.814698,3.942406,8.342256,-6.044208,-80.792404,0.760993,0.021241,-0.087117,-0.642533
820,0.969396,1.433839,9.784810,1.814400,-0.721026,3.612735,8.364927,-6.013521,-80.668953,0.761679,0.021658,-0.087019,-0.641720
821,0.978696,1.460972,9.778168,2.104410,-0.645726,3.162499,8.429455,-5.985405,-80.561020,0.762268,0.022328,-0.087173,-0.640975
822,0.998078,1.507191,9.811189,2.013143,-0.584295,2.391819,8.525225,-5.969023,-80.475723,0.762725,0.023123,-0.087584,-0.640347
823,0.953089,1.518722,9.802152,1.886878,-0.429706,1.850004,8.632053,-5.935944,-80.412964,0.763051,0.024069,-0.087949,-0.639874
824,0.953591,1.481734,9.820683,1.668822,-0.336011,1.500458,8.704977,-5.879304,-80.361290,0.763319,0.024913,-0.087970,-0.639519
825,0.954373,1.502406,9.778354,1.781726,-0.192033,1.298955,8.756049,-5.826689,-80.316002,0.763556,0.025585,-0.087897,-0.639220
826,0.953418,1.495336,9.785221,1.015687,-0.051191,1.079155,8.795617,-5.778892,-80.276894,0.763761,0.026147,-0.087792,-0.638967
827,0.936548,1.486042,9.783731,0.540974,0.045404,0.839528,8.799485,-5.725736,-80.243217,0.763942,0.026498,-0.087454,-0.638781
828,0.957527,1.479678,9.798587,0.267589,-0.013721,0.496160,8.779814,-5.680354,-80.217941,0.764083,0.026641,-0.087038,-0.638664
829,0.938925,1.508578,9.771069,0.072128,-0.079029,0.177209,8.766459,-5.645090,-80.205261,0.764154,0.026760,-0.086727,-0.638617
831,0.938678,1.485000,9.829442,-0.494108,-0.121419,-0.047142,8.744390,-5.606531,-80.202171,0.764172,0.026832,-0.086348,-0.638643
832,0.984421,1.503692,9.814082,-0.178380,-0.296771,-0.215000,8.716310,-5.596500,-80.205879,0.764157,0.026699,-0.086125,-0.638697
833,1.020253,1.511020,9.764828,-0.018126,-0.330575,-0.463693,8.718165,-5.634655,-80.219086,0.764087,0.026486,-0.086392,-0.638754
834,1.065339,1.526027,9.723193,-0.510814,-0.157177,-0.556707,8.734576,-5.710253,-80.239525,0.763976,0.026155,-0.086989,-0.638818
835,1.113992,1.543257,9.758138,-2.460648,-0.077142,-0.655795,8.724911,-5.816575,-80.263931,0.763852,0.025474,-0.087644,-0.638904
836,1.129873,1.478396,9.742551,-3.644631,-0.206036,-0.571772,8.642298,-5.908607,-80.286591,0.763752,0.024388,-0.087798,-0.639046
837,1.100768,1.400505,9.784983,-4.841153,-0.311708,-0.748700,8.478548,-5.962630,-80.307068,0.763676,0.022977,-0.087247,-0.639265
838,1.086439,1.380671,9.766813,-5.593740,-0.466076,-0.750156,8.268709,-6.003840,-80.329689,0.763593,0.021329,-0.086353,-0.639542
839,1.001293,1.243607,9.838975,-9.363269,-0.969651,-1.731271,7.961696,-6.025226,-80.367676,0.763436,0.019135,-0.084787,-0.640008
840,0.947138,1.049711,9.938100,-13.945086,-2.396098,-5.195057,7.461147,-6.030022,-80.477348,0.762899,0.015694,-0.082038,-0.641100
841,0.964007,1.090679,9.959037,-19.804152,-4.528950,-10.813457,6.797198,-6.063703,-80.744705,0.761478,0.010901,-0.078571,-0.643319
842,1.016998,1.049999,9.769096,-27.368780,-5.818122,-14.361199,5.979668,-6.159458,-81.175659,0.759104,0.004646,-0.074630,-0.646661
843,1.069972,0.900808,9.860179,-39.010536,-6.463536,-17.347389,4.873797,-6.307052,-81.718216,0.756023,-0.003847,-0.069343,-0.650851
844,1.269107,0.862159,9.931484,-41.624668,-7.210028,-17.979073,3.569937,-6.530921,-82.322334,0.752442,-0.014061,-0.063332,-0.655456
845,1.377717,0.939276,9.657325,-35.468407,-6.281577,-14.101714,2.435191,-6.831693,-82.879822,0.748987,-0.023523,-0.058695,-0.659560
846,1.451017,0.898965,9.565842,-28.087416,-3.479566,-6.971197,1.623738,-7.120286,-83.261070,0.746511,-0.030678,-0.055804,-0.662318
847,1.458961,0.803931,9.855413,-15.343987,-0.999434,1.166361,1.160301,-7.320009,-83.389015,0.745571,-0.034913,-0.054385,-0.663285
848,1.491239,0.767009,9.694010,9.234233,1.620728,11.311864,1.437039,-7.485541,-83.230400,0.746512,-0.033993,-0.057109,-0.662044
849,1.344339,0.700772,9.423140,24.554590,5.001023,19.948221,2.327810,-7.535384,-82.754448,0.749480,-0.028218,-0.062696,-0.658447
850,1.255742,0.546596,9.758094,27.395546,8.167178,24.403767,3.249779,-7.368228,-82.020363,0.753926,-0.020794,-0.067036,-0.653199
851,1.078877,0.484895,9.806724,33.671825,8.747465,25.688553,4.178759,-7.085836,-81.164658,0.758982,-0.012538,-0.070574,-0.647154
852,1.055234,0.625297,9.693056,30.679190,7.535017,22.632118,5.112873,-6.798156,-80.327988,0.763804,-0.004177,-0.073982,-0.641181
853,0.945793,0.718529,9.812320,19.475382,5.671068,16.243067,5.811655,-6.549592,-79.649323,0.767623,0.002332,-0.076230,-0.636348
854,0.954198,0.843298,9.993055,11.768826,3.393672,9.181081,6.203149,-6.342746,-79.199280,0.770118,0.006414,-0.077000,-0.633204
855,0.945051,1.013390,9.773299,10.015025,0.704403,4.212628,6.476150,-6.182427,-78.960648,0.771426,0.009302,-0.077417,-0.631523
856,1.005418,1.046350,9.829025,3.595007,-0.504840,0.948633,6.636796,-6.087148,-78.867615,0.771928,0.010976,-0.077656,-0.630853
857,0.966399,1.032576,9.813046,3.023632,-0.330301,-0.580338,6.660769,-6.029408,-78.853859,0.772004,0.011467,-0.077399,-0.630784
858,1.003971,1.032802,9.809149,2.404787,-0.209273,-1.102171,6.647548,-5.975921,-78.871643,0.771909,0.011662,-0.076970,-0.630949
859,1.016180,1.035122,9.791048,1.982799,-0.071731,-0.905262,6.618951,-5.951713,-78.894600,0.771786,0.011589,-0.076652,-0.631139
860,1.038995,1.043746,9.830846,1.623435,0.039695,-0.731230,6.584294,-5.946208,-78.911774,0.771695,0.011374,-0.076426,-0.631281
861,1.059505,1.071581,9.810547,1.834939,0.198246,-0.258113,6.567838,-5.959521,-78.919937,0.771651,0.011184,-0.076426,-0.631338
862,1.077903,1.073924,9.795571,1.665124,0.304758,0.286723,6.570876,-5.989963,-78.912773,0.771690,0.011040,-0.076646,-0.631268
863,1.045818,1.084450,9.807618,1.094051,0.304535,0.550774,6.567592,-6.010067,-78.892693,0.771800,0.010920,-0.076760,-0.631121
864,1.021140,1.098655,9.826297,0.942688,0.219122,0.849882,6.561564,-5.999604,-78.864464,0.771956,0.010957,-0.076654,-0.630942
865,1.048383,1.137068,9.802481,1.322556,0.020785,1.084879,6.584826,-5.995238,-78.830635,0.772140,0.011160,-0.076750,-0.630701
866,1.045668,1.149769,9.795292,0.875569,-0.142571,1.159648,6.631322,-6.011693,-78.794945,0.772332,0.011406,-0.077113,-0.630419
867,1.046381,1.177874,9.818617,0.630106,-0.283015,0.822403,6.679649,-6.029681,-78.765564,0.772488,0.011652,-0.077496,-0.630176
868,1.054226,1.183373,9.834893,0.856200,-0.353259,0.596544,6.734633,-6.049113,-78.746620,0.772586,0.011928,-0.077927,-0.629997
869,1.069193,1.205223,9.822702,1.112846,-0.335059,0.486659,6.802510,-6.076161,-78.733841,0.772648,0.012245,-0.078480,-0.629846
870,1.034722,1.203272,9.837988,0.873561,-0.187048,0.614807,6.869710,-6.087071,-78.720352,0.772714,0.012647,-0.078921,-0.629701
871,1.039246,1.206262,9.820107,1.169791,-0.026692,0.930637,6.926410,-6.076453,-78.697731,0.772833,0.013103,-0.079159,-0.629517
872,1.030824,1.194384,9.808656,1.114956,0.162662,1.484521,6.972663,-6.061447,-78.658585,0.773043,0.013525,-0.079308,-0.629232
873,1.037803,1.212303,9.788737,1.093661,0.312318,2.071980,7.011756,-6.046146,-78.599342,0.773363,0.013915,-0.079412,-0.628816
874,1.022960,1.212474,9.804132,0.535256,0.373479,2.419867,7.041355,-6.028186,-78.524323,0.773772,0.014266,-0.079445,-0.628301
875,1.022074,1.199187,9.803785,0.161385,0.361440,2.622796,7.041563,-6.005133,-78.438683,0.774241,0.014454,-0.079280,-0.627739
876,1.025668,1.202494,9.817700,-0.166772,0.244080,2.587692,7.021764,-5.988652,-78.349686,0.774731,0.014473,-0.079050,-0.627163
877,1.004003,1.191607,9.817816,-0.336256,0.113035,2.375576,6.991357,-5.969762,-78.265030,0.775199,0.014429,-0.078746,-0.626624
878,1.010167,1.151940,9.871161,-0.096973,-0.048472,2.026141,6.940125,-5.947781,-78.187920,0.775627,0.014257,-0.078308,-0.626153
