seq,ax,ay,az,wroll,wpitch,wyaw,roll,pitch,yaw,q0,q1,q2,q3
6116,-0.153032,-0.664929,9.890185,-0.642757,-0.313243,-0.124030,-3.846276,0.884478,-0.059462,0.999407,-0.033554,0.007732,-0.000260
6117,-0.155090,-0.739439,9.867806,-0.447733,-0.261352,-0.096567,-3.892180,0.880150,-0.064935,0.999394,-0.033954,0.007695,-0.000305
6118,-0.152396,-0.760684,9.868025,-0.253050,-0.116378,-0.259851,-3.983521,0.874750,-0.071657,0.999367,-0.034750,0.007651,-0.000360
6119,-0.162695,-0.746090,9.852620,-0.011004,0.059151,-0.362094,-4.059972,0.878958,-0.083036,0.999343,-0.035416,0.007691,-0.000452
6120,-0.157967,-0.738801,9.867149,0.371625,0.291162,-0.365146,-4.101571,0.892609,-0.096276,0.999329,-0.035778,0.007814,-0.000561
6121,-0.161272,-0.732356,9.882619,0.562127,0.463641,-0.433812,-4.116119,0.910489,-0.110924,0.999323,-0.035903,0.007975,-0.000682
6122,-0.174093,-0.697985,9.856157,0.716197,0.262311,-0.291895,-4.100960,0.933247,-0.123946,0.999326,-0.035770,0.008178,-0.000790
6123,-0.175377,-0.682248,9.863448,1.099344,-0.016812,0.185730,-4.053277,0.952361,-0.125709,0.999340,-0.035354,0.008344,-0.000802
6124,-0.161354,-0.665914,9.864267,1.659583,-0.593569,0.620626,-3.979113,0.948623,-0.111117,0.999363,-0.034708,0.008307,-0.000682
6125,-0.153291,-0.666179,9.887912,1.575867,-0.912540,0.739648,-3.898461,0.918489,-0.086336,0.999389,-0.034007,0.008036,-0.000480
6126,-0.144044,-0.664452,9.876387,1.434072,-1.109483,0.519910,-3.833406,0.874011,-0.062888,0.999411,-0.033441,0.007641,-0.000293
6127,-0.138688,-0.679416,9.885676,1.469136,-1.307957,0.190303,-3.788858,0.821519,-0.048466,0.999428,-0.033054,0.007179,-0.000186
6128,-0.134329,-0.675830,9.870443,1.493400,-1.553708,-0.311735,-3.758324,0.764146,-0.047628,0.999440,-0.032788,0.006678,-0.000197
6129,-0.130962,-0.672880,9.883753,1.294854,-1.228719,-1.041131,-3.734140,0.712198,-0.067406,0.999450,-0.032576,0.006231,-0.000385
6130,-0.120535,-0.680309,9.891431,1.102362,-0.693134,-2.063505,-3.722845,0.674999,-0.117320,0.999455,-0.032476,0.005921,-0.000832
6131,-0.133479,-0.676567,9.913118,0.449012,-0.137645,-3.468883,-3.729877,0.661767,-0.208824,0.999452,-0.032532,0.005831,-0.001633
6132,-0.125266,-0.674534,9.915192,-1.061829,0.495697,-4.547708,-3.763526,0.669391,-0.342806,0.999440,-0.032819,0.005937,-0.002798
6133,-0.136505,-0.683833,9.931036,-2.716045,1.364007,-5.238949,-3.842521,0.696852,-0.507795,0.999410,-0.033498,0.006226,-0.004225
6134,-0.136687,-0.714092,9.931706,-3.820964,1.850847,-5.048206,-3.972245,0.747186,-0.682750,0.999362,-0.034617,0.006723,-0.005728
6135,-0.157508,-0.726469,9.915934,-4.417763,1.640352,-3.928173,-4.131969,0.805055,-0.836386,0.999301,-0.035997,0.007284,-0.007041
6136,-0.140230,-0.737363,9.891569,-4.411776,1.213148,-2.272542,-4.295222,0.851761,-0.943182,0.999238,-0.037411,0.007736,-0.007946
6137,-0.148352,-0.769144,9.895834,-3.214017,0.859136,-1.112840,-4.434892,0.882279,-1.002255,0.999186,-0.038622,0.008032,-0.008442
6138,-0.141797,-0.787497,9.882861,-1.563097,0.648518,-0.291896,-4.531200,0.900443,-1.027806,0.999150,-0.039459,0.008206,-0.008651
6139,-0.151173,-0.780034,9.860139,-0.508757,0.541646,0.219282,-4.575193,0.912811,-1.030722,0.999134,-0.039841,0.008318,-0.008669
6140,-0.149846,-0.777759,9.865821,0.542655,0.347806,0.413072,-4.568176,0.922582,-1.021294,0.999136,-0.039780,0.008399,-0.008584
6141,-0.167647,-0.785061,9.868889,1.813809,0.016682,0.899843,-4.521257,0.930557,-0.999842,0.999154,-0.039372,0.008458,-0.008398
6142,-0.160613,-0.770806,9.891397,2.735525,-0.393763,1.540735,-4.437659,0.931174,-0.958672,0.999185,-0.038646,0.008443,-0.008045
6143,-0.155600,-0.729492,9.894043,3.318546,-0.735583,2.343373,-4.321046,0.915732,-0.892441,0.999229,-0.037635,0.008279,-0.007481
6144,-0.157650,-0.717330,9.908317,3.863435,-1.182692,2.869818,-4.183233,0.888662,-0.803145,0.999281,-0.036441,0.008005,-0.006721
6145,-0.159435,-0.688821,9.878695,3.845249,-1.388683,2.839302,-4.037649,0.853871,-0.704906,0.999334,-0.035180,0.007663,-0.005885
6146,-0.157439,-0.678822,9.888709,3.025965,-1.269613,2.418152,-3.904477,0.821822,-0.614139,0.999381,-0.034027,0.007350,-0.005112
6147,-0.159053,-0.669695,9.883477,2.194429,-0.845303,2.061094,-3.804815,0.804520,-0.537085,0.999414,-0.033163,0.007172,-0.004451
6148,-0.153737,-0.675335,9.894673,1.271196,-0.404190,1.426316,-3.752186,0.802708,-0.477774,0.999432,-0.032708,0.007138,-0.003938
6149,-0.147503,-0.660480,9.888245,0.569157,0.259677,0.710662,-3.735082,0.813766,-0.442263,0.999437,-0.032561,0.007223,-0.003626
6150,-0.156159,-0.662192,9.900263,0.128059,1.269931,-0.104178,-3.736728,0.851356,-0.434026,0.999435,-0.032574,0.007549,-0.003543
6151,-0.126406,-0.714991,9.772470,0.785372,1.199722,-0.212525,-3.766566,0.890055,-0.442651,0.999423,-0.032832,0.007890,-0.003605
6152,-0.096280,-0.735419,9.730648,0.708407,-1.138284,0.744202,-3.825146,0.855249,-0.435132,0.999409,-0.033345,0.007586,-0.003546
6153,-0.088234,-0.721921,9.758719,0.944284,-3.439821,1.819939,-3.877043,0.726706,-0.388547,0.999403,-0.033805,0.006453,-0.003174
6154,-0.081186,-0.682817,9.840577,1.917493,-4.787608,2.704945,-3.869900,0.545502,-0.304634,0.999415,-0.033752,0.004847,-0.002496
6155,-0.077441,-0.649640,9.899011,2.843746,-5.483666,3.495358,-3.787733,0.352133,-0.190155,0.999448,-0.033043,0.003126,-0.001557
6156,-0.097227,-0.541986,10.038665,3.172129,-4.934331,3.838693,-3.648179,0.187010,-0.056688,0.999492,-0.031830,0.001647,-0.000442
6157,-0.100033,-0.478439,10.080642,3.691486,-2.768848,2.834649,-3.465641,0.090047,0.062615,0.999542,-0.030239,0.000769,0.000570
6158,-0.099217,-0.474254,10.026902,3.756137,-0.444578,1.409454,-3.271043,0.076429,0.136620,0.999592,-0.028542,0.000633,0.001211
6159,-0.083829,-0.505140,9.943866,3.063861,0.558383,0.698399,-3.095487,0.133926,0.171797,0.999633,-0.027012,0.001128,0.001530
6160,-0.041663,-0.507276,9.905473,2.266154,0.204709,0.660271,-2.962685,0.190539,0.193936,0.999663,-0.025854,0.001618,0.001735
6161,-0.005793,-0.534408,9.888112,1.614605,0.009358,0.379498,-2.895206,0.190801,0.211085,0.999678,-0.025266,0.001618,0.001884
6162,0.009192,-0.548632,9.859737,1.725717,0.405831,0.536655,-2.874535,0.165053,0.225856,0.999682,-0.025085,0.001390,0.002006
6163,0.026079,-0.521777,9.859379,2.161835,0.030081,1.285864,-2.846707,0.127115,0.255697,0.999688,-0.024842,0.001054,0.002258
6164,0.020525,-0.516140,9.882161,1.890022,-0.312102,1.406393,-2.803924,0.077770,0.300649,0.999697,-0.024468,0.000614,0.002639
6166,-0.002791,-0.483842,9.871058,2.225629,-0.139876,1.540664,-2.747388,0.046997,0.350020,0.999708,-0.023974,0.000337,0.003063
6167,-0.029161,-0.434638,9.906735,2.352436,-0.657126,1.702414,-2.651624,0.041263,0.404645,0.999726,-0.023139,0.000278,0.003539
6168,-0.065248,-0.402895,9.951919,2.120875,-0.925384,1.299585,-2.529643,0.055136,0.455909,0.999748,-0.022075,0.000393,0.003988
6169,-0.077641,-0.391259,9.969139,1.637567,-0.509850,0.590051,-2.415673,0.092992,0.488561,0.999768,-0.021082,0.000721,0.004280
6170,-0.069760,-0.372025,9.934895,1.261032,-0.123325,0.117035,-2.321230,0.141245,0.500937,0.999784,-0.020260,0.001144,0.004396
6171,-0.033632,-0.384308,9.926903,0.542571,-0.509143,-0.148466,-2.259889,0.160835,0.500950,0.999795,-0.019726,0.001317,0.004398
6172,-0.017884,-0.406630,9.903502,0.051232,-0.277206,-0.351414,-2.248939,0.147016,0.493150,0.999797,-0.019630,0.001198,0.004328
6173,0.010084,-0.419180,9.879335,-0.100016,-0.318581,-0.250710,-2.272439,0.114789,0.483460,0.999794,-0.019834,0.000918,0.004238
6174,0.004162,-0.421522,9.893693,-0.446632,-0.788795,-0.288868,-2.310549,0.067294,0.475162,0.999788,-0.020164,0.000504,0.004158
6175,-0.020292,-0.397307,9.911991,-0.405533,-0.706454,-0.507077,-2.337430,0.034442,0.462901,0.999784,-0.020398,0.000218,0.004045
6176,-0.067211,-0.383727,9.901709,0.105740,-0.033252,-0.919066,-2.331339,0.054831,0.439661,0.999786,-0.020345,0.000400,0.003846
6177,-0.076711,-0.373952,9.894043,0.397381,0.167139,-1.472957,-2.299271,0.117388,0.399777,0.999792,-0.020067,0.000954,0.003509
6178,-0.079827,-0.364186,9.901194,0.452555,0.126427,-2.014641,-2.255289,0.181075,0.341591,0.999801,-0.019684,0.001521,0.003011
6179,-0.057168,-0.359943,9.896774,0.724412,0.114549,-2.307604,-2.205496,0.223442,0.269571,0.999810,-0.019250,0.001904,0.002390
6180,-0.019902,-0.393268,9.922834,0.970158,0.071851,-2.789796,-2.168558,0.226725,0.184598,0.999818,-0.018926,0.001948,0.001648
6181,0.029530,-0.437834,9.938898,1.038546,0.187484,-3.004965,-2.170247,0.185264,0.087784,0.999819,-0.018939,0.001602,0.000797
6182,0.036509,-0.457365,9.922562,1.251627,0.403637,-2.266438,-2.200864,0.125696,-0.000605,0.999815,-0.019205,0.001097,0.000016
6183,0.029325,-0.417338,9.924386,1.202347,-0.010348,-1.115909,-2.216389,0.072513,-0.057325,0.999813,-0.019340,0.000642,-0.000488
6184,0.015911,-0.407946,9.939666,0.460520,-0.289899,-0.662723,-2.217108,0.028120,-0.086803,0.999812,-0.019347,0.000260,-0.000753
6185,0.037189,-0.379946,9.941312,-0.006484,-0.575517,0.225355,-2.218328,-0.020447,-0.093540,0.999812,-0.019357,-0.000163,-0.000820
6186,0.018760,-0.353321,9.937902,-0.522106,-0.601678,0.855554,-2.209603,-0.066851,-0.074787,0.999814,-0.019282,-0.000571,-0.000664
6187,-0.017837,-0.333309,9.937312,-0.668281,-0.496335,0.883023,-2.190251,-0.077193,-0.045164,0.999817,-0.019113,-0.000666,-0.000407
6188,-0.037712,-0.351036,9.936390,-0.848037,-0.196945,0.500027,-2.177590,-0.049182,-0.021730,0.999819,-0.019002,-0.000426,-0.000198
6189,-0.027275,-0.336913,9.930160,-0.705858,0.123834,0.344395,-2.170049,-0.008117,-0.007650,0.999821,-0.018936,-0.000070,-0.000068
6190,-0.076209,-0.313790,9.891622,-0.345348,0.591204,0.275745,-2.138611,0.058828,0.002228,0.999826,-0.018662,0.000513,0.000029
6191,-0.075303,-0.295946,9.894488,-0.276162,0.314037,-0.110294,-2.084094,0.142867,0.004514,0.999834,-0.018186,0.001246,0.000062
6192,-0.001033,-0.332364,9.943399,-0.988373,-0.456397,-1.034997,-2.055630,0.159813,-0.014364,0.999838,-0.017938,0.001397,-0.000100
6193,0.036773,-0.394431,9.968451,-1.360725,-0.336187,-1.683528,-2.098262,0.102639,-0.059163,0.999832,-0.018309,0.000905,-0.000500
6194,0.043889,-0.438935,9.958923,-1.130735,0.124159,-1.611828,-2.192822,0.036555,-0.113949,0.999816,-0.019134,0.000338,-0.000988
6195,0.061559,-0.477577,9.960177,-1.026098,0.196907,-1.596588,-2.310252,-0.022298,-0.167564,0.999796,-0.020160,-0.000165,-0.001466
6196,0.046726,-0.509431,9.938774,-0.976527,0.484883,-1.396709,-2.441613,-0.066096,-0.217760,0.999771,-0.021307,-0.000536,-0.001912
6197,0.005736,-0.483168,9.877718,-0.408012,1.270592,-0.740566,-2.546547,-0.056240,-0.254492,0.999750,-0.022222,-0.000441,-0.002231
6198,-0.013560,-0.459843,9.836946,-0.026855,1.327163,-0.383494,-2.594512,0.000172,-0.275097,0.999741,-0.022639,0.000056,-0.002400
6199,-0.033016,-0.456497,9.819112,0.130183,0.936744,-0.414003,-2.609232,0.064547,-0.290082,0.999738,-0.022766,0.000621,-0.002518
6200,-0.040215,-0.442411,9.839554,-0.081942,0.428852,-0.423147,-2.611159,0.116786,-0.305055,0.999736,-0.022782,0.001080,-0.002638
6201,-0.026233,-0.421663,9.890009,-0.098590,-0.112715,-0.325482,-2.597144,0.138520,-0.317724,0.999739,-0.022659,0.001271,-0.002745
6202,-0.016182,-0.440763,9.944703,-0.408201,-0.388915,-0.427719,-2.586519,0.128740,-0.329843,0.999741,-0.022566,0.001188,-0.002852
6203,-0.021742,-0.428133,9.918182,-0.137995,0.126816,-0.069128,-2.581124,0.119949,-0.337885,0.999741,-0.022519,0.001113,-0.002924
6204,-0.026669,-0.408975,9.925399,-0.247638,-0.083742,0.220800,-2.559514,0.123331,-0.335332,0.999746,-0.022331,0.001141,-0.002902
6205,-0.024593,-0.421263,9.943541,-0.564794,-0.335485,0.260475,-2.543438,0.121052,-0.326943,0.999749,-0.022191,0.001119,-0.002829
6206,-0.035473,-0.416920,9.911520,-0.499001,0.128465,0.356613,-2.538783,0.126568,-0.316466,0.999750,-0.022150,0.001165,-0.002737
6207,-0.052717,-0.390442,9.866560,-0.275944,0.175943,0.576354,-2.517710,0.154251,-0.301077,0.999754,-0.021966,0.001403,-0.002597
6208,-0.051024,-0.391224,9.900454,-0.664703,-0.653947,0.452764,-2.489385,0.173718,-0.283473,0.999760,-0.021718,0.001569,-0.002440
6209,-0.049046,-0.419072,9.890071,-0.794194,-0.446254,0.104861,-2.487184,0.176716,-0.273311,0.999761,-0.021699,0.001594,-0.002351
6210,-0.051468,-0.449337,9.828401,-0.218965,-0.081402,-0.038569,-2.509682,0.187410,-0.271846,0.999756,-0.021895,0.001687,-0.002336
6211,-0.044883,-0.453196,9.824311,-0.132163,-0.774042,0.016369,-2.537363,0.189573,-0.271664,0.999751,-0.022137,0.001706,-0.002334
6212,-0.017119,-0.459521,9.876646,-0.071298,-1.662140,0.020946,-2.562244,0.147679,-0.269312,0.999747,-0.022355,0.001341,-0.002321
6213,-0.001464,-0.496477,9.891718,-0.124996,-1.495967,-0.462780,-2.601988,0.075634,-0.274392,0.999739,-0.022703,0.000714,-0.002379
6214,0.016145,-0.490588,9.903712,0.266803,-1.593832,-0.085887,-2.645046,-0.001903,-0.281240,0.999731,-0.023080,0.000040,-0.002454
6215,0.027611,-0.451048,9.935159,0.257522,-1.833620,0.265066,-2.651995,-0.086003,-0.275636,0.999729,-0.023143,-0.000695,-0.002422
6216,0.032162,-0.456680,9.949715,0.045466,-1.612531,0.008703,-2.641152,-0.164515,-0.268438,0.999731,-0.023050,-0.001381,-0.002375
6217,0.032367,-0.463365,9.924789,-0.033888,-0.997664,0.034641,-2.641627,-0.218034,-0.265707,0.999730,-0.023055,-0.001849,-0.002362
6218,0.035658,-0.432238,9.889590,0.513990,-0.823715,0.658743,-2.624751,-0.248702,-0.252803,0.999733,-0.022908,-0.002119,-0.002255
6219,0.034957,-0.426770,9.874261,0.425679,-0.991529,0.594655,-2.585109,-0.273168,-0.230660,0.999741,-0.022562,-0.002338,-0.002066
6220,0.037211,-0.420415,9.895134,0.152741,-1.292066,0.547353,-2.550390,-0.301674,-0.210049,0.999747,-0.022259,-0.002591,-0.001891
6221,0.051641,-0.443454,9.906536,-0.260693,-1.295078,0.419178,-2.540660,-0.338935,-0.192092,0.999748,-0.022174,-0.002920,-0.001741
6222,0.060537,-0.451503,9.912862,-0.311101,-1.182164,0.376452,-2.556941,-0.380198,-0.176965,0.999744,-0.022317,-0.003283,-0.001618
6223,0.064407,-0.446707,9.922681,-0.550731,-1.203528,0.272689,-2.578719,-0.419594,-0.164330,0.999739,-0.022507,-0.003628,-0.001516
6224,0.079238,-0.476403,9.946397,-0.329594,-0.982287,0.376452,-2.608836,-0.457801,-0.151761,0.999732,-0.022770,-0.003964,-0.001415
6225,0.091575,-0.481481,9.935184,0.395000,-0.471173,1.101264,-2.635388,-0.489706,-0.125834,0.999726,-0.023001,-0.004247,-0.001196
6226,0.087142,-0.434350,9.913183,1.264752,-0.320161,1.916106,-2.611425,-0.507510,-0.074971,0.999730,-0.022790,-0.004413,-0.000755
6227,0.077410,-0.429613,9.901427,1.501440,-0.275879,1.961884,-2.544769,-0.510656,-0.010140,0.999743,-0.022206,-0.004453,-0.000187
6228,0.092313,-0.423279,9.917951,1.704539,-0.298742,2.135840,-2.472951,-0.514079,0.058349,0.999757,-0.021576,-0.004496,0.000412
6229,0.090669,-0.380096,9.923243,1.500319,-0.379637,2.001554,-2.388471,-0.525048,0.127440,0.999772,-0.020837,-0.004604,0.001016
6230,0.085307,-0.392987,9.908354,0.643013,-0.475755,0.904413,-2.320155,-0.535381,0.176121,0.999783,-0.020238,-0.004702,0.001442
6231,0.087141,-0.423484,9.919424,0.165394,-0.417726,0.365763,-2.307493,-0.544016,0.197887,0.999785,-0.020127,-0.004781,0.001631
6232,0.099347,-0.389663,9.929568,-0.147463,-0.223932,0.277260,-2.312655,-0.553956,0.209078,0.999783,-0.020171,-0.004870,0.001727
6233,0.087931,-0.395472,9.928893,-0.776083,0.383398,-0.648977,-2.320324,-0.550037,0.202707,0.999782,-0.020239,-0.004835,0.001671
6234,0.066314,-0.407020,9.883580,-1.218606,0.772651,-1.154053,-2.353793,-0.514269,0.171893,0.999778,-0.020532,-0.004518,0.001408
6235,0.055407,-0.409481,9.894475,-1.233901,0.945321,-1.149465,-2.398825,-0.457283,0.132369,0.999772,-0.020927,-0.004014,0.001071
6236,0.055919,-0.412088,9.903287,-1.270523,1.233939,-1.486685,-2.440226,-0.395537,0.086917,0.999767,-0.021291,-0.003467,0.000685
6237,0.038836,-0.443995,9.914137,-1.267543,1.017461,-1.726247,-2.491170,-0.334903,0.031845,0.999759,-0.021737,-0.002928,0.000214
6238,0.034172,-0.456516,9.900344,-1.078510,0.350837,-1.311185,-2.552733,-0.288627,-0.019620,0.999749,-0.022275,-0.002514,-0.000227
6239,0.039166,-0.451720,9.906931,-0.636130,0.328081,-1.103652,-2.598352,-0.262492,-0.060261,0.999740,-0.022674,-0.002278,-0.000578
6240,0.034633,-0.458867,9.912528,-0.283715,0.438031,-1.227248,-2.622676,-0.241098,-0.099613,0.999735,-0.022887,-0.002084,-0.000917
6241,0.026309,-0.453972,9.902846,0.059583,0.200087,-0.902222,-2.630780,-0.219469,-0.135536,0.999734,-0.022958,-0.001888,-0.001226
6242,0.034551,-0.442533,9.884893,0.698989,0.372589,-0.397136,-2.612609,-0.201886,-0.157626,0.999738,-0.022800,-0.001730,-0.001415
6243,0.044231,-0.451062,9.887017,1.295670,0.479381,-0.275064,-2.573663,-0.191103,-0.169481,0.999745,-0.022460,-0.001634,-0.001516
6244,0.044963,-0.453595,9.922826,1.341420,0.297714,-0.275067,-2.533275,-0.188773,-0.179212,0.999753,-0.022108,-0.001612,-0.001600
6245,0.053576,-0.442441,9.929946,1.342904,0.151099,-0.023296,-2.493648,-0.197210,-0.184499,0.999760,-0.021762,-0.001686,-0.001647
6246,0.067896,-0.431735,9.923794,1.466494,0.134105,-0.021779,-2.448101,-0.218698,-0.185467,0.999769,-0.021365,-0.001873,-0.001659
6247,0.064402,-0.428500,9.913239,1.216226,-0.003460,-0.261359,-2.405403,-0.245688,-0.190289,0.999776,-0.020993,-0.002109,-0.001705
6248,0.046308,-0.409600,9.919374,0.920207,-0.037146,-0.310194,-2.368599,-0.261324,-0.199798,0.999782,-0.020672,-0.002244,-0.001790
6249,0.049525,-0.389303,9.900345,0.821127,-0.241651,-0.061470,-2.326416,-0.270106,-0.205860,0.999789,-0.020305,-0.002320,-0.001844
6250,0.051020,-0.394041,9.901106,0.677799,-0.385121,-0.127087,-2.287742,-0.284833,-0.208645,0.999796,-0.019967,-0.002449,-0.001870
6251,0.041604,-0.395805,9.907567,0.429104,-0.174530,-0.272049,-2.265313,-0.292791,-0.214940,0.999800,-0.019772,-0.002517,-0.001926
6252,0.037404,-0.399523,9.920153,0.294795,-0.183606,-0.322401,-2.256613,-0.289033,-0.224586,0.999801,-0.019696,-0.002483,-0.002009
6253,0.042566,-0.393361,9.921919,0.158952,-0.191154,-0.259834,-2.253561,-0.285627,-0.234012,0.999801,-0.019670,-0.002452,-0.002091
6254,0.054584,-0.395920,9.939375,0.245903,-0.108745,-0.235419,-2.250210,-0.289724,-0.242046,0.999802,-0.019641,-0.002486,-0.002161
6255,0.062748,-0.395426,9.920965,0.584618,-0.044724,-0.101140,-2.241321,-0.300928,-0.247527,0.999803,-0.019564,-0.002583,-0.002211
6256,0.063986,-0.381262,9.912398,0.923378,-0.261499,0.094174,-2.215657,-0.317784,-0.247451,0.999807,-0.019340,-0.002731,-0.002213
6257,0.072796,-0.354480,9.923944,1.710894,-0.260087,0.121636,-2.154394,-0.340572,-0.243632,0.999816,-0.018806,-0.002932,-0.002182
6258,0.072122,-0.341511,9.916189,3.563602,-0.016057,0.019393,-2.037179,-0.359930,-0.241309,0.999835,-0.017783,-0.003103,-0.002161
6259,0.064032,-0.322681,9.901418,5.774903,0.279914,-0.082848,-1.852153,-0.362762,-0.242725,0.999862,-0.016169,-0.003131,-0.002169
6260,0.062490,-0.269372,9.923437,7.954237,0.562206,0.164350,-1.584354,-0.349385,-0.242048,0.999897,-0.013832,-0.003019,-0.002154
6261,0.051884,-0.231112,9.931711,10.196187,0.702626,0.574823,-1.236206,-0.323649,-0.230525,0.999936,-0.010793,-0.002802,-0.002042
6262,0.040647,-0.177132,9.892219,12.334315,0.911770,1.009713,-0.822367,-0.284729,-0.204769,0.999970,-0.007181,-0.002472,-0.001805
6263,0.028314,-0.095938,9.920485,13.472975,1.111806,1.302691,-0.352539,-0.233144,-0.166670,0.999992,-0.003079,-0.002030,-0.001461
6264,0.021374,0.003737,9.947360,14.707753,1.438471,1.505639,0.154907,-0.175869,-0.119972,0.999997,0.001350,-0.001536,-0.001045
6265,0.001734,0.104552,9.938454,16.610857,2.114548,1.189772,0.711003,-0.105494,-0.074624,0.999980,0.006204,-0.000925,-0.000645
6266,-0.020264,0.211895,9.971304,18.295795,2.494632,0.793029,1.332490,-0.013141,-0.040178,0.999932,0.011628,-0.000119,-0.000349
6267,-0.053070,0.308868,9.981931,20.603312,2.420042,0.631277,2.020230,0.090493,-0.013874,0.999844,0.017629,0.000787,-0.000135
6269,-0.038805,0.490034,9.970320,22.228832,1.007185,-0.291911,2.785476,0.166051,-0.005490,0.999704,0.024306,0.001447,-0.000083
6270,-0.042343,0.646561,9.945308,22.720757,-0.639219,-0.934327,3.606524,0.181986,-0.025136,0.999503,0.031468,0.001580,-0.000269
6271,-0.040564,0.803920,9.941961,23.037273,-2.363471,-1.028934,4.450284,0.139669,-0.060852,0.999245,0.038827,0.001197,-0.000578
6272,-0.018591,0.974577,9.870142,23.175341,-3.011983,-0.972474,5.312256,0.054013,-0.101309,0.998925,0.046342,0.000430,-0.000905
6273,0.003918,1.150769,9.857005,22.097359,-2.717516,-0.824454,6.172383,-0.042535,-0.140490,0.998549,0.053838,-0.000437,-0.001204
6274,-0.000873,1.249042,9.843192,21.281792,-1.608178,0.355086,6.995591,-0.114454,-0.156568,0.998136,0.061009,-0.001080,-0.001303
6275,0.004291,1.343225,9.850176,21.294605,-0.469792,1.324042,7.781317,-0.146598,-0.133366,0.997694,0.067851,-0.001355,-0.001074
6276,0.003400,1.452751,9.820502,21.302706,0.657939,1.919143,8.549564,-0.142077,-0.079499,0.997217,0.074539,-0.001288,-0.000599
6277,-0.012676,1.558160,9.843342,21.264915,0.934243,2.103762,9.303794,-0.111976,-0.009159,0.996705,0.081102,-0.000980,-0.000000
6278,-0.015881,1.684537,9.833468,21.510878,0.633774,2.247177,10.052497,-0.080971,0.066839,0.996154,0.087612,-0.000653,0.000643
6279,-0.030262,1.798635,9.795224,22.142866,0.728531,2.012159,10.811994,-0.052401,0.140964,0.995551,0.094213,-0.000339,0.001268
6280,-0.041348,1.939354,9.777223,22.663460,0.833999,1.771029,11.590345,-0.016407,0.208116,0.994888,0.100973,0.000041,0.001821
6281,-0.041741,2.068590,9.769081,22.572163,0.423704,1.340683,12.376425,0.016059,0.263485,0.994171,0.107794,0.000387,0.002271
6282,-0.019378,2.203062,9.714465,23.491024,0.063700,0.754703,13.176050,0.030864,0.299608,0.993393,0.114728,0.000568,0.002566
6283,-0.018077,2.349372,9.696554,24.596075,-0.220067,-0.200538,14.012657,0.033131,0.308130,0.992529,0.121978,0.000615,0.002634
6284,-0.020279,2.486380,9.672817,25.392891,-0.899053,-0.586609,14.881025,0.024786,0.290892,0.991577,0.129496,0.000543,0.002489
6285,-0.019527,2.634674,9.589580,25.213125,-1.545990,-0.983364,15.761253,-0.000515,0.255049,0.990553,0.137109,0.000301,0.002205
6286,-0.021774,2.759159,9.521889,24.801420,-1.678677,-0.945235,16.631468,-0.034276,0.209358,0.989484,0.144628,-0.000032,0.001851
6287,-0.037234,2.859367,9.497635,23.118498,-1.504601,-0.547003,17.451880,-0.062059,0.170227,0.988424,0.151709,-0.000310,0.001550
6288,-0.022408,2.954215,9.456109,20.460342,-1.486150,0.296790,18.179058,-0.089845,0.151258,0.987441,0.157978,-0.000566,0.001427
6289,-0.008381,3.070415,9.441512,17.821930,-1.208327,0.789631,18.805954,-0.124396,0.154405,0.986562,0.163378,-0.000851,0.001507
6290,-0.005950,3.160142,9.434237,16.701752,-0.993078,1.126829,19.362486,-0.157117,0.172762,0.985756,0.168168,-0.001098,0.001717
6291,0.001552,3.260293,9.439442,16.419254,-0.925840,1.073390,19.889633,-0.186755,0.196742,0.984971,0.172702,-0.001309,0.001973
6292,0.008247,3.381219,9.438559,17.198841,-0.692283,0.961965,20.429493,-0.211770,0.219463,0.984146,0.177341,-0.001479,0.002213
6293,0.000015,3.473397,9.394211,18.865046,-0.495329,0.752873,21.017191,-0.225762,0.239354,0.983223,0.182386,-0.001556,0.002413
6294,0.002067,3.569421,9.322204,21.159969,-0.428055,0.842853,21.675688,-0.232054,0.258726,0.982158,0.188034,-0.001564,0.002598
6295,0.006385,3.670292,9.271797,22.954407,-0.191409,1.013706,22.404757,-0.236183,0.283765,0.980941,0.194279,-0.001541,0.002830
6296,0.009374,3.799634,9.202020,23.224483,-0.099737,1.254756,23.172249,-0.239559,0.316951,0.979617,0.200845,-0.001492,0.003129
6297,0.012830,3.923212,9.138892,22.969685,-0.229334,1.573629,23.945793,-0.248922,0.358153,0.978237,0.207454,-0.001477,0.003508
6298,0.026929,4.030014,9.094434,22.542429,-0.047669,1.608691,24.704700,-0.264152,0.404758,0.976840,0.213929,-0.001496,0.003944
6299,0.019550,4.144220,9.052582,21.341475,0.100420,1.565931,25.429464,-0.275538,0.453204,0.975465,0.220104,-0.001475,0.004387
6300,0.013241,4.261170,9.034240,20.563160,0.002867,1.507897,26.115774,-0.281624,0.500294,0.974128,0.225943,-0.001408,0.004808
6301,0.015405,4.368819,8.993780,21.701370,-0.238111,1.506314,26.803904,-0.291149,0.543793,0.972751,0.231789,-0.001372,0.005205
6302,0.032469,4.483493,8.935138,22.209381,-0.886540,0.857753,27.520397,-0.313390,0.570552,0.971281,0.237868,-0.001472,0.005487
6303,0.040262,4.613905,8.872193,22.801373,-1.608247,0.055088,28.262188,-0.349481,0.564721,0.969720,0.244152,-0.001754,0.005524
6304,0.046789,4.723288,8.800960,23.077538,-1.863027,-0.652967,29.023500,-0.388709,0.528369,0.968077,0.250590,-0.002128,0.005314
6305,0.046533,4.820495,8.704327,22.241302,-1.875176,-1.339666,29.775602,-0.418316,0.468968,0.966412,0.256938,-0.002476,0.004893
6306,0.049813,4.929359,8.651473,19.708216,-1.621799,-1.875307,30.469118,-0.431356,0.393526,0.964842,0.262780,-0.002730,0.004303
6307,0.038618,4.998460,8.576758,17.751867,-0.802279,-1.738029,31.079872,-0.421116,0.321336,0.963431,0.267917,-0.002789,0.003686
6308,0.016806,5.074331,8.551242,15.262875,0.003563,-1.406993,31.604177,-0.383016,0.269995,0.962198,0.272321,-0.002575,0.003177
6309,0.020045,5.158482,8.543272,13.822108,0.406576,-0.966102,32.052639,-0.331663,0.240432,0.961127,0.276083,-0.002203,0.002816
6310,0.035333,5.246010,8.535995,13.276875,0.522697,-0.462636,32.444427,-0.283884,0.229079,0.960179,0.279367,-0.001820,0.002612
6311,0.028893,5.299733,8.479598,13.940186,0.771531,-0.468805,32.839851,-0.241608,0.228091,0.959211,0.282678,-0.001460,0.002505
6312,0.017704,5.371608,8.452838,14.657088,0.561027,-0.346776,33.281300,-0.204801,0.229062,0.958115,0.286371,-0.001140,0.002427
6313,0.028619,5.453125,8.395968,16.188890,0.135346,0.078925,33.766956,-0.185107,0.231948,0.956893,0.290428,-0.000958,0.002406
6314,0.023516,5.500331,8.302135,18.021355,-0.023326,-0.015698,34.315453,-0.180364,0.234005,0.955492,0.295005,-0.000901,0.002416
6315,0.010349,5.553930,8.212720,18.877235,-0.049219,-0.288871,34.910084,-0.171385,0.229265,0.953949,0.299959,-0.000827,0.002357
6316,0.001791,5.639381,8.155729,18.922848,-0.253615,-0.139383,35.519501,-0.159672,0.220689,0.952340,0.305028,-0.000740,0.002259
6317,0.010638,5.751101,8.113333,18.103283,-0.377144,0.098612,36.118416,-0.156991,0.214173,0.950733,0.310001,-0.000723,0.002202
6318,0.006636,5.839122,8.062203,16.865625,-0.433544,0.121459,36.684856,-0.160990,0.209257,0.949189,0.314697,-0.000759,0.002175
6319,0.012790,5.938219,8.036417,15.748505,-0.615074,0.078692,37.210613,-0.168362,0.201556,0.947736,0.319049,-0.000831,0.002136
6320,0.020087,5.990551,7.993408,14.744250,-0.669970,0.209893,37.694466,-0.182430,0.192488,0.946380,0.323048,-0.000964,0.002104
6321,0.030674,6.046791,7.951172,13.735199,-0.837802,0.992681,38.117241,-0.211816,0.193062,0.945181,0.326537,-0.001197,0.002196
6322,0.046817,6.117275,7.883097,13.887293,-1.069769,1.450481,38.515259,-0.266202,0.205527,0.944040,0.329819,-0.001602,0.002459
6323,0.050492,6.163479,7.805452,14.613357,-0.970619,1.000363,38.955585,-0.324062,0.216212,0.942764,0.333445,-0.002037,0.002722
6324,0.041911,6.228481,7.753570,14.793283,-0.706619,0.644810,39.429012,-0.360651,0.219859,0.941377,0.337337,-0.002316,0.002868
6325,0.045587,6.315895,7.711136,15.499689,-0.674528,0.534906,39.921799,-0.383374,0.220403,0.939917,0.341382,-0.002488,0.002950
6326,0.044305,6.405718,7.643784,16.740244,-0.704987,-0.154861,40.456387,-0.395551,0.210495,0.938314,0.345763,-0.002604,0.002917
6327,0.031854,6.463728,7.601367,18.281418,-0.721686,-0.646281,41.038647,-0.390642,0.184972,0.936546,0.350526,-0.002627,0.002707
6328,0.036226,6.536024,7.541749,19.935450,-0.848237,-0.522768,41.667213,-0.380955,0.153277,0.934610,0.355657,-0.002631,0.002432
6329,0.051650,6.592042,7.419950,20.275675,-1.063326,-0.712040,42.330387,-0.379799,0.116874,0.932536,0.361059,-0.002723,0.002148
6330,0.056658,6.694616,7.361358,19.926205,-1.141114,-1.011153,42.996750,-0.381685,0.070970,0.930422,0.366475,-0.002872,0.001797
6331,0.065775,6.783786,7.305282,19.987188,-1.263174,-0.757861,43.655506,-0.388236,0.022109,0.928300,0.371816,-0.003073,0.001439
6332,0.064872,6.852047,7.198462,18.777069,-1.389822,-0.878413,44.294216,-0.400371,-0.028141,0.926214,0.376983,-0.003329,0.001090
6333,0.066774,6.940281,7.127917,16.950493,-1.542406,-1.377398,44.884830,-0.407540,-0.089174,0.924259,0.381750,-0.003584,0.000638
6334,0.063137,7.029408,7.118003,16.971756,-2.021532,-1.111900,45.438118,-0.417459,-0.160449,0.922405,0.386205,-0.003901,0.000115
6335,0.056292,7.090770,7.005910,19.031641,-2.795142,-0.445103,46.024700,-0.449096,-0.235881,0.920415,0.390918,-0.004412,-0.000363
6336,0.073210,7.124886,6.893709,20.795555,-3.469573,-0.606879,46.681980,-0.503469,-0.323379,0.918156,0.396186,-0.005152,-0.000850
6337,0.082239,7.180399,6.800956,22.336668,-3.944124,-1.006685,47.393196,-0.565804,-0.432013,0.915676,0.401869,-0.006036,-0.001468
6338,0.075996,7.275466,6.697471,23.273537,-4.284370,-1.144055,48.148312,-0.625098,-0.557546,0.913005,0.407884,-0.006965,-0.002217
6339,0.099597,7.393989,6.587844,23.288839,-4.417087,-1.179194,48.931133,-0.684840,-0.691820,0.910192,0.414099,-0.007940,-0.003020
6340,0.119259,7.464980,6.516216,24.013687,-4.650543,-1.823146,49.725578,-0.743539,-0.839049,0.907294,0.420383,-0.008965,-0.003915
6341,0.104700,7.513787,6.360029,23.769531,-4.220206,-2.822660,50.523216,-0.773540,-1.002127,0.904339,0.426673,-0.009836,-0.005028
6342,0.112153,7.631640,6.265656,20.755869,-3.319855,-2.928015,51.272320,-0.767733,-1.160102,0.901523,0.432562,-0.010420,-0.006228
6343,0.134382,7.705606,6.213108,17.114992,-3.017697,-1.701200,51.902653,-0.768208,-1.290716,0.899122,0.437502,-0.010956,-0.007194
6344,0.132069,7.761231,6.151118,13.512130,-2.872734,-0.791745,52.395626,-0.795884,-1.393438,0.897225,0.441353,-0.011599,-0.007844
6345,0.142377,7.852046,6.111087,7.072433,-1.847317,-0.341583,52.703171,-0.830555,-1.466855,0.896031,0.443747,-0.012176,-0.008253
6346,0.170189,7.946147,6.178492,1.340674,-1.188152,0.468736,52.796177,-0.870632,-1.505170,0.895668,0.444465,-0.012644,-0.008387
6347,0.185188,7.925272,6.181343,-0.724342,-1.038671,0.632099,52.751804,-0.921168,-1.522792,0.895838,0.444109,-0.013104,-0.008334
6348,0.178574,7.891346,6.174313,-2.490615,-0.774754,0.214106,52.601284,-0.966748,-1.536706,0.896419,0.442924,-0.013504,-0.008284
6349,0.181167,7.862578,6.180814,-3.713666,-0.307865,-0.033015,52.399929,-0.991416,-1.547523,0.897195,0.441344,-0.013724,-0.008297
6350,0.180389,7.824735,6.163295,-3.711080,-0.228535,0.018902,52.218029,-1.001582,-1.553719,0.897894,0.439917,-0.013814,-0.008328
6351,0.167911,7.793412,6.195557,-4.216604,-0.339923,-0.055860,52.030693,-1.007364,-1.560606,0.898611,0.438447,-0.013872,-0.008383
6352,0.157946,7.779650,6.219026,-4.067521,-0.454333,0.101280,51.835667,-1.010532,-1.569573,0.899355,0.436915,-0.013917,-0.008465
6353,0.162273,7.765336,6.224079,-2.880939,-0.419177,0.034079,51.646427,-1.010839,-1.578344,0.900075,0.435428,-0.013939,-0.008555
6354,0.162672,7.730302,6.239471,-2.481882,-0.292453,-0.588568,51.465347,-0.998556,-1.591797,0.900761,0.434005,-0.013880,-0.008730
6355,0.163685,7.727177,6.272876,-2.777112,-0.261872,-0.729012,51.287247,-0.976410,-1.611161,0.901433,0.432606,-0.013765,-0.008987
6356,0.165396,7.701590,6.270678,-1.781333,-0.185534,-0.460484,51.130348,-0.959075,-1.628018,0.902024,0.431372,-0.013680,-0.009204
6357,0.163630,7.703160,6.283897,-2.293034,-0.089378,-0.333847,50.997952,-0.948459,-1.638821,0.902521,0.430329,-0.013626,-0.009345
6358,0.169323,7.707345,6.301102,-2.597095,-0.016132,-0.326207,50.866421,-0.941851,-1.646287,0.903013,0.429293,-0.013591,-0.009444
6359,0.163637,7.690385,6.304773,-1.892436,-0.054288,-0.033213,50.751877,-0.940186,-1.650321,0.903442,0.428390,-0.013584,-0.009496
6360,0.157339,7.671283,6.303017,-1.206017,-0.063427,0.020181,50.669273,-0.938643,-1.651470,0.903750,0.427739,-0.013569,-0.009520
6361,0.153157,7.668711,6.296078,-1.166488,-0.080174,-0.191966,50.611855,-0.930730,-1.654849,0.903964,0.427287,-0.013514,-0.009583
6362,0.154424,7.657607,6.302394,-0.490584,0.025155,-0.326294,50.574120,-0.916890,-1.660881,0.904105,0.426990,-0.013425,-0.009687
6363,0.157509,7.649127,6.313194,-0.336582,-0.066379,-0.190510,50.545788,-0.906865,-1.666651,0.904210,0.426767,-0.013365,-0.009773
6364,0.159852,7.661105,6.322126,-0.754808,-0.119788,-0.205763,50.512302,-0.904413,-1.673001,0.904334,0.426503,-0.013366,-0.009836
6365,0.165203,7.659262,6.327048,-0.818996,-0.034362,-0.378160,50.473930,-0.903823,-1.680979,0.904476,0.426199,-0.013388,-0.009906
6366,0.171471,7.665433,6.326906,-1.118131,-0.148862,-0.143098,50.435040,-0.910136,-1.688754,0.904620,0.425890,-0.013463,-0.009948
6367,0.170921,7.658233,6.330647,-1.224961,-0.414441,0.076718,50.394184,-0.928592,-1.696656,0.904771,0.425564,-0.013635,-0.009947
6368,0.167001,7.648721,6.329153,-1.156304,-0.370236,-0.063611,50.353405,-0.946309,-1.706564,0.904921,0.425238,-0.013808,-0.009964
6369,0.170543,7.666789,6.340382,-0.887705,-0.281763,-0.164285,50.324093,-0.956226,-1.717427,0.905029,0.425004,-0.013924,-0.010017
6370,0.167885,7.659003,6.332639,-0.701445,-0.326037,-0.135270,50.310066,-0.962799,-1.728614,0.905080,0.424891,-0.014016,-0.010082
6372,0.159230,7.652032,6.358407,-0.965391,-0.226838,-0.019317,50.287140,-0.963846,-1.737430,0.905164,0.424709,-0.014055,-0.010151
6373,0.170734,7.649710,6.361031,-1.530028,-0.097122,0.011187,50.240055,-0.964980,-1.741577,0.905338,0.424336,-0.014075,-0.010185
6374,0.180165,7.644650,6.377481,-1.884115,-0.033070,0.125680,50.174137,-0.975713,-1.741628,0.905582,0.423813,-0.014154,-0.010154
6375,0.182894,7.621366,6.385779,-2.143662,-0.152155,0.510291,50.089481,-0.998317,-1.736891,0.905895,0.423142,-0.014308,-0.010044
6376,0.188485,7.612767,6.406024,-2.255255,-0.193423,0.788096,49.990784,-1.032359,-1.726951,0.906259,0.422357,-0.014532,-0.009852
6377,0.203211,7.605483,6.389077,-1.843384,-0.179785,0.713443,49.906204,-1.074404,-1.715301,0.906571,0.421683,-0.014814,-0.009615
6378,0.194672,7.595395,6.401237,-1.266620,-0.086784,0.592992,49.849777,-1.109585,-1.704564,0.906779,0.421233,-0.015048,-0.009408
6379,0.197523,7.593786,6.413223,-1.141535,-0.071557,0.536572,49.804287,-1.132108,-1.694328,0.906946,0.420871,-0.015185,-0.009251
6380,0.196046,7.578229,6.406002,-1.034750,-0.005953,0.315328,49.764126,-1.146166,-1.686069,0.907094,0.420552,-0.015263,-0.009139
6381,0.189304,7.576845,6.409498,-1.298739,0.036796,0.036056,49.724674,-1.145831,-1.681883,0.907239,0.420240,-0.015242,-0.009112
6382,0.181020,7.571609,6.432737,-1.350665,0.018551,-0.212748,49.674824,-1.130038,-1.682978,0.907422,0.419848,-0.015117,-0.009185
6383,0.183997,7.591499,6.439734,-1.320186,-0.056143,-0.279977,49.625622,-1.109752,-1.688689,0.907602,0.419460,-0.014973,-0.009311
6384,0.174505,7.601329,6.457012,-0.915784,-0.194926,-0.229712,49.592335,-1.091116,-1.697466,0.907724,0.419198,-0.014855,-0.009454
6385,0.175864,7.598908,6.456560,-0.799760,-0.347438,0.060118,49.570747,-1.079151,-1.706321,0.907802,0.419028,-0.014791,-0.009570
6386,0.183905,7.591139,6.472269,-0.680716,-0.452682,0.243176,49.548878,-1.083004,-1.713249,0.907882,0.418853,-0.014845,-0.009614
6387,0.192902,7.585123,6.469313,-0.467108,-0.567128,0.407977,49.527241,-1.102500,-1.719091,0.907960,0.418678,-0.015019,-0.009592
6388,0.192750,7.581898,6.457750,-0.441139,-0.664801,0.586526,49.515614,-1.131083,-1.724015,0.908001,0.418581,-0.015262,-0.009528
6389,0.192665,7.563848,6.456345,-0.575386,-0.638854,0.499540,49.503075,-1.157713,-1.728871,0.908046,0.418477,-0.015490,-0.009471
6390,0.205454,7.568790,6.462590,-0.306820,-0.431330,0.139424,49.488972,-1.177705,-1.735526,0.908096,0.418361,-0.015671,-0.009452
6391,0.212176,7.571977,6.467284,-0.093181,-0.381004,0.079947,49.483707,-1.194932,-1.743471,0.908115,0.418315,-0.015836,-0.009453
6392,0.210807,7.577986,6.464835,-0.308296,-0.297105,-0.026838,49.482079,-1.207979,-1.751591,0.908120,0.418299,-0.015969,-0.009470
6393,0.221463,7.582356,6.478394,-0.309785,-0.432949,0.099855,49.476604,-1.223609,-1.760148,0.908138,0.418252,-0.016124,-0.009481
6394,0.223936,7.572598,6.457253,-0.025912,-0.741242,0.534809,49.477509,-1.255162,-1.768287,0.908133,0.418253,-0.016404,-0.009430
6395,0.217922,7.567928,6.454865,-0.196730,-1.022042,0.783567,49.484776,-1.296405,-1.776589,0.908105,0.418303,-0.016761,-0.009345
6396,0.222720,7.574317,6.456744,-0.561340,-0.980838,0.775928,49.483173,-1.336637,-1.785324,0.908109,0.418282,-0.017112,-0.009267
6397,0.230987,7.569449,6.470522,-0.640647,-1.046444,0.923931,49.468437,-1.378266,-1.792716,0.908160,0.418157,-0.017468,-0.009176
6398,0.235297,7.541965,6.455843,-0.678821,-1.029645,0.942228,49.443329,-1.422027,-1.798715,0.908250,0.417950,-0.017834,-0.009067
6399,0.250783,7.542595,6.470703,-0.790281,-0.706149,0.717920,49.410530,-1.462109,-1.802488,0.908367,0.417683,-0.018163,-0.008956
6400,0.258561,7.549860,6.489987,-0.936878,-0.376568,0.556198,49.368195,-1.494068,-1.802019,0.908520,0.417341,-0.018411,-0.008843
6401,0.264713,7.550883,6.486241,-1.028516,-0.321657,0.664568,49.324959,-1.521652,-1.797320,0.908677,0.416995,-0.018610,-0.008712
6402,0.275197,7.558569,6.491715,-1.118555,-0.233192,0.640199,49.287846,-1.551644,-1.790118,0.908811,0.416696,-0.018818,-0.008552
6403,0.282842,7.544569,6.516228,-1.118613,-0.172212,0.460208,49.243061,-1.581116,-1.783062,0.908972,0.416337,-0.019023,-0.008396
6404,0.286070,7.530878,6.496436,-1.162952,-0.344701,0.434339,49.194092,-1.609695,-1.779539,0.909149,0.415944,-0.019234,-0.008272
6405,0.295258,7.529800,6.483470,-1.242266,-0.414963,0.379485,49.158241,-1.641465,-1.780365,0.909277,0.415654,-0.019486,-0.008169
6406,0.306274,7.531404,6.499814,-0.708110,-0.350969,0.355177,49.136009,-1.676930,-1.782295,0.909356,0.415471,-0.019773,-0.008060
6407,0.298742,7.509636,6.503222,0.012139,-0.512791,0.582624,49.125977,-1.712126,-1.782993,0.909390,0.415385,-0.020054,-0.007939
6408,0.294909,7.527825,6.501785,0.189166,-0.611991,0.761174,49.131729,-1.743968,-1.782587,0.909367,0.415425,-0.020305,-0.007820
6409,0.293101,7.545423,6.510387,0.375419,-0.329665,0.520039,49.152454,-1.764281,-1.780831,0.909291,0.415586,-0.020462,-0.007728
6410,0.300115,7.552173,6.507727,0.554069,-0.276216,0.664950,49.182426,-1.777550,-1.776001,0.909181,0.415823,-0.020551,-0.007636
6411,0.301524,7.524184,6.512397,0.529679,-0.419618,0.611500,49.203373,-1.794402,-1.770964,0.909105,0.415987,-0.020668,-0.007531
6412,0.311246,7.541642,6.502531,-0.102076,-0.247169,0.240677,49.207848,-1.808572,-1.770014,0.909087,0.416020,-0.020777,-0.007472
6413,0.314904,7.539484,6.483201,-0.135560,0.004607,-0.082820,49.214607,-1.813304,-1.771693,0.909062,0.416072,-0.020821,-0.007466
6414,0.317573,7.535129,6.502419,-0.336920,0.048849,-0.163685,49.214535,-1.811242,-1.773947,0.909063,0.416072,-0.020813,-0.007492
6415,0.301350,7.525131,6.515283,-0.217969,0.178582,-0.493316,49.196445,-1.795236,-1.777951,0.909129,0.415930,-0.020700,-0.007585
6416,0.301469,7.553278,6.495578,-0.375134,0.377012,-0.555949,49.187393,-1.764361,-1.782395,0.909164,0.415863,-0.020470,-0.007734
6417,0.295470,7.530338,6.493474,0.024759,0.338916,-0.406473,49.194122,-1.734070,-1.784236,0.909141,0.415922,-0.020237,-0.007858
6418,0.296968,7.522998,6.488096,-0.072854,0.294700,-0.493494,49.199318,-1.708804,-1.786225,0.909124,0.415967,-0.020044,-0.007964
6419,0.294014,7.535925,6.497652,-0.023983,0.250463,-0.449262,49.202991,-1.687794,-1.789771,0.909111,0.415999,-0.019891,-0.008068
6420,0.303101,7.535357,6.491312,0.088992,-0.030326,-0.018931,49.211300,-1.682944,-1.792304,0.909081,0.416066,-0.019862,-0.008104
6421,0.299595,7.519353,6.475379,0.090591,-0.303514,0.014690,49.223484,-1.695202,-1.796833,0.909036,0.416159,-0.019977,-0.008094
6422,0.308783,7.518510,6.513385,-0.239057,-0.288310,-0.221762,49.215351,-1.709792,-1.806384,0.909064,0.416091,-0.020126,-0.008118
6423,0.312386,7.525685,6.531268,0.029310,-0.296008,0.204060,49.187485,-1.729982,-1.813215,0.909164,0.415865,-0.020309,-0.008104
6424,0.298102,7.527503,6.513773,0.030685,-0.570703,0.562691,49.169659,-1.755024,-1.815224,0.909227,0.415718,-0.020514,-0.008032
6425,0.296337,7.539243,6.499615,-0.254658,-0.544733,0.294095,49.166683,-1.772607,-1.819979,0.909236,0.415691,-0.020671,-0.008006
6426,0.291323,7.521512,6.524509,-0.269946,-0.195232,0.016304,49.154713,-1.772374,-1.825824,0.909279,0.415595,-0.020689,-0.008055
6427,0.284486,7.542130,6.495537,-0.170758,-0.053220,-0.002124,49.147682,-1.755932,-1.828812,0.909305,0.415541,-0.020569,-0.008140
6428,0.286264,7.548762,6.490252,-0.355213,-0.159933,-0.255555,49.161850,-1.734666,-1.835008,0.909255,0.415657,-0.020424,-0.008264
6429,0.306185,7.525781,6.494764,-0.261993,0.126973,-0.583671,49.169193,-1.717834,-1.845101,0.909228,0.415716,-0.020327,-0.008404
6430,0.311766,7.497477,6.492883,-0.083471,0.277991,-0.641600,49.162170,-1.707316,-1.853307,0.909254,0.415661,-0.020273,-0.008508
6431,0.311976,7.518939,6.516093,-0.255991,-0.054734,-0.383630,49.145329,-1.706227,-1.861328,0.909314,0.415526,-0.020292,-0.008579
6432,0.307936,7.511099,6.504349,-0.115682,-0.231808,-0.148557,49.130096,-1.715774,-1.870465,0.909368,0.415402,-0.020400,-0.008620
6433,0.298408,7.503144,6.507931,0.029213,-0.204372,0.007127,49.120197,-1.724919,-1.877247,0.909403,0.415320,-0.020497,-0.008642
6434,0.295243,7.527495,6.486849,0.180318,-0.215046,0.086465,49.128769,-1.729178,-1.881664,0.909372,0.415387,-0.020547,-0.008660
6435,0.298579,7.545141,6.521813,0.183476,-0.137211,0.173422,49.148098,-1.733177,-1.883669,0.909301,0.415539,-0.020588,-0.008658
6436,0.307605,7.525527,6.487800,0.696266,-0.137224,0.384011,49.172611,-1.745339,-1.881352,0.909212,0.415732,-0.020677,-0.008591
6437,0.309929,7.524682,6.493870,0.610894,-0.228817,0.480183,49.204243,-1.766954,-1.876860,0.909096,0.415980,-0.020835,-0.008471
6438,0.309701,7.537040,6.497693,0.336269,-0.251730,0.440537,49.225235,-1.788496,-1.873064,0.909018,0.416143,-0.020994,-0.008359
6439,0.313557,7.536353,6.505477,0.115014,-0.234959,0.468019,49.233036,-1.807849,-1.869328,0.908989,0.416202,-0.021134,-0.008257
6440,0.315407,7.528618,6.492515,0.121095,-0.311265,0.457351,49.234100,-1.827538,-1.866063,0.908984,0.416207,-0.021278,-0.008160
6441,0.315657,7.542604,6.494776,-0.155078,-0.154095,0.161319,49.235851,-1.840263,-1.865280,0.908977,0.416219,-0.021377,-0.008107
6442,0.325016,7.557168,6.488043,-0.391495,-0.083912,0.167430,49.239388,-1.848469,-1.865112,0.908964,0.416245,-0.021441,-0.008075
6443,0.327931,7.539635,6.485847,-0.138075,-0.061057,0.138469,49.245056,-1.859640,-1.864082,0.908942,0.416288,-0.021527,-0.008025
6444,0.322949,7.527610,6.494220,-0.209776,-0.032082,-0.049199,49.241543,-1.865193,-1.864359,0.908955,0.416259,-0.021571,-0.008008
6445,0.318209,7.534718,6.491707,-0.240307,-0.042750,0.036237,49.232502,-1.863199,-1.865394,0.908988,0.416188,-0.021559,-0.008025
6446,0.303669,7.544979,6.500939,-0.342525,-0.209010,0.187228,49.225288,-1.856311,-1.866222,0.909014,0.416132,-0.021507,-0.008058
6447,0.304530,7.541979,6.502408,-0.354714,-0.124989,0.057412,49.215931,-1.844583,-1.867850,0.909049,0.416059,-0.021419,-0.008115
6448,0.311657,7.535094,6.496890,-0.142594,0.129908,-0.020489,49.209602,-1.832072,-1.867451,0.909073,0.416012,-0.021318,-0.008159
6449,0.321366,7.539903,6.509225,-0.391319,0.107034,-0.061706,49.200779,-1.825572,-1.865361,0.909105,0.415943,-0.021258,-0.008168
6450,0.326302,7.525308,6.522363,-0.701170,0.175674,-0.343966,49.171707,-1.822953,-1.865866,0.909211,0.415713,-0.021237,-0.008186
6451,0.326471,7.502689,6.516033,-0.702870,0.282444,-0.247774,49.126423,-1.819652,-1.865839,0.909375,0.415354,-0.021207,-0.008207
6452,0.321544,7.490753,6.503319,-0.478716,0.180169,-0.183634,49.087021,-1.817138,-1.864085,0.909519,0.415042,-0.021178,-0.008209
6453,0.321334,7.502005,6.515459,-1.148698,0.199977,-0.418589,49.047329,-1.811404,-1.865471,0.909662,0.414728,-0.021135,-0.008248
6454,0.317506,7.491353,6.517102,-0.639126,0.241155,-0.249181,49.006744,-1.802780,-1.866871,0.909810,0.414407,-0.021069,-0.008298
6455,0.320135,7.498573,6.527495,-0.494240,0.094642,-0.079770,48.978230,-1.800109,-1.865939,0.909913,0.414182,-0.021042,-0.008306
6456,0.324769,7.492323,6.519641,-0.349313,0.018296,-0.352853,48.959820,-1.802966,-1.869111,0.909979,0.414034,-0.021075,-0.008324
6457,0.319779,7.467182,6.516114,-0.102163,0.183046,-0.517593,48.946175,-1.799648,-1.875908,0.910028,0.413925,-0.021072,-0.008392
6458,0.315671,7.471974,6.513619,0.106825,0.149447,-0.572489,48.938580,-1.788100,-1.883416,0.910056,0.413866,-0.021007,-0.008495
6459,0.304467,7.488895,6.517594,-0.242610,0.170813,-0.775441,48.936825,-1.767059,-1.894158,0.910063,0.413854,-0.020878,-0.008657
6460,0.288990,7.489302,6.518156,-0.126601,0.353981,-0.781612,48.935787,-1.730803,-1.904764,0.910068,0.413850,-0.020629,-0.008872
6461,0.298154,7.513204,6.532967,-0.002945,0.543245,-0.644338,48.940868,-1.693449,-1.909318,0.910051,0.413897,-0.020349,-0.009043
6462,0.299823,7.542659,6.546666,-0.329387,0.502038,-0.595505,48.948597,-1.667301,-1.910147,0.910025,0.413963,-0.020145,-0.009142
6463,0.292270,7.537892,6.551481,-0.143119,0.392153,-0.253682,48.953903,-1.649759,-1.908591,0.910007,0.414009,-0.020001,-0.009192
6464,0.307621,7.524020,6.539380,0.040063,0.207459,0.248410,48.960911,-1.653691,-1.901368,0.909982,0.414065,-0.020006,-0.009120
6465,0.313438,7.522539,6.527800,0.145445,0.013549,0.575091,48.975311,-1.683840,-1.889913,0.909929,0.414176,-0.020205,-0.008917
6466,0.306663,7.513828,6.515406,0.096739,-0.107104,0.694227,48.994312,-1.720086,-1.877654,0.909859,0.414322,-0.020450,-0.008685
6467,0.312545,7.509833,6.527331,0.292127,-0.250613,0.917091,49.009144,-1.757715,-1.864792,0.909804,0.414435,-0.020704,-0.008444
6469,0.318885,7.496552,6.524585,0.519468,-0.304090,1.010254,49.019379,-1.801289,-1.850609,0.909765,0.414511,-0.020999,-0.008172
6470,0.317681,7.506935,6.531649,0.592653,-0.301083,1.068294,49.030025,-1.843006,-1.835272,0.909725,0.414590,-0.021275,-0.007897
6471,0.319121,7.514128,6.524307,0.525484,-0.323981,1.011846,49.044659,-1.877767,-1.820294,0.909671,0.414703,-0.021498,-0.007650
6472,0.321182,7.514154,6.505547,0.510273,-0.281241,0.964524,49.067570,-1.906496,-1.806520,0.909587,0.414882,-0.021678,-0.007432
6473,0.318342,7.510499,6.506588,0.191422,0.051452,0.708117,49.087025,-1.921863,-1.791415,0.909516,0.415037,-0.021746,-0.007253
6474,0.320091,7.520149,6.500331,0.167075,0.342967,0.595123,49.100868,-1.921552,-1.772495,0.909467,0.415150,-0.021676,-0.007101
6475,0.320886,7.502615,6.487011,0.092386,0.532243,0.363106,49.114857,-1.911912,-1.751346,0.909418,0.415267,-0.021524,-0.006965
6476,0.320491,7.501296,6.499419,-0.072394,0.828330,-0.030649,49.116959,-1.890346,-1.730646,0.909414,0.415291,-0.021278,-0.006879
6477,0.320039,7.508962,6.515299,0.179327,0.901622,-0.038331,49.110893,-1.861523,-1.709354,0.909439,0.415252,-0.020971,-0.006816
6478,0.324760,7.532146,6.505811,0.423479,0.691063,0.121871,49.120796,-1.841941,-1.688377,0.909406,0.415338,-0.020741,-0.006718
6479,0.319091,7.532520,6.524987,0.100016,0.523210,-0.219938,49.133186,-1.827410,-1.674269,0.909363,0.415441,-0.020575,-0.006657
6480,0.315799,7.536934,6.532991,0.208308,0.475917,-0.427473,49.132053,-1.806524,-1.668540,0.909369,0.415437,-0.020388,-0.006687
6481,0.316609,7.544939,6.509971,0.362444,0.259236,-0.113134,49.143768,-1.791634,-1.665238,0.909328,0.415533,-0.020259,-0.006713
6482,0.315060,7.515371,6.513386,-0.028178,0.312627,-0.480864,49.151062,-1.780921,-1.664559,0.909302,0.415593,-0.020172,-0.006745
6483,0.314347,7.492123,6.519332,-0.136676,0.384325,-0.682255,49.128613,-1.763234,-1.667842,0.909384,0.415417,-0.020042,-0.006840
6484,0.325601,7.521586,6.507779,-0.188675,0.114177,-0.232032,49.108723,-1.758254,-1.671079,0.909457,0.415260,-0.020013,-0.006887
6485,0.318372,7.526552,6.505346,-0.339703,-0.128528,-0.050354,49.104881,-1.770394,-1.674489,0.909469,0.415227,-0.020122,-0.006871
6486,0.309626,7.492575,6.513581,-0.246656,-0.076686,-0.237995,49.090885,-1.776556,-1.680086,0.909519,0.415114,-0.020190,-0.006895
6487,0.308762,7.510543,6.505812,-0.327595,-0.181981,-0.060978,49.073414,-1.777213,-1.686359,0.909582,0.414974,-0.020217,-0.006946
6488,0.309065,7.535659,6.501661,-0.310711,-0.195719,0.001586,49.075325,-1.780979,-1.692150,0.909575,0.414987,-0.020268,-0.006978
6489,0.304257,7.503268,6.509603,-0.090898,0.098793,-0.352444,49.078808,-1.775522,-1.697514,0.909562,0.415015,-0.020244,-0.007039
6490,0.308607,7.509057,6.526900,-0.112324,0.240718,-0.418069,49.067608,-1.759991,-1.701408,0.909604,0.414928,-0.020134,-0.007129
6491,0.316291,7.528383,6.506629,-0.022281,0.115565,-0.184572,49.067104,-1.753659,-1.703553,0.909606,0.414925,-0.020092,-0.007169
6492,0.307502,7.527831,6.518401,0.073945,0.133840,-0.237943,49.079643,-1.751926,-1.705384,0.909560,0.415024,-0.020085,-0.007187
6493,0.297858,7.522704,6.527396,-0.005392,0.190310,-0.309674,49.082150,-1.739503,-1.707321,0.909552,0.415046,-0.019994,-0.007247
6494,0.305540,7.523942,6.516928,0.121253,0.048407,0.073323,49.083454,-1.732231,-1.706876,0.909548,0.415057,-0.019935,-0.007270
6495,0.304685,7.503184,6.496235,0.232680,0.052965,0.009257,49.093513,-1.735903,-1.704824,0.909511,0.415137,-0.019957,-0.007238
6496,0.301981,7.488775,6.506945,0.144143,0.184180,-0.250133,49.095615,-1.733096,-1.704340,0.909504,0.415154,-0.019933,-0.007244
6497,0.307839,7.492767,6.512585,0.192858,0.171954,-0.086832,49.086800,-1.729181,-1.703095,0.909536,0.415085,-0.019897,-0.007250
6498,0.316692,7.482483,6.515662,0.253742,0.031510,0.096354,49.075161,-1.738916,-1.699852,0.909578,0.414992,-0.019962,-0.007191
6499,0.307263,7.482631,6.512599,0.276468,0.078758,-0.141619,49.063461,-1.748329,-1.698335,0.909620,0.414898,-0.020030,-0.007147
6500,0.298019,7.504828,6.516837,0.110047,0.133693,-0.173659,49.058002,-1.742400,-1.698740,0.909640,0.414855,-0.019984,-0.007173
6501,0.293893,7.506971,6.535315,-0.045686,0.158144,-0.269833,49.048050,-1.726797,-1.699575,0.909677,0.414779,-0.019863,-0.007238
6502,0.292195,7.505329,6.521309,-0.074768,0.199388,-0.260723,49.034851,-1.708333,-1.700534,0.909726,0.414677,-0.019719,-0.007314
6503,0.293007,7.520095,6.516951,-0.115957,0.245194,-0.291275,49.033146,-1.691093,-1.701013,0.909733,0.414666,-0.019584,-0.007381
6504,0.297496,7.523101,6.518592,-0.262370,0.342852,-0.329425,49.036114,-1.676772,-1.700670,0.909723,0.414692,-0.019469,-0.007430
6505,0.302532,7.504125,6.520535,-0.111281,0.309243,-0.152374,49.032661,-1.670837,-1.697811,0.909736,0.414666,-0.019411,-0.007429
6506,0.295239,7.509525,6.513763,-0.028878,0.159660,0.021630,49.030582,-1.672120,-1.693348,0.909744,0.414650,-0.019405,-0.007389
6507,0.297888,7.517372,6.513551,-0.150893,0.026872,0.024718,49.035049,-1.676798,-1.690713,0.909728,0.414686,-0.019433,-0.007351
6508,0.290292,7.505921,6.511150,-0.190509,0.103149,-0.011885,49.036469,-1.678863,-1.689145,0.909722,0.414697,-0.019444,-0.007331
6509,0.284475,7.505669,6.524422,-0.376680,0.164205,-0.137034,49.026012,-1.670420,-1.687380,0.909761,0.414615,-0.019370,-0.007349
6510,0.280805,7.499797,6.527020,-0.520180,0.159669,-0.343078,49.003204,-1.653090,-1.688326,0.909844,0.414437,-0.019234,-0.007423
6511,0.281764,7.506751,6.520031,-0.604131,0.191751,-0.304972,48.981369,-1.634223,-1.690904,0.909924,0.414266,-0.019092,-0.007515
6512,0.269192,7.516562,6.526167,-0.626972,0.434422,-0.587326,48.967033,-1.606566,-1.692971,0.909978,0.414157,-0.018879,-0.007634
6513,0.275483,7.511741,6.535451,-0.524693,0.558068,-0.750655,48.953022,-1.569977,-1.695284,0.910030,0.414051,-0.018596,-0.007787
6514,0.263708,7.498816,6.533340,-0.387366,0.474174,-0.639299,48.937183,-1.535136,-1.697510,0.910089,0.413931,-0.018327,-0.007933
6515,0.264109,7.516662,6.521014,-0.518527,0.390276,-0.550830,48.930706,-1.505220,-1.699909,0.910114,0.413884,-0.018097,-0.008062
6516,0.272723,7.513944,6.524912,-0.498544,0.407036,-0.613370,48.932076,-1.486008,-1.703122,0.910110,0.413898,-0.017956,-0.008156
6517,0.271207,7.485229,6.533748,-0.345917,0.353566,-0.489699,48.922218,-1.475665,-1.705755,0.910146,0.413821,-0.017883,-0.008216
6518,0.263982,7.493949,6.518775,-0.248252,0.130726,-0.356882,48.913177,-1.470086,-1.708962,0.910178,0.413749,-0.017850,-0.008263
6519,0.269888,7.499536,6.519351,-0.187118,0.087940,-0.248476,48.918110,-1.471123,-1.713157,0.910160,0.413788,-0.017873,-0.008292
6520,0.265207,7.494770,6.533135,-0.103133,0.153492,-0.213310,48.920811,-1.474552,-1.715375,0.910150,0.413808,-0.017909,-0.008297
6521,0.255754,7.508280,6.543898,-0.614312,0.032920,-0.022542,48.909580,-1.473984,-1.715635,0.910191,0.413719,-0.017905,-0.008303
6522,0.254291,7.514101,6.548316,-0.863022,-0.133399,0.233805,48.886967,-1.476397,-1.714634,0.910272,0.413539,-0.017918,-0.008290
6523,0.246307,7.494913,6.555687,-1.633644,-0.006715,0.137636,48.841671,-1.476602,-1.712229,0.910436,0.413180,-0.017908,-0.008277
6524,0.245839,7.489236,6.577623,-2.787375,0.074216,0.035341,48.751545,-1.467765,-1.709072,0.910761,0.412466,-0.017820,-0.008298
6525,0.248394,7.474761,6.598068,-4.479777,0.026952,0.068871,48.611435,-1.460949,-1.706188,0.911265,0.411353,-0.017745,-0.008321
6526,0.255111,7.453736,6.618966,-6.362904,0.265006,-0.298883,48.413879,-1.453370,-1.704663,0.911974,0.409783,-0.017665,-0.008367
6527,0.265768,7.459784,6.656380,-9.559842,0.705985,-1.069456,48.133030,-1.428676,-1.707357,0.912976,0.407550,-0.017457,-0.008519
6528,0.254237,7.397856,6.720302,-12.621028,0.783789,-1.470747,47.741020,-1.384682,-1.716687,0.914366,0.404430,-0.017110,-0.008809
6529,0.246927,7.327324,6.756967,-15.041416,0.567098,-1.229631,47.246670,-1.338907,-1.729656,0.916103,0.400488,-0.016751,-0.009146
6530,0.241785,7.252149,6.806094,-16.518795,0.405335,-0.661960,46.685429,-1.308475,-1.738474,0.918054,0.396000,-0.016493,-0.009404
6531,0.229344,7.170011,6.878361,-18.089279,0.162702,-0.091242,46.070122,-1.295677,-1.739381,0.920168,0.391066,-0.016343,-0.009544
6532,0.216275,7.042910,6.963736,-18.434553,-0.217239,0.351275,45.409607,-1.298132,-1.735856,0.922407,0.385756,-0.016295,-0.009601
6533,0.230449,6.990403,7.023041,-18.042818,-0.369822,0.612212,44.747849,-1.315963,-1.730273,0.924619,0.380421,-0.016365,-0.009591
6534,0.232979,6.934390,7.112630,-17.608269,-0.176039,0.206337,44.111202,-1.334578,-1.725926,0.926718,0.375276,-0.016448,-0.009585
6535,0.232899,6.855832,7.197284,-17.620804,0.087943,-0.950302,43.483559,-1.328510,-1.734911,0.928759,0.370194,-0.016375,-0.009768
6536,0.228367,6.781878,7.270037,-17.067217,0.222231,-1.649170,42.865410,-1.294851,-1.761981,0.930741,0.365180,-0.016135,-0.010183
6537,0.225170,6.738629,7.319245,-16.937748,0.322948,-1.949777,42.270199,-1.247100,-1.799323,0.932624,0.360343,-0.015811,-0.010721
6538,0.218117,6.691562,7.399361,-17.949562,0.745630,-2.325150,41.673954,-1.186493,-1.840028,0.934485,0.355490,-0.015387,-0.011323
6539,0.204793,6.626766,7.474343,-19.490831,1.322433,-2.590662,41.039936,-1.106214,-1.878506,0.936436,0.350322,-0.014785,-0.011968
6540,0.191377,6.530805,7.553132,-20.694889,1.764957,-2.576931,40.358051,-1.010213,-1.909989,0.938503,0.344755,-0.014023,-0.012603
6541,0.170900,6.436609,7.620703,-21.863871,2.111353,-2.785989,39.634026,-0.901754,-1.936668,0.940662,0.338833,-0.013131,-0.013231
6542,0.157321,6.333268,7.709990,-23.031338,2.401287,-2.393831,38.869167,-0.787768,-1.955660,0.942901,0.332563,-0.012160,-0.013806
6543,0.131114,6.206357,7.774640,-23.216143,2.521845,-2.064235,38.077568,-0.676040,-1.962499,0.945176,0.326059,-0.011162,-0.014264
6544,0.111420,6.087873,7.862164,-22.964563,2.367746,-1.675136,37.283112,-0.570691,-1.961737,0.947413,0.319515,-0.010190,-0.014629
6545,0.088166,6.016233,7.934091,-22.282619,2.206025,-1.028163,36.510742,-0.478635,-1.951862,0.949546,0.313137,-0.009301,-0.014867
6546,0.090454,5.914502,8.027156,-21.739470,2.201453,-0.442211,35.766956,-0.403960,-1.928300,0.951561,0.306980,-0.008522,-0.014931
6547,0.095102,5.812080,8.097973,-20.590525,2.061019,-0.198026,35.051823,-0.347563,-1.895722,0.953461,0.301047,-0.007873,-0.014861
6548,0.095350,5.691123,8.176466,-19.594200,1.709963,0.256765,34.368908,-0.310777,-1.858909,0.955242,0.295367,-0.007383,-0.014696
6549,0.089328,5.622538,8.221826,-19.159380,1.517585,0.288888,33.713886,-0.288131,-1.821043,0.956920,0.289907,-0.007014,-0.014479
6550,0.091298,5.589211,8.345574,-20.158831,1.567821,0.346954,33.062370,-0.269178,-1.783724,0.958557,0.284467,-0.006681,-0.014254
6551,0.078890,5.492955,8.412573,-22.694860,1.726402,1.042851,32.355331,-0.252721,-1.734391,0.960299,0.278552,-0.006335,-0.013921
6552,0.053180,5.364425,8.460608,-24.258902,1.877403,0.908612,31.576769,-0.228682,-1.674872,0.962176,0.272027,-0.005897,-0.013521
6553,0.040296,5.274861,8.520593,-25.343763,1.967417,0.476784,30.758453,-0.188007,-1.621917,0.964100,0.265157,-0.005335,-0.013212
6554,0.036677,5.133327,8.596292,-24.812653,1.675959,0.524091,29.933643,-0.144995,-1.576856,0.965988,0.258218,-0.004776,-0.012967
6555,0.031391,4.943378,8.591939,-22.772467,1.440950,0.348620,29.143253,-0.109397,-1.538592,0.967749,0.251555,-0.004302,-0.012754
6556,0.020682,4.843503,8.652590,-18.943897,1.204417,-0.536409,28.451159,-0.071184,-1.520074,0.969252,0.245710,-0.003862,-0.012705
6557,0.025589,4.798988,8.732074,-15.836967,0.635222,-0.507403,27.889702,-0.039490,-1.520913,0.970444,0.240962,-0.003533,-0.012798
6558,0.022559,4.718152,8.764502,-13.357092,0.381870,-0.014503,27.434238,-0.027358,-1.520737,0.971393,0.237104,-0.003379,-0.012835
6559,0.021980,4.649416,8.806586,-12.422957,0.807547,-0.000741,27.038010,-0.017521,-1.511867,0.972208,0.233746,-0.003233,-0.012792
6560,0.027249,4.618256,8.863994,-12.305165,0.883772,-0.095312,26.662527,-0.001563,-1.500506,0.972970,0.230561,-0.003032,-0.012738
6561,0.035732,4.574508,8.892929,-12.570331,0.851626,-0.051009,26.291304,0.011172,-1.489716,0.973713,0.227409,-0.002862,-0.012681
6562,0.024812,4.486923,8.913541,-13.566430,1.422216,-0.107415,25.896839,0.031502,-1.475316,0.974491,0.224059,-0.002617,-0.012608
6563,0.023219,4.424611,8.978728,-15.066160,1.771558,-0.482745,25.451534,0.070482,-1.460995,0.975354,0.220275,-0.002209,-0.012572
6564,0.007034,4.338829,9.005386,-15.981511,1.531904,-0.555951,24.959520,0.116210,-1.453078,0.976291,0.216090,-0.001750,-0.012600
6565,-0.009535,4.240047,9.021343,-16.971674,1.705809,-0.674948,24.430634,0.166639,-1.449072,0.977276,0.211587,-0.001254,-0.012667
6566,-0.017585,4.124952,9.061593,-17.636890,1.742392,-0.159167,23.864672,0.219483,-1.438166,0.978309,0.206763,-0.000721,-0.012675
6567,-0.017012,4.023491,9.097267,-17.552954,1.318128,0.211659,23.279896,0.258076,-1.416906,0.979352,0.201772,-0.000289,-0.012565
6568,-0.021096,3.929388,9.115729,-17.617031,1.113576,0.240685,22.695215,0.281693,-1.394055,0.980370,0.196775,0.000016,-0.012411
6569,-0.025225,3.855824,9.176438,-17.983208,1.136381,0.416203,22.107651,0.300826,-1.369509,0.981368,0.191748,0.000285,-0.012232
6570,-0.025812,3.762530,9.218219,-17.975513,0.655625,0.797721,21.516521,0.308998,-1.339470,0.982347,0.186683,0.000467,-0.011987
6572,-0.033529,3.668724,9.273126,-17.906794,0.621972,0.521562,20.925503,0.309689,-1.311133,0.983300,0.181614,0.000580,-0.011742
6573,-0.041533,3.572622,9.316586,-17.806042,0.821810,0.323214,20.335577,0.319445,-1.289354,0.984223,0.176550,0.000757,-0.011567
6574,-0.042433,3.465429,9.368997,-16.887426,0.841601,0.503291,19.758238,0.334636,-1.266829,0.985102,0.171591,0.000980,-0.011392
6575,-0.032011,3.360562,9.389675,-15.935285,0.980389,0.602502,19.207081,0.347659,-1.239276,0.985918,0.166851,0.001187,-0.011169
6576,-0.035254,3.273294,9.435249,-14.894650,1.485378,0.494193,18.687609,0.368247,-1.208566,0.986667,0.162382,0.001458,-0.010928
6577,-0.041934,3.184206,9.445699,-14.432339,1.669929,0.175305,18.193497,0.403242,-1.181255,0.987359,0.158128,0.001845,-0.010735
6578,-0.055585,3.082455,9.478705,-14.540758,1.840765,-0.123756,17.700871,0.449860,-1.162379,0.988029,0.153886,0.002318,-0.010627
6579,-0.060567,3.007725,9.507469,-14.276882,1.894114,0.086841,17.207197,0.501701,-1.144321,0.988682,0.149632,0.002835,-0.010528
6580,-0.068181,2.923347,9.528496,-13.869560,1.834535,0.021246,16.725904,0.551788,-1.124493,0.989301,0.145481,0.003337,-0.010409
6581,-0.076823,2.823148,9.553276,-13.944468,1.602524,-0.215253,16.245237,0.598481,-1.111421,0.989901,0.141334,0.003800,-0.010339
6582,-0.081729,2.752370,9.581188,-13.203028,1.018018,0.088428,15.772890,0.631110,-1.101535,0.990474,0.137254,0.004136,-0.010277
6583,-0.075734,2.701510,9.598166,-12.305874,0.525040,0.363123,15.336627,0.640333,-1.087433,0.990990,0.133483,0.004271,-0.010150
6584,-0.086721,2.614070,9.606364,-11.947336,0.036635,0.094590,14.925564,0.633323,-1.077611,0.991464,0.129926,0.004258,-0.010042
6585,-0.080671,2.559832,9.622747,-11.880242,-0.576887,-0.047295,14.522480,0.611492,-1.079124,0.991916,0.126436,0.004103,-0.010016
6586,-0.074097,2.492231,9.623868,-11.173752,-0.818097,0.091594,14.136837,0.574059,-1.084098,0.992337,0.123094,0.003807,-0.010005
6587,-0.066074,2.420319,9.637074,-10.900624,-0.744974,-0.375308,13.767051,0.534186,-1.094895,0.992730,0.119889,0.003483,-0.010044
6588,-0.063582,2.358192,9.650158,-10.860974,-0.835121,-0.627056,13.401090,0.497502,-1.117246,0.993108,0.116716,0.003174,-0.010190
6589,-0.055241,2.314741,9.671861,-10.624449,-0.702477,-0.781148,13.043736,0.463484,-1.145858,0.993466,0.113616,0.002883,-0.010394
6590,-0.056697,2.251091,9.677405,-10.378738,-0.533203,-0.697197,12.698018,0.435743,-1.174339,0.993803,0.110617,0.002646,-0.010605
6591,-0.054874,2.199331,9.710576,-10.529766,-0.336441,-0.732275,12.354125,0.416071,-1.200631,0.994129,0.107633,0.002482,-0.010807
6592,-0.051125,2.164076,9.735188,-10.485435,-0.080165,-0.173767,12.013848,0.402375,-1.216717,0.994443,0.104679,0.002381,-0.010927
6593,-0.045616,2.109742,9.756021,-10.119088,0.101335,0.250459,11.685748,0.391491,-1.215220,0.994739,0.101830,0.002319,-0.010897
6594,-0.043521,2.067737,9.751578,-9.635214,0.363702,0.451901,11.376370,0.384991,-1.201998,0.995012,0.099144,0.002303,-0.010770
6595,-0.048130,2.014218,9.783673,-9.171150,0.786302,0.557208,11.085690,0.390082,-1.181552,0.995262,0.096619,0.002392,-0.010591
6596,-0.047895,1.984288,9.797003,-8.734529,0.885414,0.700661,10.813321,0.404099,-1.155446,0.995491,0.094254,0.002560,-0.010370
6597,-0.047704,1.926810,9.798586,-8.728201,0.998252,0.235271,10.550579,0.421807,-1.134054,0.995706,0.091972,0.002755,-0.010193
6598,-0.051438,1.881206,9.794527,-9.225440,1.436109,-0.532252,10.277754,0.451919,-1.131345,0.995921,0.089604,0.003043,-0.010186
6599,-0.061629,1.807557,9.808974,-9.953144,1.649665,-1.034266,9.978186,0.497811,-1.147791,0.996148,0.087004,0.003456,-0.010356
6600,-0.076318,1.739169,9.788503,-10.546642,1.422252,-1.650730,9.647040,0.549401,-1.183029,0.996390,0.084131,0.003909,-0.010690
6601,-0.092501,1.683322,9.801956,-11.745955,1.367294,-2.305348,9.283017,0.603012,-1.240329,0.996644,0.080972,0.004369,-0.011214
6602,-0.100565,1.602215,9.809109,-11.910726,1.419163,-2.328234,8.891787,0.659420,-1.309209,0.996904,0.077577,0.004851,-0.011836
6603,-0.109801,1.530899,9.821519,-11.433125,1.213146,-2.145121,8.500318,0.711980,-1.376283,0.997153,0.074179,0.005306,-0.012437
6604,-0.123759,1.469168,9.853223,-11.288178,1.298589,-2.244304,8.118616,0.762857,-1.442646,0.997384,0.070865,0.005749,-0.013028
6605,-0.138994,1.420164,9.877643,-11.082164,1.826571,-2.489980,7.746603,0.826790,-1.513588,0.997596,0.067638,0.006306,-0.013665
6606,-0.147663,1.341014,9.883213,-10.207793,1.725879,-2.242782,7.392525,0.898235,-1.583962,0.997787,0.064567,0.006930,-0.014298
6607,-0.156415,1.304611,9.877235,-10.026172,1.173501,-2.564753,7.058779,0.957192,-1.657317,0.997957,0.061673,0.007446,-0.014949
6608,-0.162886,1.242358,9.879913,-9.783468,0.726399,-2.613581,6.737229,0.998221,-1.739054,0.998112,0.058883,0.007803,-0.015661
6609,-0.155006,1.183284,9.881882,-9.565196,0.143454,-2.288552,6.421664,1.016740,-1.818419,0.998257,0.056142,0.007969,-0.016339
6610,-0.142019,1.148950,9.879426,-9.763465,-0.375462,-1.920791,6.110910,1.007859,-1.888325,0.998397,0.053438,0.007903,-0.016923
6611,-0.140918,1.084576,9.874293,-10.282158,-0.427473,-2.348034,5.790950,0.985513,-1.960141,0.998533,0.050652,0.007724,-0.017517
6612,-0.144843,0.999705,9.897798,-10.190558,-0.265840,-2.270199,5.453991,0.967126,-2.037697,0.998667,0.047718,0.007583,-0.018162
6613,-0.137870,0.942552,9.894081,-9.999828,-0.214066,-2.192366,5.114750,0.952519,-2.112445,0.998793,0.044764,0.007480,-0.018785
6614,-0.138423,0.903219,9.896212,-10.221057,-0.328619,-2.213719,4.780185,0.936222,-2.186252,0.998908,0.041850,0.007366,-0.019401
6615,-0.131260,0.828527,9.913747,-10.359884,-0.482848,-2.132835,4.440044,0.914618,-2.259412,0.999017,0.038885,0.007210,-0.020010
6616,-0.125147,0.784779,9.932156,-10.254572,-0.214411,-1.205062,4.098706,0.891532,-2.315624,0.999120,0.035909,0.007051,-0.020471
6617,-0.121545,0.758605,9.923967,-10.678662,0.136424,-0.516858,3.763979,0.876065,-2.344020,0.999217,0.032989,0.006968,-0.020693
6618,-0.126600,0.685467,9.930675,-11.864155,0.736000,-0.136892,3.407169,0.877107,-2.353594,0.999313,0.029879,0.007039,-0.020755
6619,-0.137070,0.591949,9.916723,-12.402741,1.564500,0.183558,3.010834,0.905584,-2.350457,0.999409,0.026427,0.007359,-0.020710
6620,-0.152661,0.505254,9.910618,-12.486693,2.074122,0.572671,2.592791,0.960910,-2.334890,0.999497,0.022790,0.007921,-0.020558
6621,-0.171874,0.426303,9.889968,-12.309761,2.003932,0.574196,2.170862,1.028409,-2.313088,0.999573,0.019120,0.008589,-0.020350
6622,-0.185368,0.348868,9.904484,-11.069275,1.811691,0.986193,1.770150,1.094274,-2.285127,0.999633,0.015633,0.009238,-0.020084
6623,-0.194418,0.304571,9.919125,-8.931508,1.360041,1.396665,1.430737,1.148956,-2.244089,0.999678,0.012679,0.009779,-0.019705
6624,-0.192027,0.289709,9.934506,-6.448752,0.725251,1.674384,1.184966,1.181933,-2.191932,0.999708,0.010535,0.010114,-0.019232
6625,-0.190028,0.266593,9.969060,-3.636160,0.340644,1.968896,1.057036,1.189216,-2.130054,0.999729,0.009415,0.010204,-0.018681
6626,-0.185048,0.262148,9.968920,-0.208402,-0.076078,2.261887,1.060763,1.174270,-2.058071,0.999742,0.009439,0.010079,-0.018052
6627,-0.176501,0.274025,9.962902,1.847662,-0.636282,1.787342,1.169775,1.137248,-1.989186,0.999746,0.010378,0.009745,-0.017458
6628,-0.172756,0.296506,9.955326,3.307148,-1.133936,1.163256,1.344201,1.081391,-1.938958,0.999742,0.011888,0.009236,-0.017029
6629,-0.174764,0.320785,9.954390,4.093691,-1.424008,0.504073,1.554511,1.019755,-1.910648,0.999727,0.013711,0.008671,-0.016791
6630,-0.165811,0.367149,9.936007,4.308029,-1.570589,-0.380949,1.783147,0.958092,-1.908479,0.999703,0.015697,0.008100,-0.016781
6631,-0.156732,0.386928,9.926847,3.841769,-1.740046,-1.114905,2.002760,0.893873,-1.933805,0.999672,0.017605,0.007503,-0.017008
6632,-0.163703,0.394084,9.886817,3.701870,-1.721735,-1.468912,2.188534,0.837755,-1.977976,0.999640,0.019220,0.006979,-0.017396
6633,-0.162023,0.444861,9.920952,3.201805,-1.265382,-1.578775,2.357729,0.802592,-2.029856,0.999604,0.020694,0.006637,-0.017853
6634,-0.141118,0.466563,9.938513,3.095463,-1.040999,-1.424652,2.521049,0.775229,-2.080634,0.999568,0.022117,0.006363,-0.018300
6635,-0.137208,0.457236,9.908480,3.062193,-1.115751,-1.127094,2.660683,0.743517,-2.124218,0.999535,0.023333,0.006055,-0.018681
6636,-0.130189,0.493979,9.900929,2.510019,-0.886845,-1.214070,2.779421,0.714210,-2.164424,0.999505,0.024366,0.005772,-0.019032
6637,-0.124150,0.524589,9.935190,1.909096,-0.531298,-1.160658,2.889123,0.693361,-2.204661,0.999476,0.025321,0.005563,-0.019384
6638,-0.116375,0.496250,9.905152,1.684934,-0.548096,-1.023323,2.967082,0.675558,-2.241706,0.999453,0.026000,0.005386,-0.019707
6639,-0.118374,0.498966,9.882575,1.170631,-0.628978,-0.974494,3.006136,0.656761,-2.276079,0.999439,0.026339,0.005207,-0.020004
6640,-0.114762,0.511512,9.902976,0.729555,-0.665590,-0.872258,3.026946,0.638178,-2.308074,0.999430,0.026518,0.005034,-0.020280
6641,-0.108534,0.506837,9.916596,0.607381,-0.789194,-0.664733,3.036400,0.614850,-2.335078,0.999424,0.026598,0.004823,-0.020511
6642,-0.101597,0.493567,9.913982,0.454597,-0.854835,-0.602171,3.029916,0.585241,-2.357875,0.999423,0.026537,0.004560,-0.020702
6643,-0.094406,0.512604,9.920575,0.178233,-0.780111,-0.673889,3.018712,0.553386,-2.380777,0.999423,0.026434,0.004279,-0.020894
6644,-0.090351,0.506680,9.910902,0.304775,-0.575685,-0.690672,3.012859,0.525976,-2.404814,0.999421,0.026379,0.004036,-0.021098
6645,-0.095405,0.508616,9.918880,0.258885,-0.325438,-0.710510,3.007906,0.511590,-2.429057,0.999418,0.026334,0.003906,-0.021306
6646,-0.097032,0.529310,9.937118,0.345838,-0.088873,-0.585387,3.014762,0.511784,-2.451018,0.999413,0.026395,0.003901,-0.021497
6647,-0.092941,0.545042,9.928720,0.768631,0.060715,-0.525877,3.047211,0.518196,-2.469411,0.999402,0.026680,0.003947,-0.021660
6648,-0.098386,0.560105,9.917138,1.193047,0.080601,-0.565552,3.105799,0.527611,-2.487211,0.999384,0.027193,0.004013,-0.021820
6649,-0.106871,0.559297,9.941689,1.612876,-0.033753,-0.539614,3.177348,0.540786,-2.505321,0.999363,0.027820,0.004110,-0.021983
6650,-0.104917,0.587173,9.928163,1.973208,-0.096215,-0.565558,3.263727,0.552235,-2.523566,0.999337,0.028576,0.004189,-0.022149
6651,-0.100744,0.586453,9.913419,2.000895,-0.299101,-0.507575,3.357212,0.554408,-2.541525,0.999310,0.029393,0.004185,-0.022309
6652,-0.100731,0.592515,9.914971,1.688202,-0.485226,-0.460273,3.433909,0.546949,-2.558245,0.999287,0.030061,0.004101,-0.022456
6653,-0.102315,0.585620,9.915200,1.520357,-0.437877,-0.260378,3.488006,0.538139,-2.571149,0.999271,0.030531,0.004010,-0.022568
6654,-0.104752,0.616686,9.920868,0.780294,-0.306574,-0.089479,3.527553,0.535185,-2.577711,0.999259,0.030876,0.003975,-0.022626
6655,-0.092244,0.608236,9.943527,0.124174,-0.271438,0.015807,3.546091,0.530728,-2.579494,0.999254,0.031037,0.003932,-0.022641
6656,-0.089248,0.588296,9.929530,0.061489,-0.138696,0.009703,3.533966,0.522101,-2.579631,0.999258,0.030929,0.003859,-0.022639
6657,-0.082510,0.589393,9.918081,-0.077563,-0.096012,0.131779,3.509671,0.512806,-2.577737,0.999265,0.030715,0.003783,-0.022619
6658,-0.081728,0.597585,9.922414,-0.385930,0.004640,-0.138308,3.485591,0.503955,-2.578084,0.999272,0.030504,0.003711,-0.022619
6659,-0.084068,0.578095,9.937963,-0.346402,0.088525,-0.257328,3.455030,0.500751,-2.584731,0.999279,0.030237,0.003687,-0.022675
6660,-0.098652,0.569764,9.917834,0.182878,-0.074717,-0.072695,3.425297,0.505320,-2.590444,0.999285,0.029979,0.003731,-0.022725
6661,-0.103501,0.589059,9.927823,0.013369,-0.274508,-0.023874,3.412152,0.512868,-2.592545,0.999288,0.029866,0.003799,-0.022745
6662,-0.113288,0.591975,9.938966,0.107954,-0.007318,-0.239038,3.411360,0.527604,-2.597225,0.999286,0.029862,0.003926,-0.022790
6663,-0.102419,0.592315,9.924341,0.431451,-0.085006,0.131754,3.420382,0.542978,-2.599099,0.999283,0.029943,0.004058,-0.022810
6664,-0.086371,0.600312,9.891836,0.332304,-0.425274,0.208049,3.437882,0.535732,-2.593908,0.999280,0.030094,0.003993,-0.022764
6665,-0.077334,0.603352,9.919588,-0.287158,-0.132386,-0.297026,3.446558,0.515418,-2.595873,0.999278,0.030166,0.003813,-0.022776
6666,-0.061572,0.600098,9.927232,-0.168099,-0.018108,-0.342793,3.443505,0.492673,-2.606625,0.999278,0.030135,0.003613,-0.022864
6667,-0.030081,0.582681,9.930255,-0.101007,-0.836323,0.230974,3.432944,0.438560,-2.609387,0.999282,0.030033,0.003142,-0.022873
6668,-0.037143,0.552662,9.917062,-0.468974,-1.509618,0.137912,3.396086,0.353856,-2.605775,0.999296,0.029694,0.002412,-0.022819
6669,-0.056187,0.563504,9.905002,-0.476859,-1.566246,-0.048242,3.348377,0.281454,-2.607499,0.999310,0.029264,0.001790,-0.022815
6670,-0.066232,0.584339,9.899348,-0.290769,-1.465487,0.321028,3.326403,0.236734,-2.605960,0.999317,0.029064,0.001404,-0.022790
6671,-0.082668,0.576925,9.916299,-0.186984,-0.810638,0.336275,3.321231,0.226669,-2.597216,0.999320,0.029016,0.001320,-0.022711
6672,-0.090553,0.584970,9.923367,-0.141170,0.128162,0.093631,3.320429,0.259511,-2.590705,0.999321,0.029016,0.001608,-0.022662
6673,-0.076606,0.593827,9.937096,0.124442,0.868553,0.232473,3.332832,0.315499,-2.584256,0.999317,0.029135,0.002096,-0.022620
6675,-0.056358,0.581329,9.958941,0.069581,1.092991,0.345385,3.345075,0.363373,-2.572689,0.999315,0.029251,0.002514,-0.022532
6676,-0.042469,0.555476,9.934913,0.196142,0.741954,0.363699,3.338172,0.383995,-2.559181,0.999319,0.029194,0.002698,-0.022419
6677,-0.043234,0.575769,9.926296,-0.130515,0.117681,0.256894,3.325722,0.376556,-2.548108,0.999324,0.029084,0.002639,-0.022320
6678,-0.060047,0.582806,9.946942,-0.380761,-0.297480,0.168397,3.317995,0.359309,-2.541197,0.999328,0.029013,0.002492,-0.022256
6679,-0.068534,0.588239,9.948342,-0.659943,-0.544678,0.026486,3.308450,0.345395,-2.538716,0.999332,0.028927,0.002373,-0.022230
6680,-0.077192,0.581671,9.914219,-0.524059,-0.404203,-0.037608,3.298309,0.340837,-2.539755,0.999334,0.028838,0.002335,-0.022238
6681,-0.072267,0.587424,9.924779,-0.626203,-0.126368,-0.063555,3.290642,0.346736,-2.541879,0.999335,0.028772,0.002387,-0.022258
6682,-0.067766,0.562510,9.928052,-0.255376,0.087341,0.177537,3.279388,0.355923,-2.540002,0.999338,0.028676,0.002470,-0.022244
6683,-0.070537,0.556221,9.901265,0.063467,0.464307,0.009681,3.266889,0.372867,-2.536420,0.999341,0.028570,0.002621,-0.022216
6684,-0.065077,0.565137,9.930264,0.304515,0.487232,0.121071,3.266898,0.393044,-2.533380,0.999341,0.028574,0.002798,-0.022195
6685,-0.052648,0.573195,9.950474,0.658542,0.017188,0.378957,3.284701,0.393594,-2.524567,0.999339,0.028729,0.002801,-0.022118
6686,-0.059240,0.580524,9.934551,0.771521,-0.202640,0.252310,3.316065,0.377993,-2.514194,0.999333,0.028999,0.002662,-0.022025
6687,-0.066915,0.572866,9.925392,0.609804,-0.222507,-0.005569,3.343010,0.366939,-2.510477,0.999327,0.029232,0.002561,-0.021990
6688,-0.066603,0.584281,9.925853,0.423650,-0.469690,-0.016252,3.361313,0.357484,-2.511508,0.999323,0.029390,0.002475,-0.021997
6689,-0.077288,0.587899,9.906250,0.202431,-0.135443,-0.342804,3.376772,0.356566,-2.518040,0.999318,0.029525,0.002462,-0.022054
6690,-0.083915,0.562766,9.925468,-0.130284,0.322478,-0.559494,3.369827,0.378545,-2.532920,0.999316,0.029469,0.002651,-0.022190
6691,-0.075926,0.571953,9.919206,-0.139574,0.290558,-0.631220,3.348418,0.405435,-2.552245,0.999317,0.029288,0.002885,-0.022364
6692,-0.060014,0.596313,9.914015,-0.218906,0.330232,-0.643427,3.344292,0.417010,-2.572834,0.999313,0.029254,0.002982,-0.022547
6693,-0.055738,0.584161,9.929063,-0.351585,0.357596,-0.643420,3.344336,0.416776,-2.593507,0.999309,0.029255,0.002974,-0.022727
6694,-0.057427,0.572057,9.950510,-0.154761,-0.210169,-0.393163,3.333168,0.405019,-2.610629,0.999309,0.029156,0.002870,-0.022873
6695,-0.051153,0.597700,9.938875,0.135202,-0.773367,-0.120014,3.337304,0.372708,-2.620090,0.999307,0.029186,0.002585,-0.022947
6696,-0.057707,0.588368,9.936971,0.223811,-0.941320,0.116511,3.356573,0.331581,-2.621730,0.999303,0.029346,0.002222,-0.022952
6697,-0.065637,0.579672,9.929978,0.350487,-1.040501,0.102778,3.369118,0.298888,-2.620000,0.999301,0.029449,0.001934,-0.022929
6698,-0.066959,0.587567,9.930779,0.452725,-0.855776,0.114980,3.382617,0.278228,-2.618236,0.999299,0.029562,0.001752,-0.022908
6699,-0.056628,0.578446,9.912792,0.791462,-0.410115,-0.037617,3.401180,0.268364,-2.618204,0.999294,0.029722,0.001662,-0.022906
6700,-0.057939,0.579399,9.902764,0.928732,0.061472,-0.268038,3.421850,0.272433,-2.623670,0.999288,0.029903,0.001692,-0.022955
6701,-0.048453,0.582059,9.941611,1.096501,0.087461,-0.200900,3.445248,0.281431,-2.631370,0.999280,0.030109,0.001764,-0.023024
6702,-0.035162,0.583361,9.958479,1.129963,-0.179624,-0.365697,3.468655,0.274372,-2.640955,0.999272,0.030312,0.001695,-0.023106
6703,-0.035182,0.583311,9.951368,1.201543,-0.835873,-0.513707,3.490212,0.245732,-2.656700,0.999264,0.030495,0.001437,-0.023236
6704,-0.035330,0.607884,9.937210,0.722334,-1.647742,-0.496918,3.513562,0.195897,-2.676086,0.999255,0.030688,0.000992,-0.023393
6705,-0.029811,0.617174,9.918972,0.322579,-1.875149,-0.676974,3.535681,0.132960,-2.699208,0.999245,0.030868,0.000433,-0.023577
6706,-0.029426,0.622254,9.894987,0.012889,-1.545540,-0.767004,3.550350,0.078632,-2.726725,0.999236,0.030985,-0.000051,-0.023803
6707,-0.033817,0.628563,9.876938,-0.051097,-1.154801,-0.554907,3.562491,0.047932,-2.751482,0.999228,0.031085,-0.000328,-0.024010
6708,-0.023147,0.641769,9.872161,-0.244725,-0.439006,-0.481671,3.578210,0.039435,-2.770355,0.999220,0.031220,-0.000411,-0.024173
6709,-0.014294,0.645067,9.887136,-0.194161,0.423228,-0.434372,3.596850,0.050907,-2.785586,0.999212,0.031385,-0.000319,-0.024308
6710,-0.014800,0.637097,9.914138,-0.120760,1.084004,-0.297042,3.611143,0.083217,-2.796156,0.999205,0.031516,-0.000043,-0.024409
6711,-0.019112,0.632275,9.935761,-0.145102,1.302253,-0.371815,3.615865,0.128714,-2.804766,0.999201,0.031567,0.000350,-0.024497
6712,-0.020570,0.624225,9.953829,-0.013871,0.990975,-0.266526,3.613412,0.168881,-2.812977,0.999200,0.031554,0.000699,-0.024580
6713,-0.020210,0.619262,9.958787,0.086786,0.328681,-0.092568,3.607727,0.185927,-2.817584,0.999200,0.031508,0.000847,-0.024624
6714,-0.024228,0.602801,9.945618,0.234670,-0.174940,-0.025424,3.596872,0.180322,-2.819436,0.999202,0.031413,0.000800,-0.024639
6715,-0.032325,0.599036,9.928489,0.255843,-0.890626,0.076814,3.581430,0.159149,-2.819767,0.999207,0.031273,0.000619,-0.024636
6716,-0.036535,0.612255,9.916211,0.190102,-1.343788,0.040189,3.572827,0.126646,-2.820195,0.999210,0.031191,0.000337,-0.024631
6717,-0.038669,0.634337,9.900817,0.177923,-1.171260,-0.086469,3.582682,0.097210,-2.823574,0.999207,0.031271,0.000077,-0.024652
6718,-0.030114,0.631530,9.891941,0.220758,-0.798819,-0.104787,3.602930,0.079101,-2.828785,0.999200,0.031444,-0.000086,-0.024693
6719,-0.028508,0.633908,9.894736,0.060625,-0.302785,-0.187193,3.618696,0.074625,-2.834776,0.999195,0.031580,-0.000130,-0.024744
6720,-0.016609,0.658335,9.910561,-0.157420,0.106234,-0.330635,3.637443,0.080804,-2.843567,0.999188,0.031745,-0.000083,-0.024822
6721,-0.005799,0.655582,9.903292,-0.051910,0.269491,-0.269595,3.661579,0.085511,-2.853115,0.999179,0.031957,-0.000050,-0.024907
6722,-0.011919,0.626803,9.898548,-0.169331,0.357952,-0.242126,3.667182,0.091161,-2.860947,0.999176,0.032007,-0.000004,-0.024977
6723,-0.019841,0.628970,9.914186,-0.395219,0.556326,-0.295534,3.651474,0.107490,-2.868927,0.999178,0.031873,0.000140,-0.025051
6724,-0.016356,0.636142,9.931946,-0.457798,0.521237,-0.303164,3.635256,0.126876,-2.877747,0.999180,0.031736,0.000310,-0.025133
6725,-0.019022,0.605588,9.913531,-0.116075,0.380831,-0.202452,3.615152,0.139874,-2.885229,0.999184,0.031564,0.000426,-0.025202
6726,-0.024985,0.606617,9.927400,-0.110143,0.121415,-0.120052,3.589871,0.147475,-2.890118,0.999190,0.031345,0.000496,-0.025246
6727,-0.015766,0.613792,9.946589,-0.191135,-0.099879,-0.147517,3.570078,0.143714,-2.894582,0.999194,0.031171,0.000466,-0.025284
6728,-0.022857,0.621121,9.931983,0.036195,-0.307451,-0.132254,3.563292,0.131483,-2.899668,0.999195,0.031110,0.000360,-0.025325
6729,-0.027394,0.604728,9.930131,0.046830,-0.426464,-0.164300,3.558831,0.120763,-2.905375,0.999195,0.031068,0.000266,-0.025372
6730,-0.034183,0.612902,9.952885,-0.604817,-0.537789,-0.419134,3.540062,0.113819,-2.916098,0.999198,0.030903,0.000207,-0.025464
6731,-0.029352,0.625689,9.920406,-0.452201,-0.510235,-0.570206,3.525233,0.108319,-2.933629,0.999198,0.030773,0.000157,-0.025615
6732,-0.018377,0.633088,9.899742,0.027075,-0.295044,-0.327586,3.535011,0.100278,-2.949359,0.999192,0.030856,0.000081,-0.025750
6733,-0.009525,0.612864,9.912844,-0.032345,-0.118068,-0.368783,3.546292,0.090165,-2.961348,0.999187,0.030952,-0.000013,-0.025852
6734,-0.008342,0.622834,9.903925,0.323231,-0.133386,-0.234499,3.555705,0.079327,-2.971636,0.999182,0.031032,-0.000113,-0.025938
6735,-0.000965,0.617453,9.896238,0.930594,-0.099892,0.113418,3.582155,0.065927,-2.973887,0.999174,0.031260,-0.000236,-0.025954
6736,-0.007112,0.595737,9.903407,0.962555,0.102990,0.194296,3.603282,0.057441,-2.968781,0.999170,0.031442,-0.000314,-0.025908
6737,-0.023127,0.616853,9.921384,0.500077,0.066402,0.021864,3.612227,0.064282,-2.965026,0.999168,0.031521,-0.000255,-0.025877
6738,-0.018960,0.619084,9.912658,0.539695,0.035964,0.116466,3.622554,0.075919,-2.962624,0.999166,0.031614,-0.000155,-0.025859
6739,-0.014064,0.627334,9.914173,0.284838,0.086353,0.185130,3.632934,0.081826,-2.957481,0.999164,0.031706,-0.000105,-0.025816
6740,-0.017236,0.633717,9.920247,0.127682,0.177924,0.073738,3.641508,0.087842,-2.952893,0.999162,0.031782,-0.000053,-0.025777
6741,-0.019877,0.628641,9.934189,-0.197340,0.126072,-0.088013,3.640480,0.096587,-2.952809,0.999163,0.031775,0.000024,-0.025779
6742,-0.013928,0.614385,9.943127,-0.288979,0.034523,-0.043762,3.621930,0.100238,-2.954848,0.999167,0.031614,0.000059,-0.025798
6743,-0.019983,0.641520,9.928734,-0.279843,0.061989,-0.008665,3.609972,0.101762,-2.955623,0.999170,0.031510,0.000075,-0.025805
6744,-0.029713,0.633428,9.929781,-0.343855,0.164282,-0.048343,3.609157,0.112600,-2.956317,0.999170,0.031505,0.000169,-0.025814
6745,-0.030424,0.633121,9.920973,-0.417044,0.025511,-0.013252,3.603334,0.126828,-2.957130,0.999171,0.031458,0.000295,-0.025825
6746,-0.025516,0.635415,9.936239,-0.442921,0.039299,0.082878,3.597172,0.134730,-2.955888,0.999173,0.031406,0.000365,-0.025816
6747,-0.029248,0.627086,9.920164,-0.195670,0.127839,0.021839,3.592830,0.141889,-2.953958,0.999175,0.031370,0.000429,-0.025801
6748,-0.027044,0.611675,9.923856,-0.302516,-0.101019,0.021837,3.580705,0.146274,-2.953214,0.999178,0.031265,0.000470,-0.025796
6749,-0.026770,0.608484,9.916036,-0.325494,-0.209345,-0.081928,3.558986,0.143013,-2.954565,0.999184,0.031075,0.000446,-0.025807
6750,-0.027211,0.610711,9.919637,-0.162290,-0.075049,-0.037677,3.542084,0.140237,-2.956871,0.999188,0.030927,0.000425,-0.025826
6751,-0.021513,0.616162,9.901050,0.153565,-0.032324,0.044723,3.540521,0.138267,-2.956869,0.999188,0.030913,0.000409,-0.025826
6752,-0.022488,0.626902,9.908478,-0.142399,-0.050651,0.034043,3.548932,0.134766,-2.955624,0.999186,0.030985,0.000377,-0.025814
6753,-0.024338,0.620650,9.918461,-0.095020,0.050058,-0.004105,3.554260,0.134480,-2.955105,0.999185,0.031032,0.000373,-0.025809
6754,-0.024370,0.618816,9.922562,-0.017168,0.169088,-0.004106,3.556228,0.139094,-2.955006,0.999185,0.031050,0.000413,-0.025810
6755,-0.018404,0.638594,9.938771,-0.186456,0.217899,-0.030046,3.564039,0.143296,-2.955146,0.999182,0.031119,0.000448,-0.025812
6756,-0.024678,0.623640,9.931101,-0.267230,0.315536,-0.155170,3.568918,0.149493,-2.957644,0.999180,0.031163,0.000500,-0.025836
6757,-0.024166,0.606759,9.928740,-0.070415,0.367409,-0.168902,3.559727,0.160231,-2.962337,0.999182,0.031085,0.000594,-0.025879
6758,-0.027819,0.611918,9.927577,-0.137624,0.268217,-0.185687,3.547543,0.170314,-2.967602,0.999183,0.030981,0.000684,-0.025928
6759,-0.037007,0.617676,9.927277,-0.270394,0.320127,-0.284874,3.539073,0.184159,-2.974828,0.999184,0.030911,0.000804,-0.025995
6760,-0.042355,0.593452,9.922777,-0.230789,0.370551,-0.312345,3.522051,0.204831,-2.984083,0.999186,0.030767,0.000986,-0.026081
6761,-0.035085,0.604648,9.923004,-0.212578,0.266826,-0.091089,3.502009,0.220624,-2.990188,0.999189,0.030596,0.001127,-0.026138
6762,-0.032752,0.599984,9.915224,-0.314866,0.314107,-0.109399,3.487017,0.227630,-2.992956,0.999193,0.030467,0.001190,-0.026164
6763,-0.039187,0.604582,9.907866,-0.301155,0.544499,-0.170435,3.473875,0.239435,-2.996753,0.999195,0.030355,0.001295,-0.026200
6764,-0.032964,0.619561,9.936262,-0.420111,0.393399,0.001998,3.470093,0.250944,-2.998573,0.999195,0.030324,0.001396,-0.026219
6765,-0.038772,0.614563,9.919539,-0.259776,0.474222,0.005053,3.472868,0.258942,-2.997520,0.999195,0.030350,0.001465,-0.026212
6766,-0.045495,0.610567,9.915691,-0.325307,0.548976,-0.051404,3.473605,0.274012,-2.997211,0.999194,0.030360,0.001597,-0.026213
6767,-0.049504,0.619013,9.919575,-0.404556,0.593238,-0.030042,3.473767,0.294331,-2.997355,0.999193,0.030366,0.001774,-0.026220
6768,-0.050808,0.605804,9.931753,-0.369384,0.661911,-0.025464,3.470366,0.316067,-2.996966,0.999194,0.030342,0.001964,-0.026222
6769,-0.050995,0.588897,9.893830,-0.113061,0.640533,0.027944,3.458393,0.335812,-2.995636,0.999197,0.030242,0.002139,-0.026215
6770,-0.050698,0.584079,9.903126,-0.276433,0.635912,0.000479,3.439655,0.351663,-2.993952,0.999201,0.030082,0.002282,-0.026204
6771,-0.066322,0.589003,9.901023,-0.210897,0.753400,-0.138380,3.421674,0.373951,-2.994918,0.999205,0.029930,0.002481,-0.026218
6772,-0.078430,0.588544,9.918639,-0.146849,0.739740,-0.060562,3.410609,0.408136,-2.996777,0.999206,0.029842,0.002781,-0.026243
6773,-0.086271,0.592466,9.935237,-0.172805,0.631510,-0.025473,3.403296,0.444934,-2.996866,0.999207,0.029786,0.003103,-0.026253
6774,-0.099060,0.603244,9.930281,-0.107140,0.570616,-0.051421,3.404886,0.482847,-2.996907,0.999205,0.029809,0.003433,-0.026263
6775,-0.108342,0.612512,9.916112,0.070002,0.808839,0.026392,3.421173,0.528113,-2.995811,0.999199,0.029961,0.003825,-0.026266
6776,-0.098753,0.613157,9.932552,0.073215,0.992071,0.215601,3.443706,0.573032,-2.989805,0.999192,0.030167,0.004213,-0.026226
6778,-0.112903,0.606938,9.930622,-0.006023,1.022668,0.050797,3.458647,0.616081,-2.983217,0.999187,0.030307,0.004586,-0.026181
6779,-0.131064,0.598647,9.926215,-0.051769,1.210500,-0.008723,3.461585,0.671204,-2.980232,0.999184,0.030345,0.005067,-0.026169
6780,-0.131749,0.595323,9.935610,-0.120463,1.373925,-0.091133,3.455395,0.733147,-2.979335,0.999182,0.030305,0.005609,-0.026177
6781,-0.132477,0.583870,9.930683,-0.074767,1.276344,-0.080456,3.441871,0.787159,-2.979664,0.999182,0.030199,0.006083,-0.026193
6782,-0.138718,0.583811,9.888635,-0.198469,1.447277,-0.333764,3.424448,0.836631,-2.984010,0.999182,0.030059,0.006517,-0.026243
6783,-0.129915,0.590945,9.886248,-0.345003,1.825660,-0.149124,3.409750,0.885734,-2.988868,0.999182,0.029942,0.006947,-0.026297
6784,-0.123638,0.603066,9.905131,-0.462453,1.750719,-0.022462,3.402192,0.923987,-2.988087,0.999181,0.029884,0.007283,-0.026300
6785,-0.135610,0.602776,9.946970,-0.643943,1.477368,-0.033129,3.395455,0.951395,-2.985634,0.999181,0.029832,0.007524,-0.026285
6786,-0.143116,0.612034,9.977059,-0.836090,0.959896,0.043180,3.385876,0.968981,-2.982814,0.999183,0.029752,0.007680,-0.026264
6787,-0.161561,0.584515,10.003661,-0.727701,0.080845,0.340743,3.366024,0.971219,-2.975300,0.999189,0.029579,0.007706,-0.026198
6788,-0.158936,0.562838,9.975080,-0.338710,-0.947699,0.508597,3.333602,0.947208,-2.962259,0.999203,0.029290,0.007508,-0.026076
6789,-0.140874,0.546608,9.917363,-0.155808,-1.668066,0.597105,3.299327,0.886415,-2.946816,0.999219,0.028977,0.006989,-0.025924
6790,-0.139437,0.534382,9.878615,-0.189633,-1.771971,0.545228,3.261985,0.810291,-2.931586,0.999238,0.028633,0.006338,-0.025770
6791,-0.139887,0.538520,9.872332,-0.376025,-1.721667,0.304131,3.224152,0.744806,-2.921164,0.999254,0.028288,0.005778,-0.025661
6792,-0.127136,0.558681,9.891555,-0.577534,-1.488208,0.197316,3.197395,0.690150,-2.915970,0.999265,0.028043,0.005309,-0.025601
6793,-0.137520,0.556960,9.907157,-0.820137,-0.778589,-0.118554,3.176489,0.660211,-2.916733,0.999271,0.027854,0.005052,-0.025600
6794,-0.152599,0.547069,9.915341,-0.868965,0.053256,-0.423751,3.148376,0.675643,-2.926430,0.999275,0.027612,0.005190,-0.025687
6795,-0.134045,0.542639,9.947260,-0.768283,0.457837,-0.292534,3.117252,0.711087,-2.937942,0.999278,0.027349,0.005504,-0.025794
6796,-0.124209,0.535077,9.937334,-0.467717,0.535725,-0.097219,3.091496,0.736244,-2.943600,0.999281,0.027131,0.005728,-0.025848
6797,-0.124867,0.522782,9.928313,-0.466265,0.322087,-0.204034,3.066503,0.749733,-2.947966,0.999285,0.026916,0.005850,-0.025888
6798,-0.119152,0.528804,9.925029,-0.475484,0.112982,-0.284906,3.042871,0.750777,-2.955817,0.999289,0.026710,0.005862,-0.025956
6799,-0.120531,0.526149,9.931999,-0.544169,-0.169393,-0.178087,3.023516,0.740301,-2.963600,0.999292,0.026540,0.005774,-0.026020
6800,-0.132579,0.538144,9.915726,-0.647884,-0.352527,-0.222338,3.009601,0.729310,-2.970643,0.999295,0.026416,0.005679,-0.026078
6801,-0.132872,0.514007,9.926743,-0.626496,-0.195315,-0.292533,2.991371,0.725737,-2.979651,0.999297,0.026257,0.005650,-0.026155
6802,-0.131220,0.503242,9.913784,-0.411427,-0.103714,-0.182669,2.963061,0.726850,-2.987961,0.999302,0.026011,0.005665,-0.026227
6803,-0.116324,0.505069,9.901156,-0.361157,-0.239537,-0.245232,2.939400,0.719588,-2.995514,0.999306,0.025803,0.005605,-0.026290
6804,-0.101137,0.527512,9.923913,-0.437413,-0.109961,-0.210129,2.931031,0.698232,-3.003328,0.999307,0.025726,0.005419,-0.026353
6805,-0.110996,0.517108,9.910865,-0.316758,-0.207749,-0.051424,2.931661,0.677003,-3.007787,0.999307,0.025727,0.005233,-0.026387
6806,-0.127838,0.529184,9.902939,-0.293748,-0.280990,-0.066683,2.936697,0.669310,-3.009988,0.999306,0.025769,0.005164,-0.026405
6807,-0.110586,0.536917,9.947097,-0.263043,0.106614,0.037082,2.950753,0.668788,-3.010356,0.999303,0.025891,0.005156,-0.026408
6808,-0.104594,0.523740,9.960491,-0.006546,0.216412,0.281236,2.964005,0.665452,-3.004575,0.999301,0.026006,0.005125,-0.026358
6809,-0.122282,0.514360,9.914884,0.033170,-0.245961,0.166792,2.969942,0.662259,-2.997081,0.999302,0.026057,0.005098,-0.026292
6810,-0.129299,0.529457,9.912793,-0.078160,-0.514441,0.023352,2.976980,0.659787,-2.994483,0.999301,0.026117,0.005075,-0.026269
6811,-0.125435,0.527899,9.912384,0.051649,-0.471617,0.188148,2.989812,0.655539,-2.991663,0.999299,0.026228,0.005036,-0.026244
6812,-0.139209,0.517691,9.904808,0.083743,-0.250216,0.061489,2.998245,0.661039,-2.988063,0.999297,0.026303,0.005083,-0.026214
6813,-0.139515,0.499801,9.910387,0.068411,-0.080643,-0.045337,2.991696,0.679940,-2.988187,0.999298,0.026250,0.005249,-0.026219
6814,-0.120682,0.499921,9.909403,0.178135,0.171242,-0.233033,2.977853,0.695139,-2.992954,0.999299,0.026133,0.005384,-0.026264
6815,-0.102245,0.482250,9.894715,-0.003644,0.477895,-0.565684,2.956341,0.699392,-3.005981,0.999301,0.025947,0.005423,-0.026377
6816,-0.102871,0.486123,9.901202,-0.717999,0.502171,-0.994465,2.916248,0.699650,-3.031443,0.999304,0.025598,0.005428,-0.026597
6817,-0.116173,0.495925,9.908168,-1.137760,0.421207,-1.279810,2.868498,0.705802,-3.068715,0.999305,0.025185,0.005485,-0.026922
6818,-0.134306,0.508774,9.914557,-1.256769,0.395294,-1.273708,2.829587,0.724890,-3.110527,0.999303,0.024852,0.005651,-0.027288
6819,-0.149095,0.496553,9.938539,-1.456599,0.242836,-1.043299,2.792186,0.754307,-3.148483,0.999300,0.024535,0.005909,-0.027624
6820,-0.151652,0.494733,9.951752,-1.349728,0.346767,-0.959380,2.752012,0.786666,-3.181273,0.999298,0.024194,0.006194,-0.027914
6821,-0.148296,0.483700,9.945813,-1.134516,0.488800,-0.793059,2.717384,0.817322,-3.209700,0.999297,0.023901,0.006464,-0.028167
6822,-0.148145,0.481665,9.937144,-1.186338,0.407995,-0.588587,2.685875,0.841867,-3.231901,0.999296,0.023634,0.006681,-0.028364
6823,-0.147782,0.485137,9.933408,-1.236581,0.551462,-0.507714,2.659216,0.862463,-3.249208,0.999296,0.023407,0.006863,-0.028517
6824,-0.147299,0.471795,9.938026,-1.068617,0.737622,-0.236097,2.634702,0.884098,-3.260392,0.999296,0.023200,0.007056,-0.028617
6825,-0.152351,0.467489,9.952165,-0.993772,0.469044,0.058409,2.609755,0.902466,-3.262285,0.999299,0.022987,0.007222,-0.028636
6826,-0.144826,0.459553,9.944969,-0.635118,0.246208,0.207952,2.590243,0.907751,-3.257191,0.999304,0.022817,0.007274,-0.028591
6827,-0.130977,0.448630,9.925845,-0.351273,0.140771,0.352922,2.576757,0.895311,-3.247513,0.999310,0.022696,0.007171,-0.028504
6828,-0.131235,0.434937,9.932379,-0.421513,-0.182919,0.531464,2.558126,0.869652,-3.232904,0.999319,0.022527,0.006955,-0.028370
6829,-0.125450,0.445377,9.928242,-0.464278,-0.578324,0.423130,2.538677,0.832480,-3.217642,0.999330,0.022347,0.006638,-0.028229
6830,-0.123870,0.425110,9.921450,-0.618447,-0.595285,0.230871,2.514542,0.790435,-3.207696,0.999340,0.022126,0.006279,-0.028133
6831,-0.128926,0.423696,9.932929,-0.870330,-0.554195,0.182045,2.476708,0.757221,-3.201829,0.999350,0.021787,0.006000,-0.028073
6832,-0.138097,0.419100,9.916265,-0.704090,-0.825815,0.325481,2.439845,0.733251,-3.194505,0.999361,0.021460,0.005801,-0.028003
6833,-0.128033,0.427905,9.916306,-0.844492,-1.042466,0.146946,2.411986,0.705617,-3.187988,0.999369,0.021210,0.005568,-0.027940
6834,-0.125341,0.421516,9.944447,-0.792579,-0.909697,-0.045321,2.388555,0.674843,-3.187611,0.999375,0.020998,0.005306,-0.027930
6835,-0.123554,0.409071,9.940652,-0.070828,-1.115661,0.140841,2.372756,0.645427,-3.187439,0.999380,0.020853,0.005053,-0.027922
6836,-0.123568,0.426415,9.924223,0.223713,-1.635932,0.131683,2.379956,0.608079,-3.184753,0.999381,0.020907,0.004726,-0.027892
6837,-0.107900,0.430314,9.939922,0.495451,-1.837301,-0.117044,2.407459,0.556944,-3.186757,0.999378,0.021134,0.004273,-0.027902
6838,-0.084642,0.438960,9.931046,1.026623,-1.773249,0.026397,2.451316,0.492234,-3.190632,0.999372,0.021501,0.003697,-0.027925
6839,-0.079619,0.443452,9.910279,0.894023,-1.558161,0.012668,2.502829,0.428277,-3.192212,0.999364,0.021935,0.003127,-0.027928
6840,-0.068609,0.475573,9.913417,0.172497,-1.176723,-0.153655,2.550112,0.377461,-3.196343,0.999356,0.022335,0.002671,-0.027956
6841,-0.063967,0.473020,9.935438,-0.281950,-0.587743,-0.115503,2.583196,0.344850,-3.201897,0.999349,0.022616,0.002378,-0.027999
6842,-0.061289,0.458545,9.938534,-0.727364,-0.079610,-0.017843,2.585865,0.333764,-3.204494,0.999348,0.022637,0.002280,-0.028019
6843,-0.075898,0.440517,9.929996,-1.145458,0.102049,0.037086,2.555711,0.343442,-3.204151,0.999354,0.022376,0.002372,-0.028018
6844,-0.072537,0.437746,9.923918,-1.148561,0.154049,0.212563,2.511190,0.362411,-3.199852,0.999363,0.021992,0.002549,-0.027983
6845,-0.076366,0.412645,9.923062,-1.168504,0.393722,0.261387,2.459295,0.383945,-3.191659,0.999374,0.021545,0.002751,-0.027914
6846,-0.084660,0.398684,9.913064,-1.344177,0.572377,0.105736,2.393618,0.415032,-3.185034,0.999387,0.020979,0.003039,-0.027860
6847,-0.094161,0.417014,9.913934,-1.583841,0.827363,0.075210,2.333082,0.457686,-3.181157,0.999397,0.020461,0.003427,-0.027833
6848,-0.097154,0.409211,9.921489,-1.487679,0.874820,0.204908,2.285585,0.505139,-3.175336,0.999405,0.020058,0.003853,-0.027789
6849,-0.098619,0.369838,9.920349,-1.365685,0.891717,0.287302,2.227964,0.548144,-3.166084,0.999415,0.019566,0.004244,-0.027713
6850,-0.097108,0.372260,9.929770,-1.402463,0.861249,0.330025,2.162646,0.583261,-3.154871,0.999427,0.019004,0.004568,-0.027619
6851,-0.097649,0.357717,9.948833,-1.411740,0.632353,0.349861,2.100501,0.606923,-3.142774,0.999439,0.018467,0.004791,-0.027514
6852,-0.100013,0.341009,9.929068,-1.210477,0.244734,0.252202,2.037168,0.616883,-3.132421,0.999451,0.017917,0.004895,-0.027423
6853,-0.102685,0.335658,9.919873,-1.160276,0.304209,-0.010259,1.978312,0.621360,-3.128274,0.999461,0.017404,0.004948,-0.027385
6854,-0.109758,0.351592,9.938024,-1.056548,0.510200,-0.078925,1.937078,0.633882,-3.129339,0.999467,0.017048,0.005067,-0.027394
6855,-0.111327,0.333708,9.931169,-0.664361,0.626184,-0.136911,1.911308,0.654517,-3.132266,0.999469,0.016828,0.005253,-0.027422
6856,-0.106922,0.330510,9.910892,-0.098252,0.673467,-0.056035,1.897415,0.673877,-3.134773,0.999469,0.016712,0.005425,-0.027446
6857,-0.112779,0.330392,9.926932,0.277131,0.769561,-0.066716,1.901007,0.692974,-3.136011,0.999467,0.016748,0.005590,-0.027459
6858,-0.127841,0.332514,9.938825,0.638791,0.748212,-0.228464,1.918222,0.720106,-3.140062,0.999462,0.016904,0.005822,-0.027500
6859,-0.137918,0.326257,9.920099,1.203370,0.516350,-0.304763,1.947206,0.751432,-3.148250,0.999454,0.017165,0.006087,-0.027577
6860,-0.137814,0.346669,9.926320,2.121990,0.174622,-0.083507,2.004087,0.773122,-3.154290,0.999442,0.017667,0.006262,-0.027636
6861,-0.131224,0.347720,9.925472,3.698307,-0.058826,0.120967,2.105713,0.777312,-3.153526,0.999426,0.018554,0.006274,-0.027636
6862,-0.118335,0.370359,9.932402,5.703394,-0.225226,0.456674,2.265208,0.762939,-3.144060,0.999403,0.019941,0.006112,-0.027559
6863,-0.095774,0.429842,9.939059,8.740147,-0.495519,1.179972,2.526355,0.724253,-3.117115,0.999363,0.022208,0.005717,-0.027331
6864,-0.084113,0.487264,9.947211,11.253672,-0.912397,1.433293,2.900861,0.661114,-3.074389,0.999299,0.025457,0.005086,-0.026963
6865,-0.075653,0.560675,9.953820,13.939702,-1.292663,1.436365,3.371330,0.582908,-3.028326,0.999201,0.029540,0.004306,-0.026562
6866,-0.071676,0.666330,9.939909,17.490900,-1.920025,1.653060,3.941857,0.500205,-2.980137,0.999057,0.034494,0.003467,-0.026138
6867,-0.068150,0.777510,9.918386,19.586330,-2.657140,1.523366,4.602008,0.408586,-2.932793,0.998856,0.040227,0.002534,-0.025713
6868,-0.063460,0.889826,9.889649,20.964602,-3.244672,0.911477,5.323012,0.300811,-2.900596,0.998595,0.046487,0.001446,-0.025404
6869,-0.038333,1.023078,9.869911,22.388668,-3.302697,0.624609,6.092848,0.184570,-2.885733,0.998267,0.053169,0.000270,-0.025230
6870,-0.033037,1.166673,9.886061,23.600662,-3.021950,0.427768,6.910659,0.074760,-2.880101,0.997866,0.060268,-0.000864,-0.025125
6871,-0.030581,1.292973,9.899909,24.112236,-2.794552,0.179039,7.754486,-0.018255,-2.882334,0.997396,0.067594,-0.001860,-0.025082
6872,-0.017871,1.402154,9.883738,25.937527,-2.695293,0.131726,8.624027,-0.100334,-2.890115,0.996854,0.075142,-0.002769,-0.025081
6873,-0.005868,1.586796,9.876054,27.810110,-2.287787,-0.062079,9.554104,-0.171907,-2.901983,0.996209,0.083214,-0.003603,-0.025109
6875,0.004065,1.781929,9.826012,30.076517,-2.150362,0.179001,10.570024,-0.233309,-2.912964,0.995430,0.092029,-0.004368,-0.025122
6876,0.011931,1.988249,9.749757,31.145231,-1.898481,0.394136,11.660336,-0.288288,-2.916640,0.994509,0.101483,-0.005087,-0.025063
6877,0.035974,2.207421,9.703650,30.723251,-1.506240,0.397170,12.779337,-0.336272,-2.915960,0.993470,0.111179,-0.005747,-0.024959
6878,0.036227,2.460672,9.669806,30.254150,-1.126216,0.104172,13.906061,-0.372152,-2.918427,0.992329,0.120934,-0.006305,-0.024885
6879,0.030080,2.632621,9.593136,28.955042,-1.031504,-0.127800,15.015204,-0.393256,-2.928353,0.991109,0.130527,-0.006740,-0.024884
6880,0.024622,2.813270,9.578034,26.873085,-0.839094,-0.440658,16.062059,-0.401985,-2.946300,0.989872,0.139573,-0.007064,-0.024966
6881,0.037830,2.958109,9.533230,25.715750,-0.939666,-0.420865,17.044031,-0.408133,-2.968922,0.988635,0.148047,-0.007360,-0.025092
6882,0.017217,3.097688,9.460711,25.789749,-0.728932,-0.277480,17.996784,-0.410573,-2.988734,0.987365,0.156260,-0.007616,-0.025197
6883,0.022887,3.217873,9.422576,25.158663,-0.447977,0.158870,18.926924,-0.404042,-2.997018,0.986062,0.164270,-0.007776,-0.025215
6884,0.030820,3.370818,9.369583,25.403383,-0.254025,0.758502,19.841089,-0.399055,-2.986635,0.984723,0.172133,-0.007919,-0.025071
6885,0.030760,3.504000,9.308177,25.872393,0.089448,1.326093,20.764036,-0.394951,-2.955173,0.983311,0.180062,-0.008036,-0.024743
6886,0.018614,3.653126,9.263384,27.975630,0.948702,1.355024,21.725515,-0.373736,-2.907383,0.981776,0.188314,-0.007983,-0.024300
6887,0.020693,3.804391,9.219206,27.809793,1.191491,1.232881,22.715567,-0.334400,-2.854044,0.980123,0.196802,-0.007765,-0.023841
6888,0.019697,3.936271,9.123322,27.785816,0.926126,1.461708,23.696800,-0.299842,-2.798867,0.978412,0.205198,-0.007575,-0.023365
6889,0.011786,4.052112,9.100616,26.775963,0.761464,1.881276,24.644390,-0.278120,-2.736398,0.976694,0.213291,-0.007466,-0.022809
6890,0.014813,4.183980,9.042642,26.159653,0.270245,2.348150,25.546654,-0.274709,-2.665061,0.974998,0.220980,-0.007479,-0.022149
6891,0.032563,4.271865,8.945031,23.144480,-1.247967,2.943221,26.374887,-0.316304,-2.592681,0.973390,0.228017,-0.007848,-0.021397
6892,0.058312,4.384597,8.867512,21.740602,-1.975813,3.329271,27.119003,-0.408610,-2.523296,0.971904,0.234320,-0.008628,-0.020568
6893,0.071742,4.538004,8.849443,20.051392,-1.872058,3.300283,27.813503,-0.517551,-2.454781,0.970479,0.240191,-0.009531,-0.019707
6894,0.092728,4.646009,8.808481,18.221813,-1.777457,3.117175,28.451777,-0.622469,-2.389149,0.969137,0.245579,-0.010387,-0.018874
6895,0.095849,4.716456,8.754389,16.570717,-1.704196,2.599878,29.025063,-0.716894,-2.333425,0.967905,0.250412,-0.011158,-0.018144
6896,0.108985,4.826422,8.732680,16.047245,-1.418800,2.444208,29.558277,-0.796707,-2.285403,0.966736,0.254903,-0.011808,-0.017509
6897,0.130791,4.928904,8.698614,15.468882,-1.446227,2.256498,30.078001,-0.871327,-2.241059,0.965575,0.259276,-0.012416,-0.016913
6898,0.131435,4.949525,8.666162,15.032344,-1.231024,1.510294,30.570555,-0.934712,-2.209112,0.964455,0.263416,-0.012949,-0.016444
6899,0.125610,4.993254,8.610162,16.144474,-1.089016,0.695399,31.056379,-0.973087,-2.196735,0.963331,0.267497,-0.013312,-0.016196
6900,0.143527,5.092508,8.557595,17.381748,-1.302540,0.184156,31.583603,-0.999829,-2.204294,0.962088,0.271920,-0.013629,-0.016134
6901,0.141143,5.187467,8.512263,17.563158,-1.268873,-0.447633,32.144581,-1.019935,-2.230150,0.960741,0.276620,-0.013938,-0.016235
6902,0.123773,5.266423,8.483205,18.278639,-1.193959,-0.792578,32.720238,-1.022755,-2.269059,0.959334,0.281438,-0.014139,-0.016484
6903,0.133031,5.362693,8.410004,20.071432,-1.563071,-0.646188,33.338993,-1.024543,-2.313603,0.957794,0.286608,-0.014354,-0.016775
6904,0.131537,5.488795,8.338345,21.943678,-1.842168,-0.545571,34.032585,-1.038742,-2.361208,0.956034,0.292391,-0.014695,-0.017049
6905,0.130909,5.617847,8.270309,24.101397,-1.774873,-0.756253,34.808037,-1.052945,-2.413013,0.954025,0.298844,-0.015064,-0.017343
6906,0.132982,5.731833,8.170185,27.029779,-1.541249,-1.197356,35.677856,-1.055205,-2.471478,0.951721,0.306069,-0.015370,-0.017708
6907,0.144681,5.825005,8.045821,29.181490,-1.724223,-1.124213,36.635365,-1.055058,-2.534862,0.949120,0.314002,-0.015690,-0.018104
6908,0.161453,5.958074,7.921216,29.750841,-2.400117,0.081199,37.641010,-1.085076,-2.590334,0.946319,0.322305,-0.016252,-0.018340
6909,0.195729,6.084424,7.820321,27.518597,-3.082187,1.149329,38.619423,-1.166425,-2.630831,0.943525,0.330350,-0.017194,-0.018299
6910,0.219180,6.188628,7.761337,23.856441,-3.178360,1.189032,39.484325,-1.278018,-2.666404,0.940997,0.337431,-0.018353,-0.018132
6911,0.239158,6.295944,7.724576,19.948427,-2.903742,0.494779,40.200623,-1.381973,-2.709549,0.938860,0.343276,-0.019447,-0.018058
6912,0.234077,6.397643,7.685324,16.820038,-2.162153,-0.320049,40.784393,-1.450434,-2.761528,0.937088,0.348029,-0.020256,-0.018176
6913,0.221599,6.445840,7.637629,14.616254,-1.048166,-1.731572,41.266266,-1.459169,-2.821369,0.935607,0.351954,-0.020587,-0.018552
6914,0.206313,6.505684,7.598892,14.399133,0.244415,-3.289633,41.696625,-1.394737,-2.891500,0.934269,0.355468,-0.020349,-0.019246
6915,0.178729,6.561743,7.534876,15.564492,1.321888,-4.054256,42.141712,-1.266591,-2.963638,0.932870,0.359113,-0.019607,-0.020157
6916,0.147801,6.599990,7.462286,18.809702,1.732564,-3.543240,42.661797,-1.110852,-3.021340,0.931221,0.363372,-0.018616,-0.021031
6917,0.143167,6.661831,7.363005,22.387608,1.516060,-2.675139,43.300156,-0.971345,-3.058876,0.929173,0.368582,-0.017722,-0.021681
6918,0.120721,6.747123,7.270817,25.745848,0.879889,-1.446892,44.062542,-0.871722,-3.079871,0.926694,0.374777,-0.017129,-0.022058
6919,0.129383,6.906429,7.125397,28.693804,-0.137805,0.564187,44.953327,-0.835958,-3.081028,0.923752,0.381978,-0.017016,-0.022053
6920,0.153324,7.065941,6.984472,29.424864,-1.035032,2.036686,45.939251,-0.877327,-3.064521,0.920436,0.389904,-0.017481,-0.021632
6921,0.174642,7.206383,6.870174,28.140303,-1.920113,2.210681,46.932034,-0.969850,-3.051877,0.917028,0.397843,-0.018364,-0.021057
6922,0.189728,7.314112,6.771626,25.021544,-2.178053,2.013894,47.847301,-1.078273,-3.055045,0.913823,0.405128,-0.019408,-0.020551
6923,0.216283,7.428087,6.669535,20.991745,-1.886668,1.078569,48.635555,-1.173659,-3.071765,0.911013,0.411377,-0.020367,-0.020208
6924,0.211653,7.448434,6.628794,17.266935,-1.218358,-0.329808,49.270863,-1.225628,-3.102685,0.908714,0.416403,-0.021003,-0.020150
6925,0.194839,7.481821,6.571896,15.640009,-0.919259,-0.638057,49.783867,-1.233920,-3.139575,0.906834,0.420458,-0.021294,-0.020318
6926,0.193377,7.531386,6.472460,14.608143,-0.641486,-0.218479,50.245869,-1.230419,-3.167720,0.905127,0.424106,-0.021452,-0.020467
6927,0.196907,7.603434,6.396198,14.829143,-0.107362,-0.789225,50.704544,-1.216509,-3.187265,0.903418,0.427726,-0.021497,-0.020587
6928,0.189471,7.703912,6.355099,16.183985,0.422185,-1.381341,51.199234,-1.175749,-3.205452,0.901559,0.431629,-0.021334,-0.020791
6929,0.182198,7.743743,6.278114,16.797255,0.359678,-1.120472,51.730206,-1.124254,-3.220773,0.899545,0.435812,-0.021084,-0.021008
6930,0.186998,7.755096,6.189485,18.020863,0.236117,-1.181552,52.287609,-1.080687,-3.236005,0.897410,0.440191,-0.020903,-0.021192
6931,0.179884,7.816008,6.114141,19.244440,0.336849,-1.517276,52.882114,-1.035558,-3.255185,0.895109,0.444849,-0.020735,-0.021409
6932,0.175690,7.905966,6.040589,19.740170,0.013370,-0.923706,53.507767,-0.996744,-3.274412,0.892662,0.449736,-0.020625,-0.021597
6933,0.178151,7.958972,5.923020,20.463316,-0.505445,-0.082917,54.160259,-0.988376,-3.290574,0.890083,0.454811,-0.020747,-0.021638
6934,0.179623,8.039253,5.814287,21.719086,-0.818275,0.083431,54.855236,-1.004557,-3.308370,0.887306,0.460193,-0.021074,-0.021585
6935,0.174965,8.088161,5.729737,21.328379,-1.147885,0.359640,55.564507,-1.031639,-3.330945,0.884438,0.465665,-0.021508,-0.021518
6936,0.187122,8.145576,5.617275,19.692480,-0.909849,0.420693,56.235031,-1.064081,-3.351815,0.881696,0.470820,-0.021969,-0.021419
6937,0.180370,8.196263,5.526416,17.960426,-0.050758,-0.566570,56.846992,-1.072249,-3.366251,0.879166,0.475517,-0.022205,-0.021378
6938,0.162759,8.262269,5.493407,15.775072,0.935021,-1.419602,57.380531,-1.030150,-3.371338,0.876940,0.479615,-0.022004,-0.021490
6939,0.156669,8.311494,5.425098,14.024508,1.765176,-1.662293,57.836163,-0.951905,-3.360078,0.875023,0.483121,-0.021444,-0.021646
6940,0.134159,8.389825,5.370039,13.139147,2.438169,-2.301739,58.248001,-0.846006,-3.334849,0.873279,0.486294,-0.020608,-0.021827
6941,0.110240,8.437887,5.317677,13.254809,2.255132,-2.443759,58.648968,-0.721300,-3.308895,0.871568,0.489383,-0.019625,-0.022090
6942,0.097341,8.446807,5.279706,14.054019,1.289291,-1.981508,59.057117,-0.612050,-3.295738,0.869814,0.492513,-0.018818,-0.022390
6943,0.093100,8.456510,5.179348,15.146183,0.761364,-2.266919,59.493866,-0.523933,-3.301830,0.867921,0.495845,-0.018262,-0.022746
6944,0.070563,8.478677,5.131530,16.467226,0.944511,-2.585891,59.970024,-0.431853,-3.317470,0.865842,0.499466,-0.017729,-0.023189
6945,0.080243,8.533484,5.018788,17.350368,0.805669,-2.288358,60.487568,-0.343383,-3.332047,0.863565,0.503390,-0.017231,-0.023608
6946,0.063601,8.578870,4.963069,17.461437,0.389083,-1.674918,61.027447,-0.278391,-3.346658,0.861174,0.507466,-0.016919,-0.023924
6947,0.043332,8.655638,4.843948,17.336046,-0.088529,-0.347363,61.574207,-0.246270,-3.358244,0.858737,0.511574,-0.016844,-0.024073
6948,0.042874,8.763977,4.741983,16.707281,-0.773665,1.216703,62.131153,-0.264656,-3.363961,0.856241,0.515737,-0.017124,-0.023951
6949,0.056837,8.831362,4.601815,16.930183,-1.683126,2.121594,62.706600,-0.335532,-3.374502,0.853646,0.520012,-0.017819,-0.023621
6950,0.061747,8.831105,4.517071,17.459864,-1.574800,2.339826,63.302761,-0.429924,-3.389241,0.850937,0.524422,-0.018710,-0.023206
6951,0.084485,8.828483,4.377345,17.978855,-0.918665,2.200991,63.915421,-0.519611,-3.393006,0.848130,0.528942,-0.019515,-0.022719
6952,0.108636,8.851911,4.298558,19.056326,0.054848,1.190879,64.553673,-0.584010,-3.381655,0.845179,0.533644,-0.020063,-0.022226
6953,0.109801,8.869743,4.197678,20.817347,0.941385,0.148723,65.230583,-0.604239,-3.357420,0.842019,0.538627,-0.020229,-0.021834
6954,0.098818,8.918461,4.136872,21.616932,1.434255,0.012924,65.937622,-0.591506,-3.320363,0.838685,0.543821,-0.020094,-0.021498
6955,0.087611,9.027153,3.997597,21.569647,1.028374,-0.586799,66.659599,-0.561589,-3.286634,0.835245,0.549107,-0.019850,-0.021269
6956,0.081425,9.150572,3.921280,21.244734,0.920055,-1.152971,67.386330,-0.514916,-3.268127,0.831745,0.554407,-0.019556,-0.021234
6957,0.093837,9.157414,3.798818,21.080008,0.228820,-0.176399,68.101089,-0.484442,-3.258849,0.828269,0.559593,-0.019423,-0.021193
6958,0.110578,9.165549,3.716800,20.194942,-0.640980,0.696487,68.785194,-0.502687,-3.262007,0.824915,0.564523,-0.019696,-0.021010
6959,0.138181,9.210376,3.558494,19.396854,-1.126280,0.103043,69.441742,-0.544628,-3.284859,0.821667,0.569227,-0.020230,-0.020852
6960,0.152987,9.252408,3.486243,19.532663,-1.063794,1.267524,70.090919,-0.605417,-3.311502,0.818431,0.573853,-0.020915,-0.020623
6961,0.168393,9.313174,3.378049,20.638922,-1.608630,2.972205,70.755836,-0.716484,-3.330020,0.815096,0.578563,-0.021918,-0.020072
6962,0.170114,9.403455,3.267128,20.513815,-1.523249,3.202818,71.444321,-0.857035,-3.346357,0.811617,0.583413,-0.023116,-0.019339
6963,0.184716,9.449738,3.119791,20.045477,-1.201331,3.349453,72.135849,-0.994479,-3.355843,0.808092,0.588264,-0.024250,-0.018560
6964,0.194023,9.470679,3.059057,18.280066,-0.945011,3.514357,72.784958,-1.128006,-3.355815,0.804759,0.592798,-0.025292,-0.017731
6965,0.224155,9.474924,2.983436,15.743877,-0.717676,2.740805,73.339455,-1.247752,-3.351806,0.801891,0.596655,-0.026194,-0.016957
6966,0.249237,9.422093,2.880985,12.877874,-0.403383,1.965818,73.776962,-1.351917,-3.346845,0.799615,0.599686,-0.026960,-0.016276
6967,0.272350,9.437103,2.816298,10.643431,-0.087587,1.473224,74.107544,-1.445390,-3.337669,0.797890,0.601968,-0.027609,-0.015643
6968,0.280010,9.489671,2.772813,9.104774,-0.063236,1.001979,74.370705,-1.519872,-3.327458,0.796511,0.603781,-0.028108,-0.015116
6969,0.292306,9.526625,2.713663,8.913588,-0.296754,1.203627,74.615417,-1.585854,-3.322116,0.795225,0.605464,-0.028570,-0.014670
6970,0.288816,9.522170,2.667939,9.271822,-0.623339,1.934714,74.873741,-1.661816,-3.322042,0.793862,0.607234,-0.029128,-0.014202
6971,0.288705,9.570766,2.626974,9.709436,-1.107065,2.210967,75.149590,-1.743652,-3.330929,0.792401,0.609118,-0.029775,-0.013758
6972,0.292030,9.587483,2.544089,11.158910,-1.740311,2.050712,75.478836,-1.819994,-3.358269,0.790648,0.611363,-0.030487,-0.013453
6973,0.309378,9.581699,2.484046,12.089708,-2.191969,2.216982,75.865822,-1.897881,-3.404099,0.788577,0.613995,-0.031313,-0.013247
6974,0.322974,9.556038,2.420968,12.185780,-2.417796,2.006372,76.264435,-1.980445,-3.461449,0.786434,0.616694,-0.032234,-0.013087
6975,0.341767,9.588538,2.373153,12.519791,-2.378113,1.046553,76.657837,-2.046953,-3.526568,0.784308,0.619351,-0.033085,-0.013062
6976,0.362514,9.598228,2.303013,13.570992,-2.220941,0.219521,77.075119,-2.087376,-3.595795,0.782041,0.622171,-0.033784,-0.013194
6978,0.362183,9.612652,2.235251,14.712281,-2.373536,0.398079,77.535980,-2.117189,-3.667863,0.779526,0.625280,-0.034433,-0.013385
6979,0.360382,9.622496,2.131684,16.682186,-2.675666,0.149351,78.054176,-2.143536,-3.747949,0.776682,0.628766,-0.035111,-0.013628
6980,0.362846,9.670585,1.976168,19.262650,-2.983903,0.227152,78.672058,-2.166152,-3.839700,0.773271,0.632909,-0.035843,-0.013932
6981,0.347363,9.681442,1.787396,22.024996,-3.272306,-0.020111,79.416695,-2.181687,-3.943402,0.769130,0.637882,-0.036614,-0.014308
6982,0.325172,9.699859,1.616319,23.667553,-2.860304,-1.239471,80.265083,-2.160981,-4.050745,0.764372,0.643531,-0.037184,-0.014869
6983,0.314817,9.719384,1.488956,23.535511,-2.086651,-2.724404,81.144646,-2.083439,-4.145952,0.759391,0.649375,-0.037323,-0.015655
6984,0.306393,9.709869,1.364346,22.844893,-1.399973,-3.490625,81.998573,-1.963581,-4.221273,0.754509,0.655032,-0.037081,-0.016558
6985,0.295843,9.671633,1.249285,21.649069,-0.337921,-4.439925,82.804039,-1.814709,-4.269420,0.749863,0.660354,-0.036501,-0.017471
6986,0.281764,9.668321,1.128414,19.917538,0.591371,-4.273727,83.546318,-1.654013,-4.283950,0.745549,0.665246,-0.035653,-0.018263
6987,0.287221,9.730980,1.035339,19.154879,0.946908,-2.668497,84.235428,-1.530789,-4.271829,0.741521,0.669761,-0.034895,-0.018691
6988,0.286257,9.764246,0.916911,19.388605,1.270391,-1.304265,84.909500,-1.468358,-4.242159,0.737565,0.674140,-0.034428,-0.018662
6989,0.299185,9.823558,0.790239,18.748014,1.944829,0.450685,85.580879,-1.466860,-4.190979,0.733610,0.678465,-0.034225,-0.018141
6990,0.312228,9.878774,0.693704,17.622179,2.094346,2.014961,86.222420,-1.528380,-4.122003,0.729819,0.682564,-0.034306,-0.017143
6991,0.337823,9.932398,0.652470,15.273921,2.164516,2.782751,86.786133,-1.635269,-4.046928,0.726477,0.686135,-0.034618,-0.015857
6992,0.352179,9.899560,0.542426,11.762825,1.694506,2.970844,87.241951,-1.778223,-3.978187,0.723768,0.688996,-0.035169,-0.014425
6993,0.350096,9.857814,0.519349,9.002306,0.981880,2.678300,87.571442,-1.924597,-3.929209,0.721805,0.691043,-0.035836,-0.013132
6994,0.339863,9.842494,0.452562,6.968008,0.426442,1.572190,87.806732,-2.017643,-3.902077,0.720397,0.692503,-0.036283,-0.012324
6995,0.332697,9.844884,0.380004,5.345874,0.218919,0.485721,88.002319,-2.050176,-3.889792,0.719218,0.693725,-0.036434,-0.011988
6996,0.308782,9.819489,0.341551,5.600702,0.115163,-1.574473,88.184334,-2.007531,-3.884786,0.718112,0.694882,-0.036155,-0.012158
6997,0.295289,9.822729,0.274781,6.252418,0.928488,-4.481719,88.399635,-1.861420,-3.870929,0.716792,0.696280,-0.035181,-0.012892
6998,0.251156,9.934538,0.206359,5.279157,2.169065,-6.789246,88.625267,-1.631195,-3.825214,0.715400,0.697773,-0.033492,-0.013941
6999,0.221956,9.855359,0.197217,7.372938,2.724502,-8.609927,88.860756,-1.341343,-3.750023,0.713938,0.699346,-0.031257,-0.015174
7000,0.168783,9.820634,0.254054,8.282351,3.371501,-9.882781,89.114944,-1.002293,-3.653672,0.712353,0.701042,-0.028595,-0.016581
7001,0.128852,9.839296,0.167970,8.376814,3.508841,-9.739547,89.372864,-0.648381,-3.542829,0.710738,0.702755,-0.025759,-0.018000
7002,0.076700,9.835769,0.206075,8.788591,3.258593,-8.535744,89.630249,-0.323926,-3.432236,0.709123,0.704443,-0.023112,-0.019253
7003,0.083578,9.771088,0.174056,9.378716,1.995131,-6.964053,89.881744,-0.063748,-3.345305,0.707546,0.706064,-0.021012,-0.020268
7004,0.054149,9.877129,0.139896,6.886202,0.415799,-4.395697,90.067970,0.097789,-3.305011,0.706376,0.707249,-0.019801,-0.020983
7005,0.038103,9.937724,0.026552,5.316940,-1.599947,-1.999616,90.195152,0.157097,-3.324595,0.705576,0.708039,-0.019580,-0.021448
7006,0.036268,9.897598,0.035409,4.718364,-2.956495,0.053209,90.310463,0.132813,-3.400602,0.704853,0.708732,-0.020221,-0.021745
7007,0.027992,9.831092,-0.016884,4.403615,-4.361871,1.265236,90.411278,0.056339,-3.522930,0.704221,0.709315,-0.021467,-0.022006
7008,0.026874,9.790284,-0.058382,4.389695,-4.546506,1.479206,90.534325,-0.030642,-3.671908,0.703447,0.710025,-0.022948,-0.022359
7009,0.032202,9.796311,-0.076737,4.049309,-4.123824,0.960639,90.662209,-0.100731,-3.816911,0.702639,0.710766,-0.024302,-0.022787
7010,0.043597,9.755548,-0.061854,5.860327,-3.704192,0.429826,90.795593,-0.148328,-3.947680,0.701795,0.711545,-0.025432,-0.023264
7011,0.028387,9.760798,-0.136372,6.647508,-3.957493,-0.123970,90.979919,-0.165902,-4.075457,0.700627,0.712640,-0.026371,-0.023895
7012,0.028168,9.836894,-0.205842,5.611554,-4.322190,-0.378788,91.203239,-0.156245,-4.213347,0.699205,0.713974,-0.027218,-0.024745
7013,0.023509,9.756395,-0.356487,5.113315,-4.409170,-0.317764,91.474716,-0.139566,-4.358815,0.697476,0.715597,-0.028084,-0.025670
7014,0.009611,9.760057,-0.377715,4.664254,-3.450893,-1.556883,91.773834,-0.096138,-4.489196,0.695566,0.717393,-0.028703,-0.026660
7015,-0.005132,9.806645,-0.416170,1.804076,-2.576545,-1.825586,91.998184,-0.019039,-4.587952,0.694118,0.718748,-0.028908,-0.027686
7016,0.005968,9.864212,-0.402366,-0.871734,-1.172696,-1.816504,92.096519,0.053055,-4.648308,0.693468,0.719345,-0.028874,-0.028479
7017,0.010041,9.854756,-0.367083,-2.461498,0.330343,-1.140434,92.072151,0.092224,-4.660569,0.693608,0.719204,-0.028708,-0.028805
7018,0.000158,9.943550,-0.222144,-3.938834,1.258110,-0.388048,91.935577,0.103589,-4.633263,0.694468,0.718387,-0.028433,-0.028745
7019,0.004627,9.881316,-0.213121,-4.090399,1.198600,0.895330,91.739632,0.084510,-4.592697,0.695710,0.717204,-0.028246,-0.028428
7020,0.015341,9.864565,-0.208068,-3.573697,1.146722,0.985519,91.538490,0.032159,-4.554606,0.696991,0.715978,-0.028277,-0.027919
7021,0.019834,9.837633,-0.193583,-2.628252,1.004817,0.904859,91.356590,-0.027011,-4.519554,0.698150,0.714865,-0.028374,-0.027381
7022,0.013748,9.833520,-0.148737,-1.543918,1.168094,0.244267,91.211922,-0.063700,-4.483721,0.699069,0.713983,-0.028340,-0.026970
7023,0.021167,9.856726,-0.162634,-1.478809,1.113163,-0.275999,91.098450,-0.073309,-4.445622,0.699787,0.713298,-0.028135,-0.026705
7024,0.015189,9.867182,-0.148668,-1.535603,0.940736,-0.396497,91.006340,-0.068917,-4.411122,0.700367,0.712744,-0.027872,-0.026544
7025,0.005591,9.872090,-0.135960,-1.517592,1.186410,-0.546052,90.917709,-0.052005,-4.375361,0.700922,0.712215,-0.027526,-0.026452
7026,-0.007551,9.865809,-0.132810,-1.832177,1.387831,-0.666688,90.831535,-0.021425,-4.332131,0.701461,0.711705,-0.027050,-0.026398
7027,-0.012687,9.856977,-0.116735,-1.888836,1.107058,-0.651557,90.744568,0.015888,-4.290257,0.702002,0.711191,-0.026542,-0.026394
7028,-0.023088,9.847000,-0.100151,-1.359550,0.876642,-0.744780,90.664200,0.056555,-4.256935,0.702498,0.710716,-0.026067,-0.026460
7029,-0.019267,9.874993,-0.118704,-1.283344,0.797292,-1.161474,90.608749,0.102487,-4.228705,0.702838,0.710392,-0.025598,-0.026584
7030,-0.019187,9.852478,-0.076113,-1.162891,0.551617,-1.370569,90.556236,0.149815,-4.205822,0.703158,0.710085,-0.025153,-0.026749
7031,-0.019604,9.845795,-0.048269,-0.919037,0.281528,-1.364447,90.484772,0.193052,-4.191608,0.703593,0.709659,-0.024783,-0.026945
7032,-0.024293,9.836869,-0.063878,-0.682778,0.189972,-1.195011,90.425766,0.228373,-4.183497,0.703952,0.709306,-0.024502,-0.027127
7033,-0.025702,9.840181,-0.052222,-0.620371,0.228120,-1.240702,90.384552,0.258061,-4.176305,0.704202,0.709061,-0.024265,-0.027275
7034,-0.022255,9.825293,-0.043690,-0.565605,0.206758,-0.968950,90.343857,0.277591,-4.168901,0.704451,0.708816,-0.024090,-0.027359
7035,-0.023659,9.860733,-0.064765,-0.495478,0.217440,-0.555245,90.318100,0.280586,-4.161709,0.704611,0.708660,-0.024021,-0.027338
7036,-0.029919,9.876405,-0.070097,-0.443514,0.016019,-0.347554,90.312561,0.275015,-4.157681,0.704648,0.708626,-0.024029,-0.027280
7037,-0.030212,9.880469,-0.087464,-0.252585,-0.176246,-0.274171,90.324547,0.268155,-4.160181,0.704575,0.708697,-0.024089,-0.027251
7038,-0.034632,9.891070,-0.090703,-0.032588,-0.167089,0.133362,90.352722,0.256587,-4.165738,0.704402,0.708867,-0.024201,-0.027208
7039,-0.037976,9.873259,-0.065175,0.259013,-0.060273,0.453875,90.375343,0.238177,-4.169506,0.704265,0.709001,-0.024343,-0.027112
7040,-0.042038,9.855721,-0.065570,0.474189,-0.115205,0.545451,90.390175,0.219041,-4.172531,0.704177,0.709088,-0.024483,-0.027009
7041,-0.037206,9.856199,-0.077172,0.465077,-0.006864,0.505774,90.411179,0.201822,-4.174667,0.704051,0.709213,-0.024607,-0.026911
7042,-0.039525,9.856349,-0.065887,0.448312,0.223550,0.469135,90.428932,0.187645,-4.171163,0.703945,0.709319,-0.024677,-0.026798
7043,-0.028732,9.847533,-0.091458,0.590273,0.334943,0.318064,90.452515,0.175075,-4.161935,0.703804,0.709464,-0.024702,-0.026659
7044,-0.031957,9.862493,-0.107337,0.546204,0.281536,-0.112241,90.494347,0.170733,-4.151618,0.703549,0.709722,-0.024675,-0.026559
7045,-0.027636,9.862111,-0.090267,0.602798,0.357833,-0.359440,90.530289,0.178531,-4.140843,0.703327,0.709946,-0.024568,-0.026534
7046,-0.018111,9.860473,-0.101056,0.627270,0.473803,-0.240362,90.558083,0.181439,-4.126868,0.703157,0.710121,-0.024470,-0.026460
7047,-0.009540,9.860028,-0.104876,0.398454,0.449390,-0.083060,90.584244,0.170067,-4.111406,0.703001,0.710282,-0.024450,-0.026289
7048,-0.010349,9.848384,-0.069677,0.183213,0.362414,-0.073746,90.583344,0.152888,-4.097884,0.703014,0.710276,-0.024472,-0.026100
7049,-0.010505,9.848976,-0.067753,0.018167,0.325792,0.304817,90.556053,0.132121,-4.086533,0.703190,0.710106,-0.024523,-0.025907
7050,-0.017211,9.847342,-0.083657,-0.119339,0.150311,0.574989,90.532845,0.107070,-4.078787,0.703341,0.709960,-0.024623,-0.025710
7051,-0.022757,9.832457,-0.083482,-0.085845,-0.000756,0.593304,90.519791,0.087039,-4.076493,0.703427,0.709876,-0.024729,-0.025574
7052,-0.022787,9.846399,-0.069777,-0.322470,0.084696,0.613094,90.499649,0.072845,-4.075296,0.703556,0.709750,-0.024804,-0.025483
7053,-0.022966,9.851453,-0.079191,-0.206602,0.017555,0.565719,90.478096,0.062041,-4.073780,0.703692,0.709616,-0.024856,-0.025412
7054,-0.020102,9.854750,-0.081557,-0.388215,-0.063320,0.590057,90.464592,0.052414,-4.074709,0.703777,0.709530,-0.024918,-0.025361
7055,-0.013867,9.859664,-0.095193,-0.760485,0.009924,0.741068,90.452507,0.037152,-4.075772,0.703855,0.709453,-0.025016,-0.025275
7056,-0.002450,9.869461,-0.072957,-0.893200,-0.003809,0.742591,90.429916,0.012861,-4.075857,0.704001,0.709309,-0.025161,-0.025131
7057,0.009035,9.852468,-0.071263,-0.699438,-0.069424,0.797583,90.399681,-0.020160,-4.077262,0.704195,0.709115,-0.025366,-0.024941
7058,0.015747,9.849301,-0.076556,-0.978662,-0.148771,0.950267,90.374207,-0.060669,-4.081091,0.704360,0.708949,-0.025633,-0.024720
