seq,ax,ay,az,wroll,wpitch,wyaw,roll,pitch,yaw,q0,q1,q2,q3
6131,-0.152500,-0.671665,9.887226,0.082187,-0.127465,-0.261248,-3.886282,0.881625,-0.059889,0.999395,-0.033903,0.007707,-0.000261
6132,-0.125266,-0.674534,9.915192,-1.059339,0.495398,-4.547694,-3.903805,0.882299,-0.140279,0.999390,-0.034050,0.007737,-0.000961
6133,-0.136505,-0.683833,9.931036,-2.713468,1.363490,-5.238949,-3.969254,0.902008,-0.305151,0.999366,-0.034609,0.007959,-0.002389
6134,-0.136687,-0.714092,9.931706,-3.818350,1.850128,-5.048220,-4.080941,0.943385,-0.479961,0.999325,-0.035569,0.008376,-0.003893
6135,-0.157508,-0.726469,9.915934,-4.415144,1.639456,-3.928200,-4.220762,0.990548,-0.633406,0.999271,-0.036775,0.008842,-0.005205
6136,-0.140230,-0.737363,9.891569,-4.409135,1.212063,-2.272583,-4.369716,1.030181,-0.740041,0.999214,-0.038063,0.009229,-0.006110
6137,-0.148352,-0.769144,9.895834,-3.211356,0.857827,-1.112898,-4.497801,1.060196,-0.798977,0.999165,-0.039174,0.009518,-0.006604
6138,-0.141797,-0.787497,9.882861,-1.560424,0.646841,-0.291983,-4.577806,1.083337,-0.824306,0.999134,-0.039868,0.009733,-0.006810
6139,-0.151173,-0.780034,9.860139,-0.506014,0.539468,0.219157,-4.612302,1.102946,-0.827099,0.999121,-0.040167,0.009907,-0.006824
6140,-0.149846,-0.777759,9.865821,0.545547,0.345122,0.412909,-4.611463,1.118487,-0.817781,0.999120,-0.040159,0.010039,-0.006738
6141,-0.167647,-0.785061,9.868889,1.816853,0.013518,0.899644,-4.571671,1.126196,-0.796448,0.999135,-0.039814,0.010097,-0.006552
6142,-0.160613,-0.770806,9.891397,2.738735,-0.397389,1.540503,-4.494940,1.123032,-0.755391,0.999164,-0.039148,0.010051,-0.006202
6143,-0.155600,-0.729492,9.894043,3.321958,-0.739584,2.343116,-4.392643,1.109156,-0.689376,0.999203,-0.038263,0.009902,-0.005640
6144,-0.157650,-0.717330,9.908317,3.867044,-1.186945,2.869545,-4.271123,1.083704,-0.600304,0.999249,-0.037212,0.009645,-0.004882
6145,-0.159435,-0.688821,9.878695,3.849067,-1.393170,2.839016,-4.140699,1.047797,-0.502244,0.999297,-0.036085,0.009296,-0.004050
6146,-0.157439,-0.678822,9.888709,3.030088,-1.274421,2.417849,-4.024422,1.009688,-0.411670,0.999339,-0.035079,0.008932,-0.003281
6147,-0.159053,-0.669695,9.883477,2.198911,-0.850499,2.060770,-3.935938,0.979541,-0.334736,0.999370,-0.034314,0.008643,-0.002626
6148,-0.153737,-0.675335,9.894673,1.275951,-0.409732,1.425973,-3.877015,0.962547,-0.275319,0.999390,-0.033805,0.008476,-0.002117
6149,-0.147503,-0.660480,9.888245,0.574133,0.253794,0.710299,-3.845579,0.962353,-0.239616,0.999400,-0.033534,0.008463,-0.001808
6150,-0.156159,-0.662192,9.900263,0.133235,1.263744,-0.104558,-3.833646,0.988265,-0.231237,0.999402,-0.033430,0.008687,-0.001728
6151,-0.126406,-0.714991,9.772470,0.790493,1.193165,-0.212932,-3.818389,1.028768,-0.239252,0.999403,-0.033295,0.009042,-0.001788
6152,-0.096280,-0.735419,9.730648,0.713129,-1.145439,0.743746,-3.793171,1.030150,-0.230474,0.999410,-0.033076,0.009051,-0.001713
6153,-0.088234,-0.721921,9.758719,0.948470,-3.447752,1.819421,-3.764652,0.956580,-0.182791,0.999425,-0.032832,0.008396,-0.001320
6154,-0.081186,-0.682817,9.840577,1.921209,-4.796389,2.704361,-3.715517,0.824391,-0.098579,0.999448,-0.032411,0.007218,-0.000627
6155,-0.077441,-0.649640,9.899011,2.847141,-5.493287,3.494715,-3.634566,0.659869,0.015523,0.999480,-0.031713,0.005751,0.000318
6156,-0.097227,-0.541986,10.038665,3.175506,-4.944490,3.838016,-3.532846,0.493883,0.148369,0.999515,-0.030830,0.004268,0.001427
6157,-0.100033,-0.478439,10.080642,3.695171,-2.779222,2.833964,-3.417428,0.372131,0.267162,0.999547,-0.029826,0.003176,0.002427
6158,-0.099217,-0.474254,10.026902,3.760212,-0.455070,1.408768,-3.292717,0.322443,0.340887,0.999579,-0.028739,0.002727,0.003054
6159,-0.083829,-0.505140,9.943866,3.068366,0.547783,0.697711,-3.178704,0.325953,0.375832,0.999606,-0.027745,0.002752,0.003357
6160,-0.041663,-0.507276,9.905473,2.271097,0.193861,0.659573,-3.089583,0.339528,0.397736,0.999626,-0.026968,0.002868,0.003549
6161,-0.005793,-0.534408,9.888112,1.619831,-0.001945,0.378778,-3.024633,0.343646,0.414848,0.999640,-0.026402,0.002902,0.003698
6162,0.009192,-0.548632,9.859737,1.731017,0.393917,0.535900,-2.968695,0.350967,0.429731,0.999652,-0.025915,0.002965,0.003828
6163,0.026079,-0.521777,9.859379,2.167156,0.017418,1.285069,-2.903540,0.359368,0.459689,0.999666,-0.025348,0.003033,0.004090
6164,0.020525,-0.516140,9.882161,1.895358,-0.325614,1.405553,-2.835552,0.356486,0.504736,0.999679,-0.024756,0.003001,0.004480
6166,-0.002791,-0.483842,9.871058,2.230990,-0.154206,1.539783,-2.766474,0.350899,0.554160,0.999692,-0.024154,0.002944,0.004908
6167,-0.029161,-0.434638,9.906735,2.357996,-0.672148,1.701501,-2.689662,0.339712,0.608775,0.999706,-0.023485,0.002839,0.005381
6168,-0.065248,-0.402895,9.951919,2.126838,-0.940893,1.298653,-2.614623,0.315171,0.659972,0.999719,-0.022830,0.002618,0.005821
6169,-0.077641,-0.391259,9.969139,1.644043,-0.525635,0.589112,-2.551605,0.292171,0.692507,0.999730,-0.022280,0.002414,0.006098
6170,-0.069760,-0.372025,9.934895,1.268107,-0.139275,0.116094,-2.503008,0.281616,0.704737,0.999739,-0.021856,0.002323,0.006202
6171,-0.033632,-0.384308,9.926903,0.550262,-0.525307,-0.149412,-2.472702,0.270524,0.704662,0.999745,-0.021591,0.002227,0.006199
6172,-0.017884,-0.406630,9.903502,0.059423,-0.293684,-0.352371,-2.462577,0.256526,0.696895,0.999748,-0.021502,0.002107,0.006128
6173,0.010084,-0.419180,9.879335,-0.091449,-0.335486,-0.251685,-2.463153,0.245617,0.687288,0.999748,-0.021506,0.002014,0.006042
6174,0.004162,-0.421522,9.893693,-0.437764,-0.806201,-0.289864,-2.472007,0.226218,0.679090,0.999748,-0.021582,0.001846,0.005967
6175,-0.020292,-0.397307,9.911991,-0.396314,-0.724275,-0.508090,-2.485954,0.200158,0.666906,0.999746,-0.021702,0.001620,0.005856
6176,-0.067211,-0.383727,9.901709,0.115425,-0.051242,-0.920084,-2.490713,0.186212,0.643687,0.999747,-0.021743,0.001503,0.005651
6177,-0.076711,-0.373952,9.894043,0.407617,0.149211,-1.473968,-2.482127,0.186113,0.603752,0.999750,-0.021667,0.001510,0.005303
6178,-0.079827,-0.364186,9.901194,0.463428,0.108676,-2.015641,-2.467800,0.187896,0.545460,0.999755,-0.021541,0.001537,0.004794
6179,-0.057168,-0.359943,9.896774,0.735993,0.096992,-2.308592,-2.448047,0.188230,0.473309,0.999762,-0.021368,0.001554,0.004165
6180,-0.019902,-0.393268,9.922834,0.982372,0.054352,-2.790779,-2.419686,0.187142,0.388288,0.999770,-0.021120,0.001561,0.003422
6181,0.029530,-0.437834,9.938898,1.051133,0.169785,-3.005956,-2.386109,0.186824,0.291604,0.999779,-0.020825,0.001577,0.002578
6182,0.036509,-0.457365,9.922562,1.264318,0.385523,-2.267449,-2.347811,0.192441,0.203406,0.999787,-0.020490,0.001643,0.001809
6183,0.029325,-0.417338,9.924386,1.215097,-0.028950,-1.116942,-2.306681,0.196092,0.146804,0.999795,-0.020130,0.001685,0.001315
6184,0.015911,-0.407946,9.939666,0.473368,-0.309006,-0.663777,-2.278638,0.189280,0.117375,0.999800,-0.019885,0.001631,0.001057
6185,0.037189,-0.379946,9.941312,0.006492,-0.595217,0.224278,-2.270661,0.173930,0.110655,0.999802,-0.019815,0.001498,0.000996
6186,0.018760,-0.353321,9.937902,-0.508865,-0.622014,0.854452,-2.278979,0.154373,0.129426,0.999801,-0.019888,0.001324,0.001156
6187,-0.017837,-0.333309,9.937312,-0.654613,-0.517142,0.881905,-2.298294,0.136558,0.159101,0.999797,-0.020057,0.001164,0.001412
6188,-0.037712,-0.351036,9.936390,-0.833882,-0.218024,0.498901,-2.323049,0.125244,0.182590,0.999793,-0.020273,0.001060,0.001615
6189,-0.027275,-0.336913,9.930160,-0.691152,0.102561,0.343264,-2.348435,0.123894,0.196694,0.999788,-0.020494,0.001046,0.001738
6190,-0.076209,-0.313790,9.891622,-0.329895,0.569931,0.274618,-2.365430,0.135516,0.206523,0.999785,-0.020643,0.001145,0.001826
6191,-0.075303,-0.295946,9.894488,-0.259749,0.292984,-0.111407,-2.375252,0.149998,0.208647,0.999783,-0.020729,0.001271,0.001848
6192,-0.001033,-0.332364,9.943399,-0.970964,-0.477414,-1.036105,-2.395812,0.146131,0.189666,0.999779,-0.020908,0.001240,0.001681
6193,0.036773,-0.394431,9.968451,-1.342551,-0.357492,-1.684648,-2.434478,0.130318,0.144945,0.999773,-0.021245,0.001110,0.001289
6194,0.043889,-0.438935,9.958923,-1.112086,0.102413,-1.612968,-2.475511,0.123717,0.090218,0.999766,-0.021602,0.001062,0.000810
6195,0.061559,-0.477577,9.960177,-1.007246,0.174584,-1.597756,-2.510952,0.126002,0.036557,0.999759,-0.021911,0.001092,0.000343
6196,0.046726,-0.509431,9.938774,-0.957757,0.461894,-1.397910,-2.543816,0.134399,-0.013790,0.999753,-0.022197,0.001175,-0.000094
6197,0.005736,-0.483168,9.877718,-0.389437,1.247044,-0.741795,-2.566366,0.161262,-0.050685,0.999748,-0.022393,0.001417,-0.000411
6198,-0.013560,-0.459843,9.836946,-0.008413,1.303190,-0.384743,-2.573066,0.202882,-0.071345,0.999746,-0.022451,0.001784,-0.000583
6199,-0.033016,-0.456497,9.819112,0.148508,0.912438,-0.415268,-2.570791,0.239174,-0.086321,0.999746,-0.022431,0.002104,-0.000706
6200,-0.040215,-0.442411,9.839554,-0.063710,0.404285,-0.424424,-2.569442,0.260470,-0.101286,0.999746,-0.022419,0.002292,-0.000833
6201,-0.026233,-0.421663,9.890009,-0.080340,-0.137560,-0.326771,-2.571901,0.264349,-0.113993,0.999745,-0.022440,0.002329,-0.000943
6202,-0.016182,-0.440763,9.944703,-0.389900,-0.414103,-0.429023,-2.579792,0.254598,-0.126164,0.999744,-0.022509,0.002246,-0.001051
6203,-0.021742,-0.428133,9.918182,-0.119633,0.101285,-0.070447,-2.588320,0.249014,-0.134245,0.999742,-0.022583,0.002199,-0.001122
6204,-0.026669,-0.408975,9.925399,-0.229079,-0.109573,0.219469,-2.594121,0.248989,-0.131757,0.999741,-0.022633,0.002198,-0.001100
6205,-0.024593,-0.421263,9.943541,-0.545976,-0.361604,0.259133,-2.607003,0.241506,-0.123432,0.999739,-0.022746,0.002131,-0.001029
6206,-0.035473,-0.416920,9.911520,-0.479904,0.102098,0.355261,-2.624058,0.237652,-0.113006,0.999735,-0.022895,0.002096,-0.000938
6207,-0.052717,-0.390442,9.866560,-0.256423,0.149441,0.574999,-2.636266,0.242552,-0.097709,0.999733,-0.023002,0.002136,-0.000804
6208,-0.051024,-0.391224,9.900454,-0.644620,-0.680512,0.451409,-2.651210,0.234499,-0.080212,0.999730,-0.023133,0.002062,-0.000652
6209,-0.049046,-0.419072,9.890071,-0.773575,-0.472859,0.103507,-2.674808,0.215727,-0.070081,0.999726,-0.023339,0.001896,-0.000567
6210,-0.051468,-0.449337,9.828401,-0.197948,-0.107996,-0.039921,-2.690995,0.206107,-0.068569,0.999723,-0.023480,0.001812,-0.000556
6211,-0.044883,-0.453196,9.824311,-0.110838,-0.800593,0.015021,-2.696141,0.190961,-0.068272,0.999722,-0.023525,0.001680,-0.000556
6212,-0.017119,-0.459521,9.876646,-0.049698,-1.688727,0.019597,-2.698808,0.149545,-0.065743,0.999722,-0.023549,0.001318,-0.000543
6213,-0.001464,-0.496477,9.891718,-0.103283,-1.522691,-0.464135,-2.701368,0.095732,-0.070623,0.999722,-0.023571,0.000850,-0.000596
6214,0.016145,-0.490588,9.903712,0.288494,-1.620763,-0.087252,-2.698292,0.042967,-0.077335,0.999723,-0.023545,0.000391,-0.000666
6215,0.027611,-0.451048,9.935159,0.279293,-1.860822,0.263688,-2.688826,-0.014857,-0.071672,0.999725,-0.023462,-0.000115,-0.000628
6216,0.032162,-0.456680,9.949715,0.067390,-1.640028,0.007311,-2.683051,-0.072929,-0.064426,0.999726,-0.023412,-0.000623,-0.000577
6217,0.032367,-0.463365,9.924789,-0.011869,-1.025434,0.033235,-2.682132,-0.117273,-0.061671,0.999725,-0.023404,-0.001011,-0.000562
6218,0.035658,-0.432238,9.889590,0.536174,-0.851731,0.657326,-2.673423,-0.147987,-0.048712,0.999727,-0.023328,-0.001281,-0.000455
6219,0.034957,-0.426770,9.874261,0.448143,-1.019763,0.593227,-2.657080,-0.178176,-0.026443,0.999730,-0.023186,-0.001549,-0.000267
6220,0.037211,-0.420415,9.895134,0.175532,-1.320484,0.545916,-2.646758,-0.216260,-0.005672,0.999731,-0.023095,-0.001886,-0.000093
6221,0.051641,-0.443454,9.906536,-0.237609,-1.323685,0.417731,-2.647868,-0.259540,0.012408,0.999731,-0.023105,-0.002267,0.000056
6222,0.060537,-0.451503,9.912862,-0.287810,-1.210981,0.374995,-2.656699,-0.301127,0.027562,0.999728,-0.023181,-0.002633,0.000180
6223,0.064407,-0.446707,9.922681,-0.527232,-1.232544,0.271222,-2.670355,-0.341308,0.040214,0.999724,-0.023300,-0.002986,0.000281
6224,0.079238,-0.476403,9.946397,-0.305964,-1.011516,0.374974,-2.684320,-0.378165,0.052720,0.999720,-0.023421,-0.003310,0.000383
6225,0.091575,-0.481481,9.935184,0.418647,-0.500661,1.099774,-2.682617,-0.402189,0.078452,0.999720,-0.023406,-0.003525,0.000602
6226,0.087142,-0.434350,9.913183,1.288530,-0.349906,1.914603,-2.654524,-0.414012,0.129298,0.999725,-0.023159,-0.003638,0.001044
6227,0.077410,-0.429613,9.901427,1.525479,-0.305823,1.960370,-2.608097,-0.421966,0.194315,0.999733,-0.022752,-0.003720,0.001611
6228,0.092313,-0.423279,9.917951,1.728844,-0.328891,2.134315,-2.554368,-0.429462,0.262968,0.999742,-0.022280,-0.003798,0.002211
6229,0.090669,-0.380096,9.923243,1.525027,-0.410020,2.000016,-2.500662,-0.438726,0.332352,0.999751,-0.021809,-0.003891,0.002816
6230,0.085307,-0.392987,9.908354,0.668194,-0.506339,0.902862,-2.464490,-0.451889,0.381351,0.999756,-0.021492,-0.004014,0.003242
6231,0.087141,-0.423484,9.919424,0.190892,-0.448484,0.364202,-2.450349,-0.466882,0.403134,0.999757,-0.021367,-0.004149,0.003430
6232,0.099347,-0.389663,9.929568,-0.121644,-0.254888,0.275689,-2.449287,-0.478138,0.414291,0.999757,-0.021357,-0.004249,0.003525
6233,0.087931,-0.395472,9.928893,-0.749861,0.352262,-0.650560,-2.463759,-0.476784,0.407979,0.999754,-0.021484,-0.004236,0.003470
6234,0.066314,-0.407020,9.883580,-1.192037,0.741453,-1.155641,-2.495872,-0.459875,0.377115,0.999750,-0.021765,-0.004084,0.003203
6235,0.055407,-0.409481,9.894475,-1.207007,0.914173,-1.151053,-2.535547,-0.433995,0.337495,0.999744,-0.022114,-0.003852,0.002861
6236,0.055919,-0.412088,9.903287,-1.243281,1.202885,-1.488270,-2.576054,-0.400707,0.291975,0.999738,-0.022469,-0.003553,0.002469
6237,0.038836,-0.443995,9.914137,-1.240023,0.986562,-1.727827,-2.617073,-0.366681,0.236775,0.999732,-0.022830,-0.003246,0.001993
6238,0.034172,-0.456516,9.900344,-1.050822,0.320165,-1.312755,-2.654931,-0.347255,0.185149,0.999726,-0.023162,-0.003067,0.001545
6239,0.039166,-0.451720,9.906931,-0.608278,0.297638,-1.105212,-2.682337,-0.338847,0.144412,0.999721,-0.023402,-0.002986,0.001191
6240,0.034633,-0.458867,9.912528,-0.255695,0.407829,-1.228798,-2.696507,-0.328926,0.105002,0.999719,-0.023527,-0.002891,0.000849
6241,0.026309,-0.453972,9.902846,0.087770,0.170179,-0.903759,-2.699102,-0.320975,0.069046,0.999719,-0.023550,-0.002814,0.000536
6242,0.034551,-0.442533,9.884893,0.727392,0.342980,-0.398661,-2.685393,-0.313451,0.046961,0.999722,-0.023431,-0.002744,0.000346
6243,0.044231,-0.451062,9.887017,1.324289,0.450018,-0.276578,-2.651135,-0.300771,0.035104,0.999729,-0.023133,-0.002631,0.000246
6244,0.044963,-0.453595,9.922826,1.370201,0.268556,-0.276573,-2.606177,-0.289229,0.025345,0.999738,-0.022741,-0.002528,0.000164
6245,0.053576,-0.442441,9.929946,1.371838,0.122094,-0.024795,-2.560450,-0.282951,0.020034,0.999747,-0.022342,-0.002473,0.000120
6246,0.067896,-0.431735,9.923794,1.495593,0.105149,-0.023277,-2.512655,-0.279202,0.019067,0.999757,-0.021925,-0.002440,0.000113
6247,0.064402,-0.428500,9.913239,1.245475,-0.032436,-0.262859,-2.466947,-0.278199,0.014250,0.999765,-0.021526,-0.002430,0.000072
6248,0.046308,-0.409600,9.919374,0.949621,-0.066108,-0.311694,-2.430316,-0.280250,0.004753,0.999772,-0.021207,-0.002446,-0.000010
6249,0.049525,-0.389303,9.900345,0.850787,-0.270576,-0.062969,-2.400280,-0.286120,-0.001249,0.999778,-0.020945,-0.002496,-0.000063
6250,0.051020,-0.394041,9.901106,0.707725,-0.414031,-0.128587,-2.374290,-0.297652,-0.003963,0.999782,-0.020718,-0.002596,-0.000088
6251,0.041604,-0.395805,9.907567,0.459258,-0.203393,-0.273549,-2.354807,-0.308211,-0.010235,0.999785,-0.020548,-0.002687,-0.000145
6252,0.037404,-0.399523,9.920153,0.325146,-0.212362,-0.323897,-2.341682,-0.315542,-0.019900,0.999787,-0.020434,-0.002749,-0.000230
6253,0.042566,-0.393361,9.921919,0.189489,-0.219788,-0.261326,-2.333052,-0.323137,-0.029352,0.999789,-0.020359,-0.002814,-0.000314
6254,0.054584,-0.395920,9.939375,0.276621,-0.137290,-0.236908,-2.325238,-0.329421,-0.037408,0.999790,-0.020291,-0.002868,-0.000385
6255,0.062748,-0.395426,9.920965,0.615494,-0.073232,-0.102629,-2.310338,-0.333155,-0.042920,0.999792,-0.020161,-0.002899,-0.000433
6256,0.063986,-0.381262,9.912398,0.954437,-0.289999,0.092685,-2.284173,-0.339211,-0.042843,0.999797,-0.019933,-0.002952,-0.000433
6257,0.072796,-0.354480,9.923944,1.742247,-0.288619,0.120143,-2.239251,-0.348706,-0.038918,0.999804,-0.019541,-0.003036,-0.000399
6258,0.072122,-0.341511,9.916189,3.595352,-0.044657,0.017895,-2.150307,-0.354169,-0.036407,0.999819,-0.018765,-0.003084,-0.000376
6259,0.064032,-0.322681,9.901418,5.807106,0.251267,-0.084350,-1.993592,-0.350769,-0.037641,0.999844,-0.017397,-0.003055,-0.000382
6260,0.062490,-0.269372,9.923437,7.987030,0.533532,0.162843,-1.763695,-0.337654,-0.036765,0.999877,-0.015391,-0.002941,-0.000366
6261,0.051884,-0.231112,9.931711,10.229701,0.673953,0.573311,-1.460152,-0.317189,-0.025069,0.999915,-0.012742,-0.002765,-0.000254
6262,0.040647,-0.177132,9.892219,12.368603,0.883155,1.008198,-1.083654,-0.290651,0.000707,0.999952,-0.009456,-0.002536,-0.000018
6263,0.028314,-0.095938,9.920485,13.508148,1.083313,1.301175,-0.652562,-0.257290,0.038694,0.999981,-0.005694,-0.002247,0.000325
6264,0.021374,0.003737,9.947360,14.743707,1.410103,1.504122,-0.181898,-0.215389,0.085141,0.999997,-0.001586,-0.001881,0.000740
6265,0.001734,0.104552,9.938454,16.647448,2.086301,1.188253,0.341132,-0.157176,0.130086,0.999994,0.002978,-0.001368,0.001139
6266,-0.020264,0.211895,9.971304,18.333107,2.466555,0.791508,0.924060,-0.081684,0.163899,0.999966,0.008065,-0.000701,0.001436
6267,-0.053070,0.308868,9.981931,20.641384,2.392197,0.629752,1.573599,-0.001264,0.189338,0.999904,0.013732,0.000012,0.001652
6269,-0.038805,0.490034,9.970320,22.267799,0.979571,-0.293440,2.288730,0.054696,0.196850,0.999799,0.019971,0.000512,0.001708
6270,-0.042343,0.646561,9.945308,22.760815,-0.666645,-0.935863,3.039156,0.060805,0.176705,0.999647,0.026518,0.000571,0.001527
6271,-0.040564,0.803920,9.941961,23.078568,-2.390714,-1.030478,3.803090,0.011858,0.141039,0.999449,0.033182,0.000144,0.001227
6272,-0.018591,0.974577,9.870142,23.218037,-3.039066,-0.974028,4.574689,-0.075963,0.101206,0.999203,0.039912,-0.000627,0.000909
6273,0.003918,1.150769,9.857005,22.141659,-2.744469,-0.826021,5.330730,-0.169400,0.063033,0.998917,0.046503,-0.001451,0.000618
6274,-0.000873,1.249042,9.843192,21.327778,-1.634981,0.353501,6.055242,-0.241239,0.047949,0.998602,0.052818,-0.002080,0.000529
6275,0.004291,1.343225,9.850176,21.342241,-0.496398,1.322431,6.766276,-0.279589,0.071693,0.998254,0.059014,-0.002399,0.000769
6276,0.003400,1.452751,9.820502,21.351971,0.631556,1.917499,7.477556,-0.283991,0.125500,0.997868,0.065210,-0.002402,0.001254
6277,-0.012676,1.558160,9.843342,21.315800,0.908129,2.102078,8.188327,-0.267661,0.195309,0.997444,0.071400,-0.002208,0.001867
6278,-0.015881,1.684537,9.833468,21.563381,0.607964,2.245445,8.902607,-0.253430,0.270703,0.996978,0.077617,-0.002022,0.002527
6279,-0.030262,1.798635,9.795224,22.197010,0.703055,2.010371,9.631596,-0.243284,0.344240,0.996462,0.083958,-0.001863,0.003172
6280,-0.041348,1.939354,9.777223,22.719280,0.808903,1.769174,10.379895,-0.229428,0.410643,0.995891,0.090464,-0.001670,0.003750
6281,-0.041741,2.068590,9.769081,22.629704,0.399012,1.338753,11.135463,-0.219333,0.465279,0.995271,0.097029,-0.001511,0.004227
6282,-0.019378,2.203062,9.714465,23.550322,0.039384,0.752697,11.904957,-0.219163,0.500909,0.994596,0.103711,-0.001449,0.004546
6283,-0.018077,2.349372,9.696554,24.657188,-0.244040,-0.202622,12.708341,-0.224488,0.509151,0.993844,0.110681,-0.001455,0.004633
6284,-0.020279,2.486380,9.672817,25.455858,-0.922673,-0.588777,13.543582,-0.240488,0.491893,0.993011,0.117923,-0.001578,0.004510
6285,-0.019527,2.634674,9.589580,25.278004,-1.569245,-0.985625,14.389257,-0.274488,0.456441,0.992115,0.125248,-0.001878,0.004252
6286,-0.021774,2.759159,9.521889,24.868248,-1.701547,-0.947601,15.225212,-0.318988,0.411393,0.991175,0.132483,-0.002284,0.003927
6287,-0.037234,2.859367,9.497635,23.187216,-1.527029,-0.549494,16.026321,-0.364087,0.372881,0.990224,0.139409,-0.002693,0.003665
6288,-0.022408,2.954215,9.456109,20.530836,-1.508103,0.294159,16.755045,-0.411393,0.354527,0.989317,0.145704,-0.003101,0.003584
6289,-0.008381,3.070415,9.441512,17.894125,-1.229816,0.786855,17.395409,-0.460262,0.358373,0.988485,0.151232,-0.003497,0.003699
6290,-0.005950,3.160142,9.434237,16.775585,-1.014095,1.123899,17.973064,-0.505539,0.377357,0.987708,0.156214,-0.003843,0.003942
6291,0.001552,3.260293,9.439442,16.494667,-0.946367,1.070292,18.527330,-0.548003,0.401855,0.986938,0.160992,-0.004155,0.004231
6292,0.008247,3.381219,9.438559,17.275829,-0.712312,0.958692,19.089930,-0.585074,0.424951,0.986133,0.165837,-0.004420,0.004504
6293,0.000015,3.473397,9.394211,18.943630,-0.514831,0.749407,19.693361,-0.613820,0.445001,0.985244,0.171029,-0.004614,0.004742
6294,0.002067,3.569421,9.322204,21.240158,-0.446996,0.839175,20.362858,-0.637955,0.464372,0.984226,0.176784,-0.004763,0.004973
6295,0.006385,3.670292,9.271797,23.036201,-0.209776,1.009805,21.100483,-0.659098,0.489313,0.983065,0.183117,-0.004873,0.005251
6296,0.009374,3.799634,9.202020,23.307898,-0.117522,1.250618,21.872465,-0.677962,0.522359,0.981807,0.189738,-0.004944,0.005598
6297,0.012830,3.923212,9.138892,23.054754,-0.246531,1.569241,22.644640,-0.701365,0.563557,0.980502,0.196352,-0.005036,0.006024
6298,0.026929,4.030014,9.094434,22.629129,-0.064287,1.604047,23.405422,-0.726803,0.610221,0.979173,0.202860,-0.005130,0.006501
6299,0.019550,4.144220,9.052582,21.429754,0.084387,1.561019,24.139078,-0.747752,0.658625,0.977850,0.209127,-0.005179,0.006985
6300,0.013241,4.261170,9.034240,20.652975,-0.012544,1.502693,24.839808,-0.767822,0.705585,0.976548,0.215106,-0.005219,0.007454
6301,0.015405,4.368819,8.993780,21.792677,-0.252879,1.500801,25.546612,-0.793135,0.749005,0.975198,0.221128,-0.005305,0.007905
6302,0.032469,4.483493,8.935138,22.302164,-0.900677,0.851924,26.281116,-0.827571,0.775883,0.973757,0.227377,-0.005493,0.008235
6303,0.040262,4.613905,8.872193,22.895658,-1.621773,0.048940,27.034456,-0.871925,0.770453,0.972238,0.233775,-0.005826,0.008315
6304,0.046789,4.723288,8.800960,23.173340,-1.875941,-0.659445,27.802794,-0.919040,0.734586,0.970647,0.240289,-0.006245,0.008149
6305,0.046533,4.820495,8.704327,22.338610,-1.887464,-1.346493,28.562250,-0.958577,0.675482,0.969034,0.246715,-0.006652,0.007776
6306,0.049813,4.929359,8.651473,19.807001,-1.633443,-1.882505,29.265921,-0.983959,0.599979,0.967504,0.252657,-0.006985,0.007235
6307,0.038618,4.998460,8.576758,17.852064,-0.813249,-1.745623,29.894796,-0.989603,0.527234,0.966107,0.257958,-0.007157,0.006673
6308,0.016806,5.074331,8.551242,15.364378,-0.006671,-1.415024,30.449280,-0.974928,0.474790,0.964851,0.262626,-0.007121,0.006232
6309,0.020045,5.158482,8.543272,13.924819,0.397112,-0.974596,30.937939,-0.948985,0.443837,0.963726,0.266736,-0.006948,0.005942
6310,0.035333,5.246010,8.535995,13.381281,0.514336,-0.471810,31.393242,-0.923494,0.431063,0.962661,0.270562,-0.006741,0.005802
6311,0.028893,5.299733,8.479598,14.046235,0.764257,-0.478657,31.850393,-0.897027,0.428751,0.961577,0.274400,-0.006501,0.005746
6312,0.017704,5.371608,8.452838,14.764167,0.554500,-0.357102,32.330563,-0.871002,0.428620,0.960420,0.278426,-0.006259,0.005709
6313,0.028619,5.453125,8.395968,16.296982,0.129557,0.068122,32.848202,-0.858803,0.430713,0.959153,0.282762,-0.006126,0.005724
6314,0.023516,5.500331,8.302135,18.130463,-0.028394,-0.026978,33.421967,-0.857761,0.432233,0.957726,0.287561,-0.006085,0.005765
6315,0.010349,5.553930,8.212720,18.987333,-0.053544,-0.300649,34.040653,-0.855872,0.426936,0.956160,0.292727,-0.006051,0.005749
6316,0.001791,5.639381,8.155729,19.033905,-0.257171,-0.151688,34.674458,-0.855903,0.417783,0.954526,0.298011,-0.006043,0.005706
6317,0.010638,5.751101,8.113333,18.215284,-0.379931,0.085768,35.295353,-0.863972,0.410806,0.952897,0.303178,-0.006098,0.005702
6318,0.006636,5.839122,8.062203,16.978554,-0.435568,0.108066,35.881977,-0.876900,0.405534,0.951332,0.308052,-0.006190,0.005724
6319,0.012790,5.938219,8.036417,15.862325,-0.616331,0.064738,36.429443,-0.892755,0.397519,0.949849,0.312593,-0.006316,0.005730
6320,0.020087,5.990551,7.993408,14.858890,-0.670473,0.195377,36.941601,-0.912550,0.388188,0.948441,0.316835,-0.006480,0.005736
6321,0.030674,6.046791,7.951172,13.850904,-0.837203,0.977327,37.420078,-0.944379,0.388581,0.947108,0.320793,-0.006718,0.005855
6322,0.046817,6.117275,7.883097,14.004375,-1.067747,1.434027,37.884113,-0.994047,0.401030,0.945796,0.324626,-0.007069,0.006126
6323,0.050492,6.163479,7.805452,14.731461,-0.967552,0.983086,38.362846,-1.045595,0.411797,0.944427,0.328576,-0.007437,0.006392
6324,0.041911,6.228481,7.753570,14.912037,-0.702832,0.626956,38.856834,-1.084104,0.415378,0.942998,0.332644,-0.007716,0.006565
6325,0.045587,6.315895,7.711136,15.619086,-0.670000,0.516448,39.365669,-1.113882,0.415715,0.941509,0.336828,-0.007930,0.006690
6326,0.044305,6.405718,7.643784,16.860327,-0.699710,-0.173944,39.907177,-1.135106,0.405542,0.939905,0.341273,-0.008103,0.006707
6327,0.031854,6.463728,7.601367,18.402178,-0.715632,-0.666023,40.495388,-1.144107,0.379600,0.938142,0.346091,-0.008221,0.006563
6328,0.036226,6.536024,7.541749,20.056835,-0.841390,-0.543194,41.137001,-1.150586,0.347366,0.936191,0.351336,-0.008336,0.006365
6329,0.051650,6.592042,7.419950,20.397678,-1.055707,-0.733148,41.811947,-1.160183,0.310489,0.934106,0.356841,-0.008491,0.006144
6330,0.056658,6.694616,7.361358,20.048838,-1.132747,-1.032936,42.486980,-1.167485,0.264183,0.931990,0.362334,-0.008660,0.005840
6331,0.065775,6.783786,7.305282,20.110415,-1.254077,-0.780321,43.157280,-1.176134,0.214962,0.929856,0.367776,-0.008854,0.005519
6332,0.064872,6.852047,7.198462,18.900871,-1.380006,-0.901553,43.808483,-1.188693,0.164417,0.927752,0.373050,-0.009089,0.005201
6333,0.066774,6.940281,7.127917,17.074875,-1.531877,-1.401230,44.409336,-1.196839,0.103071,0.925785,0.377904,-0.009330,0.004780
6334,0.063137,7.029408,7.118003,17.096651,-2.010289,-1.136438,44.980343,-1.209086,0.031460,0.923893,0.382506,-0.009644,0.004290
6335,0.056292,7.090770,7.005910,19.157022,-2.783174,-0.470370,45.586185,-1.246273,-0.044146,0.921857,0.387378,-0.010176,0.003858
6336,0.073210,7.124886,6.893709,20.921444,-3.456888,-0.632884,46.256092,-1.305403,-0.131628,0.919574,0.392750,-0.010927,0.003418
6337,0.082239,7.180399,6.800956,22.463036,-3.930739,-1.033425,46.981670,-1.369803,-0.240208,0.917066,0.398550,-0.011798,0.002842
6338,0.075996,7.275466,6.697471,23.400383,-4.270273,-1.171564,47.749092,-1.435361,-0.365692,0.914374,0.404665,-0.012745,0.002152
6339,0.099597,7.393989,6.587844,23.416229,-4.402283,-1.207492,48.532776,-1.502290,-0.499839,0.911581,0.410888,-0.013744,0.001412
6340,0.119259,7.464980,6.516216,24.141605,-4.635062,-1.852220,49.329292,-1.562801,-0.646938,0.908699,0.417191,-0.014749,0.000561
6341,0.104700,7.513787,6.360029,23.897942,-4.204038,-2.852542,50.134411,-1.598216,-0.810105,0.905743,0.423540,-0.015628,-0.000494
6342,0.112153,7.631640,6.265656,20.884806,-3.302985,-2.958748,50.885155,-1.603057,-0.968369,0.902946,0.429442,-0.016262,-0.001621
6343,0.134382,7.705606,6.213108,17.244392,-3.000156,-1.732766,51.524277,-1.607934,-1.099315,0.900535,0.434452,-0.016805,-0.002541
6344,0.132069,7.761231,6.151118,13.641878,-2.854544,-0.824131,52.041954,-1.634807,-1.202344,0.898558,0.438497,-0.017422,-0.003170
6345,0.142377,7.852046,6.111087,7.202603,-1.828170,-0.375201,52.391499,-1.666827,-1.276272,0.897212,0.441220,-0.017966,-0.003572
6346,0.170189,7.946147,6.178492,1.471146,-1.168076,0.433918,52.537201,-1.698034,-1.315283,0.896647,0.442350,-0.018366,-0.003734
6347,0.185188,7.925272,6.181343,-0.593898,-1.018013,0.596535,52.552387,-1.733831,-1.333755,0.896585,0.442460,-0.018718,-0.003738
6348,0.178574,7.891346,6.174313,-2.360439,-0.753218,0.177426,52.503613,-1.762031,-1.349338,0.896771,0.442072,-0.018997,-0.003759
6349,0.181167,7.862578,6.180814,-3.583867,-0.285440,-0.070819,52.404930,-1.773991,-1.361981,0.897150,0.441295,-0.019136,-0.003828
6350,0.180389,7.824735,6.163295,-3.581630,-0.205515,-0.019646,52.285740,-1.777798,-1.369379,0.897608,0.440360,-0.019190,-0.003891
6351,0.167911,7.793412,6.195557,-4.087587,-0.316295,-0.095166,52.158161,-1.781614,-1.377429,0.898097,0.439359,-0.019247,-0.003961
6352,0.157946,7.779650,6.219026,-3.939025,-0.430070,0.061191,52.024696,-1.788809,-1.387596,0.898607,0.438309,-0.019337,-0.004035
6353,0.162273,7.765336,6.224079,-2.753274,-0.393947,-0.007196,51.913486,-1.797979,-1.397867,0.899031,0.437434,-0.019444,-0.004100
6354,0.162672,7.730302,6.239471,-2.355429,-0.265927,-0.631423,51.828823,-1.796396,-1.413098,0.899354,0.436767,-0.019487,-0.004240
6355,0.163685,7.727177,6.272876,-2.652082,-0.234034,-0.773451,51.746017,-1.783151,-1.434135,0.899669,0.436116,-0.019460,-0.004469
6356,0.165396,7.701590,6.270678,-1.657899,-0.156381,-0.506498,51.674747,-1.770439,-1.452469,0.899940,0.435555,-0.019427,-0.004674
6357,0.163630,7.703160,6.283897,-2.171305,-0.058911,-0.381428,51.611294,-1.761061,-1.464472,0.900182,0.435056,-0.019396,-0.004815
6358,0.169323,7.707345,6.301102,-2.477162,0.015638,-0.375338,51.534088,-1.751630,-1.472880,0.900475,0.434450,-0.019351,-0.004929
6359,0.163637,7.690385,6.304773,-1.774382,-0.021218,-0.083881,51.463371,-1.745699,-1.477720,0.900743,0.433894,-0.019320,-0.005002
6360,0.157339,7.671283,6.303017,-1.089902,-0.029040,-0.032042,51.415691,-1.744711,-1.479581,0.900923,0.433519,-0.019317,-0.005028
6361,0.153157,7.668711,6.296078,-1.052320,-0.044453,-0.245766,51.380100,-1.741857,-1.483429,0.901058,0.433239,-0.019307,-0.005075
6362,0.154424,7.657607,6.302394,-0.378380,0.062218,-0.381678,51.356457,-1.733503,-1.489729,0.901148,0.433053,-0.019264,-0.005161
6363,0.157509,7.649127,6.313194,-0.226417,-0.027980,-0.247464,51.346546,-1.724956,-1.495834,0.901185,0.432976,-0.019220,-0.005243
6364,0.159852,7.661105,6.322126,-0.646728,-0.080066,-0.264269,51.332207,-1.719422,-1.502571,0.901240,0.432863,-0.019201,-0.005319
6365,0.165203,7.659262,6.327048,-0.713026,0.006663,-0.438189,51.309784,-1.711046,-1.510847,0.901325,0.432686,-0.019166,-0.005419
6366,0.171471,7.665433,6.326906,-1.014277,-0.106567,-0.204608,51.281239,-1.703727,-1.518849,0.901432,0.432462,-0.019137,-0.005515
6367,0.170921,7.658233,6.330647,-1.123222,-0.370903,0.013759,51.245853,-1.706226,-1.527051,0.901565,0.432181,-0.019186,-0.005576
6368,0.167001,7.648721,6.329153,-1.056695,-0.325460,-0.128010,51.209824,-1.712009,-1.537297,0.901700,0.431895,-0.019268,-0.005641
6369,0.170543,7.666789,6.340382,-0.790198,-0.235756,-0.230117,51.179382,-1.713220,-1.548332,0.901814,0.431654,-0.019318,-0.005728
6370,0.167885,7.659003,6.332639,-0.605990,-0.278807,-0.202525,51.156441,-1.712980,-1.559538,0.901900,0.431471,-0.019357,-0.005821
6372,0.159230,7.652032,6.358407,-0.872029,-0.178366,-0.088016,51.132080,-1.713989,-1.568514,0.901991,0.431278,-0.019397,-0.005892
6373,0.170734,7.649710,6.361031,-1.438819,-0.047414,-0.058943,51.093697,-1.714445,-1.572983,0.902136,0.430975,-0.019416,-0.005932
6374,0.180165,7.644650,6.377481,-1.795091,0.017833,0.054175,51.039810,-1.714694,-1.573416,0.902338,0.430550,-0.019416,-0.005943
6375,0.182894,7.621366,6.385779,-2.056907,-0.100082,0.437452,50.975494,-1.721925,-1.569324,0.902579,0.430043,-0.019455,-0.005895
6376,0.188485,7.612767,6.406024,-2.170865,-0.140202,0.713959,50.904762,-1.739350,-1.560339,0.902844,0.429485,-0.019555,-0.005771
6377,0.203211,7.605483,6.389077,-1.761354,-0.125463,0.638067,50.838894,-1.759625,-1.549550,0.903090,0.428964,-0.019671,-0.005621
6378,0.194672,7.595395,6.401237,-1.186928,-0.031376,0.516398,50.789444,-1.776191,-1.539414,0.903274,0.428574,-0.019761,-0.005488
6379,0.197523,7.593786,6.413223,-1.064218,-0.015052,0.458752,50.751625,-1.789270,-1.529730,0.903415,0.428275,-0.019826,-0.005369
6380,0.196046,7.578229,6.406002,-0.959815,0.051644,0.236287,50.717644,-1.797853,-1.521923,0.903542,0.428007,-0.019863,-0.005281
6381,0.189304,7.576845,6.409498,-1.226182,0.095506,-0.044229,50.681084,-1.798776,-1.517995,0.903678,0.427719,-0.019854,-0.005253
6382,0.181020,7.571609,6.432737,-1.280534,0.078409,-0.294318,50.639347,-1.792574,-1.519330,0.903834,0.427391,-0.019808,-0.005294
6383,0.183997,7.591499,6.439734,-1.252488,0.004878,-0.362848,50.597328,-1.783228,-1.525209,0.903992,0.427060,-0.019754,-0.005382
6384,0.174505,7.601329,6.457012,-0.850478,-0.132723,-0.313908,50.562542,-1.775866,-1.534021,0.904121,0.426785,-0.019727,-0.005485
6385,0.175864,7.598908,6.456560,-0.736831,-0.284034,-0.025429,50.536373,-1.775913,-1.542983,0.904218,0.426577,-0.019760,-0.005560
6386,0.183905,7.591139,6.472269,-0.620187,-0.388085,0.156296,50.513981,-1.784718,-1.550248,0.904301,0.426398,-0.019855,-0.005589
6387,0.192902,7.585123,6.469313,-0.409008,-0.501363,0.319798,50.497021,-1.800269,-1.556644,0.904362,0.426260,-0.020001,-0.005584
6388,0.192750,7.581898,6.457750,-0.385432,-0.597877,0.497059,50.483955,-1.822429,-1.562121,0.904409,0.426152,-0.020196,-0.005547
6389,0.192665,7.563848,6.456345,-0.522071,-0.570763,0.408775,50.468998,-1.846470,-1.567540,0.904462,0.426029,-0.020405,-0.005503
6390,0.205454,7.568790,6.462590,-0.255917,-0.362084,0.047379,50.456268,-1.862230,-1.574694,0.904508,0.425925,-0.020555,-0.005503
6391,0.212176,7.571977,6.467284,-0.044684,-0.310630,-0.013340,50.451530,-1.869806,-1.582983,0.904525,0.425885,-0.020645,-0.005542
6392,0.210807,7.577986,6.464835,-0.262182,-0.225611,-0.121358,50.446690,-1.873766,-1.591308,0.904542,0.425844,-0.020707,-0.005593
6393,0.221463,7.582356,6.478394,-0.266053,-0.360359,0.004129,50.438179,-1.878479,-1.600086,0.904573,0.425775,-0.020777,-0.005647
6394,0.223936,7.572598,6.457253,0.015459,-0.667588,0.437919,50.434284,-1.895071,-1.608606,0.904586,0.425740,-0.020939,-0.005653
6395,0.217922,7.567928,6.454865,-0.157679,-0.947324,0.685508,50.432201,-1.926649,-1.617434,0.904590,0.425716,-0.021221,-0.005606
6396,0.222720,7.574317,6.456744,-0.524591,-0.905045,0.676687,50.421139,-1.963817,-1.626772,0.904628,0.425621,-0.021549,-0.005543
6397,0.230987,7.569449,6.470522,-0.606217,-0.969581,0.823519,50.402588,-2.002997,-1.634921,0.904693,0.425466,-0.021887,-0.005465
6398,0.235297,7.541965,6.455843,-0.646752,-0.951712,0.840650,50.381950,-2.044780,-1.641912,0.904766,0.425294,-0.022242,-0.005369
6399,0.250783,7.542595,6.470703,-0.760609,-0.627158,0.615197,50.358665,-2.080252,-1.646706,0.904849,0.425103,-0.022539,-0.005280
6400,0.258561,7.549860,6.489987,-0.909658,-0.296537,0.452361,50.330845,-2.103776,-1.647204,0.904950,0.424879,-0.022725,-0.005202
6401,0.264713,7.550883,6.486241,-1.003754,-0.240597,0.559632,50.298809,-2.122473,-1.643319,0.905067,0.424623,-0.022857,-0.005108
6402,0.275197,7.558569,6.491715,-1.096219,-0.151130,0.534198,50.263569,-2.140668,-1.636687,0.905196,0.424343,-0.022974,-0.004995
6403,0.282842,7.544569,6.516228,-1.098763,-0.089178,0.353184,50.226746,-2.154600,-1.630303,0.905332,0.424051,-0.023059,-0.004901
6404,0.286070,7.530878,6.496436,-1.145624,-0.260716,0.326323,50.189232,-2.167034,-1.627533,0.905469,0.423753,-0.023146,-0.004840
6405,0.295258,7.529800,6.483470,-1.227379,-0.330061,0.270515,50.149727,-2.180979,-1.628724,0.905614,0.423438,-0.023258,-0.004806
6406,0.306274,7.531404,6.499814,-0.695632,-0.265197,0.245310,50.117752,-2.193937,-1.630830,0.905731,0.423182,-0.023367,-0.004781
6407,0.298742,7.509636,6.503222,0.022165,-0.426163,0.471881,50.106583,-2.210498,-1.632007,0.905770,0.423090,-0.023502,-0.004732
6408,0.294909,7.527825,6.501785,0.196759,-0.524489,0.649531,50.110226,-2.234999,-1.632178,0.905754,0.423115,-0.023696,-0.004642
6409,0.293101,7.545423,6.510387,0.380646,-0.241274,0.407473,50.119793,-2.256701,-1.630674,0.905717,0.423187,-0.023863,-0.004548
6410,0.300115,7.552173,6.507727,0.556968,-0.186932,0.551454,50.135239,-2.273543,-1.625902,0.905658,0.423307,-0.023979,-0.004445
6411,0.301524,7.524184,6.512397,0.530203,-0.329440,0.497079,50.153172,-2.292473,-1.621306,0.905590,0.423446,-0.024112,-0.004334
6412,0.311246,7.541642,6.502531,-0.103946,-0.156104,0.125343,50.160259,-2.305623,-1.620872,0.905563,0.423499,-0.024215,-0.004281
6413,0.314904,7.539484,6.483201,-0.139730,0.096537,-0.199049,50.156261,-2.305316,-1.622423,0.905577,0.423468,-0.024218,-0.004295
6414,0.317573,7.535129,6.502419,-0.343401,0.141635,-0.280795,50.148300,-2.296632,-1.624501,0.905608,0.423406,-0.024157,-0.004345
6415,0.301350,7.525131,6.515283,-0.226853,0.272248,-0.611329,50.138966,-2.280798,-1.628738,0.905644,0.423334,-0.024047,-0.004439
6416,0.301469,7.553278,6.495578,-0.386356,0.471578,-0.674897,50.128902,-2.256397,-1.632967,0.905683,0.423258,-0.023869,-0.004565
6417,0.295470,7.530338,6.493474,0.011273,0.434378,-0.526358,50.122704,-2.231352,-1.634215,0.905709,0.423214,-0.023676,-0.004669
6418,0.296968,7.522998,6.488096,-0.088633,0.391054,-0.614308,50.121487,-2.207942,-1.635848,0.905715,0.423208,-0.023497,-0.004769
6419,0.294014,7.535925,6.497652,-0.042036,0.347697,-0.570993,50.119423,-2.184888,-1.639068,0.905725,0.423195,-0.023326,-0.004880
6420,0.303101,7.535357,6.491312,0.068694,0.067756,-0.141543,50.119957,-2.171335,-1.641371,0.905724,0.423201,-0.023228,-0.004948
6421,0.299595,7.519353,6.475379,0.068077,-0.204617,-0.108766,50.122406,-2.169596,-1.645799,0.905715,0.423220,-0.023230,-0.004989
6422,0.308783,7.518510,6.513385,-0.263869,-0.188622,-0.346026,50.119518,-2.167981,-1.655695,0.905726,0.423196,-0.023254,-0.005074
6423,0.312386,7.525685,6.531268,0.002075,-0.195563,0.079039,50.115452,-2.168672,-1.663468,0.905740,0.423162,-0.023288,-0.005133
6424,0.298102,7.527503,6.513773,0.001030,-0.469494,0.436902,50.115612,-2.182378,-1.666462,0.905738,0.423160,-0.023407,-0.005106
6425,0.296337,7.539243,6.499615,-0.286648,-0.442739,0.167503,50.111057,-2.199858,-1.671672,0.905753,0.423120,-0.023565,-0.005084
6426,0.291323,7.521512,6.524509,-0.304320,-0.092430,-0.111115,50.101448,-2.206300,-1.677917,0.905788,0.423041,-0.023638,-0.005111
6427,0.284486,7.542130,6.495537,-0.207491,0.050427,-0.130416,50.093037,-2.203661,-1.681038,0.905819,0.422975,-0.023628,-0.005147
6428,0.286264,7.548762,6.490252,-0.394149,-0.055426,-0.384749,50.083225,-2.197129,-1.686615,0.905855,0.422897,-0.023597,-0.005218
6429,0.306185,7.525781,6.494764,-0.303139,0.232302,-0.713720,50.071957,-2.181195,-1.696110,0.905898,0.422809,-0.023506,-0.005354
6430,0.311766,7.497477,6.492883,-0.126905,0.384089,-0.772429,50.065102,-2.155608,-1.704136,0.905925,0.422758,-0.023333,-0.005513
6431,0.311976,7.518939,6.516093,-0.301759,0.052101,-0.515196,50.058266,-2.134487,-1.712345,0.905952,0.422706,-0.023196,-0.005658
6432,0.307936,7.511099,6.504349,-0.163782,-0.124261,-0.280835,50.050865,-2.125088,-1.721792,0.905980,0.422648,-0.023156,-0.005768
6433,0.298408,7.503144,6.507931,-0.021238,-0.096114,-0.125864,50.048035,-2.122250,-1.728965,0.905990,0.422624,-0.023160,-0.005836
6434,0.295243,7.527495,6.486849,0.127594,-0.106070,-0.047252,50.049980,-2.122202,-1.733404,0.905983,0.422639,-0.023176,-0.005871
6435,0.298579,7.545141,6.521813,0.128536,-0.027524,0.038983,50.054314,-2.123526,-1.735201,0.905967,0.422672,-0.023193,-0.005880
6436,0.307605,7.525527,6.487800,0.639114,-0.026855,0.248886,50.067024,-2.127786,-1.732814,0.905919,0.422773,-0.023219,-0.005842
6437,0.309929,7.524682,6.493870,0.551564,-0.117797,0.344406,50.086704,-2.136917,-1.728314,0.905846,0.422927,-0.023275,-0.005769
6438,0.309701,7.537040,6.497693,0.274758,-0.140065,0.304117,50.100338,-2.147965,-1.724674,0.905795,0.423034,-0.023350,-0.005697
6439,0.313557,7.536353,6.505477,0.051311,-0.122658,0.330966,50.105644,-2.158895,-1.721241,0.905775,0.423074,-0.023424,-0.005628
6440,0.315407,7.528618,6.492515,0.055192,-0.198340,0.319682,50.107315,-2.170646,-1.718389,0.905768,0.423086,-0.023506,-0.005562
6441,0.315657,7.542604,6.494776,-0.223145,-0.040551,0.023037,50.104492,-2.177582,-1.717780,0.905777,0.423062,-0.023558,-0.005532
6442,0.325016,7.557168,6.488043,-0.461648,0.030231,0.028554,50.093063,-2.178352,-1.717360,0.905820,0.422972,-0.023562,-0.005528
6443,0.327931,7.539635,6.485847,-0.210276,0.053655,-0.000966,50.081802,-2.177807,-1.715991,0.905861,0.422883,-0.023553,-0.005522
6444,0.322949,7.527610,6.494220,-0.284072,0.083195,-0.189185,50.073582,-2.173913,-1.716276,0.905892,0.422819,-0.023522,-0.005540
6445,0.318209,7.534718,6.491707,-0.316697,0.073102,-0.104313,50.063614,-2.168490,-1.717419,0.905929,0.422741,-0.023483,-0.005571
6446,0.303669,7.544979,6.500939,-0.420974,-0.092551,0.046072,50.051350,-2.167954,-1.718291,0.905974,0.422644,-0.023482,-0.005582
6447,0.304530,7.541979,6.502408,-0.435217,-0.007895,-0.084385,50.037148,-2.168540,-1.719986,0.906027,0.422531,-0.023492,-0.005597
6448,0.311657,7.535094,6.496890,-0.225139,0.247628,-0.162915,50.026127,-2.162814,-1.719571,0.906068,0.422445,-0.023445,-0.005617
6449,0.321366,7.539903,6.509225,-0.475908,0.225352,-0.204725,50.014362,-2.153054,-1.717466,0.906112,0.422355,-0.023359,-0.005638
6450,0.326302,7.525308,6.522363,-0.787870,0.294557,-0.487534,49.993320,-2.138645,-1.718244,0.906191,0.422191,-0.023247,-0.005702
6451,0.326471,7.502689,6.516033,-0.791765,0.401867,-0.391854,49.967026,-2.119957,-1.718780,0.906290,0.421986,-0.023100,-0.005781
6452,0.321544,7.490753,6.503319,-0.569823,0.300115,-0.328206,49.944275,-2.103243,-1.717544,0.906375,0.421810,-0.022962,-0.005837
6453,0.321334,7.502005,6.515459,-1.242013,0.320431,-0.563636,49.914146,-2.085211,-1.719199,0.906487,0.421574,-0.022824,-0.005922
6454,0.317506,7.491353,6.517102,-0.734669,0.362101,-0.394686,49.881252,-2.065665,-1.720787,0.906610,0.421317,-0.022674,-0.006014
6455,0.320135,7.498573,6.527495,-0.592024,0.216059,-0.225707,49.859119,-2.051549,-1.720083,0.906693,0.421145,-0.022558,-0.006064
6456,0.324769,7.492323,6.519641,-0.449320,0.140146,-0.499178,49.841885,-2.038487,-1.723338,0.906757,0.421010,-0.022466,-0.006141
6457,0.319779,7.467182,6.516114,-0.204416,0.305306,-0.664277,49.831223,-2.018879,-1.730175,0.906797,0.420928,-0.022335,-0.006270
6458,0.315671,7.471974,6.513619,0.002311,0.272109,-0.719524,49.828121,-1.995048,-1.737702,0.906810,0.420907,-0.022174,-0.006418
6459,0.304467,7.488895,6.517594,-0.349338,0.293880,-0.922836,49.822704,-1.968048,-1.748159,0.906832,0.420867,-0.021999,-0.006601
6460,0.288990,7.489302,6.518156,-0.235513,0.477482,-0.929407,49.813297,-1.936168,-1.758262,0.906868,0.420796,-0.021783,-0.006800
6461,0.298154,7.513204,6.532967,-0.114009,0.667172,-0.792525,49.807602,-1.901933,-1.762210,0.906891,0.420757,-0.021526,-0.006958
6462,0.299823,7.542659,6.546666,-0.442536,0.626348,-0.744037,49.798325,-1.868458,-1.762272,0.906928,0.420689,-0.021261,-0.007083
6463,0.292270,7.537892,6.551481,-0.258319,0.516832,-0.402546,49.786579,-1.841564,-1.760057,0.906973,0.420602,-0.021039,-0.007167
6464,0.307621,7.524020,6.539380,-0.077175,0.332458,0.099271,49.780735,-1.828565,-1.752507,0.906996,0.420559,-0.020908,-0.007156
6465,0.313438,7.522539,6.527800,0.026225,0.138793,0.425763,49.779510,-1.830175,-1.740854,0.907001,0.420551,-0.020878,-0.007058
6466,0.306663,7.513828,6.515406,-0.024402,0.018360,0.544736,49.779144,-1.840834,-1.728403,0.907002,0.420549,-0.020917,-0.006920
6467,0.312545,7.509833,6.527331,0.169063,-0.124946,0.767459,49.781147,-1.858681,-1.715631,0.906995,0.420564,-0.021011,-0.006753
6469,0.318885,7.496552,6.524585,0.394440,-0.178254,0.860523,49.790100,-1.882664,-1.701964,0.906961,0.420633,-0.021152,-0.006555
6470,0.317681,7.506935,6.531649,0.465647,-0.175091,0.918479,49.803940,-1.909111,-1.687315,0.906909,0.420740,-0.021308,-0.006339
6471,0.319121,7.514128,6.524307,0.396524,-0.197828,0.861943,49.817825,-1.935790,-1.672906,0.906856,0.420848,-0.021467,-0.006125
6472,0.321182,7.514154,6.505547,0.379425,-0.154928,0.814528,49.830307,-1.960932,-1.659365,0.906809,0.420945,-0.021617,-0.005923
6473,0.318342,7.510499,6.506588,0.058713,0.177940,0.558010,49.837086,-1.978165,-1.644308,0.906784,0.420999,-0.021698,-0.005739
6474,0.320091,7.520149,6.500331,0.032537,0.469648,0.444884,49.837944,-1.983978,-1.625268,0.906781,0.421008,-0.021674,-0.005567
6475,0.320886,7.502615,6.487011,-0.043935,0.659120,0.212728,49.837006,-1.980220,-1.603809,0.906786,0.421005,-0.021565,-0.005411
6476,0.320491,7.501296,6.499419,-0.210521,0.955408,-0.181171,49.832054,-1.963266,-1.582894,0.906806,0.420973,-0.021354,-0.005309
6477,0.320039,7.508962,6.515299,0.039356,1.028903,-0.188996,49.828484,-1.937218,-1.561590,0.906823,0.420953,-0.021070,-0.005237
6478,0.324760,7.532146,6.505811,0.281723,0.818524,-0.028914,49.833115,-1.914582,-1.540392,0.906808,0.420997,-0.020813,-0.005151
6479,0.319091,7.532520,6.524987,-0.043496,0.650836,-0.370827,49.836609,-1.893696,-1.525966,0.906798,0.421031,-0.020595,-0.005113
6480,0.315799,7.536934,6.532991,0.062985,0.603709,-0.578465,49.836746,-1.868119,-1.520189,0.906800,0.421037,-0.020371,-0.005162
6481,0.316609,7.544939,6.509971,0.215379,0.387174,-0.264211,49.841263,-1.846734,-1.516624,0.906785,0.421077,-0.020189,-0.005211
6482,0.315060,7.515371,6.513386,-0.176982,0.440689,-0.632000,49.841877,-1.826421,-1.515711,0.906784,0.421086,-0.020025,-0.005279
6483,0.314347,7.492123,6.519332,-0.287352,0.512494,-0.833423,49.834251,-1.797510,-1.519325,0.906815,0.421029,-0.019809,-0.005415
6484,0.325601,7.521586,6.507779,-0.341197,0.242401,-0.383173,49.823875,-1.773900,-1.522792,0.906854,0.420951,-0.019635,-0.005531
6485,0.318372,7.526552,6.505346,-0.493965,-0.000291,-0.201424,49.810062,-1.763852,-1.525998,0.906906,0.420842,-0.019566,-0.005595
6486,0.309626,7.492575,6.513581,-0.402722,0.051567,-0.388997,49.795288,-1.755785,-1.531700,0.906960,0.420726,-0.019523,-0.005673
6487,0.308762,7.510543,6.505812,-0.485478,-0.053715,-0.211908,49.780678,-1.748159,-1.538196,0.907014,0.420610,-0.019486,-0.005755
6488,0.309065,7.535659,6.501661,-0.470270,-0.067456,-0.149261,49.764923,-1.744868,-1.543628,0.907072,0.420485,-0.019479,-0.005812
6489,0.304257,7.503268,6.509603,-0.252132,0.227052,-0.503206,49.753040,-1.734849,-1.548625,0.907116,0.420392,-0.019417,-0.005891
6490,0.308607,7.509057,6.526900,-0.275317,0.368964,-0.568736,49.744358,-1.714795,-1.552588,0.907149,0.420326,-0.019272,-0.005997
6491,0.316291,7.528383,6.506629,-0.186949,0.243757,-0.335096,49.736721,-1.696700,-1.554531,0.907178,0.420268,-0.019136,-0.006080
6492,0.307502,7.527831,6.518401,-0.092323,0.261959,-0.388304,49.732109,-1.682052,-1.555893,0.907196,0.420233,-0.019025,-0.006146
6493,0.297858,7.522704,6.527396,-0.173302,0.318371,-0.459894,49.727734,-1.665014,-1.557652,0.907213,0.420201,-0.018896,-0.006223
6494,0.305540,7.523942,6.516928,-0.048282,0.176396,-0.076737,49.724018,-1.652859,-1.557141,0.907227,0.420174,-0.018798,-0.006264
6495,0.304685,7.503184,6.496235,0.061568,0.180847,-0.140607,49.724182,-1.646247,-1.554940,0.907227,0.420177,-0.018737,-0.006271
6496,0.301981,7.488775,6.506945,-0.028586,0.311948,-0.399790,49.724720,-1.634065,-1.554496,0.907226,0.420183,-0.018639,-0.006312
6497,0.307839,7.492767,6.512585,0.018456,0.299587,-0.236255,49.724525,-1.619389,-1.553573,0.907228,0.420184,-0.018520,-0.006359
6498,0.316692,7.482483,6.515662,0.077626,0.158958,-0.052775,49.726055,-1.610773,-1.550855,0.907223,0.420198,-0.018442,-0.006368
6499,0.307263,7.482631,6.512599,0.098598,0.206002,-0.290429,49.728962,-1.602477,-1.549911,0.907213,0.420222,-0.018373,-0.006391
6500,0.298019,7.504828,6.516837,-0.069551,0.260750,-0.322174,49.729465,-1.589658,-1.550575,0.907212,0.420228,-0.018274,-0.006443
6501,0.293893,7.506971,6.535315,-0.227030,0.285028,-0.418068,49.724541,-1.574365,-1.551611,0.907230,0.420191,-0.018156,-0.006508
6502,0.292195,7.505329,6.521309,-0.257874,0.326096,-0.408678,49.716496,-1.557268,-1.552750,0.907261,0.420130,-0.018025,-0.006581
6503,0.293007,7.520095,6.516951,-0.300749,0.371716,-0.438940,49.707199,-1.538972,-1.553013,0.907296,0.420059,-0.017880,-0.006652
6504,0.297496,7.523101,6.518592,-0.448791,0.469163,-0.476772,49.694679,-1.518267,-1.552195,0.907343,0.419964,-0.017713,-0.006723
6505,0.302532,7.504125,6.520535,-0.299347,0.435304,-0.299358,49.682125,-1.498651,-1.549068,0.907390,0.419868,-0.017545,-0.006772
6506,0.295239,7.509525,6.513763,-0.218575,0.285450,-0.124967,49.673378,-1.485486,-1.544484,0.907423,0.419801,-0.017424,-0.006786
6507,0.297888,7.517372,6.513551,-0.342150,0.152375,-0.121477,49.663960,-1.477632,-1.541579,0.907459,0.419728,-0.017350,-0.006793
6508,0.290292,7.505921,6.511150,-0.383305,0.228356,-0.157669,49.651825,-1.469978,-1.539753,0.907504,0.419634,-0.017282,-0.006808
6509,0.284475,7.505669,6.524422,-0.571036,0.289129,-0.282423,49.635864,-1.458804,-1.537930,0.907563,0.419509,-0.017186,-0.006837
6510,0.280805,7.499797,6.527020,-0.716121,0.284317,-0.488082,49.614441,-1.442829,-1.538968,0.907642,0.419342,-0.017062,-0.006907
6511,0.281764,7.506751,6.520031,-0.801621,0.316118,-0.449585,49.589203,-1.424442,-1.541476,0.907735,0.419144,-0.016924,-0.006998
6512,0.269192,7.516562,6.526167,-0.825941,0.558520,-0.731567,49.562126,-1.400004,-1.543144,0.907835,0.418933,-0.016735,-0.007105
6513,0.275483,7.511741,6.535451,-0.725130,0.681896,-0.894524,49.536320,-1.365968,-1.544996,0.907931,0.418734,-0.016470,-0.007248
6514,0.263708,7.498816,6.533340,-0.589279,0.597723,-0.782787,49.514450,-1.330858,-1.546918,0.908012,0.418566,-0.016198,-0.007394
6515,0.264109,7.516662,6.521014,-0.721829,0.513543,-0.693938,49.492653,-1.300115,-1.548818,0.908093,0.418397,-0.015960,-0.007525
6516,0.272723,7.513944,6.524912,-0.703142,0.529975,-0.756047,49.468960,-1.270444,-1.551299,0.908180,0.418213,-0.015732,-0.007656
6517,0.271207,7.485229,6.533748,-0.551860,0.476133,-0.631893,49.448090,-1.241966,-1.553592,0.908257,0.418052,-0.015514,-0.007781
6518,0.263982,7.493949,6.518775,-0.455516,0.252904,-0.498574,49.431370,-1.219751,-1.556613,0.908319,0.417922,-0.015347,-0.007888
6519,0.269888,7.499536,6.519351,-0.395602,0.209695,-0.389632,49.417259,-1.203492,-1.560387,0.908371,0.417812,-0.015231,-0.007980
6520,0.265207,7.494770,6.533135,-0.312835,0.274792,-0.353893,49.405495,-1.188828,-1.562318,0.908414,0.417721,-0.015121,-0.008050
6521,0.255754,7.508280,6.543898,-0.825238,0.153770,-0.162560,49.386536,-1.177644,-1.562497,0.908483,0.417572,-0.015032,-0.008095
6522,0.254291,7.514101,6.548316,-1.075136,-0.012998,0.094348,49.354836,-1.175253,-1.561457,0.908599,0.417321,-0.015007,-0.008099
6523,0.246307,7.494913,6.555687,-1.846963,0.113245,-0.001269,49.306084,-1.175341,-1.559179,0.908777,0.416935,-0.014996,-0.008087
6524,0.245839,7.489236,6.577623,-3.001973,0.193750,-0.103032,49.225212,-1.170685,-1.556436,0.909071,0.416295,-0.014943,-0.008093
6525,0.248394,7.474761,6.598068,-4.695384,0.146166,-0.069100,49.096878,-1.164810,-1.554024,0.909537,0.415277,-0.014879,-0.008112
6526,0.255111,7.453736,6.618966,-6.579227,0.383995,-0.436573,48.908939,-1.152652,-1.552885,0.910217,0.413787,-0.014765,-0.008171
6527,0.265768,7.459784,6.656380,-9.776887,0.824726,-1.206838,48.636406,-1.118774,-1.555782,0.911200,0.411626,-0.014486,-0.008351
6528,0.254237,7.397856,6.720302,-12.838855,0.902270,-1.607810,48.259655,-1.064574,-1.565350,0.912549,0.408634,-0.014061,-0.008668
6529,0.246927,7.327324,6.756967,-15.260116,0.685318,-1.366375,47.791603,-1.010023,-1.578835,0.914211,0.404909,-0.013638,-0.009026
6530,0.241785,7.252149,6.806094,-16.738407,0.523278,-0.798374,47.258461,-0.969813,-1.588363,0.916085,0.400656,-0.013308,-0.009306
6531,0.229344,7.170011,6.878361,-18.309860,0.280361,-0.227323,46.674374,-0.948189,-1.590264,0.918115,0.395984,-0.013094,-0.009464
6532,0.216275,7.042910,6.963736,-18.656231,-0.099855,0.215511,46.058258,-0.945981,-1.588249,0.920231,0.391043,-0.013018,-0.009526
6533,0.230449,6.990403,7.023041,-18.265656,-0.252726,0.476774,45.442852,-0.958347,-1.584433,0.922318,0.386094,-0.013054,-0.009523
6534,0.232979,6.934390,7.112630,-17.832243,-0.059253,0.071241,44.841190,-0.968492,-1.581689,0.924332,0.381245,-0.013076,-0.009535
6535,0.232899,6.855832,7.197284,-17.845951,0.204415,-1.085057,44.246742,-0.954909,-1.592018,0.926297,0.376446,-0.012951,-0.009731
6536,0.228367,6.781878,7.270037,-17.293583,0.338387,-1.783589,43.661564,-0.915185,-1.620118,0.928206,0.371713,-0.012670,-0.010154
6537,0.225170,6.738629,7.319245,-17.165295,0.438780,-2.083858,43.087849,-0.861485,-1.658052,0.930053,0.367064,-0.012305,-0.010697
6538,0.218117,6.691562,7.399361,-18.178225,0.861124,-2.458890,42.499397,-0.794147,-1.698883,0.931922,0.362289,-0.011831,-0.011305
6539,0.204793,6.626766,7.474343,-19.720598,1.437582,-2.724061,41.868279,-0.707758,-1.737148,0.933900,0.357159,-0.011184,-0.011952
6540,0.191377,6.530805,7.553132,-20.925777,1.879754,-2.709992,41.191204,-0.606337,-1.768273,0.935991,0.351647,-0.010380,-0.012583
6541,0.170900,6.436609,7.620703,-22.095901,2.225790,-2.918716,40.474453,-0.493249,-1.794505,0.938168,0.345799,-0.009455,-0.013204
6542,0.157321,6.333268,7.709990,-23.264534,2.515353,-2.526223,39.718628,-0.374365,-1.813018,0.940425,0.339619,-0.008447,-0.013770
6543,0.131114,6.206357,7.774640,-23.450541,2.635530,-2.196296,38.940105,-0.258112,-1.819503,0.942707,0.333238,-0.007416,-0.014219
6544,0.111420,6.087873,7.862164,-23.200205,2.481047,-1.806876,38.162621,-0.149866,-1.818543,0.944943,0.326849,-0.006424,-0.014570
6545,0.088166,6.016233,7.934091,-22.519478,2.318939,-1.159591,37.400650,-0.056365,-1.808626,0.947093,0.320571,-0.005526,-0.014792
6546,0.090454,5.914502,8.027156,-21.977503,2.313957,-0.573320,36.659058,0.022642,-1.785207,0.949147,0.314446,-0.004712,-0.014850
6547,0.095102,5.812080,8.097973,-20.829737,2.173057,-0.328783,35.945663,0.091782,-1.753066,0.951088,0.308541,-0.003959,-0.014798
6548,0.095350,5.691123,8.176466,-19.834620,1.821484,0.126388,35.268024,0.147863,-1.717056,0.952897,0.302920,-0.003309,-0.014670
6549,0.089328,5.622538,8.221826,-19.400984,1.628554,0.158904,34.614227,0.192263,-1.680250,0.954613,0.297484,-0.002760,-0.014498
6550,0.091298,5.589211,8.345574,-20.401531,1.678204,0.217379,33.951008,0.234269,-1.644032,0.956321,0.291960,-0.002234,-0.014318
6551,0.078890,5.492955,8.412573,-22.938627,1.836176,0.913689,33.228909,0.272629,-1.595928,0.958145,0.285933,-0.001702,-0.014025
6552,0.053180,5.364425,8.460608,-24.503740,1.986584,0.779841,32.438538,0.310831,-1.537689,0.960100,0.279323,-0.001144,-0.013642
6553,0.040296,5.274861,8.520593,-25.589626,2.076024,0.348379,31.603998,0.358274,-1.485839,0.962112,0.272329,-0.000523,-0.013327
6554,0.036677,5.133327,8.596292,-25.059505,1.783981,0.396045,30.760191,0.406910,-1.441903,0.964093,0.265242,0.000086,-0.013074
6555,0.031391,4.943378,8.591939,-23.020346,1.548367,0.220932,29.959179,0.449637,-1.404976,0.965926,0.258500,0.000621,-0.012858
6556,0.020682,4.843503,8.652590,-19.192780,1.311220,-0.663745,29.255796,0.494728,-1.387847,0.967493,0.252570,0.001119,-0.012808
6557,0.025589,4.798988,8.732074,-16.086735,0.741389,-0.634384,28.667810,0.535176,-1.390188,0.968774,0.247606,0.001521,-0.012910
6558,0.022559,4.718152,8.764502,-13.607630,0.487369,-0.141119,28.172899,0.559349,-1.391821,0.969832,0.243422,0.001778,-0.012968
6559,0.021980,4.649416,8.806586,-12.674212,0.912358,-0.126988,27.734949,0.582039,-1.384844,0.970755,0.239716,0.002034,-0.012950
6560,0.027249,4.618256,8.863994,-12.557059,0.987866,-0.221181,27.314529,0.612798,-1.375340,0.971626,0.236155,0.002362,-0.012925
6561,0.035732,4.574508,8.892929,-12.822764,0.954958,-0.176482,26.891632,0.644643,-1.366484,0.972490,0.232571,0.002698,-0.012905
6562,0.024812,4.486923,8.913541,-13.819359,1.524761,-0.232486,26.447752,0.684633,-1.354026,0.973382,0.228805,0.003113,-0.012869
6563,0.023219,4.424611,8.978728,-15.319584,1.873301,-0.607415,25.962269,0.741622,-1.341562,0.974340,0.224684,0.003676,-0.012861
6564,0.007034,4.338829,9.005386,-16.235420,1.632831,-0.680222,25.436443,0.803590,-1.335548,0.975356,0.220216,0.004274,-0.012912
6565,-0.009535,4.240047,9.021343,-17.226061,1.805923,-0.798833,24.878801,0.865950,-1.333508,0.976412,0.215472,0.004872,-0.012991
6566,-0.017585,4.124952,9.061593,-17.891779,1.841687,-0.282673,24.293655,0.928731,-1.324600,0.977494,0.210488,0.005490,-0.013005
6567,-0.017012,4.023491,9.097267,-17.808378,1.416569,0.088534,23.698986,0.979635,-1.305480,0.978571,0.205416,0.006027,-0.012904
6568,-0.021096,3.929388,9.115729,-17.872974,1.211128,0.117947,23.104668,1.018452,-1.284948,0.979622,0.200340,0.006461,-0.012765
6569,-0.025225,3.855824,9.176438,-18.239630,1.233021,0.293852,22.503210,1.053345,-1.262839,0.980659,0.195197,0.006865,-0.012601
6570,-0.025812,3.762530,9.218219,-18.232384,0.751327,0.675757,21.895872,1.077852,-1.235380,0.981680,0.189997,0.007187,-0.012370
6572,-0.033529,3.668724,9.273126,-18.164101,0.716719,0.399982,21.289766,1.093996,-1.209727,0.982673,0.184802,0.007432,-0.012138
6573,-0.041533,3.572622,9.316586,-18.063776,0.915600,0.202004,20.686359,1.115814,-1.190610,0.983632,0.179625,0.007713,-0.011969
6574,-0.042433,3.465429,9.368997,-17.145605,0.934426,0.382443,20.099945,1.141325,-1.170721,0.984538,0.174589,0.008024,-0.011797
6575,-0.032011,3.360562,9.389675,-16.193926,1.072210,0.482017,19.544800,1.167892,-1.145821,0.985372,0.169818,0.008346,-0.011583
6576,-0.035254,3.273294,9.435249,-15.153756,1.576157,0.374074,19.022936,1.204835,-1.117766,0.986134,0.165329,0.008757,-0.011357
6577,-0.041934,3.184206,9.445699,-14.691903,1.759653,0.055544,18.526049,1.255163,-1.093066,0.986839,0.161053,0.009275,-0.011177
6578,-0.055585,3.082455,9.478705,-14.800809,1.929428,-0.243167,18.034882,1.314533,-1.076734,0.987515,0.156824,0.009856,-0.011077
6579,-0.060567,3.007725,9.507469,-14.537444,1.981703,-0.032230,17.546286,1.378010,-1.061175,0.988169,0.152615,0.010472,-0.010985
6580,-0.068181,2.923347,9.528496,-14.130630,1.921026,-0.097485,17.068918,1.440744,-1.043882,0.988791,0.148500,0.011081,-0.010874
6581,-0.076823,2.823148,9.553276,-14.206084,1.687895,-0.333652,16.596918,1.500398,-1.033338,0.989388,0.144428,0.011654,-0.010812
6582,-0.081729,2.752370,9.581188,-13.465219,1.102247,-0.029642,16.135937,1.546731,-1.026048,0.989955,0.140449,0.012107,-0.010759
6583,-0.075734,2.701510,9.598166,-12.568590,0.608084,0.245385,15.702349,1.573152,-1.014787,0.990477,0.136703,0.012389,-0.010647
6584,-0.086721,2.614070,9.606364,-12.210556,0.118469,-0.022818,15.289557,1.583824,-1.007990,0.990963,0.133134,0.012528,-0.010556
6585,-0.080671,2.559832,9.622747,-12.143960,-0.496278,-0.164377,14.883526,1.578568,-1.012655,0.991428,0.129622,0.012514,-0.010546
6586,-0.074097,2.492231,9.623868,-11.437931,-0.738748,-0.025161,14.490273,1.559467,-1.020949,0.991869,0.126218,0.012376,-0.010554
6587,-0.066074,2.420319,9.637074,-11.165263,-0.666915,-0.491738,14.113173,1.538892,-1.035098,0.992280,0.122954,0.012217,-0.010613
6588,-0.063582,2.358192,9.650158,-11.126072,-0.758371,-0.743164,13.740972,1.520802,-1.060796,0.992674,0.119732,0.012068,-0.010777
6589,-0.055241,2.314741,9.671861,-10.889968,-0.627058,-0.896937,13.373196,1.504770,-1.092794,0.993053,0.116547,0.011931,-0.011000
6590,-0.056697,2.251091,9.677405,-10.644643,-0.459130,-0.812671,13.013455,1.493652,-1.124673,0.993412,0.113432,0.011838,-0.011227
6591,-0.054874,2.199331,9.710576,-10.796041,-0.263720,-0.847440,12.655342,1.488049,-1.154333,0.993759,0.110329,0.011795,-0.011442
6592,-0.051125,2.164076,9.735188,-10.752024,-0.008812,-0.288627,12.295707,1.487704,-1.173803,0.994099,0.107212,0.011810,-0.011574
6593,-0.045616,2.109742,9.756021,-10.385936,0.171296,0.135903,11.943361,1.490870,-1.175720,0.994423,0.104155,0.011871,-0.011557
6594,-0.043521,2.067737,9.751578,-9.902259,0.432247,0.337647,11.605482,1.499095,-1.165935,0.994726,0.101222,0.011985,-0.011444
6595,-0.048130,2.014218,9.783673,-9.438342,0.853422,0.443251,11.283590,1.517508,-1.148916,0.995006,0.098427,0.012192,-0.011278
6596,-0.047895,1.984288,9.797003,-9.001806,0.951097,0.586998,10.976861,1.543698,-1.126245,0.995264,0.095763,0.012469,-0.011071
6597,-0.047704,1.926810,9.798586,-8.995507,1.062475,0.121899,10.677395,1.574436,-1.108327,0.995509,0.093162,0.012779,-0.010907
6598,-0.051438,1.881206,9.794527,-9.492743,1.498853,-0.645337,10.369240,1.618009,-1.109104,0.995750,0.090488,0.013186,-0.010914
6599,-0.061629,1.807557,9.808974,-10.220443,1.710920,-1.147071,10.040119,1.675966,-1.129024,0.995997,0.087634,0.013706,-0.011093
6600,-0.076318,1.739169,9.788503,-10.813960,1.482021,-1.763267,9.688398,1.736714,-1.167709,0.996249,0.084586,0.014240,-0.011432
6601,-0.092501,1.683322,9.801956,-12.013281,1.425585,-2.417626,9.306079,1.796021,-1.228473,0.996511,0.081274,0.014751,-0.011955
6602,-0.100565,1.602215,9.809109,-12.178065,1.475975,-2.440264,8.900592,1.856593,-1.300806,0.996776,0.077762,0.015271,-0.012573
6603,-0.109801,1.530899,9.821519,-11.700496,1.268469,-2.256914,8.500303,1.913649,-1.371309,0.997025,0.074295,0.015765,-0.013170
6604,-0.123759,1.469168,9.853223,-11.555571,1.352422,-2.355871,8.110342,1.967974,-1.441116,0.997255,0.070916,0.016239,-0.013757
6605,-0.138994,1.420164,9.877643,-11.349538,1.878926,-2.601330,7.725996,2.032701,-1.515571,0.997468,0.067589,0.016805,-0.014388
6606,-0.147663,1.341014,9.883213,-10.475136,1.776758,-2.353925,7.359587,2.103947,-1.589476,0.997658,0.064417,0.017430,-0.015018
6607,-0.156415,1.304611,9.877235,-10.293448,1.222893,-2.675695,7.010581,2.164031,-1.666444,0.997829,0.061397,0.017957,-0.015667
6608,-0.162886,1.242358,9.879913,-10.050625,0.774291,-2.724328,6.668260,2.207809,-1.751913,0.997988,0.058435,0.018342,-0.016379
6609,-0.155006,1.183284,9.881882,-9.832221,0.189810,-2.399109,6.333667,2.233446,-1.835007,0.998138,0.055538,0.018573,-0.017062
6610,-0.142019,1.148950,9.879426,-10.030303,-0.330699,-2.031157,5.999753,2.239038,-1.908739,0.998283,0.052642,0.018637,-0.017652
6611,-0.140918,1.084576,9.874293,-10.548764,-0.384345,-2.458212,5.653820,2.234770,-1.984456,0.998427,0.049639,0.018620,-0.018254
6612,-0.144843,0.999705,9.897798,-10.456970,-0.224353,-2.380201,5.300560,2.232376,-2.065757,0.998562,0.046574,0.018623,-0.018904
6613,-0.137870,0.942552,9.894081,-10.266069,-0.174237,-2.302203,4.952126,2.232731,-2.144134,0.998686,0.043550,0.018653,-0.019531
6614,-0.138423,0.903219,9.896212,-10.487076,-0.290468,-2.323396,4.603222,2.231432,-2.221661,0.998801,0.040522,0.018674,-0.020149
6615,-0.131260,0.828527,9.913747,-10.625663,-0.446397,-2.242360,4.248359,2.225060,-2.298537,0.998909,0.037440,0.018656,-0.020759
6616,-0.125147,0.784779,9.932156,-10.520099,-0.179692,-1.314443,3.893612,2.218857,-2.358457,0.999010,0.034356,0.018648,-0.021222
6617,-0.121545,0.758605,9.923967,-10.943837,0.169387,-0.626099,3.534632,2.220757,-2.390762,0.999107,0.031232,0.018722,-0.021445
6618,-0.126600,0.685467,9.930675,-12.128926,0.767200,-0.246000,3.149560,2.237169,-2.404364,0.999201,0.027880,0.018934,-0.021505
6619,-0.137070,0.591949,9.916723,-12.667152,1.593945,0.074568,2.736264,2.276603,-2.405183,0.999288,0.024283,0.019355,-0.021452
6620,-0.152661,0.505254,9.910618,-12.750797,2.101831,0.463781,2.313108,2.337732,-2.393473,0.999362,0.020602,0.019969,-0.021289
6621,-0.171874,0.426303,9.889968,-12.573582,2.029929,0.465391,1.891787,2.405967,-2.375442,0.999421,0.016936,0.020645,-0.021067
6622,-0.185368,0.348868,9.904484,-11.332829,1.835990,0.877460,1.494385,2.469708,-2.351146,0.999467,0.013477,0.021277,-0.020791
6623,-0.194418,0.304571,9.919125,-9.194764,1.382641,1.287994,1.153888,2.522489,-2.313791,0.999499,0.010509,0.021802,-0.020406
6624,-0.192027,0.289709,9.934506,-6.711596,0.746130,1.565773,0.890918,2.557098,-2.265559,0.999522,0.008212,0.022154,-0.019937
6625,-0.190028,0.266593,9.969060,-3.898192,0.358883,1.860373,0.716656,2.574698,-2.208152,0.999540,0.006684,0.022342,-0.019404
6626,-0.185048,0.262148,9.968920,-0.469179,-0.061414,2.153482,0.646878,2.578844,-2.141134,0.999554,0.006063,0.022393,-0.018806
6627,-0.176501,0.274025,9.962902,1.588388,-0.625270,1.679062,0.668393,2.566649,-2.077331,0.999566,0.006236,0.022287,-0.018253
6628,-0.172756,0.296506,9.955326,3.049628,-1.126641,1.055114,0.747705,2.536879,-2.032082,0.999574,0.006915,0.022017,-0.017872
6629,-0.174764,0.320785,9.954390,3.838146,-1.420444,0.396080,0.863535,2.494084,-2.008472,0.999578,0.007914,0.021627,-0.017686
6630,-0.165811,0.367149,9.936007,4.054710,-1.570766,-0.488774,0.994978,2.444255,-2.010828,0.999578,0.009054,0.021172,-0.017727
6631,-0.156732,0.386928,9.926847,3.590886,-1.743989,-1.222547,1.121155,2.389537,-2.040390,0.999573,0.010151,0.020673,-0.018004
6632,-0.163703,0.394084,9.886817,3.453496,-1.729400,-1.576367,1.236586,2.332612,-2.088258,0.999565,0.011158,0.020153,-0.018437
6633,-0.162023,0.444861,9.920952,2.956104,-1.276693,-1.686032,1.341175,2.283742,-2.143788,0.999554,0.012072,0.019704,-0.018935
6634,-0.141118,0.466563,9.938513,2.852632,-1.055962,-1.531698,1.435827,2.246173,-2.198388,0.999541,0.012901,0.019355,-0.019424
6635,-0.137208,0.457236,9.908480,2.822250,-1.134382,-1.233928,1.528578,2.210873,-2.245448,0.999528,0.013712,0.019026,-0.019846
6636,-0.130189,0.493979,9.900929,2.273029,-0.909128,-1.320689,1.611833,2.177996,-2.288973,0.999516,0.014440,0.018719,-0.020235
6637,-0.124150,0.524589,9.935190,1.675234,-0.557232,-1.267050,1.675979,2.154801,-2.332817,0.999504,0.015002,0.018500,-0.020625
6638,-0.116375,0.496250,9.905152,1.454174,-0.577692,-1.129489,1.726618,2.137079,-2.373332,0.999492,0.015447,0.018330,-0.020985
6639,-0.118374,0.498966,9.882575,0.942879,-0.662227,-1.080440,1.765178,2.117545,-2.410802,0.999483,0.015786,0.018148,-0.021315
6640,-0.114762,0.511512,9.902976,0.504830,-0.702477,-0.977983,1.788020,2.095873,-2.445821,0.999477,0.015987,0.017950,-0.021621
6641,-0.108534,0.506837,9.916596,0.385665,-0.829725,-0.770237,1.801773,2.071261,-2.475763,0.999474,0.016107,0.017728,-0.021881
6642,-0.101597,0.493567,9.913982,0.235803,-0.899026,-0.707459,1.811215,2.043239,-2.501303,0.999472,0.016188,0.017478,-0.022102
6643,-0.094406,0.512604,9.920575,-0.037647,-0.827979,-0.778961,1.813608,2.015254,-2.526990,0.999471,0.016207,0.017230,-0.022322
6644,-0.090351,0.506680,9.910902,0.091827,-0.627239,-0.795529,1.813567,1.991842,-2.554002,0.999469,0.016207,0.017022,-0.022555
6645,-0.095405,0.508616,9.918880,0.048841,-0.380650,-0.815152,1.814963,1.975902,-2.581382,0.999466,0.016220,0.016879,-0.022792
6646,-0.097032,0.529310,9.937118,0.138761,-0.147699,-0.689811,1.817216,1.967895,-2.606746,0.999462,0.016242,0.016805,-0.023012
6647,-0.092941,0.545042,9.928720,0.564638,-0.001713,-0.630077,1.828181,1.966106,-2.628825,0.999456,0.016340,0.016784,-0.023206
6648,-0.098386,0.560105,9.917138,0.992256,0.014593,-0.669522,1.853386,1.967018,-2.650481,0.999448,0.016563,0.016784,-0.023399
6649,-0.106871,0.559297,9.941689,1.415346,-0.103283,-0.643351,1.892760,1.966256,-2.672411,0.999438,0.016910,0.016766,-0.023596
6650,-0.104917,0.587173,9.928163,1.779034,-0.169231,-0.669059,1.945245,1.962450,-2.694437,0.999426,0.017370,0.016719,-0.023795
6651,-0.100744,0.586453,9.913419,1.810164,-0.375600,-0.610834,2.004326,1.954111,-2.716082,0.999414,0.017887,0.016630,-0.023991
6652,-0.100731,0.592515,9.914971,1.500916,-0.565197,-0.563290,2.058827,1.939134,-2.736204,0.999403,0.018362,0.016485,-0.024172
6653,-0.102315,0.585620,9.915200,1.336482,-0.521288,-0.363156,2.105575,1.921599,-2.752301,0.999395,0.018768,0.016319,-0.024317
6654,-0.104752,0.616686,9.920868,0.599873,-0.393384,-0.192015,2.137520,1.906708,-2.762117,0.999390,0.019045,0.016181,-0.024404
6655,-0.092244,0.608236,9.943527,-0.052760,-0.361647,-0.086485,2.146469,1.894306,-2.767228,0.999389,0.019121,0.016070,-0.024448
6656,-0.089248,0.588296,9.929530,-0.112066,-0.232328,-0.092352,2.143612,1.884525,-2.770579,0.999390,0.019095,0.015985,-0.024476
6657,-0.082510,0.589393,9.918081,-0.247801,-0.193081,0.029956,2.137571,1.877478,-2.771883,0.999392,0.019041,0.015925,-0.024485
6658,-0.081728,0.597585,9.922414,-0.552832,-0.095880,-0.239896,2.124107,1.872796,-2.775561,0.999394,0.018923,0.015886,-0.024514
6659,-0.084068,0.578095,9.937963,-0.510017,-0.015441,-0.358685,2.106065,1.871310,-2.785604,0.999395,0.018767,0.015875,-0.024599
6660,-0.098652,0.569764,9.917834,0.022461,-0.182072,-0.173827,2.097645,1.868346,-2.794598,0.999395,0.018694,0.015850,-0.024676
6661,-0.103501,0.589059,9.927823,-0.143819,-0.385180,-0.124779,2.095450,1.859080,-2.799921,0.999396,0.018674,0.015769,-0.024721
6662,-0.113288,0.591975,9.938966,-0.045950,-0.121235,-0.339714,2.092027,1.850929,-2.807970,0.999396,0.018643,0.015697,-0.024789
6663,-0.102419,0.592315,9.924341,0.280840,-0.202134,0.031305,2.095769,1.845731,-2.813306,0.999395,0.018675,0.015650,-0.024835
6664,-0.086371,0.600312,9.891836,0.185029,-0.545666,0.107828,2.103593,1.833191,-2.811445,0.999396,0.018741,0.015539,-0.024818
6665,-0.077334,0.603352,9.919588,-0.431057,-0.256098,-0.397017,2.099324,1.820014,-2.816753,0.999397,0.018701,0.015424,-0.024862
6666,-0.061572,0.600098,9.927232,-0.308615,-0.145211,-0.442555,2.086544,1.813841,-2.830988,0.999397,0.018591,0.015371,-0.024983
6667,-0.030081,0.582681,9.930255,-0.238187,-0.966981,0.131439,2.077246,1.795505,-2.836845,0.999400,0.018506,0.015212,-0.025030
6668,-0.037143,0.552662,9.917062,-0.602957,-1.643934,0.038597,2.063267,1.751915,-2.835585,0.999408,0.018375,0.014835,-0.025011
6669,-0.056187,0.563504,9.905002,-0.607706,-1.704147,-0.147340,2.042974,1.696215,-2.839397,0.999418,0.018187,0.014353,-0.025033
6670,-0.066232,0.584339,9.899348,-0.418385,-1.606855,0.222150,2.025851,1.641022,-2.840111,0.999428,0.018026,0.013875,-0.025029
6671,-0.082668,0.576925,9.916299,-0.311326,-0.955324,0.237617,2.013865,1.598075,-2.833956,0.999437,0.017911,0.013504,-0.024967
6672,-0.090553,0.584970,9.923367,-0.262221,-0.019674,-0.004814,2.004398,1.581699,-2.830647,0.999441,0.017825,0.013364,-0.024935
6673,-0.076606,0.593827,9.937096,0.006757,0.717636,0.134238,2.000211,1.593250,-2.828083,0.999441,0.017790,0.013466,-0.024914
6675,-0.056358,0.581329,9.958941,-0.044733,0.938940,0.247358,1.999784,1.620621,-2.820760,0.999439,0.017792,0.013706,-0.024854
6676,-0.042469,0.555476,9.934913,0.085094,0.584676,0.265873,2.000725,1.645700,-2.811321,0.999438,0.017804,0.013926,-0.024775
6677,-0.043234,0.575769,9.926296,-0.238306,-0.042887,0.159270,1.998385,1.654477,-2.803921,0.999438,0.017784,0.014004,-0.024712
6678,-0.060047,0.582806,9.946942,-0.485218,-0.461313,0.070980,1.986428,1.645946,-2.800377,0.999442,0.017678,0.013933,-0.024678
6679,-0.068534,0.588239,9.948342,-0.761023,-0.711708,-0.070721,1.965637,1.626407,-2.801047,0.999448,0.017493,0.013767,-0.024679
6680,-0.077192,0.581671,9.914219,-0.621731,-0.574357,-0.134606,1.942474,1.605102,-2.805200,0.999453,0.017287,0.013586,-0.024709
6681,-0.072267,0.587424,9.924779,-0.720423,-0.299595,-0.160346,1.919954,1.590710,-2.810606,0.999457,0.017088,0.013464,-0.024751
6682,-0.067766,0.562510,9.928052,-0.346166,-0.088945,0.080948,1.902135,1.584282,-2.812144,0.999460,0.016931,0.013412,-0.024762
6683,-0.070537,0.556221,9.901265,-0.023955,0.284993,-0.086714,1.895967,1.587551,-2.812132,0.999461,0.016878,0.013442,-0.024761
6684,-0.065077,0.565137,9.930264,0.220483,0.304901,0.024870,1.899223,1.597411,-2.812837,0.999459,0.016909,0.013527,-0.024769
6685,-0.052648,0.573195,9.950474,0.577944,-0.168212,0.282952,1.912675,1.599517,-2.807631,0.999458,0.017026,0.013543,-0.024726
6686,-0.059240,0.580524,9.934551,0.694398,-0.391130,0.156504,1.934075,1.589955,-2.800621,0.999457,0.017210,0.013456,-0.024666
6687,-0.066915,0.572866,9.925392,0.536149,-0.414039,-0.101176,1.954597,1.576511,-2.800154,0.999456,0.017386,0.013334,-0.024662
6688,-0.066603,0.584281,9.925853,0.353464,-0.664229,-0.111660,1.969310,1.558671,-2.804315,0.999455,0.017511,0.013175,-0.024698
6689,-0.077288,0.587899,9.906250,0.135754,-0.332927,-0.438013,1.977200,1.542378,-2.814046,0.999453,0.017577,0.013030,-0.024781
6690,-0.083915,0.562766,9.925468,-0.193530,0.122143,-0.654510,1.975744,1.539494,-2.832372,0.999450,0.017566,0.013002,-0.024940
6691,-0.075926,0.571953,9.919206,-0.199447,0.087404,-0.726048,1.968578,1.543776,-2.855256,0.999446,0.017507,0.013037,-0.025140
6692,-0.060014,0.596313,9.914015,-0.275299,0.124211,-0.738062,1.960011,1.548138,-2.879532,0.999441,0.017436,0.013074,-0.025351
6693,-0.055738,0.584161,9.929063,-0.404456,0.148654,-0.737861,1.948021,1.553522,-2.903970,0.999437,0.017335,0.013120,-0.025564
6694,-0.057427,0.572057,9.950510,-0.204176,-0.422047,-0.487413,1.937319,1.549659,-2.924541,0.999434,0.017243,0.013085,-0.025741
6695,-0.051153,0.597700,9.938875,0.089306,-0.988206,-0.214071,1.935071,1.526564,-2.937025,0.999435,0.017220,0.012882,-0.025847
6696,-0.057707,0.588368,9.936971,0.181504,-1.159114,0.022650,1.939470,1.490904,-2.941426,0.999437,0.017251,0.012570,-0.025880
6697,-0.065637,0.579672,9.929978,0.311723,-1.261177,0.009108,1.947669,1.450571,-2.942265,0.999440,0.017314,0.012216,-0.025883
6698,-0.066959,0.587567,9.930779,0.417509,-1.079256,0.021499,1.959803,1.411569,-2.943086,0.999443,0.017411,0.011873,-0.025885
6699,-0.056628,0.578446,9.912792,0.759785,-0.636367,-0.130914,1.979356,1.383055,-2.945892,0.999442,0.017576,0.011619,-0.025908
6700,-0.057939,0.579399,9.902764,0.900553,-0.167517,-0.361154,2.006820,1.369950,-2.954558,0.999438,0.017813,0.011498,-0.025984
6701,-0.048453,0.582059,9.941611,1.071795,-0.144245,-0.293838,2.039427,1.365142,-2.965656,0.999430,0.018097,0.011446,-0.026083
6702,-0.035162,0.583361,9.958479,1.108686,-0.414094,-0.458459,2.075463,1.356293,-2.978524,0.999423,0.018411,0.011359,-0.026198
6703,-0.035182,0.583311,9.951368,1.183643,-1.073133,-0.606294,2.113231,1.332171,-2.997168,0.999415,0.018737,0.011137,-0.026360
6704,-0.035330,0.607884,9.937210,0.707835,-1.887773,-0.589326,2.144259,1.283596,-3.018918,0.999410,0.018998,0.010703,-0.026545
6705,-0.029811,0.617174,9.918972,0.311545,-2.117931,-0.769202,2.160702,1.217731,-3.044054,0.999408,0.019129,0.010120,-0.026755
6706,-0.029426,0.622254,9.894987,0.005348,-1.791024,-0.859052,2.165371,1.153651,-3.073636,0.999406,0.019157,0.009555,-0.027003
6707,-0.033817,0.628563,9.876938,-0.055100,-1.402888,-0.646779,2.164007,1.101405,-3.100729,0.999405,0.019136,0.009095,-0.027231
6708,-0.023147,0.641769,9.872161,-0.245104,-0.689630,-0.573369,2.158594,1.067321,-3.122370,0.999403,0.019082,0.008796,-0.027414
6709,-0.014294,0.645067,9.887136,-0.190838,0.170083,-0.525899,2.150982,1.059357,-3.141006,0.999401,0.019015,0.008725,-0.027574
6710,-0.014800,0.637097,9.914138,-0.113719,0.828366,-0.388402,2.145633,1.076557,-3.155612,0.999397,0.018974,0.008874,-0.027704
6711,-0.019112,0.632275,9.935761,-0.134358,1.044153,-0.463011,2.141249,1.108275,-3.168627,0.999391,0.018944,0.009149,-0.027822
6712,-0.020570,0.624225,9.953829,0.000549,0.730424,-0.357561,2.138772,1.138341,-3.181191,0.999386,0.018931,0.009410,-0.027937
6713,-0.020210,0.619262,9.958787,0.104842,0.065662,-0.183441,2.140359,1.151937,-3.189708,0.999383,0.018949,0.009527,-0.028013
6714,-0.024228,0.602801,9.945618,0.256290,-0.440432,-0.116137,2.146273,1.145882,-3.194931,0.999381,0.018999,0.009472,-0.028058
6715,-0.032325,0.599036,9.928489,0.280944,-1.158551,-0.013742,2.155165,1.119332,-3.198095,0.999381,0.019071,0.009238,-0.028082
6716,-0.036535,0.612255,9.916211,0.218686,-1.614081,-0.050210,2.163439,1.073194,-3.200901,0.999383,0.019132,0.008833,-0.028100
6717,-0.038669,0.634337,9.900817,0.210077,-1.443845,-0.176710,2.170480,1.022408,-3.206608,0.999385,0.019181,0.008387,-0.028142
6718,-0.030114,0.631530,9.891941,0.256533,-1.073637,-0.194873,2.178121,0.980715,-3.214390,0.999385,0.019238,0.008020,-0.028204
6719,-0.028508,0.633908,9.894736,0.100023,-0.579786,-0.277129,2.183913,0.953478,-3.223301,0.999384,0.019283,0.007780,-0.028277
6720,-0.016609,0.658335,9.910561,-0.114307,-0.172925,-0.420421,2.183474,0.941385,-3.235398,0.999382,0.019277,0.007672,-0.028381
6721,-0.005799,0.655582,9.903292,-0.004994,-0.011853,-0.359233,2.181270,0.938802,-3.248502,0.999379,0.019258,0.007648,-0.028495
6722,-0.011919,0.626803,9.898548,-0.118683,0.074433,-0.331620,2.179021,0.940282,-3.259969,0.999377,0.019239,0.007660,-0.028595
6723,-0.019841,0.628970,9.914186,-0.340905,0.270688,-0.384887,2.171168,0.946483,-3.271686,0.999375,0.019173,0.007714,-0.028697
6724,-0.016356,0.636142,9.931946,-0.399788,0.233499,-0.392377,2.158614,0.955369,-3.284315,0.999373,0.019067,0.007792,-0.028808
6725,-0.019022,0.605588,9.913531,-0.054443,0.090995,-0.291527,2.150856,0.961202,-3.295504,0.999371,0.019001,0.007843,-0.028906
6726,-0.024985,0.606617,9.927400,-0.044986,-0.170486,-0.208993,2.149058,0.960191,-3.303890,0.999369,0.018986,0.007834,-0.028979
6727,-0.015766,0.613792,9.946589,-0.122451,-0.393849,-0.236324,2.146138,0.951071,-3.311661,0.999368,0.018959,0.007754,-0.029045
6728,-0.022857,0.621121,9.931983,0.108430,-0.603482,-0.220926,2.145769,0.934746,-3.319900,0.999367,0.018952,0.007610,-0.029114
6729,-0.027394,0.604728,9.930131,0.122575,-0.724495,-0.252839,2.149478,0.912924,-3.328621,0.999366,0.018979,0.007417,-0.029187
6730,-0.034183,0.612902,9.952885,-0.525606,-0.837751,-0.507544,2.142547,0.887380,-3.342262,0.999366,0.018913,0.007194,-0.029301
6731,-0.029352,0.625689,9.920406,-0.369462,-0.812073,-0.658488,2.127317,0.860625,-3.362708,0.999365,0.018775,0.006961,-0.029474
6732,-0.018377,0.633088,9.899742,0.113425,-0.598755,-0.415740,2.122771,0.837792,-3.381474,0.999362,0.018731,0.006760,-0.029634
6733,-0.009525,0.612864,9.912844,0.057597,-0.423665,-0.456814,2.125402,0.821303,-3.396640,0.999359,0.018750,0.006613,-0.029764
6734,-0.008342,0.622834,9.903925,0.416746,-0.440866,-0.322409,2.133116,0.807386,-3.410155,0.999355,0.018815,0.006488,-0.029880
6735,-0.000965,0.617453,9.896238,1.027701,-0.409259,0.025628,2.157114,0.793413,-3.415629,0.999351,0.019021,0.006359,-0.029927
6736,-0.007112,0.595737,9.903407,1.063149,-0.208250,0.106622,2.191987,0.783046,-3.413818,0.999346,0.019322,0.006259,-0.029911
6737,-0.023127,0.616853,9.921384,0.604107,-0.246621,-0.065696,2.219780,0.775444,-3.413428,0.999342,0.019562,0.006186,-0.029908
6738,-0.018960,0.619084,9.912658,0.647180,-0.278781,0.029021,2.240622,0.766718,-3.414380,0.999339,0.019742,0.006104,-0.029916
6739,-0.014064,0.627334,9.914173,0.395766,-0.230111,0.097799,2.258028,0.758160,-3.412600,0.999337,0.019892,0.006025,-0.029900
6740,-0.017236,0.633717,9.920247,0.242067,-0.140233,-0.013481,2.268674,0.751937,-3.411439,0.999336,0.019983,0.005968,-0.029889
6741,-0.019877,0.628641,9.934189,-0.079519,-0.193731,-0.175120,2.271339,0.746499,-3.414801,0.999335,0.020005,0.005920,-0.029918
6742,-0.013928,0.614385,9.943127,-0.167805,-0.286913,-0.130761,2.267147,0.738697,-3.420213,0.999334,0.019966,0.005852,-0.029964
6743,-0.019983,0.641520,9.928734,-0.155281,-0.261055,-0.095557,2.261709,0.729720,-3.424343,0.999335,0.019917,0.005774,-0.029998
6744,-0.029713,0.633428,9.929781,-0.215849,-0.160292,-0.135127,2.255471,0.722855,-3.428462,0.999335,0.019861,0.005715,-0.030032
6745,-0.030424,0.633121,9.920973,-0.285614,-0.300531,-0.099932,2.247061,0.715334,-3.432679,0.999336,0.019786,0.005651,-0.030067
6746,-0.025516,0.635415,9.936239,-0.308046,-0.288189,-0.003701,2.237140,0.705597,-3.434789,0.999338,0.019697,0.005568,-0.030084
6747,-0.029248,0.627086,9.920164,-0.057356,-0.201064,-0.064640,2.231033,0.697493,-3.436245,0.999339,0.019642,0.005499,-0.030095
6748,-0.027044,0.611675,9.923856,-0.160827,-0.431298,-0.064547,2.227365,0.687046,-3.438807,0.999340,0.019607,0.005409,-0.030115
6749,-0.026770,0.608484,9.916036,-0.180490,-0.540979,-0.168219,2.221623,0.671004,-3.443313,0.999340,0.019553,0.005269,-0.030151
6750,-0.027211,0.610711,9.919637,-0.013984,-0.408003,-0.123878,2.218319,0.655388,-3.448790,0.999340,0.019520,0.005133,-0.030196
6751,-0.021513,0.616162,9.901050,0.305186,-0.366580,-0.041389,2.223135,0.642595,-3.452044,0.999339,0.019559,0.005020,-0.030223
6752,-0.022488,0.626902,9.908478,0.012581,-0.386193,-0.051981,2.228409,0.630119,-3.454086,0.999339,0.019602,0.004909,-0.030239
6753,-0.024338,0.620650,9.918461,0.063321,-0.286733,-0.090043,2.229644,0.619004,-3.456887,0.999338,0.019610,0.004811,-0.030261
6754,-0.024370,0.618816,9.922562,0.144506,-0.168918,-0.089959,2.233072,0.611532,-3.460181,0.999337,0.019638,0.004745,-0.030289
6755,-0.018404,0.638594,9.938771,-0.021394,-0.121316,-0.115815,2.235085,0.606832,-3.463797,0.999336,0.019654,0.004703,-0.030320
6756,-0.024678,0.623640,9.931101,-0.098767,-0.024867,-0.240857,2.233019,0.604629,-3.469832,0.999335,0.019636,0.004683,-0.030372
6757,-0.024166,0.606759,9.928740,0.101354,0.025854,-0.254510,2.232975,0.604967,-3.478082,0.999333,0.019636,0.004685,-0.030444
6758,-0.027819,0.611918,9.927577,0.037412,-0.074466,-0.271217,2.235194,0.604499,-3.486869,0.999330,0.019656,0.004678,-0.030521
6759,-0.037007,0.617676,9.927277,-0.092071,-0.023628,-0.370326,2.234170,0.603283,-3.497618,0.999327,0.019647,0.004666,-0.030614
6760,-0.042355,0.593452,9.922777,-0.049255,0.025793,-0.397724,2.231680,0.603818,-3.510408,0.999324,0.019626,0.004669,-0.030726
6761,-0.035085,0.604648,9.923004,-0.027889,-0.078919,-0.176396,2.230293,0.603305,-3.520004,0.999322,0.019614,0.004664,-0.030809
6762,-0.032752,0.599984,9.915224,-0.127017,-0.032633,-0.194634,2.227646,0.601688,-3.526257,0.999321,0.019591,0.004649,-0.030863
6763,-0.039187,0.604582,9.907866,-0.110163,0.196797,-0.255600,2.223615,0.604713,-3.533649,0.999319,0.019557,0.004675,-0.030928
6764,-0.032964,0.619561,9.936262,-0.225925,0.044745,-0.083098,2.217956,0.608955,-3.539134,0.999319,0.019509,0.004713,-0.030976
6765,-0.038772,0.614563,9.919539,-0.062363,0.124621,-0.079971,2.213123,0.611880,-3.541741,0.999319,0.019467,0.004739,-0.030999
6766,-0.045495,0.610567,9.915691,-0.124682,0.198475,-0.136360,2.209969,0.617401,-3.545136,0.999318,0.019442,0.004788,-0.031030
6767,-0.049504,0.619013,9.919575,-0.200691,0.241877,-0.114928,2.204504,0.624896,-3.549039,0.999317,0.019396,0.004854,-0.031065
6768,-0.050808,0.605804,9.931753,-0.162287,0.309716,-0.110283,2.198417,0.634226,-3.552437,0.999317,0.019346,0.004936,-0.031096
6769,-0.050995,0.588897,9.893830,0.097185,0.287516,-0.056809,2.197305,0.644279,-3.554838,0.999316,0.019339,0.005024,-0.031118
6770,-0.050698,0.584079,9.903126,-0.063107,0.282076,-0.084210,2.197851,0.653856,-3.556822,0.999315,0.019346,0.005107,-0.031137
6771,-0.066322,0.589003,9.901023,0.005488,0.398797,-0.223005,2.196836,0.665392,-3.561503,0.999313,0.019341,0.005207,-0.031180
6772,-0.078430,0.588544,9.918639,0.072584,0.384461,-0.145125,2.198072,0.678672,-3.567134,0.999311,0.019355,0.005322,-0.031231
6773,-0.086271,0.592466,9.935237,0.049659,0.275628,-0.109975,2.200064,0.689828,-3.570961,0.999309,0.019376,0.005418,-0.031267
6774,-0.099060,0.603244,9.930281,0.118388,0.214216,-0.135863,2.202819,0.698144,-3.574742,0.999307,0.019402,0.005489,-0.031301
6775,-0.108342,0.612512,9.916112,0.298653,0.452023,-0.057992,2.209735,0.709364,-3.577543,0.999304,0.019466,0.005584,-0.031328
6776,-0.098753,0.613157,9.932552,0.305023,0.634868,0.131273,2.219820,0.727418,-3.575623,0.999302,0.019559,0.005739,-0.031315
6778,-0.112903,0.606938,9.930622,0.228925,0.665116,-0.033475,2.228750,0.749005,-3.573153,0.999300,0.019642,0.005926,-0.031297
6779,-0.131064,0.598647,9.926215,0.186272,0.852718,-0.092944,2.235656,0.774365,-3.574273,0.999296,0.019709,0.006145,-0.031311
6780,-0.131749,0.595323,9.935610,0.120624,1.015982,-0.175303,2.240727,0.805661,-3.577525,0.999293,0.019762,0.006416,-0.031345
6781,-0.132477,0.583870,9.930683,0.169298,0.918251,-0.164579,2.245495,0.838095,-3.581924,0.999288,0.019813,0.006696,-0.031389
6782,-0.138718,0.583811,9.888635,0.048519,1.089058,-0.417838,2.249001,0.871905,-3.590312,0.999283,0.019853,0.006989,-0.031469
6783,-0.129915,0.590945,9.886248,-0.095089,1.467295,-0.233151,2.248082,0.914904,-3.599483,0.999278,0.019857,0.007362,-0.031556
6784,-0.123638,0.603066,9.905131,-0.209578,1.392126,-0.106436,2.242941,0.962746,-3.603272,0.999274,0.019826,0.007780,-0.031597
6785,-0.135610,0.602776,9.946970,-0.388086,1.118508,-0.117048,2.232944,1.004703,-3.605361,0.999272,0.019750,0.008149,-0.031621
6786,-0.143116,0.612034,9.977059,-0.577226,0.600763,-0.040680,2.216828,1.033438,-3.606876,0.999272,0.019618,0.008403,-0.031638
6787,-0.161561,0.584515,10.003661,-0.465881,-0.278535,0.256942,2.199512,1.038666,-3.603069,0.999275,0.019468,0.008454,-0.031604
6788,-0.158936,0.562838,9.975080,-0.074075,-1.307303,0.424854,2.190698,1.011819,-3.592725,0.999282,0.019383,0.008224,-0.031509
6789,-0.140874,0.546608,9.917363,0.111528,-2.027945,0.513419,2.191553,0.955674,-3.579224,0.999290,0.019374,0.007737,-0.031382
6790,-0.139437,0.534382,9.878615,0.080293,-2.132141,0.461594,2.194968,0.885768,-3.565638,0.999298,0.019384,0.007129,-0.031252
6791,-0.139887,0.538520,9.872332,-0.103581,-2.082062,0.220545,2.194709,0.815147,-3.556966,0.999306,0.019362,0.006514,-0.031165
6792,-0.127136,0.558681,9.891555,-0.302547,-1.848788,0.113775,2.187980,0.749468,-3.553902,0.999312,0.019286,0.005944,-0.031127
6793,-0.137520,0.556960,9.907157,-0.542585,-1.139274,-0.202055,2.173851,0.699759,-3.557266,0.999316,0.019149,0.005514,-0.031148
6794,-0.152599,0.547069,9.915341,-0.588898,-0.307363,-0.507219,2.154840,0.676112,-3.569989,0.999317,0.018978,0.005311,-0.031254
6795,-0.134045,0.542639,9.947260,-0.485746,0.097353,-0.375974,2.136753,0.673166,-3.584830,0.999316,0.018820,0.005287,-0.031382
6796,-0.124209,0.535077,9.937334,-0.182749,0.175347,-0.180633,2.125504,0.678053,-3.593931,0.999315,0.018724,0.005332,-0.031462
6797,-0.124867,0.522782,9.928313,-0.178930,-0.038176,-0.287425,2.119384,0.680626,-3.601642,0.999314,0.018671,0.005354,-0.031529
6798,-0.119152,0.528804,9.925029,-0.185813,-0.247167,-0.368274,2.113173,0.676277,-3.612740,0.999312,0.018616,0.005316,-0.031625
6799,-0.120531,0.526149,9.931999,-0.252168,-0.529432,-0.261433,2.105746,0.663729,-3.623705,0.999311,0.018549,0.005207,-0.031718
6800,-0.132579,0.538144,9.915726,-0.353532,-0.712394,-0.305663,2.095535,0.643392,-3.633910,0.999311,0.018454,0.005031,-0.031803
6801,-0.132872,0.514007,9.926743,-0.329832,-0.554942,-0.375839,2.084011,0.622698,-3.646032,0.999311,0.018349,0.004852,-0.031905
6802,-0.131220,0.503242,9.913784,-0.112564,-0.463065,-0.265961,2.076517,0.606131,-3.657338,0.999310,0.018279,0.004708,-0.032001
6803,-0.116324,0.505069,9.901156,-0.060127,-0.598620,-0.328510,2.073528,0.588807,-3.667880,0.999308,0.018249,0.004556,-0.032090
6804,-0.101137,0.527512,9.923913,-0.134158,-0.468841,-0.293394,2.070179,0.571402,-3.678882,0.999306,0.018215,0.004403,-0.032183
6805,-0.110996,0.517108,9.910865,-0.011251,-0.566419,-0.134676,2.067679,0.554417,-3.686635,0.999305,0.018189,0.004255,-0.032248
6806,-0.127838,0.529184,9.902939,0.014021,-0.639345,-0.149924,2.067674,0.534505,-3.692101,0.999305,0.018184,0.004080,-0.032293
6807,-0.110586,0.536917,9.947097,0.047056,-0.251402,-0.046149,2.068657,0.519787,-3.695903,0.999304,0.018188,0.003951,-0.032323
6808,-0.104594,0.523740,9.960491,0.305864,-0.141307,0.198014,2.074560,0.513154,-3.693610,0.999304,0.018238,0.003892,-0.032303
6809,-0.122282,0.514360,9.914884,0.347833,-0.603320,0.083577,2.085492,0.500582,-3.689371,0.999304,0.018329,0.003780,-0.032264
6810,-0.129299,0.529457,9.912793,0.238774,-0.871335,-0.059859,2.095264,0.476006,-3.689871,0.999303,0.018408,0.003562,-0.032265
6811,-0.125435,0.527899,9.912384,0.370884,-0.827991,0.104939,2.105423,0.447675,-3.690158,0.999303,0.018488,0.003312,-0.032263
6812,-0.139209,0.517691,9.904808,0.405228,-0.605976,-0.021722,2.118362,0.423741,-3.689654,0.999302,0.018594,0.003100,-0.032255
6813,-0.139515,0.499801,9.910387,0.392037,-0.435675,-0.128556,2.131627,0.406485,-3.692801,0.999299,0.018705,0.002945,-0.032280
6814,-0.120682,0.499921,9.909403,0.503810,-0.183057,-0.316261,2.146503,0.396457,-3.700595,0.999295,0.018832,0.002853,-0.032347
6815,-0.102245,0.482250,9.894715,0.323975,0.124261,-0.648923,2.160187,0.396082,-3.716708,0.999288,0.018952,0.002843,-0.032488
6816,-0.102871,0.486123,9.901202,-0.388540,0.149167,-1.077717,2.158912,0.401719,-3.745294,0.999280,0.018943,0.002888,-0.032738
6817,-0.116173,0.495925,9.908168,-0.806474,0.068877,-1.363075,2.138710,0.406875,-3.785810,0.999272,0.018770,0.002932,-0.033092
6818,-0.134306,0.508774,9.914557,-0.923614,0.043734,-1.356988,2.109553,0.410430,-3.831046,0.999263,0.018518,0.002964,-0.033486
6819,-0.149095,0.496553,9.938539,-1.121573,-0.107839,-1.126597,2.075170,0.410873,-3.872451,0.999257,0.018219,0.002971,-0.033846
6820,-0.151652,0.494733,9.951752,-1.012857,-0.002940,-1.042699,2.039337,0.410325,-3.908650,0.999251,0.017907,0.002971,-0.034161
6821,-0.148296,0.483700,9.945813,-0.795807,0.140101,-0.876399,2.008963,0.413739,-3.940536,0.999247,0.017644,0.003005,-0.034439
6822,-0.148145,0.481665,9.937144,-0.845800,0.060330,-0.671951,1.981416,0.417976,-3.966210,0.999243,0.017406,0.003046,-0.034662
6823,-0.147782,0.485137,9.933408,-0.894180,0.204858,-0.591101,1.952264,0.423115,-3.987097,0.999241,0.017154,0.003097,-0.034845
6824,-0.147299,0.471795,9.938026,-0.724353,0.392094,-0.319508,1.925177,0.433572,-4.001929,0.999240,0.016921,0.003194,-0.034975
6825,-0.152351,0.467489,9.952165,-0.647671,0.124615,-0.025026,1.902268,0.442370,-4.007380,0.999241,0.016724,0.003277,-0.035023
6826,-0.144826,0.459553,9.944969,-0.287194,-0.097128,0.124493,1.886699,0.442773,-4.005708,0.999244,0.016589,0.003286,-0.035008
6827,-0.130977,0.448630,9.925845,-0.001566,-0.201538,0.269441,1.881936,0.437582,-3.999311,0.999247,0.016545,0.003243,-0.034951
6828,-0.131235,0.434937,9.932379,-0.070100,-0.524245,0.447961,1.880828,0.425099,-3.987757,0.999251,0.016532,0.003136,-0.034849
6829,-0.125450,0.445377,9.928242,-0.111185,-0.918688,0.339607,1.877896,0.400633,-3.975426,0.999256,0.016498,0.002925,-0.034738
6830,-0.123870,0.425110,9.921450,-0.263725,-0.934708,0.147327,1.871695,0.369494,-3.968326,0.999260,0.016435,0.002657,-0.034671
6831,-0.128926,0.423696,9.932929,-0.514070,-0.892649,0.098478,1.858750,0.338921,-3.965223,0.999264,0.016312,0.002394,-0.034639
6832,-0.138097,0.419100,9.916265,-0.346329,-1.163225,0.241890,1.844435,0.304491,-3.960659,0.999268,0.016177,0.002099,-0.034595
6833,-0.128033,0.427905,9.916306,-0.485229,-1.378790,0.063329,1.830594,0.261982,-3.956933,0.999272,0.016044,0.001733,-0.034556
6834,-0.125341,0.421516,9.944447,-0.431818,-1.244918,-0.128966,1.815300,0.218311,-3.959417,0.999275,0.015897,0.001357,-0.034571
6835,-0.123554,0.409071,9.940652,0.291366,-1.449726,0.057165,1.812949,0.173461,-3.962035,0.999275,0.015863,0.000966,-0.034588
6836,-0.123568,0.426415,9.924223,0.587355,-1.968777,0.047975,1.827595,0.116459,-3.962096,0.999274,0.015974,0.000464,-0.034581
6837,-0.107900,0.430314,9.939922,0.860592,-2.168895,-0.200789,1.851721,0.047615,-3.966857,0.999270,0.016163,-0.000144,-0.034613
6838,-0.084642,0.438960,9.931046,1.393278,-2.103625,-0.057387,1.889282,-0.023415,-3.973483,0.999263,0.016469,-0.000776,-0.034660
6839,-0.079619,0.443452,9.910279,1.262212,-1.887316,-0.071158,1.933546,-0.089822,-3.977846,0.999255,0.016835,-0.001369,-0.034688
6840,-0.068609,0.475573,9.913417,0.542307,-1.504624,-0.237526,1.963636,-0.146147,-3.984910,0.999249,0.017080,-0.001870,-0.034741
6841,-0.063967,0.473020,9.935438,0.089548,-0.914367,-0.199424,1.974191,-0.186190,-3.993571,0.999244,0.017160,-0.002224,-0.034810
6842,-0.061289,0.458545,9.938534,-0.354235,-0.404918,-0.101816,1.969799,-0.207992,-3.999344,0.999243,0.017115,-0.002413,-0.034857
6843,-0.075898,0.440517,9.929996,-0.770790,-0.221853,-0.046939,1.951059,-0.218348,-4.002179,0.999245,0.016948,-0.002499,-0.034881
6844,-0.072537,0.437746,9.923918,-0.772412,-0.168370,0.128483,1.925335,-0.224894,-4.001040,0.999249,0.016722,-0.002548,-0.034871
6845,-0.076366,0.412645,9.923062,-0.790961,0.072827,0.177252,1.899259,-0.226656,-3.996001,0.999254,0.016494,-0.002554,-0.034827
6846,-0.084660,0.398684,9.913064,-0.965368,0.253085,0.021546,1.869973,-0.221336,-3.992510,0.999259,0.016241,-0.002499,-0.034798
6847,-0.094161,0.417014,9.913934,-1.203760,0.509765,-0.009039,1.833819,-0.208635,-3.991891,0.999265,0.015929,-0.002377,-0.034795
6848,-0.097154,0.409211,9.921489,-1.106294,0.558985,0.120598,1.795309,-0.190890,-3.989468,0.999271,0.015599,-0.002210,-0.034777
6849,-0.098619,0.369838,9.920349,-0.983134,0.577681,0.202934,1.760466,-0.172122,-3.983490,0.999278,0.015301,-0.002035,-0.034728
6850,-0.097108,0.372260,9.929770,-1.018849,0.549026,0.245599,1.727077,-0.153580,-3.975447,0.999285,0.015015,-0.001862,-0.034661
6851,-0.097649,0.357717,9.948833,-1.027106,0.321946,0.265378,1.692955,-0.139325,-3.966501,0.999292,0.014722,-0.001726,-0.034586
6852,-0.100013,0.341009,9.929068,-0.824927,-0.063851,0.167664,1.662070,-0.135236,-3.959161,0.999298,0.014454,-0.001680,-0.034523
6853,-0.102685,0.335658,9.919873,-0.773883,-0.002535,-0.094850,1.635420,-0.136377,-3.957981,0.999302,0.014222,-0.001682,-0.034513
6854,-0.109758,0.351592,9.938024,-0.669288,0.205334,-0.163572,1.611377,-0.132876,-3.962190,0.999303,0.014013,-0.001645,-0.034550
6855,-0.111327,0.333708,9.931169,-0.276245,0.323234,-0.221615,1.595632,-0.123890,-3.968361,0.999304,0.013878,-0.001562,-0.034605
6856,-0.106922,0.330510,9.910892,0.290658,0.372431,-0.140795,1.595884,-0.112132,-3.974076,0.999302,0.013884,-0.001461,-0.034656
6857,-0.112779,0.330392,9.926932,0.666817,0.470445,-0.151531,1.611850,-0.097953,-3.978552,0.999299,0.014027,-0.001342,-0.034697
6858,-0.127841,0.332514,9.938825,1.029229,0.451078,-0.313336,1.640129,-0.082380,-3.985861,0.999293,0.014279,-0.001216,-0.034762
6859,-0.137918,0.326257,9.920099,1.594506,0.221277,-0.389694,1.683873,-0.070839,-3.997248,0.999284,0.014664,-0.001130,-0.034863
6860,-0.137814,0.346669,9.926320,2.513812,-0.118352,-0.168499,1.752356,-0.068846,-4.006494,0.999272,0.015261,-0.001135,-0.034943
6861,-0.131224,0.347720,9.925472,4.090806,-0.349704,0.035911,1.862437,-0.076571,-4.008947,0.999256,0.016219,-0.001236,-0.034962
6862,-0.118335,0.370359,9.932402,6.096531,-0.514051,0.371552,2.032216,-0.091188,-4.002648,0.999233,0.017695,-0.001414,-0.034903
6863,-0.095774,0.429842,9.939059,9.134019,-0.782389,1.094779,2.286016,-0.113697,-3.979040,0.999198,0.019901,-0.001684,-0.034690
6864,-0.084113,0.487264,9.947211,11.648421,-1.197417,1.348022,2.632299,-0.148402,-3.939780,0.999146,0.022911,-0.002083,-0.034335
6865,-0.075653,0.560675,9.953820,14.335438,-1.575898,1.351008,3.065229,-0.196803,-3.897145,0.999064,0.026672,-0.002625,-0.033944
6866,-0.071676,0.666330,9.939909,17.887486,-2.201945,1.567632,3.602087,-0.262497,-3.852244,0.998941,0.031334,-0.003345,-0.033522
6867,-0.068150,0.777510,9.918386,19.983612,-2.938179,1.437878,4.233017,-0.351390,-3.808115,0.998765,0.036809,-0.004290,-0.033090
6868,-0.063460,0.889826,9.889649,21.362642,-3.524806,0.825918,4.921887,-0.461784,-3.779083,0.998532,0.042782,-0.005440,-0.032769
6869,-0.038333,1.023078,9.869911,22.787519,-3.581918,0.538966,5.657578,-0.581852,-3.767336,0.998237,0.049158,-0.006691,-0.032579
6870,-0.033037,1.166673,9.886061,24.000397,-3.300243,0.342024,6.437311,-0.697474,-3.764830,0.997877,0.055916,-0.007918,-0.032454
6871,-0.030581,1.292973,9.899909,24.512880,-3.071860,0.093176,7.245890,-0.803786,-3.770306,0.997451,0.062924,-0.009075,-0.032387
6872,-0.017871,1.402154,9.883738,26.339031,-2.971572,0.045725,8.093540,-0.903924,-3.781475,0.996951,0.070271,-0.010192,-0.032354
6873,-0.005868,1.586796,9.876054,28.212505,-2.563011,-0.148239,9.002931,-0.994881,-3.796896,0.996353,0.078152,-0.011250,-0.032344
6875,0.004065,1.781929,9.826012,30.479946,-2.424502,0.092656,9.981331,-1.076714,-3.811561,0.995641,0.086630,-0.012248,-0.032312
6876,0.011931,1.988249,9.749757,31.549858,-2.171510,0.307576,11.015220,-1.153219,-3.818980,0.994813,0.095586,-0.013209,-0.032200
6877,0.035974,2.207421,9.703650,31.129269,-1.778155,0.310365,12.059845,-1.219749,-3.822076,0.993895,0.104630,-0.014082,-0.032044
6878,0.036227,2.460672,9.669806,30.661793,-1.397012,0.017092,13.089740,-1.272575,-3.828299,0.992910,0.113542,-0.014834,-0.031917
6879,0.030080,2.632621,9.593136,29.364502,-1.301131,-0.215196,14.090403,-1.315520,-3.842108,0.991874,0.122193,-0.015498,-0.031860
6880,0.024622,2.813270,9.578034,27.284443,-1.107500,-0.528406,15.034988,-1.351270,-3.864208,0.990824,0.130351,-0.016094,-0.031881
6881,0.037830,2.958109,9.533230,26.129066,-1.206832,-0.508994,15.925794,-1.383846,-3.891184,0.989772,0.138036,-0.016656,-0.031949
6882,0.017217,3.097688,9.460711,26.205065,-0.994816,-0.366025,16.798569,-1.414946,-3.915511,0.988683,0.145557,-0.017198,-0.031991
6883,0.022887,3.217873,9.422576,25.575993,-0.712526,0.069875,17.661860,-1.440649,-3.928667,0.987553,0.152991,-0.017677,-0.031939
6884,0.030820,3.370818,9.369583,25.822752,-0.517233,0.669031,18.518316,-1.463922,-3.923331,0.986382,0.160361,-0.018108,-0.031728
6885,0.030760,3.504000,9.308177,26.293858,-0.172408,1.236117,19.386200,-1.485065,-3.897026,0.985145,0.167825,-0.018491,-0.031332
6886,0.018614,3.653126,9.263384,28.399233,0.688240,1.264504,20.296598,-1.491084,-3.854903,0.983792,0.175651,-0.018727,-0.030814
6887,0.020693,3.804391,9.219206,28.235573,0.932454,1.141782,21.239231,-1.480033,-3.807868,0.982327,0.183749,-0.018809,-0.030273
6888,0.019697,3.936271,9.123322,28.213795,0.668517,1.370001,22.178724,-1.470729,-3.759110,0.980801,0.191807,-0.018896,-0.029716
6889,0.011786,4.052112,9.100616,27.206083,0.505301,1.788931,23.100883,-1.472932,-3.702951,0.979240,0.199703,-0.019055,-0.029080
6890,0.014813,4.183980,9.042642,26.591827,0.015540,2.255141,23.995764,-1.491875,-3.637657,0.977666,0.207349,-0.019325,-0.028338
6891,0.032563,4.271865,8.945031,23.578636,-1.501236,2.849532,24.830091,-1.549565,-3.570358,0.976143,0.214456,-0.019896,-0.027515
6892,0.058312,4.384597,8.867512,22.176668,-2.227691,3.234896,25.590807,-1.648974,-3.504949,0.974708,0.220915,-0.020798,-0.026634
6893,0.071742,4.538004,8.849443,20.489368,-2.122568,3.205205,26.299948,-1.761118,-3.440073,0.973329,0.226922,-0.021786,-0.025731
6894,0.092728,4.646009,8.808481,18.661697,-2.026602,3.021370,26.950476,-1.869432,-3.378255,0.972031,0.232425,-0.022725,-0.024862
6895,0.095849,4.716456,8.754389,17.012442,-1.951962,2.503317,27.543295,-1.970533,-3.326718,0.970818,0.237433,-0.023603,-0.024097
6896,0.108985,4.826422,8.732680,16.490767,-1.665162,2.346860,28.100138,-2.061587,-3.283339,0.969654,0.242131,-0.024398,-0.023421
6897,0.130791,4.928904,8.698614,15.914204,-1.691190,2.158342,28.638760,-2.146482,-3.243834,0.968505,0.246671,-0.025140,-0.022789
6898,0.131435,4.949525,8.666162,15.479369,-1.474576,1.411310,29.160955,-2.221429,-3.217229,0.967369,0.251066,-0.025818,-0.022285
6899,0.125610,4.993254,8.610162,16.593044,-1.331108,0.595551,29.695240,-2.278610,-3.211087,0.966183,0.255559,-0.026390,-0.021984
6900,0.143527,5.092508,8.557595,17.831825,-1.543155,0.083417,30.269545,-2.325782,-3.225261,0.964882,0.260382,-0.026929,-0.021864
6901,0.141143,5.187467,8.512263,18.014751,-1.508006,-0.549289,30.868301,-2.365638,-3.257842,0.963498,0.265401,-0.027454,-0.021904
6902,0.123773,5.266423,8.483205,18.731693,-1.431557,-0.895202,31.482634,-2.395115,-3.303857,0.962050,0.270543,-0.027927,-0.022073
6903,0.133031,5.362693,8.410004,20.525908,-1.799101,-0.749820,32.139080,-2.426427,-3.355594,0.960471,0.276027,-0.028440,-0.022270
6904,0.131537,5.488795,8.338345,22.399626,-2.076624,-0.650246,32.856800,-2.468365,-3.410012,0.958708,0.282011,-0.029063,-0.022443
6905,0.130909,5.617847,8.270309,24.558876,-2.007734,-0.862019,33.641945,-2.511468,-3.468456,0.956737,0.288545,-0.029723,-0.022623
6906,0.132982,5.731833,8.170185,27.488838,-1.772498,-1.304261,34.512234,-2.543420,-3.533739,0.954502,0.295776,-0.030329,-0.022857
6907,0.144681,5.825005,8.045821,29.642141,-1.953864,-1.232291,35.467495,-2.570057,-3.604086,0.951987,0.303695,-0.030926,-0.023117
6908,0.161453,5.958074,7.921216,30.213104,-2.628182,-0.028073,36.467800,-2.619514,-3.665988,0.949282,0.311961,-0.031705,-0.023224
6909,0.195729,6.084424,7.820321,27.982485,-3.308738,1.038863,37.439796,-2.708664,-3.711967,0.946583,0.319959,-0.032765,-0.023084
6910,0.219180,6.188628,7.761337,24.321854,-3.403454,1.077377,38.313442,-2.818590,-3.752755,0.944097,0.327117,-0.033961,-0.022854
6911,0.239158,6.295944,7.724576,20.415201,-3.127399,0.381926,39.061470,-2.918763,-3.801831,0.941921,0.333224,-0.035076,-0.022743
6912,0.234077,6.397643,7.685324,17.288042,-2.384357,-0.434137,39.692875,-2.989251,-3.860868,0.940051,0.338366,-0.035953,-0.022824
6913,0.221599,6.445840,7.637629,15.085346,-1.268864,-1.846955,40.235981,-3.011517,-3.929240,0.938420,0.342788,-0.036447,-0.023147
6914,0.206313,6.505684,7.598892,14.869165,0.025278,-3.406369,40.739391,-2.970458,-4.009461,0.936893,0.346896,-0.036456,-0.023767
6915,0.178729,6.561743,7.534876,16.035374,1.104362,-4.172406,41.258682,-2.873397,-4.092619,0.935304,0.351148,-0.036026,-0.024579
6916,0.147801,6.599990,7.462286,19.281357,1.516696,-3.662862,41.850658,-2.754075,-4.161486,0.933473,0.355997,-0.035395,-0.025326
6917,0.143167,6.661831,7.363005,22.859978,1.301852,-2.796259,42.555252,-2.646921,-4.209696,0.931264,0.361755,-0.034832,-0.025840
6918,0.120721,6.747123,7.270817,26.218908,0.667324,-1.569530,43.374596,-2.573280,-4.240538,0.928651,0.368423,-0.034519,-0.026078
6919,0.129383,6.906429,7.125397,29.167645,-0.348761,0.440010,44.298092,-2.556380,-4.250352,0.925651,0.375898,-0.034624,-0.025934
6920,0.153324,7.065941,6.984472,29.899664,-1.244462,1.910979,45.282051,-2.602777,-4.241096,0.922388,0.383818,-0.035187,-0.025405
6921,0.174642,7.206383,6.870174,28.616159,-2.128091,2.083454,46.256943,-2.689654,-4.234809,0.919086,0.391620,-0.036077,-0.024756
6922,0.189728,7.314112,6.771626,25.498436,-2.384621,1.885137,47.159237,-2.789401,-4.244149,0.915966,0.398804,-0.037100,-0.024197
6923,0.216283,7.428087,6.669535,21.469635,-2.091861,0.948275,47.943130,-2.874620,-4.267332,0.913206,0.405020,-0.038025,-0.023825
6924,0.211653,7.448434,6.628794,17.745667,-1.422184,-0.461659,48.598621,-2.919683,-4.305715,0.910863,0.410207,-0.038656,-0.023750
6925,0.194839,7.481821,6.571896,16.119339,-1.121677,-0.771520,49.165340,-2.932110,-4.351288,0.908813,0.414687,-0.039037,-0.023875
6926,0.193377,7.531386,6.472460,15.087979,-0.842478,-0.353597,49.687351,-2.939163,-4.388414,0.906906,0.418807,-0.039336,-0.023965
6927,0.196907,7.603434,6.396198,15.309487,-0.306943,-0.926020,50.195427,-2.935153,-4.416833,0.905035,0.422815,-0.039516,-0.024030
6928,0.189471,7.703912,6.355099,16.664837,0.224009,-1.519837,50.729691,-2.904593,-4.443912,0.903050,0.427033,-0.039487,-0.024173
6929,0.182198,7.743743,6.278114,17.278587,0.162907,-1.260700,51.296616,-2.864511,-4.468113,0.900923,0.431503,-0.039383,-0.024319
6930,0.186998,7.755096,6.189485,18.502596,0.040731,-1.323513,51.894157,-2.828647,-4.492227,0.898657,0.436202,-0.039320,-0.024440
6931,0.179884,7.816008,6.114141,19.726500,0.142825,-1.660971,52.532658,-2.787467,-4.520315,0.896208,0.441209,-0.039242,-0.024599
6932,0.175690,7.905966,6.040589,20.222525,-0.179309,-1.069150,53.199802,-2.751563,-4.548311,0.893620,0.446424,-0.039214,-0.024729
6933,0.178151,7.958972,5.923020,20.945955,-0.696810,-0.230112,53.887096,-2.742818,-4.572916,0.890921,0.451771,-0.039390,-0.024719
6934,0.179623,8.039253,5.814287,22.202030,-1.008361,-0.065516,54.607445,-2.755420,-4.598838,0.888058,0.457348,-0.039746,-0.024621
6935,0.174965,8.088161,5.729737,21.811590,-1.336709,0.208922,55.342464,-2.779815,-4.629493,0.885099,0.463014,-0.040215,-0.024504
6936,0.187122,8.145576,5.617275,20.175888,-1.097433,0.268195,56.043640,-2.809254,-4.658532,0.882242,0.468399,-0.040710,-0.024360
6937,0.180370,8.196263,5.526416,18.443983,-0.237120,-0.720865,56.688396,-2.815284,-4.681258,0.879588,0.473345,-0.040986,-0.024280
6938,0.162759,8.262269,5.493407,16.258646,0.749896,-1.575746,57.267422,-2.778529,-4.695027,0.877183,0.477794,-0.040885,-0.024332
6939,0.156669,8.311494,5.425098,14.507966,1.581294,-1.820320,57.780075,-2.709905,-4.692698,0.875038,0.481743,-0.040460,-0.024420
6940,0.134159,8.389825,5.370039,13.622428,2.255527,-2.461681,58.248142,-2.615481,-4.676279,0.873066,0.485357,-0.039771,-0.024531
6941,0.110240,8.437887,5.317677,13.737856,2.073735,-2.605656,58.703362,-2.505755,-4.658951,0.871135,0.488872,-0.038961,-0.024711
6942,0.097341,8.446807,5.279706,14.536704,1.109136,-2.145376,59.174393,-2.410564,-4.654359,0.869117,0.492488,-0.038321,-0.024926
6943,0.093100,8.456510,5.179348,15.628411,0.582427,-2.432748,59.677750,-2.330553,-4.668875,0.866941,0.496328,-0.037889,-0.025215
6944,0.070563,8.478677,5.131530,16.948912,0.766778,-2.753689,60.221642,-2.244495,-4.692708,0.864568,0.500464,-0.037463,-0.025591
6945,0.080243,8.533484,5.018788,17.831459,0.629112,-2.458117,60.802162,-2.157432,-4.715237,0.862013,0.504864,-0.037037,-0.025955
6946,0.063601,8.578870,4.963069,17.941893,0.213664,-1.846617,61.399197,-2.087833,-4.737607,0.859363,0.509368,-0.036750,-0.026240
6947,0.043332,8.655638,4.843948,17.815840,-0.262825,-0.521030,61.995850,-2.053482,-4.757019,0.856693,0.513843,-0.036717,-0.026348
6948,0.042874,8.763977,4.741983,17.186506,-0.946865,1.041050,62.579693,-2.070522,-4.770784,0.854062,0.518190,-0.037039,-0.026186
6949,0.056837,8.831362,4.601815,17.408970,-1.855274,1.943965,63.156963,-2.136091,-4.789599,0.851440,0.522454,-0.037743,-0.025839
6950,0.061747,8.831105,4.517071,17.938248,-1.745923,2.160217,63.746948,-2.224121,-4.812685,0.848738,0.526788,-0.038633,-0.025409
6951,0.084485,8.828483,4.377345,18.456835,-1.088786,2.019399,64.353989,-2.307420,-4.824690,0.845937,0.531239,-0.039437,-0.024906
6952,0.108636,8.851911,4.298558,19.533901,-0.114306,1.007325,64.987015,-2.361568,-4.821250,0.842993,0.535884,-0.039956,-0.024408
6953,0.109801,8.869743,4.197678,21.294464,0.773178,-0.036793,65.666763,-2.371660,-4.804570,0.839803,0.540876,-0.040095,-0.024001
6954,0.098818,8.918461,4.136872,22.093510,1.266989,-0.174589,66.388649,-2.354610,-4.774975,0.836384,0.546173,-0.039981,-0.023613
6955,0.087611,9.027153,3.997597,22.045689,0.862037,-0.776349,67.123199,-2.326025,-4.748621,0.832870,0.551544,-0.039797,-0.023303
6956,0.081425,9.150572,3.921280,21.720297,0.754623,-1.344587,67.852150,-2.283087,-4.737278,0.829344,0.556852,-0.039579,-0.023176
6957,0.093837,9.157414,3.798818,21.555058,0.064256,-0.370064,68.573288,-2.251504,-4.735237,0.825822,0.562073,-0.039486,-0.023068
6958,0.110578,9.165549,3.716800,20.669380,-0.804719,0.500829,69.277420,-2.257990,-4.745916,0.822351,0.567131,-0.039727,-0.022869
6959,0.138181,9.210376,3.558494,19.870665,-1.289250,-0.094535,69.954269,-2.276520,-4.776237,0.818982,0.571960,-0.040145,-0.022758
6960,0.152987,9.252408,3.486243,20.005848,-1.226044,1.068088,70.620216,-2.305968,-4.810273,0.815640,0.576686,-0.040657,-0.022618
6961,0.168393,9.313174,3.378049,21.111420,-1.770198,2.770955,71.306549,-2.382716,-4.836577,0.812171,0.581521,-0.041468,-0.022170
6962,0.170114,9.403455,3.267128,20.985657,-1.684164,2.999763,72.009178,-2.492118,-4.860897,0.808593,0.586436,-0.042499,-0.021526
6963,0.184716,9.449738,3.119791,20.516731,-1.361619,3.144577,72.701630,-2.605080,-4.878237,0.805039,0.591259,-0.043510,-0.020806
6964,0.194023,9.470679,3.059057,18.750685,-1.104687,3.307647,73.356430,-2.719911,-4.886166,0.801652,0.595798,-0.044472,-0.020014
6965,0.224155,9.474924,2.983436,16.213699,-0.876753,2.532273,73.939362,-2.822586,-4.890437,0.798616,0.599823,-0.045310,-0.019278
6966,0.249237,9.422093,2.880985,13.346317,-0.561602,1.754622,74.432190,-2.897862,-4.894051,0.796032,0.603218,-0.045933,-0.018711
6967,0.272350,9.437103,2.816298,11.109878,-0.244700,1.258551,74.839775,-2.949844,-4.893717,0.793885,0.606024,-0.046357,-0.018269
6968,0.280010,9.489671,2.772813,9.569031,-0.219278,0.783895,75.184341,-2.984721,-4.892390,0.792061,0.608393,-0.046646,-0.017935
6969,0.292306,9.526625,2.713663,9.375529,-0.451759,0.982190,75.500259,-3.016029,-4.895773,0.790381,0.610560,-0.046929,-0.017662
6970,0.288816,9.522170,2.667939,9.731331,-0.777331,1.709958,75.819168,-3.064577,-4.904512,0.788680,0.612732,-0.047358,-0.017331
6971,0.288705,9.570766,2.626974,10.166377,-1.260054,1.982870,76.151779,-3.132519,-4.922564,0.786899,0.614982,-0.047971,-0.016952
6972,0.292030,9.587483,2.544089,11.613286,-1.892309,1.819235,76.516769,-3.206514,-4.958693,0.784934,0.617437,-0.048725,-0.016647
6973,0.309378,9.581699,2.484046,12.541526,-2.342999,1.982120,76.922409,-3.284403,-5.012933,0.782739,0.620153,-0.049608,-0.016422
6974,0.322974,9.556038,2.420968,12.634929,-2.567875,1.768143,77.345833,-3.363570,-5.078916,0.780436,0.622976,-0.050565,-0.016256
6975,0.341767,9.588538,2.373153,12.966131,-2.527256,0.804977,77.776886,-3.423747,-5.152739,0.778079,0.625846,-0.051437,-0.016237
6976,0.362514,9.598228,2.303013,14.015146,-2.369397,-0.024535,78.231194,-3.453434,-5.230032,0.775582,0.628877,-0.052126,-0.016393
6978,0.362183,9.612652,2.235251,15.154923,-2.521549,0.152386,78.722153,-3.471800,-5.309653,0.772870,0.632149,-0.052758,-0.016605
6979,0.360382,9.622496,2.131684,17.123314,-2.823247,-0.097991,79.265411,-3.489694,-5.397074,0.769853,0.635757,-0.053441,-0.016842
6980,0.362846,9.670585,1.976168,19.702391,-3.131079,-0.021848,79.885147,-3.505687,-5.495226,0.766390,0.639857,-0.054186,-0.017120
6981,0.347363,9.681442,1.787396,22.463593,-3.419112,-0.270803,80.594536,-3.519381,-5.603839,0.762399,0.644531,-0.054993,-0.017429
6982,0.325172,9.699859,1.616319,24.105238,-3.006768,-1.491930,81.377426,-3.507140,-5.714432,0.757960,0.649677,-0.055657,-0.017854
6983,0.314817,9.719384,1.488956,23.972391,-2.232796,-2.978691,82.184563,-3.445856,-5.811755,0.753344,0.654983,-0.055936,-0.018453
6984,0.306393,9.709869,1.364346,23.280979,-1.545821,-3.746762,82.976646,-3.342809,-5.888903,0.748776,0.660189,-0.055835,-0.019166
6985,0.295843,9.671633,1.249285,22.084330,-0.483495,-4.697907,83.735535,-3.206900,-5.938912,0.744363,0.665177,-0.055371,-0.019912
6986,0.281764,9.668321,1.128414,20.351952,0.446047,-4.533535,84.443665,-3.053884,-5.955470,0.740216,0.669832,-0.054603,-0.020574
6987,0.287221,9.730980,1.035339,19.588419,0.801807,-2.930074,85.108803,-2.928072,-5.946086,0.736300,0.674183,-0.053860,-0.020938
6988,0.286257,9.764246,0.916911,19.821270,1.125486,-1.567531,85.764290,-2.850774,-5.919930,0.732425,0.678433,-0.053332,-0.020922
6989,0.299185,9.823558,0.790239,19.179859,1.800089,0.185811,86.411942,-2.824455,-5.872734,0.728584,0.682596,-0.053001,-0.020477
6990,0.312228,9.878774,0.693704,18.053230,1.949746,1.748558,87.029282,-2.853027,-5.808339,0.724911,0.686528,-0.052905,-0.019612
6991,0.337823,9.932398,0.652470,15.704074,2.020045,2.514898,87.588364,-2.920882,-5.738753,0.721574,0.690057,-0.053007,-0.018506
6992,0.352179,9.899560,0.542426,12.191525,1.550206,2.700916,88.050026,-3.005467,-5.675858,0.718810,0.692948,-0.053230,-0.017385
6993,0.350096,9.857814,0.519349,9.428891,0.837803,2.405619,88.408104,-3.089304,-5.633359,0.716659,0.695171,-0.053549,-0.016443
6994,0.339863,9.842494,0.452562,7.392854,0.282532,1.297414,88.687347,-3.150538,-5.613089,0.714973,0.696896,-0.053847,-0.015812
6995,0.332697,9.844884,0.380004,5.769586,0.075109,0.209502,88.906364,-3.175532,-5.606606,0.713644,0.698252,-0.053993,-0.015516
6996,0.308782,9.819489,0.341551,6.022736,-0.028510,-1.852973,89.102875,-3.148134,-5.606318,0.712442,0.699488,-0.053848,-0.015590
6997,0.295289,9.822729,0.274781,6.672305,0.784979,-4.763361,89.313866,-3.037700,-5.595249,0.711140,0.700856,-0.053125,-0.016099
6998,0.251156,9.934538,0.206359,5.697571,2.025661,-7.073335,89.517723,-2.839944,-5.550399,0.709871,0.702231,-0.051657,-0.016941
6999,0.221956,9.855359,0.197217,7.790411,2.581155,-8.895725,89.738968,-2.573282,-5.475313,0.708485,0.703751,-0.049583,-0.018019
7000,0.168783,9.820634,0.254054,8.698687,3.228215,-10.170308,90.009735,-2.255310,-5.379093,0.706784,0.705598,-0.047076,-0.019269
7001,0.128852,9.839296,0.167970,8.791915,3.365611,-10.028804,90.297188,-1.918952,-5.268228,0.704972,0.707547,-0.044374,-0.020549
7002,0.076700,9.835769,0.206075,9.202363,3.115410,-8.826710,90.593697,-1.605547,-5.157715,0.703101,0.709528,-0.041823,-0.021699
7003,0.083578,9.771088,0.174056,9.790952,1.851992,-7.256623,90.908020,-1.338613,-5.071357,0.701115,0.711579,-0.039714,-0.022715
7004,0.054149,9.877129,0.139896,7.295959,0.272710,-4.690467,91.191963,-1.140213,-5.032247,0.699316,0.713394,-0.038318,-0.023615
7005,0.038103,9.937724,0.026552,5.723478,-1.742998,-2.297196,91.409378,-1.023253,-5.054089,0.697932,0.714750,-0.037787,-0.024405
7006,0.036268,9.897598,0.035409,5.121618,-3.099525,-0.246995,91.591553,-0.978787,-5.133649,0.696767,0.715847,-0.038052,-0.025107
7007,0.027992,9.831092,-0.016884,4.803394,-4.504887,0.962554,91.759155,-0.987024,-5.260676,0.695693,0.716820,-0.038934,-0.025771
7008,0.026874,9.790284,-0.058382,4.786024,-4.689522,1.174128,91.921692,-1.017716,-5.414990,0.694648,0.717743,-0.040123,-0.026458
7009,0.032202,9.796311,-0.076737,4.442130,-4.266845,0.653238,92.078201,-1.042946,-5.565257,0.693638,0.718628,-0.041254,-0.027155
7010,0.043597,9.755548,-0.061854,6.249420,-3.847214,0.120196,92.258873,-1.050709,-5.700909,0.692474,0.719669,-0.042195,-0.027861
7011,0.028387,9.760798,-0.136372,7.032831,-4.100524,-0.435804,92.482651,-1.039950,-5.833069,0.691032,0.720975,-0.043016,-0.028643
7012,0.028168,9.836894,-0.205842,5.993301,-4.465250,-0.692833,92.702271,-1.014697,-5.974865,0.689606,0.722253,-0.043813,-0.029573
7013,0.023509,9.756395,-0.356487,5.491957,-4.552283,-0.633986,92.896309,-0.985287,-6.123928,0.688335,0.723373,-0.044628,-0.030580
7014,0.009611,9.760057,-0.377715,5.040197,-3.594085,-1.875293,93.074074,-0.936458,-6.257355,0.687161,0.724406,-0.045226,-0.031620
7015,-0.005132,9.806645,-0.416170,2.177432,-2.719826,-2.146223,93.195946,-0.863769,-6.358793,0.686340,0.725124,-0.045466,-0.032640
7016,0.005968,9.864212,-0.402366,-0.500920,-1.316067,-2.139310,93.224792,-0.788702,-6.421976,0.686116,0.725300,-0.045425,-0.033482
7017,0.010041,9.854756,-0.367083,-2.093374,0.186895,-1.465273,93.181763,-0.727678,-6.437426,0.686364,0.725060,-0.045145,-0.033978
7018,0.000158,9.943550,-0.222144,-3.573022,1.114615,-0.714358,93.087013,-0.692598,-6.413786,0.686959,0.724514,-0.044758,-0.034096
7019,0.004627,9.881316,-0.213121,-3.726435,1.055086,0.568074,92.964912,-0.692075,-6.377553,0.687742,0.723796,-0.044489,-0.033929
7020,0.015341,9.864565,-0.208068,-3.212498,1.003183,0.656935,92.848862,-0.714204,-6.344337,0.688491,0.723104,-0.044378,-0.033635
7021,0.019834,9.837633,-0.193583,-2.270771,0.861249,0.574559,92.757080,-0.736225,-6.314303,0.689086,0.722556,-0.044294,-0.033351
7022,0.013748,9.833520,-0.148737,-1.190351,1.024503,-0.087736,92.698997,-0.745826,-6.283294,0.689464,0.722215,-0.044140,-0.033126
7023,0.021167,9.856726,-0.162634,-1.129291,0.969553,-0.609675,92.659889,-0.735772,-6.249547,0.689717,0.721996,-0.043855,-0.033002
7024,0.015189,9.867182,-0.148668,-1.190187,0.797107,-0.731811,92.620850,-0.714794,-6.219100,0.689965,0.721780,-0.043526,-0.032965
7025,0.005591,9.872090,-0.135960,-1.176409,1.042762,-0.883014,92.581032,-0.689300,-6.187245,0.690217,0.721562,-0.043160,-0.032949
7026,-0.007551,9.865809,-0.132810,-1.495303,1.244159,-1.005331,92.536034,-0.659561,-6.147759,0.690503,0.721316,-0.042720,-0.032916
7027,-0.012687,9.856977,-0.116735,-1.556345,0.963361,-0.991905,92.484756,-0.627916,-6.109543,0.690827,0.721033,-0.042274,-0.032904
7028,-0.023088,9.847000,-0.100151,-1.031547,0.732918,-1.086855,92.441299,-0.594515,-6.079806,0.691099,0.720794,-0.041873,-0.032950
7029,-0.019267,9.874993,-0.118704,-0.959817,0.653538,-1.505268,92.407852,-0.552330,-6.054888,0.691303,0.720616,-0.041453,-0.033078
7030,-0.019187,9.852478,-0.076113,-0.843916,0.407838,-1.716032,92.377625,-0.499427,-6.034972,0.691483,0.720459,-0.041000,-0.033301
7031,-0.019604,9.845795,-0.048269,-0.604843,0.137730,-1.711525,92.353394,-0.442724,-6.023527,0.691622,0.720336,-0.040578,-0.033597
7032,-0.024293,9.836869,-0.063878,-0.373422,0.046154,-1.543644,92.337044,-0.388642,-6.018244,0.691709,0.720258,-0.040214,-0.033911
7033,-0.025702,9.840181,-0.052222,-0.315876,0.084281,-1.590825,92.325516,-0.336532,-6.013946,0.691767,0.720207,-0.039869,-0.034217
7034,-0.022255,9.825293,-0.043690,-0.266070,0.062900,-1.320466,92.315811,-0.288150,-6.009531,0.691814,0.720166,-0.039547,-0.034498
7035,-0.023659,9.860733,-0.064765,-0.200890,0.073564,-0.908055,92.307999,-0.251130,-6.005759,0.691852,0.720133,-0.039297,-0.034711
7036,-0.029919,9.876405,-0.070097,-0.153808,-0.127879,-0.701591,92.302086,-0.224288,-6.005585,0.691881,0.720106,-0.039132,-0.034880
7037,-0.030212,9.880469,-0.087464,0.032314,-0.320167,-0.629376,92.300095,-0.201823,-6.012156,0.691885,0.720099,-0.039037,-0.035062
7038,-0.034632,9.891070,-0.090703,0.247585,-0.311036,-0.222956,92.304794,-0.187206,-6.022098,0.691847,0.720129,-0.039013,-0.035212
7039,-0.037976,9.873259,-0.065175,0.534410,-0.204246,0.096476,92.317863,-0.184754,-6.030594,0.691762,0.720206,-0.039055,-0.035274
7040,-0.042038,9.855721,-0.065570,0.744737,-0.259206,0.186986,92.339195,-0.189160,-6.038502,0.691627,0.720330,-0.039138,-0.035287
7041,-0.037206,9.856199,-0.077172,0.730799,-0.150891,0.146269,92.363815,-0.194429,-6.045559,0.691471,0.720475,-0.039222,-0.035288
7042,-0.039525,9.856349,-0.065887,0.709176,0.079496,0.108610,92.387810,-0.198624,-6.046924,0.691321,0.720618,-0.039263,-0.035262
7043,-0.028732,9.847533,-0.091458,0.846292,0.190865,-0.043443,92.413727,-0.199898,-6.042468,0.691160,0.720775,-0.039251,-0.035218
7044,-0.031957,9.862493,-0.107337,0.797483,0.137434,-0.474693,92.441093,-0.191502,-6.036635,0.690987,0.720945,-0.039172,-0.035226
7045,-0.027636,9.862111,-0.090267,0.849311,0.213707,-0.722814,92.468529,-0.171812,-6.029935,0.690810,0.721119,-0.039020,-0.035300
7046,-0.018111,9.860473,-0.101056,0.868978,0.329659,-0.604578,92.497139,-0.150102,-6.019930,0.690626,0.721302,-0.038835,-0.035367
7047,-0.009540,9.860028,-0.104876,0.635380,0.305231,-0.448011,92.522179,-0.133039,-6.008589,0.690467,0.721462,-0.038668,-0.035398
7048,-0.010349,9.848384,-0.069677,0.415219,0.218244,-0.439354,92.539658,-0.118649,-5.999220,0.690355,0.721575,-0.038528,-0.035426
7049,-0.010505,9.848976,-0.067753,0.245092,0.181612,-0.061391,92.550659,-0.110608,-5.992192,0.690285,0.721647,-0.038439,-0.035431
7050,-0.017211,9.847342,-0.083657,0.102498,0.006120,0.208210,92.556442,-0.113191,-5.989175,0.690250,0.721682,-0.038437,-0.035394
7051,-0.022757,9.832457,-0.083482,0.130903,-0.144962,0.225951,92.560333,-0.120317,-5.991809,0.690227,0.721702,-0.038498,-0.035364
7052,-0.022787,9.846399,-0.069777,-0.110895,-0.059527,0.245165,92.560684,-0.128009,-5.995565,0.690226,0.721700,-0.038568,-0.035338
7053,-0.022966,9.851453,-0.079191,-0.000241,-0.126684,0.197218,92.558830,-0.135236,-5.998995,0.690239,0.721686,-0.038632,-0.035314
7054,-0.020102,9.854750,-0.081557,-0.187056,-0.207575,0.220991,92.555725,-0.141950,-6.004872,0.690259,0.721663,-0.038709,-0.035308
7055,-0.013867,9.859664,-0.095193,-0.564490,-0.134345,0.371466,92.543221,-0.151561,-6.011003,0.690339,0.721582,-0.038802,-0.035289
7056,-0.002450,9.869461,-0.072957,-0.702397,-0.148087,0.372506,92.522118,-0.163741,-6.016254,0.690474,0.721449,-0.038901,-0.035251
7057,0.009035,9.852468,-0.071263,-0.513888,-0.213702,0.427093,92.501869,-0.176791,-6.022863,0.690604,0.721321,-0.039015,-0.035215
7058,0.015747,9.849301,-0.076556,-0.798336,-0.293046,0.579441,92.480034,-0.193183,-6.032031,0.690744,0.721181,-0.039165,-0.035175
7059,0.016065,9.850657,-0.066431,-0.966797,-0.381543,0.451031,92.450653,-0.209858,-6.044001,0.690931,0.720994,-0.039332,-0.035152
7060,0.025853,9.851383,-0.055651,-0.911034,-0.436467,0.267721,92.419411,-0.221247,-6.058131,0.691126,0.720797,-0.039480,-0.035176
7061,0.026844,9.844799,-0.051280,-0.919396,-0.370839,0.130232,92.388962,-0.227309,-6.071852,0.691316,0.720607,-0.039594,-0.035231
7062,0.022446,9.855101,-0.047287,-0.860599,-0.491374,0.044577,92.359344,-0.229625,-6.086330,0.691498,0.720422,-0.039689,-0.035314
7063,0.025875,9.876515,-0.039803,-0.878107,-0.477629,-0.030414,92.330437,-0.229200,-6.102476,0.691675,0.720242,-0.039779,-0.035425
7064,0.036323,9.871099,-0.027189,-0.598135,-0.292976,0.090012,92.305893,-0.229672,-6.115350,0.691825,0.720089,-0.039856,-0.035508
7065,0.041556,9.858042,-0.028148,-0.379217,-0.231918,0.250225,92.289642,-0.234988,-6.124319,0.691926,0.719986,-0.039939,-0.035534
7066,0.043671,9.859084,-0.034740,-0.186132,-0.273095,0.370811,92.280251,-0.244995,-6.133142,0.691986,0.719923,-0.040052,-0.035528
7067,0.050008,9.841817,-0.024704,0.023744,-0.270017,0.283914,92.277596,-0.255538,-6.142621,0.692003,0.719900,-0.040174,-0.035520
7068,0.047918,9.830359,-0.026522,0.224421,-0.239472,0.290105,92.281769,-0.264759,-6.151486,0.691977,0.719919,-0.040287,-0.035514
7069,0.051748,9.846212,-0.033479,0.341234,-0.248601,0.171157,92.291245,-0.272116,-6.159922,0.691917,0.719971,-0.040387,-0.035515
7070,0.058214,9.839635,-0.026357,0.610621,-0.134126,0.082781,92.307137,-0.276088,-6.166466,0.691817,0.720063,-0.040457,-0.035524
7071,0.053743,9.840839,-0.008004,0.605125,-0.149354,0.005088,92.327423,-0.277361,-6.171246,0.691688,0.720184,-0.040501,-0.035538
7072,0.040915,9.840828,-0.007875,0.617759,-0.250038,-0.280263,92.347839,-0.272507,-6.177710,0.691556,0.720306,-0.040519,-0.035600
7073,0.049831,9.849354,-0.028218,0.311574,-0.117256,-0.396262,92.363342,-0.260989,-6.183363,0.691453,0.720402,-0.040490,-0.035701
