seq,ax,ay,az,wroll,wpitch,wyaw,roll,pitch,yaw,q0,q1,q2,q3
63,-0.243556,-1.434461,9.782955,-3.609672,0.704507,-0.576022,-8.341757,1.411056,-0.206879,0.997276,-0.072703,0.012412,-0.000905
64,0.016683,-1.734868,9.794315,-3.264783,-6.706181,9.740701,-8.452361,1.334407,-0.041118,0.997214,-0.073685,0.011639,0.000500
65,-0.009742,-1.725410,9.703197,-2.541025,-5.841743,10.195077,-8.541253,1.176566,0.318432,0.997165,-0.074492,0.010032,0.003536
66,-0.051611,-1.815376,9.531533,-4.106035,-5.014427,9.613321,-8.645150,1.046970,0.671961,0.997093,-0.075421,0.008668,0.006536
67,-0.027438,-1.892513,9.569386,-7.766947,-5.311340,7.596536,-8.837700,0.920511,0.981676,0.996953,-0.077110,0.007349,0.009160
68,-0.053452,-2.004835,9.605688,-10.761196,-4.770900,5.099229,-9.143025,0.787717,1.216979,0.996733,-0.079770,0.006005,0.011134
69,-0.049362,-1.951134,9.567679,-12.574183,-4.343133,2.218163,-9.530134,0.657724,1.362003,0.996451,-0.083131,0.004732,0.012321
70,-0.084114,-2.178573,9.744476,-20.089531,-3.839801,-0.988159,-10.074099,0.526928,1.405438,0.996048,-0.087849,0.003503,0.012621
71,-0.165590,-2.081887,9.746870,-18.068645,-2.798972,-1.805064,-10.710290,0.409856,1.379675,0.995553,-0.093364,0.002437,0.012321
72,-0.094282,-2.055790,9.738944,-16.382532,-2.911996,-1.492435,-11.284693,0.305991,1.343907,0.995080,-0.098342,0.001504,0.011933
73,0.082066,-2.440126,9.868604,-19.087919,-3.549181,-4.812296,-11.876193,0.179397,1.262571,0.994571,-0.103465,0.000417,0.011121
74,-0.033614,-2.365054,9.801741,-11.093396,-0.893960,-10.090742,-12.379683,0.054936,1.035264,0.994129,-0.107823,-0.000498,0.009033
75,-0.076120,-2.169395,9.618434,-5.148625,0.575064,-13.169935,-12.650525,-0.033919,0.657937,0.993896,-0.110169,-0.000927,0.005674
76,0.140230,-2.450264,9.586864,-10.216346,-0.845435,-16.038971,-12.905904,-0.145756,0.184160,0.993663,-0.112385,-0.001445,0.001454
77,-0.021944,-2.586009,9.269968,-12.827250,1.376019,-18.303974,-13.287890,-0.266969,-0.375319,0.993275,-0.115706,-0.001935,-0.003523
78,-0.108115,-2.327432,8.846404,-13.802040,1.981797,-15.625897,-13.728785,-0.344673,-0.938159,0.992791,-0.119540,-0.002008,-0.008488
79,0.057912,-2.652032,8.874154,-23.734652,-0.926741,-12.024205,-14.351321,-0.439528,-1.389435,0.992082,-0.124948,-0.002291,-0.012509
80,0.065682,-2.696040,9.594158,-20.230696,-1.311112,-9.270901,-15.081014,-0.566272,-1.723241,0.991218,-0.131284,-0.002925,-0.015556
81,-0.259082,-2.639878,10.691454,-10.276690,1.867474,-4.336398,-15.587147,-0.617362,-1.944421,0.990594,-0.135674,-0.003036,-0.017541
82,-0.017335,-3.123784,11.949109,-5.989258,-0.261550,-1.029345,-15.857293,-0.615814,-2.037636,0.990257,-0.138011,-0.002869,-0.018352
83,0.254955,-3.823225,12.682912,-8.159767,-2.364276,-1.429951,-16.092796,-0.669214,-2.065020,0.989963,-0.140054,-0.003259,-0.018659
84,0.287871,-4.433690,12.754342,-13.242449,-2.708775,-2.474607,-16.449003,-0.768618,-2.103831,0.989508,-0.143147,-0.004011,-0.019128
85,0.316094,-4.505383,11.559758,-22.074846,-4.164968,-0.957298,-17.037304,-0.894789,-2.125583,0.988746,-0.148245,-0.004973,-0.019499
86,0.736333,-4.364580,9.680108,-39.735859,-10.239796,-2.791770,-18.067640,-1.142613,-2.112713,0.987350,-0.157164,-0.006951,-0.019772
87,0.327054,-3.391461,7.679111,-53.725395,-10.335943,-2.014299,-19.625925,-1.492964,-2.077893,0.985084,-0.170623,-0.009745,-0.020085
88,-0.077805,-2.516724,5.795311,-59.149967,-8.211926,3.068401,-21.510277,-1.776172,-1.952448,0.982124,-0.186822,-0.012046,-0.019628
89,-0.112700,-1.715944,4.922301,-50.478371,-6.958852,6.929812,-23.344900,-1.946733,-1.701256,0.979020,-0.202512,-0.013631,-0.017973
90,-0.077481,-1.739076,4.913113,-40.949383,-6.666290,8.205663,-24.879507,-2.051478,-1.377867,0.976250,-0.215573,-0.014890,-0.015596
91,-0.165845,-2.074075,5.353692,-20.892466,-3.447714,9.679547,-25.922308,-2.076216,-1.036102,0.974286,-0.224404,-0.015627,-0.012873
92,0.227992,-2.833076,6.531842,1.560910,-4.545362,6.846182,-26.255487,-2.075229,-0.729733,0.973661,-0.227193,-0.016189,-0.010313
93,0.483285,-3.110556,8.034122,22.243784,-2.242273,4.034875,-25.866539,-2.097632,-0.517033,0.974440,-0.223857,-0.016830,-0.008493
94,0.855420,-4.384661,9.577117,17.225965,-3.490067,4.580978,-25.215010,-2.122343,-0.346228,0.975704,-0.218287,-0.017414,-0.006990
95,1.232747,-5.360937,10.971416,18.494980,-3.977511,3.089796,-24.626013,-2.181232,-0.177679,0.976813,-0.213242,-0.018265,-0.005574
96,0.977146,-5.340952,11.405721,20.982779,-0.262335,1.872701,-23.972103,-2.211666,-0.073107,0.978013,-0.207647,-0.018746,-0.004632
97,0.953682,-5.030966,11.023423,13.028990,-0.680830,1.270268,-23.407330,-2.205158,-0.018929,0.979028,-0.202815,-0.018809,-0.004065
98,0.791967,-5.026831,10.669697,6.885234,-0.209038,1.148042,-23.077087,-2.202865,0.024010,0.979610,-0.199986,-0.018876,-0.003640
99,0.569232,-4.175872,9.746046,16.631628,1.126835,-0.500221,-22.685291,-2.184561,0.028002,0.980291,-0.196636,-0.018738,-0.003510
100,0.516604,-3.499693,8.827093,16.963552,1.047032,-3.447688,-22.122538,-2.176204,-0.046695,0.981244,-0.191832,-0.018559,-0.004043
101,1.385731,-3.863614,8.900347,0.679999,-18.665401,-11.968209,-21.823189,-2.544751,-0.175151,0.981671,-0.189281,-0.021515,-0.005704
102,0.966211,-4.259905,9.082728,-4.100491,-6.059414,-7.448802,-21.872873,-3.047819,-0.321445,0.981473,-0.189725,-0.025579,-0.007799
103,1.042296,-4.122386,9.237067,-3.888855,-7.432387,-6.951757,-21.998459,-3.346106,-0.460060,0.981181,-0.190828,-0.027894,-0.009510
104,1.042432,-4.059513,9.206798,-8.109133,-9.023805,-3.666407,-22.194664,-3.666805,-0.520988,0.980761,-0.192518,-0.030520,-0.010617
105,0.875416,-3.932752,9.115625,-8.785413,-8.857638,2.510839,-22.482513,-3.949852,-0.425224,0.980201,-0.194949,-0.033078,-0.010355
106,0.287374,-3.464721,8.947694,-2.410189,-2.642089,7.529371,-22.684950,-4.062662,-0.196492,0.979840,-0.196609,-0.034417,-0.008651
107,0.903414,-3.314033,9.009010,9.261422,-8.437013,5.560749,-22.590179,-4.149250,0.076692,0.979993,-0.195710,-0.035631,-0.006435
108,1.105613,-3.492684,9.207828,14.855634,-9.072648,4.279150,-22.207893,-4.356793,0.340217,0.980588,-0.192339,-0.037871,-0.004409
109,1.087459,-3.412312,9.352636,18.817221,-2.908639,0.327711,-21.658030,-4.513477,0.486407,0.981453,-0.187567,-0.039473,-0.003232
110,0.850039,-3.244033,9.418672,20.802742,0.742529,-3.904687,-20.994358,-4.569069,0.443647,0.982503,-0.181889,-0.039899,-0.003459
111,1.072468,-3.872404,9.372236,9.549289,-1.311289,-4.218686,-20.478619,-4.626115,0.319890,0.983288,-0.177504,-0.040212,-0.004429
112,0.910574,-3.784654,9.331136,7.743773,-0.260663,-4.828489,-20.179598,-4.703151,0.187281,0.983716,-0.174978,-0.040683,-0.005581
113,0.788550,-3.811430,9.195347,0.550426,-0.161107,-3.240153,-20.031128,-4.756016,0.062986,0.983916,-0.173743,-0.040955,-0.006675
114,0.730048,-3.821787,9.171896,1.165002,0.750696,1.221468,-19.999628,-4.758349,0.027911,0.983961,-0.173485,-0.040924,-0.006969
115,0.974412,-4.011190,9.230154,5.438416,-2.585110,1.777773,-19.894361,-4.770025,0.085523,0.984119,-0.172560,-0.041118,-0.006454
116,0.810084,-3.407587,9.321323,15.848917,-0.555947,0.802788,-19.544456,-4.804799,0.143898,0.984632,-0.169531,-0.041522,-0.005878
117,0.766337,-3.236717,9.259879,19.167706,-0.603057,1.656348,-18.964638,-4.809604,0.189051,0.985478,-0.164530,-0.041658,-0.005287
119,0.788096,-3.196743,9.309104,13.975636,-1.135610,-0.394768,-18.414724,-4.830291,0.218345,0.986250,-0.159786,-0.041901,-0.004863
120,0.757762,-3.158470,9.424629,10.354691,0.150853,-1.964190,-18.006510,-4.858229,0.186067,0.986802,-0.156282,-0.042115,-0.005030
121,0.678172,-2.944529,9.379666,10.655444,2.489029,-2.499230,-17.649197,-4.839182,0.101462,0.987287,-0.153236,-0.041853,-0.005602
122,0.685689,-2.805145,9.352847,8.092447,2.882240,-2.691343,-17.327538,-4.779827,-0.008389,0.987729,-0.150508,-0.041213,-0.006354
123,0.681167,-2.809744,9.508706,-0.142167,2.702323,-3.746553,-17.184217,-4.722795,-0.138934,0.987929,-0.149322,-0.040559,-0.007353
124,0.694047,-2.632786,9.565886,6.191103,5.130765,-3.415748,-17.070910,-4.633276,-0.291999,0.988097,-0.148401,-0.039596,-0.008517
125,0.833636,-2.540173,9.647976,8.487665,2.929512,-4.827936,-16.812601,-4.544737,-0.463100,0.988447,-0.146234,-0.038633,-0.009791
126,0.671720,-2.552505,9.709174,6.655699,4.955434,-3.945465,-16.546181,-4.460804,-0.641379,0.988797,-0.143996,-0.037708,-0.011134
127,0.602773,-2.459770,9.762295,11.750790,5.094046,-3.342044,-16.226841,-4.334403,-0.805689,0.989221,-0.141292,-0.036445,-0.012292
128,0.598453,-2.372642,9.700557,19.944782,5.203610,-2.570434,-15.688015,-4.196409,-0.947968,0.989904,-0.136680,-0.035140,-0.013186
129,0.467911,-2.347674,9.598596,19.399069,5.808160,-0.038982,-15.025808,-4.030846,-1.038669,0.990720,-0.130979,-0.033681,-0.013579
130,0.371828,-2.349127,9.502141,15.812772,5.948358,2.919248,-14.438764,-3.829040,-1.042143,0.991439,-0.125895,-0.032000,-0.013215
131,0.544871,-2.327502,9.390512,11.435291,1.128027,3.472177,-13.989561,-3.688439,-0.967772,0.991975,-0.121981,-0.030914,-0.012297
132,0.421768,-2.387350,9.356243,7.507105,3.538802,5.909664,-13.682364,-3.575444,-0.834173,0.992344,-0.119282,-0.030107,-0.010940
133,0.548266,-2.339608,9.143933,10.230854,0.812967,5.895678,-13.397426,-3.458786,-0.659639,0.992684,-0.116766,-0.029301,-0.009235
134,0.728949,-2.257978,8.564512,8.054201,-0.492190,3.980930,-13.102272,-3.415875,-0.500271,0.993005,-0.114167,-0.029112,-0.007736
135,0.546728,-1.975844,8.042628,6.055296,3.013485,3.742658,-12.873985,-3.346008,-0.384050,0.993256,-0.112159,-0.028635,-0.006602
136,0.499584,-1.713578,8.148168,6.499454,5.037885,3.916481,-12.670114,-3.186919,-0.289136,0.993498,-0.110369,-0.027359,-0.005575
137,0.422375,-1.364895,8.549034,14.668245,6.880510,2.847524,-12.320910,-2.968603,-0.221980,0.993884,-0.107327,-0.025546,-0.004705
138,0.160072,-1.222264,9.354079,21.751936,11.435001,4.999517,-11.717047,-2.642888,-0.157465,0.994508,-0.102077,-0.022801,-0.003721
139,0.007716,-1.052179,11.171107,31.813374,12.779270,7.077437,-10.829357,-2.207766,-0.038909,0.995352,-0.094352,-0.019147,-0.002156
140,0.200305,-1.193780,13.211543,40.890728,10.295627,7.253842,-9.623606,-1.786915,0.128160,0.996355,-0.083855,-0.015632,-0.000194
141,0.033663,-1.387715,14.107557,46.651672,10.200673,8.880518,-8.170787,-1.407970,0.341529,0.997382,-0.071201,-0.012468,0.002097
142,0.106939,-1.933410,14.295733,33.864529,7.365525,11.513827,-6.835618,-1.073317,0.640447,0.998165,-0.059561,-0.009683,0.005020
143,0.182576,-2.327435,13.770706,11.769156,4.159738,12.586170,-6.081577,-0.836730,1.017901,0.998529,-0.052979,-0.007762,0.008483
144,0.010047,-2.468705,12.003388,-13.552378,5.370788,14.302453,-6.116900,-0.630492,1.446445,0.998485,-0.053280,-0.006167,0.012311
145,-0.284848,-2.389490,9.705174,-38.564816,8.958386,15.664684,-6.989426,-0.335463,1.914989,0.998000,-0.060899,-0.003940,0.016501
146,-0.130344,-2.098567,7.800711,-60.754276,7.867843,13.555512,-8.645671,0.009330,2.358916,0.996944,-0.075362,-0.001470,0.020532
147,-0.345267,-1.412171,6.162163,-64.088600,12.209446,10.795799,-10.724497,0.408242,2.701807,0.995333,-0.093509,0.001343,0.023805
148,-0.310153,-1.027632,5.221262,-55.392719,12.283607,7.922606,-12.712423,0.871731,2.924733,0.993479,-0.110863,0.004733,0.026205
149,-0.132308,-1.024350,5.204357,-39.403042,6.860991,2.828234,-14.289954,1.223978,3.024652,0.991797,-0.124610,0.007312,0.027514
150,-0.186030,-1.090350,5.673134,-17.908976,4.275891,0.674612,-15.244740,1.418609,3.033451,0.990697,-0.132912,0.008755,0.027874
151,-0.346269,-1.568293,6.731883,-0.566961,2.825712,0.384009,-15.553007,1.537483,3.019118,0.990323,-0.135600,0.009724,0.027914
152,-0.062858,-2.730434,8.521845,5.754583,-4.619293,-3.268712,-15.467557,1.495838,2.980888,0.990439,-0.134850,0.009430,0.027527
153,-0.160858,-2.997835,10.237488,23.428665,-5.892357,-6.219431,-14.983740,1.285274,2.874314,0.991052,-0.130615,0.007847,0.026327
154,-0.392525,-3.464054,11.709923,27.055483,-5.201738,-5.012993,-14.145157,1.059299,2.739401,0.992038,-0.123305,0.006228,0.024858
155,-0.156447,-3.323007,12.034173,25.265345,-7.128567,-6.502171,-13.275446,0.814279,2.601531,0.992997,-0.115719,0.004432,0.023369
156,0.058984,-2.924489,11.879535,20.240845,-7.462214,-9.080806,-12.519367,0.519203,2.402819,0.993799,-0.109104,0.002217,0.021336
157,-0.069121,-2.156370,10.933331,17.803934,-4.363797,-9.175352,-11.887097,0.262045,2.147251,0.994443,-0.103573,0.000334,0.018873
158,-0.129540,-2.060713,9.983900,4.037191,-2.595152,-8.334391,-11.523968,0.089195,1.884936,0.994811,-0.100395,-0.000877,0.016443
159,-0.012512,-1.694801,9.169851,-0.271346,-3.312067,-9.770581,-11.461287,-0.067655,1.608978,0.994905,-0.099834,-0.001989,0.013911
160,0.108773,-2.112294,9.335824,-9.005065,-4.387845,-10.497359,-11.615014,-0.261051,1.303730,0.994803,-0.101154,-0.003417,0.011088
161,0.051115,-2.534002,9.555076,-13.687463,-3.907820,-9.239133,-11.991340,-0.463858,1.010135,0.994487,-0.104413,-0.004946,0.008344
162,0.153083,-2.593931,9.746615,-13.103133,-4.779213,-7.934052,-12.435383,-0.666041,0.761108,0.994083,-0.108264,-0.006497,0.005973
163,0.322752,-2.635578,9.802210,-13.887161,-6.092677,-7.313150,-12.882339,-0.898555,0.552833,0.993650,-0.112141,-0.008333,0.003914
164,0.511633,-2.556795,9.614939,-13.412296,-7.211729,-7.931900,-13.333725,-1.172175,0.355607,0.993185,-0.116058,-0.010520,0.001895
165,0.393677,-2.356127,9.472789,-11.445724,-5.242245,-7.758919,-13.743324,-1.435168,0.149854,0.992740,-0.119620,-0.012590,-0.000200
166,0.403148,-2.363745,9.540098,-9.344099,-4.849667,-7.839559,-14.084123,-1.660902,-0.062099,0.992351,-0.122593,-0.014318,-0.002315
167,0.228260,-2.375102,9.542375,-5.064620,-2.198939,-6.298281,-14.318184,-1.832556,-0.261824,0.992070,-0.124645,-0.015582,-0.004260
168,0.198324,-2.397526,9.647925,-0.283930,-1.239815,-3.938007,-14.402397,-1.930343,-0.412966,0.991957,-0.125396,-0.016260,-0.005686
169,0.139435,-2.524898,9.820918,2.492147,-0.184539,-0.807041,-14.363185,-1.972943,-0.483740,0.991990,-0.125067,-0.016553,-0.006340
170,0.080093,-2.572147,9.749337,7.434432,0.518134,3.285946,-14.199070,-1.957342,-0.445064,0.992173,-0.123640,-0.016469,-0.005965
171,0.126135,-2.355891,9.556623,12.566058,2.191904,7.231907,-13.871048,-1.870979,-0.285880,0.992542,-0.120776,-0.015906,-0.004448
172,0.391039,-2.351019,9.681077,12.080866,-3.513643,7.200373,-13.467991,-1.835517,-0.046859,0.992973,-0.117251,-0.015859,-0.002284
173,0.420972,-2.308648,9.683691,12.763856,-3.255857,7.654527,-13.062699,-1.888473,0.220306,0.993377,-0.113700,-0.016591,0.000035
174,0.449227,-2.112811,9.634221,15.391332,-3.448204,7.818648,-12.602678,-1.940140,0.496702,0.993815,-0.109668,-0.017303,0.002450
175,0.614868,-1.968573,9.721362,16.877913,-7.392962,5.004941,-12.073536,-2.071026,0.744240,0.994284,-0.105031,-0.018654,0.004557
176,0.559694,-1.834770,9.734148,17.444016,-5.267201,3.843906,-11.508692,-2.247536,0.932011,0.994753,-0.100082,-0.020328,0.006124
177,0.434445,-1.635402,9.643083,19.259258,-1.787824,4.450548,-10.903322,-2.336081,1.090503,0.995243,-0.094789,-0.021196,0.007535
178,0.471106,-1.474953,9.636745,18.749750,-1.623203,4.092368,-10.275990,-2.365819,1.240859,0.995731,-0.089308,-0.021530,0.008934
179,0.431144,-1.400266,9.675733,16.393692,-0.129306,4.093144,-9.696050,-2.370939,1.380393,0.996158,-0.084241,-0.021631,0.010252
180,0.342109,-1.311984,9.695601,15.702229,2.092167,5.512993,-9.167355,-2.312418,1.533031,0.996531,-0.079622,-0.021181,0.011720
181,0.369950,-1.324933,9.749158,12.260157,1.238279,6.458578,-8.708770,-2.226538,1.721556,0.996835,-0.075611,-0.020511,0.013502
182,0.475711,-1.354088,9.818867,9.353001,-1.357961,6.208306,-8.356648,-2.197105,1.930785,0.997041,-0.072515,-0.020346,0.015404
183,0.517937,-1.350239,9.804319,7.568191,-2.851291,6.367592,-8.083093,-2.236523,2.148483,0.997174,-0.070089,-0.020785,0.017323
184,0.611028,-1.390927,9.806224,3.989550,-5.145177,5.384614,-7.898981,-2.341238,2.361181,0.997234,-0.068428,-0.021796,0.019144
185,0.678611,-1.419625,9.828364,1.461255,-6.286157,3.197002,-7.815287,-2.510373,2.529121,0.997226,-0.067633,-0.023353,0.020520
186,0.682370,-1.345941,9.887789,3.138944,-5.355474,0.326851,-7.742499,-2.694647,2.613700,0.997219,-0.066943,-0.024993,0.021161
187,0.618204,-1.245308,9.891331,4.903745,-2.508975,-3.341464,-7.606931,-2.831283,2.581348,0.997277,-0.065742,-0.026138,0.020830
188,0.555419,-1.197327,9.951897,3.869274,1.230329,-7.928895,-7.451612,-2.877058,2.397653,0.997388,-0.064423,-0.026405,0.019240
189,0.373453,-1.130733,9.987122,4.641430,4.832048,-12.005690,-7.292785,-2.819553,2.054741,0.997541,-0.063129,-0.025689,0.016324
190,0.252289,-1.135473,10.006866,5.451269,7.795327,-16.067793,-7.101116,-2.669400,1.563586,0.997737,-0.061589,-0.024091,0.012172
191,0.157011,-1.142552,9.986838,6.213205,10.767711,-20.162691,-6.878352,-2.435828,0.925950,0.997951,-0.059802,-0.021701,0.006789
192,0.040927,-1.154908,9.951262,6.907738,13.664843,-23.118681,-6.629339,-2.116317,0.161123,0.998157,-0.057784,-0.018518,0.000336
193,-0.072366,-1.117699,9.871998,7.613697,16.286621,-25.760885,-6.358449,-1.712497,-0.705213,0.998325,-0.055544,-0.014579,-0.006973
194,-0.100353,-1.136409,9.869244,6.381611,17.856300,-29.363621,-6.100084,-1.246535,-1.680532,0.998408,-0.053359,-0.010081,-0.015222
195,-0.096318,-1.217456,9.868300,4.568714,18.361399,-32.362629,-5.898585,-0.753926,-2.766865,0.998355,-0.051595,-0.005326,-0.024449
196,-0.140784,-1.167098,9.868340,4.493952,18.490402,-34.186699,-5.737191,-0.255554,-3.932529,0.998153,-0.050092,-0.000509,-0.034380
197,-0.128857,-1.185261,10.138404,2.488295,17.834845,-36.352295,-5.620493,0.230486,-5.162146,0.997787,-0.048888,0.004215,-0.044880
198,-0.263174,-1.067836,10.510817,4.115384,18.070683,-37.245510,-5.520752,0.706764,-6.440987,0.997260,-0.047736,0.008856,-0.055816
199,-0.330637,-1.070451,10.622509,4.611456,16.931072,-34.494377,-5.395745,1.173839,-7.686635,0.996625,-0.046275,0.013364,-0.066469
200,-0.416630,-1.099567,10.706091,1.683493,16.489994,-30.001850,-5.318302,1.628093,-8.809032,0.995923,-0.045163,0.017713,-0.076050
201,-0.506275,-1.262757,10.680985,-3.867070,16.144432,-25.219915,-5.386178,2.083535,-9.776611,0.995171,-0.045260,0.022098,-0.084254
202,-0.562973,-1.542483,10.339226,-10.362892,14.990038,-18.967930,-5.655034,2.528751,-10.560324,0.994402,-0.047080,0.026484,-0.090808
203,-0.447111,-1.891567,9.772769,-18.266197,12.340631,-12.926223,-6.159773,2.926629,-11.136780,0.993653,-0.050983,0.030591,-0.095496
204,-0.397997,-1.853367,9.369888,-21.219297,10.373861,-8.818820,-6.839724,3.261173,-11.540575,0.992930,-0.056470,0.034256,-0.098632
205,-0.341196,-1.950086,9.093024,-23.421995,6.913671,-5.569685,-7.600008,3.516564,-11.815293,0.992244,-0.062740,0.037271,-0.100628
206,-0.250523,-1.955219,8.907060,-21.084940,2.764560,-3.825433,-8.352888,3.654325,-11.993283,0.991625,-0.069071,0.039230,-0.101830
207,-0.320554,-1.748011,8.973389,-15.518741,0.424681,-2.839705,-8.970469,3.690044,-12.111528,0.991126,-0.074339,0.040164,-0.102615
208,-0.357472,-1.680273,9.161027,-11.158642,-1.984961,-2.216940,-9.420142,3.650895,-12.190808,0.990763,-0.078237,0.040282,-0.103171
209,-0.435834,-1.728285,9.420123,-7.559380,-3.851732,-0.010774,-9.733379,3.548789,-12.211361,0.990547,-0.081034,0.039697,-0.103316
210,-0.533674,-1.620370,9.560651,-3.461835,-5.353055,5.096469,-9.910376,3.412033,-12.101529,0.990544,-0.082731,0.038596,-0.102412
211,-0.600992,-1.611773,9.812946,-1.756281,-6.999869,13.139076,-9.977774,3.261625,-11.766100,0.990817,-0.083563,0.037112,-0.099607
212,-0.544709,-1.724927,9.973536,-2.111316,-9.112199,22.124208,-10.007400,3.099055,-11.139767,0.991352,-0.084162,0.035273,-0.094307
213,-0.482205,-1.771904,10.008761,-6.011224,-11.557938,31.498102,-10.093296,2.915781,-10.198404,0.992059,-0.085338,0.033059,-0.086278
214,-0.260520,-2.081077,9.992779,-13.583733,-16.080616,39.782932,-10.358723,2.673553,-8.946075,0.992778,-0.088162,0.030202,-0.075551
215,-0.025064,-2.280808,9.978718,-17.928480,-20.365049,44.254837,-10.818898,2.334364,-7.456458,0.993358,-0.092735,0.026365,-0.062805
216,0.186324,-2.487659,9.893141,-23.541256,-24.248423,45.373665,-11.450801,1.893633,-5.846501,0.993665,-0.098779,0.021507,-0.049091
217,0.423096,-2.567396,9.673247,-25.429003,-28.070572,44.090580,-12.220841,1.346700,-4.208120,0.993626,-0.105937,0.015585,-0.035253
218,0.586403,-2.677659,9.533913,-24.951160,-30.431725,41.287495,-13.032123,0.706697,-2.606851,0.993280,-0.113311,0.008707,-0.021900
219,0.665985,-2.545880,9.419488,-20.919130,-30.313656,36.751835,-13.787337,0.023753,-1.107499,0.992724,-0.120020,0.001366,-0.009570
220,0.633053,-2.479430,9.290521,-18.040213,-27.314291,31.685471,-14.443935,-0.629598,0.232333,0.992051,-0.125700,-0.005706,0.001321
222,0.425108,-2.485021,9.156980,-15.901170,-19.697147,24.916286,-15.026875,-1.147331,1.343812,0.991312,-0.130627,-0.011459,0.010316
223,0.262750,-2.523391,9.173404,-15.700302,-12.432285,19.072227,-15.572763,-1.470173,2.192527,0.990550,-0.135201,-0.015301,0.017216
224,0.135200,-2.504711,9.231658,-13.627365,-5.649333,13.149468,-16.077492,-1.613372,2.791753,0.989830,-0.139448,-0.017343,0.022150
225,-0.086553,-2.507246,9.292953,-11.891488,1.871111,8.000081,-16.512571,-1.574730,3.148028,0.989223,-0.143160,-0.017538,0.025208
226,-0.291212,-2.669171,9.466756,-12.753518,9.180543,3.861923,-16.926615,-1.341276,3.284601,0.988686,-0.146774,-0.015790,0.026624
227,-0.269371,-2.645466,9.637487,-9.330507,12.743587,2.487489,-17.294392,-0.960730,3.278389,0.988230,-0.150046,-0.012586,0.027019
228,-0.269407,-2.578698,9.632631,-5.348525,16.251551,1.448683,-17.537943,-0.479941,3.196512,0.987936,-0.152275,-0.008390,0.026927
229,-0.290639,-2.690003,9.617563,-6.075548,19.955181,1.152822,-17.727833,0.108332,3.055237,0.987702,-0.154058,-0.003174,0.026486
230,-0.226546,-2.875972,9.474678,-5.863011,21.580112,-0.360031,-17.928307,0.771377,2.855892,0.987431,-0.155930,0.002764,0.025663
231,-0.071862,-2.774764,9.258657,-2.449379,20.001900,-2.798649,-18.071798,1.414227,2.591654,0.987219,-0.157277,0.008633,0.024270
232,0.001797,-2.891941,9.073849,-6.622169,17.252768,-5.693037,-18.232515,1.960209,2.263738,0.986978,-0.158718,0.013757,0.022211
233,0.067680,-3.054574,9.053130,-10.368668,12.815263,-8.874547,-18.530186,2.359119,1.874838,0.986559,-0.161279,0.017681,0.019457
234,0.089289,-3.052848,9.074727,-9.255223,6.784218,-10.953094,-18.875011,2.562484,1.456494,0.986092,-0.164198,0.019972,0.016201
235,-0.064854,-3.083105,9.266251,-9.887197,2.090792,-10.432355,-19.211170,2.586044,1.070799,0.985650,-0.167023,0.020689,0.012976
236,-0.165729,-3.323437,9.478149,-11.590098,-3.166513,-8.024892,-19.581551,2.466908,0.786222,0.985159,-0.170153,0.020046,0.010420
237,-0.190593,-3.496105,9.587156,-7.999379,-9.226584,-5.105148,-19.913469,2.198429,0.649844,0.984723,-0.172977,0.017914,0.008901
238,-0.252522,-3.584108,9.621183,-3.566546,-13.821285,-1.334528,-20.105030,1.800687,0.680270,0.984493,-0.174618,0.014436,0.008587
239,-0.245450,-3.631886,9.592503,-0.684848,-16.776636,1.131186,-20.171053,1.320657,0.852551,0.984440,-0.175186,0.010043,0.009343
240,-0.165975,-3.618249,9.459432,0.182370,-18.970995,1.924602,-20.174690,0.778934,1.105744,0.984462,-0.175202,0.005002,0.010690
241,-0.183048,-3.430156,9.188517,-0.432147,-18.168385,2.068458,-20.176424,0.220878,1.381665,0.984462,-0.175174,-0.000214,0.012208
242,-0.229403,-3.385180,8.935842,-4.219454,-14.573924,1.659249,-20.254045,-0.269717,1.628551,0.984324,-0.175780,-0.004816,0.013576
243,-0.391938,-3.317194,8.798133,-6.645012,-8.867417,1.311923,-20.436531,-0.618731,1.810969,0.984017,-0.177290,-0.008117,0.014594
244,-0.439678,-3.260408,8.777252,-8.831767,-4.459322,2.047261,-20.696087,-0.806953,1.941551,0.983591,-0.179480,-0.009970,0.015402
245,-0.296673,-3.275488,8.843989,-9.544398,-2.287429,3.684136,-21.004227,-0.877998,2.070966,0.983084,-0.182101,-0.010826,0.016372
246,-0.110275,-3.553797,9.064684,-8.025171,-0.458190,3.545461,-21.298998,-0.877207,2.199930,0.982593,-0.184617,-0.011069,0.017451
247,-0.042952,-3.460297,9.340915,1.360875,4.469197,2.113726,-21.410973,-0.780598,2.263472,0.982405,-0.185588,-0.010361,0.018142
248,0.189250,-3.548470,9.480416,4.025095,5.446735,-2.749682,-21.320309,-0.630570,2.193486,0.982566,-0.184843,-0.008947,0.017792
249,0.155533,-3.514762,9.517081,9.257614,10.841032,-8.083002,-21.096380,-0.442827,1.926990,0.982967,-0.182971,-0.006877,0.015824
250,-0.051106,-3.354445,9.507656,13.520247,17.727055,-11.329309,-20.714424,-0.113499,1.454880,0.983629,-0.179758,-0.003257,0.012311
251,-0.238791,-3.110320,9.481268,14.166479,23.638081,-12.901196,-20.254541,0.390973,0.835300,0.984383,-0.175854,0.002077,0.007776
252,-0.358804,-3.052954,9.339535,10.630855,27.082209,-12.378627,-19.849939,1.040471,0.149525,0.984991,-0.172363,0.008719,0.002850
253,-0.573210,-2.912681,9.263257,6.893646,27.634861,-9.238781,-19.573935,1.777207,-0.497649,0.985330,-0.169897,0.016021,-0.001643
254,-0.568153,-3.008309,9.187174,-0.078169,23.627354,-5.140436,-19.479694,2.502165,-1.009636,0.985345,-0.168938,0.023008,-0.004988
255,-0.530872,-3.204393,9.153964,-6.061565,17.815174,-3.614009,-19.600267,3.104046,-1.378924,0.985030,-0.169816,0.028735,-0.007243
256,-0.479681,-3.204700,9.085726,-7.272264,10.776649,-3.161789,-19.837967,3.514327,-1.646751,0.984563,-0.171723,0.032676,-0.008867
257,-0.427155,-3.261793,9.133085,-8.634112,3.222756,-2.344662,-20.113506,3.702188,-1.813179,0.984088,-0.174007,0.034563,-0.009931
258,-0.291304,-3.523230,9.223042,-9.959438,-3.922395,-2.856709,-20.428341,3.661133,-1.890769,0.983609,-0.176695,0.034358,-0.010566
259,-0.373034,-3.549062,9.298500,-4.917070,-6.954960,-3.028708,-20.677999,3.456895,-1.919174,0.983268,-0.178868,0.032673,-0.011055
260,-0.259864,-3.569970,9.412789,-1.670652,-10.831899,-1.699954,-20.785976,3.151740,-1.888015,0.983170,-0.179860,0.030017,-0.011238
261,-0.277081,-3.742485,9.472166,-1.291784,-13.661311,1.545481,-20.827927,2.769203,-1.745322,0.983193,-0.180323,0.026515,-0.010608
262,-0.287973,-3.762580,9.474185,0.534743,-15.431215,4.280504,-20.828684,2.350528,-1.481919,0.983285,-0.180451,0.022508,-0.009009
263,-0.328985,-3.479127,9.343721,3.703400,-15.366687,6.557493,-20.744835,1.934717,-1.130698,0.983500,-0.179847,0.018382,-0.006665
264,-0.189810,-3.492908,9.220956,0.454722,-16.672655,8.550239,-20.662640,1.524170,-0.706297,0.983696,-0.179240,0.014190,-0.003678
265,-0.244899,-3.399334,8.867027,-0.067302,-14.946690,8.890608,-20.645506,1.133705,-0.248209,0.983767,-0.179163,0.010121,-0.000358
266,-0.200514,-3.399499,8.719857,-0.895384,-12.172939,6.868633,-20.654650,0.803403,0.157030,0.983773,-0.179276,0.006652,0.002605
267,-0.003739,-3.634257,8.678545,-3.823703,-10.018809,3.893464,-20.729868,0.520812,0.455554,0.983661,-0.179932,0.003755,0.004728
268,0.118170,-3.867794,8.768665,-6.804688,-7.183641,1.564546,-20.905745,0.285238,0.642545,0.983383,-0.181437,0.001431,0.005966
269,0.147913,-3.969816,8.861748,-13.289085,-5.043162,-2.287053,-21.240465,0.090841,0.704653,0.982851,-0.184300,-0.000354,0.006190
270,0.148608,-4.107442,9.104291,-7.669919,1.379797,-4.772050,-21.589899,-0.008819,0.617523,0.982290,-0.187292,-0.001085,0.005279
271,0.111390,-4.066792,9.195464,-5.987013,5.623809,-7.137013,-21.817610,0.026386,0.390033,0.981924,-0.189246,-0.000418,0.003386
272,-0.043649,-3.887310,9.273933,-3.292318,8.873148,-8.231046,-21.972828,0.155148,0.062330,0.981671,-0.190577,0.001225,0.000792
273,-0.224678,-3.693951,9.208742,0.146982,11.132636,-8.607726,-22.027018,0.359255,-0.322729,0.981575,-0.191030,0.003615,-0.002166
274,-0.259363,-3.606970,9.260690,3.828464,10.659963,-7.180687,-21.963968,0.597571,-0.702699,0.981661,-0.190463,0.006287,-0.005026
275,-0.134152,-3.499666,9.301995,7.100367,6.771898,-5.932395,-21.785608,0.785862,-1.013714,0.981932,-0.188901,0.008406,-0.007391
276,-0.078572,-3.359181,9.453787,12.184577,1.731784,-3.731967,-21.467056,0.858357,-1.215613,0.982436,-0.186148,0.009335,-0.009027
277,-0.045598,-3.290475,9.503510,7.252227,-1.738704,0.339883,-21.143856,0.837874,-1.268129,0.982954,-0.183374,0.009217,-0.009537
278,0.058118,-3.325502,9.571148,4.451062,-6.291203,3.978694,-20.947203,0.738917,-1.152834,0.983280,-0.181706,0.008169,-0.008720
279,0.023003,-3.284970,9.487148,-2.408850,-9.176026,6.276886,-20.910303,0.559289,-0.901024,0.983362,-0.181420,0.006226,-0.006847
280,-0.104016,-3.207772,9.354883,-9.839613,-10.158643,9.845485,-21.111509,0.354948,-0.534543,0.983064,-0.183175,0.003900,-0.004018
281,-0.119191,-3.352123,9.121049,-14.149634,-11.399273,12.215674,-21.509157,0.153989,-0.061314,0.982435,-0.186602,0.001420,-0.000275
282,-0.109891,-3.457698,8.923599,-15.174680,-11.215159,12.722313,-21.997337,-0.041962,0.464438,0.981624,-0.190783,-0.001133,0.003909
283,-0.123159,-3.554489,8.864658,-13.219222,-9.492123,12.591872,-22.471642,-0.201741,0.985565,0.980799,-0.194825,-0.003403,0.008093
284,-0.122993,-3.598084,8.871150,-5.472320,-7.489432,12.501004,-22.785284,-0.302114,1.480497,0.980218,-0.197481,-0.005136,0.012144
285,-0.095260,-3.772110,8.991959,2.551073,-4.843295,10.918800,-22.836372,-0.340515,1.919969,0.980076,-0.197891,-0.006229,0.015834
286,-0.081842,-3.828597,9.117657,8.574667,-0.156369,9.142643,-22.652763,-0.288340,2.260526,0.980340,-0.196310,-0.006341,0.018847
287,-0.116955,-3.681602,9.148248,14.972915,3.290506,6.067753,-22.261013,-0.143427,2.474826,0.980966,-0.192973,-0.005397,0.020947
288,-0.188625,-3.473232,9.168032,19.025320,6.940619,3.970105,-21.694363,0.077086,2.566155,0.981883,-0.188158,-0.003553,0.022119
289,-0.225561,-3.392375,9.215735,17.960381,9.294664,1.410469,-21.077948,0.361569,2.550942,0.982870,-0.182927,-0.000970,0.022461
290,-0.411721,-3.174795,9.133041,17.169613,9.417683,-0.144281,-20.493212,0.660475,2.459917,0.983786,-0.177963,0.001852,0.022148
291,-0.509553,-2.809995,9.159698,18.186310,10.080220,0.590899,-19.905424,0.967942,2.354690,0.984678,-0.172964,0.004767,0.021697
292,-0.513741,-2.681655,9.217767,21.814619,12.058058,3.262827,-19.240051,1.337121,2.291577,0.985635,-0.167299,0.008160,0.021663
293,-0.506414,-2.563858,9.149420,11.137365,5.517511,4.782401,-18.690115,1.657814,2.323162,0.986375,-0.162619,0.010980,0.022349
294,-0.586099,-2.191350,9.011420,9.884844,3.506021,8.556835,-18.334827,1.871175,2.486281,0.986807,-0.159611,0.012660,0.024016
295,-0.387575,-2.094938,9.092762,1.522812,-0.525786,10.267423,-18.135189,2.016644,2.768878,0.986995,-0.157949,0.013566,0.026628
296,-0.259733,-2.320884,9.102718,-6.067463,-3.602230,9.122748,-18.199364,2.052247,3.097551,0.986819,-0.158547,0.013403,0.029515
297,-0.159990,-2.283165,9.047201,-7.353998,-5.319006,5.433082,-18.413359,1.987466,3.374703,0.986459,-0.160407,0.012402,0.031836
298,-0.040504,-2.330296,9.071050,-6.932874,-6.186325,-0.324714,-18.646820,1.832784,3.516406,0.986119,-0.162394,0.010805,0.032862
299,0.185115,-2.666886,9.169558,-7.935930,-7.856681,-5.788568,-18.895350,1.578484,3.495192,0.985815,-0.164469,0.008576,0.032340
300,0.304697,-2.966564,9.210264,-5.520204,-8.127255,-10.745816,-19.123968,1.236938,3.321328,0.985583,-0.166344,0.005826,0.030368
301,0.322528,-3.024064,9.210481,-1.312930,-6.836149,-13.779497,-19.243528,0.867191,3.017084,0.985529,-0.167277,0.003058,0.027219
302,0.355616,-3.320772,9.483144,-0.316783,-5.554660,-13.164284,-19.275106,0.524240,2.661140,0.985593,-0.167473,0.000622,0.023658
303,0.390275,-3.558563,9.755458,1.146653,-4.096789,-12.415667,-19.263611,0.231731,2.311753,0.985694,-0.167322,-0.001382,0.020226
304,0.380515,-3.745735,9.947316,2.035297,-1.720447,-12.188208,-19.211353,0.005122,1.956504,0.985836,-0.166843,-0.002805,0.016841
305,0.248140,-3.914331,9.965672,1.698054,1.966250,-12.145716,-19.148802,-0.124230,1.572087,0.985980,-0.166298,-0.003351,0.013347
306,0.190048,-3.930786,9.748475,-0.096772,3.851930,-11.029316,-19.121241,-0.159244,1.175382,0.986060,-0.166068,-0.003074,0.009884
307,0.059962,-3.995509,9.431152,-2.554386,6.144750,-8.742631,-19.164631,-0.109958,0.809440,0.986024,-0.166453,-0.002122,0.006805
308,-0.079029,-4.123265,9.111404,-4.642406,8.054724,-5.933048,-19.284452,0.032893,0.500565,0.985863,-0.167495,-0.000449,0.004355
309,-0.203017,-4.032394,8.843476,-4.163380,8.667902,-4.129113,-19.431889,0.240192,0.249963,0.985651,-0.168767,0.001698,0.002504
310,-0.243461,-3.945996,8.691552,-4.152417,7.052994,-0.407181,-19.571503,0.461927,0.091244,0.985441,-0.169966,0.003837,0.001470
311,-0.315384,-4.136695,8.695512,-4.922994,5.532727,4.011369,-19.722961,0.679631,0.077286,0.985206,-0.171268,0.005728,0.001680
312,-0.287160,-4.170568,8.785516,-3.197642,3.008152,5.835454,-19.856939,0.869083,0.183510,0.984992,-0.172425,0.007194,0.002885
313,-0.267716,-4.146733,8.981750,-10.691115,1.939928,7.271287,-20.085545,1.021162,0.360682,0.984629,-0.174403,0.008226,0.004653
314,-0.261516,-4.250207,9.250342,-2.453685,-0.697089,8.743078,-20.300077,1.132800,0.603981,0.984279,-0.176267,0.008802,0.006930
315,-0.207668,-4.302650,9.361099,-2.140475,-2.108741,8.847235,-20.370792,1.190650,0.895226,0.984143,-0.176899,0.008845,0.009526
316,-0.134335,-4.236619,9.518687,-0.571268,-3.129590,7.531423,-20.410036,1.203915,1.181572,0.984054,-0.177258,0.008512,0.012009
317,-0.125108,-4.086062,9.504044,0.428383,-3.281471,6.348895,-20.407148,1.184411,1.435700,0.984032,-0.177250,0.007952,0.014161
318,-0.022263,-3.994769,9.327353,0.375867,-4.181720,4.910921,-20.389324,1.133216,1.654992,0.984036,-0.177106,0.007176,0.015963
319,0.047776,-3.967348,9.075624,-5.723062,-6.900365,2.953752,-20.474972,1.005894,1.842335,0.983889,-0.177838,0.005780,0.017380
320,0.067523,-3.819298,9.005746,1.246072,-3.874361,2.950035,-20.547100,0.872266,1.997472,0.983766,-0.178446,0.004380,0.018508
321,0.053948,-3.653211,8.977277,4.087977,-2.717020,1.871899,-20.456518,0.797442,2.111181,0.983895,-0.177662,0.003576,0.019365
322,0.012180,-3.597395,9.018685,4.869158,-1.723652,1.831673,-20.306110,0.749529,2.194807,0.984117,-0.176365,0.003061,0.020005
323,-0.087833,-3.568175,9.111518,4.068487,-0.362196,2.446303,-20.156116,0.741557,2.273723,0.984333,-0.175078,0.002898,0.020666
325,-0.168179,-3.405489,9.163304,4.550415,-0.082634,3.184839,-20.011265,0.766828,2.364406,0.984535,-0.173840,0.003004,0.021480
326,-0.264984,-3.292571,9.182492,4.447701,0.321928,4.412673,-19.859671,0.813754,2.482090,0.984737,-0.172549,0.003258,0.022558
327,-0.245247,-3.245654,9.146832,2.343555,0.764372,5.547950,-19.744251,0.887040,2.632158,0.984873,-0.171575,0.003686,0.023954
328,-0.190189,-3.302247,9.141455,-1.533403,-0.749028,5.828359,-19.727886,0.951338,2.810544,0.984852,-0.171452,0.003976,0.025583
329,-0.200149,-3.251748,9.099945,-1.696034,-0.827396,5.790352,-19.778488,0.992107,3.001683,0.984728,-0.171902,0.004028,0.027288
330,-0.230840,-3.264583,9.078933,-3.317791,0.259262,5.105936,-19.858959,1.044774,3.175769,0.984558,-0.172611,0.004199,0.028866
331,-0.156908,-3.319915,9.136798,-4.696419,-0.661697,3.798665,-19.989872,1.089070,3.317603,0.984318,-0.173752,0.004332,0.030156
332,-0.297217,-3.361091,9.276059,-5.073260,0.539446,4.178553,-20.150272,1.132804,3.443188,0.984035,-0.175144,0.004473,0.031307
333,-0.397336,-3.350089,9.326394,-4.788036,0.767134,4.903344,-20.311871,1.205584,3.577726,0.983739,-0.176555,0.004847,0.032580
334,-0.414527,-3.419743,9.348779,-5.403220,0.193575,5.987566,-20.478149,1.283838,3.742328,0.983423,-0.178010,0.005215,0.034121
335,-0.336307,-3.433431,9.341072,-5.182850,-1.174237,6.014128,-20.650175,1.338789,3.935395,0.983088,-0.179510,0.005333,0.035870
336,-0.318253,-3.500514,9.300946,-5.355682,-1.041152,3.010370,-20.822218,1.357502,4.089159,0.982765,-0.180998,0.005197,0.037227
337,-0.171375,-3.764124,9.179868,-7.874493,-2.313947,2.095971,-21.040386,1.335716,4.188641,0.982389,-0.182867,0.004781,0.038055
338,-0.055201,-3.807934,9.137491,-9.542687,-1.772947,-1.237498,-21.329817,1.277400,4.226585,0.981921,-0.185331,0.004123,0.038298
339,-0.003513,-3.704373,9.227962,-8.418572,0.265399,-7.256854,-21.631834,1.202252,4.104012,0.981481,-0.187893,0.003580,0.037136
340,-0.225457,-3.652780,9.325157,-6.851845,3.626443,-7.913731,-21.891735,1.168901,3.845074,0.981138,-0.190101,0.003639,0.034872
341,-0.390441,-3.544984,9.364450,-4.270317,4.439238,-3.629005,-22.081930,1.221590,3.616360,0.980882,-0.191735,0.004415,0.033008
342,-0.453014,-3.200210,9.444211,0.288404,4.721848,-2.973380,-22.151888,1.321603,3.456934,0.980795,-0.192351,0.005519,0.031814
343,-0.541934,-3.033613,9.428351,4.088319,4.249956,-0.679408,-22.081665,1.437260,3.344240,0.980926,-0.191771,0.006717,0.031038
344,-0.421139,-3.000271,9.371902,12.527669,2.462852,4.322760,-21.804375,1.563769,3.358791,0.981363,-0.189427,0.007852,0.031355
345,-0.100145,-2.964057,9.311967,12.004459,-4.689544,3.313716,-21.391937,1.576209,3.490911,0.981999,-0.185905,0.007857,0.032479
346,0.120806,-2.975889,9.228398,8.636365,-8.139139,0.702986,-21.044359,1.401178,3.630955,0.982547,-0.182892,0.006231,0.033377
347,0.145199,-3.036488,9.182831,-0.191572,-3.199287,0.934082,-20.901525,1.234495,3.724241,0.982771,-0.181628,0.004695,0.033907
348,0.126524,-3.074701,9.313326,-1.949481,-2.291112,0.629129,-20.936007,1.158366,3.781320,0.982710,-0.181906,0.003941,0.034277
349,-0.090695,-3.131930,9.379891,-0.902125,0.011826,1.580624,-20.982571,1.136074,3.829322,0.982625,-0.182301,0.003659,0.034655
350,-0.376031,-3.177901,9.360362,4.631655,4.825062,2.413678,-20.919718,1.235160,3.862682,0.982701,-0.181790,0.004475,0.035096
351,-0.468827,-3.332111,9.465200,0.492580,2.500952,2.620750,-20.833500,1.379127,3.897597,0.982805,-0.181092,0.005682,0.035618
352,-0.537787,-3.279415,9.602283,3.072313,1.701546,3.793261,-20.772224,1.482585,3.972645,0.982861,-0.180598,0.006470,0.036421
353,-0.607587,-3.229688,9.648499,6.992295,1.233672,5.404802,-20.601120,1.582498,4.098846,0.983072,-0.179166,0.007184,0.037650
354,-0.477780,-3.238149,9.513140,8.877912,-2.299271,6.559510,-20.331203,1.635565,4.291975,0.983417,-0.176878,0.007430,0.039371
355,-0.159359,-3.298176,9.596661,10.130326,-8.295053,6.378491,-20.007141,1.544188,4.555429,0.983837,-0.174084,0.006357,0.041474
356,-0.247155,-3.128407,9.497547,14.592931,-9.082500,7.250716,-19.587317,1.348637,4.867467,0.984385,-0.170428,0.004364,0.043842
357,-0.146528,-3.121908,9.367769,15.517609,-11.001499,8.327024,-19.077822,1.118667,5.223290,0.985028,-0.165976,0.002066,0.046550
358,0.166266,-3.185989,9.215977,15.435812,-13.756481,7.936139,-18.555378,0.815560,5.613024,0.985654,-0.161366,-0.000878,0.049468
359,0.285934,-3.157095,9.158914,13.813484,-11.207236,4.347824,-18.064283,0.484915,5.938210,0.986232,-0.156993,-0.003958,0.051818
360,0.299806,-3.092426,9.266864,12.356912,-7.251627,0.524332,-17.627144,0.216852,6.109774,0.986771,-0.153102,-0.006298,0.052953
361,0.313361,-3.060205,9.395972,11.296629,-6.819751,-3.700469,-17.232952,-0.022889,6.129461,0.987301,-0.149595,-0.008207,0.052831
362,0.322923,-3.055265,9.478317,11.492594,0.032373,-7.537952,-16.852943,-0.186056,5.983578,0.987868,-0.146256,-0.009252,0.051392
363,0.074292,-2.971434,9.531331,11.089489,4.848914,-10.720244,-16.475657,-0.195535,5.668576,0.988482,-0.143023,-0.008772,0.048693
364,-0.096412,-2.961835,9.641363,12.241892,6.425142,-10.527598,-16.085835,-0.114578,5.275875,0.989120,-0.139721,-0.007428,0.045432
365,-0.321068,-3.275224,9.812385,10.654085,7.543654,-7.758748,-15.704011,0.025888,4.918967,0.989710,-0.136499,-0.005639,0.042541
366,-0.279093,-3.245856,10.293521,12.000603,4.408112,-7.260413,-15.326963,0.150886,4.624424,0.990254,-0.133299,-0.004076,0.040160
367,-0.465845,-2.782380,11.038215,23.644415,3.093161,-2.375529,-14.733466,0.230045,4.436995,0.990991,-0.128201,-0.002974,0.038648
368,-0.585423,-3.051819,11.689195,23.971014,-1.931623,3.371958,-13.939892,0.253288,4.448364,0.991849,-0.121342,-0.002517,0.038791
369,-0.472436,-3.599529,13.097459,15.710035,-5.992595,8.909844,-13.277731,0.173483,4.678585,0.992459,-0.115576,-0.003216,0.040718
370,-0.365187,-3.882926,13.931412,20.289196,-7.171571,13.392036,-12.676990,0.043600,5.090223,0.992905,-0.110310,-0.004525,0.044176
371,-0.178425,-4.025786,13.742450,42.401970,-7.178754,15.836758,-11.632363,-0.087566,5.616730,0.993661,-0.101178,-0.005724,0.048666
372,0.094980,-3.898856,13.027956,59.483097,-6.609537,12.236594,-9.935889,-0.226396,6.118983,0.994830,-0.086370,-0.006587,0.053001
373,0.426795,-3.644889,12.465095,63.866337,-2.211530,7.588818,-7.882396,-0.321496,6.467863,0.996053,-0.068465,-0.006672,0.056087
374,0.663832,-2.710783,11.658767,74.909409,-1.557706,-0.688037,-5.571024,-0.371265,6.588764,0.997172,-0.048331,-0.006023,0.057241
375,0.556477,-1.796826,10.419900,88.973915,4.145704,-6.295009,-2.840301,-0.338278,6.469529,0.998100,-0.024578,-0.004345,0.056337
376,0.170854,-1.152846,10.735553,78.638687,13.918992,-8.077509,-0.047798,-0.044549,6.221574,0.998526,-0.000395,-0.000411,0.054267
377,-0.155946,-0.618499,10.532440,61.536655,13.044397,-5.610236,2.286232,0.408428,6.000184,0.998428,0.019736,0.004603,0.052256
378,-0.104263,0.213426,10.308750,59.703403,9.287011,-3.252095,4.304690,0.788491,5.873767,0.997972,0.037154,0.008791,0.050940
379,-1.020318,1.000923,9.275904,61.988937,14.872362,3.620728,6.332938,1.188973,5.917742,0.997118,0.054626,0.013197,0.050965
380,-0.268345,1.996984,8.939455,46.636803,-3.557861,9.879438,8.148004,1.348695,6.164069,0.996006,0.070306,0.015542,0.052791
381,0.012803,2.480940,7.843723,29.249163,-13.485346,14.545799,9.419518,1.006606,6.525359,0.995011,0.081474,0.013413,0.055999
382,0.109295,2.601110,7.416084,10.030794,-12.365591,12.914262,10.078907,0.505243,6.904860,0.994340,0.087417,0.009674,0.059600
383,0.002262,2.585808,6.961089,-10.811316,-10.990376,5.647549,10.067060,0.068344,7.141999,0.994212,0.087531,0.006058,0.061993
384,0.777766,2.335285,6.877655,-33.808395,-17.610662,-0.820932,9.323243,-0.414691,7.141680,0.994732,0.081337,0.001462,0.062370
385,0.107092,1.899779,6.878914,-52.398991,-2.103088,-7.984679,7.888256,-0.717131,6.947929,0.995753,0.069034,-0.002064,0.060880
386,-0.175111,1.786532,6.917318,-58.465378,4.233440,-14.246681,6.044862,-0.636664,6.586630,0.996928,0.052958,-0.002510,0.057659
387,-0.022509,0.968961,6.630257,-63.170086,3.978069,-17.236511,4.022936,-0.453739,6.076996,0.997964,0.035260,-0.002091,0.053113
388,0.147131,0.084297,6.051081,-53.708420,2.659804,-13.851068,2.079139,-0.315471,5.565620,0.998650,0.018255,-0.001868,0.048592
389,0.019116,-0.727481,5.288113,-39.828197,5.290601,-11.142438,0.522439,-0.173704,5.152192,0.998978,0.004623,-0.001309,0.044953
390,-0.328624,-0.766583,4.157246,-17.632666,13.915652,-11.240489,-0.435090,0.146748,4.779887,0.999122,-0.003847,0.001121,0.041705
391,0.092750,-1.366359,3.266017,-19.541586,2.557622,-11.931110,-1.056764,0.416853,4.391286,0.999216,-0.009354,0.003282,0.038343
392,-0.119020,-1.228852,2.526909,-9.912780,7.139724,-10.778481,-1.550609,0.569785,4.008666,0.999282,-0.013697,0.004496,0.035039
393,-0.222502,-1.251548,2.543401,-5.175512,8.022552,-8.817562,-1.806240,0.813040,3.675059,0.999333,-0.015981,0.006585,0.032172
394,-0.189038,-0.879834,3.294594,15.686051,3.576259,-10.972361,-1.636418,0.996436,3.339633,0.999432,-0.014527,0.008275,0.029260
395,-0.164029,-0.792617,4.669295,18.319721,-0.462328,-13.666604,-1.076838,1.039078,2.928156,0.999586,-0.009625,0.008824,0.025633
396,-0.427516,0.541490,6.638606,36.393471,0.654099,-16.825342,-0.174066,1.036695,2.420081,0.999735,-0.001710,0.009013,0.021130
397,-0.687635,0.880825,9.266434,21.043917,1.768923,-13.603835,0.773719,1.080185,1.913051,0.999794,0.006593,0.009537,0.016629
398,-0.676279,2.126945,11.317818,14.656424,0.627245,-13.400079,1.359973,1.128151,1.463631,0.999801,0.011740,0.009995,0.012654
399,-0.942501,2.250708,13.146143,-7.281952,1.243255,-8.243183,1.475699,1.168041,1.103757,0.999820,0.012778,0.010316,0.009499
400,-0.670168,2.695776,14.304338,-13.795805,-1.993833,-3.167700,1.120509,1.159314,0.913237,0.999870,0.009697,0.010194,0.007870
401,-0.183831,1.471183,14.810319,-26.730888,-4.612303,3.503013,0.445204,1.048930,0.917243,0.999919,0.003812,0.009184,0.007968
402,-0.218859,1.504026,14.420625,-22.142027,-3.536800,3.250560,-0.367327,0.912721,1.029696,0.999923,-0.003277,0.007936,0.009011
403,-0.189962,0.387189,14.656082,-31.818455,-2.431153,5.792838,-1.264317,0.815395,1.181847,0.999860,-0.011106,0.007001,0.010391
404,-0.054310,-0.115375,14.055516,-27.759537,-2.158502,4.802258,-2.254738,0.744310,1.360842,0.999713,-0.019750,0.006260,0.012001
405,0.139013,-1.190652,14.072859,-31.647232,-2.278653,2.636450,-3.243196,0.676415,1.488218,0.999496,-0.028372,0.005532,0.013148
406,-0.300141,-1.383174,13.715762,-23.785309,2.388956,2.191620,-4.166055,0.683641,1.568397,0.999225,-0.036425,0.005464,0.013894
407,0.283994,-2.195341,14.047225,-23.978687,-1.591660,1.228017,-4.961368,0.701428,1.624467,0.998940,-0.043364,0.005501,0.014427
408,-0.073849,-2.037595,13.864190,-10.782268,1.983432,-0.686566,-5.540605,0.708793,1.632621,0.998707,-0.048414,0.005489,0.014529
409,0.051281,-1.851642,14.088113,-3.685508,1.410815,-0.828220,-5.782118,0.762683,1.602064,0.998603,-0.050524,0.005941,0.014298
410,-0.251003,-2.131027,13.615369,1.475990,3.904560,2.068157,-5.818778,0.852925,1.613689,0.998579,-0.050855,0.006718,0.014441
411,-0.295527,-1.841738,13.327934,6.312695,2.783539,0.881137,-5.688381,0.968748,1.651467,0.998623,-0.049735,0.007727,0.014812
412,-0.445028,-1.764508,12.637094,9.677389,6.332482,3.737745,-5.420741,1.127395,1.713443,0.998714,-0.047427,0.009119,0.015400
413,-0.261738,-1.520105,12.331364,12.328530,7.432061,4.407823,-5.051504,1.368266,1.827691,0.998822,-0.044250,0.011224,0.016458
414,-0.719413,-1.362346,12.342936,13.607265,13.301290,9.197907,-4.613922,1.731683,2.024618,0.998909,-0.040509,0.014386,0.018259
415,-0.188048,-1.347334,12.270841,17.146568,5.246148,14.303795,-4.089219,2.069741,2.391754,0.998969,-0.036041,0.017301,0.021498
416,-0.085263,-1.121671,11.613394,35.158421,1.047654,17.664274,-3.198229,2.208391,2.917517,0.999087,-0.028382,0.018547,0.025980
417,-0.014713,-0.388436,10.999245,41.211876,-5.052990,20.783899,-1.901123,2.169742,3.561460,0.999191,-0.017167,0.018406,0.031379
418,0.118992,0.188454,10.304786,40.256889,-11.710269,21.252045,-0.518665,1.905272,4.268634,0.999155,-0.005142,0.016446,0.037312
419,0.464724,0.750512,9.149551,40.811142,-17.920946,18.158998,0.850871,1.409706,4.924850,0.998977,0.006889,0.012609,0.042869
420,-0.057061,1.810187,8.081650,38.943737,-9.058646,12.129086,2.189599,0.946569,5.418114,0.998673,0.018694,0.009153,0.047096
421,-0.016578,2.115068,7.811507,10.412634,-5.141127,9.361129,3.017155,0.693441,5.764326,0.998379,0.025989,0.007365,0.050105
422,-0.200112,2.184357,7.904418,-4.185841,1.079478,4.157562,3.123513,0.614344,5.985981,0.998258,0.026937,0.006775,0.052048
423,-0.268855,2.078799,7.604932,-14.509799,3.954079,5.697639,2.813912,0.689816,6.154402,0.998247,0.024195,0.007327,0.053517
424,-0.041752,1.710308,7.629915,-30.322155,1.211723,3.715765,2.068798,0.769237,6.314830,0.998303,0.017655,0.007696,0.054948
425,0.116745,1.047631,7.663377,-36.203583,0.783388,0.667734,0.961104,0.800838,6.388502,0.998390,0.007984,0.007445,0.055659
426,0.054149,0.343008,7.204530,-33.603817,1.750679,-0.696887,-0.202223,0.843345,6.388247,0.998417,-0.002172,0.007250,0.055730
428,0.436320,-0.213543,6.073893,-27.411102,-5.668759,-2.513423,-1.219773,0.777506,6.335641,0.998388,-0.011003,0.006186,0.055328
429,0.126801,-0.960398,5.169867,-21.531357,-0.874867,-8.339499,-2.037641,0.663501,6.157349,0.998377,-0.018066,0.004826,0.053801
430,-0.024441,-1.228693,4.045871,-15.038178,3.240631,-11.744046,-2.651178,0.689635,5.821505,0.998417,-0.023409,0.004834,0.050905
431,-0.068822,-1.394597,3.822161,-8.919890,3.682719,-14.001053,-3.056138,0.783835,5.387371,0.998508,-0.026958,0.005577,0.047161
432,-0.161130,-1.457662,2.998446,-8.738809,5.387012,-14.071051,-3.357462,0.908846,4.911790,0.998611,-0.029607,0.006665,0.043063
433,-0.427088,-1.263178,3.704372,5.111975,10.959414,-13.237221,-3.426432,1.153886,4.441304,0.998740,-0.030263,0.008899,0.039030
434,-0.590989,-0.989278,4.404011,14.425567,12.482378,-9.441904,-3.110343,1.522859,4.041834,0.998909,-0.027589,0.012319,0.035609
435,-0.537805,-0.761997,6.013032,22.613512,5.689741,-6.493533,-2.501343,1.812708,3.761843,0.999087,-0.022331,0.015090,0.033156
436,-0.758947,-0.008437,7.352431,29.108738,5.876617,1.300387,-1.642378,2.002521,3.668810,0.999224,-0.014882,0.017005,0.032253
437,-0.489834,0.809427,9.943556,34.623978,1.459031,4.112551,-0.577188,2.127022,3.756761,0.999275,-0.005642,0.018385,0.032865
438,-0.806639,1.077441,11.379115,17.350306,1.168138,6.942027,0.295838,2.171438,3.941400,0.999227,0.001928,0.019026,0.034333
439,-0.229750,1.520079,13.046422,5.036300,-4.654041,5.895782,0.676899,2.111935,4.154969,0.999160,0.005234,0.018631,0.036135
440,-0.414965,1.931812,13.810545,-2.535199,-2.858210,5.474864,0.725217,1.984583,4.343266,0.999116,0.005667,0.017545,0.037777
441,0.045334,1.526675,14.458384,-14.004512,-6.750887,1.837649,0.453576,1.823290,4.463617,0.999110,0.003335,0.016052,0.038874
442,-0.159667,0.705543,14.799047,-22.762445,-5.147609,-1.399664,-0.159067,1.625143,4.470465,0.999137,-0.001940,0.014117,0.039018
443,0.125202,0.259679,14.971067,-27.213598,-5.204769,-5.915092,-0.995232,1.451544,4.350455,0.999157,-0.009159,0.012328,0.038061
444,0.053713,-0.395175,15.291592,-28.096266,-3.200926,-8.980376,-1.922943,1.305421,4.105840,0.999146,-0.017176,0.010782,0.036006
445,0.046603,-0.688181,15.503628,-25.470642,-1.802577,-11.321164,-2.823063,1.208296,3.771306,0.999091,-0.024966,0.009725,0.033153
446,-0.218889,-1.487280,15.358120,-22.876545,0.400933,-10.060246,-3.636183,1.165121,3.416845,0.998991,-0.032014,0.009212,0.030119
447,-0.361529,-1.378284,15.222122,-11.758971,2.769702,-7.086665,-4.219418,1.198266,3.128195,0.998885,-0.037083,0.009441,0.027660
448,-0.328842,-1.603996,14.786300,-6.085734,2.135559,-6.737830,-4.521948,1.262339,2.892311,0.998832,-0.039714,0.010008,0.025651
449,-0.709615,-1.817754,13.887088,1.168710,5.477621,-3.146165,-4.607901,1.375800,2.717970,0.998827,-0.040471,0.011039,0.024178
450,-0.658778,-2.100279,12.924650,6.301556,4.546763,0.972312,-4.484725,1.539547,2.668676,0.998861,-0.039425,0.012510,0.023792
451,-0.508254,-1.622324,12.182044,13.008575,3.185652,2.513417,-4.161585,1.672488,2.716977,0.998941,-0.036640,0.013720,0.024219
452,-0.552844,-1.667319,11.399280,11.295090,3.154233,3.462295,-3.753767,1.784787,2.809176,0.999030,-0.033120,0.014759,0.025006
453,-0.487385,-1.748262,11.428974,9.764827,1.499736,9.289282,-3.396159,1.875492,3.016541,0.999068,-0.030049,0.015573,0.026791
454,-0.081317,-1.676039,11.207459,15.553020,-4.279705,10.334366,-2.963562,1.847547,3.345859,0.999097,-0.026315,0.015355,0.029597
455,-0.320949,-1.723644,11.178761,21.587076,-3.680738,10.301823,-2.333782,1.730814,3.695880,0.999149,-0.020839,0.014436,0.032544
456,-0.191083,-1.093382,11.130602,36.711231,-5.964135,13.224017,-1.350700,1.582608,4.092999,0.999192,-0.012271,0.013380,0.035867
457,-0.020242,-0.324467,10.569042,47.658714,-8.386911,16.551384,0.068027,1.348804,4.591976,0.999128,0.000122,0.011785,0.040052
458,0.154766,0.677943,9.561275,52.803776,-10.853689,13.779346,1.752365,1.020163,5.092360,0.998862,0.014881,0.009572,0.044282
459,0.181909,1.663373,8.779698,47.934727,-10.190388,12.592222,3.436915,0.649466,5.515629,0.998385,0.029680,0.007101,0.047922
460,0.120999,2.540348,7.821687,39.242538,-7.112653,12.141247,4.892865,0.331996,5.905773,0.997764,0.042479,0.005090,0.051344
461,-0.209783,2.923338,6.893792,17.139755,-1.312259,7.036533,5.833814,0.162576,6.210706,0.997241,0.050736,0.004172,0.054030
462,-0.116292,3.033867,6.578550,-7.132714,-2.018457,4.755630,6.001078,0.087283,6.400310,0.997074,0.052221,0.003682,0.055708
463,-0.299563,2.728177,6.637394,-27.478416,2.758668,7.330766,5.424506,0.079814,6.602113,0.997224,0.047201,0.003419,0.057485
464,-0.053393,2.383578,6.851134,-45.230064,1.219630,9.695670,4.213352,0.122217,6.890625,0.997520,0.036630,0.003273,0.060016
465,0.442218,1.965111,6.884480,-58.173107,-4.824696,6.669322,2.490618,0.046473,7.159122,0.997814,0.021665,0.001762,0.062411
466,0.400798,1.168750,6.768457,-57.989738,-4.817381,5.337862,0.554862,-0.118783,7.354151,0.997929,0.004899,-0.000724,0.064137
467,0.677150,0.170076,6.609507,-49.706200,-7.655381,0.186320,-1.239901,-0.325862,7.447416,0.997828,-0.010612,-0.003540,0.064910
468,0.426183,-0.263867,6.095156,-28.178362,-2.584797,-9.522087,-2.536681,-0.500919,7.297034,0.997725,-0.021812,-0.005770,0.063523
469,0.108725,-0.078448,4.511346,-0.575544,0.664825,-15.703812,-3.012189,-0.552058,6.878815,0.997850,-0.025947,-0.006384,0.059845
470,-0.213678,-1.087353,4.122482,-1.516597,6.906373,-16.232992,-3.042448,-0.453099,6.340599,0.998116,-0.026288,-0.005415,0.055179
471,0.212967,-1.399120,3.735462,8.233718,-3.511079,-20.890083,-2.925952,-0.428834,5.719780,0.998427,-0.025312,-0.005010,0.049782
472,0.083709,-1.570328,3.568669,14.291367,-0.472699,-20.188183,-2.544377,-0.527415,5.039203,0.998781,-0.021978,-0.005573,0.043848
473,-0.336704,-1.286730,3.514830,19.376472,10.274696,-16.467236,-1.978488,-0.387972,4.422201,0.999103,-0.017121,-0.004049,0.038517
474,-0.117047,-1.884755,5.162657,18.138546,3.556643,-11.191332,-1.351511,-0.170588,3.954359,0.999335,-0.011735,-0.001895,0.034481
475,-0.335401,-0.612734,6.609831,37.451328,5.777009,-6.330604,-0.424437,-0.019377,3.660255,0.999483,-0.003697,-0.000287,0.031935
476,-0.581901,0.067944,8.607485,29.161289,8.240961,1.102839,0.685414,0.215164,3.573741,0.999494,0.005920,0.002063,0.031170
477,-0.794050,1.402412,10.266951,21.874920,7.831474,4.485183,1.536395,0.481709,3.671718,0.999390,0.013266,0.004631,0.031977
478,0.138374,1.640468,12.217738,3.542035,-3.760345,9.987753,1.962089,0.542424,3.914785,0.999262,0.016950,0.005315,0.034070
479,-0.288486,2.306836,13.364178,-6.690804,-0.150966,9.367739,1.912201,0.466850,4.235281,0.999172,0.016524,0.004687,0.036878
480,0.200552,1.840882,14.007136,-21.187393,-3.956218,10.325956,1.450087,0.389039,4.561433,0.999124,0.012509,0.003896,0.039749
481,0.511358,1.591184,14.234720,-26.370836,-6.257900,9.338696,0.659099,0.213124,4.885925,0.999073,0.005667,0.002103,0.042613
482,0.305378,0.769035,14.176747,-32.766357,-4.260238,8.549261,-0.325870,0.037151,5.183451,0.998973,-0.002856,0.000195,0.045219
483,0.348284,-0.028303,13.921268,-34.590000,-2.890757,5.361724,-1.448418,-0.078217,5.417311,0.998803,-0.012593,-0.001279,0.047245
484,0.331084,-0.825204,13.557934,-35.726097,-2.191334,4.785538,-2.620580,-0.156554,5.589427,0.998550,-0.022773,-0.002479,0.048714
485,0.282338,-1.227203,13.285048,-33.110840,-0.757385,4.375003,-3.768204,-0.197042,5.744645,0.998205,-0.032750,-0.003364,0.050027
486,-0.027234,-1.750981,12.749238,-30.043022,2.487577,2.417145,-4.820991,-0.159799,5.855466,0.997813,-0.041933,-0.003540,0.050973
487,0.093831,-2.203877,12.608008,-27.401386,1.463532,0.546651,-5.778378,-0.089525,5.898807,0.997408,-0.050298,-0.003373,0.051349
488,-0.111076,-2.284726,12.641111,-20.149122,2.879324,-0.230960,-6.570824,-0.016889,5.896182,0.997036,-0.057226,-0.003094,0.051338
489,-0.162567,-2.175791,12.851887,-11.125577,2.693284,-3.056110,-7.092072,0.068864,5.830853,0.996792,-0.061801,-0.002547,0.050802
490,-0.379108,-2.382066,13.395640,-1.820636,5.205983,-3.263357,-7.308087,0.186427,5.709896,0.996722,-0.063734,-0.001553,0.049810
491,-0.470599,-1.965671,13.917436,11.183117,5.136417,-2.039966,-7.152571,0.346395,5.600633,0.996847,-0.062450,-0.000034,0.048948
492,-0.577971,-2.082561,13.955647,18.526094,5.360709,-0.507142,-6.657911,0.515087,5.537605,0.997124,-0.058217,0.001677,0.048485
493,-0.676936,-1.629896,13.291840,29.666523,5.590018,1.442418,-5.854793,0.698290,5.533287,0.997497,-0.051304,0.003614,0.048515
494,-0.512716,-1.727673,12.562995,31.589128,3.585182,3.871720,-4.832957,0.858893,5.607356,0.997871,-0.042478,0.005417,0.049185
495,-0.338678,-1.024209,11.225249,34.945740,0.665085,3.461352,-3.722353,0.938819,5.724108,0.998179,-0.032845,0.006556,0.050169
496,-0.040473,-1.052930,10.113669,28.491201,-2.775249,3.132828,-2.663399,0.909778,5.836058,0.998393,-0.023614,0.006744,0.051076
497,0.279140,-0.551846,9.556397,27.779594,-5.736838,2.532159,-1.724190,0.771676,5.936115,0.998518,-0.015374,0.005945,0.051873
498,0.129203,-0.271629,9.528683,20.516144,-4.236946,-0.063320,-0.918801,0.606420,5.981294,0.998590,-0.008283,0.004866,0.052213
499,0.197412,-0.281585,9.837345,10.425583,-7.791560,0.440139,-0.403080,0.405909,5.989888,0.998621,-0.003698,0.003354,0.052260
500,0.045601,-0.389478,10.376140,15.271349,-3.223231,-0.212124,0.025225,0.222371,5.994574,0.998630,0.000118,0.001949,0.052288
501,-0.024430,-0.777289,10.938640,18.429081,-3.181094,-0.101732,0.586863,0.115644,5.988566,0.998621,0.005062,0.001275,0.052230
502,-0.423150,-0.136198,11.293466,32.177868,-1.098521,-0.917586,1.430257,0.044637,5.970299,0.998565,0.012444,0.001039,0.052068
503,-0.212625,0.146800,11.041160,37.259903,-5.509194,1.801449,2.587450,-0.065956,5.980960,0.998383,0.022577,0.000603,0.052170
504,0.140400,0.990894,10.260644,43.941628,-10.036772,2.189070,3.940478,-0.328179,6.032944,0.998015,0.034483,-0.001049,0.052690
505,0.289172,1.606481,8.941081,37.267532,-11.369016,3.603647,5.293122,-0.691510,6.100770,0.997485,0.046429,-0.003562,0.053435
506,-0.272264,2.531757,7.682139,29.014631,-1.532462,4.529597,6.396103,-0.919027,6.214041,0.996919,0.056138,-0.004972,0.054562
507,0.204956,2.646284,6.713498,4.861934,-4.642279,10.243216,6.956787,-1.049628,6.445999,0.996506,0.061088,-0.005717,0.056671
508,0.337764,2.539560,6.412129,-19.976807,-2.753360,14.419749,6.697058,-1.220247,6.839937,0.996421,0.058936,-0.007127,0.060170
509,0.424106,2.734567,6.469636,-37.776138,-0.742670,11.829318,5.725114,-1.324863,7.268956,0.996640,0.050568,-0.008358,0.063884
510,0.840206,2.234008,6.886735,-59.396503,-3.357792,6.724848,4.098598,-1.418687,7.571511,0.997074,0.036496,-0.009984,0.066420
511,1.294358,1.528632,7.352481,-66.394569,-8.341711,1.697652,1.999156,-1.619705,7.701162,0.997474,0.018353,-0.012929,0.067384
512,0.707515,0.909907,6.980564,-56.596355,0.599361,-8.000800,-0.046873,-1.746023,7.593257,0.997690,0.000601,-0.015230,0.066201
513,0.712024,0.064005,6.742457,-38.366184,0.877433,-21.059399,-1.614602,-1.726908,7.109746,0.997877,-0.013127,-0.015913,0.061779
514,-0.111178,-0.137795,5.325826,-4.329562,11.929609,-25.462656,-2.303751,-1.537959,6.327336,0.998199,-0.019330,-0.014507,0.054903
515,0.147758,-0.994462,4.744832,3.648828,4.889573,-21.247444,-2.296208,-1.286935,5.539042,0.998579,-0.019470,-0.012183,0.048081
516,-0.095213,-1.719754,3.288736,-0.028435,9.257341,-22.841837,-2.220196,-1.079842,4.795521,0.998900,-0.018962,-0.010224,0.041644
517,-0.035987,-1.817829,2.977215,10.219630,6.061954,-21.800236,-2.037851,-0.852554,4.042372,0.999197,-0.017509,-0.008061,0.035130
518,-0.036190,-1.879521,2.925659,10.853311,5.868549,-14.963525,-1.678259,-0.673116,3.423707,0.999432,-0.014463,-0.006308,0.029783
519,-0.085323,-2.090734,4.468294,11.918878,7.067082,-8.565666,-1.294866,-0.467572,3.026100,0.999580,-0.011188,-0.004377,0.026357
520,-0.570588,-1.171622,5.720813,27.422731,14.985871,-6.668668,-0.638026,-0.104164,2.766020,0.999693,-0.005544,-0.001043,0.024130
521,-0.349977,0.396728,8.082764,35.712757,7.933721,2.237136,0.413848,0.278025,2.691459,0.999715,0.003554,0.002510,0.023476
522,-0.167965,0.621189,10.226389,15.818536,2.726168,8.407661,1.273559,0.453752,2.872239,0.999617,0.011011,0.004237,0.025017
523,-0.537108,1.766218,11.971053,7.217609,2.685325,12.208091,1.660317,0.535753,3.218116,0.999492,0.014351,0.005080,0.028009
524,-0.093153,2.051060,13.096827,-2.196281,-2.897750,15.224199,1.748182,0.518938,3.674980,0.999362,0.015102,0.005015,0.031992
525,0.086904,2.073595,13.858845,-11.458253,-7.331380,17.070318,1.524390,0.333486,4.208182,0.999235,0.013187,0.003396,0.036673
526,0.032864,1.794016,14.274972,-19.935738,-7.991900,15.048789,1.002870,0.066695,4.737767,0.999107,0.008720,0.000943,0.041326
527,0.340549,1.611442,13.965987,-18.033052,-10.138517,15.443919,0.369255,-0.241121,5.242428,0.998946,0.003315,-0.001955,0.045739
528,0.827594,1.071053,13.810152,-22.564249,-13.403128,12.653463,-0.310976,-0.633784,5.710356,0.998740,-0.002435,-0.005659,0.049796
529,0.797048,0.364247,13.401659,-27.768270,-11.465843,6.435631,-1.154721,-1.043839,6.033754,0.998527,-0.009583,-0.009626,0.052534
531,0.550088,-0.129289,12.892460,-24.826002,-6.133690,1.188617,-2.034177,-1.332982,6.169212,0.998337,-0.017098,-0.012569,0.053592
532,0.783505,-0.762573,12.879374,-24.832857,-4.574056,-1.949801,-2.861715,-1.511490,6.164418,0.998173,-0.024223,-0.014509,0.053418
533,0.529408,-1.101781,13.354551,-23.122295,0.388252,-6.562531,-3.657241,-1.589006,6.026782,0.998036,-0.031134,-0.015517,0.052096
534,0.302362,-1.384235,13.630415,-16.692579,5.589897,-7.577752,-4.314332,-1.505691,5.784938,0.997957,-0.036927,-0.015012,0.049928
535,0.311155,-1.786136,14.074358,-10.403161,7.178815,-6.324369,-4.759907,-1.311698,5.537345,0.997929,-0.040922,-0.013429,0.047784
536,0.325458,-1.567487,13.945532,-3.806800,7.838501,-7.466326,-4.991556,-1.081778,5.287154,0.997963,-0.043062,-0.011430,0.045666
537,-0.031100,-1.978195,13.295693,-0.359323,9.321930,-6.989863,-5.056588,-0.817831,5.022182,0.998056,-0.043757,-0.009056,0.043454
538,0.011578,-1.405005,12.164217,7.650554,7.816860,-8.892096,-4.931644,-0.556250,4.733678,0.998219,-0.042786,-0.006622,0.041050
539,-0.074842,-1.557455,10.951473,4.779129,6.638723,-10.242654,-4.721766,-0.342863,4.395788,0.998416,-0.041048,-0.004567,0.038195
540,-0.189241,-1.229949,10.035949,5.862603,6.461060,-12.580298,-4.542627,-0.156057,3.998993,0.998607,-0.039560,-0.002743,0.034809
541,-0.422149,-1.289011,9.693731,0.301724,6.415735,-12.282687,-4.439358,0.025448,3.569105,0.998765,-0.038719,-0.000984,0.031127
542,-0.330939,-0.917684,9.585827,-3.197254,3.154127,-11.586937,-4.488258,0.153326,3.160005,0.998851,-0.039179,0.000257,0.027604
543,-0.202298,-1.429415,10.090885,-11.060292,-0.534996,-9.373563,-4.726784,0.168667,2.808246,0.998847,-0.041261,0.000460,0.024544
544,-0.108776,-1.531181,10.652674,-3.932060,-3.199790,-4.998992,-4.977085,0.086139,2.574762,0.998804,-0.043426,-0.000225,0.022479
545,-0.026515,-2.085756,11.165908,5.547557,-5.892467,1.583797,-4.950101,-0.069717,2.531084,0.998824,-0.043160,-0.001561,0.022039
546,-0.266973,-1.295175,11.393958,43.691669,-4.324374,8.471589,-4.129844,-0.226150,2.711518,0.999071,-0.035975,-0.002824,0.023574
547,0.049915,-0.907020,11.903828,62.746819,-6.137598,10.415535,-2.357730,-0.382481,3.035049,0.999434,-0.020478,-0.003881,0.026408
548,0.100098,0.082202,11.338600,80.316521,-4.871906,12.866224,0.022605,-0.558132,3.426580,0.999541,0.000343,-0.004863,0.029899
549,0.080272,1.393601,10.329951,86.163307,-3.151802,12.409438,2.791215,-0.702125,3.843721,0.999117,0.024547,-0.005305,0.033675
550,-0.044022,3.120538,9.112258,83.784035,1.007198,8.608096,5.617408,-0.763631,4.189781,0.998097,0.049211,-0.004860,0.036836
551,0.288711,2.856442,8.066443,42.827232,-0.882768,6.581898,7.722977,-0.791577,4.440404,0.996939,0.067560,-0.004278,0.039116
552,-0.043654,3.404011,6.215209,30.233704,4.223032,4.252975,8.937780,-0.762253,4.627453,0.996104,0.078120,-0.003481,0.040765
553,0.187235,3.192139,5.582676,-3.636460,1.731756,2.349698,9.379530,-0.681757,4.751389,0.995758,0.081935,-0.002535,0.041798
554,0.196994,3.201160,5.851673,-34.798332,1.374576,0.435688,8.738330,-0.637708,4.805258,0.996184,0.076347,-0.002350,0.042223
555,0.767623,2.525636,6.256198,-62.847546,-8.090375,3.012204,7.110565,-0.756266,4.846633,0.997144,0.062233,-0.003959,0.042609
556,1.059604,1.984675,6.930703,-73.950958,-11.731795,-0.310825,4.831124,-1.089497,4.856133,0.998152,0.042510,-0.007705,0.042726
557,1.054634,1.730930,7.548297,-71.098984,-9.649374,-6.671412,2.417734,-1.436990,4.717202,0.998841,0.021594,-0.011658,0.041406
558,0.844847,1.120117,7.651234,-50.759014,-6.866346,-10.405578,0.395495,-1.703913,4.426257,0.999136,0.004023,-0.014724,0.038664
559,0.578984,0.128417,7.068745,-24.913776,-3.077196,-14.339471,-0.852644,-1.870257,4.014406,0.999230,-0.006863,-0.016570,0.034898
560,0.162342,-0.421515,6.040246,3.726567,3.578688,-18.937958,-1.187764,-1.870635,3.459488,0.999363,-0.009866,-0.016628,0.030010
561,0.062713,-0.832064,4.209807,17.845064,5.576468,-20.737034,-0.807657,-1.728313,2.795545,0.999567,-0.006677,-0.015249,0.024284
562,-0.095800,-1.968999,3.905555,11.162979,8.805897,-15.514632,-0.307229,-1.493874,2.188945,0.999730,-0.002431,-0.013085,0.019064
563,-0.085759,-1.864546,3.717149,20.577280,8.593428,-13.689348,0.232996,-1.204324,1.701687,0.999832,0.002189,-0.010478,0.014870
564,-0.404440,-2.536583,3.816807,8.046721,14.593590,-6.801281,0.715966,-0.814674,1.363566,0.999884,0.006332,-0.007034,0.011943
565,-0.260380,-1.738036,5.166101,19.869459,7.763492,-1.131609,1.182268,-0.439995,1.236979,0.999881,0.010358,-0.003728,0.010833
566,-0.511049,-1.200878,7.442735,21.161739,7.243084,4.563358,1.865655,-0.191213,1.301364,0.999801,0.016298,-0.001483,0.011382
567,-0.721563,0.339608,8.880991,26.364641,6.700480,8.211859,2.657312,0.032858,1.523338,0.999643,0.023181,0.000595,0.013283
568,-0.440937,0.735259,10.411564,10.730321,0.238441,12.010632,3.275945,0.131024,1.866020,0.999459,0.028562,0.001608,0.016244
569,-0.153237,1.861509,11.966710,5.242023,-4.056872,12.221968,3.542563,0.044023,2.265578,0.999327,0.030896,0.000995,0.019748
570,-0.046934,1.763037,12.920959,-4.214844,-4.524409,12.735624,3.559271,-0.124326,2.671993,0.999245,0.031072,-0.000360,0.023338
571,0.401558,1.919067,13.648492,-8.575136,-6.643966,11.447370,3.344532,-0.334113,3.063215,0.999210,0.029250,-0.002133,0.026802
572,0.761247,1.698103,13.789291,-11.384429,-9.311201,9.729247,3.008989,-0.619031,3.400918,0.999196,0.026404,-0.004619,0.029805
573,0.683990,1.634474,13.737908,-12.843938,-6.551937,6.988101,2.601581,-0.896615,3.666277,0.999194,0.022939,-0.007092,0.032157
574,0.788335,1.328151,13.700871,-17.160244,-5.825241,5.178267,2.098122,-1.110930,3.860559,0.999212,0.018624,-0.009071,0.033854
575,0.726375,0.523877,13.117788,-22.705843,-2.875195,0.171208,1.431938,-1.258482,3.945318,0.999264,0.012866,-0.010545,0.034555
576,0.360519,0.370100,12.555631,-23.545401,2.138046,-3.165243,0.662185,-1.269578,3.895396,0.999342,0.006151,-0.010876,0.034049
577,0.380228,-0.268486,12.264296,-27.537052,3.945956,-5.242356,-0.186201,-1.167420,3.755950,0.999410,-0.001290,-0.010235,0.032753
578,-0.026205,-0.782644,11.940838,-24.381214,7.271119,-4.995650,-1.048214,-0.982240,3.583377,0.999435,-0.008874,-0.008853,0.031185
579,0.035675,-1.028228,11.597293,-19.615234,6.372852,-5.476627,-1.778755,-0.759200,3.403524,0.999420,-0.015318,-0.007082,0.029590
580,-0.201360,-0.887599,11.365036,-13.596457,7.682698,-3.140387,-2.330531,-0.530163,3.251626,0.999383,-0.020197,-0.005201,0.028272
581,-0.192515,-1.102959,10.960569,-10.153474,5.924610,1.662898,-2.726156,-0.304712,3.217178,0.999321,-0.023704,-0.003325,0.028000
582,-0.039988,-1.300023,10.566621,-7.833574,3.290361,4.795439,-3.026405,-0.146056,3.316987,0.999233,-0.026359,-0.002038,0.028898
583,0.047440,-1.231940,10.239318,-5.685756,1.512920,6.136191,-3.252095,-0.056232,3.494496,0.999133,-0.028348,-0.001355,0.030464
584,0.144346,-1.143339,9.890810,-8.657980,-1.158350,7.148909,-3.491367,-0.037362,3.715168,0.999011,-0.030437,-0.001313,0.032390
585,0.179073,-0.909939,9.667123,-2.435105,-2.846327,7.206415,-3.676561,-0.088993,3.958077,0.998890,-0.032033,-0.001884,0.034491
586,0.108981,-0.789113,9.594353,-0.227529,-1.560306,6.105991,-3.721434,-0.148081,4.184179,0.998807,-0.032401,-0.002476,0.036445
587,0.094353,-0.504468,9.513048,3.506136,-0.638511,4.989626,-3.667300,-0.172769,4.371078,0.998762,-0.031917,-0.002726,0.038068
588,0.026993,-0.407269,9.517022,1.571537,-0.222091,4.836732,-3.583164,-0.176784,4.535419,0.998729,-0.031178,-0.002778,0.039501
589,-0.049736,-0.183666,9.565840,5.740923,1.519356,4.043135,-3.461698,-0.146089,4.681809,0.998710,-0.030127,-0.002507,0.040788
590,0.097890,-0.173425,9.764551,-0.946446,-0.226348,2.855555,-3.382031,-0.117767,4.795290,0.998690,-0.029441,-0.002261,0.041786
591,0.237540,-0.096100,9.806550,-0.666816,-1.365764,0.255732,-3.409052,-0.141135,4.848621,0.998664,-0.029666,-0.002488,0.042244
592,0.290900,-0.084625,9.938960,-3.889979,-0.775657,-3.253012,-3.484874,-0.179761,4.800900,0.998661,-0.030314,-0.002840,0.041816
593,0.434120,-0.106453,9.988605,-6.435997,-1.010989,-6.470167,-3.656428,-0.219564,4.641026,0.998672,-0.031799,-0.003205,0.040408
594,0.427665,-0.300255,9.951826,-10.681231,0.527650,-9.979905,-3.940609,-0.245755,4.367997,0.998683,-0.034275,-0.003452,0.038012
595,0.198833,-0.385872,9.781340,-13.915724,3.905228,-12.833974,-4.349091,-0.199559,3.983459,0.998677,-0.037860,-0.003058,0.034664
596,0.130134,-0.545007,9.780103,-18.550964,5.671561,-12.972660,-4.889209,-0.075103,3.541991,0.998613,-0.042613,-0.001973,0.030849
597,-0.095830,-0.730309,9.761734,-20.055479,8.228529,-11.683694,-5.532839,0.118139,3.111759,0.998465,-0.048275,-0.000281,0.027170
598,-0.188034,-0.933345,9.788250,-20.897255,9.345714,-10.169898,-6.217127,0.372114,2.719590,0.998238,-0.054289,0.001955,0.023872
599,-0.111627,-1.097961,9.788333,-21.412148,7.379905,-8.111702,-6.925189,0.614068,2.385056,0.997937,-0.060494,0.004091,0.021097
600,0.004380,-1.256635,9.916009,-20.098528,4.211388,-6.062521,-7.620136,0.775656,2.126164,0.997587,-0.066562,0.005520,0.018961
601,-0.088962,-1.376320,10.016540,-17.467239,3.524482,-5.106432,-8.249100,0.877552,1.923861,0.997231,-0.072041,0.006430,0.017295
602,-0.025760,-1.466159,10.045130,-15.191561,0.648479,-4.723463,-8.796101,0.922043,1.751511,0.996897,-0.076796,0.006850,0.015856
603,-0.018905,-1.487424,10.030844,-12.582853,-0.996977,-4.241238,-9.261291,0.892856,1.604745,0.996599,-0.080830,0.006635,0.014586
604,-0.096777,-1.526031,9.998070,-10.031139,-1.003047,-4.592161,-9.640273,0.835804,1.464922,0.996348,-0.084112,0.006193,0.013351
605,-0.155132,-1.505834,9.831032,-9.342778,-0.292667,-4.035498,-9.965130,0.790078,1.326879,0.996124,-0.086924,0.005863,0.012134
606,0.057252,-1.472325,9.628989,-10.761876,-2.920372,-3.761276,-10.301765,0.714497,1.208389,0.995881,-0.089838,0.005263,0.011062
607,0.213344,-1.545416,9.803828,-15.915269,-4.728613,-3.114877,-10.747354,0.568198,1.118942,0.995541,-0.093694,0.004022,0.010186
608,0.180550,-1.738218,9.985521,-21.958790,-4.538900,-2.827976,-11.379122,0.397544,1.051377,0.995023,-0.099165,0.002542,0.009474
609,0.165299,-1.842570,10.169254,-27.167500,-4.407040,-2.888599,-12.198203,0.232093,0.988660,0.994299,-0.106262,0.001097,0.008794
610,0.222017,-2.338410,10.308330,-34.148422,-5.482716,-3.475950,-13.220229,0.047963,0.921522,0.993320,-0.115112,-0.000510,0.008036
611,0.091886,-2.970238,10.146572,-39.962833,-4.348691,-2.947522,-14.455238,-0.136728,0.856776,0.992027,-0.125799,-0.002124,0.007267
612,0.062266,-3.344002,9.712615,-41.808907,-2.909476,-3.961276,-15.817619,-0.283588,0.777412,0.990465,-0.137577,-0.003385,0.006379
613,0.099601,-3.658215,9.222616,-43.164036,-2.569160,-6.958983,-17.232716,-0.422742,0.629049,0.988695,-0.149794,-0.004470,0.004875
614,0.211251,-4.099420,8.929235,-45.217857,-3.056519,-7.664517,-18.703732,-0.586793,0.426120,0.986692,-0.162475,-0.005657,0.002837
615,0.151699,-4.167215,8.679836,-44.049244,-1.743469,-9.368274,-20.188406,-0.756678,0.185051,0.984500,-0.175253,-0.006784,0.000433
616,0.057369,-4.189806,8.838326,-40.195454,0.030088,-11.973863,-21.587582,-0.909906,-0.137010,0.982274,-0.187278,-0.007576,-0.002661
617,0.016799,-4.200433,8.861232,-34.397598,0.394795,-14.929693,-22.823423,-1.072378,-0.554792,0.980167,-0.197891,-0.008215,-0.006597
618,-0.134980,-4.168040,9.017707,-28.311140,2.073363,-13.228641,-23.859499,-1.220097,-1.002162,0.978290,-0.206784,-0.008609,-0.010757
619,-0.246977,-4.092360,8.978143,-22.234776,2.776700,-12.613324,-24.692465,-1.323344,-1.427974,0.976702,-0.213928,-0.008616,-0.014641
620,-0.321183,-4.030545,8.899169,-16.227938,3.120853,-10.718427,-25.324139,-1.398481,-1.822010,0.975441,-0.219346,-0.008421,-0.018186
621,-0.123382,-3.985831,8.708525,-12.082951,0.512976,-9.564542,-25.787642,-1.489571,-2.153186,0.974476,-0.223325,-0.008476,-0.021214
622,-0.193282,-3.947632,8.517496,-10.097391,0.632983,-5.939907,-26.150787,-1.585527,-2.394037,0.973702,-0.226444,-0.008749,-0.023476
623,-0.028365,-4.008484,8.230944,-10.155362,-1.632988,-6.082262,-26.483416,-1.689348,-2.566287,0.972987,-0.229299,-0.009217,-0.025171
624,-0.153880,-3.931280,8.230535,-8.593104,-0.295087,-4.554141,-26.791462,-1.797572,-2.710452,0.972315,-0.231943,-0.009776,-0.026638
625,0.118573,-3.945615,8.519535,-6.560601,-2.300112,-4.620206,-27.040268,-1.905358,-2.827243,0.971762,-0.234082,-0.010394,-0.027869
626,0.240773,-3.797187,8.947142,-2.083594,-1.934931,-4.214798,-27.180906,-2.035287,-2.926256,0.971423,-0.235307,-0.011258,-0.028987
627,0.417030,-3.847286,9.515130,1.464868,-1.025155,-4.551605,-27.187296,-2.145891,-3.033794,0.971360,-0.235393,-0.011974,-0.030125
628,0.476294,-3.782113,10.043612,6.242363,1.014260,-4.149159,-27.053946,-2.212131,-3.162900,0.971584,-0.234288,-0.012307,-0.031341
629,0.675827,-3.875845,10.193260,7.736688,1.374917,-4.980433,-26.815001,-2.245515,-3.316749,0.972020,-0.232285,-0.012343,-0.032687
630,0.612466,-3.949041,9.981523,7.664634,2.793383,-4.535404,-26.551525,-2.254660,-3.489788,0.972499,-0.230070,-0.012149,-0.034146
631,0.479744,-3.942270,9.592165,6.459270,3.847865,-3.523954,-26.309526,-2.215336,-3.659494,0.972940,-0.228025,-0.011549,-0.035483
632,0.400003,-3.899011,9.115235,9.219061,3.173092,-1.748812,-26.043270,-2.149096,-3.790101,0.973441,-0.225760,-0.010811,-0.036436
634,0.421867,-4.036941,8.798309,1.430645,0.837520,0.744444,-25.864141,-2.096258,-3.834426,0.973791,-0.224229,-0.010332,-0.036693
635,0.529496,-4.171348,8.704415,-4.081540,-1.015309,3.012123,-25.910429,-2.071571,-3.776784,0.973724,-0.224612,-0.010221,-0.036159
636,0.551336,-4.317160,8.781189,-6.591378,-1.963877,4.455424,-26.093140,-2.061622,-3.643080,0.973408,-0.226149,-0.010342,-0.035020
637,0.524728,-4.594670,8.863777,-8.838451,-1.916965,5.363689,-26.356600,-2.047326,-3.467584,0.972941,-0.228368,-0.010490,-0.033525
638,0.598559,-4.767046,8.927095,-8.473636,-2.305816,4.835610,-26.651669,-2.034436,-3.283934,0.972405,-0.230853,-0.010664,-0.031968
639,0.599859,-4.726846,8.930640,-4.987210,-1.751037,4.037475,-26.881784,-2.028202,-3.121356,0.971985,-0.232788,-0.010878,-0.030598
640,0.526384,-4.630289,8.824365,-0.898527,-2.475480,3.248240,-26.984850,-2.036028,-2.981099,0.971811,-0.233650,-0.011202,-0.029434
641,0.507067,-4.502753,8.757079,9.137935,-1.790869,2.904128,-26.851952,-2.053046,-2.857410,0.972109,-0.232514,-0.011632,-0.028406
642,0.533298,-4.221596,8.748825,23.716406,-0.457183,2.745251,-26.307989,-2.044520,-2.756394,0.973228,-0.227885,-0.011895,-0.027476
643,0.449355,-3.923568,8.741426,41.863586,-0.460128,3.547572,-25.218618,-2.012841,-2.655276,0.975380,-0.218607,-0.012079,-0.026441
644,0.582944,-3.539441,8.718492,64.391861,-2.744731,1.911333,-23.451664,-2.024092,-2.550311,0.978656,-0.203532,-0.012768,-0.025375
645,0.672047,-2.797952,8.558834,88.284882,-4.232962,-2.252377,-20.909401,-2.134136,-2.511338,0.982918,-0.181784,-0.014333,-0.024925
646,0.516149,-2.113479,8.489097,101.835899,-3.180053,-2.727640,-17.741400,-2.278773,-2.548458,0.987531,-0.154573,-0.016214,-0.025033
647,0.378825,-1.691366,8.700838,104.765701,-2.273101,-1.649173,-14.299301,-2.386275,-2.593830,0.991697,-0.124870,-0.017839,-0.025044
648,0.350101,-1.204469,9.112385,102.705452,-2.477841,-3.782126,-10.841828,-2.482923,-2.665243,0.994977,-0.094926,-0.019367,-0.025193
649,0.133610,-0.843459,9.628064,90.927406,-0.622849,-2.584862,-7.613478,-2.551395,-2.761531,0.997221,-0.066891,-0.020608,-0.025515
650,-0.245644,-0.939978,10.286341,72.831314,1.599966,3.439875,-4.886839,-2.533516,-2.749534,0.998536,-0.043140,-0.021058,-0.024906
651,0.011656,-0.511869,10.628743,66.306404,-1.580691,5.675043,-2.575791,-2.522139,-2.598438,0.999237,-0.022964,-0.021487,-0.023157
652,0.192776,-0.209450,10.726279,58.434425,-3.517997,8.146835,-0.508098,-2.600387,-2.365206,0.999518,-0.004900,-0.022594,-0.020734
653,0.021134,0.184715,10.405325,50.936790,-1.836818,11.187176,1.299263,-2.691322,-2.043018,0.999506,0.010914,-0.023681,-0.017555
654,0.208344,0.723375,9.976790,47.498806,-1.991843,13.907866,2.919681,-2.769881,-1.627197,0.999291,0.025123,-0.024521,-0.013575
655,0.423880,1.242040,9.557371,42.032993,-3.174625,12.838318,4.389862,-2.883775,-1.187333,0.998906,0.038025,-0.025540,-0.009387
656,0.349572,1.110763,9.628631,25.917635,-1.723629,11.111452,5.502048,-2.999455,-0.796084,0.998490,0.047797,-0.026475,-0.005681
657,0.433431,1.213869,9.648228,22.403002,-1.471360,8.994813,6.289923,-3.086511,-0.467782,0.998129,0.054732,-0.027115,-0.002597
658,0.653314,1.283209,9.507813,19.292841,-3.278739,6.847636,6.970924,-3.195669,-0.214288,0.997764,0.060719,-0.027946,-0.000171
659,0.660385,1.134945,9.776526,7.285200,-4.885807,2.198122,7.406241,-3.349597,-0.081426,0.997487,0.064538,-0.029211,0.001179
660,0.916074,0.977888,10.224861,1.777980,-4.726752,-1.046074,7.557329,-3.510981,-0.083086,0.997359,0.065849,-0.030615,0.001296
661,0.804149,0.979485,9.956035,-0.099685,-5.146080,-3.045228,7.590858,-3.665140,-0.172485,0.997298,0.066112,-0.032008,0.000616
662,0.635837,0.986861,9.804143,-4.243178,-1.020370,-6.264498,7.529294,-3.746624,-0.340149,0.997311,0.065526,-0.032814,-0.000814
663,0.629281,0.837466,10.284575,-11.797664,0.389158,-7.094281,7.276384,-3.728405,-0.562718,0.997455,0.063262,-0.032776,-0.002834
664,0.403833,0.770106,10.119409,-8.240925,2.755327,-5.842881,6.955763,-3.649800,-0.770592,0.997642,0.060417,-0.032193,-0.004777
665,0.125337,0.849019,9.777487,-6.593637,4.998871,-4.382078,6.718088,-3.501181,-0.924636,0.997798,0.058317,-0.030968,-0.006261
666,0.200313,0.861699,9.991263,-8.605046,3.972760,-1.895059,6.469920,-3.340643,-1.011491,0.997958,0.056148,-0.029599,-0.007164
667,0.271668,0.863447,10.047142,-5.923296,2.096777,0.549147,6.228405,-3.237681,-1.022664,0.998099,0.054051,-0.028692,-0.007373
668,0.345564,0.876367,9.808412,-5.497447,2.832841,2.158589,6.035048,-3.160849,-0.968951,0.998210,0.052387,-0.027986,-0.006989
669,0.516700,0.854275,9.961835,-7.325807,-0.754398,2.310549,5.817049,-3.134108,-0.891160,0.998319,0.050509,-0.027705,-0.006376
670,0.576228,0.820640,10.016255,-3.349805,-1.868844,1.646951,5.635725,-3.184178,-0.829859,0.998389,0.048940,-0.028105,-0.005864
671,0.537693,0.861599,9.936291,0.033714,-1.232490,1.137648,5.578142,-3.240162,-0.788685,0.998402,0.048444,-0.028573,-0.005496
672,0.466418,0.930961,9.897119,3.513807,0.702074,1.171040,5.635144,-3.252728,-0.751206,0.998376,0.048949,-0.028669,-0.005150
673,0.337345,0.918620,10.018200,3.729609,1.827116,2.351684,5.752337,-3.216616,-0.688513,0.998337,0.049988,-0.028332,-0.004590
674,0.200161,0.870896,9.907491,3.785663,3.868079,4.797496,5.870482,-3.134238,-0.560173,0.998309,0.051054,-0.027562,-0.003480
675,0.231400,0.830881,9.891400,-0.052642,7.517003,8.053688,5.920308,-2.967468,-0.327316,0.998331,0.051550,-0.026006,-0.001514
676,0.274074,0.797361,9.874057,-2.632966,7.014062,11.420509,5.858170,-2.759784,0.020760,0.998404,0.051089,-0.024041,0.001411
677,0.346317,0.735583,9.879368,-2.453968,4.278554,13.949363,5.752679,-2.615256,0.460895,0.998467,0.050259,-0.022590,0.005161
678,0.472027,0.743358,9.814511,-2.423987,2.866605,15.191072,5.648954,-2.545024,0.956473,0.998495,0.049448,-0.021769,0.009429
679,0.565635,0.803863,9.857039,-1.553651,1.403806,14.715326,5.560341,-2.522879,1.459954,0.998486,0.048769,-0.021369,0.013790
680,0.627397,0.865016,9.913087,-0.218912,0.114223,12.576227,5.510617,-2.541601,1.915563,0.998441,0.048422,-0.021346,0.017758
681,0.636079,0.942773,9.891011,2.158292,-2.475905,10.007165,5.526196,-2.617015,2.286789,0.998356,0.048639,-0.021843,0.021027
682,0.651276,1.034276,9.920356,4.002156,-3.261827,6.452179,5.616456,-2.738894,2.550810,0.998240,0.049498,-0.022774,0.023396
683,0.640128,1.044353,9.944351,3.005026,-1.629908,2.978106,5.725980,-2.835618,2.699316,0.998140,0.050501,-0.023529,0.024753
684,0.636599,0.947504,9.917520,0.918961,-3.372865,0.445020,5.788943,-2.924317,2.747767,0.998081,0.051077,-0.024266,0.025226
685,0.621581,0.840082,9.874358,-4.221078,-3.386104,-2.999758,5.736678,-3.032127,2.694041,0.998091,0.050631,-0.025241,0.024794
686,0.592939,0.864156,9.900775,-9.184729,-2.042279,-7.601159,5.523118,-3.104836,2.509112,0.998204,0.048743,-0.025999,0.023166
687,0.604283,0.697021,9.901370,-19.191677,-2.106653,-11.004912,5.067338,-3.145065,2.193545,0.998440,0.044706,-0.026565,0.020328
688,0.567907,0.521296,9.885695,-31.382511,-1.714541,-14.639464,4.248250,-3.173945,1.761784,0.998796,0.037471,-0.027102,0.016384
689,0.570453,0.401296,9.961697,-41.438221,-1.643541,-17.997885,3.065049,-3.195265,1.214658,0.999190,0.027028,-0.027585,0.011337
690,0.477982,0.287144,9.798330,-48.637638,-0.303316,-19.758366,1.599218,-3.202179,0.583778,0.999497,0.014092,-0.027867,0.005482
691,0.135358,0.161701,9.635994,-51.898624,4.273112,-18.060854,-0.041288,-3.127609,-0.046208,0.999627,-0.000371,-0.027290,-0.000413
692,0.338622,-0.092585,9.681487,-53.450058,2.839325,-15.211228,-1.767027,-3.018214,-0.602620,0.999518,-0.015553,-0.026251,-0.005662
693,0.183447,-0.350669,9.612394,-48.450111,3.277802,-11.568940,-3.441434,-2.937102,-1.053767,0.999171,-0.030252,-0.025340,-0.009958
694,0.078768,-0.383334,9.553454,-30.653437,4.695274,-5.175263,-4.745092,-2.824782,-1.341785,0.998759,-0.041670,-0.024141,-0.012716
695,0.098317,-0.368382,9.896122,6.412239,9.616090,6.727893,-5.149406,-2.585159,-1.336232,0.998657,-0.045170,-0.022010,-0.012659
696,0.722170,-0.792614,9.885776,34.082848,-1.912643,16.535376,-4.491159,-2.424999,-0.959501,0.998966,-0.039350,-0.020816,-0.009194
697,0.283462,-0.668795,9.647970,53.703674,0.472955,20.712124,-3.054855,-2.408342,-0.337168,0.999418,-0.026711,-0.020929,-0.003501
698,0.459831,-0.437567,9.865245,63.932991,-0.211877,23.579191,-1.125433,-2.377539,0.400503,0.999731,-0.009746,-0.020780,0.003290
699,0.559659,-0.262740,9.844957,60.336315,-1.844364,22.420959,0.912863,-2.410514,1.167660,0.999694,0.008178,-0.020951,0.010355
700,0.640444,-0.129846,9.669336,40.764778,-4.229876,15.202901,2.570265,-2.530701,1.791937,0.999375,0.022765,-0.021724,0.016124
701,0.399153,0.272913,9.843327,17.609423,-1.511946,6.541378,3.526658,-2.645527,2.149460,0.999071,0.031190,-0.022493,0.019453
702,0.567729,0.451108,10.003105,8.002421,-2.890110,3.152956,3.946167,-2.729265,2.306039,0.998905,0.034892,-0.023104,0.020925
703,0.538316,0.618626,9.837695,7.816546,-1.962771,0.006855,4.207511,-2.813684,2.352967,0.998796,0.037194,-0.023776,0.021413
704,0.494624,0.660247,9.851146,6.116678,-0.383802,-1.419064,4.441022,-2.850965,2.326495,0.998714,0.039230,-0.024067,0.021243
705,0.452577,0.704110,9.847629,5.150149,0.818328,-2.173260,4.631735,-2.839036,2.267287,0.998661,0.040878,-0.023948,0.020763
706,0.399224,0.813490,9.857733,5.725800,1.969615,-2.225449,4.816397,-2.786703,2.197950,0.998618,0.042464,-0.023485,0.020178
707,0.383082,0.869745,9.875023,5.653124,2.069961,-1.203308,5.008500,-2.714728,2.146708,0.998570,0.044117,-0.022843,0.019744
708,0.426796,0.928909,9.878088,6.538014,0.959688,-0.133858,5.212510,-2.662435,2.128988,0.998504,0.045883,-0.022359,0.019610
709,0.458946,1.022611,9.824829,6.543924,0.257215,1.030091,5.429762,-2.643611,2.145781,0.998416,0.047776,-0.022151,0.019791
710,0.496394,1.009546,9.851688,4.612202,0.124530,2.123035,5.613250,-2.642317,2.198770,0.998329,0.049385,-0.022085,0.020287
711,0.503176,0.945664,9.868348,3.923448,0.338445,2.576998,5.751878,-2.642374,2.277570,0.998255,0.050608,-0.022027,0.021001
712,0.577261,0.967411,9.846265,5.061491,-0.175385,2.625252,5.897629,-2.648460,2.364192,0.998172,0.051895,-0.022014,0.021786
713,0.573554,0.983922,9.820492,4.916654,-0.052774,2.786472,6.059786,-2.661644,2.453602,0.998078,0.053327,-0.022056,0.022602
714,0.580504,0.944526,9.860354,3.262313,-0.145491,2.438334,6.192086,-2.674219,2.539925,0.997995,0.054498,-0.022098,0.023385
715,0.552842,0.957221,9.854039,3.463759,0.020338,1.659925,6.301019,-2.683718,2.607672,0.997927,0.055462,-0.022126,0.024000
716,0.575480,0.989157,9.848832,2.623088,-0.337042,1.044121,6.400392,-2.693956,2.651926,0.997867,0.056338,-0.022173,0.024410
717,0.517311,0.971771,9.868423,-1.168469,-0.267407,0.648524,6.423364,-2.707119,2.678868,0.997847,0.056545,-0.022269,0.024655
718,0.463239,0.968721,9.795269,-3.670138,0.823903,0.978649,6.341399,-2.700910,2.706885,0.997883,0.055836,-0.022219,0.024880
719,0.395254,0.859483,9.855144,-7.039952,1.569059,2.396904,6.160075,-2.667388,2.767223,0.997964,0.054262,-0.021938,0.025355
720,0.377798,0.737706,9.880537,-10.002682,1.704888,5.340783,5.869837,-2.626640,2.901335,0.998076,0.051751,-0.021586,0.026450
721,0.359271,0.677797,9.834550,-11.135346,1.539299,8.582974,5.506754,-2.595871,3.137844,0.998185,0.048626,-0.021302,0.028429
722,0.399726,0.603866,9.819550,-12.558286,0.482632,11.390129,5.096692,-2.593138,3.472742,0.998266,0.045116,-0.021248,0.031269
723,0.480510,0.519239,9.913999,-13.293336,-1.069151,12.826681,4.647479,-2.637199,3.874436,0.998311,0.041289,-0.021610,0.034700
