seq,ax,ay,az,wroll,wpitch,wyaw,roll,pitch,yaw,q0,q1,q2,q3
60,0.180597,-2.403692,9.437921,-7.602461,-2.820457,36.220203,-14.288579,-1.062330,0.270542,0.992193,-0.124341,-0.009492,0.001190
61,-1.265555,-4.147624,8.291725,-77.356789,47.631039,-22.684902,-15.704787,-0.282622,0.295190,0.990618,-0.136614,-0.002795,0.002215
62,-1.097404,-4.162551,8.479782,-67.781105,30.257183,-22.724201,-18.123262,0.745978,-0.806748,0.987481,-0.157444,0.007537,-0.005927
63,-0.557579,-4.483622,9.013908,-55.541698,-5.639547,-29.529530,-20.189848,0.847384,-1.765834,0.984395,-0.175142,0.009980,-0.013874
64,0.077788,-4.603978,9.141158,-43.194859,-34.362785,-36.941460,-21.837118,-0.172025,-2.565901,0.981644,-0.189399,0.002767,-0.022269
65,0.564292,-4.471563,8.970008,-28.736149,-47.159916,-39.188644,-23.021635,-1.911255,-3.224587,0.979269,-0.199906,-0.010722,-0.030893
66,0.938027,-4.432431,9.052493,-18.235546,-48.107456,-39.851658,-23.773800,-3.890444,-3.806474,0.977221,-0.206851,-0.026361,-0.039469
67,1.371721,-4.525325,9.197951,-12.683053,-46.983231,-42.972061,-24.236021,-5.898578,-4.426303,0.975277,-0.211434,-0.042172,-0.048500
68,1.407576,-4.140461,8.758715,-0.173640,-32.123268,-39.576824,-24.366011,-7.665389,-5.143195,0.973677,-0.213282,-0.055825,-0.057851
69,1.363495,-3.728147,8.674409,15.906550,-12.928444,-34.226231,-23.986549,-8.853158,-5.967558,0.973097,-0.210826,-0.064610,-0.066781
70,1.380739,-3.675595,9.109251,19.601868,2.036247,-29.128391,-23.251896,-9.441536,-6.875444,0.973410,-0.205310,-0.068423,-0.075089
71,1.324536,-3.572235,9.131970,17.316612,11.716208,-20.647013,-22.494822,-9.552590,-7.741497,0.974062,-0.199438,-0.068359,-0.082183
72,1.205084,-3.355564,8.901066,15.870767,18.507420,-9.851241,-21.832809,-9.277807,-8.411772,0.974929,-0.194072,-0.065355,-0.087052
74,1.060657,-3.399519,8.969283,9.362195,28.380236,3.631839,-21.352505,-8.589136,-8.800868,0.975977,-0.189841,-0.059197,-0.089019
75,0.543092,-3.994108,9.324714,-13.024294,51.003521,26.320105,-21.411854,-7.175176,-8.819324,0.976871,-0.189583,-0.047048,-0.086991
76,0.289939,-4.240532,8.871343,-30.664869,55.495003,38.424545,-22.177996,-5.127080,-8.476700,0.977031,-0.194859,-0.029572,-0.081032
77,0.157238,-4.047025,8.676643,-21.958303,50.822220,40.401299,-23.093451,-2.987055,-7.947196,0.976713,-0.201388,-0.011609,-0.073076
78,-0.214294,-4.342411,9.301060,-21.635935,51.834690,45.270760,-23.841597,-0.850523,-7.317602,0.976315,-0.206596,0.005934,-0.063967
79,-0.527743,-4.535485,9.664320,-20.086769,44.187263,42.608574,-24.535103,1.208305,-6.637398,0.975603,-0.211512,0.022586,-0.054328
80,-0.166589,-3.799230,9.121954,6.080352,11.325220,23.661856,-24.748882,2.509170,-6.019313,0.975433,-0.212830,0.032606,-0.046587
81,-0.300809,-3.423296,9.193233,26.378422,-1.285813,16.149460,-24.183800,2.935097,-5.482294,0.976630,-0.207974,0.035029,-0.041389
82,-0.434119,-3.612954,9.282356,19.901928,-8.785196,10.762322,-23.388336,2.961526,-5.002375,0.978212,-0.201323,0.034123,-0.037487
83,-0.351968,-3.706429,9.237190,19.158817,-19.756950,0.520944,-22.720201,2.597585,-4.642163,0.979533,-0.195863,0.030179,-0.035235
84,0.117240,-3.932251,9.010648,3.999309,-41.877880,-11.193229,-22.326372,1.580394,-4.412154,0.980362,-0.192921,0.020972,-0.035094
85,0.194642,-4.020236,8.914048,-3.139279,-42.581059,-9.361383,-22.309326,0.148471,-4.192714,0.980460,-0.193282,0.008347,-0.035639
86,0.616474,-4.249696,9.051416,-10.642996,-49.214455,-16.383741,-22.540909,-1.429042,-4.005013,0.979955,-0.195733,-0.005394,-0.036702
87,0.946151,-4.415681,8.994883,-18.715824,-46.450447,-23.607870,-23.030878,-3.156575,-4.001316,0.978710,-0.200377,-0.020005,-0.039690
88,0.815185,-3.959447,8.600171,-7.612284,-24.440294,-21.909153,-23.455105,-4.540924,-4.231568,0.977392,-0.204392,-0.031265,-0.044167
89,0.450867,-3.632805,8.844769,11.755535,6.577586,-14.038345,-23.350870,-5.051623,-4.665083,0.977185,-0.203760,-0.034894,-0.048729
90,0.441420,-3.765373,9.309323,9.562845,15.473229,-10.805245,-22.951063,-4.875907,-5.193130,0.977734,-0.200454,-0.032639,-0.052811
91,0.372751,-3.623305,9.190618,10.739975,18.799580,-2.056834,-22.578939,-4.432248,-5.613468,0.978371,-0.197242,-0.028296,-0.055545
92,0.404697,-3.336184,9.153653,24.910254,19.530582,7.820458,-21.974161,-3.804504,-5.767251,0.979569,-0.191881,-0.022962,-0.055677
93,1.014706,-3.485676,8.990462,4.366932,-15.412751,5.047041,-21.498058,-3.660811,-5.592631,0.980492,-0.187721,-0.022249,-0.053855
94,1.275552,-3.634476,8.696455,-10.176920,-26.261868,5.265174,-21.624168,-4.242992,-5.175579,0.980260,-0.188910,-0.027861,-0.051255
95,0.959260,-3.880357,8.649596,-20.883047,-4.903924,11.474435,-22.177065,-4.620438,-4.721099,0.979382,-0.193635,-0.031609,-0.048132
96,0.641993,-3.935622,8.907146,-16.036989,16.385599,15.752116,-22.818689,-4.269568,-4.372934,0.978564,-0.198929,-0.028946,-0.044735
97,0.301041,-4.130944,9.020350,-16.945658,31.313728,21.987225,-23.385412,-3.291522,-4.104681,0.978008,-0.203456,-0.020851,-0.040872
98,-0.121205,-4.140720,9.110439,-11.137444,42.850880,28.174664,-23.865198,-1.824185,-3.833282,0.977610,-0.207140,-0.008651,-0.036008
99,-0.301369,-3.992933,9.405069,3.970336,39.909924,26.688158,-23.989357,-0.193028,-3.555880,0.977684,-0.207772,0.004801,-0.030698
100,-0.050538,-3.601328,9.331586,20.216867,17.085421,14.715696,-23.584669,0.953979,-3.305863,0.978503,-0.204038,0.014041,-0.026535
101,0.163273,-3.492642,9.310749,21.842403,-1.965345,2.189287,-22.880880,1.296273,-3.144248,0.979761,-0.197958,0.016524,-0.024646
102,0.015573,-3.389907,9.276740,20.993692,-1.354969,-6.995524,-22.168266,1.214229,-3.195872,0.980966,-0.191875,0.015755,-0.025328
103,0.051171,-3.297586,8.979409,15.966768,-7.229398,-18.771511,-21.558762,0.921072,-3.541047,0.981900,-0.186688,0.013671,-0.028848
104,-0.009314,-3.459250,9.044483,2.830252,-8.210400,-21.188892,-21.251665,0.437924,-4.066664,0.982251,-0.184144,0.010296,-0.034168
105,-0.231052,-3.894782,9.215963,-14.673583,0.636205,-12.708520,-21.451359,0.114125,-4.546366,0.981763,-0.185922,0.008360,-0.038786
106,-0.348074,-4.163260,9.035521,-27.678167,5.852392,-5.343453,-22.158091,0.102105,-4.865282,0.980486,-0.191953,0.009030,-0.041483
107,-0.098616,-4.055190,9.029191,-19.374596,-4.859535,-3.696866,-22.942633,0.059060,-5.010360,0.979092,-0.198665,0.009197,-0.042734
108,-0.224151,-4.157466,9.347326,-13.109713,2.257451,4.531150,-23.483881,0.024449,-4.981037,0.978151,-0.203303,0.009052,-0.042501
109,-0.037421,-4.180346,8.903462,-16.958788,-2.207117,3.173289,-23.984875,0.076700,-4.863460,0.977300,-0.207568,0.009470,-0.041364
110,0.193875,-4.011159,8.831469,-8.656648,-10.706148,-3.498580,-24.411865,-0.121816,-4.780372,0.976534,-0.211285,0.007779,-0.040986
111,0.337760,-3.873942,9.091996,7.608673,-14.744441,-7.939537,-24.429440,-0.586822,-4.779029,0.976454,-0.211598,0.003820,-0.041831
112,0.491308,-4.092778,9.116621,1.716416,-17.241539,-11.362439,-24.272949,-1.205124,-4.852861,0.976626,-0.210476,-0.001372,-0.043597
113,0.522498,-4.175189,9.129670,-1.557187,-13.822505,-12.318925,-24.266464,-1.839364,-4.999602,0.976458,-0.210643,-0.006511,-0.046007
114,0.484380,-4.050200,9.302452,9.489696,-7.984414,-11.264944,-24.126768,-2.332007,-5.209149,0.976511,-0.209639,-0.010384,-0.048678
115,0.625599,-3.909472,8.998248,12.741922,-11.353998,-13.545044,-23.745302,-2.794190,-5.457014,0.976969,-0.206579,-0.014042,-0.051582
116,0.575570,-3.973234,8.834931,2.159560,-6.997059,-10.907677,-23.483686,-3.237629,-5.708254,0.977183,-0.204546,-0.017495,-0.054474
117,0.367284,-3.982403,9.027954,1.113894,4.512682,-4.262165,-23.416759,-3.376408,-5.923830,0.977152,-0.204062,-0.018328,-0.056545
118,0.469900,-3.903074,8.973476,3.378003,1.216268,-3.995291,-23.332449,-3.343374,-6.088366,0.977231,-0.203356,-0.017795,-0.057877
119,0.527670,-3.816849,8.844784,3.136626,-0.878499,-3.367572,-23.217079,-3.386656,-6.203495,0.977361,-0.202408,-0.018020,-0.058917
120,0.386457,-3.896846,9.027740,-0.160495,7.963449,2.181391,-23.163691,-3.285891,-6.268262,0.977457,-0.201920,-0.017073,-0.059286
121,0.399518,-3.933179,9.039028,-1.467529,7.062929,2.951976,-23.189783,-3.022001,-6.288268,0.977488,-0.202035,-0.014772,-0.059002
122,0.548512,-3.969715,8.880223,-5.393992,-2.932929,-1.311299,-23.304052,-2.947968,-6.290339,0.977308,-0.202979,-0.014078,-0.058905
123,0.514508,-4.035460,8.823967,-10.221383,-0.736611,-1.395443,-23.563416,-3.022024,-6.307544,0.976814,-0.205224,-0.014545,-0.059214
124,0.423059,-4.179255,8.916394,-13.908952,6.144956,0.559090,-23.963034,-2.945133,-6.356627,0.976092,-0.208602,-0.013594,-0.059544
125,0.460940,-4.250895,8.920140,-12.206500,4.759664,-0.979038,-24.394276,-2.782186,-6.437364,0.975309,-0.212213,-0.011832,-0.059984
126,0.452640,-4.227345,8.881374,-6.421953,4.329987,-1.602389,-24.699863,-2.662223,-6.539589,0.974723,-0.214770,-0.010460,-0.060663
127,0.343841,-4.141638,8.971024,4.057652,9.489236,0.750425,-24.734383,-2.458890,-6.648867,0.974660,-0.214982,-0.008506,-0.061219
128,0.355298,-4.021522,9.092779,15.179028,6.855641,-0.016975,-24.409662,-2.205982,-6.750942,0.975282,-0.212109,-0.006337,-0.061600
129,0.339166,-3.791429,9.053991,24.314257,4.627528,-0.302819,-23.748381,-2.033340,-6.833678,0.976491,-0.206400,-0.005071,-0.061960
130,0.317329,-3.590884,9.032884,21.595272,2.415187,0.120319,-22.981556,-1.926717,-6.882828,0.977850,-0.199812,-0.004490,-0.062160
131,0.284178,-3.557145,9.140173,16.928511,2.011208,1.485586,-22.339401,-1.848271,-6.886469,0.978972,-0.194291,-0.004161,-0.062033
132,0.315360,-3.516274,9.191856,14.097604,-0.394410,1.515022,-21.823475,-1.804438,-6.850274,0.979866,-0.189859,-0.004126,-0.061632
133,0.307906,-3.502774,9.060342,8.326365,-0.939955,3.467823,-21.452444,-1.794446,-6.764763,0.980524,-0.186677,-0.004379,-0.060871
134,0.429834,-3.499891,9.039290,4.881346,-7.929405,2.678537,-21.237123,-1.894752,-6.615480,0.980928,-0.184875,-0.005593,-0.059745
135,0.501438,-3.460410,8.996756,2.034192,-10.782691,2.405804,-21.128704,-2.154859,-6.423521,0.981139,-0.184055,-0.008186,-0.058509
136,0.517285,-3.330433,8.932632,1.969998,-7.259596,4.210555,-21.070387,-2.395659,-6.212150,0.981277,-0.183645,-0.010617,-0.057076
137,0.596181,-3.351832,8.918690,-4.929457,-8.846750,3.527220,-21.129105,-2.599670,-5.995010,0.981234,-0.184211,-0.012684,-0.055546
138,0.665612,-3.307866,9.043483,-6.438529,-9.657796,1.408635,-21.327583,-2.857255,-5.806350,0.980930,-0.185992,-0.015100,-0.054366
139,0.638562,-3.350410,9.142987,-9.476979,-6.070648,1.162001,-21.599941,-3.085491,-5.670370,0.980480,-0.188392,-0.017148,-0.053608
140,0.565005,-3.509833,9.214808,-14.351934,-1.064970,2.028777,-22.002199,-3.176100,-5.576573,0.979828,-0.191852,-0.017892,-0.053015
141,0.579756,-3.658318,9.227111,-16.405966,0.190889,1.442220,-22.518076,-3.167603,-5.517252,0.978984,-0.196249,-0.017682,-0.052574
142,0.462698,-3.824651,9.159822,-19.267403,5.493625,4.220428,-23.115341,-3.043632,-5.466893,0.978010,-0.201296,-0.016438,-0.052021
143,0.345352,-4.081987,9.161908,-23.481306,9.471269,7.665359,-23.831947,-2.735972,-5.384206,0.976862,-0.207287,-0.013638,-0.050867
144,0.349794,-4.250556,9.092009,-22.917950,7.015305,7.402915,-24.610434,-2.382429,-5.267630,0.975580,-0.213782,-0.010499,-0.049313
145,0.433605,-4.339717,8.992636,-18.938461,1.178831,4.822231,-25.313095,-2.172695,-5.140569,0.974358,-0.219676,-0.008656,-0.047897
146,0.414411,-4.383605,8.807419,-16.537214,-0.248869,3.983922,-25.909063,-2.095325,-5.015100,0.973273,-0.224705,-0.007995,-0.046725
147,0.369741,-4.266521,8.729214,-8.916991,0.408202,2.593660,-26.336815,-2.044691,-4.917836,0.972479,-0.228313,-0.007585,-0.045829
148,0.264456,-4.273874,8.781787,-7.081686,4.205271,2.518362,-26.604921,-1.937891,-4.875791,0.971984,-0.230550,-0.006656,-0.045277
149,0.203895,-4.354939,8.805339,-9.727102,5.975277,2.034019,-26.884762,-1.752196,-4.884316,0.971456,-0.232863,-0.004953,-0.044990
150,0.077353,-4.412559,8.766184,-11.715338,9.450221,3.228745,-27.241024,-1.483327,-4.923200,0.970768,-0.235793,-0.002455,-0.044784
151,0.026434,-4.532006,8.935567,-10.353330,9.338277,3.235210,-27.607708,-1.155756,-4.971756,0.970051,-0.238787,0.000563,-0.044522
152,0.095177,-4.825828,8.920027,-15.804572,4.320045,1.188744,-28.042923,-0.920023,-5.012781,0.969161,-0.242386,0.002813,-0.044370
153,0.243189,-4.904512,8.608987,-15.756698,-2.953390,-3.100455,-28.568302,-0.915114,-5.051903,0.968025,-0.246824,0.003142,-0.044676
154,0.167081,-4.848413,8.398043,-14.518399,-0.332444,-1.324981,-29.072206,-0.998638,-5.090451,0.966901,-0.251107,0.002718,-0.045170
155,0.135250,-4.848814,8.377462,-11.034643,2.219680,0.762774,-29.497686,-0.975795,-5.113905,0.965957,-0.254687,0.003131,-0.045307
156,0.178623,-4.851342,8.227868,-10.917428,0.448536,-0.760102,-29.863188,-0.937149,-5.135781,0.965137,-0.257752,0.003650,-0.045394
157,0.131891,-4.681055,8.174686,-6.264441,2.682275,-0.199178,-30.148903,-0.899946,-5.175787,0.964482,-0.260143,0.004167,-0.045637
158,0.066106,-4.668894,8.382536,-4.403471,5.637223,2.042606,-30.326078,-0.764655,-5.219016,0.964084,-0.261583,0.005475,-0.045686
159,0.100204,-4.735596,8.505499,-5.668986,3.873440,0.424833,-30.493433,-0.607134,-5.263721,0.963707,-0.262930,0.006969,-0.045693
160,0.162101,-4.805178,8.555468,-6.324839,0.696103,-2.303295,-30.692646,-0.557508,-5.329478,0.963230,-0.264582,0.007617,-0.046120
161,0.135087,-4.855601,8.609200,-5.675745,1.145967,-2.160084,-30.891848,-0.569210,-5.409163,0.962734,-0.266255,0.007784,-0.046803
162,0.096487,-4.881824,8.558794,-6.136641,2.156892,-1.069580,-31.087997,-0.549730,-5.483648,0.962250,-0.267890,0.008202,-0.047370
163,0.073337,-4.958666,8.466489,-9.781682,2.080876,-0.109271,-31.352823,-0.499522,-5.537042,0.961613,-0.270089,0.008859,-0.047680
164,0.049389,-5.083281,8.385127,-15.785144,2.012586,1.229107,-31.778774,-0.431653,-5.556859,0.960605,-0.273633,0.009652,-0.047651
165,0.019212,-5.121037,8.292845,-18.225897,2.139317,2.582020,-32.345734,-0.339338,-5.539770,0.959260,-0.278347,0.010619,-0.047236
166,0.058115,-5.213260,8.346908,-17.549877,-0.542624,2.460576,-32.942291,-0.271640,-5.483341,0.957830,-0.283316,0.011292,-0.046541
167,0.163092,-5.368738,8.394725,-16.613062,-5.888822,0.626992,-33.512203,-0.333168,-5.381656,0.956441,-0.288110,0.010754,-0.045790
168,0.246904,-5.457383,8.252090,-17.050911,-10.078197,-1.791836,-34.074329,-0.565183,-5.250008,0.955034,-0.292897,0.008708,-0.045232
169,0.268838,-5.591625,8.267864,-16.589880,-10.439322,-1.870121,-34.636826,-0.881929,-5.107600,0.953587,-0.297705,0.005924,-0.044825
170,0.245461,-5.834861,8.282226,-18.046183,-8.153406,0.428787,-35.216869,-1.149747,-4.949887,0.952078,-0.302626,0.003508,-0.044189
171,0.246132,-5.980885,8.082664,-19.241638,-6.572668,1.639689,-35.841961,-1.329451,-4.779009,0.950442,-0.307877,0.001799,-0.043234
172,0.209833,-6.033783,7.920897,-17.876219,-3.294892,2.725030,-36.464283,-1.419309,-4.623105,0.948795,-0.313064,0.000864,-0.042177
173,0.249089,-6.053118,7.961903,-10.727982,-2.615796,2.058826,-36.944057,-1.450601,-4.500130,0.947514,-0.317043,0.000441,-0.041243
174,0.280040,-6.015730,7.914055,-3.826939,-3.033088,1.217224,-37.189220,-1.492845,-4.399795,0.946860,-0.319082,-0.000099,-0.040530
175,0.362319,-5.988416,7.866320,1.241598,-5.881719,-1.474502,-37.234657,-1.613811,-4.313358,0.946738,-0.319490,-0.001324,-0.040152
177,0.360721,-5.948892,7.931752,7.085311,-4.217803,-1.789765,-37.097633,-1.780844,-4.255054,0.947102,-0.318402,-0.002915,-0.040131
178,0.406081,-5.952034,8.042480,10.201785,-4.653661,-3.635525,-36.810066,-1.953395,-4.238498,0.947863,-0.316069,-0.004489,-0.040461
179,0.404364,-5.842354,8.054364,14.038384,-2.762279,-4.676001,-36.404747,-2.135247,-4.276024,0.948916,-0.312763,-0.006036,-0.041250
180,0.352032,-5.707497,8.077081,16.910427,1.834577,-3.493431,-35.885124,-2.228086,-4.377003,0.950264,-0.308487,-0.006722,-0.042308
181,0.249874,-5.498475,8.073414,21.517498,7.505329,-0.578035,-35.239147,-2.140965,-4.523024,0.951956,-0.303110,-0.005850,-0.043253
182,0.238795,-5.283261,8.073915,25.623514,7.156103,-0.742068,-34.447918,-1.952988,-4.681049,0.954013,-0.296482,-0.004174,-0.044044
183,0.111878,-5.183557,8.150671,24.475801,11.575063,4.111998,-33.608932,-1.662798,-4.809177,0.956177,-0.289404,-0.001750,-0.044351
184,-0.002959,-5.297154,8.315989,14.648070,13.464786,10.265851,-32.956272,-1.182361,-4.838285,0.957899,-0.283799,0.002087,-0.043398
185,0.061871,-5.319716,8.442661,11.542651,4.900918,8.644176,-32.521606,-0.754286,-4.739291,0.959079,-0.280026,0.005264,-0.041533
186,0.110018,-5.190531,8.529032,16.622726,-2.394436,7.129460,-32.054688,-0.578419,-4.539195,0.960309,-0.276068,0.006086,-0.039454
187,0.076783,-5.249341,8.615930,8.663850,-4.466172,9.662873,-31.636272,-0.527870,-4.240810,0.961416,-0.272559,0.005656,-0.036853
188,0.236645,-5.182768,8.578186,6.977205,-12.177940,7.193769,-31.379452,-0.617276,-3.856314,0.962132,-0.270445,0.003916,-0.033848
189,0.408613,-4.894218,8.393975,12.179315,-18.977442,2.456470,-31.066051,-0.977860,-3.449418,0.962936,-0.267910,-0.000158,-0.031281
190,0.486976,-4.819314,8.423540,11.560789,-18.638121,0.512078,-30.678505,-1.490720,-3.085139,0.963853,-0.264753,-0.005420,-0.029398
191,0.503316,-4.926847,8.716787,14.416736,-13.799060,-2.147881,-30.253214,-1.970536,-2.834386,0.964803,-0.261245,-0.010141,-0.028357
192,0.632700,-4.810619,8.622704,18.509398,-10.936059,-8.744884,-29.706442,-2.418528,-2.785800,0.965953,-0.256707,-0.014163,-0.028899
193,0.550751,-4.751121,8.414536,11.897064,2.688758,-8.158801,-29.192009,-2.677020,-2.963820,0.966987,-0.252433,-0.016083,-0.030904
194,0.318749,-4.660021,8.496757,13.691822,18.347246,-5.354886,-28.749273,-2.479697,-3.331370,0.967901,-0.248707,-0.013737,-0.033521
195,0.099614,-4.632174,8.281354,6.889855,29.220470,-0.441379,-28.389112,-1.829761,-3.796090,0.968684,-0.245562,-0.007350,-0.036019
196,-0.053211,-4.702995,8.189455,-4.185138,31.768698,4.184995,-28.334167,-0.905958,-4.224756,0.968826,-0.244859,0.001361,-0.037671
197,-0.267294,-5.123818,8.210773,-25.556465,33.138489,10.319104,-28.828173,0.159207,-4.530734,0.967778,-0.248680,0.011184,-0.037938
198,-0.303290,-5.431373,8.215295,-35.416039,27.747953,9.926309,-29.847172,1.208319,-4.735253,0.965504,-0.256876,0.020818,-0.037202
199,-0.230752,-5.774467,8.064494,-46.067608,18.244507,4.303682,-31.210310,1.988552,-4.921477,0.962306,-0.268000,0.028245,-0.036682
200,-0.209221,-5.879509,8.079590,-40.711990,11.119491,-2.014041,-32.664982,2.423758,-5.149789,0.958730,-0.279952,0.032906,-0.037161
201,-0.135594,-5.857167,7.739611,-38.312202,4.154751,-10.265012,-33.995090,2.524207,-5.461710,0.955306,-0.290924,0.034965,-0.039120
202,-0.158916,-5.622653,7.585241,-26.281836,2.965987,-15.161278,-35.089134,2.382022,-5.879372,0.952344,-0.299969,0.035249,-0.042631
203,-0.206335,-5.458284,7.604001,-13.660248,3.847848,-17.022116,-35.774662,2.164226,-6.383039,0.950340,-0.305615,0.035041,-0.047182
204,-0.233315,-5.467800,7.733676,-5.165218,4.825395,-17.336826,-36.108116,1.945706,-6.932063,0.949207,-0.308327,0.034847,-0.052220
205,-0.273055,-5.602726,7.686033,-6.439368,7.007915,-18.171539,-36.320751,1.755544,-7.526472,0.948341,-0.310014,0.034979,-0.057593
206,-0.321980,-5.675951,7.649889,-5.470883,9.483305,-18.002504,-36.538425,1.618642,-8.174996,0.947400,-0.311698,0.035721,-0.063264
207,-0.219770,-5.691728,7.728539,0.877381,6.138167,-20.079273,-36.632889,1.449476,-8.840007,0.946743,-0.312380,0.036190,-0.069193
208,-0.265225,-5.810704,7.849820,3.848139,8.235617,-16.926853,-36.569107,1.274367,-9.478245,0.946494,-0.311772,0.036442,-0.074966
209,-0.240819,-5.903678,7.733472,0.868700,7.994451,-15.365884,-36.503311,1.171443,-10.071898,0.946256,-0.311114,0.037162,-0.080171
210,-0.186759,-5.902425,7.647086,0.372670,6.614281,-14.720558,-36.493359,1.068795,-10.619885,0.945871,-0.310932,0.037795,-0.084978
211,-0.251534,-5.932528,7.680444,0.868205,9.507692,-11.373626,-36.481949,1.026194,-11.129390,0.945507,-0.310702,0.038817,-0.089303
212,-0.350598,-5.985238,7.788065,1.765729,12.840651,-6.291125,-36.446918,1.150788,-11.587617,0.945261,-0.310148,0.041057,-0.092756
213,-0.239131,-6.015828,7.751719,-0.781709,7.400573,-7.575647,-36.438934,1.284921,-11.974018,0.944991,-0.309822,0.043202,-0.095581
214,-0.227631,-6.048083,7.801770,-1.579263,4.537572,-6.970714,-36.485226,1.300794,-12.287340,0.944604,-0.310070,0.044219,-0.098103
215,-0.261987,-5.924724,7.930279,4.898915,4.032187,-3.521518,-36.435001,1.311724,-12.512926,0.944547,-0.309558,0.044876,-0.099953
216,-0.183785,-5.792121,7.990073,12.188191,-1.640368,-2.989428,-36.152756,1.279739,-12.624014,0.945203,-0.307217,0.044663,-0.101066
217,-0.107670,-5.687628,7.979160,13.787086,-6.413754,-2.902771,-35.719814,1.113558,-12.624674,0.946322,-0.303800,0.042912,-0.101683
218,-0.150275,-5.573109,8.046686,17.714434,-4.671801,2.560410,-35.192902,0.959844,-12.522029,0.947767,-0.299626,0.040905,-0.101434
219,-0.215950,-5.316479,8.128765,28.601929,-1.785975,8.699524,-34.417271,0.978691,-12.306698,0.949966,-0.293262,0.039822,-0.099875
220,-0.191949,-5.292795,8.256637,22.754904,-4.583477,10.024669,-33.555630,1.065134,-11.988887,0.952435,-0.286141,0.038995,-0.097314
221,-0.084282,-5.275496,8.357362,21.316284,-10.145763,7.569614,-32.814293,1.020487,-11.609003,0.954577,-0.280138,0.037064,-0.094510
222,-0.192770,-5.109137,8.446105,25.990650,-5.945852,8.982386,-32.019585,0.942066,-11.231995,0.956790,-0.273695,0.034853,-0.091806
223,-0.171217,-5.039997,8.455132,23.867968,-4.928401,6.439115,-31.183449,0.922202,-10.918374,0.959007,-0.266815,0.033286,-0.089480
224,-0.148138,-5.106743,8.500774,15.569733,-3.886642,3.339609,-30.522821,0.879546,-10.703072,0.960690,-0.261378,0.031922,-0.087963
225,-0.115798,-5.014862,8.469936,12.499053,-3.309969,-0.002373,-30.053448,0.804006,-10.594484,0.961825,-0.257530,0.030683,-0.087352
226,-0.209322,-4.904554,8.608006,16.041828,3.240141,1.185276,-29.577551,0.812715,-10.576742,0.962901,-0.253531,0.030354,-0.087310
227,-0.143069,-4.924897,8.562862,8.459790,0.259553,-1.746447,-29.169727,0.858875,-10.613722,0.963775,-0.250056,0.030512,-0.087628
228,-0.174104,-4.796487,8.688768,13.582191,1.452749,-1.933940,-28.803364,0.854060,-10.681122,0.964517,-0.246960,0.030336,-0.088302
229,-0.334995,-4.709833,8.705409,14.184624,9.362204,3.225480,-28.341696,1.022655,-10.748460,0.965474,-0.242918,0.031543,-0.088632
230,-0.230825,-4.758884,8.763328,7.377548,0.784860,0.692366,-27.982828,1.202597,-10.771025,0.966234,-0.239740,0.032829,-0.088541
231,-0.352243,-4.931977,8.774302,-2.900636,1.314291,3.982177,-27.907084,1.270048,-10.718441,0.966439,-0.239062,0.033230,-0.087977
232,-0.345986,-5.052362,8.919298,-6.056337,-3.661453,6.018392,-28.052639,1.313753,-10.552913,0.966265,-0.240302,0.033362,-0.086447
233,-0.320537,-4.918339,8.824612,-1.367170,-9.430264,6.936455,-28.169931,1.223027,-10.259639,0.966228,-0.241446,0.032069,-0.084133
234,-0.051962,-4.946215,8.780385,-0.642518,-21.812321,0.491255,-28.197168,0.822393,-9.904614,0.966384,-0.242075,0.027962,-0.081982
235,-0.202400,-4.834766,8.599654,2.419736,-13.892927,3.519335,-28.164482,0.329408,-9.564710,0.966625,-0.242234,0.023064,-0.080168
236,-0.162698,-4.543441,8.492689,13.261156,-10.969255,2.554480,-27.902128,0.011160,-9.280744,0.967323,-0.240295,0.019599,-0.078491
237,-0.032831,-4.421779,8.307501,11.896276,-9.582033,-1.172397,-27.483276,-0.281679,-9.101466,0.968265,-0.236984,0.016467,-0.077653
238,0.090636,-4.694695,8.522583,-0.849233,-8.154140,-3.008882,-27.299803,-0.576297,-9.027299,0.968636,-0.235638,0.013699,-0.077656
239,-0.071987,-4.319359,8.619617,13.533095,5.643099,3.725342,-27.088764,-0.608027,-8.997283,0.969083,-0.233878,0.013227,-0.077492
240,-0.220375,-4.210090,9.097354,21.283091,11.065001,8.636527,-26.508913,-0.266617,-8.939199,0.970357,-0.228755,0.015610,-0.076386
241,-0.016905,-4.109671,9.155399,28.738901,2.058073,9.203691,-25.675573,0.060615,-8.768475,0.972159,-0.221502,0.017500,-0.074417
242,0.106348,-3.982381,9.315920,27.269825,-7.480428,8.947896,-24.741909,0.107863,-8.455640,0.974137,-0.213589,0.016711,-0.071810
243,-0.011152,-3.687021,9.233809,36.069611,-5.439567,11.951539,-23.685970,0.054624,-8.049089,0.976307,-0.204692,0.014869,-0.068592
244,0.306228,-3.752409,9.234658,30.259314,-18.916668,7.972702,-22.581057,-0.188297,-7.584571,0.978477,-0.195462,0.011341,-0.065180
245,0.696095,-3.741574,8.999376,21.478556,-34.488964,1.305354,-21.724083,-0.953981,-7.104534,0.980066,-0.188583,0.003515,-0.062413
246,0.598329,-3.785591,8.929019,12.087260,-25.491617,1.733170,-21.175520,-1.865518,-6.690213,0.980995,-0.184338,-0.005255,-0.060335
247,0.677380,-3.776604,8.933204,6.803118,-21.326302,1.291046,-20.873331,-2.575568,-6.362729,0.981466,-0.182050,-0.012018,-0.058630
248,0.504984,-3.848349,8.998086,-0.663627,-7.066881,6.050217,-20.784733,-2.974253,-6.079596,0.981632,-0.181427,-0.015928,-0.056817
249,0.389246,-3.805725,9.019144,-8.638015,2.574118,8.093809,-20.952274,-2.960097,-5.832219,0.981491,-0.182822,-0.016118,-0.054699
250,0.376855,-3.767727,9.180304,-4.638239,3.458696,5.786138,-21.182390,-2.782955,-5.652168,0.981259,-0.184699,-0.014781,-0.052908
251,0.237161,-3.561191,9.342375,10.427997,8.939115,4.672064,-21.089945,-2.527388,-5.563952,0.981518,-0.183799,-0.012776,-0.051736
252,-0.005984,-3.484694,9.447442,13.275640,14.570490,5.240524,-20.695406,-2.102533,-5.549080,0.982258,-0.180254,-0.009334,-0.050902
253,0.113830,-3.176823,9.594345,25.429445,8.557749,2.201941,-20.049694,-1.698055,-5.567068,0.983337,-0.174559,-0.006122,-0.050392
254,0.159690,-3.077787,9.686167,27.837122,4.299214,2.588519,-19.162046,-1.469450,-5.563086,0.984705,-0.166846,-0.004553,-0.049979
255,-0.114549,-2.983377,9.588786,26.040123,13.533372,5.803096,-18.265039,-1.142996,-5.525677,0.986051,-0.159001,-0.002186,-0.049170
256,0.325705,-2.899354,9.464749,25.293863,-7.652606,0.477791,-17.410805,-1.017626,-5.456724,0.987256,-0.151594,-0.001564,-0.048393
257,0.467551,-2.837323,9.476698,19.646780,-17.218813,-1.187451,-16.664330,-1.417323,-5.345209,0.988209,-0.145314,-0.005468,-0.047923
258,0.384139,-2.982945,9.399848,1.314593,-10.959793,1.400891,-16.318979,-1.866510,-5.207739,0.988619,-0.142496,-0.009659,-0.047274
259,0.494730,-3.065663,9.384454,-9.179646,-12.524004,0.459325,-16.455004,-2.233055,-5.067057,0.988429,-0.143789,-0.012942,-0.046527
260,0.728194,-3.113394,9.410492,-8.228016,-15.747029,-1.339911,-16.750351,-2.688667,-4.946118,0.987995,-0.146480,-0.016906,-0.046092
261,0.343303,-3.197056,9.433105,-17.435137,6.324008,3.708635,-17.182144,-2.827348,-4.862542,0.987433,-0.150236,-0.018037,-0.045614
262,0.453347,-3.264508,9.202329,-24.204920,2.360816,1.399454,-17.877844,-2.663572,-4.824122,0.986561,-0.156168,-0.016402,-0.045172
263,0.391137,-3.338176,9.037127,-23.259596,4.625306,-0.924163,-18.667553,-2.550462,-4.853445,0.985478,-0.162930,-0.015075,-0.045377
264,0.079231,-3.324117,8.817664,-25.482592,16.772003,0.199851,-19.474533,-2.217206,-4.981392,0.984336,-0.169768,-0.011702,-0.046092
265,-0.078653,-3.181409,8.819890,-18.136467,21.003475,2.612854,-20.195868,-1.608947,-5.150362,0.983308,-0.175758,-0.005932,-0.046689
266,-0.024593,-3.233374,8.897993,-17.006073,13.537327,2.390605,-20.778801,-1.040481,-5.273180,0.982448,-0.180550,-0.000626,-0.046881
267,-0.251574,-3.132398,9.082226,-7.029047,17.637363,5.492161,-21.178543,-0.508425,-5.336784,0.981856,-0.183769,0.004199,-0.046577
268,-0.043543,-3.053389,9.229695,2.761842,4.192061,4.691052,-21.249880,-0.107849,-5.309686,0.981792,-0.184224,0.007616,-0.045698
269,0.055611,-2.835585,9.401859,17.458097,-3.567736,5.604408,-20.913225,-0.036461,-5.153105,0.982396,-0.181321,0.007846,-0.044265
270,0.073400,-2.943462,9.387491,13.607478,-5.369510,6.781796,-20.395876,-0.103103,-4.907158,0.983293,-0.176925,0.006695,-0.042293
271,0.243609,-2.889956,9.215123,13.332891,-12.996196,4.834899,-19.947964,-0.323520,-4.619807,0.984063,-0.173172,0.004202,-0.040184
272,0.357296,-2.849283,9.025854,12.478563,-17.330912,3.152340,-19.520716,-0.754294,-4.323571,0.984761,-0.169648,-0.000088,-0.038290
273,0.531395,-2.907261,9.029991,9.524750,-21.433798,0.071235,-19.158962,-1.346086,-4.058710,0.985300,-0.166710,-0.005683,-0.036869
274,0.509718,-3.215371,9.167809,-1.676363,-18.317474,-1.375857,-19.034029,-1.979220,-3.862178,0.985433,-0.165796,-0.011453,-0.036083
275,0.532394,-3.144840,9.257589,5.525909,-12.396029,-2.448334,-18.974112,-2.483813,-3.755180,0.985445,-0.165398,-0.015967,-0.035879
276,0.445017,-3.337051,9.270913,-3.761989,-1.849286,-0.816310,-18.945938,-2.726098,-3.729762,0.985435,-0.165212,-0.018096,-0.036003
277,0.294445,-3.612224,9.377756,-10.547021,7.049876,2.409830,-19.184290,-2.635487,-3.732834,0.985110,-0.167240,-0.017238,-0.035936
278,0.132327,-3.604936,9.331177,-12.838321,17.016722,4.832327,-19.573236,-2.217060,-3.751961,0.984628,-0.170481,-0.013491,-0.035540
280,0.224378,-3.664917,9.170548,-15.885809,7.154640,2.326627,-20.051098,-1.797597,-3.776044,0.983985,-0.174480,-0.009704,-0.035168
281,0.308059,-3.816556,9.006730,-23.102818,-1.673718,-1.042680,-20.700529,-1.704562,-3.788240,0.982993,-0.180031,-0.008687,-0.035182
282,0.369478,-3.760382,9.151955,-9.760658,-4.302666,-3.651675,-21.247051,-1.825578,-3.826154,0.982089,-0.184751,-0.009495,-0.035742
283,0.387720,-3.604113,9.198074,5.519230,-2.992179,-6.085764,-21.314161,-1.997674,-3.933565,0.981913,-0.185381,-0.010775,-0.036945
284,0.410486,-3.535187,9.240381,10.820747,-1.986767,-7.093513,-21.035524,-2.154262,-4.108717,0.982270,-0.183053,-0.011928,-0.038668
285,0.296082,-3.446600,9.256778,11.923619,5.031061,-6.199396,-20.647942,-2.185624,-4.334050,0.982799,-0.179763,-0.011974,-0.040609
286,0.221818,-3.310258,9.217876,13.877823,8.401195,-5.499656,-20.208403,-2.043917,-4.595275,0.983417,-0.175974,-0.010513,-0.042589
287,0.139819,-3.259443,9.320745,12.779314,10.208766,-3.576218,-19.755844,-1.804098,-4.843644,0.984059,-0.172030,-0.008248,-0.044323
288,0.140272,-3.138344,9.294684,16.525429,10.366472,-2.814893,-19.261276,-1.516425,-5.058744,0.984762,-0.167694,-0.005651,-0.045717
289,0.256422,-3.168099,9.248419,7.840987,1.226480,-4.121350,-18.850861,-1.371464,-5.231081,0.985312,-0.164120,-0.004321,-0.046973
290,0.268981,-2.997462,9.368872,14.221291,-0.842758,-2.934468,-18.480320,-1.403100,-5.344395,0.985785,-0.160950,-0.004586,-0.047977
291,0.376793,-3.043290,9.394673,8.249813,-7.076919,-2.373602,-18.104694,-1.556089,-5.386949,0.986263,-0.157779,-0.006002,-0.048537
292,0.402575,-2.944679,9.243681,5.808943,-7.539466,-1.847895,-17.870583,-1.809465,-5.378411,0.986538,-0.155860,-0.008295,-0.048793
293,0.424355,-2.981698,9.266456,-0.315978,-5.796992,-0.634527,-17.779989,-2.033720,-5.349692,0.986627,-0.155163,-0.010304,-0.048840
294,0.277179,-2.778010,9.204505,9.247331,4.509256,3.180288,-17.632793,-2.041245,-5.302629,0.986844,-0.153894,-0.010494,-0.048431
295,0.254843,-3.014915,9.121386,-7.969099,5.735254,3.786255,-17.613447,-1.843391,-5.243753,0.986936,-0.153649,-0.008877,-0.047659
296,0.210401,-2.931916,9.078330,-4.187191,5.082644,3.563245,-17.817913,-1.634297,-5.182155,0.986725,-0.155328,-0.007075,-0.046864
297,0.313513,-2.929615,9.194071,-1.027420,-0.986918,5.460910,-17.908201,-1.523208,-5.059849,0.986672,-0.156057,-0.006248,-0.045666
298,0.187390,-3.087525,9.208900,-9.119087,4.491817,8.927549,-18.082731,-1.393616,-4.849759,0.986537,-0.157503,-0.005351,-0.043690
299,0.348718,-3.286906,9.214823,-16.779131,-4.415184,6.425068,-18.520010,-1.311952,-4.607162,0.986032,-0.161229,-0.004823,-0.041509
300,0.463560,-3.009054,9.122869,-5.108480,-10.103799,4.859636,-18.891184,-1.480712,-4.351679,0.985568,-0.164463,-0.006507,-0.039568
301,0.410892,-3.285299,9.241735,-17.632498,-6.512728,6.404280,-19.277691,-1.681277,-4.083918,0.985063,-0.167828,-0.008490,-0.037580
302,0.482860,-3.407880,9.003527,-25.952879,-8.749755,0.792653,-20.010191,-1.880278,-3.885061,0.983997,-0.174160,-0.010261,-0.036226
303,0.562384,-3.194886,8.700565,-20.042683,-10.473947,-1.138682,-20.780628,-2.182219,-3.778845,0.982776,-0.180840,-0.012775,-0.035857
304,0.587643,-3.340680,8.499763,-30.177393,-10.617658,-2.191112,-21.620726,-2.529983,-3.703662,0.981367,-0.188116,-0.015614,-0.035872
305,0.697178,-3.818884,8.095448,-58.390316,-13.686180,-5.962356,-23.098099,-2.956114,-3.674994,0.978759,-0.200848,-0.018841,-0.036567
306,0.699554,-3.733562,7.516157,-59.478500,-12.070758,-6.908846,-25.061010,-3.435091,-3.695317,0.975025,-0.217693,-0.022251,-0.037959
307,0.468382,-3.863981,7.386703,-61.624634,3.161576,-1.677148,-27.074884,-3.631034,-3.758526,0.970963,-0.234847,-0.023112,-0.039278
308,0.609590,-4.326379,7.246222,-76.950653,-3.002290,-4.184111,-29.378315,-3.674513,-3.843626,0.966002,-0.254342,-0.022496,-0.040548
309,0.520547,-4.458466,7.240818,-68.835243,3.144795,-4.496982,-31.798637,-3.746278,-3.970645,0.960343,-0.274726,-0.021932,-0.042249
310,0.372239,-4.662775,7.593122,-49.835979,11.400410,3.272231,-33.766277,-3.552895,-4.118451,0.955498,-0.291159,-0.019214,-0.043364
311,0.294727,-4.851672,7.976077,-31.004372,13.710863,1.930473,-35.103836,-3.158819,-4.281968,0.952106,-0.302227,-0.014999,-0.043912
312,0.219923,-5.358323,8.076280,-31.880554,12.434297,5.669564,-36.144001,-2.730412,-4.432347,0.949401,-0.310768,-0.010640,-0.044137
313,0.297555,-5.195580,8.086587,-10.441351,7.167179,0.358516,-36.844334,-2.408355,-4.545918,0.947535,-0.316488,-0.007392,-0.044255
314,0.204110,-5.573802,7.993590,-15.244824,7.796587,5.065584,-37.269226,-2.154621,-4.623998,0.946395,-0.319934,-0.004913,-0.044222
315,0.031683,-5.491923,7.940262,-8.021451,12.543764,5.954405,-37.654995,-1.773962,-4.684425,0.945386,-0.323011,-0.001452,-0.043668
316,0.166566,-5.962785,7.686775,-26.898411,5.375814,4.607569,-38.235691,-1.430111,-4.728949,0.943800,-0.327694,0.001729,-0.043061
317,0.295277,-5.730087,7.455155,-18.602385,-0.276515,-2.708690,-38.993355,-1.344170,-4.758010,0.941621,-0.333901,0.002805,-0.043038
318,0.033964,-6.210689,7.630480,-26.100456,9.185735,5.679950,-39.737095,-1.197838,-4.814361,0.939444,-0.339958,0.004452,-0.043048
319,0.247535,-6.257536,7.552764,-22.819309,1.011909,-1.734322,-40.551304,-1.025582,-4.873070,0.937019,-0.346567,0.006344,-0.042976
320,-0.033829,-6.336609,7.599539,-17.741428,9.583498,4.963073,-41.225983,-0.856833,-4.948602,0.934967,-0.352018,0.008206,-0.043036
321,0.201386,-6.326081,7.698376,-8.939973,1.155478,-3.816324,-41.669292,-0.709971,-5.052162,0.933588,-0.355575,0.009891,-0.043393
322,0.168442,-6.785310,7.774766,-18.532969,0.406454,-3.631036,-42.125652,-0.773385,-5.162242,0.932110,-0.359302,0.009893,-0.044447
323,0.107322,-6.838277,7.536753,-21.730881,2.567053,-3.205972,-42.795055,-0.813846,-5.279740,0.929941,-0.364745,0.010198,-0.045471
324,-0.289615,-6.915380,7.531297,-20.159431,15.994953,6.990993,-43.491257,-0.544960,-5.445166,0.927695,-0.370274,0.013186,-0.045879
325,0.336988,-7.187273,7.444970,-25.696865,-3.805048,-11.401699,-44.253990,-0.449342,-5.638081,0.925151,-0.376381,0.014897,-0.047034
326,-0.036754,-7.500357,7.211893,-36.232784,7.142715,-1.878693,-45.283958,-0.565840,-5.835928,0.921624,-0.384700,0.015046,-0.048881
327,-0.072090,-7.575283,7.584019,-19.175377,10.218796,0.036303,-46.205666,-0.385987,-6.063413,0.918440,-0.391995,0.017659,-0.049967
328,0.292029,-7.592843,7.674175,-7.901021,-0.833473,-10.727393,-46.655338,-0.406931,-6.299097,0.916785,-0.395568,0.018500,-0.051855
329,0.277144,-7.858787,7.815151,-5.063798,-0.281144,-9.988642,-46.869041,-0.671014,-6.522611,0.915881,-0.397356,0.017261,-0.054521
330,0.097312,-7.967737,7.584875,-7.657353,5.302040,-2.220948,-47.078564,-0.762631,-6.722688,0.915033,-0.399040,0.017325,-0.056406
331,0.077306,-7.723000,7.858325,11.282826,6.086289,0.332980,-47.016289,-0.656387,-6.882899,0.915198,-0.398469,0.018701,-0.057326
332,0.113583,-7.650894,7.259918,0.454911,2.726535,0.698126,-46.819698,-0.543285,-6.978307,0.915860,-0.396829,0.019837,-0.057730
333,0.008915,-7.682515,7.352687,1.412649,3.693420,4.490286,-46.788418,-0.407040,-6.997180,0.915992,-0.396512,0.020976,-0.057415
334,0.149715,-7.673589,7.142655,-2.464401,-2.337197,1.619267,-46.806309,-0.317336,-6.943947,0.915978,-0.396622,0.021518,-0.056676
335,0.255863,-7.574450,7.149652,1.207363,-7.093172,-2.287552,-46.827999,-0.433004,-6.836993,0.915929,-0.396869,0.020233,-0.056217
336,0.294721,-8.045102,7.007334,-16.189335,-6.955700,-2.237335,-47.078873,-0.647973,-6.717392,0.915064,-0.398991,0.018223,-0.055965
337,0.321726,-8.110942,7.190659,-17.127050,-4.940542,-2.853556,-47.635284,-0.844541,-6.628745,0.913108,-0.403530,0.016615,-0.055860
338,0.412018,-8.242868,7.995633,-4.080118,-4.828653,-4.865548,-47.989315,-1.049121,-6.594449,0.911819,-0.406442,0.015038,-0.056260
339,0.664139,-8.577895,8.484444,-9.970167,-8.356277,-11.062455,-48.223213,-1.393461,-6.608371,0.910880,-0.408446,0.012463,-0.057564
340,0.419153,-9.082552,9.228412,-12.709456,1.853271,-2.317677,-48.599464,-1.632168,-6.675325,0.909426,-0.411526,0.010997,-0.058908
341,0.424767,-9.015204,9.494907,-7.019549,4.040972,-1.486124,-48.925098,-1.615044,-6.790618,0.908198,-0.414090,0.011717,-0.059729
342,0.308023,-9.708153,9.090119,-29.604794,6.174742,4.073176,-49.532803,-1.471130,-6.891384,0.905984,-0.418828,0.013540,-0.059938
343,0.039313,-10.040517,8.047048,-48.314327,12.210394,16.537853,-50.831085,-1.011365,-6.906751,0.901316,-0.428864,0.017894,-0.058185
344,-0.121012,-9.756383,7.585809,-29.553919,15.781023,23.545065,-52.129330,-0.198631,-6.855061,0.896645,-0.438692,0.024715,-0.054466
345,-0.240158,-9.711334,6.379241,-38.750580,13.670807,25.355301,-53.267128,0.746780,-6.749793,0.892495,-0.447153,0.032205,-0.049705
346,-0.643904,-9.445653,5.924955,-22.418449,16.168806,35.626167,-54.282089,1.860194,-6.550959,0.888739,-0.454552,0.040483,-0.043446
347,-0.272657,-8.837141,5.901954,23.885628,1.678522,17.236385,-54.246735,2.748411,-6.275610,0.889036,-0.453925,0.046261,-0.037787
348,-0.111825,-8.438053,5.136341,24.355282,-3.551754,1.074126,-53.432869,2.975412,-6.067065,0.892308,-0.447567,0.046942,-0.035599
349,-0.632000,-7.745835,4.903685,36.014309,5.051542,17.570711,-52.417786,3.238051,-5.898495,0.896286,-0.439580,0.048029,-0.033682
350,-0.442163,-6.565744,4.965712,77.202721,-3.070615,8.077878,-50.516678,3.593039,-5.658764,0.903507,-0.424571,0.049371,-0.031260
351,0.289297,-6.040823,5.189603,92.237007,-27.278595,-29.073494,-47.685230,2.996895,-5.502631,0.913800,-0.402474,0.043287,-0.033331
352,-0.111850,-5.494884,4.797371,58.615463,-9.338012,-8.671239,-45.172829,2.119406,-5.485782,0.922426,-0.382754,0.035433,-0.037081
353,-0.437998,-4.678467,5.330846,83.874969,4.487934,8.049598,-42.797329,2.054399,-5.439915,0.930176,-0.363593,0.033984,-0.037643
354,-0.064304,-4.193166,5.052712,73.329231,-10.628405,-12.144117,-40.178143,1.933090,-5.427066,0.938248,-0.342297,0.032083,-0.038668
355,-0.167995,-4.215932,5.178014,48.987465,-5.119350,-7.869421,-38.143284,1.518065,-5.515186,0.944142,-0.325741,0.028224,-0.041142
356,-0.177510,-4.051920,4.819929,20.679468,-2.538792,-5.599475,-36.985012,1.279891,-5.615631,0.947341,-0.316261,0.026116,-0.042915
357,-0.095543,-3.816833,6.181219,78.015167,-9.192814,-10.178592,-35.342205,0.966718,-5.712362,0.951725,-0.302764,0.023153,-0.044919
358,-0.077720,-4.398968,6.453790,47.666046,-7.192698,-12.305753,-33.250210,0.530564,-5.868348,0.956999,-0.285503,0.019076,-0.047725
359,0.110777,-4.639354,7.562174,48.658443,-10.689299,-16.326729,-31.646530,0.022370,-6.110199,0.960743,-0.272273,0.014720,-0.051224
360,-0.166420,-4.751186,8.147385,41.161732,4.904724,-7.838547,-30.149216,-0.267266,-6.405667,0.964043,-0.259795,0.012282,-0.054554
361,-0.369445,-4.718549,8.802773,39.368725,13.225368,1.379689,-28.806976,-0.057419,-6.649801,0.966930,-0.248358,0.013942,-0.056299
362,-0.527207,-4.956332,8.308575,-0.181710,19.916124,6.690918,-28.154785,0.492549,-6.796121,0.968316,-0.242555,0.018579,-0.056448
363,-0.270043,-4.607100,8.757080,13.615612,6.529686,6.840141,-27.931175,0.987235,-6.806280,0.968817,-0.240408,0.022671,-0.055529
364,-0.448152,-4.826420,8.617590,-5.765418,10.760004,11.446692,-27.797758,1.384542,-6.670803,0.969175,-0.239102,0.025683,-0.053576
365,-0.180825,-4.985870,8.043557,-19.970024,-5.769497,4.059963,-28.221806,1.579550,-6.482249,0.968372,-0.242631,0.027129,-0.051472
366,-0.278860,-4.910707,7.957853,-15.760944,-3.147691,2.926780,-28.812927,1.504706,-6.309686,0.967184,-0.247701,0.026390,-0.050037
367,-0.207531,-4.824193,8.442282,0.680538,-7.257508,-0.083691,-29.061096,1.375909,-6.184219,0.966698,-0.249886,0.025139,-0.049204
368,-0.257567,-4.805932,8.444464,5.018181,-2.857299,0.684382,-28.964111,1.233202,-6.093926,0.966944,-0.249155,0.023697,-0.048775
369,-0.393157,-4.809324,8.192692,-1.503367,3.950841,3.689373,-28.904316,1.284382,-6.039008,0.967099,-0.248638,0.023984,-0.048212
370,-0.112921,-4.670274,8.797434,10.157064,-9.123748,-3.197532,-28.758991,1.212830,-5.990295,0.967432,-0.247454,0.023214,-0.047987
371,-0.312155,-4.960717,8.748465,-7.025872,1.418094,2.864831,-28.705708,1.097511,-5.933314,0.967568,-0.247069,0.022095,-0.047766
372,-0.173009,-4.737023,8.363294,-11.149451,-2.420439,0.427124,-29.007488,1.109431,-5.877089,0.966937,-0.249622,0.022199,-0.047207
373,-0.261040,-4.813820,8.136415,-20.031099,0.429335,3.599569,-29.525734,1.113314,-5.802413,0.965829,-0.254005,0.022279,-0.046468
374,-0.156741,-4.435273,7.874489,-12.264381,-5.054912,2.566580,-30.061493,1.097472,-5.674752,0.964682,-0.258550,0.022075,-0.045325
375,0.093750,-4.515830,7.429747,-24.883839,-15.878269,-3.224787,-30.677914,0.790776,-5.508025,0.963329,-0.263897,0.019357,-0.044512
376,0.414847,-3.958585,6.539664,-22.919580,-28.761190,-14.645856,-31.473850,0.000006,-5.379376,0.961457,-0.270922,0.012728,-0.045168
377,0.198611,-4.477290,6.684686,-42.243862,-12.431012,-4.359251,-32.560741,-0.749778,-5.285069,0.958776,-0.280323,0.006651,-0.046087
378,0.421374,-4.178470,6.279167,-33.606194,-16.381458,-12.360572,-33.825161,-1.303922,-5.252800,0.955531,-0.291087,0.002455,-0.047145
379,0.652503,-4.796690,6.567380,-49.898308,-18.734093,-19.859465,-35.213593,-2.089913,-5.364689,0.951694,-0.302915,-0.003210,-0.050109
380,0.330424,-5.279397,7.315802,-44.380436,3.496651,-8.789396,-36.775116,-2.575494,-5.601597,0.947225,-0.316029,-0.005891,-0.053438
381,-0.241109,-5.865431,8.150798,-33.628586,26.342196,9.031609,-38.063286,-2.177497,-5.898185,0.943597,-0.326524,-0.001165,-0.054815
383,0.386158,-5.453703,7.909851,-11.444018,4.330196,-12.560115,-38.802444,-1.813398,-6.259143,0.941404,-0.332459,0.003229,-0.056736
384,-0.212452,-5.988298,7.889873,-28.189833,22.335447,3.389637,-39.450298,-1.564328,-6.659410,0.939378,-0.337654,0.006773,-0.059268
385,-0.275108,-5.803597,7.641637,-19.307428,21.730759,6.757826,-40.235298,-0.892653,-6.999290,0.937045,-0.343744,0.013694,-0.059991
386,-0.148656,-5.769969,6.917706,-27.437443,12.766179,2.761174,-41.011749,-0.352965,-7.252667,0.934688,-0.349783,0.019277,-0.060318
387,0.145655,-5.747304,6.620411,-29.244471,-1.750635,-6.810025,-41.955387,-0.260460,-7.425668,0.931705,-0.357390,0.021065,-0.061276
388,-0.487856,-6.347878,6.343766,-54.645531,16.809580,17.229805,-43.353127,0.041547,-7.469186,0.927319,-0.368560,0.024395,-0.060395
389,0.392941,-6.594324,6.543365,-45.129509,-17.770344,-8.064574,-45.015694,0.135938,-7.346012,0.921958,-0.381953,0.025617,-0.058729
390,0.333681,-6.695065,6.579398,-32.903984,-15.641486,-4.954065,-46.316994,-0.409214,-7.104420,0.917561,-0.392721,0.021089,-0.058367
391,0.078996,-6.913414,6.573720,-31.305002,-5.348177,8.438287,-47.389507,-0.606350,-6.809628,0.913944,-0.401437,0.019030,-0.056506
392,0.360522,-7.101920,6.929688,-17.936214,-13.268736,1.860551,-48.213638,-0.687744,-6.463189,0.911179,-0.408091,0.017555,-0.053902
393,0.463691,-7.079944,6.944765,-9.548020,-16.288326,-0.376929,-48.677593,-0.996420,-6.078810,0.909618,-0.411956,0.013940,-0.051887
394,0.000335,-7.350168,7.117139,-6.879749,-0.848017,15.643729,-48.958099,-0.993238,-5.696578,0.908776,-0.414225,0.012711,-0.048810
395,-0.218218,-7.694952,7.021793,-14.217408,4.078009,23.921194,-49.314053,-0.459386,-5.305396,0.907763,-0.416904,0.015668,-0.043732
396,-0.275403,-7.901659,7.144752,-10.298841,2.893100,21.987898,-49.723370,0.198160,-4.897102,0.906527,-0.419978,0.019529,-0.038037
397,-0.353503,-8.313520,6.974628,-18.674086,2.280481,20.406384,-50.202915,0.794459,-4.508488,0.904951,-0.423637,0.022959,-0.032679
398,-0.354197,-8.973136,7.252345,-16.855612,-0.004656,13.945356,-50.789074,1.260562,-4.173942,0.902894,-0.428177,0.025547,-0.028181
399,-0.267442,-8.863423,6.837207,-13.601766,-3.236588,6.502125,-51.290600,1.491629,-3.917809,0.901080,-0.432108,0.026520,-0.025182
400,-0.100089,-9.146564,6.865366,-13.807208,-6.555384,-3.600272,-51.743492,1.427950,-3.760149,0.899397,-0.435722,0.025521,-0.024083
401,-0.254755,-9.028872,6.808782,-5.235325,-0.444973,-2.296610,-52.060272,1.278744,-3.729297,0.898191,-0.438258,0.024300,-0.024342
402,0.107995,-9.004084,6.680705,-4.861414,-5.266137,-17.868196,-52.231133,0.955048,-3.860385,0.897491,-0.439666,0.022305,-0.026576
403,-0.099410,-8.506362,6.557086,3.123390,5.293920,-13.125465,-52.264236,0.546985,-4.177232,0.897251,-0.439989,0.020334,-0.030618
404,0.094469,-8.428869,7.030865,15.794875,4.926394,-17.457067,-51.952450,0.249555,-4.624922,0.898280,-0.437561,0.019629,-0.035320
405,0.081606,-8.474467,6.985428,12.268445,6.768926,-14.152271,-51.485538,-0.042862,-5.104476,0.899852,-0.433916,0.019004,-0.040273
406,0.123930,-8.483653,7.190349,15.432555,6.469634,-12.329421,-51.022850,-0.249094,-5.552829,0.901393,-0.430279,0.018903,-0.044651
407,-0.058614,-8.630222,7.301856,9.599607,8.993670,-1.110219,-50.604164,-0.259718,-5.894197,0.902819,-0.426930,0.019927,-0.047449
408,0.476167,-8.504910,8.027654,21.678272,-6.756392,-15.027075,-50.081894,-0.442967,-6.094853,0.904631,-0.422850,0.019004,-0.049799
409,0.123903,-8.955919,8.375628,7.658661,0.170819,-5.701565,-49.591137,-0.777467,-6.233170,0.906292,-0.419087,0.016650,-0.052196
410,0.275665,-8.653096,9.120572,23.709972,-1.080729,-9.627135,-49.066063,-0.981231,-6.388255,0.908077,-0.414992,0.015357,-0.054237
411,0.533568,-8.820324,9.353271,23.454906,-3.873797,-12.277939,-48.276405,-1.309779,-6.567459,0.910736,-0.408838,0.013010,-0.056935
412,0.156546,-8.964608,9.491128,24.541080,7.680619,3.460787,-47.473049,-1.376190,-6.712888,0.913487,-0.402456,0.012591,-0.058417
413,-0.199873,-9.011644,8.499664,6.295958,15.098663,22.363056,-46.959557,-0.802326,-6.700315,0.915448,-0.398110,0.016872,-0.056383
414,-0.007710,-9.460585,7.653812,-22.446791,3.236027,25.598629,-47.231297,-0.008517,-6.381437,0.914831,-0.399982,0.022229,-0.051028
415,-0.347887,-9.290161,6.490540,-30.963028,5.407883,37.696598,-48.117645,0.868771,-5.779454,0.912096,-0.406795,0.027466,-0.042946
416,-0.713479,-9.350366,5.183947,-61.689514,6.897401,49.955643,-49.640636,2.103793,-4.973034,0.906956,-0.418585,0.034855,-0.031671
417,-0.464325,-8.845779,4.604180,-56.727726,-1.736156,35.565517,-51.574318,3.260311,-4.136105,0.899912,-0.433646,0.041290,-0.020112
418,-0.341294,-8.957873,4.970109,-31.486450,-8.592465,22.745127,-52.999050,3.923495,-3.406295,0.894472,-0.444821,0.043876,-0.011316
419,-0.697762,-8.007072,4.804529,14.661767,-0.222108,26.379093,-53.235271,4.489021,-2.796161,0.893493,-0.446703,0.045926,-0.004254
420,-0.250143,-7.657479,4.793640,28.944342,-15.746398,-1.355919,-52.470715,4.658757,-2.328668,0.896425,-0.440862,0.045425,-0.000248
421,0.096040,-6.278584,5.541049,91.662018,-29.995089,-20.847544,-50.434422,3.893657,-1.960279,0.904292,-0.425217,0.038014,-0.000995
422,-0.293671,-5.917718,5.502287,79.249290,-17.933146,-4.330694,-47.568390,3.051672,-1.632381,0.914807,-0.402762,0.030107,-0.002293
423,-0.280692,-5.122967,4.922379,65.104958,-14.883841,-5.438973,-45.149715,2.557531,-1.352258,0.923186,-0.383525,0.025134,-0.002327
424,-0.020330,-4.502735,5.066885,69.145523,-24.512999,-18.209471,-42.906681,1.811653,-1.178980,0.930610,-0.365527,0.018475,-0.003793
425,-0.006593,-4.177962,5.562847,77.119751,-20.712337,-17.092165,-40.468925,0.857469,-1.114751,0.938240,-0.345768,0.010385,-0.006539
426,0.130177,-5.105076,5.941289,32.665630,-19.760242,-21.309753,-38.640724,-0.070008,-1.179847,0.943631,-0.330838,0.002830,-0.009918
427,0.165751,-4.791187,6.148105,50.212875,-13.013610,-21.693155,-37.257969,-0.942047,-1.405818,0.947471,-0.319499,-0.003871,-0.014250
428,0.039007,-4.647354,7.072736,77.409081,-0.292730,-16.123659,-35.123833,-1.493120,-1.785124,0.953134,-0.301868,-0.007721,-0.018781
429,-0.081406,-4.712297,8.285849,89.604630,11.177984,-14.141722,-32.327946,-1.621765,-2.308432,0.960099,-0.278577,-0.007983,-0.023284
430,-0.497805,-4.845821,8.997280,86.565193,27.583775,-3.981478,-29.379576,-1.222683,-2.901028,0.966879,-0.253751,-0.003899,-0.027190
431,-0.831483,-4.575096,9.267388,82.389862,38.619423,-1.465142,-26.558607,-0.291322,-3.502432,0.972786,-0.229666,0.004546,-0.030326
432,-0.533064,-4.044555,9.480999,84.364731,19.237778,-4.990345,-23.782726,0.534287,-4.012032,0.977963,-0.205768,0.011772,-0.033293
433,-0.455210,-4.349658,9.288994,46.491669,7.666108,-1.952983,-21.606279,0.904000,-4.287608,0.981614,-0.187008,0.014755,-0.035266
434,-0.147398,-4.038584,8.499984,19.166193,-9.419448,3.836206,-20.511673,0.888330,-4.247298,0.983368,-0.177633,0.014220,-0.035084
435,0.219984,-3.522262,8.366989,13.390593,-26.053473,6.970541,-19.964920,0.396927,-3.872641,0.984313,-0.173131,0.009267,-0.032677
436,0.668402,-2.866610,8.400949,25.027136,-43.501926,7.439894,-19.325909,-0.613533,-3.255983,0.985375,-0.167932,-0.000507,-0.028905
437,0.659360,-3.048326,8.723915,4.826972,-33.027897,4.490047,-18.841185,-1.753963,-2.651146,0.986076,-0.163967,-0.011309,-0.025323
438,0.677480,-2.058007,9.100311,45.745697,-19.658615,-0.725323,-18.011259,-2.566453,-2.312520,0.987153,-0.156907,-0.018956,-0.023430
439,0.539907,-1.731502,9.067531,57.035366,-2.107355,-6.619470,-16.298176,-2.950602,-2.325631,0.989297,-0.142190,-0.022605,-0.023731
440,0.205996,-1.665694,8.886229,52.718544,17.464230,-8.533125,-14.454086,-2.772060,-2.639539,0.991432,-0.126284,-0.021093,-0.025885
441,-0.248430,-1.579311,8.917548,51.789043,37.500355,-5.966170,-12.694493,-1.939479,-3.092220,0.993316,-0.110952,-0.013832,-0.028683
442,-0.299148,-1.665736,9.082038,42.728615,33.607166,-5.870344,-11.109615,-0.821140,-3.532244,0.994784,-0.096969,-0.004145,-0.031368
443,-0.389841,-2.279120,9.072424,7.076501,27.800177,-5.868142,-10.277484,0.147817,-3.914600,0.995403,-0.089472,0.004343,-0.033902
444,-0.578334,-2.365337,9.700397,2.628825,25.538019,-2.329680,-10.118601,0.997561,-4.208622,0.995423,-0.087806,0.011903,-0.035807
445,-0.218072,-2.666895,9.932614,-14.783651,3.054780,-4.209540,-10.325492,1.447125,-4.400739,0.995173,-0.089429,0.016022,-0.037100
446,-0.257298,-2.769410,9.807301,-28.203484,0.386280,-3.049966,-11.045015,1.480765,-4.531202,0.994547,-0.095645,0.016656,-0.038103
447,-0.114242,-2.711933,9.729146,-30.038584,-6.918153,-2.923887,-12.017521,1.353985,-4.607166,0.993683,-0.104116,0.015948,-0.038735
448,-0.140702,-2.323330,9.583398,-15.827053,-5.534456,-0.657083,-12.782144,1.138355,-4.621376,0.992973,-0.110820,0.014352,-0.038961
449,0.311732,-2.500118,9.358124,-25.285408,-23.181421,-3.394084,-13.466627,0.656853,-4.578574,0.992321,-0.116925,0.010371,-0.038997
450,-0.054333,-2.331044,9.271194,-16.400852,-4.226458,0.984563,-14.160838,0.203672,-4.509062,0.991613,-0.123097,0.006611,-0.038820
451,0.412973,-2.247174,9.303699,-7.633699,-20.586220,-2.285741,-14.561308,-0.202343,-4.426812,0.991187,-0.126703,0.003144,-0.038534
452,0.102232,-2.326678,9.470926,-6.791583,-3.495218,1.649265,-14.802429,-0.593353,-4.336092,0.990920,-0.128917,-0.000258,-0.038181
453,0.438321,-2.607348,9.423212,-16.463882,-14.690587,-2.066745,-15.190843,-0.887918,-4.264095,0.990472,-0.132367,-0.002758,-0.037899
454,-0.054835,-2.364092,9.425507,-3.394122,8.276478,2.264064,-15.522391,-0.990058,-4.232735,0.990084,-0.135264,-0.003568,-0.037755
455,0.219973,-2.681223,9.407735,-15.680476,-2.885458,1.918212,-15.840968,-0.884695,-4.189442,0.989730,-0.137982,-0.002605,-0.037265
456,0.059662,-2.613002,9.179688,-13.802597,3.346936,1.211053,-16.333126,-0.862878,-4.141801,0.989146,-0.142224,-0.002316,-0.036838
457,-0.093641,-2.650316,9.036850,-14.992239,9.594641,5.440686,-16.813593,-0.624448,-4.096858,0.988580,-0.146297,-0.000162,-0.036156
458,0.479086,-2.936738,8.815339,-27.195263,-17.623705,-0.509352,-17.518110,-0.728119,-3.978600,0.987688,-0.152403,-0.000990,-0.035274
459,0.674591,-3.223068,8.301876,-44.218021,-24.037228,-6.447040,-18.710426,-1.424067,-3.874231,0.985991,-0.162864,-0.006760,-0.035369
460,-0.050124,-3.101719,8.347249,-34.664131,14.027622,4.914613,-20.025969,-1.589425,-3.842833,0.984039,-0.174215,-0.007822,-0.035425
461,0.073479,-3.284662,8.428004,-35.204556,7.856966,0.119023,-21.189102,-1.218310,-3.889020,0.982265,-0.184096,-0.004206,-0.035305
462,0.792102,-3.322643,8.100953,-37.697227,-26.946003,-17.652050,-22.400080,-1.621974,-4.042905,0.980149,-0.194584,-0.007025,-0.037346
463,-0.199454,-3.437749,8.418348,-34.003616,21.061747,0.211868,-23.587587,-1.825524,-4.275609,0.977963,-0.204804,-0.007959,-0.039765
464,-0.423464,-3.262379,8.631984,-17.022421,28.749077,7.133760,-24.433332,-1.017133,-4.497231,0.976490,-0.211778,-0.000366,-0.040222
465,0.394355,-3.897016,8.440074,-41.176113,-11.767295,-10.760355,-25.400835,-0.785841,-4.669684,0.974639,-0.219938,0.002272,-0.041248
466,0.162137,-3.984022,8.110948,-43.338909,-1.533979,-2.588830,-26.806986,-1.083191,-4.775454,0.971783,-0.231979,0.000470,-0.042714
467,-0.270684,-4.387974,8.164167,-48.440472,18.335396,10.652089,-28.336258,-0.773110,-4.784569,0.968646,-0.244822,0.003681,-0.042120
468,0.019575,-4.620391,7.797503,-53.160370,3.176055,4.782364,-30.029818,-0.334997,-4.732274,0.965000,-0.258965,0.007875,-0.040632
469,0.394708,-5.398600,7.860230,-66.002441,-14.228367,-6.156254,-32.015984,-0.504930,-4.659104,0.960370,-0.275713,0.006977,-0.040285
470,0.057092,-5.369217,7.723290,-46.151272,1.398012,4.115678,-33.885571,-0.702756,-4.574167,0.955745,-0.291413,0.005767,-0.039959
471,-0.144183,-5.537169,7.756061,-30.940662,11.349665,9.058565,-35.170631,-0.403425,-4.511455,0.952482,-0.302022,0.008538,-0.038583
472,-0.060444,-5.859647,8.033077,-19.547894,7.257230,4.965752,-36.011963,-0.015142,-4.500513,0.950289,-0.308883,0.012012,-0.037382
473,-0.054190,-5.461992,7.691362,-1.546993,5.238389,-1.115563,-36.363609,0.190872,-4.571712,0.949335,-0.311721,0.014027,-0.037374
474,-0.536267,-5.349864,7.600051,1.466914,22.729742,10.969226,-36.365932,0.663791,-4.715716,0.949319,-0.311557,0.018337,-0.037280
475,-0.329522,-5.244616,7.488357,-3.162642,12.313976,0.025301,-36.397701,1.242715,-4.914551,0.949194,-0.311569,0.023682,-0.037344
476,-0.134530,-5.495176,7.692272,-17.481926,0.722063,-8.911287,-36.747032,1.328894,-5.163229,0.948160,-0.314374,0.025191,-0.039092
477,-0.231697,-5.394357,7.493373,-23.405300,3.494683,-7.475922,-37.433998,1.219989,-5.423985,0.946162,-0.320039,0.025254,-0.041398
478,-0.236218,-5.832164,7.965477,-29.570763,5.133379,-5.715620,-38.322472,1.198420,-5.685655,0.943555,-0.327316,0.026144,-0.043418
480,-0.087539,-6.028755,7.887655,-29.887949,1.187148,-7.930944,-39.318378,1.137780,-5.928760,0.940577,-0.335474,0.026735,-0.045362
481,0.198083,-6.083833,7.783670,-23.690029,-7.583422,-13.186328,-40.214680,0.830667,-6.131432,0.937815,-0.342915,0.025183,-0.047732
482,0.131982,-6.339723,7.515552,-28.512770,-3.449644,-8.309610,-41.086185,0.457774,-6.284245,0.935070,-0.350176,0.022969,-0.049927
483,0.204146,-6.500002,7.531695,-23.158361,-3.226858,-7.520904,-41.948063,0.199479,-6.407501,0.932317,-0.357294,0.021627,-0.051562
484,0.239346,-6.557718,7.029612,-27.529438,-4.618927,-6.612010,-42.792915,-0.055831,-6.493452,0.929574,-0.364259,0.020209,-0.052910
485,0.284813,-6.748839,7.424202,-17.025114,-4.754982,-7.518819,-43.535194,-0.331005,-6.558298,0.927110,-0.370387,0.018534,-0.054191
486,-0.115339,-6.957498,7.387423,-17.330566,9.566277,5.669638,-44.107349,-0.294409,-6.636304,0.925220,-0.374982,0.019355,-0.054608
487,-0.217374,-7.251669,7.710529,-11.056876,11.858363,8.546942,-44.580456,0.126580,-6.715625,0.923710,-0.378587,0.023236,-0.053776
488,-0.246415,-7.249088,7.641913,-5.395544,8.701784,7.384897,-44.855003,0.556917,-6.767733,0.922850,-0.380579,0.027003,-0.052709
489,-0.353780,-7.581351,8.160829,2.869460,8.267923,7.674842,-44.897411,0.934423,-6.789310,0.922754,-0.380727,0.030133,-0.051616
490,-0.307368,-7.455494,7.785289,2.993845,4.569105,4.660856,-44.799793,1.231108,-6.794209,0.923111,-0.379789,0.032494,-0.050695
491,-0.364534,-7.775357,8.140239,4.003135,3.655711,2.605853,-44.683434,1.413730,-6.804644,0.923511,-0.378754,0.033948,-0.050206
492,0.050727,-7.513780,7.927126,8.457073,-8.144528,-9.767886,-44.476501,1.276651,-6.837130,0.924165,-0.377147,0.032860,-0.050982
493,0.050532,-7.546349,7.845739,5.059783,-6.620653,-9.630630,-44.252300,0.874665,-6.895994,0.924826,-0.375529,0.029710,-0.052842
494,0.031693,-7.240288,7.590424,7.146910,-3.325408,-5.929874,-44.049782,0.575055,-6.966532,0.925411,-0.374029,0.027428,-0.054444
495,-0.008397,-7.339795,7.583301,1.813039,-1.925924,-1.326301,-43.900696,0.428117,-6.992910,0.925860,-0.372893,0.026256,-0.055171
496,0.077637,-7.287528,7.413747,-1.257974,-5.844522,-0.734802,-43.891010,0.310991,-6.927858,0.925903,-0.372888,0.025093,-0.055029
497,0.002108,-7.945907,7.402463,-20.007946,-5.207352,2.603866,-44.244747,0.200325,-6.777334,0.924799,-0.375831,0.023876,-0.054100
498,0.373737,-7.877573,7.844422,-11.150706,-16.792459,-7.607242,-44.763874,-0.119468,-6.579576,0.923119,-0.380206,0.020889,-0.053459
499,0.426252,-7.868700,9.072188,4.676325,-17.152042,-8.854959,-44.873459,-0.714309,-6.376217,0.922721,-0.381385,0.015473,-0.053779
500,0.351026,-8.131047,9.835662,2.362833,-10.422728,-4.702938,-44.758904,-1.199804,-6.213259,0.923057,-0.380683,0.010965,-0.054090
501,0.432851,-8.403698,10.847352,12.319478,-6.936133,-5.414425,-44.516140,-1.524129,-6.129929,0.923812,-0.378862,0.007959,-0.054510
502,-0.080448,-7.962354,10.889548,27.036329,6.267030,9.092535,-43.861645,-1.489508,-6.078455,0.925995,-0.373569,0.007760,-0.054027
503,-0.374052,-8.438179,10.056274,-0.355428,12.921972,24.195208,-43.420628,-0.875193,-5.898548,0.927663,-0.369778,0.011946,-0.050622
504,-0.354710,-8.888051,9.148966,-10.627499,11.299400,29.518877,-43.606464,0.034478,-5.528994,0.927390,-0.370974,0.018193,-0.044669
505,-0.313885,-8.853339,8.025459,-10.813453,3.189846,28.846653,-43.959789,0.882037,-4.994473,0.926533,-0.373604,0.023438,-0.037525
506,-0.607278,-8.887198,6.203400,-52.662308,6.940669,39.192272,-45.002052,1.796810,-4.303783,0.923333,-0.381839,0.028844,-0.028690
507,-0.172842,-8.538484,5.425155,-57.098015,-7.638759,19.162846,-46.805180,2.488642,-3.620447,0.917335,-0.396268,0.032463,-0.020363
508,-0.520832,-8.352470,5.297423,-36.780998,2.950087,23.350723,-48.345070,2.959374,-3.087859,0.911966,-0.408566,0.034579,-0.014003
509,-0.397473,-7.944341,4.664385,-42.493809,-1.401497,12.494735,-49.644638,3.426843,-2.712994,0.907251,-0.418858,0.037064,-0.008928
510,-0.449585,-7.217015,4.766701,-13.718657,-0.027208,7.200566,-50.567425,3.663891,-2.485060,0.903825,-0.426155,0.038156,-0.005947
511,-0.262139,-6.141552,5.274788,58.345486,-9.049351,-6.552676,-49.815834,3.575158,-2.361422,0.906623,-0.420284,0.036961,-0.005545
512,-0.397020,-5.739799,5.751245,85.998817,-5.594585,-1.391764,-47.404987,3.313768,-2.265317,0.915313,-0.401218,0.034413,-0.006471
513,-0.222901,-4.959117,5.977079,106.754341,-12.356963,-11.927609,-44.191208,2.946319,-2.207172,0.926266,-0.375500,0.031058,-0.008171
514,-0.419492,-4.380802,5.983973,108.432869,-3.230332,-5.661086,-40.610210,2.556504,-2.246205,0.937596,-0.346456,0.027718,-0.010638
515,-0.462949,-4.255598,6.084355,85.573593,2.856682,-2.800328,-37.384956,2.462799,-2.354810,0.946975,-0.319929,0.026936,-0.012574
516,-0.366964,-4.211525,5.880297,43.344215,-0.181820,-7.512876,-35.245010,2.396505,-2.521153,0.952772,-0.302166,0.026584,-0.014633
517,-0.308916,-4.326741,5.550357,5.443109,-2.027135,-13.528265,-34.442661,2.165141,-2.787088,0.954851,-0.295484,0.025240,-0.017633
518,-0.549474,-4.079731,5.717977,11.773667,8.358210,-3.755767,-34.166710,2.088983,-3.083792,0.955518,-0.293139,0.025321,-0.020363
519,-0.393140,-4.276167,6.571415,24.549164,-2.340637,-8.431930,-33.569775,2.059242,-3.308816,0.956992,-0.288116,0.025533,-0.022449
520,-0.177845,-4.263972,6.849195,27.263590,-12.308021,-17.399347,-32.713345,1.619766,-3.535444,0.959098,-0.281035,0.022242,-0.025618
521,-0.370703,-4.559808,7.503847,26.215385,-2.063749,-9.429146,-31.828043,1.178446,-3.784932,0.961192,-0.273704,0.018939,-0.028938
522,-0.173199,-4.489842,8.716991,49.352024,-7.526688,-11.883191,-30.572844,0.857828,-4.006769,0.964072,-0.263223,0.016433,-0.031748
523,0.116245,-4.923306,9.088495,41.856556,-12.264618,-16.099937,-29.055368,0.340302,-4.247370,0.967385,-0.250568,0.012168,-0.035127
524,-0.091883,-4.795858,8.467209,29.511429,0.944068,-9.969283,-27.866848,-0.032841,-4.538406,0.969812,-0.240616,0.009256,-0.038499
525,-0.092378,-4.914441,8.672934,20.655066,3.781405,-5.313190,-27.030903,-0.080680,-4.801644,0.971446,-0.233531,0.009106,-0.040894
526,0.110035,-4.507158,8.830381,28.655180,-2.543798,-6.356089,-26.208824,-0.149371,-4.985000,0.973023,-0.226567,0.008592,-0.042651
527,-0.114449,-4.374547,8.463648,17.447851,8.114511,1.221845,-25.440134,-0.102857,-5.102131,0.974482,-0.220009,0.008926,-0.043615
528,-0.029714,-4.018300,8.533162,18.411396,4.373664,0.407721,-24.842621,0.097124,-5.166728,0.975608,-0.214843,0.010522,-0.043836
529,-0.078324,-3.954778,9.036796,24.275354,5.226384,2.754397,-24.131252,0.264613,-5.184907,0.976927,-0.208715,0.011711,-0.043750
530,-0.149808,-3.670783,9.069661,32.180367,6.740625,4.636168,-23.190178,0.496814,-5.152146,0.978633,-0.200598,0.013276,-0.043158
531,-0.132709,-3.785516,8.923588,12.895164,4.051984,2.440566,-22.438589,0.708391,-5.113189,0.979948,-0.194097,0.014736,-0.042551
532,-0.205441,-3.694902,8.932541,7.085824,4.511176,4.301498,-22.104883,0.883047,-5.063406,0.980530,-0.191180,0.016024,-0.041876
533,-0.275218,-3.798113,8.943204,-1.784217,4.394964,6.259327,-22.014692,1.086780,-4.956111,0.980719,-0.190345,0.017556,-0.040630
534,-0.072028,-3.916498,8.865828,-16.852985,-8.162308,2.686848,-22.322271,1.084974,-4.794446,0.980261,-0.193002,0.017377,-0.039203
535,0.200458,-3.969423,8.739066,-21.200178,-23.243727,-4.550643,-22.954109,0.590069,-4.621921,0.979236,-0.198608,0.013065,-0.038492
536,0.191888,-3.972332,8.746147,-17.056480,-17.888872,-3.322673,-23.591274,-0.091404,-4.472229,0.978131,-0.204296,0.007196,-0.038357
537,0.229417,-3.981676,8.806137,-9.138769,-10.467179,-1.171714,-24.028513,-0.553992,-4.349931,0.977342,-0.208182,0.003174,-0.038125
538,0.317788,-3.738848,8.585811,-1.566208,-10.703227,-2.285392,-24.208055,-0.899605,-4.258360,0.977002,-0.209821,0.000120,-0.037971
539,0.069908,-3.601533,8.121999,-6.161222,1.778933,1.436636,-24.337688,-1.041047,-4.210305,0.976760,-0.210969,-0.001132,-0.037820
540,-0.065829,-3.790908,7.717862,-30.416231,7.675382,6.507633,-24.948177,-0.842588,-4.155486,0.975668,-0.216111,0.000656,-0.036986
541,-0.007459,-4.126579,7.467371,-52.551430,2.811534,3.452489,-26.331802,-0.613209,-4.081481,0.973040,-0.227809,0.002904,-0.035892
542,-0.028069,-4.233746,7.071035,-60.010265,2.436998,3.571214,-28.208040,-0.481697,-4.018471,0.969214,-0.243674,0.004469,-0.035027
543,-0.243775,-4.687456,7.053238,-70.981003,10.609759,8.825165,-30.390955,-0.191080,-3.944845,0.964449,-0.262013,0.007413,-0.033652
544,0.358237,-4.908394,7.505715,-53.319004,-15.070791,-9.761333,-32.461830,-0.262661,-3.918101,0.959557,-0.279420,0.007356,-0.033463
545,0.298956,-5.261054,8.394046,-24.042244,-6.880517,-8.565447,-33.750340,-0.735600,-3.978982,0.956278,-0.290320,0.003938,-0.035083
546,0.101018,-4.795392,8.405275,8.347087,4.978904,0.084229,-34.010658,-0.840271,-4.078978,0.955570,-0.292517,0.003400,-0.036175
547,0.333659,-5.362800,8.952960,-0.805080,-1.153422,-6.045939,-33.883327,-0.842642,-4.196989,0.955856,-0.291452,0.003640,-0.037169
548,0.487639,-5.139942,8.946317,10.549445,-3.714193,-11.509309,-33.717533,-1.072917,-4.394939,0.956173,-0.290131,0.002166,-0.039408
549,-0.250497,-5.233810,8.618994,-0.757499,22.929621,11.978982,-33.551521,-0.801814,-4.565959,0.956578,-0.288657,0.004803,-0.040157
550,-0.241651,-4.982731,7.924475,-13.350583,18.748663,11.680843,-33.786777,-0.005192,-4.623521,0.956068,-0.290357,0.011678,-0.038609
551,-0.119321,-5.278950,7.851348,-28.651323,7.761582,4.458572,-34.487003,0.511335,-4.649612,0.954312,-0.296013,0.016283,-0.037419
552,-0.468555,-4.957620,7.164026,-29.020515,16.315817,15.432700,-35.447575,1.030081,-4.609162,0.951836,-0.303826,0.020797,-0.035567
553,-0.284011,-5.331862,6.691540,-53.807232,3.030955,8.102819,-36.825146,1.521460,-4.481583,0.948162,-0.315095,0.024936,-0.032904
554,0.160633,-5.393920,6.197137,-60.439842,-16.803808,-10.586446,-38.726429,1.314680,-4.376081,0.942831,-0.330879,0.023473,-0.032216
555,0.016621,-5.412003,6.252528,-46.924393,-9.518719,-5.255023,-40.514172,0.808844,-4.303373,0.937555,-0.345732,0.019616,-0.032780
556,-0.039645,-5.772292,6.362124,-46.931793,-4.641088,-1.750658,-42.077209,0.554546,-4.234694,0.932755,-0.358581,0.017777,-0.032747
557,0.050244,-6.195622,6.883023,-33.589088,-5.212575,-4.911239,-43.418701,0.358709,-4.204085,0.928485,-0.369541,0.016474,-0.032920
558,-0.180686,-6.275542,7.393806,-7.577395,6.100737,2.666703,-44.104988,0.343690,-4.241783,0.926243,-0.375094,0.016673,-0.033175
559,-0.503546,-6.562088,8.000527,4.737530,16.635551,12.048892,-44.153217,0.786635,-4.328951,0.926097,-0.375329,0.020551,-0.032420
560,-0.354353,-6.823716,7.755248,-3.718431,12.557092,3.413257,-44.139111,1.315318,-4.482483,0.926127,-0.375004,0.025322,-0.031930
561,-0.401833,-7.156348,7.817462,-7.228735,12.474435,2.336634,-44.327160,1.680983,-4.705229,0.925458,-0.376336,0.029058,-0.032483
562,-0.275108,-7.334586,7.389622,-19.156357,7.885223,-4.427207,-44.775085,1.898299,-4.968339,0.923907,-0.379795,0.031808,-0.033768
563,-0.493036,-7.618637,7.171595,-30.831572,12.769401,2.479058,-45.617390,2.117651,-5.236062,0.921012,-0.386407,0.034720,-0.034942
564,-0.162277,-7.644739,7.127769,-26.935127,0.373779,-7.677086,-46.588493,2.206787,-5.453788,0.917638,-0.394091,0.036477,-0.036083
565,-0.507681,-8.104941,7.389127,-25.482986,6.882035,3.886846,-47.466972,2.242912,-5.586504,0.914549,-0.401055,0.037505,-0.036734
566,-0.349104,-7.942984,7.466337,-9.736156,1.103036,-0.360894,-48.056416,2.375694,-5.644751,0.912457,-0.405673,0.038956,-0.036532
567,-0.433933,-8.164561,7.754521,-2.666324,1.144156,3.143489,-48.262970,2.435235,-5.641861,0.911726,-0.407290,0.039485,-0.036227
568,-0.271676,-7.976153,7.978388,13.980498,-4.888792,-3.166625,-48.072468,2.393286,-5.595506,0.912416,-0.405809,0.038927,-0.036072
569,-0.661865,-8.417417,8.072234,7.462398,3.567277,8.355519,-47.711960,2.442623,-5.521042,0.913711,-0.402939,0.038945,-0.035427
570,-0.235677,-8.151346,8.126463,17.721785,-8.314366,-3.830495,-47.287518,2.444849,-5.412055,0.915231,-0.399588,0.038451,-0.034692
571,-0.265874,-8.057499,7.980009,15.858348,-7.390084,-4.020571,-46.723858,2.170593,-5.309242,0.917217,-0.395236,0.035732,-0.035008
572,-0.328965,-7.944316,7.774951,11.487020,-2.773819,-1.849559,-46.266109,1.983001,-5.253675,0.918803,-0.391667,0.033899,-0.035348
573,-0.210693,-8.387184,7.745714,-4.334513,-4.030567,-4.645747,-46.146687,1.826333,-5.246828,0.919209,-0.390778,0.032583,-0.035865
574,0.145845,-8.331717,7.662039,-8.392054,-12.630688,-15.280572,-46.359615,1.394408,-5.275674,0.918453,-0.392657,0.029288,-0.037520
575,0.099681,-7.837976,8.676728,21.952374,-11.169269,-13.065951,-46.134396,0.778863,-5.315958,0.919159,-0.391090,0.024416,-0.040005
576,-0.229685,-8.046294,9.676469,31.262682,-2.729029,0.313124,-45.247326,0.465093,-5.300071,0.922129,-0.384089,0.021528,-0.041118
577,-0.264515,-8.115549,10.211632,37.940075,-1.902494,7.306646,-44.092735,0.499705,-5.156702,0.926007,-0.374791,0.020923,-0.040061
578,-0.302770,-8.250623,10.476599,39.940273,-4.329900,13.837358,-42.791523,0.666895,-4.829878,0.930330,-0.364249,0.020785,-0.037110
579,-0.994548,-8.049825,10.171000,49.468971,10.490366,36.815983,-41.291996,1.308950,-4.271919,0.935216,-0.351927,0.023822,-0.030850
580,-1.346614,-9.210029,8.325317,-6.400916,17.426933,49.782070,-40.546883,2.606014,-3.488245,0.937612,-0.345602,0.031865,-0.020667
581,-0.383527,-9.185770,7.079388,-20.568569,-10.313201,20.041519,-40.953773,3.458771,-2.689070,0.936377,-0.348910,0.036469,-0.011417
583,-0.361739,-8.412391,6.312067,-20.383116,-13.079151,10.886804,-41.599262,3.506750,-2.045570,0.934435,-0.354368,0.034934,-0.005815
584,0.112735,-7.731936,5.413393,-33.419739,-24.257942,-14.982330,-42.475498,2.999127,-1.679430,0.931805,-0.361718,0.029696,-0.004177
585,0.337377,-7.452046,5.481887,-34.082890,-25.320824,-27.036444,-43.599350,1.918479,-1.628533,0.928352,-0.371052,0.020819,-0.006977
586,0.306442,-6.006166,6.152888,35.988560,-20.074863,-28.940033,-43.571777,0.728108,-1.783396,0.928483,-0.370995,0.011675,-0.012093
587,-0.761775,-5.252549,6.403000,63.259228,25.329426,13.932099,-41.921280,0.623557,-2.032560,0.933700,-0.357575,0.011425,-0.014616
588,-0.299856,-4.651339,6.622907,83.058212,7.298773,0.121093,-39.487503,1.189189,-2.217272,0.941054,-0.337544,0.016301,-0.014705
589,-0.959960,-4.255550,6.947052,87.231201,29.021677,29.121674,-36.650337,1.966154,-2.201951,0.949076,-0.313992,0.022324,-0.012844
590,-0.633928,-4.148998,7.268435,80.580696,5.952898,18.440292,-33.843060,2.901038,-1.897818,0.956389,-0.290527,0.029033,-0.008472
591,-0.319724,-3.778292,7.415103,78.365280,-13.520144,7.502867,-31.173977,3.027837,-1.460432,0.962900,-0.268261,0.028869,-0.005173
592,0.023358,-3.812970,7.697360,59.176735,-29.305069,-1.335024,-28.862034,2.461620,-1.009826,0.968235,-0.248964,0.022997,-0.003179
593,-0.139815,-4.214652,7.872715,27.271530,-16.954353,-1.461993,-27.410376,1.760554,-0.683462,0.971417,-0.236805,0.016338,-0.002154
594,-0.292070,-4.224650,8.668906,39.645588,-8.242568,-0.547754,-26.290926,1.370925,-0.523143,0.973728,-0.227352,0.012688,-0.001725
595,-0.123100,-3.306231,8.866732,81.083565,-9.693459,-10.973016,-24.280109,1.018330,-0.570103,0.977595,-0.210248,0.009734,-0.002995
596,-0.312011,-3.593358,8.898799,55.359116,1.692910,-6.508166,-22.010651,0.780203,-0.785779,0.981573,-0.190845,0.007992,-0.005431
597,-0.161369,-3.502332,9.074601,48.088928,-1.949898,-9.392494,-20.290459,0.680211,-1.032923,0.984317,-0.176081,0.007431,-0.007827
598,-0.561001,-3.087688,9.030955,54.684250,17.092896,-2.887168,-18.581602,0.849774,-1.309253,0.986804,-0.161347,0.009162,-0.010078
599,-0.155029,-2.705024,8.546623,50.220036,-0.099946,-9.146208,-16.838709,1.058653,-1.588836,0.989104,-0.146270,0.011168,-0.012362
600,-0.704753,-3.078847,8.110580,7.881539,23.891489,2.736568,-15.874769,1.408780,-1.800755,0.990249,-0.137872,0.014344,-0.013865
601,-0.516830,-3.224545,8.097822,-7.898190,11.844324,-0.639301,-15.879499,1.990873,-1.933064,0.990164,-0.137801,0.019533,-0.014305
602,-0.883501,-2.869787,8.020812,2.252732,25.574211,2.111074,-15.979416,2.597134,-2.081419,0.989933,-0.138529,0.024963,-0.014832
603,-0.729496,-2.918561,8.217367,0.000641,10.491963,2.835085,-15.946291,3.197823,-2.167037,0.989844,-0.138108,0.030250,-0.014850
604,-1.007044,-3.110305,8.336173,-11.684743,18.440924,4.270706,-16.142319,3.693974,-2.186588,0.989486,-0.139696,0.034583,-0.014357
605,-0.395093,-2.842319,9.116782,6.826043,-15.791454,-6.476143,-16.226385,3.726128,-2.234605,0.989369,-0.140400,0.034930,-0.014707
606,-0.545032,-2.526994,9.489173,23.647463,-9.611905,-2.973857,-15.720513,3.275819,-2.269742,0.990083,-0.136114,0.031016,-0.015704
607,-0.307970,-2.700134,9.444954,9.424830,-16.524879,-5.725717,-15.170600,2.817456,-2.294323,0.990816,-0.131448,0.027006,-0.016595
608,-0.069137,-2.795428,9.529161,-1.182792,-22.154413,-10.098997,-15.036959,2.126313,-2.380287,0.991069,-0.130413,0.021108,-0.018161
609,0.191173,-2.492757,9.595720,11.791777,-35.378414,-11.472264,-14.863049,1.107103,-2.479704,0.991349,-0.129098,0.012376,-0.020206
610,-0.066251,-2.329388,9.426664,18.454258,-9.962000,-2.475980,-14.359175,0.317436,-2.514824,0.991924,-0.124889,0.005490,-0.021426
611,-0.021423,-2.511867,9.286313,-1.903681,-4.701912,-0.827190,-14.083268,0.067127,-2.509516,0.992221,-0.122548,0.003266,-0.021661
612,0.125392,-2.295165,9.335107,7.255621,-10.021582,0.419669,-13.994108,-0.172567,-2.456318,0.992319,-0.121822,0.001117,-0.021458
613,-0.178560,-2.075826,9.682755,21.337679,10.206482,7.722263,-13.517889,-0.137325,-2.325374,0.992842,-0.117692,0.001198,-0.020291
614,-0.181671,-2.044838,9.915677,15.845061,6.784431,8.244598,-12.897891,0.199108,-2.131714,0.993503,-0.112266,0.003816,-0.018289
615,-0.132265,-2.385338,10.222841,0.788993,1.610128,8.751656,-12.619467,0.398253,-1.886330,0.993808,-0.109831,0.005263,-0.015979
616,-0.142787,-1.907570,10.559545,24.560343,-1.281723,7.622576,-12.195101,0.462535,-1.621088,0.994241,-0.106153,0.005516,-0.013637
617,-0.076886,-2.165003,10.393963,13.066453,-5.410307,6.497274,-11.566154,0.401366,-1.367638,0.994838,-0.100713,0.004687,-0.011521
618,0.051410,-2.291533,10.237403,2.906809,-9.745027,3.464046,-11.298926,0.186899,-1.154600,0.995093,-0.098421,0.002615,-0.009866
619,0.075676,-2.248236,9.882983,-2.407799,-9.002663,2.531519,-11.290596,-0.099821,-0.995161,0.995111,-0.098373,-0.000013,-0.008728
620,0.191694,-2.000041,9.148360,-3.325142,-11.447536,-1.179424,-11.386572,-0.429511,-0.905945,0.995026,-0.099229,-0.002945,-0.008239
621,0.370775,-2.209457,8.796616,-26.962133,-15.137913,-4.941447,-11.891330,-0.884034,-0.916471,0.994553,-0.103640,-0.006844,-0.008753
622,-0.025773,-1.735725,8.840855,-7.549915,8.654140,-3.912864,-12.464589,-1.020690,-1.037318,0.994001,-0.108631,-0.007871,-0.009965
623,0.094013,-1.738745,8.542984,-9.433590,3.534895,-5.621755,-12.744636,-0.856770,-1.235968,0.993727,-0.111059,-0.006233,-0.011548
624,0.168345,-1.984500,8.934610,-16.398560,0.451566,-9.068231,-13.171311,-0.846938,-1.489622,0.993280,-0.114771,-0.005851,-0.013760
625,-0.099068,-1.946448,9.338173,-5.776968,12.848044,-6.327404,-13.536783,-0.690584,-1.790617,0.992880,-0.117933,-0.004142,-0.016226
626,-0.194765,-2.080467,9.543893,-4.037841,15.759686,-3.795814,-13.698332,-0.266683,-2.066393,0.992694,-0.119278,-0.000160,-0.018180
627,-0.076740,-2.608050,9.719825,-22.442221,7.306000,-3.293087,-14.139441,0.078041,-2.273445,0.992203,-0.123039,0.003117,-0.019604
628,0.026036,-2.551963,9.788317,-17.218178,0.692285,-3.518957,-14.800687,0.178379,-2.417399,0.991453,-0.128740,0.004260,-0.020718
629,-0.164837,-2.549684,9.651814,-15.491163,7.463614,1.650320,-15.346046,0.301512,-2.483090,0.990818,-0.133431,0.005500,-0.021122
630,0.121808,-2.753384,9.206328,-28.351871,-6.837840,0.389855,-16.076639,0.320641,-2.452852,0.989952,-0.139743,0.005763,-0.020802
631,0.336293,-2.887599,8.776001,-39.124279,-16.439348,-3.886882,-17.201084,-0.067849,-2.398381,0.988536,-0.149524,0.002544,-0.020781
632,0.403891,-2.961700,8.373477,-44.099689,-16.652075,-4.212079,-18.588284,-0.633933,-2.357925,0.986630,-0.161579,-0.002135,-0.021198
633,0.310827,-3.245767,7.552794,-64.392273,-9.915869,-3.122810,-20.396606,-1.091979,-2.325246,0.983919,-0.177201,-0.005784,-0.021656
634,0.505667,-3.408811,6.894428,-78.630089,-17.616022,-9.060196,-22.779057,-1.592886,-2.343674,0.979951,-0.197696,-0.009585,-0.022791
635,0.828928,-3.455055,7.225396,-60.738525,-26.399900,-19.907066,-25.095644,-2.458371,-2.488426,0.975559,-0.217608,-0.016218,-0.025850
636,0.333542,-3.567631,7.462736,-47.301132,5.299675,-7.403045,-26.883545,-2.972499,-2.746906,0.971856,-0.232917,-0.019649,-0.029332
637,0.250871,-3.983448,8.134007,-39.251225,12.562189,-5.278107,-28.310261,-2.805930,-3.068530,0.968839,-0.245023,-0.017186,-0.031939
638,-0.045246,-3.645141,9.630388,13.041472,26.532478,-3.138993,-28.727823,-2.300070,-3.502396,0.967940,-0.248508,-0.011854,-0.034575
639,-0.156630,-3.965279,10.670737,23.211704,26.228485,-1.347598,-28.107626,-1.560509,-3.984533,0.969277,-0.243123,-0.004761,-0.037026
640,-0.527308,-4.614929,10.481278,7.422122,33.742847,5.679511,-27.589468,-0.642687,-4.387105,0.970378,-0.238474,0.003684,-0.038507
641,-0.276207,-4.485113,9.943632,11.079443,19.302294,-2.235135,-27.280117,0.167986,-4.744876,0.970977,-0.235560,0.011185,-0.039882
642,-0.282177,-4.280620,9.437539,9.976840,15.606795,-5.715986,-26.931395,0.625582,-5.127337,0.971579,-0.232389,0.015720,-0.042229
643,-0.082143,-5.107660,8.505589,-41.233276,3.676541,-10.907625,-27.456984,0.784751,-5.520576,0.970360,-0.236720,0.018073,-0.045157
644,0.077368,-4.915713,7.120812,-60.524586,-3.897722,-16.288078,-29.157084,0.565085,-5.918909,0.966565,-0.251122,0.017761,-0.048727
645,0.425838,-4.610811,6.370633,-66.404854,-20.823732,-25.280802,-31.273125,-0.139822,-6.310900,0.961512,-0.269190,0.013663,-0.053336
646,0.206314,-4.966235,6.372178,-74.617989,-5.218825,-16.164211,-33.618748,-0.876671,-6.663406,0.955498,-0.289117,0.009495,-0.057840
647,0.285336,-5.329988,5.789060,-94.469254,-6.552941,-13.168824,-36.430389,-1.317590,-6.947477,0.947864,-0.312654,0.008037,-0.061138
648,0.327508,-5.250941,5.489348,-87.126816,-5.193146,-14.192319,-39.448277,-1.752969,-7.185828,0.939045,-0.337691,0.006776,-0.064136
649,0.044251,-5.231428,6.117886,-51.874054,9.242579,-2.647365,-41.755234,-1.883737,-7.442932,0.931867,-0.356570,0.007801,-0.066482
650,-0.440319,-5.800406,6.974543,-37.011524,26.414413,14.827957,-43.229588,-1.307706,-7.691936,0.927245,-0.368223,0.014121,-0.066548
651,0.071617,-6.180463,7.385871,-29.932726,2.510214,-2.484020,-44.342247,-0.817218,-7.873736,0.923667,-0.376927,0.019320,-0.066264
652,-0.084528,-6.238379,7.926879,-9.801811,5.550370,-0.922008,-45.002285,-0.761846,-8.010674,0.921417,-0.382188,0.020604,-0.067069
653,0.194863,-6.669729,8.312176,-7.878455,-3.142215,-7.744809,-45.295158,-0.835698,-8.140773,0.920339,-0.384558,0.020618,-0.068308
654,0.278404,-7.357110,8.244921,-22.769295,-2.263814,-9.712717,-45.803471,-1.106504,-8.280476,0.918456,-0.388760,0.019223,-0.070252
655,0.291717,-7.373471,7.876825,-21.475468,-0.492181,-8.555971,-46.537075,-1.358027,-8.457964,0.915753,-0.394741,0.018272,-0.072409
656,0.141263,-7.370790,7.601873,-15.659686,6.487402,-1.490308,-47.151470,-1.411780,-8.645339,0.913484,-0.399644,0.018885,-0.073990
657,0.335087,-7.314181,7.358108,-10.075839,0.145806,-3.626057,-47.577114,-1.399537,-8.784041,0.911908,-0.403004,0.019745,-0.074980
658,0.361080,-7.305315,7.103094,-9.267203,-0.977196,-1.588449,-47.898228,-1.473218,-8.832426,0.910716,-0.405591,0.019540,-0.075569
659,0.106221,-7.512311,7.158119,-6.219211,5.752673,10.444993,-48.157284,-1.310297,-8.792859,0.909883,-0.407563,0.020865,-0.074633
660,0.447625,-7.630146,7.182663,-0.831085,-5.060958,0.726657,-48.277283,-1.163841,-8.677078,0.909582,-0.408454,0.021693,-0.073172
661,0.334429,-7.657073,7.135484,2.542623,-3.048731,4.060459,-48.252068,-1.194338,-8.523139,0.909759,-0.408300,0.020886,-0.072063
662,0.619413,-7.690863,7.251716,7.458914,-8.758749,-6.838976,-48.087914,-1.360124,-8.407375,0.910358,-0.407107,0.019054,-0.071760
663,0.344815,-7.896401,7.336626,6.956820,-0.410228,1.784366,-47.849232,-1.525091,-8.350168,0.911180,-0.405308,0.017389,-0.071926
664,0.648401,-7.591076,7.144401,11.125838,-9.151875,-8.025770,-47.549149,-1.709291,-8.302489,0.912201,-0.403025,0.015566,-0.072236
665,0.495869,-7.525918,7.210529,12.956697,-4.142047,-2.716071,-47.149185,-1.991098,-8.260575,0.913521,-0.399991,0.012918,-0.072934
666,0.549097,-7.642982,7.251172,8.323012,-3.672235,-2.939038,-46.795612,-2.148870,-8.229911,0.914709,-0.397254,0.011326,-0.073273
667,0.123194,-7.826077,7.161569,0.086308,8.872630,11.218875,-46.656605,-1.988986,-8.198352,0.915273,-0.396066,0.012406,-0.072485
668,0.179022,-7.536556,7.051888,4.906636,6.978985,9.320290,-46.574680,-1.558708,-8.155492,0.915741,-0.395194,0.015648,-0.070675
669,0.349660,-7.602405,7.122619,4.735292,0.371902,2.152052,-46.415077,-1.335700,-8.112543,0.916394,-0.393807,0.017187,-0.069590
670,0.533713,-7.420009,7.021178,8.148149,-5.666780,-4.726909,-46.201206,-1.427691,-8.078257,0.917117,-0.392149,0.016203,-0.069661
671,0.427430,-7.324963,6.871172,5.646980,-2.773191,-0.643222,-45.972347,-1.589743,-8.038865,0.917867,-0.390406,0.014630,-0.069927
672,0.700324,-7.209829,6.879108,6.013014,-15.620296,-11.699615,-45.780373,-1.950819,-7.962043,0.918436,-0.389060,0.011356,-0.070555
673,0.526884,-7.164121,6.865973,5.791695,-7.886337,-2.485684,-45.588055,-2.393651,-7.846584,0.918989,-0.387745,0.007291,-0.071137
674,0.258032,-7.109410,7.005330,12.600337,5.383162,11.510900,-45.286942,-2.315736,-7.711361,0.920118,-0.385300,0.007276,-0.069810
675,-0.195130,-7.093436,6.915129,6.366447,21.212841,29.128357,-44.976131,-1.523062,-7.547989,0.921540,-0.382436,0.012920,-0.065883
676,-0.010982,-7.164268,7.019013,3.160918,6.364298,14.899247,-44.820869,-0.679497,-7.353506,0.922413,-0.380799,0.018977,-0.061539
677,-0.192961,-7.085882,6.992031,3.873922,7.136713,15.008656,-44.705399,-0.168691,-7.158000,0.923021,-0.379650,0.022382,-0.058293
678,-0.429380,-7.251419,7.151890,3.649882,8.000318,15.582395,-44.579651,0.369045,-6.972497,0.923634,-0.378407,0.026039,-0.055046
679,0.084701,-7.770226,7.063615,-15.460884,-10.336900,-3.474030,-44.775208,0.483242,-6.801632,0.923087,-0.379965,0.026486,-0.053246
680,0.270044,-7.744792,8.282787,8.383845,-17.027538,-10.237398,-44.892811,-0.001055,-6.642672,0.922684,-0.381178,0.022112,-0.053550
681,0.124729,-7.672954,9.637563,26.681578,-13.260390,-6.581850,-44.309265,-0.557561,-6.488741,0.924570,-0.376754,0.016843,-0.054248
682,0.132404,-8.403515,10.389292,9.760172,-10.973365,-5.050728,-43.703766,-0.982929,-6.348548,0.926514,-0.372065,0.012661,-0.054580
683,0.464335,-8.640099,10.789548,7.550974,-13.549479,-10.542439,-43.417236,-1.458030,-6.254800,0.927361,-0.369951,0.008375,-0.055382
684,-0.056029,-8.610560,10.844386,10.630387,4.429398,4.070143,-43.115032,-1.642674,-6.228965,0.928294,-0.367579,0.006649,-0.055785
686,-0.127047,-8.514701,9.497224,5.931344,12.066647,11.637526,-42.839073,-1.263102,-6.225403,0.929283,-0.365190,0.009583,-0.054566
687,0.114210,-8.794976,7.538307,-32.146393,8.554294,11.799088,-43.276878,-0.745309,-6.174984,0.928031,-0.368531,0.013824,-0.052459
688,0.069337,-8.267929,6.405108,-41.219009,10.719528,15.092550,-44.500465,-0.203104,-6.076190,0.924201,-0.378207,0.018430,-0.049724
689,-0.288753,-7.429737,5.845357,-22.648373,20.357197,26.447502,-45.564301,0.652602,-5.953399,0.920839,-0.386427,0.025352,-0.045675
690,-0.322297,-6.923843,5.411809,-22.259245,16.324757,28.755306,-46.308380,1.738506,-5.750532,0.918486,-0.391967,0.033653,-0.040158
691,-0.334884,-7.044309,5.174593,-45.584953,13.911519,23.287991,-47.430573,2.715631,-5.525204,0.914694,-0.400566,0.041049,-0.034596
692,-0.818465,-5.828067,6.119289,34.023136,25.096262,40.959843,-47.609085,3.944721,-5.283298,0.914054,-0.401499,0.050047,-0.028267
693,-1.006590,-6.715270,5.572551,-15.784785,24.547947,38.547260,-47.280918,5.478703,-4.988273,0.915000,-0.398253,0.061171,-0.020673
694,-0.695509,-6.790394,4.717381,-30.296808,-1.795613,-7.133140,-48.041912,6.121971,-4.921135,0.912186,-0.404021,0.066181,-0.017441
695,0.156197,-5.747027,5.972057,56.386684,-57.972832,-42.821442,-47.589970,4.836886,-4.744859,0.914101,-0.401162,0.055264,-0.020832
696,-0.221237,-6.747250,6.675975,28.945749,-36.181072,-27.924896,-46.144753,2.903806,-4.411273,0.919416,-0.390580,0.038371,-0.025474
697,0.071365,-7.336855,5.810584,-20.872728,-34.905598,-36.069958,-46.006245,1.314334,-4.296609,0.919944,-0.390085,0.025198,-0.030024
698,0.116040,-5.175580,6.677225,90.737579,-30.963926,-30.364222,-44.842659,-0.244192,-4.285906,0.923725,-0.381221,0.012294,-0.035378
699,-0.039833,-5.242815,7.165600,67.500748,-5.740336,8.315232,-42.207977,-0.939948,-4.144354,0.932180,-0.360091,0.005371,-0.036684
700,-0.474751,-5.985079,5.822466,-7.316947,29.569363,25.075146,-41.205952,-0.270716,-4.000551,0.935439,-0.351752,0.010072,-0.033503
701,-0.070679,-4.107531,5.625265,91.724182,2.378953,12.043690,-39.798092,0.535981,-3.882351,0.939798,-0.340016,0.015925,-0.030260
702,-0.139904,-4.152241,6.220479,91.579872,0.078620,9.435690,-36.742107,0.789355,-3.618017,0.948608,-0.314799,0.016483,-0.027788
703,0.094926,-4.695444,7.082899,72.874260,-13.226829,0.152115,-33.999950,0.702899,-3.360316,0.955928,-0.292068,0.014436,-0.026246
704,-0.065942,-4.454552,7.932696,86.300484,-6.163894,-1.486976,-31.347288,0.419263,-3.201327,0.962462,-0.269952,0.011068,-0.025906
705,-0.265076,-4.640956,8.761827,68.792336,2.338827,4.175972,-28.763554,0.385439,-3.131955,0.968318,-0.248199,0.010045,-0.025636
706,-0.419237,-4.944735,9.118836,45.035225,10.604371,2.164553,-26.867350,0.625737,-3.141033,0.972295,-0.232083,0.011676,-0.025389
707,-0.419553,-4.212194,9.496705,90.048485,7.800448,2.296441,-24.617420,0.933484,-3.208587,0.976646,-0.212865,0.013924,-0.025616
708,-0.594031,-4.027802,8.837697,69.465721,15.279279,3.132926,-21.961662,1.322739,-3.276109,0.981287,-0.190066,0.016771,-0.025863
709,-0.165902,-3.714024,8.936074,64.734123,-6.834085,-4.545812,-19.727901,1.445322,-3.350170,0.984781,-0.170859,0.017428,-0.026637
710,-0.463601,-2.667311,9.218040,99.060959,5.633583,-0.950247,-17.000990,1.397464,-3.427025,0.988553,-0.147380,0.016475,-0.027769
711,-0.364581,-2.560352,9.400341,74.111122,0.575805,-3.663340,-14.119552,1.476634,-3.531501,0.991914,-0.122442,0.016569,-0.028994
712,-0.246253,-2.670697,9.373945,29.261372,-5.181876,-7.252065,-12.401537,1.359769,-3.689918,0.993605,-0.107569,0.015268,-0.030723
713,-0.124686,-2.539312,9.846647,17.524750,-9.998695,-8.019691,-11.625952,1.058540,-3.885058,0.994275,-0.100908,0.012618,-0.032786
714,-0.244724,-2.306889,9.487963,14.065319,-1.347451,-6.229374,-11.102612,0.826201,-4.080112,0.994678,-0.096418,0.010615,-0.034733
715,-0.124742,-2.696074,9.069651,-23.227379,-3.335378,-7.351045,-11.258208,0.705703,-4.287318,0.994485,-0.097789,0.009793,-0.036620
716,-0.102408,-2.701356,8.679762,-47.121147,-3.626891,-9.911869,-12.433390,0.532534,-4.544776,0.993347,-0.108020,0.008910,-0.038914
717,-0.197095,-2.613252,9.264323,-41.040905,1.911479,-9.090766,-13.905079,0.432330,-4.846358,0.991771,-0.120780,0.008860,-0.041512
718,-0.064211,-2.887416,9.356424,-49.340202,-4.701622,-15.288391,-15.413673,0.284737,-5.227063,0.989949,-0.133852,0.008575,-0.044854
719,-0.102748,-2.916541,9.577518,-38.388775,-1.539700,-14.583035,-16.876644,0.046662,-5.677045,0.987964,-0.146545,0.007669,-0.048926
720,0.229304,-2.767584,9.871436,-8.770711,-15.524733,-14.269403,-17.661562,-0.367245,-6.051606,0.986737,-0.153469,0.004941,-0.052651
721,0.302849,-2.804704,9.938531,11.834118,-13.893254,-9.237624,-17.607399,-0.952621,-6.278102,0.986632,-0.153265,0.000178,-0.055383
722,0.530685,-2.930684,9.044373,3.043719,-21.232615,-6.895905,-17.357494,-1.591411,-6.359604,0.986817,-0.151409,-0.005338,-0.056921
723,0.423245,-2.485227,8.709520,22.803535,-10.586623,2.945273,-16.929512,-2.117527,-6.265633,0.987311,-0.147955,-0.010206,-0.056762
724,0.698262,-2.637165,8.681365,6.303872,-20.254805,1.503213,-16.453018,-2.588511,-6.047972,0.987909,-0.144030,-0.014777,-0.055425
725,0.554975,-2.631549,8.593075,-6.629736,-9.517429,1.191294,-16.467644,-3.051327,-5.863179,0.987851,-0.144323,-0.018994,-0.054406
726,0.788032,-2.271157,8.971467,9.258400,-15.716032,-2.873665,-16.429077,-3.462433,-5.770401,0.987817,-0.144139,-0.022674,-0.054107
727,0.690108,-2.340372,9.569230,7.583652,-4.152637,-3.699415,-16.147688,-3.811118,-5.783157,0.988045,-0.141854,-0.025799,-0.054583
728,0.911458,-2.596035,9.719530,-5.143887,-10.329659,-8.465917,-16.098291,-4.099381,-5.911393,0.987940,-0.141573,-0.028151,-0.056025
729,0.933382,-2.830084,9.725534,-14.437619,-6.417055,-11.009836,-16.407188,-4.458305,-6.145258,0.987299,-0.144442,-0.030800,-0.058555
730,0.833477,-2.861149,9.615222,-12.582544,1.084307,-9.968162,-16.833044,-4.643541,-6.455518,0.986516,-0.148273,-0.031777,-0.061573
731,0.590814,-3.180502,9.341759,-27.796785,12.366118,-7.642353,-17.478455,-4.515839,-6.802968,0.985528,-0.153863,-0.029864,-0.064573
732,0.649882,-3.261509,9.075504,-31.788200,8.988190,-9.985326,-18.441891,-4.268212,-7.192880,0.984076,-0.162121,-0.026640,-0.067830
733,0.465760,-3.333272,8.899892,-32.049271,16.625174,-11.355352,-19.471338,-3.980080,-7.669476,0.982406,-0.170912,-0.022846,-0.071735
734,0.403524,-3.098932,8.896047,-15.724966,19.053108,-13.395696,-20.228804,-3.560605,-8.260090,0.981036,-0.177276,-0.017863,-0.076309
735,0.652755,-3.305329,8.923584,-21.326521,6.819953,-19.373960,-20.806313,-3.347321,-8.923313,0.979752,-0.182184,-0.014598,-0.081738
736,0.729049,-3.306275,8.946300,-16.209578,3.205528,-25.441580,-21.386137,-3.460484,-9.682295,0.978211,-0.187305,-0.013912,-0.088473
737,0.650138,-3.379824,8.979985,-15.270858,7.259278,-26.134405,-21.857122,-3.614600,-10.547552,0.976672,-0.191535,-0.013418,-0.096157
738,0.676901,-3.660722,9.132357,-23.855469,6.165384,-25.108793,-22.453259,-3.729305,-11.424519,0.974847,-0.196798,-0.012390,-0.103880
739,0.520004,-3.818592,9.221581,-25.446774,11.290986,-21.985794,-23.220064,-3.766402,-12.262465,0.972705,-0.203428,-0.010523,-0.111140
740,0.261893,-3.858438,9.340023,-19.037180,20.169712,-15.460438,-23.911903,-3.535470,-13.045286,0.970786,-0.209149,-0.006462,-0.117428
741,0.202897,-3.959408,9.494034,-15.351449,19.482073,-10.736381,-24.446854,-3.111213,-13.714656,0.969294,-0.213300,-0.001072,-0.122354
742,0.175387,-4.142013,9.485645,-15.938190,16.864246,-8.468014,-24.940948,-2.694590,-14.259018,0.967960,-0.217057,0.004013,-0.126189
743,0.238089,-4.043162,9.351470,-6.164826,12.049132,-10.156621,-25.287792,-2.390162,-14.745134,0.966886,-0.219645,0.007900,-0.129709
744,0.137691,-4.221609,9.202690,-9.833737,14.900762,-7.324740,-25.536354,-2.109161,-15.201304,0.966002,-0.221402,0.011435,-0.133007
745,0.451126,-4.443711,9.019103,-16.211529,1.352692,-14.931195,-25.954275,-2.026434,-15.653368,0.964691,-0.224782,0.013505,-0.136612
746,0.349208,-4.555569,8.860259,-16.464058,5.824355,-14.878345,-26.480183,-2.138786,-16.152758,0.962996,-0.229273,0.014185,-0.140967
747,0.475599,-4.469215,8.864159,-4.683198,1.749223,-17.598347,-26.811996,-2.268647,-16.693373,0.961593,-0.232144,0.014596,-0.145720
748,0.373395,-4.420719,8.939916,3.952782,6.595576,-13.631392,-26.802578,-2.378772,-17.221308,0.960879,-0.232131,0.014729,-0.150368
749,0.492816,-4.545031,9.011902,2.990149,1.604971,-12.212955,-26.668276,-2.450155,-17.667938,0.960522,-0.231036,0.014853,-0.154270
750,0.396013,-4.455171,9.079707,8.857505,5.116936,-5.891402,-26.456882,-2.484878,-17.988176,0.960494,-0.229267,0.014918,-0.157049
751,0.443132,-4.405512,8.909695,8.813818,1.901183,-2.349374,-26.154961,-2.440695,-18.163397,0.960876,-0.226656,0.015222,-0.158473
752,0.432384,-4.503189,8.731986,-2.329415,0.854973,2.191691,-26.045931,-2.400501,-18.185955,0.961079,-0.225686,0.015453,-0.158599
753,0.529329,-4.760150,8.514910,-28.023073,-6.445824,3.858135,-26.557386,-2.439340,-18.054201,0.960225,-0.230042,0.015570,-0.157501
754,0.673923,-4.839489,8.456383,-32.169334,-15.783680,2.038895,-27.572124,-2.724454,-17.798004,0.958354,-0.238934,0.014042,-0.155791
755,0.582414,-4.910836,8.625278,-21.016941,-7.727612,5.641850,-28.473444,-3.010317,-17.501141,0.956692,-0.246856,0.012237,-0.153795
756,0.922436,-5.056399,8.801696,-19.084610,-19.487120,-0.380568,-29.158062,-3.365646,-17.204910,0.955395,-0.253027,0.009533,-0.152008
757,0.791081,-4.940824,8.913881,-8.961307,-12.166860,2.525121,-29.643879,-3.807759,-16.914917,0.954435,-0.257618,0.005835,-0.150509
758,0.728246,-4.787115,8.948534,0.107918,-7.290616,4.587350,-29.809368,-4.030767,-16.650621,0.954270,-0.259265,0.003593,-0.148785
759,0.687737,-4.518404,8.771480,8.376537,-4.397295,1.369652,-29.680939,-4.150805,-16.467396,0.954723,-0.258336,0.002011,-0.147523
760,0.731318,-4.427189,8.342105,2.488334,-6.463347,-2.960498,-29.504795,-4.321451,-16.400965,0.955097,-0.257060,0.000208,-0.147340
761,0.301729,-4.505605,7.982868,-12.980614,10.793362,5.982290,-29.680332,-4.233833,-16.392660,0.954768,-0.258425,0.001148,-0.147080
762,0.606909,-4.745846,7.790739,-29.927763,-4.284832,-3.099748,-30.394526,-4.115861,-16.405256,0.953197,-0.264238,0.003077,-0.146913
763,0.782140,-4.843591,7.779927,-31.979305,-13.213461,-10.118726,-31.423203,-4.479237,-16.445641,0.950499,-0.273187,0.001468,-0.148048
764,0.871798,-5.218291,7.927030,-39.366070,-13.563172,-7.216777,-32.611408,-5.010657,-16.454834,0.947235,-0.283611,-0.001383,-0.149362
765,1.001902,-5.560984,8.012855,-43.114185,-15.004960,-3.051088,-33.996693,-5.502700,-16.335539,0.943528,-0.295567,-0.003953,-0.149599
766,1.274708,-5.773787,8.092409,-39.486702,-20.558727,-4.657026,-35.396473,-6.063432,-16.102373,0.939709,-0.307643,-0.007370,-0.149162
767,1.103717,-5.932545,7.905790,-39.149967,-11.466801,6.499889,-36.744045,-6.476950,-15.761999,0.936124,-0.319061,-0.009958,-0.147557
768,1.045848,-6.181030,7.726855,-41.219315,-7.179500,16.057959,-38.138435,-6.495451,-15.270174,0.932782,-0.330408,-0.009731,-0.143716
769,0.949312,-6.175692,7.502283,-33.827785,-5.278080,23.388062,-39.460495,-6.245738,-14.622916,0.929912,-0.340876,-0.007963,-0.137855
770,0.887079,-6.212416,7.361336,-26.705938,-5.289523,27.752459,-40.550163,-5.833513,-13.851962,0.927862,-0.349309,-0.005651,-0.130473
771,0.948397,-6.311570,7.140835,-24.635721,-11.207924,27.640097,-41.492252,-5.435707,-12.970405,0.926233,-0.356574,-0.004096,-0.122193
772,0.934904,-6.463569,7.042495,-22.094360,-12.552545,27.190529,-42.358616,-5.120154,-12.022223,0.924712,-0.363304,-0.003624,-0.113599
773,0.878340,-6.678390,6.796627,-25.777859,-12.393907,28.310778,-43.239891,-4.796981,-11.057544,0.923027,-0.370161,-0.003257,-0.104837
774,0.923976,-6.916095,6.577489,-29.666235,-14.649196,24.050028,-44.240547,-4.519079,-10.112489,0.920765,-0.378014,-0.003221,-0.096371
775,0.663593,-6.928138,6.582192,-18.696230,-6.618856,27.723379,-45.112236,-4.164117,-9.247715,0.918768,-0.384792,-0.002540,-0.088289
776,0.445152,-6.864796,7.007070,6.106602,-0.802642,30.064455,-45.373257,-3.567851,-8.479303,0.918770,-0.386572,-0.000143,-0.080149
777,0.643229,-6.868687,7.007780,11.206098,-11.642145,19.818991,-45.127190,-3.124802,-7.744332,0.920297,-0.384391,0.000781,-0.072776
778,0.822018,-6.771797,7.213483,18.966129,-18.997700,7.124572,-44.662476,-3.169875,-7.064332,0.922245,-0.380670,-0.002136,-0.067456
779,0.713527,-6.704655,7.496226,24.191341,-13.797171,5.739567,-43.974739,-3.411658,-6.527736,0.924718,-0.375201,-0.006251,-0.063897
780,0.882632,-6.684037,7.418389,14.414571,-15.823428,-3.251848,-43.354488,-3.740579,-6.156440,0.926797,-0.370277,-0.010460,-0.061913
781,1.003990,-6.741075,7.062953,-8.079003,-15.647870,-10.521008,-43.262783,-4.279667,-5.962634,0.926953,-0.369683,-0.015503,-0.062059
782,0.862198,-6.782023,7.239301,-11.383385,-3.023331,-9.231684,-43.585522,-4.731687,-5.986986,0.925675,-0.372430,-0.018906,-0.063753
783,0.657909,-6.528929,7.344782,-1.843415,10.403130,-5.537909,-43.784313,-4.812579,-6.250514,0.924837,-0.374102,-0.018590,-0.066174
784,0.577675,-6.284520,7.332031,5.440173,16.575558,-5.461070,-43.688095,-4.614143,-6.695179,0.924991,-0.373327,-0.015592,-0.069109
785,0.593421,-6.198981,7.541671,13.798758,18.213316,-6.782271,-43.324734,-4.333874,-7.243916,0.925974,-0.370356,-0.011768,-0.072599
786,0.532173,-6.005428,7.696280,23.905977,21.548698,-6.164495,-42.651924,-3.995975,-7.855029,0.927905,-0.364823,-0.007506,-0.076415
787,0.383819,-5.720980,7.568686,28.657061,26.397659,-3.443018,-41.733036,-3.511147,-8.511578,0.930589,-0.357168,-0.002127,-0.080192
789,0.397490,-5.808720,7.955229,30.460121,22.497490,-3.960294,-40.712353,-2.979434,-9.142500,0.933529,-0.348574,0.003418,-0.083711
790,0.459423,-5.832640,8.332134,35.515965,15.672070,-6.056722,-39.586636,-2.600647,-9.680543,0.936675,-0.339135,0.007289,-0.087030
791,0.299313,-5.666124,8.434763,40.754944,15.844448,-1.154347,-38.297462,-2.267282,-10.103807,0.940245,-0.328329,0.010262,-0.089634
792,0.359646,-5.411729,8.619994,50.727467,7.557594,-1.053839,-36.763302,-1.979952,-10.370875,0.944460,-0.315490,0.012168,-0.091181
793,0.359813,-5.411309,9.170934,55.251568,1.520232,2.003042,-34.994869,-1.847394,-10.445793,0.949206,-0.300775,0.012055,-0.091634
794,0.519483,-5.394416,9.017620,44.358334,-7.283377,0.494603,-33.338089,-1.902707,-10.356911,0.953506,-0.287068,0.010045,-0.091196
795,0.777152,-5.453097,8.603084,23.196489,-16.906620,-5.549449,-32.217857,-2.286735,-10.208362,0.956243,-0.278015,0.005586,-0.090971
796,0.609246,-5.504115,8.353005,5.451294,-6.895762,-4.922620,-31.743340,-2.715419,-10.144719,0.957268,-0.274351,0.001471,-0.091474
797,0.628203,-5.693220,8.251845,-9.764237,-1.739372,-10.315434,-31.808390,-2.971589,-10.284760,0.956892,-0.275070,-0.000283,-0.093248
798,0.937662,-5.739991,7.918957,-17.612692,-9.943059,-26.064041,-32.241753,-3.458298,-10.695902,0.955280,-0.279032,-0.002994,-0.097840
799,1.013006,-5.761953,7.714678,-18.445759,-7.427097,-37.960621,-32.792244,-4.275900,-11.441935,0.952841,-0.284243,-0.007491,-0.106042
800,0.926156,-5.866732,7.764681,-16.228653,1.665203,-41.727859,-33.283710,-5.079945,-12.506489,0.950095,-0.289030,-0.011044,-0.116874
801,1.489580,-6.044394,7.814361,-16.327480,-14.490787,-58.273026,-33.701809,-6.177259,-13.784252,0.946892,-0.293558,-0.016459,-0.130187
802,1.704483,-5.936800,7.665694,-11.764667,-15.530289,-66.663910,-33.990913,-7.751982,-15.246152,0.943087,-0.297626,-0.025388,-0.146156
803,1.565390,-5.840654,7.614384,-8.274223,2.717818,-61.003422,-34.081142,-9.118727,-16.907883,0.939291,-0.300121,-0.032230,-0.163157
804,1.696772,-5.722961,7.845929,1.403698,12.835982,-57.491043,-33.898140,-10.007037,-18.714636,0.936105,-0.300111,-0.035100,-0.180023
805,1.400898,-5.475292,8.127623,18.601042,38.159904,-44.083096,-33.230618,-10.233392,-20.624844,0.934445,-0.295503,-0.033096,-0.195947
806,1.343866,-5.118983,8.193841,34.205662,50.975441,-38.212509,-32.010468,-9.719327,-22.611208,0.934617,-0.285367,-0.025992,-0.210670
807,1.084933,-5.102724,8.485060,34.363636,66.410912,-27.428164,-30.555180,-8.613647,-24.586586,0.935667,-0.272151,-0.014838,-0.224146
808,1.017291,-5.022478,8.867445,36.583050,69.241013,-25.796461,-29.114557,-7.094301,-26.499199,0.936763,-0.257913,-0.000793,-0.236548
809,0.582535,-4.856897,8.869534,35.708065,78.395370,-21.393742,-27.708490,-5.304921,-28.371414,0.937578,-0.242913,0.015058,-0.248425
810,0.621296,-4.716271,8.716630,27.209682,65.479607,-28.531460,-26.519726,-3.550982,-30.210106,0.937407,-0.229196,0.030627,-0.260382
811,0.173909,-4.665622,8.846008,21.048145,70.446594,-26.577824,-25.626791,-1.921744,-32.031754,0.936092,-0.217650,0.045463,-0.272570
812,-0.058961,-4.358891,8.977959,30.604273,66.809769,-30.258514,-24.732098,-0.256177,-33.862595,0.934318,-0.205509,0.060279,-0.284925
813,-0.496248,-4.068113,8.948981,37.006660,68.880562,-29.887943,-23.623165,1.396685,-35.700787,0.932401,-0.191169,0.074096,-0.297645
814,-0.695308,-3.743417,8.874722,41.879230,61.995583,-34.494179,-22.379539,2.985124,-37.540333,0.930129,-0.175454,0.086615,-0.310763
815,-0.714024,-3.699494,8.882835,33.672306,46.896828,-43.755161,-21.237656,4.185397,-39.426533,0.926924,-0.161252,0.095904,-0.324981
816,-0.576686,-3.583702,8.973866,29.347651,26.361660,-55.419056,-20.339355,4.738530,-41.409325,0.922513,-0.150633,0.100433,-0.340871
817,-0.569267,-3.450516,8.909101,25.676826,15.251143,-62.398529,-19.591162,4.718952,-43.496361,0.917099,-0.142858,0.100667,-0.358311
818,-0.550090,-3.117538,8.992542,34.116241,7.512540,-65.400139,-18.762804,4.376935,-45.637691,0.911158,-0.135527,0.097898,-0.376615
819,-0.543508,-2.942035,9.380030,39.465515,2.129980,-65.454086,-17.688093,3.848950,-47.763412,0.905092,-0.127069,0.092551,-0.395090
820,-0.550303,-2.768033,9.603394,41.484718,-0.296988,-63.215092,-16.466238,3.249615,-49.824841,0.898955,-0.118004,0.085748,-0.413041
821,-0.390871,-2.596482,9.550335,39.736816,-7.405678,-61.154579,-15.212108,2.561224,-51.785278,0.892768,-0.109371,0.077714,-0.430075
822,-0.305866,-2.348150,9.564072,40.053097,-9.484170,-55.914192,-13.950816,1.798024,-53.602348,0.886720,-0.101362,0.068652,-0.445803
823,0.072503,-2.383533,9.494018,26.367018,-21.189451,-53.900845,-12.882606,0.876977,-55.263638,0.880726,-0.095860,0.058766,-0.460086
824,0.411040,-2.325572,9.315415,16.498444,-29.746012,-50.461567,-12.173976,-0.329969,-56.775063,0.874643,-0.094648,0.047895,-0.473019
825,0.530216,-1.977879,9.382320,25.487253,-25.507910,-45.111050,-11.450548,-1.557912,-58.144131,0.868910,-0.093755,0.036646,-0.484626
826,0.650847,-1.792902,9.662920,29.485184,-19.981581,-40.652954,-10.489267,-2.572813,-59.404579,0.863740,-0.090456,0.025862,-0.495077
827,0.866563,-1.755601,9.731939,25.238510,-20.569813,-38.811169,-9.515082,-3.467604,-60.593479,0.858790,-0.086790,0.015788,-0.504677
828,0.806198,-1.581655,9.723931,26.031864,-11.118085,-35.622261,-8.584242,-4.184369,-61.737492,0.853965,-0.082876,0.007126,-0.513638
829,0.819245,-1.467022,9.738000,22.144703,-5.659560,-33.525051,-7.697304,-4.624115,-62.842415,0.849329,-0.078216,0.000615,-0.522037
830,0.822602,-1.345070,9.743320,20.260250,-1.739440,-31.802933,-6.902530,-4.884969,-63.910435,0.844796,-0.073545,-0.004261,-0.529993
831,0.632920,-1.198969,9.650486,18.752518,8.473669,-28.943727,-6.165586,-4.888744,-64.932846,0.840488,-0.068194,-0.007089,-0.537476
832,0.549014,-1.133231,9.694841,13.492067,12.990321,-24.797390,-5.551789,-4.624354,-65.863960,0.836587,-0.062522,-0.007515,-0.544203
833,0.622778,-1.136300,9.703538,5.264447,8.310719,-21.035667,-5.177352,-4.342536,-66.660339,0.833126,-0.058506,-0.006824,-0.549938
834,0.557373,-1.115138,9.730138,0.984169,9.629209,-17.502443,-5.023854,-4.102214,-67.328537,0.830098,-0.056275,-0.005481,-0.554744
835,0.598671,-1.120568,9.722705,-3.427264,6.217025,-14.610538,-5.025864,-3.886192,-67.886253,0.827488,-0.055267,-0.003634,-0.558745
836,0.643956,-1.139519,9.718148,-7.077431,3.082456,-12.275659,-5.170063,-3.771821,-68.347443,0.825215,-0.055761,-0.001879,-0.562056
837,0.687402,-1.127912,9.711318,-8.715955,0.420166,-10.593455,-5.407905,-3.748984,-68.733246,0.823211,-0.057364,-0.000355,-0.564830
838,0.736128,-1.095165,9.785271,-7.822684,-1.629795,-9.971035,-5.661091,-3.802188,-69.073235,0.821377,-0.059442,0.000687,-0.567279
839,0.735577,-1.121379,9.799662,-9.844867,-1.943206,-9.450769,-5.934235,-3.894126,-69.390007,0.819616,-0.061848,0.001549,-0.569563
840,0.786234,-1.133859,9.807238,-14.294641,-4.478353,-10.952661,-6.313898,-4.036875,-69.717476,0.817702,-0.065262,0.002599,-0.571925
841,0.783213,-1.189906,9.839728,-18.714689,-4.157689,-12.213906,-6.837479,-4.224143,-70.085533,0.815450,-0.069913,0.004097,-0.574576
842,0.722293,-1.288316,9.880667,-22.508650,-0.801863,-13.171352,-7.493806,-4.358990,-70.496063,0.812892,-0.075231,0.006695,-0.577497
843,0.725620,-1.366437,9.850422,-25.282818,-1.020943,-14.366742,-8.255710,-4.452003,-70.947655,0.810033,-0.081059,0.010193,-0.580666
844,0.856961,-1.396927,9.807206,-23.217487,-6.514709,-15.617471,-9.026161,-4.651261,-71.424309,0.806912,-0.087451,0.013046,-0.584017
845,0.830756,-1.488531,9.810679,-22.227749,-3.820074,-14.467937,-9.744321,-4.902861,-71.892899,0.803770,-0.093714,0.015310,-0.587313
846,0.895274,-1.565747,9.792630,-18.765060,-4.009176,-12.400287,-10.390967,-5.109611,-72.312424,0.800914,-0.099232,0.017530,-0.590240
847,0.992051,-1.697898,9.769268,-18.682608,-6.465661,-10.497375,-10.983670,-5.351920,-72.656509,0.798417,-0.104550,0.019194,-0.592648
848,1.003739,-1.788676,9.736794,-13.565530,-4.655332,-7.462429,-11.496352,-5.592152,-72.915222,0.796396,-0.109301,0.020407,-0.594466
849,0.897400,-1.874728,9.653365,-7.596148,1.808287,-2.825720,-11.833423,-5.673296,-73.074318,0.795174,-0.112028,0.021744,-0.595546
850,0.952498,-1.816907,9.632540,9.917825,1.775419,1.028621,-11.790698,-5.620977,-73.115906,0.795046,-0.111456,0.021928,-0.595818
851,1.160444,-1.747869,9.599759,25.253288,-9.676194,3.308601,-11.214195,-5.735533,-73.018272,0.796006,-0.108058,0.018037,-0.595292
852,1.140665,-1.654039,9.607738,36.022636,-4.761321,9.992676,-10.219876,-5.930643,-72.754021,0.798125,-0.102175,0.011269,-0.593657
853,1.063129,-1.528436,9.539520,46.266811,-0.039233,16.564554,-8.895024,-5.935823,-72.302505,0.801583,-0.092983,0.004003,-0.590596
854,0.831863,-1.544340,10.001345,46.222473,12.549715,22.977133,-7.416673,-5.635736,-71.677246,0.806132,-0.081093,-0.001947,-0.586150
855,0.807697,-1.430446,10.028357,41.062233,10.102792,22.030176,-6.027887,-5.172547,-70.975029,0.810910,-0.068928,-0.006198,-0.581064
856,0.547085,-1.285468,10.070647,30.761770,16.190828,19.383711,-4.886744,-4.670564,-70.327255,0.815089,-0.058269,-0.008749,-0.576332
857,0.529672,-1.064779,10.055717,22.540731,12.695813,14.515042,-4.038567,-4.146482,-69.800858,0.818372,-0.049566,-0.009505,-0.572468
858,0.612773,-0.935598,10.162725,12.269482,4.989309,8.725974,-3.484004,-3.826962,-69.432884,0.820565,-0.043981,-0.010130,-0.569769
859,0.888152,-0.589422,9.795405,14.472613,-11.321446,2.082800,-3.051005,-3.922007,-69.246498,0.821615,-0.041330,-0.013032,-0.568393
860,0.876251,-0.493113,9.820391,12.612740,-12.523911,0.292703,-2.604153,-4.317202,-69.186676,0.821920,-0.040072,-0.018106,-0.567903
861,0.900298,-0.444372,9.868673,9.692141,-9.299891,-0.863731,-2.232938,-4.681049,-69.180725,0.821937,-0.039207,-0.022561,-0.567779
862,0.890426,-0.368193,9.871811,9.775700,-4.764658,-1.960431,-1.905272,-4.917033,-69.219444,0.821764,-0.038032,-0.025866,-0.567969
863,0.874028,-0.295347,9.899180,10.255305,-1.028667,-2.642347,-1.565042,-5.015894,-69.293587,0.821468,-0.036099,-0.028238,-0.568410
864,0.819037,-0.225258,9.937423,10.664244,3.418944,-2.611996,-1.208664,-4.978203,-69.382523,0.821149,-0.033381,-0.029710,-0.568962
865,0.780732,-0.170299,9.912379,10.111163,5.192151,-2.241224,-0.855265,-4.836165,-69.466408,0.820880,-0.030166,-0.030424,-0.569491
866,0.751168,-0.102050,9.900236,10.636097,5.299889,-1.395352,-0.504284,-4.662026,-69.529358,0.820711,-0.026804,-0.030905,-0.569877
867,0.758850,-0.078502,9.901404,8.095961,2.975304,-0.205584,-0.189888,-4.524248,-69.556946,0.820685,-0.023875,-0.031476,-0.570013
868,0.744798,-0.048531,9.881679,6.391622,2.114590,0.771404,0.050830,-4.439385,-69.547569,0.820804,-0.021726,-0.032067,-0.569896
869,0.762673,-0.035542,9.876188,4.902843,0.083302,1.309409,0.236375,-4.402822,-69.512688,0.821021,-0.020205,-0.032734,-0.569601
870,0.796484,-0.007624,9.881798,4.521669,-1.639220,1.685243,0.389598,-4.429016,-69.462753,0.821289,-0.019223,-0.033692,-0.569193
871,0.854553,0.007786,9.862692,3.466229,-3.957191,1.593701,0.518502,-4.522713,-69.408646,0.821554,-0.018748,-0.035012,-0.568746
872,0.853137,0.029307,9.882137,2.887271,-3.145929,1.189638,0.620759,-4.641551,-69.363266,0.821765,-0.018590,-0.036379,-0.568361
873,0.879198,0.041742,9.874748,2.260725,-3.377894,0.951345,0.703730,-4.750687,-69.328735,0.821921,-0.018526,-0.037578,-0.568059
874,0.862066,0.077648,9.863509,2.268667,-1.917888,0.892544,0.776735,-4.839340,-69.299042,0.822056,-0.018432,-0.038581,-0.567800
875,0.860937,0.025405,9.868430,-2.950412,-1.605389,1.482115,0.762072,-4.898587,-69.260117,0.822230,-0.018818,-0.038939,-0.567510
876,0.786417,0.060147,9.830485,-0.074815,2.172960,1.818352,0.706933,-4.889819,-69.204758,0.822497,-0.019151,-0.038612,-0.567134
877,0.812263,0.057826,9.793483,-1.583864,1.168775,3.056282,0.672334,-4.835119,-69.122543,0.822913,-0.019101,-0.038062,-0.566569
878,0.704304,0.065927,9.816088,-2.166793,6.720244,4.495217,0.599189,-4.705033,-68.994797,0.823568,-0.018942,-0.036788,-0.565707
