seq,ax,ay,az,wroll,wpitch,wyaw,roll,pitch,yaw,q0,q1,q2,q3
3982,0.027535,-7.094705,6.694664,-0.253648,0.435987,0.062133,-46.661728,-0.161729,0.171392,0.918232,-0.396037,-0.001888,0.000814
3984,0.020651,-7.110690,6.682652,-0.291815,0.413103,0.071293,-46.673573,-0.149746,0.163245,0.918191,-0.396133,-0.001764,0.000790
3985,0.021844,-7.111936,6.684363,-0.145362,0.390221,0.052989,-46.688084,-0.136987,0.154944,0.918141,-0.396249,-0.001633,0.000768
3986,0.010037,-7.099008,6.684120,0.075874,0.341402,0.025536,-46.693813,-0.124353,0.146981,0.918122,-0.396295,-0.001505,0.000748
3987,0.008162,-7.098079,6.688663,0.220829,-0.056846,0.034710,-46.690304,-0.115222,0.144222,0.918134,-0.396267,-0.001422,0.000757
3988,0.012900,-7.098369,6.684412,0.263549,-0.285722,0.027095,-46.683468,-0.114529,0.149086,0.918157,-0.396213,-0.001433,0.000799
3989,0.015060,-7.086535,6.689487,0.306275,-0.299448,0.014895,-46.673908,-0.118531,0.156662,0.918190,-0.396136,-0.001491,0.000846
3991,0.018954,-7.079497,6.686770,0.127754,-0.487133,0.068307,-46.664291,-0.125418,0.167145,0.918224,-0.396059,-0.001583,0.000906
3992,0.033670,-7.090939,6.691762,-0.093497,-0.543599,0.115603,-46.662239,-0.137159,0.181740,0.918230,-0.396042,-0.001727,0.000982
3993,0.042544,-7.089271,6.689871,-0.220148,-0.207918,0.109476,-46.667259,-0.149205,0.193425,0.918213,-0.396082,-0.001864,0.001034
3994,0.041426,-7.087308,6.690691,-0.253715,-0.000415,0.100295,-46.674496,-0.155952,0.198349,0.918188,-0.396139,-0.001935,0.001050
3995,0.037883,-7.097632,6.688720,-0.149953,0.037714,0.097224,-46.681431,-0.158494,0.200157,0.918164,-0.396195,-0.001962,0.001056
3996,0.041812,-7.090665,6.692151,0.014847,0.239119,0.057531,-46.683647,-0.158580,0.198569,0.918156,-0.396213,-0.001957,0.001043
3998,0.045593,-7.091321,6.688244,0.036216,0.335230,0.040722,-46.681671,-0.157375,0.192725,0.918163,-0.396197,-0.001927,0.001000
3999,0.042206,-7.090560,6.689627,-0.009559,0.365725,0.048328,-46.680431,-0.154950,0.185241,0.918167,-0.396187,-0.001882,0.000949
4000,0.044212,-7.095767,6.688590,-0.041602,0.371807,0.057460,-46.681141,-0.151751,0.177507,0.918165,-0.396193,-0.001830,0.000898
4001,0.049481,-7.093817,6.686994,-0.078229,0.379409,0.055903,-46.683830,-0.149917,0.169696,0.918156,-0.396215,-0.001788,0.000841
4002,0.050018,-7.105915,6.686549,-0.156062,0.379377,0.057396,-46.689964,-0.149296,0.161797,0.918135,-0.396264,-0.001756,0.000780
4003,0.046435,-7.101075,6.689245,-0.047734,0.383923,0.045156,-46.695953,-0.148234,0.153719,0.918114,-0.396312,-0.001719,0.000719
4005,0.044267,-7.100417,6.689324,0.091119,0.391526,0.023764,-46.696285,-0.146373,0.145105,0.918113,-0.396315,-0.001675,0.000656
4006,0.041208,-7.091484,6.693347,0.141481,0.388451,0.003902,-46.691376,-0.144038,0.135959,0.918130,-0.396276,-0.001624,0.000591
4007,0.035593,-7.089403,6.689866,0.083507,0.376225,0.006934,-46.685192,-0.140528,0.126803,0.918151,-0.396226,-0.001564,0.000530
4008,0.032061,-7.077824,6.690740,0.078947,0.377738,0.002343,-46.678951,-0.135570,0.117757,0.918173,-0.396177,-0.001493,0.000475
4009,0.029338,-7.074249,6.693214,0.126279,0.367047,-0.008350,-46.669899,-0.129962,0.108644,0.918204,-0.396104,-0.001417,0.000421
4010,0.029744,-7.072008,6.696229,0.100372,0.370089,-0.008360,-46.659428,-0.124469,0.099501,0.918241,-0.396021,-0.001341,0.000367
4012,0.032765,-7.078496,6.692442,0.108028,0.373129,-0.005322,-46.650600,-0.119908,0.090324,0.918271,-0.395950,-0.001273,0.000309
4013,0.038961,-7.077837,6.703038,0.144675,0.370056,-0.012972,-46.641491,-0.117537,0.081097,0.918303,-0.395877,-0.001222,0.000244
4014,0.039597,-7.083221,6.697277,0.143171,0.374609,-0.016051,-46.632336,-0.116844,0.071732,0.918334,-0.395804,-0.001184,0.000171
4015,0.044404,-7.082674,6.695916,0.138603,0.379157,-0.002350,-46.625565,-0.117085,0.062384,0.918358,-0.395750,-0.001154,0.000096
4016,0.050341,-7.079298,6.696498,0.103517,0.366912,0.011344,-46.619568,-0.119206,0.053444,0.918378,-0.395702,-0.001140,0.000017
4017,0.056759,-7.078109,6.699264,0.011974,0.366867,0.029608,-46.615017,-0.123422,0.045018,0.918394,-0.395665,-0.001145,-0.000065
4019,0.055551,-7.080499,6.693824,0.037923,0.369871,0.028032,-46.612450,-0.128213,0.036749,0.918403,-0.395645,-0.001154,-0.000148
4020,0.051553,-7.079799,6.704596,0.115755,0.353043,0.037141,-46.607864,-0.131745,0.028735,0.918419,-0.395608,-0.001155,-0.000225
4021,0.053214,-7.079759,6.705832,0.127981,0.356054,0.026417,-46.600201,-0.134710,0.020866,0.918445,-0.395547,-0.001152,-0.000298
4022,0.049837,-7.079465,6.706975,0.230237,0.356016,-0.008720,-46.590660,-0.137641,0.012436,0.918478,-0.395470,-0.001146,-0.000375
4023,0.043524,-7.077810,6.710954,0.340123,0.342250,-0.030116,-46.577160,-0.139317,0.003526,0.918525,-0.395362,-0.001129,-0.000452
4024,0.041459,-7.068298,6.711860,0.332519,0.337648,-0.039299,-46.560524,-0.139780,-0.005513,0.918582,-0.395229,-0.001101,-0.000526
4026,0.048728,-7.071436,6.709588,0.294397,0.328463,-0.034752,-46.544991,-0.141409,-0.014437,0.918635,-0.395104,-0.001084,-0.000603
4027,0.048263,-7.076422,6.713568,0.279154,0.311645,-0.031735,-46.532261,-0.144498,-0.022953,0.918679,-0.395002,-0.001079,-0.000682
4028,0.044929,-7.074123,6.718202,0.259332,0.310089,-0.010404,-46.520210,-0.146593,-0.030965,0.918721,-0.394906,-0.001069,-0.000753
4029,0.048302,-7.075109,6.718024,0.181525,0.311586,-0.004331,-46.509800,-0.148189,-0.038661,0.918756,-0.394822,-0.001055,-0.000821
4030,0.045617,-7.081668,6.719436,0.089976,0.306978,0.015474,-46.503803,-0.149512,-0.046017,0.918777,-0.394774,-0.001040,-0.000884
4031,0.040415,-7.085732,6.718387,0.045722,0.319161,0.015449,-46.501999,-0.148861,-0.053232,0.918783,-0.394760,-0.001010,-0.000940
4033,0.037714,-7.080318,6.717482,0.004519,0.323721,0.016956,-46.501972,-0.146433,-0.060631,0.918783,-0.394760,-0.000965,-0.000991
4034,0.037592,-7.084078,6.712909,-0.077890,0.309971,0.021517,-46.504620,-0.143591,-0.067847,0.918774,-0.394781,-0.000918,-0.001039
4035,0.036812,-7.086088,6.710730,-0.109949,0.306902,0.047440,-46.510830,-0.140574,-0.074507,0.918753,-0.394831,-0.000870,-0.001082
4036,0.037737,-7.087209,6.714244,-0.080971,0.297729,0.036740,-46.517029,-0.137736,-0.080844,0.918731,-0.394881,-0.000826,-0.001123
4037,0.037572,-7.078229,6.716993,-0.077924,0.299236,0.032142,-46.520332,-0.135515,-0.087272,0.918720,-0.394907,-0.000786,-0.001167
4038,0.039260,-7.079128,6.717146,-0.045873,0.303793,0.026017,-46.521233,-0.133825,-0.093900,0.918717,-0.394915,-0.000749,-0.001214
4040,0.038342,-7.075638,6.719291,0.016699,0.309876,0.025994,-46.519741,-0.132368,-0.100730,0.918722,-0.394903,-0.000714,-0.001264
4041,0.035107,-7.070554,6.722596,0.054867,0.309857,0.006137,-46.514656,-0.130376,-0.107865,0.918739,-0.394862,-0.000674,-0.001314
4042,0.038818,-7.063949,6.724818,0.096096,0.320519,0.003064,-46.506111,-0.128749,-0.115396,0.918769,-0.394793,-0.000635,-0.001369
4043,0.039639,-7.070457,6.724124,0.123593,0.323548,-0.006116,-46.496643,-0.128120,-0.123232,0.918801,-0.394718,-0.000603,-0.001429
4044,0.038585,-7.072454,6.724350,0.111406,0.315894,-0.003088,-46.488735,-0.127642,-0.131077,0.918828,-0.394654,-0.000572,-0.001491
4045,0.042199,-7.066325,6.725487,0.018345,0.315869,0.010618,-46.482410,-0.127588,-0.138637,0.918850,-0.394603,-0.000546,-0.001551
4047,0.042393,-7.064795,6.727174,0.021422,0.311265,0.013641,-46.476624,-0.128151,-0.145950,0.918870,-0.394557,-0.000525,-0.001612
4048,0.040959,-7.064478,6.726545,0.045863,0.303608,0.015138,-46.470379,-0.128540,-0.153062,0.918891,-0.394507,-0.000504,-0.001670
4049,0.040559,-7.063772,6.728705,0.033680,0.285271,0.028845,-46.463982,-0.128651,-0.159685,0.918913,-0.394456,-0.000482,-0.001723
4050,0.040015,-7.065251,6.734845,-0.021224,0.289825,0.037975,-46.458057,-0.128438,-0.165879,0.918933,-0.394408,-0.000459,-0.001772
4051,0.045614,-7.077153,6.732201,-0.013575,0.294373,0.025738,-46.454636,-0.129139,-0.172215,0.918945,-0.394381,-0.000443,-0.001825
4052,0.042614,-7.073856,6.729126,-0.056291,0.295870,0.037914,-46.454082,-0.130262,-0.178619,0.918947,-0.394377,-0.000430,-0.001881
4054,0.045704,-7.077775,6.726419,-0.126481,0.291263,0.051616,-46.456448,-0.131068,-0.184685,0.918939,-0.394396,-0.000415,-0.001932
4055,0.046679,-7.074236,6.730286,-0.094433,0.297334,0.053107,-46.459274,-0.132403,-0.190595,0.918929,-0.394418,-0.000406,-0.001984
4056,0.051074,-7.082345,6.724237,-0.083750,0.295772,0.050019,-46.462139,-0.134684,-0.196577,0.918919,-0.394441,-0.000403,-0.002040
4057,0.042168,-7.072032,6.724896,-0.089855,0.291163,0.048458,-46.465210,-0.136093,-0.202537,0.918908,-0.394466,-0.000394,-0.002093
4058,0.047631,-7.083697,6.723213,-0.091383,0.295710,0.060635,-46.468536,-0.136579,-0.208374,0.918897,-0.394493,-0.000378,-0.002141
4059,0.049398,-7.082839,6.724569,-0.041035,0.289573,0.051444,-46.472336,-0.138391,-0.214156,0.918883,-0.394523,-0.000372,-0.002194
4060,0.051809,-7.077138,6.717852,-0.071561,0.286485,0.048353,-46.475445,-0.141208,-0.219968,0.918873,-0.394548,-0.000375,-0.002250
4061,0.050514,-7.070758,6.718296,-0.121917,0.278818,0.055944,-46.478939,-0.144170,-0.225601,0.918860,-0.394576,-0.000379,-0.002305
4062,0.058644,-7.073890,6.714473,-0.123443,0.278777,0.069634,-46.483101,-0.148115,-0.230898,0.918846,-0.394610,-0.000393,-0.002361
4063,0.059129,-7.069316,6.717967,-0.100553,0.277205,0.061956,-46.486523,-0.153465,-0.236108,0.918834,-0.394637,-0.000417,-0.002422
4064,0.054587,-7.066519,6.714263,-0.117330,0.287845,0.058860,-46.488625,-0.157742,-0.241555,0.918826,-0.394654,-0.000433,-0.002480
4065,0.055774,-7.073255,6.713336,-0.059342,0.295435,0.048138,-46.491035,-0.161001,-0.247378,0.918818,-0.394673,-0.000439,-0.002538
4066,0.051646,-7.068915,6.712649,0.071888,0.292348,0.013003,-46.490700,-0.163933,-0.253782,0.918819,-0.394671,-0.000440,-0.002599
4067,0.046580,-7.061537,6.716035,0.258060,0.287742,-0.016019,-46.483028,-0.165729,-0.260835,0.918845,-0.394609,-0.000431,-0.002662
4068,0.051742,-7.049766,6.720683,0.380163,0.281609,-0.037412,-46.466766,-0.168125,-0.268346,0.918901,-0.394479,-0.000424,-0.002731
4069,0.051255,-7.046359,6.726331,0.387834,0.278526,-0.029816,-46.445621,-0.171572,-0.275912,0.918973,-0.394310,-0.000427,-0.002803
4070,0.046883,-7.050518,6.726019,0.255117,0.272396,-0.006956,-46.427155,-0.173602,-0.283014,0.919037,-0.394161,-0.000419,-0.002867
4071,0.048467,-7.049516,6.731710,0.213951,0.273896,0.014381,-46.412560,-0.174416,-0.289547,0.919087,-0.394044,-0.000403,-0.002922
4072,0.050835,-7.058994,6.734787,0.101062,0.272343,0.038767,-46.401550,-0.175344,-0.295549,0.919124,-0.393956,-0.000390,-0.002973
4073,0.045364,-7.069695,6.733988,-0.034733,0.273844,0.054000,-46.397945,-0.175112,-0.301083,0.919137,-0.393927,-0.000370,-0.003017
4074,0.047821,-7.073955,6.734042,-0.049994,0.270770,0.050925,-46.399471,-0.174129,-0.306450,0.919131,-0.393940,-0.000343,-0.003057
4075,0.049183,-7.068460,6.733934,-0.017948,0.273797,0.050898,-46.400623,-0.173973,-0.311852,0.919127,-0.393949,-0.000323,-0.003099
4076,0.044035,-7.076363,6.732894,-0.072884,0.278352,0.069186,-46.402554,-0.172806,-0.317135,0.919120,-0.393964,-0.000296,-0.003138
4077,0.043302,-7.077179,6.734690,-0.104935,0.281385,0.064588,-46.406910,-0.170274,-0.322349,0.919105,-0.393999,-0.000257,-0.003171
4078,0.042561,-7.081403,6.731914,-0.150724,0.279840,0.072199,-46.413162,-0.167522,-0.327546,0.919084,-0.394049,-0.000217,-0.003203
4079,0.037462,-7.079733,6.734831,-0.191933,0.288981,0.084390,-46.420841,-0.163477,-0.332607,0.919057,-0.394111,-0.000167,-0.003230
4080,0.041038,-7.089886,6.737931,-0.259082,0.288966,0.090478,-46.430153,-0.159028,-0.337571,0.919025,-0.394185,-0.000114,-0.003254
4081,0.051670,-7.085275,6.735945,-0.307922,0.287415,0.082822,-46.441418,-0.157672,-0.342535,0.918986,-0.394276,-0.000086,-0.003290
4082,0.050712,-7.082058,6.732666,-0.367437,0.293486,0.094995,-46.453495,-0.158302,-0.347506,0.918945,-0.394373,-0.000074,-0.003332
4083,0.053961,-7.080848,6.730553,-0.303349,0.301081,0.081225,-46.464890,-0.159275,-0.352663,0.918905,-0.394464,-0.000063,-0.003376
4084,0.054963,-7.078424,6.725022,-0.211794,0.296467,0.070505,-46.473495,-0.161296,-0.358140,0.918875,-0.394533,-0.000060,-0.003427
4085,0.053176,-7.064705,6.727490,-0.161426,0.299482,0.067416,-46.477325,-0.163265,-0.363764,0.918862,-0.394564,-0.000057,-0.003479
4086,0.048875,-7.065256,6.727052,-0.147669,0.304029,0.078064,-46.477600,-0.163740,-0.369401,0.918861,-0.394566,-0.000041,-0.003526
4087,0.045245,-7.065653,6.729879,-0.063717,0.300951,0.071932,-46.475914,-0.162507,-0.375006,0.918867,-0.394552,-0.000012,-0.003567
4088,0.044389,-7.060169,6.734070,-0.057579,0.303980,0.076486,-46.471085,-0.160440,-0.380632,0.918883,-0.394514,0.000024,-0.003605
4089,0.048608,-7.067558,6.731270,-0.114006,0.310058,0.076459,-46.467373,-0.158979,-0.386315,0.918896,-0.394484,0.000055,-0.003645
4090,0.048655,-7.070123,6.730554,-0.088043,0.305451,0.056591,-46.466290,-0.158689,-0.392238,0.918899,-0.394475,0.000078,-0.003692
4091,0.050719,-7.068711,6.727213,-0.052929,0.297791,0.050455,-46.465088,-0.159328,-0.398308,0.918903,-0.394466,0.000093,-0.003742
4092,0.054935,-7.073210,6.721756,-0.130742,0.309964,0.062626,-46.466328,-0.161063,-0.404358,0.918899,-0.394476,0.000100,-0.003797
4093,0.053447,-7.068706,6.720755,-0.145997,0.316031,0.056484,-46.470039,-0.162975,-0.410557,0.918886,-0.394505,0.000107,-0.003853
4094,0.054707,-7.066456,6.722701,-0.161245,0.312944,0.056447,-46.473045,-0.164767,-0.416866,0.918875,-0.394529,0.000114,-0.003910
4095,0.052248,-7.067919,6.720008,-0.158182,0.332747,0.071669,-46.476032,-0.165827,-0.423205,0.918864,-0.394553,0.000127,-0.003964
4096,0.046984,-7.069757,6.721122,-0.149018,0.334244,0.060958,-46.479282,-0.164980,-0.429748,0.918853,-0.394579,0.000157,-0.004014
4097,0.045749,-7.068491,6.722423,-0.126117,0.326589,0.039569,-46.481525,-0.163309,-0.436587,0.918845,-0.394597,0.000194,-0.004063
4098,0.041689,-7.067882,6.720660,-0.115421,0.308257,0.038020,-46.482841,-0.161264,-0.443377,0.918840,-0.394608,0.000234,-0.004111
4099,0.038287,-7.064802,6.720833,-0.080309,0.303663,0.027322,-46.483002,-0.158295,-0.450032,0.918840,-0.394609,0.000280,-0.004154
4100,0.042662,-7.070528,6.722371,-0.036042,0.294489,0.013571,-46.481903,-0.156134,-0.456800,0.918843,-0.394600,0.000321,-0.004200
4101,0.047336,-7.064948,6.725336,0.050952,0.292938,0.008967,-46.478020,-0.156259,-0.463651,0.918856,-0.394569,0.000343,-0.004256
4102,0.047084,-7.057605,6.727364,0.078449,0.291384,0.013514,-46.469952,-0.157358,-0.470471,0.918884,-0.394504,0.000358,-0.004314
4103,0.052775,-7.060993,6.726752,0.061695,0.295931,0.021111,-46.461361,-0.159301,-0.477188,0.918913,-0.394436,0.000365,-0.004375
4104,0.055074,-7.065814,6.730058,0.084609,0.295895,0.024125,-46.453960,-0.162519,-0.483834,0.918938,-0.394376,0.000362,-0.004439
4105,0.054847,-7.058715,6.730520,0.109049,0.291281,0.030189,-46.445450,-0.165912,-0.490320,0.918967,-0.394308,0.000357,-0.004503
4106,0.054125,-7.058843,6.730869,0.069405,0.288193,0.027100,-46.436676,-0.168955,-0.496679,0.918997,-0.394238,0.000354,-0.004565
4107,0.055633,-7.058558,6.734150,0.103004,0.282053,0.016380,-46.428043,-0.172207,-0.503084,0.919026,-0.394169,0.000349,-0.004627
4108,0.053940,-7.053668,6.738809,0.127453,0.285071,0.010240,-46.417191,-0.175449,-0.509648,0.919063,-0.394082,0.000346,-0.004691
4109,0.054180,-7.050543,6.735672,0.074084,0.288090,0.010205,-46.406178,-0.178199,-0.516357,0.919101,-0.393993,0.000346,-0.004754
4110,0.052449,-7.057428,6.737825,0.061908,0.277377,0.010172,-46.397633,-0.180544,-0.522969,0.919130,-0.393925,0.000350,-0.004815
4111,0.053802,-7.058806,6.736768,0.037516,0.278872,0.025400,-46.391308,-0.182559,-0.529289,0.919151,-0.393874,0.000355,-0.004873
4112,0.051518,-7.071333,6.732778,-0.050980,0.278843,0.046732,-46.389957,-0.183782,-0.535196,0.919156,-0.393863,0.000365,-0.004925
4113,0.053574,-7.078183,6.729817,-0.069302,0.263555,0.049754,-46.394241,-0.184724,-0.540624,0.919141,-0.393898,0.000377,-0.004971
4114,0.050923,-7.085567,6.729665,-0.089162,0.257423,0.060406,-46.401424,-0.185551,-0.545631,0.919116,-0.393955,0.000388,-0.005014
4115,0.052786,-7.086952,6.726448,-0.131917,0.258921,0.063429,-46.410931,-0.186050,-0.550420,0.919083,-0.394032,0.000400,-0.005054
4116,0.053513,-7.082143,6.729584,-0.115156,0.249737,0.046614,-46.419865,-0.187269,-0.555280,0.919052,-0.394103,0.000408,-0.005098
4117,0.055206,-7.075818,6.730685,-0.090751,0.243603,0.037426,-46.425392,-0.189400,-0.560263,0.919033,-0.394148,0.000408,-0.005145
4118,0.049271,-7.072431,6.731655,-0.070916,0.251206,0.028241,-46.428097,-0.190801,-0.565482,0.919023,-0.394169,0.000415,-0.005192
4119,0.049987,-7.060738,6.737185,0.023708,0.246604,0.020588,-46.425663,-0.191239,-0.570943,0.919031,-0.394150,0.000430,-0.005237
4120,0.046414,-7.060008,6.734829,0.016105,0.242005,0.019040,-46.419643,-0.191279,-0.576406,0.919052,-0.394102,0.000448,-0.005281
4121,0.041430,-7.061861,6.733055,-0.003710,0.255723,0.022076,-46.415104,-0.189508,-0.581957,0.919067,-0.394065,0.000481,-0.005319
4122,0.046712,-7.067720,6.729910,0.037501,0.261811,0.022059,-46.412285,-0.187586,-0.587706,0.919076,-0.394042,0.000516,-0.005359
4123,0.048825,-7.071070,6.727907,0.075649,0.258738,0.029667,-46.410378,-0.187105,-0.593396,0.919083,-0.394027,0.000540,-0.005403
4124,0.051311,-7.066847,6.725894,0.066490,0.266344,0.025063,-46.408585,-0.187519,-0.599104,0.919089,-0.394013,0.000556,-0.005450
4125,0.054853,-7.065944,6.728848,0.078698,0.260211,0.025033,-46.406044,-0.189157,-0.604885,0.919097,-0.393992,0.000563,-0.005502
4126,0.056708,-7.069867,6.728771,0.093958,0.251024,0.034154,-46.403187,-0.191844,-0.610375,0.919107,-0.393970,0.000560,-0.005555
4127,0.052413,-7.065391,6.731334,0.103114,0.246416,0.024968,-46.399681,-0.194067,-0.615701,0.919118,-0.393941,0.000560,-0.005606
4128,0.054909,-7.058454,6.734377,0.075658,0.250966,0.015782,-46.394356,-0.196002,-0.621244,0.919136,-0.393899,0.000563,-0.005657
4129,0.050847,-7.065933,6.740948,0.023794,0.252466,0.012702,-46.389355,-0.197562,-0.627004,0.919153,-0.393859,0.000570,-0.005708
4130,0.048572,-7.058404,6.741734,0.002451,0.257021,0.009627,-46.384872,-0.197764,-0.632910,0.919168,-0.393823,0.000589,-0.005756
4131,0.044974,-7.051361,6.743340,0.002481,0.257003,0.008084,-46.378746,-0.196771,-0.638930,0.919189,-0.393774,0.000617,-0.005801
4133,0.043196,-7.036837,6.744361,-0.012734,0.266145,0.014172,-46.369930,-0.194603,-0.645017,0.919219,-0.393703,0.000655,-0.005843
4134,0.041169,-7.045494,6.743741,-0.108820,0.264607,0.035523,-46.362637,-0.191379,-0.650880,0.919244,-0.393644,0.000701,-0.005879
4135,0.041165,-7.040985,6.739512,-0.160664,0.253914,0.049244,-46.359585,-0.187655,-0.656185,0.919254,-0.393619,0.000749,-0.005909
4136,0.042784,-7.042834,6.737015,-0.168261,0.256953,0.056859,-46.358467,-0.184315,-0.661148,0.919258,-0.393610,0.000792,-0.005937
4137,0.046939,-7.047534,6.736137,-0.087362,0.261513,0.035478,-46.357624,-0.182418,-0.666356,0.919261,-0.393603,0.000825,-0.005972
4138,0.046739,-7.062643,6.739902,-0.065985,0.253862,0.029351,-46.357418,-0.181822,-0.671835,0.919261,-0.393602,0.000849,-0.006014
4139,0.047364,-7.060564,6.736053,-0.033935,0.252315,0.026277,-46.358128,-0.181601,-0.677303,0.919258,-0.393607,0.000870,-0.006057
4140,0.046420,-7.059202,6.733622,0.002689,0.250767,0.038462,-46.358101,-0.181277,-0.682628,0.919258,-0.393607,0.000890,-0.006099
4141,0.044980,-7.057435,6.740461,0.042371,0.255325,0.039967,-46.355732,-0.180303,-0.687835,0.919266,-0.393588,0.000916,-0.006137
4142,0.041748,-7.053045,6.744249,-0.011016,0.255308,0.053682,-46.351337,-0.178220,-0.692928,0.919281,-0.393553,0.000950,-0.006171
4143,0.040619,-7.049574,6.744342,-0.055242,0.256820,0.061297,-46.347183,-0.175113,-0.697798,0.919295,-0.393519,0.000991,-0.006199
4144,0.040401,-7.048489,6.750241,-0.049106,0.255280,0.053653,-46.342487,-0.171915,-0.702671,0.919311,-0.393481,0.001034,-0.006228
4145,0.039981,-7.053204,6.759283,0.030280,0.261370,0.033800,-46.335037,-0.169070,-0.707918,0.919336,-0.393421,0.001074,-0.006260
4146,0.036019,-7.058074,6.756088,0.073039,0.259832,0.017003,-46.326427,-0.165951,-0.713638,0.919366,-0.393352,0.001118,-0.006295
4147,0.045108,-7.056852,6.756371,0.057808,0.253712,0.016986,-46.318802,-0.164321,-0.719453,0.919392,-0.393291,0.001151,-0.006336
4148,0.043301,-7.056535,6.756699,-0.012359,0.262846,0.023067,-46.312832,-0.164166,-0.725234,0.919412,-0.393243,0.001172,-0.006382
4149,0.043848,-7.060025,6.755391,-0.055063,0.261299,0.036778,-46.309780,-0.163496,-0.730874,0.919422,-0.393218,0.001196,-0.006425
4150,0.050581,-7.061703,6.747081,-0.113040,0.253643,0.058113,-46.310764,-0.163963,-0.735993,0.919418,-0.393226,0.001210,-0.006468
4151,0.054210,-7.051244,6.751342,-0.122183,0.250558,0.062657,-46.312317,-0.166284,-0.740686,0.919413,-0.393238,0.001208,-0.006514
4152,0.049196,-7.060078,6.750185,-0.199990,0.255104,0.073305,-46.314564,-0.168041,-0.745223,0.919405,-0.393257,0.001209,-0.006556
4153,0.055794,-7.059956,6.749702,-0.224396,0.247442,0.074797,-46.319813,-0.169855,-0.749580,0.919386,-0.393299,0.001210,-0.006597
4154,0.056651,-7.053532,6.750547,-0.306781,0.253509,0.085439,-46.325653,-0.172886,-0.753782,0.919366,-0.393346,0.001200,-0.006641
4155,0.055579,-7.054018,6.750529,-0.390686,0.251946,0.073194,-46.332977,-0.175685,-0.758062,0.919340,-0.393405,0.001193,-0.006685
4156,0.050050,-7.060416,6.749478,-0.436444,0.259545,0.065531,-46.343105,-0.177166,-0.762642,0.919305,-0.393486,0.001197,-0.006727
4157,0.049188,-7.047763,6.746904,-0.404377,0.261045,0.059400,-46.352543,-0.177323,-0.767496,0.919273,-0.393561,0.001213,-0.006766
4158,0.047639,-7.044677,6.743133,-0.340257,0.259494,0.057848,-46.358494,-0.177063,-0.772444,0.919252,-0.393609,0.001233,-0.006805
4159,0.045567,-7.043081,6.743936,-0.215095,0.264050,0.033410,-46.360561,-0.176382,-0.777731,0.919245,-0.393626,0.001257,-0.006845
4160,0.041907,-7.031962,6.745893,-0.120440,0.264032,0.019657,-46.356579,-0.175025,-0.783519,0.919258,-0.393594,0.001287,-0.006887
4161,0.036105,-7.005516,6.748261,-0.106631,0.251813,0.034903,-46.345146,-0.172021,-0.789159,0.919297,-0.393502,0.001330,-0.006922
4162,0.033916,-7.019877,6.747891,-0.146222,0.257908,0.039473,-46.332733,-0.167432,-0.794500,0.919339,-0.393402,0.001384,-0.006949
4163,0.030298,-7.022592,6.752170,-0.040862,0.256378,0.024210,-46.321785,-0.162023,-0.800009,0.919377,-0.393314,0.001446,-0.006975
4164,0.033309,-7.030808,6.750917,0.049228,0.248743,0.025730,-46.309422,-0.157091,-0.805558,0.919419,-0.393214,0.001504,-0.007003
4165,0.037821,-7.037812,6.752461,0.061483,0.260939,0.033347,-46.298149,-0.153806,-0.811046,0.919458,-0.393123,0.001548,-0.007035
4166,0.051256,-7.058547,6.747086,0.055401,0.265492,0.042477,-46.291862,-0.153898,-0.816528,0.919479,-0.393073,0.001566,-0.007080
4167,0.052412,-7.099840,6.731893,0.227793,0.247147,0.031760,-46.294666,-0.157099,-0.821830,0.919469,-0.393095,0.001559,-0.007133
4168,0.053929,-7.083721,6.735741,0.587847,0.222697,-0.017107,-46.293716,-0.161913,-0.827287,0.919472,-0.393088,0.001539,-0.007194
4169,0.052344,-7.084084,6.738003,0.667147,0.207401,-0.040033,-46.282398,-0.167776,-0.833101,0.919510,-0.392997,0.001511,-0.007261
4170,0.050306,-7.083313,6.737241,0.659470,0.192111,-0.043117,-46.270016,-0.173239,-0.838845,0.919552,-0.392898,0.001486,-0.007326
4171,0.048764,-7.082828,6.744081,0.689941,0.178350,-0.044672,-46.257023,-0.178011,-0.844291,0.919596,-0.392794,0.001465,-0.007386
4172,0.053619,-7.048018,6.764580,0.606007,0.173744,-0.044702,-46.237144,-0.183326,-0.849558,0.919663,-0.392635,0.001440,-0.007446
4173,0.049209,-7.060425,6.766697,0.207757,0.182872,0.007151,-46.220165,-0.187714,-0.854296,0.919721,-0.392499,0.001419,-0.007500
4174,0.051739,-7.045470,6.767795,0.078068,0.184373,0.031539,-46.212437,-0.190370,-0.858280,0.919747,-0.392437,0.001411,-0.007541
4175,0.052861,-7.047667,6.766976,0.004843,0.175189,0.048295,-46.207146,-0.193107,-0.861699,0.919765,-0.392394,0.001401,-0.007578
4176,0.047718,-7.040775,6.767711,-0.054647,0.182796,0.039115,-46.203876,-0.194808,-0.865012,0.919776,-0.392368,0.001398,-0.007610
4177,0.043422,-7.029710,6.763752,-0.072928,0.187357,0.051304,-46.200207,-0.194353,-0.868441,0.919788,-0.392339,0.001413,-0.007636
4178,0.049852,-7.029974,6.758567,-0.127834,0.193442,0.058915,-46.197811,-0.193926,-0.871770,0.919796,-0.392319,0.001428,-0.007662
4179,0.045751,-7.036280,6.766702,-0.106446,0.194948,0.051264,-46.196655,-0.193892,-0.875188,0.919800,-0.392310,0.001440,-0.007689
4180,0.045223,-7.031296,6.765114,-0.057588,0.196457,0.046669,-46.193703,-0.193073,-0.878786,0.919810,-0.392286,0.001459,-0.007715
4181,0.054041,-7.040816,6.761439,-0.068249,0.193383,0.054274,-46.191605,-0.193887,-0.882325,0.919817,-0.392269,0.001464,-0.007746
4182,0.054339,-7.039624,6.764575,-0.025509,0.191829,0.054244,-46.190346,-0.196442,-0.885715,0.919821,-0.392260,0.001455,-0.007782
4183,0.055072,-7.047074,6.762556,-0.001084,0.199429,0.049636,-46.188759,-0.199066,-0.889229,0.919826,-0.392247,0.001446,-0.007819
4184,0.055016,-7.047107,6.758096,-0.005662,0.207030,0.055710,-46.188877,-0.201455,-0.892903,0.919825,-0.392248,0.001439,-0.007857
4185,0.054907,-7.054973,6.765222,-0.011769,0.211580,0.043474,-46.189911,-0.203571,-0.896790,0.919821,-0.392256,0.001436,-0.007896
4186,0.052609,-7.066107,6.760746,-0.039251,0.210027,0.038868,-46.193665,-0.205218,-0.900900,0.919808,-0.392286,0.001437,-0.007934
4187,0.052645,-7.069244,6.761356,-0.060639,0.216106,0.029687,-46.200542,-0.206404,-0.905216,0.919784,-0.392342,0.001443,-0.007973
4188,0.053878,-7.062938,6.761123,-0.001150,0.196245,0.023559,-46.205948,-0.208088,-0.909546,0.919765,-0.392385,0.001444,-0.008013
4189,0.052257,-7.064731,6.758808,-0.021006,0.182488,0.022008,-46.210037,-0.210087,-0.913563,0.919751,-0.392418,0.001442,-0.008052
4190,0.050177,-7.060241,6.757314,0.027806,0.187045,0.029616,-46.213497,-0.211279,-0.917400,0.919738,-0.392446,0.001446,-0.008087
4191,0.048697,-7.049555,6.758107,0.070525,0.185501,0.011285,-46.213230,-0.211774,-0.921406,0.919739,-0.392444,0.001456,-0.008121
4192,0.047360,-7.038471,6.765289,0.062909,0.185484,0.009743,-46.208199,-0.211929,-0.925637,0.919756,-0.392403,0.001469,-0.008155
4193,0.050699,-7.066031,6.760108,0.033921,0.193097,0.021932,-46.205894,-0.212224,-0.929829,0.919764,-0.392385,0.001480,-0.008190
4194,0.053715,-7.062748,6.755455,0.040002,0.190023,0.018858,-46.208900,-0.213574,-0.933952,0.919753,-0.392409,0.001484,-0.008228
4195,0.051153,-7.063582,6.759509,0.027775,0.190001,0.000523,-46.211731,-0.215254,-0.938286,0.919743,-0.392432,0.001486,-0.008268
4196,0.047185,-7.069605,6.757883,0.067427,0.193036,0.014239,-46.214497,-0.215571,-0.942708,0.919733,-0.392454,0.001498,-0.008305
4197,0.049132,-7.074845,6.752506,0.050610,0.183865,0.032534,-46.219200,-0.215110,-0.946678,0.919717,-0.392491,0.001516,-0.008335
4198,0.040235,-7.039271,6.769862,0.062813,0.183854,0.018790,-46.217945,-0.213358,-0.950509,0.919721,-0.392481,0.001543,-0.008360
4199,0.043947,-7.042089,6.772948,0.018594,0.185373,0.034041,-46.209793,-0.210640,-0.954367,0.919749,-0.392416,0.001577,-0.008382
4200,0.044261,-7.036165,6.770289,-0.088186,0.171628,0.075230,-46.203995,-0.208322,-0.957428,0.919768,-0.392369,0.001606,-0.008398
4201,0.047131,-7.031540,6.774670,-0.111033,0.159408,0.072164,-46.199142,-0.206641,-0.959740,0.919785,-0.392330,0.001627,-0.008411
4202,0.051780,-7.033234,6.769696,-0.135408,0.159389,0.072143,-46.195133,-0.206744,-0.961940,0.919798,-0.392298,0.001634,-0.008429
4203,0.053906,-7.037168,6.767333,-0.139955,0.156313,0.078222,-46.193691,-0.208189,-0.964024,0.919803,-0.392286,0.001629,-0.008451
4204,0.057912,-7.041047,6.767655,-0.109413,0.153233,0.064461,-46.193348,-0.210941,-0.966118,0.919804,-0.392283,0.001614,-0.008477
4205,0.061950,-7.052514,6.764862,-0.037686,0.160830,0.046115,-46.193787,-0.215448,-0.968627,0.919802,-0.392287,0.001587,-0.008513
4206,0.065025,-7.047637,6.771415,-0.026995,0.176052,0.052180,-46.193199,-0.220980,-0.971551,0.919804,-0.392283,0.001552,-0.008555
4207,0.061277,-7.052490,6.770032,-0.036139,0.180596,0.044514,-46.191868,-0.225832,-0.974735,0.919808,-0.392272,0.001524,-0.008597
4208,0.060883,-7.049822,6.769778,-0.071226,0.192771,0.036852,-46.191860,-0.229519,-0.978294,0.919807,-0.392272,0.001507,-0.008639
4209,0.053919,-7.044224,6.773496,-0.084944,0.203428,0.042929,-46.191101,-0.231244,-0.982152,0.919810,-0.392266,0.001506,-0.008675
4210,0.053407,-7.038670,6.770220,-0.051349,0.204935,0.030702,-46.188465,-0.231270,-0.986234,0.919818,-0.392245,0.001519,-0.008708
4211,0.054487,-7.039805,6.771327,-0.078790,0.204915,0.029155,-46.185543,-0.231501,-0.990493,0.919828,-0.392222,0.001532,-0.008743
4212,0.053303,-7.035730,6.774671,-0.048242,0.206422,0.023032,-46.181725,-0.231778,-0.994862,0.919841,-0.392191,0.001544,-0.008779
4213,0.054755,-7.048543,6.769543,-0.097051,0.207928,0.039796,-46.179882,-0.231921,-0.999137,0.919847,-0.392176,0.001558,-0.008814
4214,0.056712,-7.050375,6.768619,-0.084837,0.212483,0.018410,-46.181667,-0.232696,-1.003526,0.919840,-0.392190,0.001567,-0.008852
4215,0.057363,-7.057785,6.772383,-0.106199,0.206356,0.026016,-46.184456,-0.234123,-1.008052,0.919830,-0.392213,0.001571,-0.008893
4216,0.055486,-7.062409,6.765610,-0.119939,0.195652,0.033622,-46.189732,-0.235242,-1.012192,0.919812,-0.392255,0.001576,-0.008930
4217,0.060661,-7.066136,6.767881,-0.213035,0.197154,0.045804,-46.198280,-0.236785,-1.015987,0.919782,-0.392324,0.001578,-0.008966
4218,0.061362,-7.062300,6.765355,-0.185583,0.184919,0.048827,-46.207474,-0.239329,-1.019480,0.919750,-0.392398,0.001570,-0.009002
4219,0.058013,-7.058030,6.769021,-0.152015,0.189470,0.057955,-46.213821,-0.241168,-1.022749,0.919728,-0.392449,0.001567,-0.009035
4220,0.057779,-7.048501,6.767549,-0.173369,0.195551,0.067086,-46.217270,-0.241829,-1.025947,0.919716,-0.392476,0.001573,-0.009063
4221,0.060393,-7.049017,6.769767,-0.206921,0.189423,0.060958,-46.219982,-0.242843,-1.029118,0.919706,-0.392498,0.001576,-0.009092
4222,0.054599,-7.037719,6.769757,-0.110760,0.187876,0.051779,-46.219669,-0.243460,-1.032382,0.919707,-0.392496,0.001582,-0.009120
4223,0.055178,-7.035271,6.768798,-0.095463,0.184806,0.047181,-46.215691,-0.243234,-1.035757,0.919721,-0.392464,0.001595,-0.009146
4224,0.058554,-7.037474,6.761031,-0.101537,0.178682,0.053264,-46.212902,-0.243863,-1.038998,0.919730,-0.392441,0.001601,-0.009175
4225,0.056548,-7.036542,6.766416,-0.104563,0.187816,0.036456,-46.211002,-0.244842,-1.042396,0.919736,-0.392426,0.001605,-0.009205
4226,0.056994,-7.039120,6.762814,-0.103010,0.206107,0.047116,-46.209251,-0.245218,-1.046194,0.919742,-0.392412,0.001614,-0.009237
4227,0.055819,-7.049616,6.763177,-0.080108,0.207613,0.040992,-46.209442,-0.245114,-1.050167,0.919741,-0.392414,0.001629,-0.009269
4228,0.054066,-7.046953,6.765791,-0.060260,0.213699,0.033344,-46.209610,-0.244498,-1.054388,0.919740,-0.392415,0.001648,-0.009300
4229,0.053683,-7.052210,6.764229,-0.084665,0.213683,0.033327,-46.210045,-0.243508,-1.058770,0.919738,-0.392418,0.001671,-0.009332
4230,0.053649,-7.043118,6.766016,-0.055660,0.206036,0.034835,-46.209831,-0.242563,-1.063044,0.919739,-0.392416,0.001693,-0.009363
4231,0.053419,-7.041972,6.764202,-0.063270,0.207546,0.024137,-46.207870,-0.241820,-1.067356,0.919745,-0.392400,0.001714,-0.009395
4232,0.054977,-7.032405,6.763124,-0.093764,0.196847,0.027170,-46.205574,-0.241602,-1.071651,0.919752,-0.392382,0.001730,-0.009429
4233,0.057101,-7.032926,6.766056,-0.105940,0.193775,0.019520,-46.202644,-0.242357,-1.075838,0.919762,-0.392358,0.001738,-0.009465
4234,0.057811,-7.036028,6.769812,-0.115063,0.190702,0.021022,-46.199791,-0.243784,-1.080023,0.919771,-0.392336,0.001741,-0.009504
4236,0.059191,-7.043375,6.764310,-0.151662,0.190679,0.020998,-46.199554,-0.245558,-1.084146,0.919772,-0.392334,0.001741,-0.009543
4237,0.059470,-7.041480,6.768167,-0.130282,0.190655,0.008765,-46.200649,-0.247695,-1.088405,0.919768,-0.392343,0.001738,-0.009584
4238,0.061037,-7.047062,6.764592,-0.075333,0.198259,0.019422,-46.200897,-0.249990,-1.092772,0.919766,-0.392345,0.001735,-0.009627
4239,0.060104,-7.050274,6.757472,-0.064648,0.207391,0.017870,-46.202709,-0.251960,-1.097224,0.919760,-0.392359,0.001734,-0.009670
4240,0.057135,-7.037395,6.759559,-0.028020,0.201265,0.007165,-46.203056,-0.253151,-1.101856,0.919758,-0.392362,0.001741,-0.009711
4241,0.055069,-7.035109,6.759275,0.025406,0.201248,0.005622,-46.199532,-0.253479,-1.106567,0.919770,-0.392334,0.001754,-0.009750
4242,0.047630,-7.030793,6.763952,0.019326,0.202763,0.019343,-46.193806,-0.251735,-1.111161,0.919789,-0.392288,0.001783,-0.009781
4243,0.048266,-7.030045,6.769144,-0.026417,0.202756,0.007129,-46.187168,-0.248667,-1.115763,0.919811,-0.392234,0.001823,-0.009808
4244,0.047581,-7.027819,6.772983,-0.066051,0.195119,0.031535,-46.180691,-0.245686,-1.120136,0.919833,-0.392182,0.001861,-0.009833
4245,0.047078,-7.026892,6.773695,-0.091948,0.195112,0.045262,-46.174679,-0.242303,-1.123980,0.919854,-0.392133,0.001901,-0.009852
4246,0.046513,-7.038191,6.774071,-0.101069,0.193579,0.051359,-46.170910,-0.238695,-1.127568,0.919866,-0.392103,0.001942,-0.009868
4247,0.049581,-7.050887,6.764755,-0.131577,0.175259,0.057451,-46.172661,-0.235881,-1.130757,0.919860,-0.392116,0.001976,-0.009884
4248,0.048561,-7.044981,6.763156,-0.131579,0.173721,0.066594,-46.177441,-0.233731,-1.133519,0.919844,-0.392155,0.002003,-0.009899
4249,0.051211,-7.038637,6.764396,-0.084267,0.181338,0.055899,-46.179604,-0.232022,-1.136381,0.919836,-0.392172,0.002027,-0.009916
4250,0.053320,-7.046899,6.759150,-0.105627,0.181320,0.068089,-46.181931,-0.231269,-1.139315,0.919828,-0.392190,0.002043,-0.009937
4251,0.061435,-7.039794,6.754581,-0.169718,0.185874,0.068063,-46.187073,-0.232406,-1.142157,0.919810,-0.392232,0.002044,-0.009964
4252,0.064317,-7.028873,6.760273,-0.113248,0.193472,0.060401,-46.189491,-0.235650,-1.145246,0.919802,-0.392251,0.002029,-0.010000
4253,0.064154,-7.043190,6.760664,-0.125440,0.188862,0.051211,-46.190517,-0.239440,-1.148568,0.919798,-0.392260,0.002010,-0.010039
4254,0.060852,-7.047556,6.761216,-0.111705,0.190358,0.035921,-46.193806,-0.242630,-1.152126,0.919786,-0.392286,0.001997,-0.010079
4255,0.059133,-7.047452,6.763956,-0.070500,0.204065,0.017583,-46.196140,-0.244829,-1.156256,0.919777,-0.392305,0.001993,-0.010119
4256,0.047431,-7.056479,6.769789,-0.041504,0.199471,0.017567,-46.197117,-0.244327,-1.160708,0.919774,-0.392313,0.002013,-0.010153
4257,0.041633,-7.052290,6.768711,-0.003351,0.200994,0.012984,-46.196846,-0.240432,-1.165177,0.919774,-0.392310,0.002059,-0.010176
4258,0.040570,-7.037288,6.769622,0.010401,0.211676,0.020615,-46.193115,-0.235178,-1.169768,0.919787,-0.392280,0.002117,-0.010195
4259,0.037131,-7.044482,6.765599,-0.061298,0.207100,0.038928,-46.189861,-0.228971,-1.174135,0.919798,-0.392253,0.002181,-0.010209
4260,0.035371,-7.038118,6.765071,-0.078067,0.201001,0.035881,-46.189068,-0.222072,-1.178193,0.919801,-0.392246,0.002250,-0.010218
4261,0.041996,-7.031538,6.756138,-0.084154,0.210156,0.035880,-46.188381,-0.216575,-1.182323,0.919803,-0.392240,0.002309,-0.010232
4262,0.044761,-7.038484,6.754034,-0.097879,0.213199,0.037398,-46.189674,-0.213176,-1.186576,0.919798,-0.392250,0.002351,-0.010254
4263,0.044946,-7.040825,6.751753,-0.055154,0.213188,0.017549,-46.192348,-0.210834,-1.191070,0.919789,-0.392271,0.002385,-0.010282
4264,0.052358,-7.037670,6.750072,0.022666,0.217749,0.008375,-46.193321,-0.210471,-1.195952,0.919785,-0.392279,0.002405,-0.010320
4265,0.055735,-7.043164,6.754123,0.025717,0.216198,0.014454,-46.192814,-0.212308,-1.200907,0.919786,-0.392275,0.002407,-0.010366
4266,0.051790,-7.029079,6.764746,0.047094,0.211597,0.017481,-46.188644,-0.213943,-1.205695,0.919800,-0.392242,0.002410,-0.010411
4267,0.046827,-7.022561,6.761629,-0.018488,0.211580,0.040351,-46.181511,-0.213469,-1.210143,0.919824,-0.392184,0.002428,-0.010445
4268,0.044940,-7.027581,6.764498,-0.093227,0.208515,0.061701,-46.176929,-0.211120,-1.214041,0.919840,-0.392147,0.002460,-0.010468
4269,0.042623,-7.021304,6.769504,-0.157277,0.199349,0.078475,-46.173779,-0.207720,-1.217355,0.919850,-0.392122,0.002498,-0.010483
4270,0.037746,-7.021821,6.758811,-0.213703,0.197817,0.095253,-46.172909,-0.202829,-1.220152,0.919853,-0.392114,0.002547,-0.010489
4271,0.041720,-7.030831,6.758060,-0.189268,0.200862,0.090668,-46.175610,-0.197874,-1.222814,0.919844,-0.392135,0.002596,-0.010493
4272,0.047781,-7.037454,6.759871,-0.132797,0.196270,0.072342,-46.178883,-0.195496,-1.225715,0.919833,-0.392161,0.002625,-0.010508
4273,0.045447,-7.036489,6.754404,-0.137370,0.202356,0.070797,-46.182373,-0.194313,-1.228860,0.919821,-0.392189,0.002646,-0.010529
4274,0.044075,-7.038222,6.759926,-0.099217,0.216073,0.050945,-46.185169,-0.192551,-1.232491,0.919811,-0.392211,0.002673,-0.010553
4275,0.049723,-7.041705,6.762447,-0.074793,0.219106,0.038717,-46.186283,-0.191909,-1.236696,0.919807,-0.392220,0.002692,-0.010584
4276,0.046778,-7.043867,6.760952,-0.158712,0.217559,0.049376,-46.188881,-0.191873,-1.240936,0.919797,-0.392241,0.002708,-0.010618
4277,0.050051,-7.032146,6.763637,-0.154121,0.223642,0.047828,-46.191212,-0.191768,-1.245130,0.919789,-0.392260,0.002723,-0.010651
4278,0.056638,-7.042943,6.766432,-0.167834,0.220562,0.058481,-46.192631,-0.193448,-1.249259,0.919784,-0.392271,0.002724,-0.010690
4279,0.055313,-7.042733,6.766648,-0.196811,0.225109,0.064551,-46.195648,-0.195878,-1.253210,0.919773,-0.392295,0.002718,-0.010730
4280,0.056256,-7.039703,6.764730,-0.227313,0.229655,0.064519,-46.199310,-0.197923,-1.257203,0.919760,-0.392325,0.002716,-0.010769
4281,0.058687,-7.053201,6.758899,-0.225781,0.234201,0.055331,-46.205742,-0.200482,-1.261403,0.919737,-0.392377,0.002710,-0.010811
4282,0.053230,-7.061769,6.763399,-0.178487,0.232645,0.044618,-46.214188,-0.202485,-1.265860,0.919708,-0.392444,0.002710,-0.010854
4283,0.053798,-7.056195,6.760022,-0.147975,0.228041,0.044591,-46.221104,-0.203578,-1.270368,0.919684,-0.392500,0.002717,-0.010893
4284,0.054569,-7.060428,6.752091,-0.146461,0.220386,0.059823,-46.228382,-0.204797,-1.274552,0.919658,-0.392558,0.002723,-0.010931
4285,0.051815,-7.052270,6.760700,-0.079327,0.226464,0.058271,-46.233414,-0.205409,-1.278563,0.919641,-0.392599,0.002732,-0.010965
4286,0.053953,-7.049562,6.759408,-0.016756,0.229492,0.056720,-46.233376,-0.205775,-1.282731,0.919640,-0.392598,0.002743,-0.011000
4287,0.049246,-7.046399,6.758471,-0.003011,0.232521,0.061274,-46.231415,-0.205505,-1.286939,0.919647,-0.392582,0.002760,-0.011033
4288,0.050550,-7.020700,6.767838,0.044330,0.237079,0.030734,-46.223400,-0.204807,-1.291557,0.919674,-0.392518,0.002780,-0.011068
4289,0.049604,-7.020146,6.766374,0.067277,0.235533,0.023084,-46.209869,-0.204649,-1.296666,0.919720,-0.392409,0.002798,-0.011108
4290,0.051156,-7.024042,6.770750,0.018502,0.227883,0.035269,-46.197517,-0.204683,-1.301608,0.919761,-0.392310,0.002813,-0.011149
4291,0.049336,-7.018458,6.775163,-0.027217,0.204973,0.042877,-46.186150,-0.204778,-1.305955,0.919800,-0.392219,0.002826,-0.011184
4292,0.055167,-7.019889,6.771175,-0.106510,0.203424,0.052007,-46.177036,-0.205737,-1.309813,0.919831,-0.392145,0.002831,-0.011218
4293,0.053828,-7.039617,6.766856,-0.123262,0.206449,0.076394,-46.174248,-0.207110,-1.313284,0.919840,-0.392123,0.002831,-0.011251
4294,0.050436,-7.043422,6.764633,-0.135458,0.212529,0.067214,-46.176453,-0.207178,-1.316672,0.919832,-0.392141,0.002843,-0.011278
4295,0.047892,-7.052476,6.758581,-0.080529,0.215563,0.058040,-46.180870,-0.206149,-1.320371,0.919816,-0.392176,0.002864,-0.011305
4296,0.048979,-7.047199,6.761240,-0.036285,0.226227,0.059547,-46.184410,-0.204802,-1.324321,0.919804,-0.392204,0.002889,-0.011332
4297,0.050212,-7.049388,6.761026,-0.054600,0.223155,0.076312,-46.186485,-0.203680,-1.328156,0.919796,-0.392221,0.002911,-0.011358
4298,0.047449,-7.050246,6.762304,-0.065285,0.224662,0.061033,-46.189121,-0.202339,-1.331954,0.919787,-0.392242,0.002935,-0.011384
4299,0.049640,-7.041087,6.767746,-0.028655,0.215487,0.070168,-46.189095,-0.201133,-1.335739,0.919787,-0.392241,0.002958,-0.011411
4300,0.049454,-7.043776,6.766665,-0.078995,0.204786,0.073199,-46.187725,-0.200487,-1.339151,0.919791,-0.392230,0.002974,-0.011436
4301,0.049120,-7.045760,6.766783,-0.106450,0.200187,0.067074,-46.188461,-0.200013,-1.342412,0.919789,-0.392236,0.002989,-0.011460
4302,0.048505,-7.041603,6.763751,-0.082024,0.200167,0.041113,-46.189388,-0.199833,-1.345986,0.919785,-0.392243,0.003003,-0.011488
4303,0.047405,-7.042483,6.757586,-0.121691,0.204727,0.059404,-46.191353,-0.199389,-1.349701,0.919778,-0.392259,0.003020,-0.011517
4304,0.050754,-7.048833,6.755973,-0.147635,0.212335,0.060909,-46.196411,-0.199026,-1.353327,0.919760,-0.392299,0.003036,-0.011544
4305,0.053819,-7.039327,6.758659,-0.126271,0.226044,0.063935,-46.200722,-0.199647,-1.357160,0.919745,-0.392334,0.003044,-0.011577
4306,0.049221,-7.042688,6.756535,-0.143048,0.245857,0.068487,-46.203732,-0.199487,-1.361314,0.919734,-0.392358,0.003060,-0.011610
4307,0.050072,-7.045452,6.758484,-0.120155,0.247361,0.068465,-46.207253,-0.198273,-1.365671,0.919722,-0.392386,0.003085,-0.011641
4308,0.052311,-7.044813,6.760572,-0.085052,0.247338,0.057759,-46.209309,-0.197817,-1.370171,0.919714,-0.392402,0.003104,-0.011675
4309,0.053240,-7.041775,6.759618,-0.056048,0.233579,0.031792,-46.209446,-0.198638,-1.374932,0.919713,-0.392403,0.003114,-0.011716
4310,0.053016,-7.048497,6.748180,-0.059100,0.238131,0.005823,-46.211330,-0.200323,-1.380174,0.919706,-0.392418,0.003119,-0.011764
4311,0.055864,-7.045886,6.747623,-0.114044,0.236577,0.007320,-46.216362,-0.202704,-1.385726,0.919688,-0.392459,0.003119,-0.011816
4312,0.055505,-7.045777,6.747496,-0.149148,0.241126,0.005764,-46.222393,-0.205406,-1.391316,0.919667,-0.392507,0.003117,-0.011870
4313,0.056641,-7.041563,6.747748,-0.118633,0.222786,-0.001895,-46.227528,-0.208365,-1.396852,0.919649,-0.392549,0.003113,-0.011925
4314,0.053537,-7.039949,6.753715,-0.147620,0.238019,0.020966,-46.230591,-0.210603,-1.402182,0.919638,-0.392573,0.003113,-0.011975
4315,0.050125,-7.034146,6.760388,-0.123182,0.224264,0.039254,-46.230675,-0.210875,-1.407068,0.919637,-0.392574,0.003128,-0.012015
4316,0.049760,-7.029236,6.764348,-0.025485,0.216615,0.030078,-46.225658,-0.210463,-1.411602,0.919653,-0.392533,0.003146,-0.012050
4317,0.046680,-7.018443,6.768004,0.014241,0.215072,0.046845,-46.215321,-0.209400,-1.415949,0.919688,-0.392450,0.003169,-0.012082
4318,0.043994,-7.030147,6.766174,-0.042167,0.221163,0.059040,-46.205635,-0.206854,-1.420014,0.919721,-0.392372,0.003202,-0.012106
4319,0.041999,-7.036855,6.761332,-0.060448,0.213523,0.060555,-46.201302,-0.203357,-1.423886,0.919736,-0.392337,0.003243,-0.012125
4320,0.042195,-7.035789,6.763382,-0.093996,0.219618,0.065122,-46.199463,-0.199652,-1.427663,0.919742,-0.392322,0.003285,-0.012143
4321,0.041071,-7.044576,6.758319,-0.142812,0.224186,0.074268,-46.200676,-0.195714,-1.431404,0.919738,-0.392331,0.003330,-0.012160
4322,0.042316,-7.052032,6.754020,-0.185543,0.228752,0.068152,-46.206944,-0.191909,-1.435206,0.919716,-0.392381,0.003374,-0.012177
4323,0.041687,-7.046945,6.750984,-0.170294,0.228740,0.069666,-46.214790,-0.188488,-1.439114,0.919689,-0.392443,0.003416,-0.012196
4324,0.044522,-7.050860,6.749357,-0.156569,0.224148,0.063547,-46.222179,-0.185853,-1.443021,0.919663,-0.392502,0.003451,-0.012218
4325,0.041289,-7.048265,6.746521,-0.123010,0.219555,0.051324,-46.229084,-0.183670,-1.447028,0.919639,-0.392557,0.003483,-0.012243
4326,0.045285,-7.045954,6.749842,-0.112334,0.213435,0.042152,-46.234043,-0.182182,-1.451158,0.919622,-0.392597,0.003510,-0.012271
4327,0.043879,-7.053453,6.746579,-0.148962,0.208839,0.037555,-46.239727,-0.181609,-1.455317,0.919602,-0.392642,0.003529,-0.012302
4328,0.045005,-7.055421,6.745158,-0.155081,0.217977,0.025329,-46.247715,-0.181197,-1.459720,0.919574,-0.392706,0.003548,-0.012336
4329,0.046042,-7.053300,6.746016,-0.094056,0.228638,0.020731,-46.254387,-0.181217,-1.464558,0.919551,-0.392760,0.003566,-0.012374
4330,0.049653,-7.059887,6.743083,-0.075760,0.230141,0.017655,-46.260151,-0.182111,-1.469630,0.919531,-0.392806,0.003576,-0.012418
4331,0.045471,-7.051823,6.742507,-0.007108,0.234696,0.005423,-46.264343,-0.182980,-1.474952,0.919516,-0.392839,0.003588,-0.012463
4333,0.043917,-7.054744,6.745136,0.107329,0.220945,-0.012907,-46.264164,-0.183145,-1.480520,0.919516,-0.392838,0.003606,-0.012509
4334,0.040769,-7.043108,6.752767,0.200416,0.205670,-0.017501,-46.257763,-0.182964,-1.486012,0.919537,-0.392786,0.003625,-0.012552
4335,0.038746,-7.040435,6.757545,0.131774,0.187347,-0.008357,-46.247490,-0.182105,-1.491058,0.919572,-0.392704,0.003649,-0.012590
4336,0.035447,-7.031160,6.761200,0.075349,0.190391,0.003842,-46.237041,-0.180160,-1.495680,0.919607,-0.392619,0.003679,-0.012621
4337,0.032953,-7.035671,6.755501,0.005190,0.184284,0.022149,-46.229046,-0.176844,-1.499911,0.919634,-0.392555,0.003719,-0.012644
4338,0.035349,-7.029208,6.757699,-0.046663,0.188857,0.049609,-46.223923,-0.173154,-1.503592,0.919652,-0.392513,0.003761,-0.012661
4339,0.036469,-7.035971,6.753035,-0.138193,0.188849,0.064860,-46.222015,-0.169821,-1.506833,0.919658,-0.392497,0.003798,-0.012676
4340,0.037469,-7.029788,6.752437,-0.119863,0.202571,0.054167,-46.222385,-0.166926,-1.510183,0.919657,-0.392500,0.003833,-0.012693
4341,0.043103,-7.037254,6.751350,-0.109165,0.207133,0.057203,-46.222740,-0.165419,-1.513839,0.919655,-0.392502,0.003858,-0.012717
4342,0.046855,-7.040784,6.752390,-0.051169,0.204059,0.048023,-46.223404,-0.165947,-1.517579,0.919652,-0.392508,0.003866,-0.012749
4343,0.044477,-7.041186,6.751384,0.009875,0.208613,0.035791,-46.222595,-0.167015,-1.521584,0.919654,-0.392501,0.003871,-0.012784
4344,0.043409,-7.038146,6.756058,0.118228,0.214695,0.023563,-46.218090,-0.167527,-1.526000,0.919669,-0.392465,0.003882,-0.012822
