seq,ax,ay,az,wroll,wpitch,wyaw,roll,pitch,yaw,q0,q1,q2,q3
7915,0.052801,6.816492,-7.053941,-0.012551,-0.076724,0.063659,135.980759,-0.308406,-179.701981,-0.003470,-0.001403,0.927117,0.374753
7917,0.063557,6.817914,-7.056435,-0.011023,-0.078228,0.060629,135.980820,-0.310096,-179.705399,-0.003472,-0.001369,0.927117,0.374753
7918,0.059133,6.820775,-7.051580,-0.015613,-0.072089,0.066767,135.979614,-0.313036,-179.708664,-0.003485,-0.001333,0.927113,0.374763
7919,0.057507,6.821356,-7.047393,-0.018701,-0.073594,0.069839,135.976608,-0.314810,-179.711975,-0.003489,-0.001301,0.927104,0.374787
7920,0.058113,6.814833,-7.049778,-0.018727,-0.079680,0.071381,135.974274,-0.316198,-179.715439,-0.003489,-0.001268,0.927096,0.374806
7921,0.058815,6.808206,-7.050473,-0.018716,-0.078135,0.048510,135.974380,-0.317442,-179.718704,-0.003488,-0.001238,0.927096,0.374805
7922,0.055407,6.809555,-7.048128,-0.018696,-0.073546,0.045470,135.975082,-0.317849,-179.721588,-0.003482,-0.001213,0.927099,0.374799
7924,0.057692,6.804911,-7.052536,-0.015614,-0.079640,0.033272,135.976547,-0.317789,-179.724319,-0.003473,-0.001191,0.927103,0.374788
7925,0.060500,6.803667,-7.054892,-0.006404,-0.075042,0.036343,135.979889,-0.318586,-179.726974,-0.003470,-0.001167,0.927114,0.374761
7926,0.060569,6.804272,-7.051879,-0.000247,-0.065862,0.037894,135.983322,-0.320138,-179.729507,-0.003475,-0.001142,0.927126,0.374733
7927,0.057648,6.807590,-7.052060,-0.004789,-0.064317,0.053171,135.985611,-0.321378,-179.732117,-0.003476,-0.001116,0.927133,0.374714
7928,0.058835,6.802011,-7.054195,-0.004747,-0.065829,0.057763,135.988281,-0.322418,-179.734970,-0.003475,-0.001090,0.927142,0.374693
7929,0.055452,6.814386,-7.056212,-0.000135,-0.062768,0.062350,135.990463,-0.323070,-179.737915,-0.003471,-0.001064,0.927149,0.374675
7931,0.054745,6.814598,-7.057310,-0.010805,-0.058191,0.053194,135.991043,-0.322896,-179.740707,-0.003460,-0.001042,0.927151,0.374671
7932,0.056421,6.817173,-7.059696,-0.027580,-0.062768,0.056247,135.991165,-0.322818,-179.743423,-0.003451,-0.001020,0.927151,0.374670
7933,0.059352,6.821307,-7.059170,-0.027580,-0.067335,0.059308,135.990295,-0.323600,-179.746307,-0.003448,-0.000994,0.927148,0.374677
7934,0.054691,6.821096,-7.059977,-0.032163,-0.074957,0.059315,135.988846,-0.323908,-179.749374,-0.003440,-0.000969,0.927144,0.374689
7935,0.053914,6.810242,-7.062016,-0.036718,-0.079540,0.056260,135.989273,-0.322946,-179.752563,-0.003422,-0.000946,0.927145,0.374685
7936,0.051592,6.805768,-7.062892,-0.022923,-0.091760,0.057774,135.992432,-0.321192,-179.755936,-0.003397,-0.000925,0.927156,0.374660
7937,0.050250,6.798759,-7.062780,-0.006052,-0.090252,0.050128,135.997696,-0.318624,-179.759369,-0.003365,-0.000905,0.927173,0.374618
7938,0.048177,6.796312,-7.057751,-0.004435,-0.091801,0.039426,136.003601,-0.315331,-179.762589,-0.003327,-0.000890,0.927192,0.374570
7939,0.051491,6.797898,-7.056368,-0.008939,-0.091820,0.028726,136.008347,-0.312214,-179.765564,-0.003293,-0.000877,0.927208,0.374532
7940,0.054877,6.799741,-7.051732,-0.018045,-0.088770,0.036354,136.011215,-0.310619,-179.768448,-0.003270,-0.000858,0.927217,0.374509
7941,0.059884,6.800428,-7.050437,-0.036327,-0.085701,0.027215,136.012222,-0.310876,-179.771240,-0.003263,-0.000835,0.927221,0.374501
7942,0.059001,6.803669,-7.050581,-0.045468,-0.088726,0.037922,136.011917,-0.311997,-179.774048,-0.003263,-0.000809,0.927220,0.374503
7943,0.062705,6.801373,-7.055932,-0.039339,-0.091746,0.044057,136.012161,-0.313740,-179.777130,-0.003267,-0.000778,0.927220,0.374501
7944,0.055511,6.799158,-7.053647,-0.053032,-0.087145,0.042554,136.013336,-0.314780,-179.780243,-0.003265,-0.000749,0.927224,0.374492
7945,0.054328,6.797857,-7.053425,-0.048412,-0.091718,0.033403,136.014465,-0.313977,-179.783249,-0.003249,-0.000728,0.927228,0.374483
7946,0.052403,6.800019,-7.055151,-0.027007,-0.087142,0.039505,136.016022,-0.312523,-179.786209,-0.003227,-0.000709,0.927233,0.374470
7947,0.057867,6.802459,-7.053973,-0.013242,-0.091714,0.037985,136.017517,-0.311883,-179.789215,-0.003212,-0.000686,0.927238,0.374458
7948,0.055059,6.804512,-7.052462,-0.005595,-0.088649,0.042576,136.018265,-0.311847,-179.792282,-0.003202,-0.000662,0.927240,0.374452
7949,0.061762,6.810306,-7.057535,0.008143,-0.090154,0.062433,136.018692,-0.312884,-179.795609,-0.003200,-0.000631,0.927242,0.374449
7950,0.061675,6.817513,-7.058637,0.009659,-0.090119,0.063993,136.018326,-0.315390,-179.799210,-0.003208,-0.000594,0.927241,0.374452
7951,0.062226,6.819397,-7.057065,-0.010209,-0.096188,0.065552,136.016327,-0.317826,-179.802902,-0.003216,-0.000556,0.927234,0.374468
7952,0.054136,6.826440,-7.059999,-0.023987,-0.093119,0.062515,136.012787,-0.318569,-179.806610,-0.003210,-0.000524,0.927223,0.374497
7953,0.056760,6.823606,-7.056209,-0.030142,-0.091589,0.067097,136.008392,-0.318213,-179.810287,-0.003195,-0.000495,0.927208,0.374532
7954,0.059641,6.820654,-7.053499,-0.019512,-0.091573,0.053379,136.004257,-0.318837,-179.813828,-0.003188,-0.000464,0.927195,0.374566
7955,0.060804,6.816704,-7.055518,-0.018018,-0.085446,0.048824,136.001495,-0.320109,-179.817093,-0.003188,-0.000433,0.927186,0.374588
7956,0.058144,6.816666,-7.053879,-0.008884,-0.093055,0.051895,135.999741,-0.320994,-179.820358,-0.003184,-0.000404,0.927180,0.374603
7957,0.059340,6.807499,-7.052993,-0.010412,-0.097617,0.050385,135.999207,-0.321404,-179.823792,-0.003177,-0.000375,0.927178,0.374607
7958,0.059363,6.808644,-7.055767,-0.018023,-0.103702,0.044298,135.999985,-0.321797,-179.827271,-0.003168,-0.000346,0.927181,0.374601
7959,0.053675,6.806076,-7.057914,-0.024096,-0.103696,0.047357,136.001389,-0.320949,-179.830780,-0.003150,-0.000320,0.927185,0.374590
7960,0.053683,6.805610,-7.058033,-0.017951,-0.103702,0.054981,136.003464,-0.319134,-179.834427,-0.003123,-0.000297,0.927192,0.374573
7961,0.056620,6.802283,-7.058937,-0.031634,-0.089967,0.047353,136.005951,-0.318148,-179.837906,-0.003104,-0.000272,0.927200,0.374553
7962,0.060370,6.798755,-7.057776,-0.025471,-0.079269,0.048896,136.009094,-0.318787,-179.841049,-0.003099,-0.000244,0.927211,0.374528
7963,0.055425,6.798792,-7.055696,-0.026938,-0.079255,0.047384,136.012177,-0.319338,-179.844055,-0.003094,-0.000218,0.927221,0.374503
7964,0.055414,6.799376,-7.055457,-0.031465,-0.077725,0.044335,136.014542,-0.318850,-179.847000,-0.003080,-0.000196,0.927228,0.374484
7965,0.054645,6.801698,-7.054271,-0.036004,-0.083827,0.039760,136.015991,-0.318064,-179.849884,-0.003064,-0.000175,0.927233,0.374472
7966,0.052847,6.804206,-7.056839,-0.028345,-0.094513,0.056542,136.016861,-0.316755,-179.853119,-0.003043,-0.000153,0.927236,0.374465
7967,0.052262,6.804650,-7.058298,-0.034419,-0.105201,0.053484,136.017822,-0.314950,-179.856766,-0.003017,-0.000130,0.927239,0.374458
7968,0.052985,6.805240,-7.059129,-0.025233,-0.094525,0.050426,136.018936,-0.313201,-179.860336,-0.002991,-0.000107,0.927243,0.374449
7969,0.052982,6.806166,-7.059855,-0.016047,-0.088426,0.048897,136.020279,-0.311857,-179.863647,-0.002969,-0.000084,0.927247,0.374438
7970,0.055044,6.808504,-7.063920,-0.014489,-0.076216,0.041269,136.021912,-0.311124,-179.866653,-0.002953,-0.000062,0.927253,0.374425
7971,0.055642,6.806551,-7.061856,-0.014455,-0.076207,0.022967,136.023682,-0.310823,-179.869186,-0.002943,-0.000043,0.927258,0.374410
7972,0.059470,6.813969,-7.060236,-0.012917,-0.080767,0.019932,136.024109,-0.311115,-179.871536,-0.002937,-0.000023,0.927260,0.374407
7974,0.061831,6.809695,-7.061871,-0.012912,-0.089892,0.029118,136.024048,-0.312517,-179.874100,-0.002940,0.000002,0.927260,0.374408
7975,0.058195,6.811727,-7.061098,-0.014427,-0.095967,0.033723,136.024368,-0.313593,-179.876999,-0.002939,0.000029,0.927261,0.374405
7976,0.057671,6.809775,-7.055921,-0.015953,-0.105105,0.058155,136.023834,-0.313934,-179.880432,-0.002931,0.000058,0.927259,0.374409
7977,0.057213,6.819177,-7.058360,-0.005293,-0.103563,0.068851,136.022049,-0.314349,-179.884369,-0.002922,0.000091,0.927253,0.374424
7978,0.053872,6.817372,-7.057694,0.003829,-0.100504,0.062754,136.019836,-0.314101,-179.888290,-0.002907,0.000122,0.927246,0.374442
7979,0.055214,6.816577,-7.058511,-0.014508,-0.106605,0.049024,136.017990,-0.313194,-179.892014,-0.002887,0.000150,0.927240,0.374457
7980,0.060854,6.817489,-7.059857,-0.016052,-0.108112,0.049041,136.016220,-0.313432,-179.895676,-0.002877,0.000180,0.927234,0.374472
7981,0.062541,6.818788,-7.061758,-0.011489,-0.100449,0.036867,136.014755,-0.315048,-179.899109,-0.002879,0.000213,0.927229,0.374483
7982,0.062805,6.810922,-7.055589,-0.020654,-0.106516,0.030799,136.013657,-0.316798,-179.902313,-0.002883,0.000245,0.927226,0.374492
7983,0.061321,6.813691,-7.055140,-0.040501,-0.097326,0.030831,136.011993,-0.318177,-179.905411,-0.002884,0.000274,0.927220,0.374506
7984,0.062961,6.823509,-7.053806,-0.023754,-0.086612,0.043069,136.008347,-0.319854,-179.908417,-0.002887,0.000304,0.927208,0.374535
7985,0.058157,6.828338,-7.049445,-0.034515,-0.089639,0.036989,136.002167,-0.320969,-179.911377,-0.002887,0.000332,0.927188,0.374586
7986,0.056899,6.825510,-7.050908,-0.031546,-0.101835,0.038526,135.995514,-0.320578,-179.914474,-0.002873,0.000356,0.927166,0.374639
7987,0.060272,6.825449,-7.052052,-0.036190,-0.092663,0.046170,135.990005,-0.320644,-179.917709,-0.002863,0.000383,0.927148,0.374684
7988,0.058731,6.819226,-7.055561,-0.025546,-0.100274,0.046189,135.986526,-0.321187,-179.921036,-0.002857,0.000411,0.927137,0.374712
7989,0.051132,6.815001,-7.056533,-0.030125,-0.103326,0.043136,135.985519,-0.319772,-179.924469,-0.002834,0.000435,0.927133,0.374721
7990,0.057511,6.810948,-7.054239,-0.017902,-0.110957,0.043134,135.985764,-0.317993,-179.927994,-0.002808,0.000457,0.927134,0.374719
7991,0.060380,6.811931,-7.054671,-0.023988,-0.109414,0.027893,135.986298,-0.317876,-179.931396,-0.002796,0.000484,0.927136,0.374714
7992,0.058551,6.809886,-7.058918,-0.011750,-0.115496,0.020284,135.987717,-0.317702,-179.934601,-0.002784,0.000510,0.927141,0.374703
7993,0.062679,6.815892,-7.060182,-0.023927,-0.113945,0.020309,135.989243,-0.317835,-179.937744,-0.002775,0.000536,0.927146,0.374691
7994,0.069871,6.815565,-7.059810,-0.016277,-0.107791,0.012727,135.989929,-0.320172,-179.940720,-0.002784,0.000567,0.927148,0.374685
7995,0.068148,6.814223,-7.063815,-0.025403,-0.081790,0.009735,135.991226,-0.323752,-179.943192,-0.002805,0.000599,0.927152,0.374675
7996,0.069073,6.812525,-7.059697,-0.019264,-0.074104,0.020470,135.992844,-0.327476,-179.945374,-0.002828,0.000629,0.927157,0.374662
7997,0.067552,6.811552,-7.061410,-0.026860,-0.074052,0.020521,135.994354,-0.331062,-179.947601,-0.002850,0.000658,0.927162,0.374649
7998,0.064623,6.809443,-7.055553,-0.008517,-0.072485,0.031243,135.995834,-0.333690,-179.949921,-0.002864,0.000686,0.927167,0.374637
7999,0.065355,6.808642,-7.055658,-0.013071,-0.078554,0.032802,135.997070,-0.335779,-179.952454,-0.002872,0.000713,0.927171,0.374628
8000,0.059113,6.808414,-7.054807,-0.011522,-0.086164,0.040451,135.998215,-0.336581,-179.955246,-0.002870,0.000738,0.927174,0.374618
8001,0.055233,6.812176,-7.055489,-0.014560,-0.089217,0.045028,135.998734,-0.335327,-179.958313,-0.002849,0.000759,0.927176,0.374614
8002,0.058272,6.818167,-7.055929,-0.013039,-0.090745,0.035869,135.997955,-0.333807,-179.961365,-0.002827,0.000779,0.927174,0.374621
8003,0.055650,6.813080,-7.060424,-0.003880,-0.092273,0.035867,135.997925,-0.332314,-179.964340,-0.002805,0.000798,0.927173,0.374621
8004,0.051565,6.814972,-7.061707,-0.013014,-0.095339,0.029749,135.999130,-0.329488,-179.967316,-0.002773,0.000813,0.927177,0.374611
8005,0.058448,6.816925,-7.067251,-0.006883,-0.102976,0.037373,136.000626,-0.327230,-179.970413,-0.002744,0.000830,0.927182,0.374599
8006,0.061777,6.811740,-7.068625,-0.002259,-0.101434,0.034336,136.003601,-0.327106,-179.973663,-0.002733,0.000856,0.927192,0.374575
8007,0.056715,6.804548,-7.067978,0.000866,-0.095317,0.048083,136.008392,-0.326949,-179.976959,-0.002721,0.000882,0.927208,0.374537
8008,0.056502,6.802567,-7.067858,-0.011256,-0.093789,0.045034,136.013947,-0.325998,-179.980301,-0.002702,0.000906,0.927226,0.374492
8009,0.055810,6.806006,-7.073301,0.004091,-0.089211,0.069451,136.019745,-0.325222,-179.983826,-0.002684,0.000932,0.927245,0.374445
8010,0.054065,6.802656,-7.065130,0.001117,-0.087689,0.060292,136.024979,-0.324282,-179.987457,-0.002665,0.000958,0.927262,0.374403
8011,0.055998,6.800951,-7.064488,-0.014079,-0.084640,0.060290,136.029068,-0.323394,-179.990921,-0.002647,0.000983,0.927275,0.374370
8012,0.060834,6.805358,-7.063326,-0.023184,-0.073945,0.055724,136.031799,-0.323996,-179.994156,-0.002641,0.001011,0.927284,0.374348
8013,0.064135,6.806951,-7.060979,-0.030786,-0.072390,0.045072,136.032730,-0.326162,-179.997070,-0.002649,0.001042,0.927287,0.374340
8014,0.065823,6.801893,-7.056599,-0.036871,-0.086084,0.023747,136.032883,-0.328700,-179.999741,-0.002661,0.001072,0.927288,0.374339
8015,0.062814,6.803807,-7.057622,-0.032276,-0.087574,0.028359,136.032959,-0.330455,179.997620,-0.002666,0.001099,0.927288,0.374338
8016,0.056741,6.809857,-7.058107,-0.032272,-0.095190,0.032950,136.032181,-0.330286,179.994766,-0.002656,0.001121,0.927285,0.374345
8017,0.058425,6.808500,-7.057110,-0.030752,-0.093660,0.040584,136.030746,-0.329275,179.991699,-0.002637,0.001143,0.927280,0.374357
8018,0.055099,6.806226,-7.057045,-0.029226,-0.086030,0.040585,136.029785,-0.328185,179.988647,-0.002619,0.001164,0.927277,0.374364
8019,0.055651,6.802039,-7.057990,-0.035311,-0.072299,0.054314,136.029861,-0.327045,179.985672,-0.002600,0.001184,0.927278,0.374364
8020,0.062154,6.797348,-7.063887,-0.047469,-0.069236,0.051275,136.031830,-0.327680,179.982742,-0.002595,0.001210,0.927284,0.374348
8021,0.060870,6.793493,-7.062455,-0.047393,-0.063110,0.034513,136.035339,-0.329232,179.980164,-0.002599,0.001236,0.927295,0.374320
8022,0.052321,6.796818,-7.063100,-0.041217,-0.079893,0.039092,136.038712,-0.328528,179.977585,-0.002585,0.001254,0.927306,0.374292
8023,0.055493,6.800377,-7.062086,-0.028956,-0.095162,0.055867,136.041168,-0.326606,179.974411,-0.002559,0.001274,0.927314,0.374273
8024,0.054706,6.806929,-7.055366,-0.024364,-0.096693,0.048234,136.041245,-0.325138,179.970932,-0.002536,0.001297,0.927315,0.374272
8025,0.050097,6.809412,-7.054009,-0.015230,-0.108915,0.054324,136.039108,-0.322549,179.967331,-0.002503,0.001318,0.927308,0.374289
8026,0.053199,6.805950,-7.058043,-0.024400,-0.119611,0.066516,136.037552,-0.319737,179.963242,-0.002467,0.001342,0.927303,0.374302
8027,0.056667,6.811166,-7.054134,-0.032045,-0.110455,0.066516,136.035583,-0.318505,179.958984,-0.002443,0.001372,0.927296,0.374318
8028,0.054997,6.812748,-7.056338,-0.039706,-0.108925,0.055839,136.032318,-0.317760,179.955002,-0.002424,0.001402,0.927285,0.374345
8029,0.057949,6.811148,-7.060017,-0.039724,-0.116546,0.052796,136.029877,-0.317094,179.951096,-0.002406,0.001432,0.927277,0.374364
8030,0.059415,6.815498,-7.057830,-0.039740,-0.105846,0.052814,136.027466,-0.317334,179.947250,-0.002396,0.001464,0.927270,0.374384
8031,0.060817,6.818663,-7.058414,-0.036721,-0.098192,0.054363,136.023972,-0.318380,179.943619,-0.002392,0.001496,0.927258,0.374412
8032,0.057016,6.814583,-7.065344,-0.032157,-0.104277,0.045225,136.021957,-0.318842,179.940094,-0.002384,0.001527,0.927251,0.374429
8033,0.059748,6.812045,-7.069507,-0.036709,-0.107313,0.039136,136.022552,-0.318756,179.936615,-0.002372,0.001554,0.927253,0.374424
8034,0.056737,6.815347,-7.071858,-0.033619,-0.101194,0.043729,136.023941,-0.318617,179.933197,-0.002360,0.001582,0.927258,0.374413
8035,0.056067,6.813576,-7.073554,-0.024422,-0.095083,0.039158,136.025787,-0.317912,179.929916,-0.002344,0.001606,0.927264,0.374398
8036,0.052579,6.811320,-7.070479,-0.015220,-0.101188,0.039158,136.028229,-0.316377,179.926697,-0.002321,0.001627,0.927272,0.374378
8037,0.057908,6.810182,-7.064715,-0.013660,-0.114917,0.036111,136.029984,-0.315012,179.923279,-0.002298,0.001650,0.927277,0.374364
8038,0.061698,6.813050,-7.064291,-0.009068,-0.102686,0.037660,136.030624,-0.315486,179.919861,-0.002291,0.001679,0.927279,0.374359
8039,0.064439,6.813803,-7.063882,-0.024323,-0.099596,0.028541,136.030380,-0.317354,179.916733,-0.002296,0.001711,0.927279,0.374361
8040,0.065698,6.810676,-7.065057,-0.039571,-0.113284,0.036215,136.030060,-0.319780,179.913483,-0.002305,0.001745,0.927277,0.374364
8041,0.067765,6.812318,-7.068759,-0.045651,-0.107130,0.033212,136.030258,-0.322671,179.910095,-0.002317,0.001782,0.927278,0.374362
8042,0.063207,6.806973,-7.071723,-0.051709,-0.094878,0.031728,136.031677,-0.325066,179.906952,-0.002327,0.001815,0.927283,0.374351
8043,0.058678,6.809593,-7.067713,-0.062343,-0.096381,0.034803,136.033020,-0.325667,179.903931,-0.002322,0.001841,0.927287,0.374340
8044,0.055677,6.800117,-7.066421,-0.050084,-0.104005,0.047016,136.034531,-0.324780,179.900604,-0.002304,0.001865,0.927292,0.374328
8045,0.053579,6.800108,-7.062120,-0.045450,-0.100958,0.036331,136.036819,-0.322884,179.897217,-0.002277,0.001886,0.927299,0.374309
8046,0.055267,6.805049,-7.059208,-0.040841,-0.097910,0.037853,136.037460,-0.320970,179.894012,-0.002251,0.001906,0.927301,0.374304
8047,0.062607,6.809394,-7.057036,-0.027107,-0.088739,0.048550,136.036301,-0.321227,179.890823,-0.002243,0.001933,0.927297,0.374314
8048,0.063310,6.802999,-7.057973,-0.019477,-0.091757,0.060789,136.035660,-0.323447,179.887421,-0.002250,0.001968,0.927295,0.374319
8049,0.051519,6.817251,-7.052193,-0.027130,-0.084118,0.059272,136.033310,-0.323603,179.883957,-0.002240,0.001996,0.927287,0.374338
8050,0.065782,6.812028,-7.055296,-0.021073,-0.076474,0.066914,136.029404,-0.324410,179.880600,-0.002235,0.002026,0.927275,0.374370
8051,0.062719,6.807783,-7.054861,-0.014988,-0.082541,0.066950,136.027603,-0.327479,179.877151,-0.002249,0.002064,0.927269,0.374384
8052,0.042648,6.808009,-7.051369,-0.027209,-0.082554,0.062360,136.025925,-0.325794,179.873703,-0.002224,0.002086,0.927263,0.374398
8053,0.057147,6.812792,-7.055816,-0.028758,-0.076475,0.060810,136.023560,-0.322974,179.870392,-0.002190,0.002104,0.927255,0.374417
8054,0.074810,6.799229,-7.062215,-0.022634,-0.077957,0.063904,136.024094,-0.326641,179.867096,-0.002209,0.002143,0.927257,0.374413
8055,0.052472,6.808367,-7.059868,-0.031751,-0.080975,0.051730,136.025818,-0.329211,179.863861,-0.002219,0.002177,0.927262,0.374399
8056,0.060914,6.812375,-7.059001,-0.027168,-0.087077,0.063940,136.025101,-0.328748,179.860535,-0.002205,0.002203,0.927260,0.374405
8057,0.083033,6.811026,-7.062092,-0.019536,-0.102270,0.060951,136.024506,-0.334012,179.856842,-0.002235,0.002250,0.927258,0.374410
8058,0.060155,6.811340,-7.055156,-0.018013,-0.106784,0.057959,136.023712,-0.338666,179.852997,-0.002260,0.002296,0.927255,0.374416
8059,0.061058,6.811964,-7.051767,-0.022616,-0.108298,0.057971,136.021408,-0.338614,179.849121,-0.002247,0.002327,0.927248,0.374435
8060,0.072179,6.808428,-7.054811,-0.021107,-0.108261,0.065636,136.019501,-0.340825,179.845139,-0.002252,0.002367,0.927241,0.374451
8061,0.061719,6.810442,-7.054644,-0.028743,-0.096017,0.051939,136.018234,-0.343169,179.841370,-0.002258,0.002405,0.927237,0.374461
8062,0.057025,6.806952,-7.058336,-0.033316,-0.094488,0.061097,136.017548,-0.342520,179.837814,-0.002242,0.002432,0.927235,0.374467
8063,0.063359,6.807197,-7.057137,-0.042455,-0.097533,0.051948,136.017502,-0.342117,179.834229,-0.002227,0.002459,0.927234,0.374467
8064,0.052235,6.811774,-7.054939,-0.027193,-0.100589,0.054997,136.016434,-0.340671,179.830643,-0.002203,0.002484,0.927231,0.374476
8065,0.055085,6.807273,-7.057047,-0.011933,-0.106713,0.058029,136.015900,-0.337636,179.826889,-0.002166,0.002504,0.927229,0.374480
8066,0.056172,6.805556,-7.055939,-0.014968,-0.115878,0.054967,136.016632,-0.335337,179.822952,-0.002135,0.002528,0.927231,0.374474
8067,0.048840,6.808779,-7.057766,-0.008848,-0.115899,0.053421,136.017288,-0.331834,179.818970,-0.002094,0.002549,0.927234,0.374469
8068,0.053881,6.806846,-7.064781,0.003389,-0.120501,0.054923,136.019226,-0.328015,179.814911,-0.002049,0.002569,0.927240,0.374453
8069,0.056763,6.801174,-7.067970,0.004980,-0.115928,0.042712,136.023743,-0.325856,179.810989,-0.002019,0.002594,0.927255,0.374417
8070,0.055129,6.810719,-7.063682,-0.001072,-0.111351,0.048816,136.027283,-0.324176,179.807236,-0.001993,0.002619,0.927266,0.374388
8071,0.057815,6.802710,-7.067593,0.008128,-0.103719,0.051871,136.030334,-0.323079,179.803528,-0.001973,0.002645,0.927276,0.374364
8072,0.063048,6.801904,-7.063880,0.000557,-0.089964,0.045788,136.034470,-0.323846,179.800095,-0.001968,0.002676,0.927290,0.374330
8073,0.061656,6.802609,-7.059328,0.003649,-0.079253,0.051921,136.037170,-0.325672,179.796951,-0.001972,0.002707,0.927298,0.374308
8074,0.062752,6.803545,-7.061480,-0.005480,-0.082278,0.050422,136.039001,-0.327501,179.793839,-0.001977,0.002738,0.927304,0.374294
8075,0.060059,6.799880,-7.062364,-0.006969,-0.079203,0.039763,136.041290,-0.328757,179.790878,-0.001977,0.002766,0.927311,0.374275
8077,0.055924,6.800410,-7.058704,-0.023717,-0.073091,0.035192,136.043198,-0.328518,179.788193,-0.001967,0.002787,0.927318,0.374260
8078,0.055391,6.801121,-7.055582,-0.031330,-0.080723,0.038242,136.043457,-0.327305,179.785538,-0.001948,0.002805,0.927318,0.374258
8079,0.057360,6.800207,-7.058316,-0.054201,-0.080722,0.035191,136.043137,-0.326328,179.782776,-0.001931,0.002824,0.927317,0.374260
8080,0.053433,6.801913,-7.053570,-0.057243,-0.071568,0.041294,136.041992,-0.325190,179.780090,-0.001913,0.002842,0.927314,0.374270
8081,0.054275,6.803314,-7.055124,-0.058771,-0.073102,0.048916,136.039948,-0.323771,179.777344,-0.001893,0.002859,0.927307,0.374286
8082,0.053285,6.808627,-7.058287,-0.060301,-0.073109,0.053487,136.037674,-0.322522,179.774414,-0.001873,0.002879,0.927299,0.374305
8083,0.056202,6.807506,-7.060040,-0.051147,-0.065483,0.051959,136.035721,-0.321858,179.771545,-0.001858,0.002900,0.927293,0.374321
8084,0.050536,6.806144,-7.056404,-0.035885,-0.068542,0.056529,136.034424,-0.320815,179.768692,-0.001841,0.002920,0.927289,0.374331
8085,0.056927,6.806476,-7.059422,-0.037407,-0.076177,0.056524,136.033539,-0.319896,179.765671,-0.001823,0.002941,0.927286,0.374338
8086,0.058950,6.804673,-7.056489,-0.040450,-0.074638,0.050433,136.032852,-0.320539,179.762634,-0.001818,0.002968,0.927283,0.374344
8087,0.067388,6.807989,-7.054656,-0.035875,-0.079180,0.056571,136.031387,-0.323197,179.759567,-0.001830,0.003001,0.927279,0.374356
8088,0.068478,6.806849,-7.054272,-0.041990,-0.092859,0.061200,136.029373,-0.327506,179.756165,-0.001854,0.003043,0.927272,0.374372
8089,0.064411,6.807114,-7.055190,-0.038944,-0.091289,0.052089,136.027603,-0.330807,179.752686,-0.001869,0.003082,0.927266,0.374387
8090,0.061493,6.808004,-7.053196,-0.037427,-0.082105,0.052115,136.025742,-0.332518,179.749435,-0.001872,0.003114,0.927260,0.374402
8091,0.059918,6.804687,-7.057194,-0.043530,-0.079036,0.044501,136.024536,-0.333245,179.746414,-0.001868,0.003141,0.927255,0.374412
8092,0.053062,6.797690,-7.057063,-0.035867,-0.086668,0.032293,136.025421,-0.331970,179.743561,-0.001848,0.003160,0.927258,0.374404
8093,0.051805,6.800470,-7.055645,-0.028198,-0.071428,0.021593,136.026947,-0.328962,179.741058,-0.001816,0.003170,0.927263,0.374392
8094,0.056691,6.795547,-7.057233,-0.023579,-0.065334,0.029214,136.028931,-0.327026,179.738861,-0.001793,0.003182,0.927270,0.374376
8095,0.055471,6.800966,-7.061124,-0.020476,-0.069912,0.029214,136.031586,-0.326071,179.736572,-0.001778,0.003197,0.927278,0.374355
8096,0.053665,6.805157,-7.056225,-0.020450,-0.076021,0.035312,136.032669,-0.324558,179.734100,-0.001758,0.003212,0.927282,0.374346
8097,0.051646,6.812451,-7.056398,-0.023511,-0.071455,0.035300,136.031326,-0.322430,179.731552,-0.001732,0.003226,0.927278,0.374357
8098,0.049569,6.808788,-7.058476,-0.025050,-0.068423,0.041384,136.029694,-0.319783,179.729019,-0.001702,0.003238,0.927272,0.374370
8099,0.051173,6.811976,-7.056405,-0.028110,-0.069969,0.039840,136.028168,-0.317273,179.726440,-0.001674,0.003250,0.927267,0.374382
8100,0.053703,6.803289,-7.057063,-0.026584,-0.083711,0.039831,136.027298,-0.315544,179.723709,-0.001651,0.003267,0.927264,0.374389
8101,0.052259,6.798466,-7.060333,-0.015865,-0.082190,0.035250,136.029144,-0.313975,179.720871,-0.001629,0.003284,0.927270,0.374375
8102,0.059855,6.796738,-7.061758,-0.014279,-0.080655,0.048992,136.032715,-0.313859,179.717957,-0.001618,0.003308,0.927282,0.374346
8103,0.058029,6.799260,-7.062278,-0.018796,-0.094367,0.041384,136.036194,-0.314845,179.714828,-0.001616,0.003336,0.927293,0.374317
8104,0.054943,6.805372,-7.062107,-0.012653,-0.094355,0.035292,136.038315,-0.314516,179.711716,-0.001603,0.003360,0.927300,0.374300
8105,0.050775,6.814007,-7.064250,-0.011118,-0.086731,0.033761,136.038574,-0.312743,179.708786,-0.001580,0.003378,0.927301,0.374298
8106,0.053861,6.821769,-7.061319,-0.023352,-0.085211,0.038333,136.036179,-0.310962,179.705933,-0.001556,0.003395,0.927293,0.374318
8107,0.048061,6.816769,-7.061534,-0.014235,-0.088273,0.039849,136.033035,-0.308825,179.703003,-0.001529,0.003412,0.927283,0.374343
8108,0.049596,6.815539,-7.058611,-0.009685,-0.092868,0.042883,136.030807,-0.305955,179.699921,-0.001496,0.003428,0.927275,0.374361
8109,0.053343,6.813629,-7.058900,-0.012761,-0.098976,0.044404,136.028885,-0.304209,179.696671,-0.001471,0.003448,0.927269,0.374377
8110,0.056161,6.806024,-7.055578,-0.023450,-0.097440,0.047467,136.027786,-0.303902,179.693298,-0.001457,0.003475,0.927265,0.374386
8111,0.052743,6.803965,-7.057685,-0.009704,-0.103534,0.053580,136.028030,-0.303607,179.689758,-0.001443,0.003502,0.927266,0.374384
8112,0.055207,6.805541,-7.055474,-0.008166,-0.100473,0.056640,136.028610,-0.303216,179.686066,-0.001428,0.003531,0.927268,0.374379
8113,0.056464,6.806344,-7.060394,-0.006628,-0.095879,0.059708,136.029251,-0.303731,179.682388,-0.001420,0.003562,0.927270,0.374374
8114,0.057110,6.805293,-7.062670,-0.014230,-0.097385,0.067357,136.030746,-0.304769,179.678619,-0.001416,0.003596,0.927275,0.374362
8115,0.059280,6.811050,-7.060836,-0.015738,-0.100411,0.067382,136.031433,-0.306333,179.674713,-0.001416,0.003633,0.927277,0.374356
8116,0.059309,6.806876,-7.058657,-0.032519,-0.100382,0.064358,136.030975,-0.308170,179.670807,-0.001418,0.003671,0.927275,0.374360
8117,0.057241,6.807199,-7.056888,-0.038618,-0.097306,0.062855,136.030136,-0.309488,179.666992,-0.001416,0.003706,0.927272,0.374367
8118,0.054778,6.808227,-7.053198,-0.030998,-0.100344,0.062868,136.028442,-0.309805,179.663208,-0.001407,0.003738,0.927266,0.374381
8119,0.052890,6.810894,-7.049502,-0.024923,-0.103393,0.055241,136.025528,-0.309062,179.659439,-0.001388,0.003766,0.927257,0.374404
8120,0.053000,6.806564,-7.052986,-0.020370,-0.086607,0.062872,136.023163,-0.308153,179.655838,-0.001369,0.003792,0.927249,0.374424
8121,0.054453,6.810629,-7.058150,-0.015796,-0.082026,0.062875,136.022324,-0.307941,179.652374,-0.001356,0.003819,0.927246,0.374431
8122,0.055134,6.810022,-7.063319,-0.017311,-0.083543,0.047625,136.022552,-0.308033,179.649124,-0.001346,0.003846,0.927247,0.374429
8123,0.054327,6.811840,-7.067435,-0.026437,-0.068276,0.043055,136.023712,-0.308031,179.646271,-0.001337,0.003869,0.927251,0.374419
8124,0.054680,6.807282,-7.070913,-0.038597,-0.069795,0.052217,136.025879,-0.308152,179.643509,-0.001329,0.003891,0.927257,0.374402
8125,0.054301,6.805436,-7.067662,-0.043114,-0.083521,0.036965,136.028580,-0.308015,179.640656,-0.001318,0.003914,0.927266,0.374380
8126,0.054587,6.805826,-7.062838,-0.036965,-0.083514,0.027817,136.030273,-0.307421,179.637924,-0.001305,0.003934,0.927272,0.374366
8127,0.057561,6.803236,-7.058560,-0.039987,-0.088078,0.040038,136.030930,-0.307476,179.635117,-0.001296,0.003957,0.927274,0.374361
8128,0.061986,6.799741,-7.054374,-0.044542,-0.107884,0.055326,136.031113,-0.309029,179.631699,-0.001297,0.003990,0.927274,0.374360
8129,0.064013,6.803714,-7.057600,-0.032314,-0.095633,0.050791,136.031189,-0.311819,179.628052,-0.001308,0.004028,0.927274,0.374359
8130,0.065567,6.805132,-7.058660,-0.018564,-0.098636,0.053891,136.031525,-0.315247,179.624542,-0.001324,0.004068,0.927275,0.374357
8131,0.066578,6.802929,-7.060204,-0.012436,-0.098584,0.067674,136.032623,-0.319126,179.620804,-0.001344,0.004111,0.927278,0.374348
8132,0.067949,6.807265,-7.059706,-0.013941,-0.104634,0.066201,136.033615,-0.323293,179.616837,-0.001364,0.004157,0.927281,0.374340
8133,0.063807,6.807738,-7.064000,-0.000190,-0.103062,0.057090,136.034561,-0.326468,179.612946,-0.001377,0.004199,0.927284,0.374332
8134,0.064436,6.803228,-7.061568,-0.012369,-0.113707,0.061702,136.036285,-0.328555,179.608994,-0.001382,0.004237,0.927290,0.374318
8135,0.061224,6.804426,-7.064522,-0.023015,-0.104524,0.060203,136.038101,-0.329984,179.604996,-0.001380,0.004274,0.927295,0.374304
8136,0.061445,6.799987,-7.067280,-0.030593,-0.109081,0.055645,136.040695,-0.330697,179.601120,-0.001373,0.004308,0.927304,0.374283
8137,0.060874,6.799269,-7.068614,-0.016790,-0.099906,0.058716,136.044525,-0.331309,179.597305,-0.001366,0.004341,0.927316,0.374252
8138,0.065371,6.794584,-7.068281,-0.027392,-0.090724,0.063321,136.049103,-0.332954,179.593597,-0.001367,0.004376,0.927331,0.374215
8139,0.065984,6.791931,-7.066577,-0.030358,-0.084583,0.061831,136.053925,-0.335747,179.590042,-0.001378,0.004414,0.927346,0.374176
8140,0.065680,6.795309,-7.065385,-0.034860,-0.078443,0.067970,136.057800,-0.338655,179.586563,-0.001391,0.004452,0.927359,0.374145
8141,0.067899,6.801506,-7.067407,-0.039387,-0.079931,0.060377,136.060013,-0.341776,179.583176,-0.001405,0.004489,0.927366,0.374127
8142,0.062494,6.802103,-7.067266,-0.048504,-0.090583,0.045147,136.061096,-0.343657,179.579926,-0.001410,0.004522,0.927369,0.374118
8143,0.055697,6.806871,-7.066074,-0.045430,-0.095159,0.026838,136.061035,-0.342422,179.576904,-0.001390,0.004542,0.927369,0.374119
8144,0.053383,6.810659,-7.067329,-0.034745,-0.087548,0.014612,136.059982,-0.339069,179.574280,-0.001354,0.004552,0.927365,0.374127
8145,0.055547,6.808501,-7.065598,-0.031693,-0.092142,0.006968,136.058884,-0.335645,179.571945,-0.001319,0.004560,0.927362,0.374136
8146,0.050723,6.807038,-7.062067,-0.030169,-0.098265,0.013053,136.057739,-0.331789,179.569504,-0.001280,0.004567,0.927358,0.374145
8147,0.053336,6.811722,-7.065042,-0.028652,-0.095234,0.022187,136.056198,-0.327882,179.566849,-0.001239,0.004576,0.927353,0.374158
8148,0.057474,6.808648,-7.066407,-0.028654,-0.087610,0.035917,136.055130,-0.325936,179.564041,-0.001214,0.004592,0.927350,0.374166
8149,0.058686,6.809242,-7.067953,-0.022539,-0.093704,0.035925,136.054993,-0.325404,179.561081,-0.001200,0.004615,0.927349,0.374167
8150,0.058569,6.804847,-7.063727,-0.030156,-0.095218,0.042041,136.055054,-0.325151,179.557953,-0.001188,0.004639,0.927349,0.374167
8151,0.059156,6.803478,-7.061424,-0.020987,-0.092153,0.039002,136.055054,-0.325081,179.554810,-0.001177,0.004664,0.927349,0.374167
8152,0.060953,6.798427,-7.056318,-0.033183,-0.084505,0.029864,136.054901,-0.325485,179.551926,-0.001171,0.004689,0.927348,0.374168
8153,0.061344,6.801600,-7.053185,-0.037763,-0.089059,0.025308,136.053619,-0.326192,179.549255,-0.001168,0.004713,0.927344,0.374179
8154,0.059653,6.802036,-7.052734,-0.048461,-0.090565,0.028380,136.051147,-0.326519,179.546539,-0.001162,0.004736,0.927336,0.374199
8155,0.062704,6.808483,-7.054501,-0.043908,-0.096646,0.019245,136.047913,-0.326909,179.543823,-0.001156,0.004759,0.927325,0.374225
8156,0.061877,6.811582,-7.058500,-0.050043,-0.092041,0.016218,136.044266,-0.327536,179.541229,-0.001152,0.004782,0.927313,0.374254
8157,0.063954,6.813103,-7.062804,-0.043960,-0.087435,0.020824,136.041336,-0.328490,179.538712,-0.001152,0.004806,0.927303,0.374278
8158,0.065192,6.812413,-7.064949,-0.039388,-0.087400,0.019332,136.039566,-0.330122,179.536209,-0.001157,0.004831,0.927297,0.374293
8159,0.062714,6.814372,-7.061142,-0.036346,-0.084316,0.013260,136.037674,-0.331377,179.533829,-0.001159,0.004855,0.927291,0.374308
8160,0.056192,6.815947,-7.067772,-0.030251,-0.082779,0.023952,136.035934,-0.330888,179.531464,-0.001147,0.004872,0.927285,0.374322
8161,0.060040,6.811737,-7.064439,-0.034825,-0.070565,0.033114,136.035156,-0.330248,179.528992,-0.001134,0.004890,0.927283,0.374328
8162,0.055305,6.812950,-7.061394,-0.030248,-0.075138,0.033118,136.034012,-0.329677,179.526520,-0.001121,0.004908,0.927279,0.374338
8163,0.055263,6.818749,-7.064180,-0.022634,-0.082773,0.045320,136.032135,-0.328207,179.523758,-0.001100,0.004926,0.927273,0.374353
8164,0.055405,6.820242,-7.067314,-0.028754,-0.079726,0.059048,136.030151,-0.327060,179.520630,-0.001081,0.004948,0.927266,0.374369
8165,0.059221,6.817435,-7.063020,-0.027243,-0.076669,0.057528,136.028259,-0.326986,179.517426,-0.001069,0.004973,0.927260,0.374384
8166,0.054767,6.812331,-7.065139,-0.022666,-0.093450,0.045324,136.027405,-0.326513,179.514221,-0.001055,0.004998,0.927257,0.374391
8167,0.051771,6.813545,-7.066401,-0.024177,-0.101091,0.051417,136.027710,-0.324246,179.510803,-0.001026,0.005018,0.927258,0.374389
8168,0.051266,6.809967,-7.060979,-0.033319,-0.095005,0.039192,136.027603,-0.321304,179.507446,-0.000991,0.005035,0.927257,0.374389
8169,0.052482,6.807670,-7.059867,-0.030255,-0.091967,0.031550,136.027344,-0.318562,179.504425,-0.000959,0.005051,0.927256,0.374392
8170,0.053802,6.806538,-7.058876,-0.034818,-0.095026,0.034594,136.027252,-0.316454,179.501465,-0.000932,0.005068,0.927256,0.374392
8171,0.054967,6.807270,-7.057169,-0.021075,-0.090448,0.045276,136.027023,-0.315172,179.498352,-0.000911,0.005089,0.927255,0.374394
8172,0.061055,6.801790,-7.058373,-0.014951,-0.093483,0.040715,136.027740,-0.315508,179.495193,-0.000904,0.005116,0.927258,0.374388
8173,0.060013,6.797937,-7.057178,-0.017965,-0.094982,0.037689,136.029800,-0.316725,179.492050,-0.000904,0.005145,0.927264,0.374372
8174,0.062070,6.799353,-7.059916,-0.007237,-0.096479,0.048400,136.032440,-0.318141,179.488785,-0.000904,0.005176,0.927272,0.374350
8175,0.057625,6.802742,-7.062655,-0.004142,-0.096455,0.046896,136.035233,-0.319084,179.485397,-0.000901,0.005207,0.927281,0.374328
8176,0.057677,6.806937,-7.062061,-0.023949,-0.087287,0.046909,136.036789,-0.319178,179.482132,-0.000891,0.005233,0.927286,0.374315
8177,0.054107,6.812118,-7.060570,-0.039204,-0.088808,0.033180,136.036011,-0.318480,179.479141,-0.000876,0.005255,0.927284,0.374322
8178,0.055264,6.817824,-7.063334,-0.031590,-0.087282,0.027078,136.033737,-0.317093,179.476379,-0.000855,0.005273,0.927276,0.374340
8180,0.054578,6.813056,-7.060925,-0.042289,-0.093383,0.027080,136.031433,-0.315742,179.473648,-0.000835,0.005291,0.927269,0.374359
8181,0.052654,6.815334,-7.062773,-0.031617,-0.090333,0.030128,136.029541,-0.313974,179.470840,-0.000812,0.005308,0.927262,0.374374
8182,0.052203,6.819763,-7.060742,-0.013329,-0.084236,0.033174,136.027313,-0.312025,179.468063,-0.000787,0.005324,0.927255,0.374392
8183,0.056469,6.818536,-7.064519,0.001906,-0.073551,0.045385,136.025558,-0.311315,179.465317,-0.000772,0.005344,0.927249,0.374406
8184,0.054983,6.818185,-7.060809,-0.002688,-0.081171,0.062179,136.024353,-0.311609,179.462234,-0.000764,0.005370,0.927245,0.374416
8185,0.052156,6.821981,-7.059664,0.004907,-0.088799,0.043869,136.022156,-0.310878,179.459015,-0.000748,0.005393,0.927238,0.374434
8186,0.057568,6.817799,-7.056664,-0.005814,-0.093371,0.042349,136.019516,-0.310293,179.455887,-0.000733,0.005417,0.927229,0.374455
8187,0.056915,6.806598,-7.058700,-0.014976,-0.099458,0.031685,136.018723,-0.310421,179.452759,-0.000724,0.005442,0.927226,0.374461
8188,0.053082,6.804906,-7.057199,-0.021057,-0.102502,0.024062,136.019684,-0.309380,179.449753,-0.000705,0.005463,0.927229,0.374454
8189,0.051517,6.800775,-7.061075,-0.022543,-0.094875,0.021007,136.021637,-0.307251,179.446915,-0.000679,0.005479,0.927236,0.374438
8190,0.052799,6.795325,-7.061522,-0.022476,-0.081145,0.028635,136.025406,-0.305486,179.444260,-0.000656,0.005495,0.927248,0.374407
8191,0.055059,6.790924,-7.064363,-0.017806,-0.084191,0.019486,136.030884,-0.304656,179.441727,-0.000641,0.005513,0.927266,0.374363
8192,0.056968,6.800155,-7.064469,-0.020774,-0.090278,0.025606,136.035797,-0.304573,179.439148,-0.000633,0.005533,0.927282,0.374323
8193,0.061414,6.803992,-7.060541,-0.025309,-0.085671,0.036315,136.037903,-0.305929,179.436340,-0.000635,0.005560,0.927288,0.374306
8194,0.065268,6.808393,-7.057708,-0.025301,-0.079521,0.034835,136.037613,-0.309093,179.433578,-0.000651,0.005593,0.927287,0.374309
8195,0.061256,6.814470,-7.059843,-0.020740,-0.085580,0.042507,136.035797,-0.312141,179.430740,-0.000666,0.005626,0.927281,0.374324
8196,0.054577,6.816931,-7.056234,-0.017724,-0.087086,0.039474,136.032761,-0.312857,179.427780,-0.000662,0.005652,0.927271,0.374348
8197,0.054758,6.815401,-7.058999,-0.016235,-0.088607,0.034902,136.029739,-0.312059,179.424866,-0.000646,0.005673,0.927261,0.374373
8198,0.051639,6.807424,-7.059400,-0.014716,-0.082504,0.031849,136.028717,-0.310663,179.422089,-0.000626,0.005691,0.927257,0.374381
8199,0.049762,6.808061,-7.062930,-0.000966,-0.088619,0.037941,136.029648,-0.308404,179.419266,-0.000598,0.005707,0.927260,0.374373
8200,0.055346,6.808770,-7.060059,0.003628,-0.088621,0.034888,136.030777,-0.306950,179.416336,-0.000577,0.005726,0.927264,0.374364
8201,0.057605,6.803907,-7.062417,0.006702,-0.080975,0.051689,136.032486,-0.307401,179.413330,-0.000571,0.005752,0.927269,0.374350
8202,0.057707,6.802762,-7.060002,0.008261,-0.080954,0.050184,136.035019,-0.308619,179.410217,-0.000571,0.005781,0.927278,0.374330
8203,0.058748,6.807770,-7.062284,0.022019,-0.082457,0.062413,136.037094,-0.310107,179.406967,-0.000572,0.005812,0.927284,0.374313
8204,0.060008,6.803603,-7.062493,0.006783,-0.073274,0.073121,136.039230,-0.312307,179.403534,-0.000579,0.005847,0.927291,0.374296
8205,0.060350,6.795352,-7.061505,-0.002325,-0.080875,0.062467,136.042435,-0.314727,179.400101,-0.000588,0.005882,0.927301,0.374270
8206,0.055856,6.797609,-7.059543,-0.017533,-0.080856,0.053331,136.045517,-0.315871,179.396820,-0.000586,0.005913,0.927311,0.374245
8207,0.058282,6.796715,-7.060702,-0.017490,-0.076265,0.059447,136.047821,-0.316513,179.393631,-0.000581,0.005941,0.927318,0.374227
8208,0.057197,6.788779,-7.060824,-0.017429,-0.085406,0.050307,136.051376,-0.317273,179.390427,-0.000577,0.005969,0.927330,0.374198
8209,0.058275,6.787875,-7.059839,-0.018879,-0.093020,0.036588,136.055817,-0.317527,179.387299,-0.000569,0.005995,0.927344,0.374162
8210,0.055607,6.790614,-7.060375,-0.014234,-0.088431,0.044228,136.059738,-0.317329,179.384201,-0.000558,0.006020,0.927357,0.374130
8211,0.064011,6.787122,-7.066361,-0.015683,-0.092986,0.045777,136.064423,-0.318350,179.380997,-0.000556,0.006049,0.927372,0.374092
8212,0.061381,6.784989,-7.064717,-0.026269,-0.088373,0.047338,136.070007,-0.320505,179.377747,-0.000563,0.006082,0.927390,0.374047
8213,0.059304,6.789823,-7.066814,-0.049075,-0.071565,0.048887,136.074356,-0.321928,179.374710,-0.000565,0.006111,0.927404,0.374012
8214,0.061035,6.796015,-7.068243,-0.041383,-0.060862,0.044330,136.077042,-0.323447,179.372040,-0.000568,0.006138,0.927412,0.373990
8215,0.062536,6.798500,-7.066654,-0.044394,-0.053205,0.059616,136.078354,-0.325834,179.369446,-0.000579,0.006167,0.927416,0.373980
8216,0.061197,6.807620,-7.057298,-0.032194,-0.051652,0.058116,136.076569,-0.328393,179.366837,-0.000591,0.006196,0.927410,0.373994
8217,0.062230,6.812979,-7.059461,-0.027670,-0.057732,0.056614,136.072067,-0.330632,179.364212,-0.000601,0.006225,0.927395,0.374031
8218,0.066027,6.813186,-7.056861,-0.007894,-0.072958,0.049015,136.067352,-0.333287,179.361450,-0.000613,0.006256,0.927379,0.374069
8219,0.063263,6.813484,-7.056672,-0.001854,-0.086659,0.050572,136.062927,-0.335565,179.358444,-0.000621,0.006288,0.927365,0.374105
8220,0.063689,6.809991,-7.057861,-0.011061,-0.100366,0.044493,136.059341,-0.336844,179.355148,-0.000621,0.006318,0.927353,0.374134
8221,0.062317,6.806464,-7.059083,-0.017192,-0.101869,0.046041,136.057068,-0.337590,179.351746,-0.000615,0.006348,0.927345,0.374153
