seq,ax,ay,az,wroll,wpitch,wyaw,roll,pitch,yaw,q0,q1,q2,q3
60,0.177568,-3.473113,8.886163,-21.281111,2.276920,1.835644,-21.347799,-1.066235,0.416701,0.982655,-0.185176,-0.009817,0.001850
61,-0.197714,-7.405849,6.645282,-38.963085,0.461372,4.423575,-22.353275,-0.985052,0.496551,0.980996,-0.193789,-0.009273,0.002585
62,-0.229108,-7.263363,6.466880,-135.868698,8.968789,9.537236,-25.268618,-0.747541,0.645779,0.975758,-0.218684,-0.007598,0.004072
63,-0.397380,-7.135208,6.429547,-118.391594,13.027225,12.250727,-29.502741,-0.254838,0.799749,0.967018,-0.254603,-0.003928,0.006183
64,-0.381881,-7.215138,6.592813,-96.318222,9.783039,11.171248,-33.076347,0.271765,0.937814,0.958590,-0.284662,-0.000056,0.008520
65,-0.341556,-7.149079,6.744862,-72.182541,6.289606,9.015068,-35.881088,0.682230,1.063390,0.951302,-0.308064,0.002805,0.010662
66,-0.301635,-6.967135,6.775047,-53.492260,2.783174,7.021528,-37.972797,0.963248,1.186046,0.945483,-0.325397,0.004581,0.012521
67,-0.138866,-6.921373,6.935269,-39.948406,-3.185638,2.055380,-39.527573,1.052416,1.307989,0.940958,-0.338206,0.004783,0.013847
68,-0.106398,-6.865548,7.042494,-9.963874,-3.667631,0.459611,-40.357502,0.991641,1.412671,0.938478,-0.345011,0.003870,0.014555
69,-0.115927,-6.804668,7.070737,-7.835505,-2.721308,-1.371740,-40.653217,0.900628,1.470065,0.937587,-0.347426,0.002913,0.014759
70,-0.114095,-6.789394,7.035910,-7.443987,-1.688020,-3.059989,-40.908009,0.796772,1.462111,0.936823,-0.349502,0.002056,0.014384
71,-0.063521,-6.780109,6.976314,-7.686416,-0.829146,-4.270928,-41.161022,0.684949,1.397476,0.936067,-0.351559,0.001309,0.013517
72,-0.140673,-6.762995,6.853287,-8.936875,1.039544,-4.566132,-41.439350,0.590402,1.284505,0.935231,-0.353823,0.000853,0.012307
73,-0.137296,-6.764040,6.827322,-9.595361,2.267010,-4.381856,-41.749687,0.532633,1.136417,0.934289,-0.356349,0.000809,0.010922
74,-0.135810,-6.778946,6.821840,-10.940145,2.145710,-3.685327,-42.093304,0.497534,0.987261,0.933232,-0.359146,0.000958,0.009600
75,-0.078114,-6.888373,6.792776,-13.720077,1.193675,-3.476152,-42.505348,0.458343,0.861533,0.931946,-0.362496,0.001002,0.008457
76,-0.087309,-7.120493,6.793391,-15.779314,1.016696,-3.046721,-42.997780,0.411548,0.756687,0.930390,-0.366495,0.000922,0.007460
77,-0.025871,-7.192531,6.707792,-15.019798,0.178718,-2.320731,-43.511635,0.364729,0.677895,0.928744,-0.370661,0.000763,0.006674
78,-0.002088,-7.147319,6.599184,-14.173483,-0.340574,-1.359781,-43.998417,0.320322,0.635447,0.927165,-0.374601,0.000515,0.006189
79,0.018969,-7.211631,6.581400,-13.743867,-0.296038,-0.476332,-44.463768,0.291339,0.620928,0.925638,-0.378362,0.000303,0.005978
80,-0.011409,-7.266104,6.597123,-11.255519,-0.115839,0.682692,-44.880379,0.288855,0.628222,0.924256,-0.381725,0.000237,0.006029
81,-0.000022,-7.275829,6.589881,-8.049009,-0.404261,1.283123,-45.201969,0.305892,0.657535,0.923179,-0.384318,0.000259,0.006323
82,0.010545,-7.277894,6.548023,-17.506720,-2.034737,0.420008,-45.627632,0.297552,0.706421,0.921743,-0.387744,0.000003,0.006689
83,0.042477,-7.354466,6.527934,-16.228046,-3.173974,-0.617992,-46.189587,0.234795,0.766426,0.919829,-0.392257,-0.000739,0.006956
84,0.068089,-7.345348,6.547296,-10.998335,-3.844771,-1.643766,-46.643169,0.126835,0.825104,0.918270,-0.395888,-0.001834,0.007050
85,0.115457,-7.264237,6.566885,-5.600818,-4.450145,-3.498406,-46.919796,-0.030304,0.867083,0.917313,-0.398094,-0.003255,0.006836
86,0.110459,-7.177137,6.587559,-1.722168,-3.649481,-3.413451,-47.041901,-0.206626,0.887091,0.916891,-0.399059,-0.004743,0.006378
87,0.125363,-7.204955,6.681042,0.777503,-2.873780,-3.452179,-47.057655,-0.364459,0.888658,0.916837,-0.399174,-0.006012,0.005840
88,0.093941,-7.192647,6.814804,5.973831,-1.182019,-2.532957,-46.945007,-0.483514,0.870038,0.917230,-0.398264,-0.006894,0.005284
89,0.061541,-7.136376,6.811795,7.735364,-0.066276,-1.626529,-46.716240,-0.548307,0.837722,0.918024,-0.396430,-0.007291,0.004814
90,0.001737,-7.121741,6.804651,6.679428,1.173458,0.294641,-46.475719,-0.551753,0.809029,0.918855,-0.394504,-0.007210,0.004588
91,-0.020898,-7.123452,6.804847,5.199779,1.465020,1.457803,-46.277626,-0.500266,0.797307,0.919536,-0.392919,-0.006748,0.004683
92,-0.007579,-7.103325,6.783712,4.072186,0.645739,2.163571,-46.123234,-0.432347,0.813671,0.920065,-0.391683,-0.006253,0.005055
93,0.016467,-7.036331,6.677107,2.256741,-0.589915,3.034140,-46.018169,-0.369299,0.873097,0.920421,-0.390841,-0.005944,0.005753
94,-0.012660,-7.015559,6.681591,2.490850,-0.567478,5.354127,-45.939678,-0.282153,0.984117,0.920682,-0.390211,-0.005618,0.006946
95,-0.065157,-7.033026,6.741292,4.128412,-0.500637,8.210087,-45.829975,-0.132233,1.154258,0.921041,-0.389334,-0.004985,0.008828
96,-0.011527,-6.981461,6.745880,5.964165,-3.332983,7.646947,-45.661995,0.012468,1.384449,0.921586,-0.387987,-0.004587,0.011177
98,-0.066862,-6.915308,6.923427,9.144701,-3.158531,8.383707,-45.409920,0.127354,1.648859,0.922403,-0.385960,-0.004529,0.013702
99,-0.075507,-6.867891,7.055953,10.351802,-3.579033,7.393573,-45.084137,0.234975,1.913749,0.923454,-0.383339,-0.004508,0.016210
100,-0.012576,-6.766241,7.175793,12.219123,-5.083704,4.600909,-44.706898,0.273762,2.157298,0.924672,-0.380292,-0.004950,0.018319
101,0.091942,-6.664495,7.227943,12.290725,-6.844072,0.458272,-44.297642,0.191022,2.356866,0.925998,-0.376965,-0.006210,0.019677
102,0.088668,-6.546865,7.300032,12.871259,-5.393107,-1.643523,-43.878105,0.030733,2.484700,0.927362,-0.373538,-0.007852,0.020211
103,0.134925,-6.520895,7.343227,12.085286,-5.116544,-4.395041,-43.462261,-0.165538,2.532856,0.928715,-0.370131,-0.009525,0.019996
104,0.168964,-6.553934,7.436588,11.157776,-4.515787,-6.648343,-43.074806,-0.408649,2.508934,0.929978,-0.366946,-0.011353,0.019055
105,0.171519,-6.675504,7.436677,2.775290,-1.473231,-5.756430,-42.841877,-0.622647,2.425694,0.930742,-0.365023,-0.012787,0.017720
106,0.211534,-6.689938,7.358990,3.584110,-0.368024,-7.277828,-42.734219,-0.792809,2.287188,0.931108,-0.364132,-0.013713,0.016066
107,0.201936,-6.785129,7.370003,4.155241,1.213078,-6.991106,-42.602448,-0.943639,2.102750,0.931550,-0.363057,-0.014336,0.014104
108,0.288287,-6.752081,7.197247,2.981065,-0.108306,-8.095995,-42.480015,-1.100084,1.904984,0.931957,-0.362060,-0.014969,0.012016
109,0.283540,-6.570907,6.985979,2.448370,2.068346,-6.544158,-42.385365,-1.240623,1.702839,0.932271,-0.361294,-0.015464,0.009940
110,0.228229,-6.432590,6.995378,3.533173,6.501917,-3.104135,-42.281055,-1.243334,1.487711,0.932616,-0.360474,-0.014801,0.008195
111,0.134589,-6.378058,7.129599,1.210334,9.145379,-0.801046,-42.197525,-1.094000,1.264130,0.932900,-0.359840,-0.012877,0.006855
112,0.145724,-6.291423,7.359155,3.981092,10.913988,-1.334587,-42.106766,-0.870071,1.013297,0.933207,-0.359151,-0.010262,0.005525
113,0.022870,-6.230588,7.458850,12.077527,13.114225,-2.220423,-41.835072,-0.611914,0.701447,0.934076,-0.356982,-0.007173,0.003811
114,-0.202551,-6.396074,7.629393,20.161194,15.142639,-1.989359,-41.294830,-0.305967,0.336625,0.935763,-0.352606,-0.003534,0.001807
115,-0.252699,-6.422960,7.565403,25.843035,15.056604,-2.970420,-40.527176,0.020419,-0.055323,0.938109,-0.346339,0.000334,-0.000391
116,-0.264302,-6.412555,7.621442,30.160740,14.756635,-4.246954,-39.595047,0.323392,-0.466974,0.940888,-0.338682,0.004036,-0.002878
117,-0.376335,-6.376747,7.419774,29.052038,14.314796,-1.692638,-38.611404,0.636990,-0.849194,0.943741,-0.330555,0.007696,-0.005156
118,-0.464837,-6.263115,7.333552,21.592922,13.459995,1.341890,-37.771637,0.997299,-1.140117,0.946111,-0.323573,0.011454,-0.006596
119,-0.320334,-6.014310,7.335473,13.582894,11.031485,3.199011,-37.189396,1.367275,-1.328735,0.947711,-0.318696,0.015005,-0.007185
120,-0.359986,-5.812952,7.600353,11.629747,10.249227,5.457857,-36.771935,1.737403,-1.427046,0.948830,-0.315177,0.018314,-0.007034
121,-0.490056,-5.662026,7.670907,10.630885,8.018556,8.940585,-36.400631,2.124954,-1.415894,0.949806,-0.312045,0.021472,-0.005944
122,-0.413249,-5.626794,7.774283,12.054877,5.588598,9.263762,-36.018185,2.487275,-1.305006,0.950798,-0.308840,0.024159,-0.004118
123,-0.410640,-5.568239,7.836855,11.869272,2.267719,5.270696,-35.614052,2.735237,-1.184988,0.951845,-0.305474,0.025884,-0.002544
124,-0.488372,-5.587947,7.911648,8.047761,1.992846,2.017841,-35.279289,2.863495,-1.126999,0.952712,-0.302686,0.026789,-0.001798
125,-0.355364,-5.600892,7.826005,4.432031,-2.337619,-3.927113,-35.072418,2.840423,-1.149712,0.953261,-0.300964,0.026654,-0.002096
126,-0.181383,-5.671422,7.697617,2.742945,-0.319220,-7.613735,-34.959202,2.693745,-1.281877,0.953580,-0.300014,0.025777,-0.003607
127,-0.335774,-5.525656,7.610244,1.149271,2.689566,-10.384903,-34.906685,2.554310,-1.550686,0.953728,-0.299539,0.025318,-0.006221
128,-0.315147,-5.525036,7.643153,0.633487,3.786862,-9.800667,-34.891781,2.450307,-1.888672,0.953759,-0.299360,0.025335,-0.009310
129,-0.199713,-5.569890,7.603296,1.896416,3.440657,-9.003458,-34.863369,2.369905,-2.214945,0.953812,-0.299067,0.025515,-0.012242
130,-0.356943,-5.633184,7.467436,2.847797,4.545129,-7.020242,-34.796402,2.326660,-2.510433,0.953957,-0.298453,0.025918,-0.014830
131,-0.584281,-5.692611,7.411755,4.055581,5.769499,-3.335078,-34.691223,2.369587,-2.750438,0.954193,-0.297512,0.026885,-0.016741
132,-0.447142,-6.022321,7.504304,-12.768097,4.860569,-0.860741,-34.843197,2.475289,-2.909077,0.953762,-0.298711,0.028200,-0.017749
133,-0.481974,-6.344397,7.577086,-15.545411,4.005635,1.159385,-35.318695,2.598853,-2.990131,0.952487,-0.302612,0.029514,-0.017978
134,-0.603690,-6.316981,7.552641,9.102122,1.511825,3.496429,-35.425632,2.718663,-2.980088,0.952191,-0.303470,0.030500,-0.017548
135,-0.591153,-6.443930,7.470500,9.550149,0.130090,4.643462,-35.110195,2.819294,-2.884803,0.953024,-0.300846,0.031038,-0.016575
136,-0.369541,-6.532000,7.536062,10.183415,-1.646263,2.451900,-34.775791,2.866348,-2.773243,0.953907,-0.298081,0.031090,-0.015614
137,-0.504983,-6.290578,7.428566,11.990576,-0.686076,1.193604,-34.402634,2.868814,-2.701000,0.954881,-0.294992,0.030874,-0.015106
138,-0.612012,-6.082705,7.491210,11.995471,-0.650562,-0.263652,-34.001595,2.859050,-2.675630,0.955913,-0.291657,0.030675,-0.015028
139,-0.654431,-6.217938,7.643192,9.554290,-1.250435,-1.334877,-33.642662,2.817863,-2.680110,0.956827,-0.288671,0.030295,-0.015265
140,-0.594596,-6.087568,7.869192,9.633142,-2.565331,-2.425017,-33.323708,2.730235,-2.697275,0.957637,-0.286025,0.029563,-0.015713
141,-0.710804,-5.762971,8.007073,10.577291,-2.844998,-1.181353,-32.986919,2.621868,-2.698241,0.958488,-0.283236,0.028613,-0.016076
142,-0.640785,-5.708988,8.165233,9.696042,-4.350758,-0.261759,-32.647022,2.508075,-2.653432,0.959346,-0.280432,0.027503,-0.016065
143,-0.525872,-5.658120,8.185636,9.060362,-4.526248,-0.770156,-32.331631,2.374085,-2.588384,0.960139,-0.277838,0.026179,-0.015922
144,-0.449942,-5.429741,8.233958,10.712014,-3.205213,-0.844103,-32.000248,2.250679,-2.542506,0.960959,-0.275100,0.024988,-0.015910
145,-0.473399,-4.969522,8.288856,14.905528,-1.987823,0.021220,-31.571987,2.169863,-2.508589,0.961994,-0.271532,0.024170,-0.015911
146,-0.302522,-4.984674,8.453705,16.320713,-2.758895,0.264881,-31.049875,2.104746,-2.463443,0.963235,-0.267170,0.023445,-0.015793
147,-0.273722,-4.753188,8.560092,20.715263,-2.186880,-0.146124,-30.431036,2.034930,-2.419566,0.964677,-0.261989,0.022671,-0.015710
148,-0.236272,-4.528767,8.748955,24.599899,-3.458108,1.400479,-29.673544,1.963925,-2.354354,0.966403,-0.255634,0.021823,-0.015469
149,-0.127757,-4.382867,8.813485,26.988010,-5.526230,1.155842,-28.810110,1.854177,-2.243978,0.968328,-0.248388,0.020539,-0.014939
150,0.173522,-4.689658,8.855095,24.469971,-7.338443,-1.398588,-27.949516,1.663654,-2.145484,0.970196,-0.241163,0.018606,-0.014660
151,-0.030609,-4.501774,8.903974,24.928087,-5.157728,-2.608382,-27.125290,1.448048,-2.108192,0.971927,-0.234224,0.016596,-0.014919
152,-0.150726,-4.573453,9.070183,22.261822,-4.099546,-1.450385,-26.338655,1.279708,-2.099296,0.973524,-0.227578,0.015045,-0.015292
153,-0.130563,-4.808303,9.099896,18.022869,-3.102066,-1.756996,-25.667170,1.148437,-2.094770,0.974848,-0.221893,0.013830,-0.015596
154,-0.228286,-4.789852,9.228223,14.987781,-1.636122,-1.936532,-25.117432,1.050669,-2.116518,0.975903,-0.217228,0.012964,-0.016033
155,-0.459247,-4.640389,9.467822,13.113765,0.114853,-1.941074,-24.649952,1.000440,-2.164513,0.976776,-0.213249,0.012559,-0.016589
156,-0.444782,-4.585478,9.492178,10.989415,-0.473758,-3.238717,-24.249550,0.959232,-2.240682,0.977506,-0.209834,0.012289,-0.017358
157,-0.378860,-4.504760,9.420161,9.313330,-1.162638,-6.393883,-23.913334,0.868787,-2.376102,0.978099,-0.206968,0.011711,-0.018713
158,-0.326503,-4.078107,9.274549,12.208741,-1.178772,-11.151789,-23.558121,0.715278,-2.628050,0.978695,-0.203940,0.010790,-0.021175
159,-0.413107,-3.936414,8.965245,13.027567,0.707872,-15.095064,-23.141880,0.534635,-3.026556,0.979349,-0.200388,0.009866,-0.024936
160,-0.529660,-3.860772,8.780754,12.425148,3.381091,-15.207711,-22.721754,0.400509,-3.518257,0.979959,-0.196789,0.009472,-0.029408
161,-0.495275,-3.817228,8.755369,10.306975,3.694823,-11.778102,-22.345963,0.337021,-3.978940,0.980471,-0.193554,0.009610,-0.033488
162,-0.231234,-3.503917,8.818716,11.042088,1.829309,-8.519567,-21.992105,0.294645,-4.326997,0.980956,-0.190509,0.009723,-0.036568
163,-0.153889,-3.326119,9.004917,19.891701,4.275503,-2.646912,-21.477657,0.320356,-4.537538,0.981733,-0.186077,0.010121,-0.038373
164,-0.075857,-3.187592,9.198813,24.713097,1.307797,0.597862,-20.734758,0.395175,-4.603052,0.982900,-0.179677,0.010616,-0.038882
165,0.053076,-3.257240,9.323746,17.670750,-1.222136,1.652660,-20.028170,0.409818,-4.568273,0.984001,-0.173611,0.010449,-0.038626
166,0.297742,-2.947520,9.020543,22.282152,-2.255641,-2.161320,-19.362240,0.352504,-4.556623,0.984996,-0.167910,0.009715,-0.038670
167,0.232905,-3.102381,8.936340,19.867992,0.025730,-3.731998,-18.660229,0.285211,-4.637290,0.985976,-0.161890,0.009013,-0.039518
168,0.050588,-3.182705,9.067459,13.732053,0.930412,-5.141383,-18.100950,0.253574,-4.782730,0.986702,-0.157076,0.008747,-0.040858
169,0.027023,-3.199821,9.064059,1.261512,-1.306123,-5.091873,-17.851700,0.194851,-4.943028,0.986981,-0.154939,0.008369,-0.042337
170,-0.366051,-3.080193,9.003868,0.321722,2.238009,-2.138917,-17.825668,0.172585,-5.062413,0.986970,-0.154715,0.008329,-0.043397
171,-0.721517,-3.309982,9.391395,-6.473520,2.515436,4.262441,-17.928202,0.258844,-5.053058,0.986839,-0.155565,0.009098,-0.043192
172,-0.508212,-3.379985,9.500989,-9.813678,-2.435914,8.565857,-18.198652,0.326358,-4.850225,0.986546,-0.157885,0.009501,-0.041331
173,-0.342987,-3.339183,9.542572,-10.650317,-6.443596,9.607761,-18.538021,0.281293,-4.516211,0.986189,-0.160849,0.008767,-0.038492
174,-0.204027,-3.311061,9.691680,-9.546602,-8.781933,10.146976,-18.873241,0.146496,-4.123064,0.985836,-0.163805,0.007158,-0.035276
175,0.114815,-3.290772,9.826596,-6.801566,-9.922592,9.339856,-19.145378,-0.042517,-3.714523,0.985555,-0.166223,0.005024,-0.032020
176,0.793175,-3.103230,9.962826,-1.391899,-12.385117,2.912560,-19.282999,-0.326466,-3.399404,0.985423,-0.167492,0.002160,-0.029719
177,-0.082313,-2.877225,9.619249,3.132927,-3.459202,-3.476384,-19.254808,-0.578915,-3.321285,0.985465,-0.167312,-0.000132,-0.029416
178,0.048986,-3.292852,9.352074,-0.443176,0.920064,-4.840465,-19.208841,-0.664574,-3.438328,0.985494,-0.166938,-0.000710,-0.030547
179,-0.111078,-3.285880,9.287576,-2.810179,5.125366,-5.487329,-19.260902,-0.626188,-3.634043,0.985368,-0.167377,-0.000080,-0.032174
180,0.029183,-3.410771,9.335840,-8.714010,3.788269,-6.547226,-19.450565,-0.552527,-3.872523,0.985027,-0.168986,0.000958,-0.034116
181,-0.350551,-3.713802,9.041295,-18.350452,6.142946,-2.942100,-19.899815,-0.450016,-4.077232,0.984304,-0.172814,0.002281,-0.035716
182,0.260302,-3.740606,9.402983,-23.447937,1.274321,-0.468923,-20.595831,-0.353941,-4.173308,0.983214,-0.178758,0.003472,-0.036376
183,0.112517,-3.359615,9.282887,-21.691998,-0.088786,1.005996,-21.348137,-0.332530,-4.172242,0.982022,-0.185202,0.003893,-0.036309
184,0.300435,-3.325579,9.140891,-20.667131,-2.464859,1.660050,-22.054438,-0.355746,-4.115257,0.980878,-0.191260,0.003822,-0.035835
185,0.413533,-3.121898,8.744208,-15.969521,-3.722885,3.555163,-22.665838,-0.418134,-3.995743,0.979874,-0.196513,0.003275,-0.034899
186,0.360086,-3.059063,8.671272,-9.906303,-3.667472,4.076454,-23.098377,-0.482295,-3.830703,0.979169,-0.200233,0.002570,-0.033588
187,0.390098,-3.233982,8.605226,-5.792562,-4.300339,5.724919,-23.361822,-0.539980,-3.628227,0.978758,-0.202503,0.001797,-0.031955
188,0.457457,-3.350877,8.783256,-1.440953,-5.100818,6.617836,-23.484877,-0.602073,-3.377185,0.978602,-0.203573,0.000855,-0.029919
189,0.423937,-3.580907,8.985869,8.733827,-12.030412,3.389275,-23.366589,-0.797841,-3.110641,0.978859,-0.202607,-0.001319,-0.027989
190,0.204728,-3.790476,9.193742,7.244430,-4.087909,5.760172,-23.104263,-0.984728,-2.864589,0.979358,-0.200400,-0.003411,-0.026209
191,0.252071,-3.869550,9.359150,4.470360,-3.062504,6.309106,-22.912930,-1.015787,-2.632963,0.979738,-0.198763,-0.004122,-0.024276
192,0.207027,-3.920991,9.332064,5.118223,-3.338587,6.242902,-22.757284,-1.032875,-2.398731,0.980053,-0.197426,-0.004705,-0.022297
193,0.012709,-3.902257,9.279208,5.121845,-1.932565,5.762327,-22.590570,-1.036817,-2.180205,0.980379,-0.195991,-0.005145,-0.020427
194,0.079218,-3.982430,9.079724,-0.984614,-0.861186,6.898594,-22.525375,-0.998880,-1.967453,0.980531,-0.195418,-0.005195,-0.018539
195,-0.050281,-3.895694,9.071750,0.959440,2.269145,8.600306,-22.529533,-0.878140,-1.737833,0.980571,-0.195429,-0.004552,-0.016369
196,-0.015212,-3.784101,8.988979,3.970523,0.618432,6.514368,-22.450336,-0.737346,-1.523453,0.980746,-0.194728,-0.003723,-0.014292
197,-0.009580,-3.733135,8.971972,5.512439,0.627966,5.892211,-22.294516,-0.639487,-1.340091,0.981039,-0.193379,-0.003214,-0.012552
198,0.169786,-3.736043,9.032231,5.470974,-4.373466,3.050293,-22.113260,-0.640987,-1.178488,0.981360,-0.191822,-0.003517,-0.011166
199,0.000619,-3.614342,9.141910,10.049890,2.121280,2.020704,-21.855690,-0.644165,-1.085984,0.981797,-0.189613,-0.003723,-0.010370
201,0.194523,-3.644621,9.107902,7.232608,-2.102402,-3.138700,-21.567410,-0.650859,-1.103520,0.982269,-0.187144,-0.003777,-0.010522
202,0.075028,-3.688049,9.098966,3.712672,2.650848,-2.670623,-21.383904,-0.677872,-1.196849,0.982557,-0.185576,-0.003875,-0.011360
203,0.090750,-3.677010,9.103563,2.296910,2.494605,-4.158466,-21.282200,-0.639437,-1.334129,0.982709,-0.184705,-0.003334,-0.012472
204,0.005659,-3.746599,9.120980,-0.823920,4.257577,-3.774520,-21.255888,-0.582551,-1.498170,0.982737,-0.184478,-0.002585,-0.013787
205,0.117041,-3.604977,9.147856,2.859439,0.105802,-4.084285,-21.220497,-0.562252,-1.646621,0.982776,-0.184175,-0.002176,-0.015026
206,0.085093,-3.584106,9.242184,3.612267,0.353509,-2.034361,-21.111607,-0.591892,-1.744473,0.982935,-0.183247,-0.002289,-0.015911
207,0.174333,-3.541233,9.203816,3.063029,-2.567449,-1.275685,-20.999945,-0.646128,-1.782711,0.983104,-0.182296,-0.002709,-0.016323
208,0.191032,-3.514572,9.310943,3.294781,-3.365810,-1.117360,-20.893942,-0.752726,-1.784585,0.983264,-0.181400,-0.003635,-0.016505
209,0.262265,-3.429841,9.232265,4.178283,-5.347498,-0.197176,-20.769840,-0.896242,-1.753410,0.983452,-0.180351,-0.004934,-0.016459
210,0.238224,-3.617641,9.135745,-4.208050,-4.382936,1.008485,-20.771515,-1.043068,-1.683241,0.983445,-0.180379,-0.006304,-0.016088
211,0.269444,-3.424798,9.031868,-0.610790,-4.842840,0.774078,-20.853409,-1.176198,-1.600732,0.983314,-0.181091,-0.007566,-0.015595
212,0.151774,-3.504375,9.159821,-2.483443,-0.636428,2.493321,-20.906740,-1.242134,-1.517323,0.983233,-0.181550,-0.008256,-0.014987
213,-0.026345,-3.444542,9.047394,-1.862078,5.588508,3.763048,-20.980543,-1.127769,-1.449401,0.983137,-0.182168,-0.007374,-0.014228
214,0.031491,-3.337299,9.114711,-2.444378,-0.008304,1.269773,-21.053114,-1.010868,-1.404409,0.983038,-0.182777,-0.006433,-0.013660
215,-0.078618,-3.128864,9.216823,-1.301204,0.653536,1.718617,-21.116301,-0.982913,-1.361837,0.982945,-0.183314,-0.006254,-0.013254
216,-0.124775,-3.313936,9.104712,-2.376006,0.312772,1.519950,-21.178337,-0.948424,-1.317294,0.982854,-0.183841,-0.006023,-0.012820
217,-0.034744,-3.241844,8.980614,-3.888626,-0.734452,0.844969,-21.283396,-0.940697,-1.278008,0.982690,-0.184739,-0.006008,-0.012476
218,0.116829,-3.301924,9.080026,-6.192775,-1.885047,0.912218,-21.452145,-0.970678,-1.234831,0.982419,-0.186186,-0.006317,-0.012163
219,-0.105269,-3.392390,8.964140,-9.908509,-0.107823,0.628084,-21.721117,-0.992117,-1.198743,0.981981,-0.188491,-0.006531,-0.011904
220,0.290125,-3.582119,8.724847,-14.160197,-2.307480,-0.803117,-22.122475,-1.030522,-1.186383,0.981313,-0.191931,-0.006839,-0.011885
221,0.256001,-3.538746,8.729548,-18.101681,-0.777048,-2.346418,-22.659630,-1.098031,-1.215402,0.980393,-0.196536,-0.007311,-0.012281
222,0.303210,-3.839334,8.111844,-24.906403,-1.802087,-1.092207,-23.375710,-1.159930,-1.251296,0.979135,-0.202665,-0.007700,-0.012743
223,0.634038,-3.939830,7.489300,-33.452316,-5.914515,-5.299872,-24.347311,-1.320732,-1.296699,0.977358,-0.210975,-0.008879,-0.013491
224,0.511486,-3.853913,7.038848,-39.950397,-4.412651,-4.293174,-25.568764,-1.544094,-1.369328,0.975016,-0.221404,-0.010495,-0.014633
225,0.388252,-4.177554,6.656338,-50.374954,-4.061420,-3.680164,-27.072361,-1.729629,-1.425565,0.971992,-0.234197,-0.011762,-0.015626
226,0.371538,-4.404067,6.444118,-57.511745,-3.559991,-1.682657,-28.869467,-1.883772,-1.444723,0.968173,-0.249424,-0.012776,-0.016305
227,0.438984,-4.258720,6.795905,-56.860813,-1.838795,-4.574822,-30.773569,-2.013857,-1.490204,0.963866,-0.265491,-0.013492,-0.017198
228,-0.067513,-4.677126,7.287053,-58.128990,5.360835,0.960591,-32.686653,-1.995136,-1.572343,0.959290,-0.281553,-0.012845,-0.018063
229,0.105935,-5.074278,7.422714,-56.819683,4.959046,-0.946450,-34.598785,-1.851961,-1.666201,0.954468,-0.297519,-0.011105,-0.018685
230,0.310416,-5.435410,7.480529,-56.769852,4.738960,-0.642636,-36.487732,-1.735677,-1.781913,0.949435,-0.313212,-0.009516,-0.019507
231,0.387307,-6.035324,7.525620,-56.972515,4.414862,-1.931494,-38.379135,-1.640696,-1.908726,0.944130,-0.328841,-0.008046,-0.020434
232,0.197250,-6.503581,7.369141,-55.653778,4.075840,1.305814,-40.252956,-1.537747,-2.006604,0.938626,-0.344231,-0.006573,-0.021056
233,0.623239,-6.674199,6.997807,-51.644569,-0.660843,-0.330920,-42.040123,-1.484573,-2.031554,0.933147,-0.358823,-0.005733,-0.021193
234,0.536061,-6.996489,6.897441,-49.872013,-0.845250,0.007438,-43.731972,-1.506881,-2.018998,0.927747,-0.372562,-0.005641,-0.021246
235,-0.160396,-6.937473,6.854180,-44.544430,2.517892,4.445182,-45.306080,-1.435036,-1.985616,0.922560,-0.385262,-0.004882,-0.020811
236,0.165057,-6.839138,6.439905,-42.396976,-0.689347,4.041159,-46.756668,-1.312198,-1.908686,0.917642,-0.396895,-0.003901,-0.019830
237,-0.118429,-6.893184,6.510201,-42.405727,1.176650,4.652248,-48.171844,-1.200192,-1.816954,0.912702,-0.408184,-0.003090,-0.018748
238,-0.523685,-7.065393,6.253931,-44.601482,3.207452,8.399691,-49.623383,-0.988175,-1.728832,0.907500,-0.419692,-0.001496,-0.017312
239,-0.214114,-7.507276,6.293355,-46.270119,-0.940994,8.189981,-51.139854,-0.751227,-1.581224,0.901915,-0.431644,0.000042,-0.015276
240,0.236549,-7.853894,6.322343,-42.374767,-3.748660,3.451637,-52.619274,-0.647186,-1.400314,0.896300,-0.443244,0.000354,-0.013457
241,-0.134801,-7.880940,6.450511,-35.974026,-1.558167,3.591861,-53.926479,-0.605986,-1.259798,0.891205,-0.453437,0.000272,-0.012196
242,0.007011,-8.521221,6.317927,-32.540119,-2.591262,4.031140,-55.069527,-0.542632,-1.129575,0.886656,-0.462300,0.000358,-0.010930
243,0.327481,-8.467187,6.379770,-23.834263,-4.020596,-0.413164,-56.010208,-0.555391,-1.004606,0.882842,-0.469564,-0.000163,-0.010016
244,-0.093488,-8.570326,6.293684,-16.056524,0.223811,0.511813,-56.675579,-0.589082,-0.951337,0.880102,-0.474684,-0.000584,-0.009747
245,0.042297,-8.546407,6.297538,-12.469401,0.750140,-0.584167,-57.150848,-0.581115,-0.965466,0.878125,-0.478330,-0.000423,-0.009824
246,-0.040330,-9.030317,6.189318,-11.855178,1.536471,0.638454,-57.555935,-0.559755,-0.997088,0.876428,-0.481430,-0.000092,-0.009978
247,0.196278,-8.691019,6.080149,-6.197902,1.827091,-3.348129,-57.856121,-0.567979,-1.068563,0.875157,-0.483725,0.000173,-0.010559
248,-0.089761,-8.976505,6.163833,-3.745498,4.109059,-0.871409,-58.020611,-0.574979,-1.189820,0.874449,-0.484980,0.000647,-0.011513
249,0.265804,-8.785700,6.013307,-1.773140,2.213880,-2.923422,-58.111389,-0.572884,-1.312675,0.874052,-0.485672,0.001193,-0.012441
250,0.029652,-8.874977,5.838598,-1.069350,3.157608,-1.825583,-58.157539,-0.592828,-1.430517,0.873841,-0.486024,0.001546,-0.013424
251,0.154639,-8.583265,5.855369,2.831018,3.145535,-2.898791,-58.126823,-0.604252,-1.561307,0.873954,-0.485788,0.002010,-0.014470
252,0.268401,-8.822571,5.874139,2.156740,2.766935,-2.559056,-58.042278,-0.629333,-1.693050,0.874293,-0.485143,0.002365,-0.015583
253,0.694296,-9.501727,5.628467,-4.389000,1.534569,-4.378835,-58.078079,-0.689535,-1.815068,0.874118,-0.485419,0.002428,-0.016768
254,0.428409,-9.385698,6.433751,-11.485138,3.979277,-2.981174,-58.340832,-0.745444,-1.957789,0.872974,-0.487424,0.002647,-0.018087
255,0.438226,-9.723000,6.842255,-29.806974,2.552820,2.701032,-59.027859,-0.692897,-2.053152,0.870027,-0.492641,0.003565,-0.018569
256,0.863432,-10.237862,7.692157,-48.154469,-1.344901,4.599046,-60.327652,-0.578054,-2.008963,0.864404,-0.502467,0.004448,-0.017691
257,0.286983,-10.545649,7.675547,-60.225422,-2.282813,8.414003,-62.135048,-0.417429,-1.851786,0.856412,-0.516028,0.005219,-0.015721
258,-0.034076,-10.462922,7.244998,-64.047028,-4.986024,13.565726,-64.206947,-0.145511,-1.578189,0.846999,-0.531414,0.006243,-0.012341
259,0.271288,-11.504199,6.497176,-55.266399,-9.601111,16.105495,-66.194588,0.200671,-1.149783,0.837711,-0.546019,0.006946,-0.007449
260,-0.095166,-11.479911,6.139809,-22.221888,-9.320702,15.643109,-67.482460,0.561996,-0.651547,0.831547,-0.555404,0.007236,-0.002004
261,-0.510884,-11.428800,4.270264,3.390318,-8.417309,20.490129,-67.789406,1.005252,-0.148156,0.830038,-0.557637,0.008003,0.003819
262,-0.076968,-11.210762,4.189542,29.196783,-5.694542,21.617191,-67.235229,1.562731,0.338610,0.832648,-0.553627,0.009720,0.010011
263,-0.413841,-10.888268,4.583830,59.781105,-4.140018,25.388155,-65.736969,2.214593,0.802592,0.839668,-0.542712,0.012430,0.016369
264,-0.595645,-9.864571,3.499648,79.954819,-1.904025,24.870630,-63.388386,2.926413,1.254579,0.850389,-0.525420,0.015975,0.022727
265,-0.269790,-9.406220,2.600723,76.724113,-0.267313,22.425159,-60.755459,3.604386,1.657032,0.861964,-0.505788,0.019820,0.028371
266,-0.371369,-7.819282,3.806710,94.549248,2.206861,15.514403,-57.882542,4.163860,1.952400,0.874112,-0.484065,0.023548,0.032477
267,-0.363678,-7.429633,3.464558,99.827988,0.938882,10.236592,-54.630363,4.547851,2.149192,0.887298,-0.459104,0.026647,0.034854
268,-0.377782,-6.414616,3.038008,93.449936,3.079913,2.958440,-51.405434,4.762972,2.229435,0.899757,-0.433974,0.029004,0.035532
269,-0.384583,-5.510468,3.679379,85.807739,2.822844,-4.235087,-48.427532,4.808523,2.141095,0.910738,-0.410424,0.030596,0.034227
270,-0.462433,-4.722642,4.290090,85.501556,2.281473,-10.977588,-45.593739,4.680074,1.906491,0.920725,-0.387715,0.031195,0.031142
271,-0.413997,-5.136480,3.954888,64.182472,1.490510,-11.515246,-43.125420,4.462132,1.594787,0.929022,-0.367709,0.031091,0.027239
272,-0.494207,-4.131349,4.608912,60.409378,1.482156,-14.580636,-41.076717,4.206937,1.238500,0.935613,-0.350949,0.030580,0.022990
273,-0.299190,-4.102014,5.860786,54.217617,-0.892001,-21.116379,-39.199284,3.830616,0.776730,0.941436,-0.335464,0.029213,0.017593
274,-0.492968,-4.565685,7.073979,50.954750,0.854654,-19.187710,-37.480091,3.412861,0.250359,0.946543,-0.321193,0.027498,0.011635
275,-0.443331,-4.634579,7.731537,53.702839,0.063714,-21.428772,-35.767410,3.021361,-0.302993,0.951369,-0.306912,0.025901,0.005580
276,-0.643908,-4.457995,8.648125,53.256329,1.433919,-22.259321,-34.015366,2.625395,-0.914882,0.956038,-0.292239,0.024241,-0.000932
277,-0.656302,-5.018279,8.882257,43.143387,0.629357,-20.767735,-32.435623,2.261132,-1.534046,0.960008,-0.278957,0.022682,-0.007341
278,-0.706228,-4.880853,8.645811,38.629452,1.185179,-15.942713,-31.092772,1.964567,-2.070153,0.963198,-0.267637,0.021354,-0.012807
279,-0.565039,-4.481891,8.254604,30.356283,0.923689,-14.345550,-29.957870,1.738688,-2.523198,0.965762,-0.258049,0.020343,-0.017346
280,-0.640035,-4.659487,8.361749,16.120367,1.674241,-7.267822,-29.193081,1.598421,-2.857874,0.967417,-0.251571,0.019778,-0.020616
281,-0.522163,-4.816562,8.158797,9.467613,0.382547,-6.357135,-28.772532,1.518358,-3.073287,0.968298,-0.248002,0.019492,-0.022682
282,-0.286791,-4.488082,7.952266,9.902295,-1.101633,-6.453905,-28.454323,1.405526,-3.254985,0.968951,-0.245312,0.018864,-0.024515
283,-0.318088,-4.647769,8.122099,5.558250,-0.445892,-5.487947,-28.200457,1.288402,-3.417959,0.969460,-0.243170,0.018165,-0.026185
284,-0.250484,-4.659240,8.381468,2.618610,-0.444404,-3.152602,-28.066801,1.207371,-3.537966,0.969717,-0.242043,0.017702,-0.027393
285,-0.297134,-4.621398,8.310642,4.868628,-0.854599,-3.651884,-27.943848,1.135000,-3.627941,0.969956,-0.241009,0.017249,-0.028326
286,-0.220285,-4.682941,8.286513,-1.622726,-1.869727,-1.488747,-27.890787,1.054778,-3.682405,0.970055,-0.240575,0.016671,-0.028964
287,-0.493841,-4.837740,8.621607,-7.225180,-0.341617,1.383930,-28.037954,1.021390,-3.666626,0.969750,-0.241833,0.016393,-0.028880
288,-0.174804,-4.632044,8.402540,-9.286104,-3.108557,0.986492,-28.312046,0.989342,-3.604597,0.969184,-0.244170,0.016059,-0.028384
289,-0.543133,-5.126000,8.000196,-18.861383,-1.048400,4.018953,-28.779360,0.968337,-3.498240,0.968206,-0.248141,0.015767,-0.027466
290,-0.302317,-4.919676,7.802001,-21.335941,-2.784423,2.782869,-29.447065,0.967700,-3.367979,0.966774,-0.253796,0.015632,-0.026276
291,-0.139345,-4.762032,7.510926,-22.998684,-3.070692,0.339472,-30.184435,0.908944,-3.274404,0.965142,-0.260040,0.015094,-0.025520
292,-0.097284,-4.622899,7.013569,-26.789104,-2.368695,-2.010273,-31.013876,0.816858,-3.252299,0.963240,-0.267046,0.014453,-0.025439
293,-0.367598,-4.758558,6.586620,-34.378880,-0.295748,-1.078539,-32.033577,0.752242,-3.272977,0.960820,-0.275620,0.014187,-0.025638
294,0.433459,-4.562859,6.163877,-40.244625,-6.610081,-8.350085,-33.277988,0.570579,-3.342970,0.957750,-0.286076,0.013121,-0.026522
295,-0.097608,-4.572747,6.269344,-46.530766,-1.434023,-4.701282,-34.724857,0.338035,-3.449076,0.954026,-0.298194,0.011795,-0.027843
296,-0.027133,-4.818774,6.108036,-55.386944,-3.817000,-3.426280,-36.423470,0.188037,-3.507552,0.949478,-0.312335,0.011123,-0.028559
297,0.318889,-5.175681,6.522203,-61.462608,-4.617147,-5.830109,-38.370457,-0.017602,-3.544771,0.944008,-0.328470,0.010019,-0.029262
298,0.189216,-5.412142,6.902877,-62.681503,-1.792596,-5.146433,-40.438698,-0.216019,-3.618495,0.937886,-0.345498,0.009144,-0.030278
299,-0.055200,-5.955816,7.150596,-62.422394,0.661274,-2.279844,-42.522671,-0.311886,-3.698297,0.931415,-0.362514,0.009166,-0.031058
300,0.515417,-6.513975,7.224551,-55.461597,-1.611572,-6.625030,-44.486122,-0.425559,-3.794444,0.925026,-0.378440,0.009097,-0.032048
301,0.415148,-6.585262,7.240371,-43.467609,3.258192,-8.385983,-46.132713,-0.583808,-3.990582,0.919412,-0.391718,0.008957,-0.034028
302,-0.168171,-6.835964,6.912968,-35.733810,5.767202,-2.048901,-47.450191,-0.606838,-4.219152,0.914775,-0.402249,0.009966,-0.035828
304,0.225800,-6.982155,6.611731,-31.937901,3.941524,-5.656877,-48.575855,-0.594156,-4.424729,0.910716,-0.411193,0.011156,-0.037317
305,-0.122550,-6.977102,6.486824,-31.039732,6.080184,-4.912398,-49.622757,-0.617796,-4.666619,0.906836,-0.419478,0.012195,-0.039215
306,-0.128526,-7.263022,6.423275,-35.773365,4.961945,-3.694323,-50.733746,-0.610009,-4.899669,0.902647,-0.428221,0.013506,-0.040901
307,-0.145554,-7.688830,6.322978,-41.418919,3.428024,-2.458924,-52.018295,-0.603058,-5.072895,0.897729,-0.438288,0.014681,-0.042078
308,-0.073164,-8.089192,6.103742,-45.769787,2.736585,-3.074340,-53.469753,-0.614516,-5.210479,0.892052,-0.449609,0.015664,-0.043005
309,-0.145358,-8.463324,6.072577,-45.283630,0.731344,2.686236,-54.986488,-0.586045,-5.261232,0.886010,-0.461360,0.016656,-0.043071
310,0.296086,-8.853355,6.059082,-41.032837,-2.767047,3.970201,-56.425728,-0.514063,-5.170304,0.880196,-0.472441,0.017374,-0.041864
311,0.209361,-8.865401,5.682653,-34.699902,-3.245459,5.808582,-57.689198,-0.432200,-4.997664,0.875013,-0.482118,0.017733,-0.040007
312,-0.131103,-9.285948,5.723127,-29.169338,-3.217131,10.763308,-58.754967,-0.254354,-4.760511,0.870607,-0.490217,0.018441,-0.037279
313,0.332368,-9.386128,5.454374,-23.859734,-6.333642,9.431767,-59.639488,-0.047072,-4.451052,0.866932,-0.496912,0.018954,-0.033895
314,0.220611,-9.491509,5.485971,-18.268938,-4.840355,6.332812,-60.341572,0.087047,-4.158488,0.863976,-0.502224,0.018891,-0.030985
315,-0.202767,-9.407660,5.485685,-11.931417,-1.190520,7.089714,-60.844357,0.232598,-3.961133,0.861836,-0.506004,0.019250,-0.028775
316,-0.242274,-9.620255,5.448349,-9.999055,-0.621808,6.294691,-61.209034,0.413130,-3.826494,0.860278,-0.508719,0.020098,-0.026901
317,-0.054212,-9.631651,5.333334,-7.449182,-0.248999,3.704701,-61.499043,0.552433,-3.733847,0.859025,-0.510874,0.020797,-0.025534
318,-0.155074,-9.701550,5.603280,-4.627316,0.471105,3.112334,-61.699787,0.654152,-3.683080,0.858150,-0.512360,0.021377,-0.024662
319,-0.009827,-10.197881,5.678771,-16.069778,-1.854676,1.393185,-62.044064,0.709506,-3.627320,0.856624,-0.514932,0.021614,-0.023932
320,0.141360,-10.359941,7.026217,-38.487595,-4.579887,-5.438818,-62.952614,0.600195,-3.563442,0.852517,-0.521747,0.020699,-0.023783
321,-0.302642,-10.357586,6.724250,-60.156620,-0.989593,-4.868072,-64.596466,0.405255,-3.556395,0.844925,-0.533973,0.019568,-0.024340
322,0.271037,-11.109550,6.954402,-61.971886,1.187326,-8.296342,-66.631897,0.207229,-3.649411,0.835261,-0.548928,0.019000,-0.025616
323,0.214147,-11.392891,5.614406,-54.486542,2.511634,-7.967955,-68.572495,-0.019330,-3.809960,0.825774,-0.563021,0.018587,-0.027561
324,0.091116,-11.584130,4.802602,-28.006128,4.984206,-2.692318,-69.946762,-0.140964,-3.989685,0.818897,-0.572883,0.018945,-0.029228
325,0.051464,-12.008052,3.213204,2.900693,6.189552,6.931719,-70.365013,-0.010896,-4.140517,0.816785,-0.575810,0.020737,-0.029580
326,0.637546,-12.272773,3.469798,43.299900,5.444860,7.202989,-69.595375,0.277095,-4.241474,0.820658,-0.570214,0.023103,-0.029009
327,0.400231,-11.371882,2.637829,57.263592,5.431641,8.697196,-67.920090,0.590040,-4.313554,0.828937,-0.558051,0.025290,-0.028340
328,0.286601,-10.714222,3.289646,63.949020,5.875784,10.526899,-65.901100,0.958688,-4.361095,0.838676,-0.543235,0.027710,-0.027380
329,0.510843,-9.530579,4.414760,75.233871,5.588159,6.818902,-63.583275,1.301581,-4.410620,0.849516,-0.526036,0.029918,-0.026726
330,0.276748,-8.327625,3.885932,87.226364,5.802790,6.518746,-60.878525,1.586334,-4.474157,0.861701,-0.505724,0.031700,-0.026643
331,0.223230,-7.483054,3.424238,82.361404,3.076519,7.940938,-58.054043,1.868850,-4.478903,0.873916,-0.484230,0.033207,-0.026256
332,-0.252185,-6.455796,3.909446,86.574074,1.257147,12.991070,-55.235668,2.200349,-4.347459,0.885596,-0.462508,0.034580,-0.024707
333,-0.181934,-5.794548,4.233812,89.534363,1.289701,9.053021,-52.295086,2.522387,-4.165031,0.897205,-0.439568,0.035755,-0.022919
334,-0.447090,-5.353284,3.490859,75.231590,2.504160,11.665584,-49.543011,2.829491,-3.995646,0.907518,-0.417837,0.037007,-0.021306
335,-0.537800,-4.884155,3.758888,62.049248,1.606650,12.273731,-47.245110,3.173454,-3.782652,0.915721,-0.399501,0.038576,-0.019137
336,-0.857603,-4.429045,4.519866,60.925339,0.693465,15.348723,-45.179359,3.532573,-3.491670,0.922773,-0.382901,0.040142,-0.016281
337,-0.736839,-4.435134,4.889362,53.397739,-4.294697,15.081272,-43.248569,3.843543,-3.085871,0.929093,-0.367338,0.041081,-0.012663
338,-1.033303,-4.798403,5.520360,43.775696,-8.143888,20.003002,-41.590042,4.085529,-2.512790,0.934315,-0.353984,0.041095,-0.007833
339,-0.822057,-5.425414,6.294219,34.914585,-15.149635,16.591532,-40.227188,4.192631,-1.796111,0.938466,-0.343072,0.039731,-0.002130
340,-0.308813,-5.592378,7.242876,37.962826,-20.902534,9.686279,-38.961472,4.009415,-1.073282,0.942245,-0.332962,0.036099,0.002841
341,-0.278347,-6.098540,7.392344,31.554871,-18.872717,4.395664,-37.763691,3.635020,-0.475871,0.945746,-0.323327,0.031352,0.006337
342,-0.132149,-6.600909,7.602468,23.869068,-17.037148,1.007113,-36.814297,3.213282,-0.040616,0.948467,-0.315634,0.026715,0.008517
343,0.038849,-6.257142,7.986521,22.557003,-14.097009,-3.227809,-36.026161,2.773777,0.238301,0.950690,-0.309191,0.022374,0.009462
344,-0.219133,-5.882201,8.088093,22.591152,-8.305274,-2.641415,-35.267654,2.413120,0.376584,0.952775,-0.302930,0.019072,0.009510
345,-0.394520,-5.694795,8.224617,18.265736,-3.057125,-3.082540,-34.585560,2.203094,0.406530,0.954596,-0.297263,0.017301,0.009101
346,-0.292194,-5.350379,8.538615,17.923033,-1.936798,-1.861386,-33.983273,2.087758,0.385182,0.956165,-0.292241,0.016441,0.008538
347,-0.547161,-4.893607,8.684636,21.868177,1.036591,-3.824974,-33.322651,2.022770,0.314495,0.957850,-0.286715,0.016123,0.007690
348,-0.350432,-4.907070,8.296002,26.351591,1.482778,-6.875166,-32.525047,1.960952,0.141796,0.959841,-0.280018,0.016081,0.005980
349,-0.535464,-4.682554,8.254043,27.135208,3.617176,-5.067143,-31.640900,1.927147,-0.072047,0.961987,-0.272575,0.016351,0.003980
350,-0.511775,-4.915507,8.346598,25.749075,2.149249,-1.232875,-30.764328,1.954992,-0.211897,0.964044,-0.265187,0.016939,0.002743
351,-0.695879,-4.819430,8.393403,28.266781,0.782572,0.045311,-29.865585,1.987428,-0.253715,0.966091,-0.257609,0.017327,0.002330
352,-0.385684,-4.713474,8.503018,28.192734,-2.112397,1.550084,-28.923477,1.981293,-0.219607,0.968176,-0.249664,0.017220,0.002462
353,-0.477937,-4.671485,8.721766,21.915146,-2.842647,4.687609,-28.083908,1.958518,-0.088643,0.969980,-0.242584,0.016767,0.003396
354,0.167301,-4.743073,8.788468,17.040457,-7.212045,-0.534149,-27.430044,1.842716,0.050691,0.971360,-0.237069,0.015517,0.004242
355,-0.137132,-4.591105,8.632204,11.275895,-3.086284,-4.611958,-26.958130,1.650783,0.053182,0.972353,-0.233072,0.013900,0.003809
356,0.013419,-4.546404,8.553854,4.453684,-0.223278,-9.269578,-26.701038,1.496954,-0.128425,0.972895,-0.230874,0.012969,0.001926
357,-0.257961,-4.454640,8.571370,0.763113,4.214942,-10.814167,-26.622492,1.406014,-0.457451,0.973064,-0.230174,0.012859,-0.001060
358,-0.509550,-4.207495,8.687816,0.088365,5.774707,-8.767229,-26.617405,1.408519,-0.823917,0.973066,-0.230088,0.013616,-0.004167
359,-0.842806,-4.194858,8.726687,-1.489263,8.221040,-6.994508,-26.649429,1.499253,-1.163414,0.972977,-0.230309,0.015070,-0.006863
360,-0.729430,-3.987163,8.946249,2.114229,5.884190,-2.712213,-26.645931,1.636770,-1.413543,0.972954,-0.230227,0.016740,-0.008711
361,-0.646306,-3.959489,8.931787,16.541813,10.345296,5.460194,-26.337502,1.899356,-1.493210,0.973536,-0.227559,0.019105,-0.008910
362,-0.477622,-4.141065,8.950815,10.395403,3.223674,3.972899,-25.887224,2.171817,-1.451445,0.974392,-0.223700,0.021305,-0.008097
363,-0.400999,-4.134829,8.883143,7.802963,-0.123198,2.222015,-25.581242,2.263271,-1.380713,0.974977,-0.221098,0.021925,-0.007375
364,-0.368782,-4.029302,8.958313,10.163693,-1.968346,3.301357,-25.277927,2.271328,-1.282464,0.975564,-0.218534,0.021787,-0.006582
365,-0.149056,-4.119346,8.776093,2.299704,-7.714876,-1.968333,-25.066801,2.134740,-1.193620,0.975990,-0.216770,0.020443,-0.006124
366,-0.313900,-4.151241,8.894642,-1.965910,-0.969718,-1.241026,-25.060841,1.980982,-1.180556,0.976022,-0.216740,0.019109,-0.006305
367,-0.237025,-4.061373,8.904142,-3.833439,-0.155458,-1.409222,-25.158609,1.945260,-1.212569,0.975839,-0.217572,0.018871,-0.006629
368,-0.326027,-4.140018,8.901867,-7.085086,1.273616,-2.400038,-25.342806,1.935033,-1.277968,0.975486,-0.219131,0.018919,-0.007175
369,-0.354978,-4.285800,8.515230,-11.013263,1.682926,-2.219669,-25.647516,1.946373,-1.368713,0.974892,-0.221707,0.019210,-0.007875
370,-0.337708,-4.535151,8.458284,-15.291403,0.526465,-1.796009,-26.088524,1.950280,-1.445037,0.974026,-0.225444,0.019424,-0.008442
371,-0.262605,-4.530010,8.286593,-15.028741,-0.233907,-2.394241,-26.596035,1.923609,-1.509850,0.973016,-0.229748,0.019365,-0.008960
372,-0.282613,-4.852444,7.995728,-18.507072,-0.252700,0.378009,-27.155834,1.901193,-1.536207,0.971883,-0.234498,0.019272,-0.009135
373,0.025552,-4.702405,7.650790,-22.046824,-3.082602,-1.570455,-27.831446,1.842603,-1.528113,0.970490,-0.240234,0.018812,-0.009075
374,0.194997,-4.784426,7.353402,-30.610458,-4.595250,-5.822568,-28.710503,1.671572,-1.576196,0.968632,-0.247689,0.017540,-0.009707
375,-0.215342,-4.707999,7.422177,-34.313385,-0.227452,-3.196098,-29.795076,1.528169,-1.668197,0.966249,-0.256854,0.016628,-0.010639
376,0.038885,-4.415950,7.010858,-38.537247,-3.025104,-5.069792,-31.011488,1.411678,-1.759162,0.963468,-0.267101,0.015973,-0.011498
377,-0.396075,-4.602314,6.792642,-50.143791,0.973311,-5.300674,-32.492321,1.291651,-1.888414,0.959929,-0.279531,0.015430,-0.012667
378,-0.280520,-5.514428,6.771680,-58.134312,-1.946325,-2.897105,-34.298901,1.203081,-1.993104,0.955396,-0.294630,0.015158,-0.013523
379,-0.512387,-5.021795,6.568460,-52.437553,-0.810751,1.194317,-36.141140,1.148661,-1.989864,0.950538,-0.309960,0.014914,-0.013398
380,-0.077456,-5.748189,6.401147,-57.148487,-6.596623,1.442468,-37.964939,1.076283,-1.879979,0.945499,-0.325075,0.014216,-0.012458
381,-0.219319,-6.381048,6.375829,-55.391880,-5.991324,2.204599,-39.836929,0.950758,-1.701508,0.940084,-0.340517,0.012858,-0.011133
382,0.067654,-6.322547,6.300404,-44.065269,-8.352003,1.584314,-41.490940,0.810560,-1.497752,0.935093,-0.354092,0.011244,-0.009717
383,0.197264,-6.000716,6.486855,-37.391010,-6.436807,-1.094704,-42.846149,0.633087,-1.326637,0.930856,-0.365162,0.009371,-0.008759
384,-0.009300,-6.856267,6.768645,-39.004482,-2.913779,-2.052910,-44.118595,0.484170,-1.257598,0.926749,-0.375497,0.008037,-0.008584
385,-0.278832,-6.437376,6.777840,-35.975067,1.899144,-4.535081,-45.368618,0.395183,-1.323491,0.922592,-0.385589,0.007636,-0.009326
386,-0.002881,-6.741062,6.596897,-44.055119,0.657275,-5.492664,-46.703213,0.304965,-1.470040,0.918024,-0.396307,0.007528,-0.010723
387,0.100263,-7.156327,6.917019,-49.765564,1.642045,-9.034045,-48.267368,0.152320,-1.661963,0.912505,-0.408806,0.007143,-0.012692
388,-0.323610,-7.375462,6.539897,-52.400784,3.461314,-6.091109,-49.970119,0.017702,-1.891364,0.906296,-0.422322,0.007111,-0.014895
389,-0.288234,-7.709946,6.559635,-54.083050,1.896002,-3.490166,-51.744404,-0.049863,-2.060916,0.899621,-0.436302,0.007456,-0.016371
390,0.294378,-8.071813,6.171103,-51.579197,-1.636988,-6.445073,-53.504761,-0.179177,-2.164678,0.892786,-0.450081,0.007107,-0.017571
391,-0.258520,-8.529199,6.386393,-45.265709,2.054279,-1.825585,-55.118061,-0.287169,-2.251312,0.886338,-0.462615,0.006868,-0.018575
392,-0.250463,-8.279013,5.902501,-38.534660,-0.013764,1.935347,-56.514374,-0.266462,-2.277766,0.880633,-0.473376,0.007362,-0.018608
393,-0.394858,-8.920584,5.852815,-36.886681,-0.926515,3.709260,-57.771469,-0.196315,-2.213354,0.875404,-0.483003,0.007830,-0.017738
394,0.011893,-8.627610,5.676348,-27.556549,-2.442637,0.305499,-58.845665,-0.169047,-2.130328,0.870853,-0.491189,0.007847,-0.016916
395,-0.372749,-8.996329,5.455976,-25.623652,-0.489325,2.507362,-59.732140,-0.153720,-2.064648,0.867038,-0.497914,0.007809,-0.016292
396,-0.273841,-8.630831,5.223987,-20.348043,-0.452419,1.669465,-60.498386,-0.101158,-2.016169,0.863701,-0.503697,0.008100,-0.015643
397,-0.106212,-9.089922,5.034090,-19.623260,0.146103,-0.253700,-61.164574,-0.083037,-2.000232,0.860762,-0.508709,0.008257,-0.015395
398,0.365455,-8.868259,5.172273,-11.002717,0.786721,-5.401220,-61.674858,-0.158292,-2.059037,0.858473,-0.512542,0.008024,-0.016135
399,-0.030114,-9.107764,5.138903,-7.296811,3.534581,-1.863438,-61.979443,-0.230873,-2.179894,0.857083,-0.514823,0.008067,-0.017344
400,0.115394,-9.536235,5.451871,-4.399563,2.872077,-1.813473,-62.173920,-0.234968,-2.302860,0.856189,-0.516268,0.008620,-0.018267
401,0.791605,-9.704792,5.851828,-2.097443,0.600401,-6.753754,-62.281616,-0.334322,-2.420606,0.855673,-0.517078,0.008427,-0.019587
402,0.289809,-9.998816,7.069400,1.747093,2.887706,-6.023904,-62.286312,-0.495788,-2.571180,0.855604,-0.517126,0.007901,-0.021439
403,0.215300,-10.114985,7.848090,-0.218829,1.994132,-7.383752,-62.259121,-0.655690,-2.747222,0.855670,-0.516935,0.007496,-0.023477
404,0.486974,-10.511771,8.423680,-7.678231,0.693981,-8.324309,-62.388569,-0.866752,-2.908485,0.855017,-0.517924,0.006676,-0.025625
405,0.361068,-10.555032,7.983470,-11.349803,2.371520,-4.419358,-62.703304,-1.031764,-3.051661,0.853528,-0.520288,0.006167,-0.027422
407,0.308930,-10.682669,7.727357,1.541340,3.559835,5.173219,-62.865376,-0.975425,-3.133696,0.852782,-0.521481,0.006999,-0.027767
408,0.190422,-10.733319,6.750823,14.191900,1.715248,16.266037,-62.604412,-0.617492,-3.047987,0.854050,-0.519483,0.009215,-0.025523
409,-0.186311,-10.984274,4.748089,29.043373,-2.358681,28.366858,-61.885780,0.035828,-2.691935,0.857447,-0.514035,0.012346,-0.019986
410,0.158585,-10.344145,3.710388,51.325840,-4.697145,30.657784,-60.542233,0.841344,-2.114995,0.863548,-0.503876,0.015643,-0.012238
411,-0.411594,-9.447716,4.101274,76.803108,-5.405107,37.917297,-58.391140,1.739243,-1.388223,0.872885,-0.487540,0.019157,-0.003171
412,-0.911117,-8.762485,3.506297,78.177231,-8.558548,38.515476,-55.775238,2.680807,-0.499832,0.883664,-0.467516,0.022715,0.007087
413,0.096377,-7.751308,3.354599,76.823524,-12.686973,23.954247,-53.147034,3.322138,0.394341,0.893935,-0.447244,0.024386,0.016044
414,0.307762,-6.040907,4.771193,88.038673,-9.744738,15.245717,-50.359352,3.602579,1.095714,0.904361,-0.425501,0.024379,0.022022
415,-0.173677,-5.738054,4.843693,80.089264,-6.166592,14.944730,-47.524845,3.805463,1.627974,0.914437,-0.403114,0.024664,0.026372
416,0.003077,-5.176393,4.590245,61.989086,-7.611602,5.455304,-45.131287,3.892469,2.028885,0.922532,-0.384015,0.024567,0.029370
417,0.214091,-4.728603,4.555433,49.073174,-6.767254,-4.668842,-43.269352,3.729400,2.206878,0.928658,-0.369006,0.023145,0.029886
418,-0.563391,-4.417001,4.624349,40.413158,-0.807400,-1.527097,-41.777802,3.565684,2.217106,0.933432,-0.356880,0.022166,0.029157
419,-0.786984,-4.801642,4.501168,22.933601,-0.668900,-1.463723,-40.723564,3.514155,2.195201,0.936697,-0.348270,0.022079,0.028617
420,-0.897633,-4.756410,5.343536,19.259455,-3.115081,-3.151510,-40.021465,3.416259,2.177472,0.938848,-0.342515,0.021504,0.028044
421,-0.644808,-4.846980,6.210529,24.905262,-4.916474,-7.498732,-39.288361,3.199942,2.126330,0.941095,-0.336477,0.020056,0.026853
422,-1.033034,-5.206267,7.319572,28.456310,-3.596558,-4.645375,-38.402756,2.962404,2.057723,0.943748,-0.329165,0.018503,0.025452
423,-0.941389,-5.380200,8.138767,32.101460,-3.642556,-5.929392,-37.396786,2.759064,1.992446,0.946667,-0.320842,0.017229,0.024181
424,-1.035705,-5.627439,8.394182,32.493496,-2.757318,-3.845195,-36.323406,2.575964,1.926027,0.949689,-0.311936,0.016117,0.022971
425,-0.916814,-5.780251,8.114479,31.813053,-1.878889,-4.363041,-35.254612,2.433392,1.860030,0.952602,-0.303044,0.015320,0.021895
426,-1.151004,-5.747844,8.112805,28.346802,-2.168605,0.088186,-34.252884,2.337288,1.839907,0.955239,-0.294695,0.014761,0.021346
427,-1.002275,-5.547480,7.845473,24.221786,-2.002812,-0.120628,-33.375259,2.279505,1.878036,0.957473,-0.287371,0.014346,0.021406
428,-1.038396,-5.511747,7.675790,19.116402,-1.177541,2.098159,-32.650753,2.253011,1.934611,0.959265,-0.281316,0.014120,0.021724
429,-1.011469,-5.271926,7.983844,17.165312,-0.808623,1.966516,-32.043125,2.261387,2.009521,0.960728,-0.276235,0.014125,0.022297
430,-0.952272,-4.899035,8.361220,18.386570,-0.323600,1.554156,-31.448238,2.276210,2.069381,0.962134,-0.271253,0.014223,0.022761
431,-0.652357,-4.899985,8.354374,19.179756,-0.525539,-0.257237,-30.821129,2.275241,2.095213,0.963599,-0.265987,0.014279,0.022897
432,-0.735546,-4.885144,8.475741,22.722420,0.603541,0.216408,-30.122833,2.275949,2.094015,0.965202,-0.260110,0.014427,0.022801
433,-0.556851,-4.570973,8.495242,24.482334,-0.112021,-1.723074,-29.337151,2.270602,2.068066,0.966969,-0.253482,0.014596,0.022471
434,-0.370640,-4.607635,8.383747,19.879005,-0.733140,-3.615233,-28.600605,2.215116,1.997087,0.968603,-0.247247,0.014424,0.021658
435,-0.285397,-4.556717,8.510859,14.562174,-0.743577,-3.881953,-28.030336,2.134085,1.898788,0.969856,-0.242403,0.014053,0.020583
436,-0.185302,-4.356184,8.403033,9.463788,0.039082,-6.324007,-27.635201,2.044238,1.753792,0.970728,-0.239031,0.013666,0.019119
437,-0.129545,-4.274907,8.524961,0.935699,1.456432,-8.088440,-27.469728,1.955099,1.529209,0.971123,-0.237595,0.013403,0.017011
438,-0.314610,-4.470836,8.387699,-7.872682,3.490917,-7.705835,-27.594515,1.906370,1.257564,0.970909,-0.238617,0.013538,0.014623
439,-0.385506,-4.415989,8.267831,-12.141421,5.095499,-9.359336,-27.938702,1.900327,0.939103,0.970226,-0.241493,0.014114,0.011955
440,-0.395457,-4.489480,7.949334,-19.109703,5.749937,-10.300245,-28.471987,1.904713,0.564740,0.969125,-0.245959,0.014899,0.008864
441,-0.281671,-4.770411,7.940003,-25.158131,5.426398,-11.715960,-29.223385,1.890684,0.153264,0.967520,-0.252254,0.015628,0.005456
442,-0.530494,-4.624186,8.029260,-26.137682,6.908107,-9.201319,-30.091612,1.896702,-0.251642,0.965593,-0.259520,0.016554,0.002176
443,-0.541552,-4.849417,8.275048,-28.368357,6.072585,-8.965451,-31.012434,1.928983,-0.622374,0.963475,-0.267213,0.017672,-0.000733
444,-0.297891,-4.946482,8.392847,-28.396494,3.758157,-10.421642,-31.970495,1.899810,-0.983702,0.961204,-0.275205,0.018300,-0.003686
445,-0.096630,-5.003684,8.485081,-25.639107,2.723534,-10.461223,-32.882320,1.804372,-1.335747,0.958979,-0.282800,0.018399,-0.006722
446,-0.570140,-4.964650,8.335290,-23.936251,5.509750,-5.273832,-33.717693,1.775119,-1.630474,0.956874,-0.289740,0.018949,-0.009123
447,-0.173711,-5.421356,7.975172,-29.051928,2.084991,-7.402739,-34.608459,1.761086,-1.876162,0.954573,-0.297130,0.019539,-0.011059
448,0.085868,-5.456481,7.443607,-30.369184,0.801063,-9.327929,-35.606270,1.639975,-2.132283,0.951932,-0.305410,0.019312,-0.013339
449,-0.163761,-5.683627,6.822395,-33.431553,2.593096,-6.321662,-36.676239,1.531873,-2.376492,0.949015,-0.314265,0.019210,-0.015478
450,-0.516778,-5.734460,6.352054,-39.236298,2.435665,-4.305094,-37.892342,1.491119,-2.567947,0.945601,-0.324295,0.019579,-0.016968
451,-0.045994,-5.764696,5.944571,-44.607098,-1.996682,-10.009288,-39.294273,1.347811,-2.758885,0.941538,-0.335839,0.019167,-0.018717
452,-0.322664,-5.783312,5.715822,-47.500164,-0.011328,-6.789211,-40.833256,1.142123,-2.952280,0.936913,-0.348470,0.018324,-0.020666
453,-0.154539,-5.716061,5.652318,-49.636299,-1.472613,-6.831829,-42.454704,0.972662,-3.105032,0.931859,-0.361709,0.017718,-0.022182
454,0.027804,-5.998054,5.653393,-53.717915,-2.438244,-8.092885,-44.178921,0.754514,-3.241375,0.926277,-0.375723,0.016734,-0.023731
455,0.017490,-6.207553,6.052195,-51.168880,-0.798942,-8.321866,-45.928295,0.522825,-3.396553,0.920388,-0.389855,0.015762,-0.025508
456,0.132711,-6.517971,6.303124,-47.320198,-0.958692,-7.220287,-47.570549,0.314338,-3.552587,0.914654,-0.403037,0.015010,-0.027259
457,0.004158,-6.837260,6.533865,-42.920174,-0.044688,-7.328735,-49.074799,0.122094,-3.701273,0.909230,-0.415039,0.014380,-0.028935
458,-0.073524,-7.223922,6.692661,-37.470272,0.623269,-5.900369,-50.414524,-0.039779,-3.851086,0.904257,-0.425664,0.013996,-0.030549
459,0.010242,-6.983284,6.640238,-27.834206,1.174127,-6.356388,-51.502506,-0.179530,-4.002920,0.900114,-0.434249,0.013763,-0.032137
460,0.044727,-7.232304,6.313196,-25.058071,1.701979,-4.595572,-52.383358,-0.293534,-4.153274,0.896689,-0.441168,0.013697,-0.033645
461,-0.144905,-7.461205,6.081936,-23.779171,1.721457,-1.917691,-53.196648,-0.345492,-4.264269,0.893494,-0.447521,0.013963,-0.034616
462,0.440069,-7.639965,5.861602,-22.530811,-2.566523,-3.822035,-53.968155,-0.430912,-4.309602,0.890432,-0.453545,0.013712,-0.035211
463,0.255226,-7.718745,5.513916,-23.209341,-1.497646,-3.172962,-54.730309,-0.565246,-4.322744,0.887367,-0.459492,0.012958,-0.035759
464,0.184442,-8.246042,5.596164,-27.696201,-2.903753,2.871979,-55.579288,-0.611246,-4.265336,0.883947,-0.466073,0.012634,-0.035406
465,0.415618,-8.420319,5.690539,-26.982735,-5.753613,1.879209,-56.492287,-0.626441,-4.101152,0.880253,-0.473123,0.012121,-0.034106
466,0.127172,-8.545009,5.707046,-23.333799,-5.642096,5.329116,-57.333321,-0.629598,-3.876597,0.876821,-0.479594,0.011407,-0.032311
467,-0.009195,-8.683959,5.681157,-18.242123,-4.515223,5.420044,-58.028671,-0.568876,-3.637574,0.873971,-0.484916,0.011055,-0.030162
468,-0.116656,-8.753857,6.071003,-11.668226,-3.063830,8.141516,-58.529137,-0.443076,-3.411227,0.871922,-0.488723,0.011178,-0.027855
469,-0.088613,-9.025127,6.079857,-6.502359,-1.867355,5.716703,-58.833145,-0.288599,-3.220786,0.870690,-0.491022,0.011610,-0.025716
470,-0.217007,-9.262799,5.841656,-3.125674,0.884705,5.436678,-58.994019,-0.137883,-3.110754,0.870044,-0.492225,0.012318,-0.024217
471,-0.040604,-9.216900,5.662671,-0.616305,1.752656,3.786858,-59.056385,0.016544,-3.069274,0.869803,-0.492672,0.013325,-0.023232
472,0.087652,-9.119103,5.616207,0.050714,1.337686,4.001941,-59.065758,0.154367,-3.046687,0.869782,-0.492717,0.014276,-0.022466
473,0.253870,-9.189400,5.340423,-0.144867,-2.247531,3.387573,-59.067059,0.252211,-2.970364,0.869801,-0.492716,0.014690,-0.021466
474,0.111191,-8.822050,5.135015,2.065185,-3.829563,3.326443,-59.034401,0.296092,-2.825952,0.869972,-0.492478,0.014397,-0.020185
475,0.146453,-8.618287,5.338347,4.856948,-5.474216,4.779888,-58.917927,0.331932,-2.623426,0.870509,-0.491611,0.013780,-0.018508
476,0.248348,-8.783137,5.521093,7.008436,-6.217059,4.634846,-58.718670,0.365265,-2.375473,0.871403,-0.490120,0.012940,-0.016504
477,-0.083782,-9.725091,5.586673,3.929707,-5.156064,7.328903,-58.534519,0.436793,-2.109811,0.872229,-0.488736,0.012325,-0.014197
478,0.019717,-9.808142,5.948444,-7.823452,-7.249216,5.155332,-58.597023,0.506566,-1.824933,0.871997,-0.489232,0.011648,-0.011725
479,0.025874,-10.052015,7.445162,-29.766607,-9.211399,4.534701,-59.220772,0.503436,-1.506671,0.869350,-0.494002,0.010315,-0.009260
480,0.057815,-10.566735,8.274793,-50.467804,-9.947158,4.013943,-60.554993,0.466938,-1.159072,0.863563,-0.504123,0.008618,-0.006681
481,-0.171058,-11.267114,8.657399,-64.705032,-7.770178,6.462761,-62.471313,0.480052,-0.816375,0.855028,-0.518516,0.007276,-0.003919
482,0.078662,-10.934161,8.807323,-60.361889,-7.570590,6.432316,-64.552010,0.558814,-0.491385,0.845479,-0.533969,0.006413,-0.001021
483,-0.472928,-11.372890,8.381641,-36.526928,-4.476566,13.320170,-66.162575,0.774187,-0.171678,0.837883,-0.545807,0.006479,0.002432
484,-0.451987,-11.736973,6.762113,-3.618193,-4.574036,17.019211,-66.825546,1.177125,0.169593,0.834672,-0.550650,0.007759,0.006892
485,-0.658008,-11.370103,5.732888,35.797310,-5.425987,20.448591,-66.279137,1.682793,0.572212,0.837200,-0.546676,0.009566,0.012208
486,-0.739529,-10.794422,4.428882,71.629860,-7.656207,22.010693,-64.472015,2.234043,1.066786,0.845564,-0.533437,0.011524,0.018271
487,-0.762345,-10.356169,2.727880,80.949959,-5.757315,22.165508,-61.906792,2.789048,1.599961,0.857074,-0.514430,0.013690,0.024486
488,-0.414122,-9.160181,3.087373,86.232422,-4.041467,14.242108,-59.098808,3.235758,2.041306,0.869198,-0.493337,0.015776,0.029412
489,-0.581313,-8.836316,3.006704,92.146469,1.395150,11.460499,-56.111977,3.572238,2.309613,0.881585,-0.470564,0.018026,0.032434
490,-0.123672,-8.042429,1.912246,74.514053,4.238194,2.069685,-53.332741,3.808899,2.363180,0.892644,-0.449064,0.020442,0.033329
491,0.023981,-6.571246,3.447056,67.062050,4.858742,-7.293838,-50.985840,3.831586,2.190567,0.901694,-0.430657,0.021948,0.031630
492,-0.098993,-5.706668,4.427916,73.142273,2.930309,-11.414337,-48.669670,3.675934,1.890869,0.910342,-0.412283,0.022424,0.028241
493,0.073891,-6.120122,4.022790,60.463024,0.200513,-17.674042,-46.466270,3.353365,1.525411,0.918279,-0.394627,0.021636,0.023768
494,-0.161895,-4.438284,4.796771,64.365265,0.997828,-18.609091,-44.410500,2.935957,1.087718,0.925399,-0.378010,0.020131,0.018466
495,-0.451956,-3.856536,5.139247,60.504532,2.774460,-13.137937,-42.350925,2.618310,0.659550,0.932172,-0.361248,0.019226,0.013618
496,-0.426440,-4.670406,4.525479,41.447708,2.732926,-12.013660,-40.668877,2.409623,0.283921,0.937452,-0.347470,0.018855,0.009629
497,-0.458902,-4.514497,5.894518,40.717243,2.481662,-10.730065,-39.313763,2.232224,-0.062359,0.941549,-0.336313,0.018526,0.006040
498,-0.659303,-4.147722,6.120910,43.847347,4.058389,-2.897550,-37.914040,2.175762,-0.308038,0.945605,-0.324751,0.018829,0.003626
499,-0.135975,-4.786396,6.109360,32.001755,-0.660712,-6.643248,-36.656242,2.125092,-0.469569,0.949124,-0.314330,0.018891,0.001942
500,-0.259515,-5.519196,8.421630,40.403248,-1.613786,-9.535066,-35.456474,1.935607,-0.664742,0.952389,-0.304361,0.017854,-0.000382
501,-0.581491,-4.883144,8.609158,54.308727,-0.653734,-6.113851,-33.884392,1.756152,-0.857710,0.956494,-0.291255,0.016840,-0.002694
502,-0.498812,-5.189684,8.245768,48.365520,-1.288142,-6.420968,-32.178215,1.615647,-1.015724,0.960733,-0.276973,0.016002,-0.004609
503,-0.667561,-4.827603,8.851965,46.970425,-0.063689,-8.728330,-30.595106,1.464895,-1.219405,0.964471,-0.263664,0.015137,-0.006891
504,-0.733147,-4.753113,9.119442,46.894085,-0.824774,-6.242207,-29.036152,1.327699,-1.428509,0.967965,-0.250509,0.014340,-0.009163
505,-0.848248,-4.222707,8.297303,45.391052,0.849405,-2.025722,-27.501108,1.263104,-1.550128,0.971227,-0.237514,0.013921,-0.010519
506,-0.483488,-4.261755,8.696248,36.213413,-1.033177,-5.040188,-26.143553,1.207565,-1.654216,0.973966,-0.225987,0.013528,-0.011677
507,-0.465159,-3.796327,8.732368,37.207703,0.369262,-2.712823,-24.922300,1.141639,-1.765715,0.976311,-0.215591,0.013051,-0.012895
508,-0.357701,-3.673529,8.622327,31.898426,-0.185583,-1.098081,-23.771856,1.118390,-1.825051,0.978421,-0.205776,0.012829,-0.013574
510,-0.369587,-3.354140,8.660770,31.627623,0.772285,0.983348,-22.713305,1.126741,-1.830668,0.980279,-0.196727,0.012784,-0.013725
511,-0.315975,-3.424280,8.686609,23.945023,0.290205,2.219765,-21.786325,1.163461,-1.788087,0.981841,-0.188790,0.012917,-0.013403
512,-0.351463,-3.282830,8.758058,20.814716,0.704434,4.776792,-21.038242,1.221576,-1.685582,0.983060,-0.182379,0.013165,-0.012515
513,-0.485789,-3.209624,8.962232,13.585672,0.964536,5.497093,-20.461607,1.308395,-1.535365,0.983975,-0.177436,0.013615,-0.011157
514,-0.420600,-3.379617,9.006830,6.890384,4.716846,8.280044,-20.115911,1.476931,-1.352842,0.984508,-0.174468,0.014751,-0.009372
515,-0.533414,-3.342325,9.192078,4.094832,7.016397,7.518097,-19.927708,1.750934,-1.172530,0.984778,-0.172844,0.016818,-0.007433
516,-0.445784,-3.301710,9.185259,3.664471,3.504441,4.929226,-19.793911,1.986346,-1.036996,0.984957,-0.171689,0.018630,-0.005934
517,-0.450126,-3.141511,9.256385,5.469100,1.345302,4.731430,-19.637255,2.116746,-0.912580,0.985178,-0.170350,0.019558,-0.004696
518,-0.500704,-3.180158,9.243386,2.929439,1.894271,5.246538,-19.492050,2.223300,-0.773824,0.985382,-0.169116,0.020263,-0.003370
519,-0.490156,-3.127253,9.173202,1.941989,0.354553,5.741907,-19.404499,2.319648,-0.613513,0.985499,-0.168384,0.020854,-0.001865
520,-0.388678,-3.196628,9.025059,-3.812721,-3.976271,5.232101,-19.427891,2.323537,-0.420790,0.985466,-0.168620,0.020604,-0.000198
521,-0.383730,-3.117658,9.071237,-5.442549,-4.235275,5.383191,-19.573713,2.253667,-0.208174,0.985261,-0.169915,0.019688,0.001553
522,-0.267501,-3.339618,8.982282,-8.573478,-4.118776,3.991405,-19.799814,2.175229,-0.014009,0.984933,-0.171894,0.018720,0.003143
523,-0.202948,-3.325535,8.972333,-9.857042,-3.061042,-0.371719,-20.103371,2.083401,0.083608,0.984485,-0.174521,0.017774,0.003891
524,-0.122762,-3.246158,8.987099,-9.999284,-2.362148,-3.990360,-20.435646,1.973536,0.046696,0.983993,-0.177371,0.016876,0.003456
525,-0.178378,-3.397155,8.677715,-12.445308,-0.346819,-5.838999,-20.814363,1.873662,-0.090812,0.983419,-0.180605,0.016224,0.002174
526,-0.093125,-3.456889,8.335126,-18.007578,-0.260478,-8.292959,-21.328823,1.779579,-0.307011,0.982614,-0.184992,0.015757,0.000241
527,-0.031820,-3.633662,7.997436,-26.083088,-0.600983,-8.167529,-22.071152,1.664805,-0.556695,0.981407,-0.191327,0.015189,-0.001987
528,-0.043602,-3.740050,7.791171,-34.428036,-1.063853,-5.822242,-23.085337,1.549513,-0.761343,0.979683,-0.199987,0.014577,-0.003803
529,-0.208464,-3.958059,7.535030,-44.029564,0.119984,-2.781493,-24.396107,1.477100,-0.886185,0.977334,-0.211170,0.014232,-0.004835
530,-0.180671,-4.117966,7.441193,-55.014580,-1.576516,-0.980819,-26.047735,1.428129,-0.932292,0.974191,-0.225233,0.013975,-0.005117
531,-0.117204,-4.520232,7.731042,-62.689079,-3.010925,0.021194,-28.008440,1.352459,-0.911835,0.970202,-0.241878,0.013376,-0.004864
532,-0.285129,-4.746107,7.777687,-62.569637,-1.861087,0.948219,-30.094135,1.289135,-0.858352,0.965647,-0.259507,0.012808,-0.004313
533,-0.294547,-5.067169,8.028668,-58.356983,-1.764329,0.641878,-32.107658,1.251070,-0.804234,0.960943,-0.276443,0.012432,-0.003725
534,-0.130111,-5.468009,8.126941,-54.275333,-1.702538,-1.364332,-33.983814,1.196119,-0.782847,0.956293,-0.292146,0.011978,-0.003483
535,-0.169676,-6.194461,8.440018,-41.143211,0.495289,-2.069655,-35.574421,1.147184,-0.818543,0.952147,-0.305392,0.011714,-0.003743
536,-0.048203,-6.194218,8.138194,-24.351929,1.376536,-5.660841,-36.668236,1.096688,-0.940905,0.949188,-0.314458,0.011667,-0.004783
537,-0.383879,-6.093663,8.021971,-14.020116,4.580860,-5.550963,-37.311665,1.063986,-1.150104,0.947398,-0.319765,0.012007,-0.006539
538,-0.438489,-6.023302,7.845003,-13.717630,4.526553,-6.158218,-37.778587,1.065656,-1.397275,0.946071,-0.323595,0.012745,-0.008526
539,-0.216870,-5.991762,7.584929,-13.105167,3.153479,-8.926688,-38.230637,1.011735,-1.674247,0.944766,-0.327301,0.013125,-0.010913
540,-0.279633,-5.474411,7.223005,-21.007763,2.554472,-9.365409,-38.804081,0.896369,-1.972151,0.943087,-0.332008,0.013094,-0.013633
541,-0.487663,-5.526309,7.176212,-31.593506,3.109163,-6.293139,-39.684597,0.804206,-2.233957,0.940475,-0.339231,0.013217,-0.015954
542,-0.201851,-5.878298,7.203789,-40.490047,0.585480,-5.453390,-40.888439,0.724270,-2.422882,0.936831,-0.349085,0.013306,-0.017603
543,-0.011110,-6.059778,6.702165,-42.621159,0.235943,-5.101804,-42.275047,0.617451,-2.563604,0.932514,-0.360400,0.013091,-0.018922
544,-0.233953,-6.330614,6.709839,-43.271076,1.508572,-0.847665,-43.707298,0.571043,-2.655928,0.927920,-0.372025,0.013251,-0.019655
545,0.052685,-6.432633,6.546575,-35.974869,0.669084,-1.719230,-45.028416,0.566845,-2.711476,0.923560,-0.382693,0.013628,-0.019963
546,0.074095,-6.783791,6.177840,-34.767361,1.045530,-1.244921,-46.207832,0.551560,-2.766566,0.919562,-0.392174,0.013899,-0.020316
547,0.191944,-6.638760,6.022505,-32.244637,1.106241,-4.429986,-47.325420,0.507221,-2.857423,0.915675,-0.401122,0.014060,-0.021061
548,0.156287,-6.875604,6.221962,-30.936829,2.123135,-4.563677,-48.379486,0.432406,-2.998101,0.911915,-0.409527,0.014160,-0.022317
549,-0.072725,-6.801974,6.006516,-30.148064,3.774571,-3.737045,-49.398670,0.392885,-3.163076,0.908201,-0.417609,0.014646,-0.023642
550,-0.151030,-7.336061,6.306753,-32.925652,4.004668,-1.548563,-50.450920,0.409009,-3.318866,0.904297,-0.425906,0.015569,-0.024676
551,0.061870,-7.486040,6.363504,-31.461533,1.945592,-2.534192,-51.524830,0.418438,-3.438609,0.900240,-0.434343,0.016328,-0.025434
552,-0.068130,-8.149441,6.889770,-30.018595,1.863706,0.782526,-52.549885,0.434409,-3.506774,0.896305,-0.442365,0.016942,-0.025759
553,0.122964,-8.314001,6.917721,-23.379341,1.026157,0.442353,-53.440002,0.479550,-3.532753,0.892840,-0.449298,0.017596,-0.025652
554,0.248572,-9.131395,7.323299,-17.762470,2.240859,-0.861730,-54.126080,0.506064,-3.580840,0.890126,-0.454621,0.018146,-0.025814
555,0.198393,-9.191270,7.217933,-8.872951,5.028858,-4.571569,-54.571304,0.503207,-3.732082,0.888318,-0.458052,0.018828,-0.026927
556,-0.023063,-9.279651,7.301726,-2.707431,9.967015,-5.036253,-54.766941,0.517343,-4.028642,0.887463,-0.459514,0.020173,-0.029135
557,-0.156832,-8.875575,6.962758,5.677985,13.083357,-5.451849,-54.721508,0.596551,-4.443225,0.887544,-0.459061,0.022436,-0.032037
558,-0.310096,-8.831470,6.880342,11.925325,14.511642,-3.674788,-54.433544,0.739404,-4.906153,0.888575,-0.456684,0.025308,-0.035113
559,-0.252779,-8.373137,6.639911,17.317904,12.332437,-2.353154,-53.952354,0.919885,-5.327782,0.890373,-0.452783,0.028228,-0.037781
560,-0.227496,-8.110060,6.256558,17.321802,9.370826,0.734551,-53.380516,1.112715,-5.635114,0.892540,-0.448177,0.030743,-0.039560
561,-0.275976,-8.171515,6.390303,16.531157,5.797266,3.781303,-52.819740,1.324858,-5.792143,0.894691,-0.443669,0.032813,-0.040113
562,-0.079024,-8.888271,5.916671,4.408641,1.262118,3.992443,-52.471203,1.499413,-5.807083,0.896049,-0.440863,0.034112,-0.039656
563,-0.058335,-8.500542,6.426229,-15.593167,-3.536873,0.604462,-52.655628,1.537283,-5.730468,0.895368,-0.442311,0.034176,-0.038856
564,0.096049,-8.787194,7.620142,-41.116611,-7.660462,-2.547492,-53.597469,1.399485,-5.600703,0.891732,-0.449753,0.032913,-0.038106
565,-0.075539,-9.335838,8.465561,-57.221748,-8.375332,-0.221812,-55.231930,1.206600,-5.410284,0.885268,-0.462560,0.031196,-0.036942
566,-0.151329,-9.730548,8.548976,-62.856487,-7.687487,3.871881,-57.227444,1.108398,-5.153554,0.877148,-0.478014,0.030012,-0.034838
567,-0.229746,-9.692451,9.245896,-47.391167,-6.935877,10.474700,-59.057541,1.182711,-4.819800,0.869506,-0.492021,0.029695,-0.031502
568,-0.901294,-11.021930,9.107754,-15.624207,-6.883513,22.388468,-60.096085,1.537585,-4.342900,0.865161,-0.499881,0.030577,-0.026081
569,-0.636904,-11.161210,7.109644,33.841995,-9.379510,25.236359,-59.772194,2.087153,-3.708776,0.866714,-0.497423,0.031904,-0.018981
570,-0.194396,-10.936878,5.890435,67.898994,-10.253228,25.554659,-58.047115,2.640769,-2.989051,0.874182,-0.484350,0.032793,-0.011624
571,-0.486339,-10.268798,5.051150,85.309639,-12.446027,26.887068,-55.454334,3.162290,-2.191528,0.884920,-0.464533,0.033314,-0.004086
572,-0.312378,-9.647386,4.322010,86.398216,-15.226852,20.477680,-52.545582,3.528967,-1.352995,0.896370,-0.442079,0.032832,0.003046
573,0.344115,-8.472579,3.656489,80.123650,-13.984210,8.486525,-49.730038,3.598836,-0.668854,0.906915,-0.420101,0.030942,0.007910
574,-0.614261,-7.274757,4.071561,64.503601,-4.880377,14.528973,-47.290237,3.676362,-0.176942,0.915595,-0.400818,0.030003,0.011451
575,-0.663054,-6.663492,4.566323,50.791698,-4.048980,11.916211,-45.341972,3.892328,0.233850,0.922173,-0.385280,0.030550,0.014972
576,-0.404316,-6.087614,5.203879,56.971832,-3.320669,3.330358,-43.528019,3.982579,0.501795,0.928093,-0.370698,0.030648,0.016948
577,-0.639527,-5.279175,5.458613,61.621178,-0.706453,1.670040,-41.544624,3.988454,0.609526,0.934352,-0.354608,0.030651,0.017312
578,-0.547352,-4.808871,5.643197,54.471680,-1.748874,0.228414,-39.606850,3.977485,0.660141,0.940210,-0.338773,0.030700,0.017174
579,-0.160951,-4.736277,6.155787,49.062599,-3.404148,-6.034034,-37.883251,3.849940,0.638620,0.945241,-0.324594,0.029963,0.016172
580,-0.406964,-4.421728,6.225542,47.437054,-1.841415,-7.537102,-36.283638,3.643351,0.511344,0.949755,-0.311344,0.028820,0.014136
581,-0.419410,-4.409935,6.502323,36.189426,-0.599119,-8.051954,-34.901829,3.458829,0.323395,0.953510,-0.299832,0.027944,0.011741
582,-0.319104,-4.806471,7.116617,27.929401,-0.966421,-13.135940,-33.849537,3.237670,0.046307,0.956303,-0.291010,0.026909,0.008611
583,-0.612559,-4.718279,7.386556,33.055927,2.764872,-15.148458,-32.855553,3.003077,-0.364134,0.958866,-0.282628,0.026032,0.004364
584,-0.500411,-4.492161,7.563997,33.101753,0.681313,-18.504444,-31.778540,2.751676,-0.869655,0.961537,-0.273517,0.025170,-0.000724
585,-0.887934,-4.727476,8.387415,33.561783,4.134557,-16.699841,-30.692495,2.515942,-1.413177,0.964110,-0.264307,0.024432,-0.006080
586,-0.598755,-4.609939,8.479510,34.806995,0.492401,-17.754995,-29.575806,2.294381,-1.949245,0.966631,-0.254824,0.023696,-0.011333
587,-0.790818,-4.504982,8.384199,33.392338,3.204832,-11.253528,-28.456545,2.113904,-2.401903,0.969041,-0.245315,0.023027,-0.015780
588,-0.592972,-4.393041,8.711558,31.590849,-0.501730,-9.754936,-27.385597,1.990092,-2.732980,0.971254,-0.236211,0.022512,-0.019057
589,-0.759102,-4.468616,8.743787,32.432449,1.115779,-4.259570,-26.325779,1.893914,-2.945858,0.973369,-0.227200,0.021940,-0.021264
590,-0.530489,-3.921725,8.499990,34.976654,-0.874986,-3.360454,-25.206230,1.842669,-3.062327,0.975524,-0.217671,0.021516,-0.022566
591,-0.677947,-3.844109,8.755611,31.753738,0.572648,0.856301,-24.095304,1.820843,-3.098061,0.977583,-0.208202,0.021175,-0.023118
592,-0.588719,-3.400180,8.954662,33.503731,-0.587768,1.139685,-23.006817,1.834159,-3.067690,0.979522,-0.198909,0.021016,-0.023036
593,-0.799655,-3.343518,8.996976,28.055386,1.330066,5.616255,-21.977703,1.888714,-2.968267,0.981283,-0.190109,0.021110,-0.022281
594,-0.650870,-3.263591,9.239409,24.699318,-0.489498,4.787028,-21.093273,1.965682,-2.812328,0.982743,-0.182540,0.021349,-0.020983
595,-0.665394,-3.264546,9.310003,20.647274,-1.121772,4.798488,-20.332060,1.997096,-2.653202,0.983958,-0.176030,0.021235,-0.019709
596,-0.829629,-3.257948,9.355088,16.780346,0.046366,5.150418,-19.702597,2.037072,-2.491152,0.984933,-0.170644,0.021228,-0.018373
597,-0.565850,-3.347004,9.295613,11.388122,2.269639,4.602938,-19.228022,2.127676,-2.350728,0.985642,-0.166570,0.021727,-0.017121
598,-0.421747,-3.363578,9.294291,6.110492,-2.759483,1.363094,-18.932749,2.152477,-2.254123,0.986078,-0.164043,0.021758,-0.016310
599,-0.358588,-3.507501,9.192622,-2.384485,-4.760530,0.566357,-18.868084,2.044324,-2.182940,0.986195,-0.163521,0.020716,-0.015864
600,-0.106006,-3.406416,9.329401,-1.111889,-11.314195,-4.639606,-18.925611,1.768909,-2.160311,0.986148,-0.164071,0.018322,-0.016055
601,-0.086245,-3.542082,9.296456,2.801817,-5.300022,-5.384373,-18.899443,1.452817,-2.228693,0.986205,-0.163895,0.015696,-0.017101
602,-0.140244,-3.460611,9.244073,2.413718,-4.117461,-6.663193,-18.815876,1.239399,-2.368115,0.986318,-0.163198,0.014045,-0.018618
603,-0.326084,-3.501040,9.432274,1.578152,-1.759353,-6.673473,-18.752995,1.075081,-2.547048,0.986386,-0.162668,0.012875,-0.020399
604,-0.328933,-3.225929,9.742356,3.072925,-2.707801,-6.131156,-18.678644,0.936073,-2.725311,0.986464,-0.162038,0.011917,-0.022139
605,-0.414174,-3.322627,9.524612,3.388184,-2.825746,-3.322925,-18.572756,0.798378,-2.845196,0.986594,-0.161145,0.010880,-0.023377
606,-0.253111,-2.764870,9.914252,7.800304,-4.904302,-0.688563,-18.386549,0.655019,-2.867781,0.986853,-0.159571,0.009639,-0.023789
607,-0.160103,-2.994376,10.146152,9.686253,-6.463747,3.322081,-18.094065,0.488862,-2.766817,0.987279,-0.157096,0.008008,-0.023171
608,0.270095,-2.699198,10.005052,18.111584,-10.095617,3.767884,-17.629427,0.262500,-2.569710,0.987946,-0.153150,0.005699,-0.021807
609,0.127819,-2.764053,9.719320,21.277821,-7.307848,2.507475,-16.972528,0.016611,-2.383627,0.988838,-0.147537,0.003213,-0.020550
610,0.275067,-2.587452,9.419239,22.131823,-6.318367,2.765781,-16.249281,-0.176018,-2.234660,0.989769,-0.141330,0.001236,-0.019521
611,0.198556,-2.795473,9.016220,15.793157,-3.874595,4.325805,-15.617888,-0.306930,-2.074444,0.990554,-0.135896,-0.000194,-0.018298
613,0.166319,-2.639601,8.705218,7.919949,-1.905266,4.130483,-15.223582,-0.362203,-1.913034,0.991038,-0.132494,-0.000921,-0.016965
614,-0.067009,-2.460684,8.648391,-0.929018,1.276993,3.457839,-15.107816,-0.339151,-1.788247,0.991191,-0.131488,-0.000882,-0.015858
615,0.012479,-2.354624,8.754303,-7.664906,0.708370,5.878737,-15.251767,-0.266402,-1.646768,0.991046,-0.132723,-0.000397,-0.014552
616,-0.124202,-2.398558,9.209834,-10.887118,1.663244,6.183723,-15.561684,-0.174842,-1.463488,0.990709,-0.135392,0.000217,-0.012860
617,-0.089880,-2.474547,9.420068,-10.595164,1.200977,5.262241,-15.920082,-0.077103,-1.292828,0.990301,-0.138481,0.000896,-0.011266
618,-0.235763,-2.459445,9.635013,-7.175881,2.210782,4.867034,-16.216333,0.024280,-1.146359,0.989954,-0.141033,0.001621,-0.009874
619,-0.124798,-2.762238,9.720517,-7.863349,0.988587,6.922794,-16.466734,0.130713,-0.972760,0.989658,-0.143190,0.002345,-0.008238
620,0.041944,-2.893388,9.699024,-7.484673,-0.165296,4.859159,-16.722029,0.199910,-0.788509,0.989348,-0.145394,0.002727,-0.006554
621,0.026191,-2.888291,9.654743,-8.256464,-0.333208,4.683802,-16.983801,0.238094,-0.633911,0.989021,-0.147656,0.002872,-0.005164
622,0.255247,-2.854762,9.409381,-9.716353,-1.699614,1.817546,-17.282881,0.237649,-0.520390,0.988637,-0.150239,0.002733,-0.004178
623,0.317433,-2.844044,9.221416,-9.781405,-0.071011,-2.021288,-17.607834,0.208541,-0.514829,0.988208,-0.153044,0.002486,-0.004161
624,0.435760,-2.835799,9.127022,-7.448523,1.481862,-6.185047,-17.895483,0.189333,-0.652249,0.987815,-0.155522,0.002517,-0.005366
625,0.143036,-2.857156,8.832072,-5.931231,6.487408,-7.259150,-18.119455,0.246495,-0.906403,0.987494,-0.157442,0.003370,-0.007472
626,0.215261,-3.154400,8.512335,-6.343048,7.297448,-11.221758,-18.326050,0.368469,-1.270739,0.987179,-0.159198,0.004940,-0.010435
627,-0.031493,-3.407068,8.283831,-9.041631,9.790295,-14.457378,-18.586182,0.503173,-1.766886,0.986759,-0.161397,0.006823,-0.014507
628,-0.070820,-3.597829,8.425152,-14.553973,9.489779,-16.704514,-18.985380,0.640109,-2.362074,0.986101,-0.164771,0.008908,-0.019408
629,-0.366864,-3.902389,8.335657,-22.582483,11.926712,-18.391554,-19.612560,0.783486,-3.032202,0.985052,-0.170076,0.011241,-0.024907
630,-0.171916,-3.893540,8.657300,-28.071342,9.377620,-21.214989,-20.467630,0.890561,-3.774030,0.983573,-0.177312,0.013494,-0.031024
631,-0.387285,-3.862664,8.972893,-36.114071,10.321489,-21.335873,-21.549555,0.942612,-4.554012,0.981622,-0.186474,0.015502,-0.037492
632,-0.159284,-4.200956,9.646005,-42.662350,8.740389,-19.944374,-22.875029,0.976212,-5.310982,0.979132,-0.197692,0.017528,-0.043721
633,-0.248254,-4.337708,9.503601,-42.439972,9.457177,-18.902699,-24.305380,0.994509,-6.025736,0.976298,-0.209773,0.019537,-0.049556
634,-0.103017,-4.323302,9.637792,-38.992294,7.615811,-18.527510,-25.674246,0.988820,-6.711212,0.973410,-0.221299,0.021403,-0.055154
635,-0.130037,-4.678185,9.656927,-37.539516,6.022381,-17.004427,-26.960064,0.930089,-7.342917,0.970545,-0.232115,0.022803,-0.060381
636,0.010061,-4.965136,9.359243,-34.206192,5.109858,-15.419868,-28.164351,0.844404,-7.907882,0.967737,-0.242235,0.023907,-0.065092
637,-0.107852,-5.064002,8.849658,-30.030239,5.674535,-16.242592,-29.242435,0.748603,-8.457066,0.965083,-0.251269,0.024916,-0.069701
638,-0.025059,-4.960289,8.842121,-25.674675,4.769683,-15.967238,-30.177425,0.633988,-9.009596,0.962640,-0.259087,0.025771,-0.074398
639,-0.342151,-5.302785,8.676296,-24.017046,6.685678,-13.150899,-31.010855,0.551473,-9.524574,0.960374,-0.266019,0.026815,-0.078717
640,-0.280341,-5.265193,8.471029,-16.864294,6.939948,-12.074953,-31.696753,0.526624,-10.001579,0.958425,-0.271665,0.028209,-0.082605
641,-0.365760,-5.222859,8.433351,-8.167505,6.880573,-10.657748,-32.118019,0.522117,-10.444932,0.957093,-0.275077,0.029540,-0.086215
642,-0.351506,-4.931710,8.354604,1.928128,5.868781,-8.197948,-32.225525,0.534891,-10.824072,0.956546,-0.275865,0.030640,-0.089322
643,-0.256376,-5.247937,8.121606,0.339095,7.751969,-3.049701,-32.190590,0.627313,-11.103682,0.956427,-0.275422,0.032056,-0.091442
644,0.146447,-5.345728,8.165534,0.182581,-4.687286,-9.196965,-32.184078,0.561790,-11.303664,0.956269,-0.275366,0.031985,-0.093271
645,0.022120,-5.552160,8.041571,-7.359424,-1.272903,-6.635821,-32.304813,0.336985,-11.473843,0.955792,-0.276516,0.030619,-0.095201
646,0.250465,-5.719640,8.048996,-10.823344,-6.186260,-9.912672,-32.608517,0.083976,-11.639689,0.954858,-0.279220,0.029167,-0.097118
647,0.302123,-5.927703,7.977274,-17.776848,-5.351396,-10.883337,-33.084812,-0.265600,-11.826640,0.953438,-0.283438,0.027123,-0.099416
648,0.247925,-6.066616,8.066871,-1.513088,2.317470,-6.910185,-33.404934,-0.470511,-12.046759,0.952390,-0.286225,0.026247,-0.101680
649,0.008979,-5.986246,7.877617,-2.918420,4.111103,-5.199681,-33.477016,-0.492048,-12.274267,0.952000,-0.286791,0.026701,-0.103607
650,0.042079,-5.919788,8.006037,-15.025620,3.509298,-2.068034,-33.774715,-0.453396,-12.445450,0.951108,-0.289188,0.027723,-0.104861
651,-0.174757,-5.685500,8.170259,-0.321100,7.344522,4.343228,-34.030071,-0.282319,-12.514885,0.950450,-0.291135,0.029553,-0.104941
652,-0.221127,-5.328658,7.929269,14.749759,0.999323,1.962575,-33.789696,-0.108262,-12.504937,0.951118,-0.288986,0.030752,-0.104482
653,0.061583,-5.318828,7.591787,15.354772,-1.695974,0.581287,-33.288067,-0.094502,-12.462879,0.952416,-0.284818,0.030304,-0.104232
654,0.044688,-5.635335,7.747546,10.301648,-1.038738,0.228326,-32.860550,-0.125321,-12.426587,0.953496,-0.281300,0.029570,-0.104118
655,-0.033230,-5.643754,7.687708,5.065046,0.687973,-2.372580,-32.604374,-0.149570,-12.453488,0.954092,-0.279183,0.029201,-0.104467
656,-0.015159,-5.764887,7.572757,-7.459380,1.248560,-5.036065,-32.643925,-0.189025,-12.574878,0.953873,-0.279517,0.029204,-0.105563
657,0.049392,-6.022066,7.938204,-21.764969,0.359996,-3.612458,-33.130482,-0.244882,-12.710442,0.952536,-0.283581,0.029523,-0.106703
658,-0.267264,-5.761178,8.388916,-26.226847,1.294924,0.354614,-33.930046,-0.252082,-12.770876,0.950476,-0.290211,0.030360,-0.107014
659,-0.261221,-5.350292,8.262263,-26.154835,-0.996854,3.887506,-34.803257,-0.208253,-12.715142,0.948302,-0.297420,0.031393,-0.106205
660,-0.058011,-5.364017,8.240315,-28.233429,-4.693593,7.823338,-35.710403,-0.173301,-12.501019,0.946125,-0.304946,0.031952,-0.104092
661,0.057513,-5.325742,8.272568,-28.015007,-7.591527,10.635841,-36.648895,-0.157279,-12.131900,0.943930,-0.312775,0.031928,-0.100744
662,-0.126607,-5.335538,8.290459,-28.522398,-8.745423,14.034135,-37.592350,-0.126531,-11.639815,0.941755,-0.320648,0.031632,-0.096348
663,-0.030325,-5.537048,8.201335,-28.729645,-11.565627,14.954122,-38.547573,-0.095336,-11.050705,0.939539,-0.328624,0.031001,-0.091163
664,0.137894,-5.572136,8.148796,-26.882849,-13.799470,14.355655,-39.475628,-0.116486,-10.405207,0.937339,-0.336412,0.029671,-0.085692
665,0.095195,-5.572886,8.006192,-26.182570,-14.304061,14.310715,-40.361729,-0.169283,-9.738424,0.935177,-0.343857,0.027901,-0.080178
666,0.034359,-5.689145,7.905463,-26.304964,-14.009896,15.555085,-41.238670,-0.201308,-9.053370,0.932971,-0.351188,0.026154,-0.074484
667,0.174690,-5.719363,7.657193,-25.625893,-14.840330,15.485538,-42.106632,-0.216543,-8.347247,0.930721,-0.358412,0.024386,-0.068598
668,0.173976,-5.710318,7.451461,-25.176714,-14.894771,15.774961,-42.956104,-0.229611,-7.628418,0.928446,-0.365457,0.022496,-0.062634
669,0.202561,-5.908101,7.347845,-25.828682,-15.022234,15.797407,-43.809017,-0.230603,-6.903561,0.926077,-0.372496,0.020598,-0.056611
670,0.169538,-6.037015,7.174385,-25.050455,-14.930981,15.781672,-44.659801,-0.221106,-6.178286,0.923626,-0.379482,0.018692,-0.050580
671,0.276583,-6.099555,6.921731,-24.877413,-15.538963,14.886832,-45.494614,-0.217832,-5.457836,0.921137,-0.386312,0.016658,-0.044642
672,0.293702,-6.408541,6.807562,-27.319771,-14.958257,14.244651,-46.367245,-0.222506,-4.755073,0.918423,-0.393414,0.014548,-0.038898
673,0.275671,-6.638325,6.461928,-29.092705,-13.391703,12.117187,-47.309887,-0.225058,-4.109945,0.915359,-0.401033,0.012590,-0.033633
674,0.296507,-6.842581,6.284921,-31.236656,-10.943567,9.685871,-48.317459,-0.227913,-3.565491,0.911946,-0.409123,0.010918,-0.029199
675,0.225458,-7.189553,6.341198,-34.358696,-7.569664,8.990938,-49.412224,-0.196114,-3.128400,0.908104,-0.417850,0.009855,-0.025513
676,0.148117,-7.551291,6.501871,-35.573387,-4.909236,8.500785,-50.578480,-0.106178,-2.781606,0.903886,-0.427082,0.009531,-0.022341
677,0.114648,-7.622526,6.694715,-31.095282,-3.428186,7.850759,-51.689655,0.019036,-2.502341,0.899765,-0.435828,0.009668,-0.019579
678,0.033828,-7.748564,7.173142,-23.786627,-2.697027,9.261369,-52.603798,0.181603,-2.246677,0.896312,-0.442987,0.010107,-0.016873
679,-0.175007,-7.755050,7.402541,-13.608261,-2.083629,10.853636,-53.225632,0.400833,-1.980780,0.893942,-0.447835,0.010870,-0.013887
680,-0.070049,-7.498105,7.361068,-2.384209,-2.870664,7.853426,-53.489922,0.601500,-1.728208,0.892940,-0.449892,0.011474,-0.011105
681,-0.186081,-7.360389,7.367197,7.646378,-2.082729,3.740085,-53.400185,0.707361,-1.546689,0.893310,-0.449197,0.011579,-0.009284
682,-0.224608,-7.284472,7.225936,13.252074,-0.583544,-1.162202,-53.051125,0.715020,-1.485274,0.894679,-0.446478,0.011371,-0.008810
683,-0.167853,-7.052032,6.902874,14.396290,1.032842,-6.456148,-52.591301,0.618250,-1.567896,0.896456,-0.442889,0.010898,-0.009876
684,0.000161,-6.885047,6.636090,12.017616,2.134141,-11.430827,-52.153107,0.414229,-1.791614,0.898117,-0.439464,0.010119,-0.012454
685,0.009222,-7.105512,6.605318,8.234893,4.200072,-12.806196,-51.817242,0.160834,-2.123423,0.899348,-0.436838,0.009358,-0.016054
686,0.095205,-7.280417,6.335191,3.901948,5.219827,-11.541989,-51.615341,-0.060581,-2.498005,0.900041,-0.435259,0.009014,-0.019854
687,0.024579,-7.330428,6.079646,1.263602,6.004257,-8.894177,-51.528450,-0.211253,-2.856197,0.900289,-0.434574,0.009173,-0.023246
688,0.048247,-7.502056,6.103491,1.151984,4.853389,-6.583249,-51.486897,-0.300583,-3.158375,0.900371,-0.434241,0.009608,-0.025962
689,0.005601,-7.747581,6.109435,1.704405,2.767370,-3.291857,-51.438145,-0.350185,-3.360270,0.900502,-0.433851,0.009971,-0.027741
690,0.216012,-7.692173,5.983222,3.645128,-4.743002,-8.398243,-51.348267,-0.522962,-3.456119,0.900794,-0.433175,0.008954,-0.029155
691,0.430033,-7.439456,5.785518,9.560678,-5.916198,-10.196990,-51.127399,-0.875816,-3.511603,0.901555,-0.431510,0.006330,-0.030936
692,0.721407,-7.284622,5.811893,9.693387,-8.160810,-16.329245,-50.804615,-1.366956,-3.607922,0.902645,-0.429068,0.002733,-0.033549
693,0.832175,-7.381914,6.045976,6.915689,-7.481360,-22.347860,-50.521694,-2.030805,-3.814838,0.903480,-0.426970,-0.001816,-0.037655
694,0.816392,-7.419035,6.242557,6.436312,-5.369517,-27.084785,-50.284138,-2.802248,-4.175010,0.904007,-0.425262,-0.006649,-0.043347
695,0.606577,-7.302954,6.358741,4.919250,-2.722340,-27.680756,-50.068230,-3.589670,-4.656637,0.904325,-0.423754,-0.011172,-0.050034
696,0.461898,-7.376363,6.730567,3.702698,0.256256,-25.447390,-49.887657,-4.294232,-5.195757,0.904438,-0.422540,-0.014834,-0.056853
697,0.335973,-7.510421,7.014547,7.338387,2.733215,-21.521772,-49.660328,-4.859766,-5.741026,0.904711,-0.420953,-0.017418,-0.063190
698,0.337339,-7.425344,7.027991,16.117268,3.139679,-15.479708,-49.227448,-5.264493,-6.218408,0.905803,-0.417711,-0.019124,-0.068358
699,0.594552,-7.210126,7.095781,24.158222,2.497803,-11.703989,-48.521358,-5.543548,-6.589188,0.907972,-0.412263,-0.020428,-0.072170
700,0.765941,-7.130675,7.257046,32.587955,3.087040,-9.567250,-47.545361,-5.744523,-6.897208,0.911132,-0.404632,-0.021557,-0.075143
701,0.927832,-7.035267,7.395687,43.064789,2.624011,-7.750419,-46.257435,-5.889956,-7.165516,0.915354,-0.394465,-0.022642,-0.077533
702,1.008460,-6.870206,7.514616,50.806843,1.467983,-6.983774,-44.670120,-6.016788,-7.387709,0.920499,-0.381838,-0.023995,-0.079413
703,1.081973,-6.569620,7.577066,54.571239,0.012468,-8.649708,-42.892281,-6.178930,-7.594043,0.926064,-0.367616,-0.025876,-0.081210
704,1.101371,-6.186463,7.662563,56.340157,-1.258692,-8.870059,-41.021870,-6.389507,-7.798220,0.931657,-0.352581,-0.028287,-0.083072
705,1.135961,-5.878589,7.894320,58.005363,-2.491096,-7.160077,-39.097954,-6.609100,-7.963360,0.937179,-0.337022,-0.030993,-0.084568
706,1.160722,-5.627023,8.071682,57.592262,-3.163377,-5.141695,-37.159760,-6.809440,-8.067163,0.942532,-0.321236,-0.033781,-0.085433
707,1.222230,-5.332033,8.098380,57.155560,-3.244395,-2.937590,-35.242344,-6.974808,-8.113142,0.947628,-0.305506,-0.036454,-0.085665
708,1.218384,-5.040524,8.172824,57.502842,-1.306213,-0.260541,-33.331741,-7.067205,-8.114620,0.952525,-0.289705,-0.038644,-0.085285
709,1.163387,-5.078278,8.200474,55.985332,1.990045,2.326505,-31.443621,-7.038970,-8.091910,0.957205,-0.273951,-0.039862,-0.084382
710,0.944693,-4.971273,8.138535,53.222237,5.831138,4.334814,-29.627527,-6.870257,-8.062884,0.961560,-0.258660,-0.039841,-0.083127
711,0.984121,-4.809922,7.951373,47.243065,6.827568,5.233850,-27.957972,-6.608627,-8.025096,0.965422,-0.244487,-0.038920,-0.081679
712,0.800259,-4.710204,7.917558,38.793839,9.275806,6.409586,-26.529913,-6.281186,-7.975399,0.968630,-0.232263,-0.037263,-0.080126
713,0.655692,-4.725374,7.924129,29.904261,11.594063,8.155359,-25.392076,-5.862223,-7.909536,0.971178,-0.222409,-0.034628,-0.078406
714,0.462692,-4.553967,8.084713,22.624758,13.440026,9.649454,-24.525770,-5.358692,-7.816633,0.973168,-0.214785,-0.031112,-0.076438
716,0.404148,-4.509100,8.222003,16.121113,13.345385,11.675321,-23.892570,-4.805737,-7.675410,0.974709,-0.209094,-0.027084,-0.074082
717,0.176015,-4.419948,8.568439,14.648200,14.584036,12.996222,-23.394800,-4.214288,-7.485134,0.975996,-0.204524,-0.022703,-0.071313
718,0.155998,-4.180872,8.797195,18.321697,13.410227,14.398129,-22.861502,-3.605866,-7.248109,0.977327,-0.199638,-0.018255,-0.068148
719,0.133957,-3.935716,9.018791,22.220968,11.054108,15.939548,-22.203951,-3.035526,-6.936646,0.978836,-0.193708,-0.014299,-0.064435
720,0.177352,-3.654347,9.196543,27.001719,7.882571,16.943939,-21.402838,-2.538950,-6.544350,0.980531,-0.186585,-0.011137,-0.060180
721,0.298960,-3.368691,9.340518,31.090759,4.150503,16.054020,-20.452993,-2.155243,-6.101651,0.982367,-0.178242,-0.009035,-0.055701
722,0.316510,-3.119168,9.393275,33.455189,1.235107,14.948071,-19.393579,-1.894920,-5.645854,0.984245,-0.169009,-0.007985,-0.051321
723,0.381172,-2.977923,9.495100,33.487892,-1.313114,13.198325,-18.292213,-1.744751,-5.201017,0.986045,-0.159453,-0.007805,-0.047207
724,0.360870,-2.828194,9.509686,34.173672,-2.642233,10.888668,-17.176798,-1.685340,-4.798200,0.987721,-0.149797,-0.008279,-0.043580
725,0.259725,-2.676570,9.483156,34.632439,-2.828434,8.928885,-16.040276,-1.678479,-4.455365,0.989285,-0.139964,-0.009070,-0.040528
726,0.174290,-2.509279,9.423254,33.769722,-2.181307,7.652465,-14.908860,-1.685378,-4.166606,0.990716,-0.130168,-0.009857,-0.037948
727,0.110637,-2.394551,9.444366,31.493204,-1.301201,6.850065,-13.828561,-1.681720,-3.918004,0.991980,-0.120799,-0.010445,-0.035698
728,0.015366,-2.313379,9.463054,29.064205,-0.185397,6.231987,-12.825704,-1.655609,-3.700116,0.993069,-0.112085,-0.010744,-0.033691
729,-0.010604,-2.174031,9.456352,25.652559,-0.017644,5.826672,-11.919439,-1.615878,-3.503094,0.993987,-0.104199,-0.010845,-0.031861
730,0.070980,-2.110325,9.506849,20.727955,-0.666970,5.152307,-11.151560,-1.590447,-3.321482,0.994716,-0.097512,-0.010992,-0.030189
731,0.123670,-2.072654,9.558208,17.221731,-0.950944,3.732664,-10.523277,-1.589054,-3.170884,0.995274,-0.092042,-0.011266,-0.028820
732,0.177951,-2.013936,9.534835,14.244569,-0.822645,1.793660,-10.001534,-1.601755,-3.074928,0.995705,-0.087503,-0.011581,-0.027944
733,0.188751,-1.909527,9.625285,5.069379,1.492627,0.145455,-9.680479,-1.585282,-3.044972,0.995956,-0.084706,-0.011538,-0.027639
734,0.271335,-1.820333,9.723941,2.668717,-0.939981,-3.474754,-9.549945,-1.585496,-3.101299,0.996038,-0.083577,-0.011530,-0.028115
735,0.286817,-1.746187,9.716336,2.237132,-0.810153,-6.845870,-9.463523,-1.642714,-3.266166,0.996051,-0.082856,-0.011930,-0.029581
736,0.347003,-1.734070,9.686432,-4.696485,-0.674868,-10.030922,-9.496512,-1.713479,-3.539640,0.995943,-0.083189,-0.012338,-0.032012
737,0.312187,-1.705740,9.857931,-11.188964,-0.317945,-12.623610,-9.749969,-1.793040,-3.909270,0.995636,-0.085454,-0.012683,-0.035310
738,0.345286,-1.736274,9.793773,-15.042745,-1.002619,-14.326372,-10.173059,-1.892539,-4.348036,0.995154,-0.089208,-0.013075,-0.039243
739,0.375223,-1.787421,9.719483,-18.242041,-1.624465,-14.084146,-10.712130,-2.021491,-4.806016,0.994534,-0.093985,-0.013634,-0.043384
740,0.512976,-1.853180,9.809982,-17.929787,-2.717134,-12.899879,-11.299267,-2.178490,-5.233922,0.993840,-0.099188,-0.014404,-0.047298
741,0.460743,-1.912038,9.824234,-14.168480,-1.717313,-10.656459,-11.819617,-2.329615,-5.604063,0.993188,-0.103807,-0.015164,-0.050706
742,0.525121,-1.858700,9.633679,-9.455775,-2.035871,-7.847843,-12.201301,-2.454948,-5.892928,0.992677,-0.107205,-0.015811,-0.053374
743,0.524860,-2.033403,9.699997,-7.003853,-1.754988,-4.537663,-12.467361,-2.560746,-6.081304,0.992311,-0.109582,-0.016423,-0.055141
744,0.465289,-1.963678,9.748882,8.336341,-1.196073,-1.161128,-12.441421,-2.629286,-6.163525,0.992279,-0.109400,-0.016951,-0.055913
745,0.405142,-1.880230,9.628661,18.833960,0.152849,4.955866,-11.991582,-2.632799,-6.098042,0.992732,-0.105495,-0.017261,-0.055282
746,0.448513,-1.779465,9.708141,33.382103,-0.906631,10.965932,-11.133301,-2.591782,-5.835371,0.993628,-0.097999,-0.017543,-0.052839
747,0.440225,-1.805039,9.786257,43.700603,-0.918752,15.003884,-9.868054,-2.542710,-5.403828,0.994852,-0.086934,-0.018027,-0.048860
748,0.400244,-1.486340,9.751770,52.459393,0.175593,16.371948,-8.288357,-2.472398,-4.885139,0.996181,-0.073101,-0.018419,-0.044054
749,0.366664,-1.491477,9.758041,47.990799,1.361423,15.591893,-6.636774,-2.378022,-4.360039,0.997340,-0.058618,-0.018499,-0.039168
750,0.258674,-1.326507,9.795704,36.440910,2.216352,11.009751,-5.247499,-2.272778,-3.925150,0.998138,-0.046420,-0.018233,-0.035111
751,0.216078,-1.150790,9.809585,23.632874,2.456935,6.502001,-4.257398,-2.171098,-3.640707,0.998604,-0.037720,-0.017743,-0.032442
752,0.195326,-0.953924,9.825860,14.051669,2.353455,3.575108,-3.635345,-2.079625,-3.478658,0.998854,-0.032250,-0.017167,-0.030907
753,0.208590,-0.886841,9.829680,0.403957,5.316080,2.256013,-3.397541,-1.946101,-3.389493,0.998964,-0.030130,-0.016091,-0.030061
754,0.232552,-0.752528,9.849082,4.098586,0.766167,1.137242,-3.324129,-1.841527,-3.339134,0.999012,-0.029456,-0.015211,-0.029585
755,0.260421,-0.717004,9.843360,2.906464,0.102266,1.837647,-3.208948,-1.824270,-3.290379,0.999056,-0.028441,-0.015103,-0.029141
756,0.251166,-0.776693,9.888038,-4.004104,1.795402,1.779029,-3.229088,-1.789297,-3.231940,0.999071,-0.028601,-0.014807,-0.028625
757,0.224768,-0.768166,9.881272,2.189450,0.627743,1.154708,-3.260761,-1.746179,-3.185402,0.999081,-0.028861,-0.014435,-0.028213
