seq,ax,ay,az,wroll,wpitch,wyaw,roll,pitch,yaw,q0,q1,q2,q3
60,0.280137,-3.003489,9.316925,-2.197676,8.740072,24.728716,-17.867718,-1.639203,0.528341,0.987767,-0.155212,-0.014847,0.002333
61,-1.281408,-4.759032,9.139272,8.529579,3.403912,15.707445,-18.091434,-1.212386,1.529670,0.987442,-0.157060,-0.012546,0.011518
62,-1.610258,-4.624605,8.818722,16.789413,-1.137243,9.739552,-18.107590,-0.609160,1.931348,0.987401,-0.157249,-0.007901,0.015807
63,-1.427139,-4.666428,8.642472,19.635265,-3.943419,7.041716,-17.949566,-0.164394,2.231430,0.987573,-0.155942,-0.004454,0.019010
64,-1.705788,-4.617430,8.452452,19.432316,-6.493241,2.283880,-17.769924,0.152641,2.437223,0.987772,-0.154444,-0.001969,0.021218
65,-1.770035,-4.430014,8.417109,19.117975,-7.251624,-2.980563,-17.590965,0.400262,2.497299,0.987988,-0.152946,0.000119,0.022069
66,-1.590431,-4.364494,8.374545,16.743635,-7.361491,-8.772975,-17.441448,0.554955,2.382992,0.988199,-0.151683,0.001633,0.021288
67,-1.258362,-4.460313,8.512382,13.345400,-7.601061,-15.511461,-17.397161,0.562977,2.068357,0.988311,-0.151298,0.002126,0.018584
68,-1.823850,-4.247872,8.668522,12.550393,-8.811120,-23.324200,-17.396597,0.497597,1.528457,0.988392,-0.151274,0.002275,0.013841
69,-1.511777,-4.178161,8.714993,13.296571,-9.867061,-27.299232,-17.352079,0.371583,0.812821,0.988524,-0.150866,0.002136,0.007501
70,-1.390868,-4.194742,8.743374,11.697400,-12.032350,-30.290051,-17.311226,0.107127,0.002806,0.988610,-0.150495,0.000921,0.000165
71,-1.323422,-4.228811,8.746605,9.162838,-14.429578,-32.162354,-17.341377,-0.271082,-0.860928,0.988538,-0.150768,-0.001206,-0.007784
72,-1.370369,-4.142342,8.690602,5.871417,-16.335461,-32.205086,-17.459393,-0.715395,-1.731138,0.988269,-0.151846,-0.003877,-0.015879
73,-0.610715,-4.338242,8.707734,1.032707,-16.700157,-28.587116,-17.720158,-1.257041,-2.528159,0.987730,-0.154214,-0.007438,-0.023485
74,-0.296016,-4.451510,8.742870,-3.368061,-15.937192,-26.185308,-18.156271,-1.889634,-3.223053,0.986876,-0.158155,-0.011840,-0.030367
75,-0.194918,-4.380083,8.795872,-4.782594,-12.903653,-24.213816,-18.668728,-2.474341,-3.858634,0.985851,-0.162783,-0.015834,-0.036713
76,0.039557,-4.311070,8.888535,-4.381275,-9.178868,-22.098881,-19.147474,-2.952711,-4.457819,0.984833,-0.167124,-0.018920,-0.042619
77,0.208029,-4.211891,9.032829,-1.636136,-5.863034,-20.179266,-19.514828,-3.331464,-5.027224,0.983954,-0.170499,-0.021191,-0.048126
78,0.261767,-4.070798,8.956716,1.821611,-3.152990,-17.968201,-19.725580,-3.605211,-5.563600,0.983311,-0.172507,-0.022646,-0.053173
79,0.349840,-4.045123,8.993079,2.613566,-0.917509,-16.376661,-19.834406,-3.785628,-6.067560,0.982839,-0.173612,-0.023381,-0.057786
80,0.579737,-4.012833,9.021878,2.865344,0.062135,-15.334454,-19.907923,-3.933294,-6.548216,0.982421,-0.174403,-0.023879,-0.062142
81,0.648297,-3.962752,8.989144,3.352114,0.695394,-13.517077,-19.956223,-4.072384,-6.993340,0.982044,-0.174974,-0.024367,-0.066175
82,0.642561,-4.007489,8.947571,-0.119366,0.564164,-12.191048,-20.057226,-4.188661,-7.391327,0.981607,-0.175981,-0.024695,-0.069780
83,0.541446,-4.162699,9.082387,-3.180372,0.094179,-11.583730,-20.284603,-4.283337,-7.753684,0.980990,-0.178055,-0.024805,-0.073075
84,0.539913,-4.110560,8.951371,-0.986092,1.263038,-10.305005,-20.532768,-4.338829,-8.089494,0.980360,-0.180281,-0.024593,-0.076086
85,0.342436,-4.167054,8.951535,0.738204,2.778283,-8.719567,-20.714754,-4.307800,-8.395910,0.979879,-0.181885,-0.023721,-0.078698
86,0.093898,-4.194117,8.972997,1.644604,4.378979,-7.500353,-20.854475,-4.152611,-8.676898,0.979528,-0.183045,-0.021848,-0.080888
87,-0.115603,-4.232498,9.000255,4.580484,6.660237,-5.505969,-20.930956,-3.862035,-8.931295,0.979346,-0.183569,-0.018900,-0.082625
88,-0.185335,-4.035904,8.825609,8.102320,9.214636,-3.670280,-20.887476,-3.446132,-9.156210,0.979417,-0.182970,-0.015014,-0.083893
89,-0.229290,-4.009184,8.906932,6.217802,10.192754,-2.386977,-20.797468,-2.956923,-9.355336,0.979593,-0.181906,-0.010578,-0.084825
90,-0.075569,-4.046575,8.813526,4.704084,8.895717,-1.514148,-21.038458,-2.262256,-9.507717,0.979322,-0.183511,-0.004215,-0.085058
91,0.090194,-4.025157,8.776598,5.256469,6.136844,-1.193704,-21.551954,-1.576236,-9.613664,0.978603,-0.187427,0.002201,-0.084874
92,0.054763,-4.071217,8.878972,8.122158,3.426801,1.334755,-21.939556,-1.154485,-9.652441,0.978036,-0.190439,0.006154,-0.084503
93,-0.025076,-4.020708,8.998993,10.969534,0.678609,4.977139,-22.100657,-0.817694,-9.569903,0.977900,-0.191582,0.009009,-0.083230
94,0.050940,-3.687120,9.131665,13.807756,-3.088901,6.353524,-21.883360,-0.653267,-9.375736,0.978432,-0.189629,0.009934,-0.081319
95,-0.212021,-3.412378,9.569100,14.943045,-4.924589,10.880944,-21.353575,-0.617477,-9.059487,0.979526,-0.185105,0.009353,-0.078603
96,-0.218223,-3.273681,9.700373,14.073266,-5.499863,15.899714,-20.761126,-0.534683,-8.581005,0.980803,-0.180022,0.008903,-0.074427
97,0.123847,-3.138281,9.721447,9.597727,-4.814723,18.252689,-20.244062,-0.457683,-7.988377,0.981988,-0.175591,0.008319,-0.069271
98,0.344223,-3.162679,9.606084,3.114070,-3.912901,16.798485,-19.924911,-0.431289,-7.390870,0.982825,-0.172881,0.007451,-0.064130
99,0.093001,-3.491293,9.481910,-3.015572,-1.141820,15.870719,-19.887426,-0.361208,-6.850738,0.983181,-0.172557,0.007218,-0.059394
100,0.192877,-3.531925,8.881305,-8.069438,1.614001,11.283788,-20.121990,-0.219051,-6.427878,0.983053,-0.174527,0.007915,-0.055536
101,-0.044998,-3.683630,8.738403,-14.176190,4.200445,6.683124,-20.597107,-0.030684,-6.180329,0.982456,-0.178532,0.009374,-0.053087
102,-0.190856,-3.839005,8.500054,-15.436604,4.977140,2.253362,-21.237970,0.204486,-6.095857,0.981500,-0.183923,0.011550,-0.051932
103,-0.280358,-3.919786,8.526937,-14.707211,5.285378,-0.507037,-21.904371,0.436552,-6.132624,0.980412,-0.189516,0.013898,-0.051794
104,-0.270056,-4.050486,8.616240,-12.909672,3.596178,-1.999392,-22.519402,0.619688,-6.228841,0.979347,-0.194677,0.015904,-0.052229
105,-0.126724,-4.345423,8.975371,-9.433615,2.544816,-3.168251,-23.044010,0.710481,-6.349794,0.978394,-0.199097,0.017128,-0.053030
106,-0.005701,-4.398460,9.117595,-4.527764,1.652149,-4.685020,-23.416483,0.710159,-6.499330,0.977672,-0.202254,0.017562,-0.054251
107,-0.021476,-4.372408,9.429349,-2.373157,1.314920,-6.212472,-23.629230,0.654015,-6.686707,0.977202,-0.204068,0.017517,-0.055916
108,-0.110286,-4.309592,9.603887,-1.935217,2.064149,-6.873198,-23.749275,0.603245,-6.909581,0.976873,-0.205084,0.017542,-0.057889
110,0.021304,-4.095391,9.399233,-3.323809,1.621631,-6.963228,-23.846937,0.548650,-7.145450,0.976573,-0.205909,0.017550,-0.059983
111,-0.028198,-3.851947,8.991795,-3.635097,-1.645375,-6.477983,-23.944862,0.432197,-7.349877,0.976279,-0.206776,0.016978,-0.061920
112,-0.096411,-3.736925,8.594800,-1.381307,-5.228249,-5.080235,-24.003899,0.244055,-7.479126,0.976085,-0.207366,0.015641,-0.063354
113,-0.202182,-3.713495,8.403517,-0.058329,-7.860469,-2.412918,-24.013931,0.020876,-7.504396,0.976028,-0.207573,0.013792,-0.063972
114,0.126895,-3.953850,8.703471,1.266174,-11.637135,-0.732874,-23.999771,-0.291914,-7.420088,0.976061,-0.207635,0.010967,-0.063822
115,0.144630,-4.027469,8.982807,6.168973,-12.354320,1.894769,-23.890337,-0.680000,-7.240125,0.976299,-0.206925,0.007274,-0.062997
116,0.284465,-4.000784,9.275814,8.331209,-9.943358,3.699939,-23.642677,-1.016554,-7.005384,0.976813,-0.205000,0.003849,-0.061611
117,0.444221,-3.887050,9.411482,5.348025,-6.851833,3.144502,-23.378651,-1.283095,-6.790056,0.977346,-0.202886,0.001052,-0.060252
118,0.624275,-3.863287,9.455664,0.597819,-4.910856,0.086548,-23.228724,-1.526526,-6.664350,0.977626,-0.201724,-0.001325,-0.059607
119,0.460918,-3.911387,9.143362,-1.887914,-2.542620,-3.644340,-23.222134,-1.740624,-6.670535,0.977587,-0.201769,-0.003145,-0.060033
120,0.375137,-3.950167,8.752192,-4.263779,-1.259317,-7.280619,-23.343138,-1.908019,-6.812016,0.977258,-0.202885,-0.004260,-0.061537
121,0.260389,-4.279160,8.718221,-7.591823,-1.269998,-9.421493,-23.621174,-2.060509,-7.047709,0.976595,-0.205339,-0.004988,-0.063826
122,0.418813,-4.737317,8.909545,-6.432120,-1.428694,-10.694115,-24.008503,-2.235962,-7.330694,0.975686,-0.208739,-0.005752,-0.066569
123,0.341079,-4.719470,8.793134,-0.377247,-1.436324,-10.056278,-24.306704,-2.422148,-7.619552,0.974914,-0.211390,-0.006631,-0.069380
124,0.268660,-4.487820,8.629445,2.935537,-1.291361,-8.029848,-24.422136,-2.562360,-7.868908,0.974503,-0.212462,-0.007292,-0.071764
125,0.377752,-4.461694,8.892854,3.336855,-1.123509,-7.478990,-24.431177,-2.677805,-8.082562,0.974314,-0.212616,-0.007872,-0.073792
126,0.303332,-4.223091,8.984095,5.631847,-0.908354,-5.930176,-24.340685,-2.770797,-8.269260,0.974329,-0.211913,-0.008377,-0.075543
127,0.168458,-3.916669,9.069502,6.365818,-0.902250,-4.289805,-24.060797,-2.682448,-8.415528,0.974776,-0.209492,-0.007542,-0.076608
128,0.260263,-3.883759,9.182797,6.268158,-0.297984,-3.302533,-23.651186,-2.478633,-8.530865,0.975507,-0.205892,-0.005872,-0.077202
129,0.421818,-3.818427,9.247635,8.100795,-0.095036,-2.187081,-23.192781,-2.406304,-8.620659,0.976285,-0.201949,-0.005406,-0.077817
130,0.504530,-3.769576,9.318069,10.543800,0.091127,-1.930725,-22.741245,-2.437903,-8.689594,0.977016,-0.198124,-0.005863,-0.078437
131,0.611597,-3.807255,9.363119,12.109401,0.461927,-3.056858,-22.319441,-2.495429,-8.771881,0.977664,-0.194566,-0.006503,-0.079213
132,0.593898,-3.737279,9.298286,14.682111,0.843409,-3.380354,-21.844437,-2.559645,-8.880932,0.978366,-0.190558,-0.007199,-0.080221
133,0.574368,-3.557977,9.211114,15.545785,0.132327,-3.047703,-21.309591,-2.622078,-8.988181,0.979150,-0.186036,-0.007933,-0.081202
134,0.482462,-3.555344,9.274030,15.789933,-0.449050,-1.775081,-20.759686,-2.677086,-9.062735,0.979960,-0.181376,-0.008675,-0.081886
135,0.347966,-3.513742,9.283181,17.503548,-1.323405,1.791007,-20.197006,-2.692910,-9.052526,0.980841,-0.176572,-0.009228,-0.081779
136,0.360520,-3.402991,9.191207,19.874836,-2.267953,6.010190,-19.582851,-2.676039,-8.909404,0.981880,-0.171289,-0.009736,-0.080478
137,0.462305,-3.334543,9.198317,21.516733,-3.384930,9.622056,-18.916565,-2.666161,-8.631379,0.983055,-0.165546,-0.010520,-0.078021
138,0.533207,-3.305832,9.165434,23.576729,-3.754204,12.719683,-18.212152,-2.671622,-8.238804,0.984313,-0.159465,-0.011593,-0.074591
139,0.607887,-3.287829,9.138910,24.124537,-3.447494,13.627609,-17.495474,-2.682703,-7.781234,0.985578,-0.153262,-0.012767,-0.070596
140,0.642028,-3.294627,9.104720,23.706434,-2.702842,11.793447,-16.809687,-2.702066,-7.342001,0.986735,-0.147320,-0.013921,-0.066761
141,0.603471,-3.168059,9.102401,21.756302,-1.947509,9.260411,-16.178337,-2.722608,-6.978571,0.987733,-0.141845,-0.014915,-0.063576
142,0.538880,-3.014350,9.074239,17.048820,-1.012117,7.324011,-15.649691,-2.726186,-6.694352,0.988530,-0.137250,-0.015580,-0.061059
143,0.470008,-3.063234,9.298684,11.996481,0.146061,5.216709,-15.462368,-2.697949,-6.475414,0.988875,-0.135591,-0.015695,-0.059112
144,0.422444,-2.955886,9.538696,11.685193,0.669453,4.406443,-15.472263,-2.619033,-6.305526,0.988971,-0.135618,-0.015210,-0.057555
145,0.379627,-2.690828,9.632016,12.101770,1.284401,3.695362,-15.254559,-2.485970,-6.175541,0.989326,-0.133663,-0.014322,-0.056252
146,0.393750,-2.536575,9.785673,12.120081,1.758964,2.918665,-14.850723,-2.361820,-6.081941,0.989866,-0.130109,-0.013553,-0.055254
147,0.320188,-2.446026,10.007419,13.682629,1.978698,2.000058,-14.381130,-2.261719,-6.019866,0.990444,-0.126001,-0.012982,-0.054553
148,0.234932,-2.158250,10.086660,16.446081,2.526505,0.867822,-13.801705,-2.142070,-5.994618,0.991107,-0.120937,-0.012250,-0.054144
149,0.167246,-1.822272,10.018734,14.987295,4.217230,-1.250163,-13.143837,-1.984953,-6.031587,0.991800,-0.115180,-0.011163,-0.054237
150,0.116942,-1.746144,10.092717,9.359683,6.849451,-2.544147,-12.578411,-1.761430,-6.139447,0.992348,-0.110195,-0.009391,-0.054904
151,-0.271693,-1.844703,10.345578,2.105434,12.988250,-7.398117,-12.248171,-1.369598,-6.376404,0.992612,-0.107170,-0.005932,-0.056568
152,-0.408926,-1.566442,10.285923,-0.142254,19.424601,-14.205271,-12.068076,-0.760543,-6.845668,0.992622,-0.105323,-0.000312,-0.060069
153,-0.313696,-0.950461,9.628633,11.294558,18.193180,-16.430067,-11.648176,-0.109320,-7.477398,0.992714,-0.101320,0.005670,-0.064966
154,-0.478836,-1.055856,9.637450,-5.951452,16.946497,-15.946349,-11.290749,0.485077,-8.123160,0.992671,-0.097825,0.011169,-0.070069
155,-0.455599,-1.553106,10.036569,-27.863739,14.266973,-11.394514,-11.681139,1.018265,-8.673827,0.991990,-0.100797,0.016509,-0.074324
156,-0.016890,-2.148771,10.083274,-28.173506,7.359110,-4.498857,-12.572943,1.340356,-9.009828,0.990949,-0.108241,0.020190,-0.076790
157,-0.064150,-2.376001,9.699508,-5.484520,0.817468,3.249791,-13.170355,1.424461,-9.061406,0.990334,-0.113338,0.021368,-0.077045
158,-0.094862,-2.495202,9.138411,-14.653805,1.424786,10.385018,-13.576119,1.471310,-8.850425,0.990065,-0.116851,0.021830,-0.075098
159,0.157330,-2.494854,9.148288,-18.209209,-1.503465,17.274572,-14.198785,1.505678,-8.404059,0.989699,-0.122293,0.022059,-0.071086
160,0.077744,-2.011560,7.808020,11.981223,-5.771478,19.737415,-14.330707,1.437288,-7.776733,0.989935,-0.123592,0.020874,-0.065717
161,-0.025875,-1.268172,7.140438,15.446600,-9.569506,23.655991,-13.763689,1.287969,-7.011065,0.990958,-0.118908,0.018464,-0.059356
162,0.050941,-1.397586,7.468575,-11.452414,-13.800896,26.523205,-13.508759,1.039822,-6.102776,0.991668,-0.116962,0.015259,-0.051794
163,0.187745,-2.351513,9.074758,-25.660303,-17.820185,23.993221,-14.064464,0.642219,-5.157444,0.991488,-0.122052,0.011065,-0.043967
164,0.266169,-3.249552,9.933600,-13.979344,-16.897001,15.707447,-14.836056,0.150304,-4.372377,0.990914,-0.128964,0.006225,-0.037658
165,0.316503,-3.700772,10.857771,-23.060127,-13.707816,10.359077,-15.638386,-0.315342,-3.819567,0.990136,-0.136062,0.001809,-0.033390
166,0.210088,-3.910268,11.202653,-28.483265,-9.864009,4.966456,-16.674261,-0.676531,-3.463249,0.988937,-0.145105,-0.001457,-0.030754
167,0.286056,-4.231066,11.305760,-28.779297,-4.910856,-1.179970,-17.800970,-0.924021,-3.327532,0.987474,-0.154880,-0.003471,-0.029931
168,0.053747,-4.204755,10.937447,-24.773743,-0.391065,-6.418473,-18.853870,-1.047571,-3.417189,0.985971,-0.163979,-0.004131,-0.030909
169,-0.217134,-3.768710,10.044015,-23.058601,0.933438,-5.122962,-19.760914,-1.036405,-3.600329,0.984593,-0.171781,-0.003516,-0.032498
170,-0.218229,-3.924599,9.971575,-25.965490,1.679616,-4.541584,-20.653791,-0.950148,-3.766450,0.983187,-0.179429,-0.002262,-0.033815
171,-0.103592,-4.134155,9.761577,-23.437031,2.100771,-4.846768,-21.566578,-0.862732,-3.934956,0.981687,-0.187233,-0.000968,-0.035133
172,-0.060972,-4.083004,9.398314,-23.440083,1.124179,-2.060429,-22.442518,-0.793823,-4.061357,0.980196,-0.194712,0.000105,-0.036104
173,-0.046846,-4.200659,8.903580,-22.152201,0.066713,1.563644,-23.310518,-0.726943,-4.075974,0.978696,-0.202112,0.000975,-0.036109
174,0.092536,-4.285640,8.513469,-17.975744,-0.413954,4.313361,-24.122993,-0.664769,-3.982634,0.977275,-0.209029,0.001591,-0.035192
175,0.272585,-3.999460,8.097684,-11.324236,-1.311198,5.872857,-24.740820,-0.641403,-3.814566,0.976187,-0.214291,0.001666,-0.033707
176,0.449918,-3.841467,7.918936,-6.242904,-2.443435,7.391152,-25.111782,-0.681896,-3.586399,0.975549,-0.217463,0.000997,-0.031836
177,0.651012,-3.978754,7.975685,-3.760223,-2.338146,6.008664,-25.339619,-0.791374,-3.349185,0.975166,-0.219430,-0.000326,-0.030025
178,0.732442,-3.913288,8.248622,-2.290758,-0.973968,2.825584,-25.475851,-0.945051,-3.191629,0.974927,-0.220623,-0.001901,-0.028980
179,0.623277,-3.789367,8.564840,-2.226668,1.202001,-1.883422,-25.515539,-1.087354,-3.179467,0.974835,-0.220991,-0.003125,-0.029151
180,0.430903,-4.040887,8.927058,-3.656461,5.169407,-6.624472,-25.546852,-1.150998,-3.354280,0.974720,-0.221277,-0.003321,-0.030761
181,0.186910,-4.254572,9.264995,-1.608668,10.116457,-9.839598,-25.580944,-1.070074,-3.712683,0.974565,-0.221555,-0.001930,-0.033655
182,-0.224952,-4.181302,9.505104,2.154263,14.033508,-8.570026,-25.502398,-0.783908,-4.164251,0.974616,-0.220809,0.001351,-0.036944
183,-0.547175,-4.265837,9.598749,5.346499,17.816277,-4.161629,-25.296471,-0.256083,-4.584499,0.974930,-0.218876,0.006579,-0.039515
184,-0.413478,-4.296047,9.319270,9.472601,20.985624,0.590103,-25.002560,0.449060,-4.913054,0.975423,-0.216097,0.013100,-0.040997
185,-0.214382,-4.012730,9.009759,10.069238,21.113802,3.155184,-24.645161,1.189147,-5.150248,0.976022,-0.212733,0.019716,-0.041679
186,-0.062392,-4.059042,8.707272,5.206114,19.687061,4.406443,-24.380306,1.859722,-5.317537,0.976430,-0.210166,0.025639,-0.041913
187,0.268418,-4.108595,8.350557,0.834338,17.579758,2.744710,-24.334791,2.375511,-5.467133,0.976422,-0.209517,0.030290,-0.042246
188,0.548304,-4.076186,8.054906,-3.007943,12.156619,-0.969393,-24.477732,2.624763,-5.648883,0.976068,-0.210572,0.032799,-0.043294
189,0.318595,-4.134439,8.294771,-9.519065,3.997497,-5.002413,-24.799145,2.589001,-5.855473,0.975398,-0.213266,0.033000,-0.045028
190,0.044454,-4.375892,8.571011,-10.930548,-3.194190,-7.187538,-25.245716,2.344653,-6.048745,0.974502,-0.217129,0.031465,-0.047010
191,-0.054849,-4.422302,8.766097,-5.811067,-10.898586,-8.489152,-25.616106,1.908569,-6.186950,0.973762,-0.220455,0.028178,-0.048928
192,-0.472924,-4.484819,8.723229,-0.644284,-20.412733,-5.545642,-25.794519,1.310078,-6.174021,0.973431,-0.222265,0.023147,-0.049942
193,-0.678951,-4.290217,8.823512,0.754990,-26.356211,-1.219644,-25.827894,0.639404,-5.937742,0.973448,-0.222902,0.017006,-0.049237
194,-0.602031,-4.238530,8.595110,0.904530,-27.894344,3.515302,-25.810394,-0.029527,-5.509880,0.973612,-0.223092,0.010484,-0.046908
195,-0.579748,-4.330580,8.466791,-1.488121,-28.162907,9.425212,-25.862179,-0.628127,-4.908751,0.973679,-0.223799,0.004245,-0.042963
196,-0.554431,-4.229035,8.354465,-4.898564,-25.962524,15.452616,-26.031523,-1.085168,-4.141079,0.973551,-0.225395,-0.001084,-0.037331
197,-0.124520,-4.140607,8.544138,-8.751526,-19.820671,17.285254,-26.294975,-1.395268,-3.315013,0.973228,-0.227689,-0.005273,-0.030933
198,0.211752,-4.473543,8.629824,-7.993141,-13.964171,17.326452,-26.615221,-1.596777,-2.547168,0.972742,-0.230401,-0.008441,-0.024834
199,0.448217,-4.589408,8.775373,-4.329394,-8.893520,15.071135,-26.887466,-1.713223,-1.891929,0.972300,-0.232673,-0.010701,-0.019531
200,0.564506,-4.495426,8.816547,-1.109692,-2.956146,10.298039,-27.017897,-1.756067,-1.424421,0.972100,-0.233737,-0.011996,-0.015664
201,0.587916,-4.527355,8.948635,-1.175306,3.597704,4.395761,-27.061159,-1.707491,-1.210985,0.972046,-0.234078,-0.012014,-0.013759
202,0.379031,-4.570175,9.090150,-0.636655,8.968962,-1.714044,-27.077074,-1.547035,-1.266855,0.972030,-0.234209,-0.010536,-0.013907
203,0.211280,-4.280670,9.024132,1.429448,14.175419,-5.789791,-27.009342,-1.262417,-1.554998,0.972167,-0.233634,-0.007542,-0.015766
204,0.054899,-4.263958,8.994865,1.446233,18.405283,-8.936250,-26.876099,-0.860155,-2.021676,0.972412,-0.232480,-0.003200,-0.018902
205,-0.099343,-4.195065,8.982748,1.839922,20.283697,-10.196663,-26.735161,-0.373960,-2.598468,0.972634,-0.231209,0.002068,-0.022814
206,-0.162705,-4.173475,8.812243,1.351627,19.810661,-10.057804,-26.606590,0.134971,-3.200727,0.972793,-0.229984,0.007572,-0.026908
207,-0.195177,-3.991771,8.602881,1.482856,18.524305,-8.876738,-26.491877,0.619794,-3.768610,0.972896,-0.228831,0.012796,-0.030768
208,-0.278198,-3.988350,8.484840,2.026085,15.164218,-8.980500,-26.371454,1.038791,-4.284531,0.972993,-0.227610,0.017346,-0.034327
209,-0.384986,-3.995478,8.405196,1.093745,10.002013,-8.113774,-26.276743,1.343624,-4.725126,0.973039,-0.226624,0.020778,-0.037478
210,-0.392932,-4.253253,8.513382,1.298219,4.704000,-7.678887,-26.229864,1.500857,-5.069386,0.973012,-0.226100,0.022777,-0.040098
211,-0.548681,-4.256529,8.689631,5.325136,-0.920561,-6.688560,-26.128916,1.515139,-5.312167,0.973123,-0.225188,0.023340,-0.042152
213,-0.467860,-4.410065,8.765443,9.243712,-6.833521,-3.124000,-25.898558,1.395188,-5.402520,0.973542,-0.223264,0.022412,-0.043201
214,-0.247378,-4.475473,8.880096,10.188260,-11.219032,1.275244,-25.605038,1.139452,-5.300113,0.974150,-0.220895,0.019931,-0.042883
215,0.143477,-4.360234,8.998506,12.310822,-12.818201,3.612961,-25.251013,0.768499,-5.055140,0.974913,-0.218072,0.016177,-0.041568
216,0.528930,-4.073809,8.842875,12.341340,-12.772423,5.076324,-24.831074,0.309665,-4.744122,0.975798,-0.214706,0.011535,-0.039840
217,0.878242,-4.026956,8.812953,9.435978,-11.325846,5.526472,-24.449755,-0.196081,-4.417212,0.976583,-0.211656,0.006489,-0.038026
218,1.066609,-4.027215,8.844208,5.717299,-8.379283,2.708088,-24.193756,-0.703110,-4.158142,0.977086,-0.209641,0.001607,-0.036757
219,1.145816,-4.019853,8.949862,1.885700,-4.657552,-1.331037,-24.069485,-1.575938,-4.049578,0.977217,-0.208830,-0.006075,-0.037418
220,0.975219,-3.898939,8.965885,-0.189559,-1.492783,-3.549733,-23.988144,-2.625157,-4.084976,0.977121,-0.208423,-0.014988,-0.039611
221,0.840849,-3.751798,9.107346,-0.659544,1.342387,-3.890014,-23.798765,-3.261670,-4.207243,0.977240,-0.206993,-0.020264,-0.041768
222,0.532013,-3.670993,9.310505,-0.102581,4.208075,-3.697748,-23.447386,-3.414327,-4.380692,0.977758,-0.204068,-0.021386,-0.043454
223,0.269372,-3.695619,9.488599,1.380619,7.240089,-3.433762,-23.156851,-3.222698,-4.580665,0.978256,-0.201570,-0.019508,-0.044774
224,0.012138,-3.685194,9.468483,2.386203,9.730399,-2.600607,-22.990196,-2.886341,-4.789537,0.978566,-0.200078,-0.016334,-0.045948
225,-0.155646,-3.802373,9.395700,4.661358,10.331614,-0.107245,-22.799517,-2.437418,-4.964480,0.978949,-0.198326,-0.012271,-0.046646
226,-0.281316,-3.895593,9.355921,4.693403,9.495407,1.775747,-22.613440,-1.943357,-5.067173,0.979345,-0.196576,-0.007947,-0.046662
227,-0.203574,-3.964839,9.224820,3.611521,7.777213,2.892725,-22.484301,-1.484306,-5.104965,0.979644,-0.195312,-0.004010,-0.046199
228,-0.219552,-3.822724,9.169611,2.235137,3.770133,5.985776,-22.416447,-0.926799,-5.040540,0.979877,-0.194530,0.000621,-0.044703
229,-0.446774,-3.659358,8.983992,1.968100,-1.501939,10.934351,-22.339102,-0.205996,-4.793598,0.980184,-0.193617,0.006339,-0.041376
230,-0.566936,-3.713160,9.109790,-0.317737,-4.904752,12.817343,-22.284719,0.252212,-4.386518,0.980445,-0.193023,0.009554,-0.037124
231,-0.580680,-3.804932,9.054083,-0.207870,-7.507982,15.142853,-22.299158,0.389658,-3.876926,0.980581,-0.193146,0.009875,-0.032530
232,-0.639295,-3.725435,8.862922,0.033226,-9.696157,17.070097,-22.320677,0.478154,-3.271567,0.980704,-0.193358,0.009617,-0.027199
233,-0.522076,-3.830246,8.730692,-0.087321,-9.796867,16.586380,-22.358692,0.529908,-2.629650,0.980777,-0.193723,0.008984,-0.021614
234,-0.180290,-4.044999,8.876695,0.356722,-8.367077,13.784781,-22.429224,0.515893,-2.047108,0.980755,-0.194373,0.007889,-0.016647
235,0.089462,-4.070470,8.857186,1.244811,-6.856411,12.004025,-22.499172,0.433966,-1.553895,0.980699,-0.195014,0.006359,-0.012561
236,0.134913,-4.087527,8.941319,1.665966,-4.216560,7.311803,-22.689676,0.251576,-1.187428,0.980411,-0.196680,0.004191,-0.009728
237,0.169587,-4.117565,9.063243,1.391300,-0.600117,1.499555,-22.987818,0.010551,-1.022073,0.979907,-0.199255,0.001867,-0.008722
238,0.138069,-4.044301,9.142513,0.489478,2.618060,-2.683007,-23.196493,-0.152123,-1.053205,0.979537,-0.201051,0.000547,-0.009270
239,0.114171,-3.949257,9.152342,-0.740418,5.462385,-6.764857,-23.283669,-0.175471,-1.250697,0.979365,-0.201797,0.000703,-0.010999
240,0.007857,-3.810385,9.062845,0.063745,7.864192,-10.926056,-23.286472,-0.096508,-1.609313,0.979324,-0.201809,0.002009,-0.013924
241,-0.026452,-3.721508,8.949587,-1.266862,9.217688,-13.050144,-23.278984,0.015865,-2.088951,0.979274,-0.201717,0.003813,-0.017826
242,0.005740,-3.822531,8.944140,-2.145795,9.429792,-13.393476,-23.317169,0.131618,-2.616688,0.979119,-0.202001,0.005739,-0.022130
243,-0.140311,-3.730844,8.974535,-2.103069,8.900296,-12.833463,-23.369509,0.253645,-3.139047,0.978919,-0.202391,0.007714,-0.026374
244,-0.319967,-3.701327,8.993500,-0.958625,8.152592,-11.669182,-23.383440,0.405831,-3.626539,0.978778,-0.202433,0.009878,-0.030268
245,-0.327066,-3.780622,9.075136,-0.978461,6.828088,-7.921510,-23.378735,0.577212,-4.025093,0.978680,-0.202305,0.012045,-0.033370
246,-0.345976,-3.819190,9.205628,0.906056,4.398815,-3.598563,-23.287968,0.836659,-4.274486,0.978768,-0.201417,0.014673,-0.035052
247,-0.208709,-3.774452,9.287909,2.758529,1.609423,0.721332,-23.043501,1.071955,-4.355008,0.979170,-0.199239,0.016748,-0.035361
248,0.095509,-3.792826,9.273829,3.957907,-1.517198,4.002072,-22.749577,0.988443,-4.280108,0.979701,-0.196765,0.015815,-0.034907
249,0.335643,-3.849889,9.295309,4.215788,-5.690604,6.724323,-22.531157,0.731770,-4.068275,0.980139,-0.195008,0.013193,-0.033564
250,0.369654,-3.904708,9.318708,2.520485,-9.238380,7.206515,-22.414461,0.459553,-3.758914,0.980421,-0.194123,0.010306,-0.031392
251,0.405776,-3.738867,9.285598,0.077478,-11.257179,5.590561,-22.363226,0.096557,-3.431689,0.980582,-0.193808,0.006633,-0.029211
252,0.209978,-3.491286,9.073721,-2.615779,-11.983520,4.990872,-22.364889,-0.288778,-3.121089,0.980634,-0.193929,0.002810,-0.027205
253,-0.002600,-3.361751,8.869529,-4.337023,-11.069490,3.902887,-22.415958,-0.611114,-2.837758,0.980588,-0.194438,-0.000417,-0.025325
254,-0.077070,-3.531341,8.734936,-4.936712,-8.731773,2.985806,-22.527367,-0.840439,-2.605787,0.980426,-0.195432,-0.002750,-0.023731
255,-0.019387,-3.484491,8.634892,-0.838077,-5.725701,0.728962,-22.604099,-0.992403,-2.456434,0.980309,-0.196111,-0.004290,-0.022715
256,-0.016894,-3.543379,8.678818,2.273285,-2.391553,-0.201852,-22.559584,-1.066875,-2.396753,0.980389,-0.195740,-0.005038,-0.022330
257,-0.032529,-3.776606,8.891523,5.497566,0.513809,-2.364089,-22.462095,-0.971603,-2.423552,0.980560,-0.194891,-0.004196,-0.022393
258,-0.045935,-3.805881,8.919546,8.148098,3.364238,-4.157051,-22.333546,-0.723887,-2.546498,0.980779,-0.193751,-0.001893,-0.023023
259,-0.173514,-3.519022,8.983200,7.986350,5.825555,-4.477496,-22.035662,-0.361724,-2.736698,0.981269,-0.191133,0.001466,-0.024043
260,-0.478345,-3.304613,9.022840,4.350070,6.089540,-2.133674,-21.567841,0.236803,-2.912139,0.982030,-0.186993,0.006784,-0.024575
261,-0.787762,-3.097162,8.926606,1.296693,4.034119,1.882562,-21.243177,0.790336,-2.975197,0.982544,-0.184079,0.011561,-0.024244
262,-0.641107,-2.843632,8.932652,-2.655454,1.939023,6.695331,-21.126850,1.110106,-2.875865,0.982741,-0.183019,0.014120,-0.022892
263,-0.309948,-2.916769,9.240449,-5.472312,0.046876,8.808737,-21.093050,1.322246,-2.643811,0.982828,-0.182711,0.015563,-0.020567
264,-0.106617,-2.831017,9.399989,-5.272415,-2.307627,7.310278,-21.084171,1.384444,-2.375658,0.982884,-0.182659,0.015667,-0.018169
265,0.201294,-2.737012,9.436687,-5.577601,-3.487168,5.254857,-21.048122,1.295127,-2.140474,0.982983,-0.182397,0.014521,-0.016299
266,0.548736,-2.875502,9.470305,-4.187483,-2.676901,0.805258,-21.000786,1.074744,-2.004543,0.983090,-0.182045,0.012408,-0.015489
267,0.532907,-3.095541,9.367743,0.295685,-1.733879,-4.230295,-20.909021,0.788063,-2.028488,0.983244,-0.181302,0.009974,-0.016159
268,0.242453,-3.126216,9.031525,3.924336,-1.448531,-6.830472,-20.736855,0.526213,-2.180633,0.983498,-0.179857,0.007941,-0.017891
269,0.082163,-3.308652,8.875040,4.308869,-1.778131,-4.732325,-20.552654,0.333150,-2.341725,0.983760,-0.178299,0.006505,-0.019588
270,0.101804,-3.540544,8.913293,4.997062,-1.210487,-2.588399,-20.493137,0.134011,-2.439199,0.983832,-0.177820,0.004937,-0.020737
271,0.076012,-3.686024,9.018363,3.979269,-0.847317,-0.758815,-20.604652,-0.057250,-2.480221,0.983645,-0.178811,0.003379,-0.021383
272,0.075651,-3.675098,9.169562,1.188353,-0.565021,0.831199,-20.791086,-0.167097,-2.470698,0.983350,-0.180431,0.002456,-0.021468
273,0.195848,-3.896678,9.412180,-1.834507,-0.113346,1.885614,-20.954203,-0.217931,-2.423915,0.983099,-0.181841,0.001976,-0.021144
274,0.311557,-3.861727,9.417572,-2.972847,1.522446,0.002622,-21.104052,-0.241323,-2.402588,0.982863,-0.183131,0.001769,-0.020996
275,0.273766,-3.884151,9.561783,-4.391957,2.515823,-2.771511,-21.280243,-0.259696,-2.469540,0.982567,-0.184644,0.001752,-0.021597
276,0.279121,-3.887281,9.345826,-3.806001,3.500045,-5.083288,-21.469009,-0.273542,-2.627567,0.982230,-0.186263,0.001926,-0.022971
277,0.216120,-4.047283,9.033678,-3.616786,4.122622,-6.099553,-21.682560,-0.276545,-2.846983,0.981835,-0.188089,0.002303,-0.024852
278,0.079452,-3.973301,8.917392,-2.609676,3.846430,-7.408798,-21.899614,-0.263554,-3.104646,0.981419,-0.189940,0.002888,-0.027033
279,-0.146261,-4.129585,8.988493,-1.773469,3.294045,-5.997316,-22.088663,-0.215748,-3.355851,0.981046,-0.191540,0.003762,-0.029099
280,-0.294766,-4.227317,8.897697,-1.655972,2.499038,-4.176888,-22.284964,-0.120746,-3.548923,0.980672,-0.193189,0.004951,-0.030585
281,-0.339573,-4.227181,9.143191,-2.307542,1.003631,-1.108251,-22.484900,-0.009143,-3.652493,0.980312,-0.194865,0.006135,-0.031273
282,-0.370368,-4.166678,9.226481,-1.987099,-1.190650,2.817955,-22.656006,0.094083,-3.625159,0.980033,-0.196302,0.007018,-0.030853
283,-0.349655,-4.274237,9.165772,-2.275498,-2.953094,8.547804,-22.821915,0.194979,-3.424112,0.979804,-0.197706,0.007578,-0.028949
284,-0.110155,-4.148787,9.074388,-1.311114,-3.766412,9.791433,-22.974167,0.263926,-3.099393,0.979621,-0.199013,0.007642,-0.026044
285,0.001156,-4.216984,9.086929,0.707685,-4.100589,9.850944,-23.066679,0.275046,-2.747201,0.979536,-0.199824,0.007144,-0.023008
286,0.051148,-4.214314,8.930333,3.927388,-3.751153,9.631211,-23.233223,0.223732,-2.398278,0.979309,-0.201277,0.006126,-0.020106
287,0.202364,-4.163264,9.011646,5.674573,-2.318309,7.575789,-23.417011,0.064615,-2.095975,0.979031,-0.202889,0.004264,-0.017795
288,0.235220,-4.049709,9.101510,6.970083,-0.923613,4.388132,-23.401997,-0.163271,-1.891882,0.979080,-0.202800,0.001953,-0.016455
289,0.142641,-4.151259,9.112359,7.012809,-0.203376,2.946132,-23.246651,-0.277086,-1.772527,0.979366,-0.201489,0.000748,-0.015637
290,0.076328,-4.006294,9.002245,7.290528,0.323068,2.708088,-23.050642,-0.257021,-1.686673,0.979721,-0.199811,0.000743,-0.014870
291,-0.024767,-3.979293,9.046259,5.685254,0.695394,2.848473,-22.867622,-0.199920,-1.607886,0.980052,-0.198240,0.001072,-0.014098
292,-0.140705,-4.012977,9.124248,4.908558,0.876979,2.518873,-22.727139,-0.108798,-1.535385,0.980306,-0.197029,0.001709,-0.013323
293,-0.194809,-3.933768,9.098619,5.262573,0.965483,1.998532,-22.592655,-0.000048,-1.477538,0.980546,-0.195867,0.002525,-0.012644
294,-0.269452,-3.810714,9.091556,5.039788,0.381054,2.935451,-22.439260,0.116335,-1.409983,0.980816,-0.194543,0.003390,-0.011871
295,-0.211320,-3.831632,9.019273,4.424840,-0.217109,3.959347,-22.297846,0.224123,-1.304610,0.981067,-0.193325,0.004120,-0.010792
296,-0.175053,-3.849468,9.049617,4.264618,-0.786279,3.915095,-22.182772,0.302215,-1.176790,0.981272,-0.192337,0.004563,-0.009570
297,-0.145867,-3.811262,9.007158,4.455358,-1.604176,4.240117,-22.122641,0.385431,-1.036230,0.981383,-0.191821,0.005036,-0.008229
298,-0.140503,-3.746996,8.961797,3.747329,-2.496842,5.149568,-22.105606,0.472313,-0.866183,0.981421,-0.191676,0.005494,-0.006628
299,0.011046,-3.723268,8.978590,2.648663,-2.705894,5.323524,-22.087744,0.449001,-0.672479,0.981461,-0.191533,0.004970,-0.005009
300,0.080353,-3.763391,9.128520,2.012352,-2.354931,4.375924,-22.076269,0.298461,-0.491533,0.981490,-0.191449,0.003378,-0.003711
301,0.190389,-3.746852,9.095411,2.895863,-1.730828,2.787436,-22.051811,0.067322,-0.355744,0.981536,-0.191250,0.001170,-0.002935
302,0.153220,-3.527872,9.174360,1.812455,-0.923613,0.365792,-21.908808,-0.171058,-0.290828,0.981774,-0.190031,-0.000983,-0.002775
303,0.210942,-3.525585,9.295664,0.674115,0.109439,-2.077215,-21.669638,-0.378067,-0.313215,0.982163,-0.187985,-0.002727,-0.003305
304,0.120409,-3.610973,9.349410,1.601878,0.924283,-4.257761,-21.476000,-0.525087,-0.418979,0.982469,-0.186332,-0.003821,-0.004446
305,-0.044967,-3.401806,9.254823,2.520485,1.243201,-5.980531,-21.325478,-0.564187,-0.591788,0.982704,-0.185048,-0.003883,-0.005986
306,-0.166174,-3.340986,9.279956,0.754989,0.863246,-6.104131,-21.204367,-0.551481,-0.792765,0.982887,-0.184015,-0.003457,-0.007685
307,-0.172977,-3.527466,9.175310,0.625285,0.117068,-4.662131,-21.128908,-0.423071,-0.966316,0.983002,-0.183364,-0.002083,-0.008966
308,-0.185935,-3.574062,9.103485,-0.094952,-0.484146,-4.077703,-21.131464,-0.199745,-1.099793,0.982995,-0.183371,0.000046,-0.009754
309,-0.178219,-3.581164,9.064839,-2.705810,-1.160131,-3.168251,-21.215704,-0.101766,-1.202450,0.982854,-0.184085,0.001059,-0.010477
310,-0.107670,-3.541939,9.106277,-6.323779,-1.451583,-2.272533,-21.376637,-0.129893,-1.271251,0.982587,-0.185467,0.000944,-0.011111
311,-0.061086,-3.545712,9.121952,-8.162518,-0.703880,-2.086370,-21.615698,-0.161994,-1.325795,0.982192,-0.187519,0.000781,-0.011629
312,-0.010003,-3.487532,9.164678,-9.059762,0.759483,-3.995303,-21.881433,-0.182473,-1.420415,0.981744,-0.189798,0.000789,-0.012472
313,-0.045401,-3.393979,9.209608,-8.428029,1.722342,-5.417465,-22.116627,-0.187537,-1.581587,0.981333,-0.191812,0.001041,-0.013859
314,-0.129606,-3.220256,9.286122,-7.544519,2.644001,-6.345227,-22.275860,-0.162313,-1.791016,0.981040,-0.193169,0.001629,-0.015608
316,-0.071721,-3.347390,9.389414,-5.232742,2.439527,-7.376753,-22.358883,-0.135958,-2.035221,0.980865,-0.193872,0.002280,-0.017653
317,-0.009667,-3.290539,9.343652,-3.361957,2.148075,-6.358961,-22.372971,-0.134769,-2.276379,0.980802,-0.193987,0.002700,-0.019715
318,0.079683,-3.329502,9.217631,-2.841617,1.839838,-5.161109,-22.350525,-0.149507,-2.479526,0.980803,-0.193793,0.002914,-0.021479
319,0.131138,-3.478978,9.220842,-4.117290,1.983275,-3.836606,-22.370005,-0.169264,-2.642687,0.980737,-0.193959,0.003024,-0.022908
320,0.192206,-3.663949,9.113087,-3.941809,1.951231,-3.226235,-22.454727,-0.189411,-2.776609,0.980565,-0.194685,0.003096,-0.024086
321,0.204483,-3.706686,9.041589,-4.691038,2.476149,-1.173867,-22.583839,-0.194294,-2.872574,0.980325,-0.195788,0.003246,-0.024912
322,0.204469,-3.772788,9.160318,-4.953497,2.177068,-1.150978,-22.736078,-0.183451,-2.938112,0.980050,-0.197086,0.003484,-0.025450
323,0.119888,-3.684762,9.418020,-4.129499,2.358653,-0.197274,-22.851397,-0.156471,-2.988139,0.979841,-0.198064,0.003827,-0.025827
324,0.056348,-3.659147,9.443920,-1.703277,1.791009,0.011777,-22.878881,-0.109027,-3.018024,0.979790,-0.198288,0.004291,-0.026000
325,0.063706,-3.517020,9.562296,0.170559,1.446149,0.622148,-22.804588,-0.064633,-3.029448,0.979918,-0.197642,0.004673,-0.026024
326,-0.084351,-3.410192,9.515378,2.857714,1.232520,-0.079778,-22.621880,-0.013232,-3.038529,0.980232,-0.196067,0.005087,-0.026021
327,-0.215546,-3.416243,9.456977,4.841417,1.131809,-0.940400,-22.359640,0.057546,-3.069270,0.980674,-0.193806,0.005685,-0.026176
328,-0.251997,-3.478027,9.340536,6.754928,0.538224,-2.446488,-21.925890,0.217955,-3.131164,0.981392,-0.190052,0.007062,-0.026461
329,-0.194510,-3.329833,9.203741,8.520424,0.115542,-2.333570,-21.307751,0.410583,-3.206295,0.982390,-0.184703,0.008692,-0.026832
330,-0.032839,-3.369224,9.203512,9.390202,-0.284250,-3.915955,-20.713272,0.434968,-3.299612,0.983313,-0.179591,0.008908,-0.027639
331,0.264058,-3.415761,9.226962,11.772170,-0.293405,-6.395583,-20.242306,0.300509,-3.456555,0.984001,-0.175572,0.007880,-0.029229
332,0.352125,-3.288486,9.161626,13.011223,-0.337657,-7.434738,-19.809498,0.112036,-3.670020,0.984595,-0.171892,0.006471,-0.031376
333,0.086800,-3.403145,9.049591,11.613474,-0.903776,-4.388992,-19.406137,-0.042291,-3.849324,0.985136,-0.168459,0.005297,-0.033167
334,0.024483,-3.380566,9.307246,10.185209,-0.500931,-1.392074,-19.111990,-0.119585,-3.932768,0.985537,-0.165949,0.004668,-0.034010
335,0.208402,-3.378938,9.337452,11.082453,0.411572,-0.221689,-18.880028,-0.238063,-3.957810,0.985856,-0.163988,0.003616,-0.034404
336,0.278859,-3.403945,9.279381,11.529549,0.205572,-0.648948,-18.690531,-0.458537,-3.974931,0.986104,-0.162421,0.001686,-0.034870
337,0.169619,-3.568588,9.114623,10.945118,0.950224,-0.874785,-18.678080,-0.623758,-4.003080,0.986098,-0.162362,0.000300,-0.035346
338,0.470003,-3.466462,9.320592,12.492409,3.109408,-4.736902,-18.572201,-0.686261,-4.110927,0.986208,-0.161470,-0.000119,-0.036362
339,0.256494,-3.521963,9.053068,14.662274,4.043274,-7.715508,-18.217741,-0.705226,-4.344696,0.986624,-0.158424,-0.000071,-0.038400
340,-0.284514,-3.561414,8.982852,13.790971,2.802697,-5.864562,-17.880186,-0.631127,-4.593615,0.987008,-0.155493,0.000791,-0.040444
341,-0.745370,-3.493784,9.012894,11.059564,1.517868,0.742695,-17.845701,-0.072655,-4.692288,0.987066,-0.155000,0.005724,-0.040539
342,-0.608948,-3.461825,9.219304,11.293031,-0.587909,6.213138,-18.025299,0.769794,-4.584805,0.986883,-0.156258,0.012895,-0.038453
343,-0.407874,-3.553805,9.061212,9.710646,-4.190619,11.871268,-17.998175,1.155295,-4.275085,0.987012,-0.155931,0.015785,-0.035262
344,-0.098907,-3.585928,9.183780,6.120143,-6.882350,14.678970,-17.879246,1.139940,-3.799425,0.987312,-0.154975,0.014973,-0.031201
345,0.172186,-3.516600,9.203840,3.458929,-6.969329,14.015194,-17.855646,1.004819,-3.276261,0.987482,-0.154873,0.013095,-0.026879
346,0.522690,-3.545663,9.165441,2.119166,-5.768426,10.410958,-17.900476,0.786137,-2.826242,0.987527,-0.155358,0.010611,-0.023293
347,0.502135,-3.472975,9.147546,-0.584774,-4.233345,5.747731,-18.211910,0.277483,-2.522203,0.987164,-0.158169,0.005873,-0.021348
348,0.244249,-3.267534,9.208062,-1.184462,-2.568561,1.899347,-18.627750,-0.287067,-2.365849,0.986595,-0.161859,0.000870,-0.020778
349,0.218206,-3.251952,9.126214,-0.749572,-0.407850,-1.463793,-18.871908,-0.580290,-2.341483,0.986234,-0.164011,-0.001645,-0.020985
350,0.170633,-3.304705,9.118364,-2.286181,0.567216,-2.654015,-19.036154,-0.701757,-2.405989,0.985976,-0.165446,-0.002567,-0.021718
351,0.009540,-3.203562,9.211607,-4.411794,0.992949,-3.320844,-19.173834,-0.704754,-2.508255,0.985757,-0.166633,-0.002418,-0.022605
352,-0.040221,-3.223625,9.292452,-6.470266,1.418683,-3.181985,-19.356089,-0.666252,-2.623884,0.985471,-0.168196,-0.001881,-0.023547
353,-0.005168,-3.269276,9.309221,-7.462118,1.791008,-3.751155,-19.585793,-0.616875,-2.750817,0.985109,-0.170163,-0.001221,-0.024568
354,-0.098660,-3.293535,9.341443,-8.498221,1.336283,-3.043126,-19.846621,-0.562842,-2.875217,0.984696,-0.172395,-0.000513,-0.025559
355,-0.095694,-3.185795,9.312083,-8.025185,0.996001,-2.957673,-20.095240,-0.507618,-2.982985,0.984300,-0.174519,0.000181,-0.026402
356,-0.110262,-3.265627,9.268866,-8.632504,0.414624,-1.656059,-20.334448,-0.460097,-3.063847,0.983918,-0.176563,0.000768,-0.027022
357,-0.063117,-3.264000,9.222118,-8.344104,-0.273569,-0.200326,-20.582083,-0.423366,-3.094164,0.983530,-0.178680,0.001189,-0.027224
358,0.008188,-3.288992,9.214553,-9.509911,-1.013643,1.176059,-20.838963,-0.410096,-3.071833,0.983133,-0.180882,0.001329,-0.027008
359,0.132579,-3.300657,9.203462,-10.300340,-1.273050,1.368325,-21.122591,-0.430331,-3.018988,0.982693,-0.183320,0.001138,-0.026584
360,0.174376,-3.381388,9.278879,-10.977850,-0.783228,0.812888,-21.426970,-0.470810,-2.972971,0.982210,-0.185938,0.000787,-0.026252
361,0.214194,-3.407227,9.286409,-9.975318,-0.081302,-0.482622,-21.721783,-0.513131,-2.962832,0.981728,-0.188474,0.000475,-0.026233
362,0.217680,-3.466982,9.303121,-9.877659,0.591631,-1.888000,-21.993610,-0.554585,-3.003007,0.981265,-0.190811,0.000249,-0.026645
363,0.125770,-3.522954,9.288811,-9.219983,1.272194,-3.360518,-22.253567,-0.579666,-3.096149,0.980806,-0.193042,0.000252,-0.027483
364,0.060237,-3.486012,9.325735,-9.302384,1.343912,-3.835081,-22.492676,-0.583545,-3.224298,0.980369,-0.195088,0.000494,-0.028586
365,0.014833,-3.542550,9.218398,-8.452444,1.003631,-3.485643,-22.713314,-0.577578,-3.352780,0.979959,-0.196974,0.000821,-0.029673
366,-0.027068,-3.632838,9.220017,-8.922427,0.924283,-3.320844,-22.940327,-0.563762,-3.470526,0.979537,-0.198910,0.001202,-0.030654
367,-0.049447,-3.572251,9.190550,-8.061807,0.501601,-3.258281,-23.155693,-0.548520,-3.581527,0.979133,-0.200745,0.001585,-0.031574
368,-0.032857,-3.508618,9.174314,-6.113200,0.223883,-2.242014,-23.301125,-0.537107,-3.671533,0.978854,-0.201983,0.001881,-0.032320
369,0.044146,-3.565142,9.219585,-3.873142,0.056031,-0.969393,-23.366581,-0.530631,-3.723536,0.978724,-0.202540,0.002047,-0.032752
370,0.039294,-3.457934,9.320590,-0.519158,-0.207954,0.240666,-23.114244,-0.503491,-3.736649,0.979167,-0.200377,0.002229,-0.032821
371,0.092516,-3.214011,9.357017,5.474677,-1.187598,2.596695,-22.660969,-0.479423,-3.687192,0.979968,-0.196496,0.002220,-0.032366
372,0.090960,-3.208665,9.377100,9.684705,-2.203864,5.816398,-21.968998,-0.483460,-3.539726,0.981177,-0.190579,0.001745,-0.031122
373,0.177485,-3.184523,9.465496,10.916127,-2.843227,8.112915,-20.973373,-0.530157,-3.298924,0.982855,-0.182061,0.000692,-0.029145
374,0.133129,-3.056485,9.422216,11.575326,-2.991242,8.860619,-20.223661,-0.575986,-3.004188,0.984093,-0.175637,-0.000344,-0.026688
375,0.189120,-2.962088,9.437472,11.099237,-3.078220,9.406899,-19.716124,-0.584149,-2.685014,0.984931,-0.171276,-0.001010,-0.023955
376,0.199747,-2.930887,9.460247,8.129786,-2.501420,8.675982,-19.105619,-0.635967,-2.373270,0.985887,-0.166032,-0.002035,-0.021343
377,0.244358,-2.878319,9.534079,5.500617,-1.681998,7.320960,-18.441172,-0.739320,-2.104281,0.986873,-0.160322,-0.003425,-0.019158
378,0.161925,-2.780151,9.517774,5.007743,-1.225746,6.124635,-17.860031,-0.804128,-1.882332,0.987703,-0.155317,-0.004382,-0.017315
379,0.149273,-2.707651,9.568950,5.515876,-0.870206,5.212131,-17.442289,-0.799444,-1.695274,0.988290,-0.151707,-0.004652,-0.015680
380,0.137845,-2.762811,9.567546,5.586069,-0.583332,4.255376,-17.181614,-0.776670,-1.538545,0.988655,-0.149450,-0.004696,-0.014287
381,0.144328,-2.765811,9.604062,5.381595,-0.561969,3.455791,-16.944368,-0.758235,-1.410849,0.988979,-0.147395,-0.004730,-0.013152
382,0.067589,-2.652658,9.517211,5.984336,-0.581806,3.199435,-16.699427,-0.737164,-1.299897,0.989305,-0.145275,-0.004717,-0.012157
383,0.132309,-2.739209,9.579561,6.022484,-0.128606,2.071777,-16.452023,-0.715612,-1.212898,0.989627,-0.143133,-0.004666,-0.011369
384,0.168047,-2.756451,9.629897,5.856158,-0.001954,1.017362,-16.226696,-0.709402,-1.163241,0.989912,-0.141184,-0.004696,-0.010923
385,0.122781,-2.643192,9.572416,5.084040,0.207098,0.565688,-16.015574,-0.704410,-1.139228,0.990173,-0.139359,-0.004702,-0.010701
386,0.083656,-2.716269,9.615017,4.809373,0.631305,-0.145393,-15.810563,-0.668439,-1.136787,0.990423,-0.137584,-0.004413,-0.010628
387,0.093423,-2.738762,9.684776,5.659314,1.218787,-1.556874,-15.613179,-0.622723,-1.172634,0.990658,-0.135875,-0.003994,-0.010876
388,0.075984,-2.608284,9.566184,5.145077,1.252357,-1.730829,-15.398801,-0.577742,-1.236755,0.990907,-0.134020,-0.003550,-0.011371
389,0.065801,-2.769723,9.625663,5.412113,1.336283,-1.056371,-15.249103,-0.513117,-1.292616,0.991079,-0.132721,-0.002941,-0.011774
390,0.059318,-2.700483,9.710338,8.843920,0.916653,-1.035007,-15.077790,-0.463525,-1.335364,0.991274,-0.131236,-0.002481,-0.012083
391,0.001418,-2.586344,9.629730,9.597727,0.570268,1.166903,-14.773052,-0.393219,-1.339423,0.991623,-0.128593,-0.001900,-0.012032
392,0.009127,-2.697643,9.636638,9.786942,0.046875,2.355599,-14.525636,-0.295380,-1.284380,0.991907,-0.126441,-0.001140,-0.011444
393,0.012919,-2.678188,9.645818,12.834215,-0.380384,2.703510,-14.319286,-0.228180,-1.200112,0.992144,-0.124648,-0.000670,-0.010639
394,-0.058251,-2.494906,9.603972,14.317414,-0.725243,2.827110,-13.963595,-0.190309,-1.105533,0.992535,-0.121564,-0.000476,-0.009778
395,-0.147750,-2.549684,9.570422,13.940511,-0.940398,4.600235,-13.585969,-0.079123,-0.977907,0.992943,-0.118284,0.000324,-0.008556
396,-0.158212,-2.641242,9.536826,15.416081,-1.413435,4.104310,-13.227574,0.035027,-0.826523,0.993319,-0.115171,0.001134,-0.007130
397,-0.119441,-2.530779,9.550045,15.077326,-1.544664,3.678577,-12.799696,0.054014,-0.688556,0.993751,-0.111461,0.001138,-0.005919
398,-0.070626,-2.471081,9.667318,12.808274,-1.842220,3.257421,-12.512838,0.071547,-0.563302,0.994032,-0.108974,0.001156,-0.004818
399,-0.006210,-2.494905,9.645526,11.650096,-2.098575,3.364236,-12.428413,0.060262,-0.441565,0.994117,-0.108243,0.000940,-0.003774
400,0.143345,-2.583533,9.644229,9.828141,-2.187079,1.406474,-12.488106,-0.076493,-0.348935,0.994063,-0.108765,-0.000332,-0.003100
401,0.281885,-2.585272,9.750860,7.418706,-2.225227,-0.151496,-12.490199,-0.259566,-0.312672,0.994059,-0.108787,-0.001955,-0.002959
402,0.189916,-2.822604,10.204762,6.098780,-2.980560,-2.373244,-12.386914,-0.405912,-0.334854,0.994152,-0.107895,-0.003206,-0.003287
403,0.073025,-2.832627,10.966770,7.244750,-5.550219,-5.171791,-12.279801,-0.588467,-0.426711,0.994242,-0.106973,-0.004708,-0.004252
404,-0.181941,-2.439414,12.260484,9.768631,-7.794855,-5.820310,-12.019132,-0.811041,-0.558847,0.994464,-0.104725,-0.006528,-0.005591
405,-0.472823,-2.691802,13.142090,19.296509,-6.749597,-6.673301,-11.498599,-0.993321,-0.713215,0.994908,-0.100224,-0.008001,-0.007061
406,-0.554507,-2.879425,14.076747,23.057915,-5.301493,-5.187050,-10.781215,-1.090328,-0.867262,0.995497,-0.094010,-0.008761,-0.008428
407,-0.348702,-3.062808,14.271182,25.452091,-4.625508,-3.993777,-10.002366,-1.150886,-0.985669,0.996098,-0.087255,-0.009255,-0.009444
408,0.044165,-3.106931,14.142124,34.406223,-3.014130,-2.872222,-9.088144,-1.216723,-1.074337,0.996749,-0.079317,-0.009841,-0.010186
409,0.320720,-3.613547,12.697114,44.263702,1.252357,-3.777096,-7.984957,-1.244033,-1.174674,0.997454,-0.069729,-0.010115,-0.010981
410,0.790409,-3.066624,11.957726,41.501774,2.482253,-5.516650,-6.853602,-1.262330,-1.330741,0.998076,-0.059893,-0.010301,-0.012250
411,0.978864,-2.736928,10.908392,43.976822,5.303689,-7.118872,-5.734776,-1.297559,-1.549826,0.998585,-0.050170,-0.010631,-0.014073
412,0.712177,-2.448995,9.908013,50.639015,15.629625,-8.374709,-4.502243,-1.120608,-1.833669,0.999047,-0.039429,-0.009142,-0.016372
413,0.202656,-2.183280,10.310267,54.255459,32.628433,-6.481036,-3.106392,-0.396620,-2.129570,0.999452,-0.027165,-0.002956,-0.018670
414,-0.171940,-1.833441,10.571978,63.024952,35.678757,-4.460710,-1.477470,0.763664,-2.354277,0.999685,-0.012753,0.006927,-0.020455
415,-0.474153,0.106499,9.124739,76.768959,30.592850,-5.950014,0.742427,1.947490,-2.530443,0.999588,0.006852,0.016847,-0.022187
416,-0.753000,0.674825,9.109076,65.295532,25.143768,1.914606,3.236711,2.991359,-2.554730,0.998996,0.028807,0.025455,-0.023013
417,-0.689913,1.665087,8.912817,52.210716,13.500959,1.939021,5.447856,3.724277,-2.425525,0.998086,0.048175,0.031445,-0.022674
419,-0.993301,2.316458,7.317813,26.355440,-2.306102,4.809287,7.207507,4.013464,-2.261609,0.997173,0.063495,0.033701,-0.021884
420,-0.830746,3.006619,6.700012,-11.028206,-8.556292,5.801139,8.128982,3.955221,-2.060663,0.996686,0.071445,0.033143,-0.020371
421,-0.421698,1.897169,7.139250,-49.766876,-7.335549,9.518292,7.666142,3.702740,-1.804891,0.997084,0.067314,0.031178,-0.017866
422,-0.263892,1.781476,6.057259,-59.424454,-4.923063,-0.281200,6.208266,3.438477,-1.651492,0.997956,0.054553,0.029175,-0.016008
423,-0.664825,1.163086,5.336245,-65.184814,-1.601124,3.268102,4.471796,3.378969,-1.590477,0.998692,0.039402,0.028916,-0.015013
424,0.284042,0.391520,4.196389,-57.347664,-3.807612,1.459881,2.592482,3.199471,-1.507638,0.999260,0.022978,0.027610,-0.013779
425,0.294932,-0.266549,3.178550,-40.071148,-0.832057,-5.942383,0.817009,2.766461,-1.584278,0.999585,0.007461,0.024038,-0.013993
426,-0.370123,-1.015463,2.472088,-21.558615,3.364238,-11.191567,-0.903516,2.738071,-1.897183,0.999550,-0.007486,0.024018,-0.016362
427,0.163286,-1.146825,2.162741,-7.460593,3.667897,-13.082190,-2.515167,2.821564,-2.359111,0.999255,-0.021429,0.025061,-0.020034
428,-0.092235,-1.118713,1.934508,12.126185,3.193334,-19.832884,-3.666610,2.759163,-2.968210,0.998883,-0.031349,0.024884,-0.025109
429,-0.618716,-1.483351,2.582423,21.432804,5.448652,-17.373091,-4.315146,3.068221,-3.655409,0.998457,-0.036762,0.027940,-0.030853
430,-0.268518,-1.096946,3.709512,28.589396,6.222296,-17.078587,-4.360734,3.452372,-4.287292,0.998166,-0.036876,0.031503,-0.036216
431,-0.434652,-0.600991,5.530952,30.467810,5.483748,-6.961701,-3.720201,3.665511,-4.717893,0.998158,-0.031099,0.033274,-0.040080
432,-0.900662,-0.224397,7.938294,22.040123,5.035126,-6.508502,-2.854932,3.916286,-4.950864,0.998210,-0.023398,0.035202,-0.042302
433,-1.067360,0.133641,10.809018,4.018944,2.946135,-0.490252,-2.299881,4.147769,-5.063747,0.998200,-0.018438,0.037032,-0.043412
434,-1.312963,1.015168,13.172306,-4.539971,3.559557,-5.361005,-2.081699,4.327723,-5.148596,0.998145,-0.016438,0.038529,-0.044190
435,-1.760938,1.053534,14.900528,-17.063240,-2.260323,2.036681,-2.153389,4.438282,-5.183306,0.998085,-0.017007,0.039524,-0.044449
436,-1.247028,0.782007,15.958134,-22.431446,-5.982055,0.957851,-2.554385,4.359471,-5.108717,0.998073,-0.020556,0.038980,-0.043677
437,-1.303308,1.104260,15.808867,-15.398456,-9.586290,3.731984,-2.915089,4.113649,-4.998064,0.998122,-0.023831,0.036953,-0.042648
438,-0.106550,0.225921,15.613435,-17.954380,-10.929105,5.453228,-3.223689,3.703817,-4.809048,0.998241,-0.026734,0.033455,-0.041008
439,0.017130,-0.042144,14.605169,-15.515952,-11.492171,4.711628,-3.613942,3.169753,-4.605546,0.998349,-0.030384,0.028888,-0.039273
440,0.376705,-0.659954,14.359596,-19.701565,-7.590381,0.986844,-4.102264,2.665759,-4.482132,0.998357,-0.034845,0.024628,-0.038236
441,0.602675,-1.368198,13.723191,-20.809387,-4.614827,-5.641777,-4.794007,2.232036,-4.541595,0.998183,-0.041012,0.021101,-0.038766
442,0.263537,-1.970423,13.843524,-19.410112,-0.105717,-8.127509,-5.584699,1.939239,-4.764807,0.997841,-0.047965,0.018912,-0.040690
443,-0.089706,-1.655651,13.516447,-19.297195,2.521927,-12.763270,-6.349250,1.831678,-5.117293,0.997382,-0.054605,0.018415,-0.043683
444,-0.070881,-2.095085,13.924026,-29.899328,-1.218116,-10.697166,-7.264095,1.736128,-5.509715,0.996770,-0.062542,0.018146,-0.047002
445,-0.310823,-2.259859,13.156313,-28.937994,-5.879819,-11.948426,-8.362133,1.522588,-5.870147,0.995992,-0.072128,0.016967,-0.050096
446,-0.675650,-2.107837,12.955692,-34.168865,-7.007477,-7.746027,-9.497836,1.282945,-6.163692,0.995113,-0.082065,0.015592,-0.052649
447,-0.622514,-2.997277,12.141362,-37.277176,-4.115849,3.654161,-10.809214,1.156600,-6.202110,0.994097,-0.093502,0.015129,-0.052905
448,-0.874947,-3.272040,12.066326,-33.390640,1.478194,10.186647,-12.181386,1.259599,-5.972985,0.993005,-0.105383,0.016443,-0.050639
449,-0.917542,-3.671525,12.513669,-20.598810,7.914548,17.384439,-13.265472,1.641451,-5.565144,0.992114,-0.114666,0.019818,-0.046564
450,-0.669429,-4.306640,12.582675,-3.177319,11.587449,25.036951,-13.865055,2.214298,-4.960271,0.991675,-0.119735,0.024385,-0.040619
451,-0.495154,-3.968695,12.534438,36.580666,10.307198,23.742970,-13.491283,2.787465,-4.262391,0.992203,-0.116448,0.028505,-0.034064
452,-0.191736,-2.806150,12.251401,73.720161,3.059052,19.174349,-11.691092,3.113552,-3.613659,0.994026,-0.100907,0.030223,-0.028589
453,0.243934,-1.432528,11.088194,96.786057,-5.454086,15.570112,-8.707532,3.030749,-3.032986,0.996470,-0.075163,0.028368,-0.024372
454,0.321441,-0.225944,9.528329,104.670509,-9.180394,12.005551,-5.062899,2.629347,-2.542758,0.998538,-0.043637,0.023895,-0.021147
455,-0.069882,1.675467,8.293575,91.759659,-9.481002,7.649034,-1.238962,2.175419,-2.184519,0.999584,-0.010446,0.019184,-0.018853
456,0.001569,2.171579,7.094354,46.778423,-9.470320,7.821464,1.859351,1.761495,-1.902620,0.999608,0.016476,0.015098,-0.016848
457,-0.309494,1.913777,6.704306,1.838396,-5.965271,7.615463,3.406099,1.464178,-1.633745,0.999370,0.029896,0.012346,-0.014629
458,-0.720549,1.692083,6.731467,-27.444111,-2.745568,6.777731,3.546971,1.427225,-1.386121,0.999366,0.031094,0.012073,-0.012475
459,-0.319315,1.947732,6.541491,-52.571529,-2.768457,0.741170,2.755090,1.461513,-1.253097,0.999567,0.024176,0.012486,-0.011238
460,0.187080,1.361992,6.709300,-64.095314,-1.543138,0.114014,1.305983,1.350582,-1.229168,0.999807,0.011522,0.011662,-0.010859
461,-0.220974,0.838975,6.134706,-55.536400,1.455305,3.562606,-0.338882,1.296148,-1.157196,0.999881,-0.002843,0.011340,-0.010064
462,0.176278,0.445015,5.115189,-43.113838,0.146061,-3.406296,-1.712990,1.264148,-1.147646,0.999779,-0.014836,0.011179,-0.009848
463,-0.090490,-0.145880,4.330509,-23.031134,-0.948028,-9.874693,-2.703410,1.166930,-1.363980,0.999602,-0.023465,0.010460,-0.011659
464,-0.293195,-0.666085,3.070120,0.027122,0.512283,-7.627004,-3.314608,1.239193,-1.659816,0.999423,-0.028760,0.011227,-0.014165
465,-0.335115,-1.619158,1.560000,22.772566,1.224890,-5.881347,-4.038781,1.522195,-1.912227,0.999160,-0.035008,0.013861,-0.016207
466,-0.088909,-1.963161,1.403676,39.481445,-1.634694,-4.750635,-4.899594,1.699580,-2.138087,0.998814,-0.042455,0.015612,-0.018004
467,-0.536696,-2.047434,1.799672,45.112110,-2.043642,-0.899200,-5.395653,1.881550,-2.281808,0.998574,-0.046726,0.017335,-0.019114
468,0.123727,-2.231157,2.255049,38.910751,-0.490250,-0.858000,-5.719764,1.977747,-2.362393,0.998411,-0.049520,0.018261,-0.019725
469,0.037343,-2.220810,4.775935,21.820389,-1.317302,-4.088384,-5.973962,1.802548,-2.483234,0.998301,-0.051750,0.016833,-0.020817
470,-0.601823,-0.789735,7.858996,6.063684,-1.848324,-9.978456,-5.943306,1.732209,-2.725638,0.998277,-0.051462,0.016324,-0.022965
471,-1.221921,-0.415387,10.553717,-22.103374,-0.264413,-14.582173,-6.133931,1.824314,-3.126810,0.998093,-0.053043,0.017350,-0.026389
472,-0.640683,-0.265794,13.460671,-37.989788,-3.502427,-15.079626,-6.952665,1.837300,-3.606255,0.997568,-0.060095,0.017903,-0.030432
473,-0.780512,0.108189,15.614375,-34.802128,-8.032900,-10.987092,-7.895566,1.634765,-4.004519,0.996951,-0.068301,0.016628,-0.033871
474,-1.049874,0.123620,15.983251,-23.084543,-8.736350,-7.308087,-8.509169,1.387506,-4.256843,0.996517,-0.073683,0.014821,-0.036137
475,-0.449004,-0.320192,16.015793,-20.127300,-10.553728,-2.802029,-8.873576,1.098696,-4.366228,0.996262,-0.076935,0.012499,-0.037236
476,0.239236,-0.585122,15.400358,-5.884313,-12.329905,0.143007,-8.985359,0.674856,-4.343925,0.996211,-0.078052,0.008836,-0.037321
477,0.111834,-0.614327,14.250330,-0.789248,-8.101566,0.594681,-8.793827,0.269243,-4.274940,0.996367,-0.076524,0.005200,-0.037007
478,0.295636,-0.918204,13.367355,-7.080637,-4.884916,3.886102,-8.664392,0.005842,-4.166373,0.996484,-0.075487,0.002797,-0.036243
479,0.696447,-1.410803,13.072713,-13.341509,-2.832546,3.297095,-8.836311,-0.207672,-4.027739,0.996406,-0.077051,0.000901,-0.035176
480,0.685406,-2.081761,13.185301,-14.690427,0.292550,2.849999,-9.249866,-0.365425,-3.919059,0.996147,-0.080694,-0.000420,-0.034339
481,0.628212,-2.049683,13.811162,-22.144571,3.680105,-2.939363,-9.848280,-0.413531,-3.930416,0.995706,-0.085909,-0.000650,-0.034475
482,0.431133,-2.442690,14.343412,-28.646542,6.231452,-3.235392,-10.671220,-0.349102,-4.059994,0.995028,-0.093038,0.000263,-0.035552
483,0.321278,-3.030043,14.212405,-30.930851,6.538162,-5.335065,-11.690285,-0.218474,-4.240160,0.994111,-0.101840,0.001872,-0.036996
484,-0.051800,-3.510942,13.691249,-31.297075,8.035095,-2.963777,-12.819830,-0.021597,-4.425961,0.993007,-0.111565,0.004124,-0.038394
485,0.105313,-3.445417,12.612799,-24.789001,5.233496,-4.164680,-13.872779,0.165673,-4.592237,0.991890,-0.120613,0.006272,-0.039596
486,-0.236633,-3.698567,11.327450,-19.503197,1.874935,1.491925,-14.763834,0.281763,-4.665087,0.990900,-0.128277,0.007666,-0.040046
487,-0.240229,-3.549579,10.494847,-17.496605,0.699972,3.217747,-15.566306,0.387611,-4.601898,0.990002,-0.135180,0.008786,-0.039321
488,-0.113642,-3.561360,10.105659,-25.817472,-4.060916,5.376932,-16.465023,0.400228,-4.450341,0.988962,-0.142947,0.009014,-0.037927
489,0.411260,-4.054892,10.075002,-24.180157,-3.709953,9.167331,-17.509552,0.293289,-4.182083,0.987702,-0.152012,0.008082,-0.035673
490,-0.281697,-4.584823,11.535603,-3.790743,3.469527,11.276158,-18.193998,0.357933,-3.856805,0.986875,-0.157912,0.008403,-0.032734
491,0.232275,-4.390075,11.957676,44.204185,2.294564,11.462321,-17.657909,0.556413,-3.526163,0.987695,-0.153263,0.009518,-0.029657
492,0.280538,-3.596159,11.665808,83.331963,-0.137761,12.351935,-15.561921,0.628053,-3.157115,0.990422,-0.135183,0.009158,-0.026552
493,0.257915,-2.027226,11.220218,105.549446,3.342875,11.959773,-12.277766,0.689532,-2.778948,0.993971,-0.106760,0.008574,-0.023466
494,-0.115172,-0.246645,10.387590,111.515808,0.869350,7.691759,-8.289900,0.770944,-2.470082,0.997141,-0.072117,0.008266,-0.021011
495,-0.120944,0.982157,7.992165,85.115776,-4.964264,9.533551,-4.419028,0.734874,-2.169841,0.999062,-0.038425,0.007137,-0.018673
496,-0.198304,1.615493,6.632669,29.274534,-3.383405,7.639877,-1.757656,0.636812,-1.864622,0.999736,-0.015245,0.005805,-0.016184
497,-0.098438,1.974990,6.236105,-18.683775,-3.014131,7.047820,-0.736398,0.564077,-1.606419,0.999869,-0.006357,0.005012,-0.013986
498,-0.430242,2.082948,6.237907,-45.651455,-2.480057,11.759876,-0.940033,0.557369,-1.282311,0.999892,-0.008148,0.004955,-0.011150
499,-0.082334,1.978280,6.212892,-67.540855,-3.795405,13.296484,-1.972618,0.542086,-0.854759,0.999813,-0.017178,0.004858,-0.007376
500,0.896113,1.667878,6.369224,-77.054993,-3.879330,9.876885,-3.588204,0.249491,-0.453138,0.999500,-0.031299,0.002300,-0.003884
501,0.502422,1.047111,6.483307,-68.920288,-1.375287,9.545759,-5.358743,-0.105963,-0.110191,0.998906,-0.046748,-0.000879,-0.001004
502,0.474805,0.332038,4.662839,-44.053814,-2.357983,7.287390,-6.739077,-0.373994,0.183119,0.998265,-0.058770,-0.003352,0.001403
503,0.473378,-0.621227,3.299744,-21.122204,-2.686057,-1.672844,-7.701274,-0.750846,0.291724,0.997719,-0.067137,-0.006708,0.002100
504,0.130452,-1.181771,2.367684,-1.587306,-2.460220,-4.025822,-8.590892,-1.071697,0.220222,0.997147,-0.074878,-0.009470,0.001216
505,-0.309823,-1.299685,1.050953,19.360600,-3.912901,-0.355971,-9.588403,-0.978980,0.186154,0.996465,-0.083560,-0.008649,0.000905
506,-0.238201,-1.673156,0.953227,28.963245,-4.991730,0.008725,-10.663704,-0.693587,0.232781,0.995654,-0.092910,-0.006215,0.001460
507,0.315071,-1.853082,2.342353,30.803513,-4.178412,-1.547718,-11.283339,-0.796661,0.257271,0.995131,-0.098289,-0.007139,0.001551
508,0.264239,-1.593328,4.223433,24.777634,-1.694205,-3.705377,-11.176481,-1.092078,0.200952,0.995202,-0.097357,-0.009655,0.000817
509,-0.223371,-1.079486,6.323627,23.082331,-0.171332,-4.141792,-10.556218,-1.135290,0.080207,0.995711,-0.091979,-0.009929,-0.000214
510,-0.342987,-1.112300,9.649326,2.535744,0.085024,-8.487627,-10.000248,-1.031228,-0.128127,0.996153,-0.087164,-0.008867,-0.001898
511,-0.351997,-0.617824,11.969488,-4.279038,-0.517717,-4.820828,-9.773428,-0.942588,-0.349281,0.996325,-0.085208,-0.007936,-0.003738
512,-0.530803,-0.168877,13.878413,-15.082590,-1.108250,-3.389511,-9.726088,-0.858972,-0.485580,0.996361,-0.084803,-0.007110,-0.004858
513,-0.374928,-0.582790,15.077108,-23.104380,-4.257760,2.480725,-9.983914,-0.826156,-0.491442,0.996169,-0.087044,-0.006809,-0.004900
514,0.370184,-1.006683,15.607848,-27.587547,-4.845241,-0.146919,-10.514230,-0.928819,-0.431316,0.995751,-0.091652,-0.007726,-0.004491
515,0.449892,-0.825002,14.999008,-14.304369,-5.396101,0.124696,-10.900817,-1.126971,-0.404693,0.995421,-0.095014,-0.009455,-0.004450
516,0.783379,-1.451547,14.571266,-19.408588,-4.904752,-5.689079,-11.173988,-1.375948,-0.467898,0.995165,-0.097398,-0.011552,-0.005232
517,0.268636,-1.802358,13.695488,-15.973732,-2.397657,-5.374740,-11.556406,-1.570060,-0.628668,0.994803,-0.100742,-0.013079,-0.006837
518,0.596038,-2.002248,12.845123,-12.372547,-0.798487,-5.576161,-11.878197,-1.677566,-0.800191,0.994491,-0.103559,-0.013838,-0.008459
519,0.541703,-2.562517,12.301617,-10.500237,-0.355969,-3.607717,-12.190739,-1.770610,-0.947483,0.994180,-0.106294,-0.014485,-0.009861
520,0.420036,-3.034421,12.101801,-11.174696,0.922757,-1.538563,-12.589963,-1.801603,-1.031850,0.993792,-0.109770,-0.014639,-0.010673
522,0.183066,-2.794557,12.370964,-12.609065,2.305245,-3.673332,-13.029759,-1.749760,-1.127054,0.993362,-0.113592,-0.014054,-0.011503
523,0.332582,-3.609623,13.555536,-17.762114,3.231482,-5.006991,-13.577415,-1.661871,-1.287970,0.992803,-0.118350,-0.013071,-0.012874
524,-0.202534,-3.783792,13.696380,-9.952429,3.069734,-7.569020,-14.118761,-1.544369,-1.514592,0.992221,-0.123053,-0.011749,-0.014772
525,-0.280230,-3.775574,13.313802,-2.570002,2.193853,-6.435257,-14.403127,-1.397906,-1.760873,0.991897,-0.125522,-0.010175,-0.016773
526,-0.040916,-3.827027,12.867464,3.053032,1.635364,-7.617849,-14.478150,-1.296450,-2.001703,0.991789,-0.126179,-0.009021,-0.018752
527,0.273781,-3.587193,11.651443,14.604287,0.271187,-4.717066,-14.289010,-1.280443,-2.206177,0.991963,-0.124555,-0.008691,-0.020490
528,0.275956,-2.894816,10.228302,19.018791,-1.466842,-4.147896,-13.820451,-1.340011,-2.342524,0.992432,-0.120518,-0.009147,-0.021698
529,0.635077,-2.701830,9.387237,10.762008,-1.361553,-2.740992,-13.560737,-1.635831,-2.437899,0.992644,-0.118327,-0.011660,-0.022807
530,0.686824,-2.559773,9.067910,-2.594418,-0.549761,-4.413407,-13.676055,-1.971216,-2.540199,0.992451,-0.119395,-0.014436,-0.024052
531,0.530972,-2.437566,9.586091,-18.296188,1.578905,-4.039555,-14.083301,-2.071668,-2.678665,0.991972,-0.122957,-0.015072,-0.025409
532,0.515018,-3.309157,10.728148,-25.808321,3.294045,0.162844,-14.899014,-2.047331,-2.757922,0.991058,-0.130020,-0.014590,-0.026174
533,0.473706,-4.591311,11.792858,-5.978920,4.362193,3.591598,-15.645514,-1.923233,-2.722945,0.990220,-0.136447,-0.013388,-0.025819
534,0.145316,-3.641188,11.890605,44.771832,4.346934,7.494915,-15.180799,-1.708148,-2.576643,0.990833,-0.132374,-0.011802,-0.024252
535,0.335596,-3.316457,12.397482,68.222260,2.611956,13.455181,-13.333426,-1.476795,-2.264237,0.992932,-0.116314,-0.010504,-0.021119
536,0.538463,-2.428251,11.577990,93.790665,1.369853,15.187106,-10.606843,-1.333782,-1.811816,0.995510,-0.092595,-0.010127,-0.016817
537,0.542543,-0.858540,9.734090,103.202568,0.721335,11.500469,-7.175036,-1.299255,-1.384369,0.997895,-0.062701,-0.010559,-0.012766
538,-0.121259,1.222968,8.147889,82.149376,1.221838,9.763967,-3.614514,-1.228924,-1.047779,0.999400,-0.031632,-0.010430,-0.009477
539,0.385599,1.085773,7.200015,30.389986,1.003631,5.288427,-1.113868,-1.175106,-0.811266,0.999874,-0.009792,-0.010185,-0.007179
540,0.108361,1.897821,6.235820,3.587107,2.734030,1.160799,0.133362,-1.149454,-0.720006,0.999929,0.001101,-0.010038,-0.006271
541,-0.250927,2.082250,6.145965,-26.789492,3.948667,0.716755,0.570901,-0.958835,-0.704806,0.999934,0.004930,-0.008398,-0.006109
542,-0.309218,2.079161,6.535342,-49.315205,2.973601,2.651628,0.105083,-0.687990,-0.663460,0.999965,0.000882,-0.006009,-0.005784
543,0.367934,2.105251,6.450684,-62.668568,0.654194,4.490367,-0.972894,-0.602802,-0.557574,0.999938,-0.008515,-0.005219,-0.004910
544,0.244012,1.876653,6.960260,-67.952843,0.999053,7.804679,-2.384470,-0.656768,-0.361006,0.999762,-0.020825,-0.005665,-0.003269
545,0.381755,0.880836,6.485120,-57.559769,1.986327,8.717181,-3.885818,-0.685211,-0.093050,0.999407,-0.033908,-0.005949,-0.001014
546,0.585194,-0.298879,5.605750,-34.261944,-0.110295,5.119050,-5.169662,-0.818187,0.135044,0.998957,-0.045089,-0.007186,0.000855
547,0.065014,-0.283912,4.168805,-11.418841,0.594683,0.597733,-5.884332,-0.922991,0.231265,0.998648,-0.051310,-0.008147,0.001602
548,0.734021,-1.763955,3.661535,4.566752,1.124179,-4.884917,-6.406595,-1.117476,0.165000,0.998390,-0.055862,-0.009817,0.000893
549,-0.121257,-2.288342,2.540185,29.994770,1.484298,-8.789761,-7.028593,-1.247034,-0.042080,0.998060,-0.061298,-0.010839,-0.001034
550,-0.267991,-2.304629,1.917094,42.266262,-0.401746,-9.499315,-7.478231,-1.062112,-0.313225,0.997823,-0.065236,-0.009071,-0.003332
551,-0.222314,-2.369776,2.673504,32.080715,-1.538561,-9.070530,-7.863952,-0.895844,-0.584323,0.997600,-0.068609,-0.007449,-0.005623
552,-0.235931,-2.539804,4.419854,25.755753,-0.372753,-7.375227,-8.122138,-0.784024,-0.831241,0.997436,-0.070866,-0.006311,-0.007720
553,-0.576671,-1.799746,5.719035,21.583874,-2.415968,-6.891510,-8.034370,-0.640251,-1.049672,0.997482,-0.070103,-0.004932,-0.009529
554,-0.216710,-1.547396,8.376753,-0.195662,-3.790827,-4.230295,-7.944108,-0.576871,-1.214849,0.997526,-0.069318,-0.004287,-0.010924
555,-0.198359,-1.022285,11.013779,-14.955938,-4.663656,-7.109716,-8.189952,-0.658250,-1.382321,0.997353,-0.071473,-0.004868,-0.012442
556,-0.295466,-0.261419,12.698239,-20.975714,-5.396101,-5.441879,-8.565790,-0.772410,-1.567731,0.997085,-0.074764,-0.005699,-0.014145
557,0.264464,-0.747857,13.972880,-28.599236,-8.954557,-3.958680,-9.104067,-0.994578,-1.689839,0.996690,-0.079480,-0.007481,-0.015388
558,-0.036369,-0.960028,14.942179,-32.562069,-8.521195,-2.269481,-9.872096,-1.280478,-1.748222,0.996099,-0.086198,-0.009819,-0.016159
559,0.281600,-0.687829,14.851634,-27.163342,-10.237861,-0.749659,-10.578315,-1.567127,-1.748379,0.995514,-0.092371,-0.012209,-0.016451
560,0.736919,-1.443365,14.806950,-29.688751,-9.886898,1.766592,-11.248548,-1.918387,-1.675231,0.994916,-0.098224,-0.015225,-0.016187
561,0.613083,-2.184482,14.153308,-21.908056,-7.257729,4.804708,-11.943090,-2.217880,-1.514762,0.994274,-0.104260,-0.017872,-0.015157
562,1.033401,-2.358959,13.575097,-19.492516,-5.208411,3.672472,-12.536057,-2.450922,-1.335662,0.993700,-0.109395,-0.019985,-0.013918
563,1.165059,-2.431028,12.748960,-15.366412,-2.008546,4.166872,-13.036511,-2.648167,-1.184103,0.993190,-0.113721,-0.021784,-0.012887
564,1.287704,-3.050903,12.117101,-14.678221,1.775749,3.124665,-13.528155,-2.759573,-1.064199,0.992683,-0.117964,-0.022817,-0.012055
565,1.038747,-3.003206,11.418981,-11.127392,3.210119,1.418681,-14.013490,-2.786820,-1.006597,0.992174,-0.122157,-0.023063,-0.011682
566,1.216958,-2.904824,10.879242,-12.497673,3.747245,-1.688104,-14.454610,-2.804877,-1.036121,0.991689,-0.125983,-0.023142,-0.012046
567,0.828024,-3.025705,10.544459,-10.878665,3.661793,-1.738459,-14.896959,-2.811883,-1.119000,0.991185,-0.129827,-0.023062,-0.012860
568,0.532777,-3.192191,10.848217,-11.887301,2.447157,-1.424118,-15.342627,-2.759369,-1.192632,0.990676,-0.133692,-0.022472,-0.013525
569,0.218359,-3.185275,11.779041,-15.465596,1.459883,-0.993807,-15.825376,-2.665144,-1.247716,0.990118,-0.137869,-0.021534,-0.013983
570,-0.118568,-3.577734,13.015861,-18.628839,0.936490,-0.536030,-16.376677,-2.521576,-1.284879,0.989468,-0.142628,-0.020181,-0.014229
571,-0.401419,-4.311615,14.091660,-19.222424,0.162846,-0.066045,-17.010948,-2.340927,-1.301195,0.988697,-0.148093,-0.018522,-0.014249
572,-0.466679,-4.218222,14.077967,-7.993141,-1.445479,1.638414,-17.472687,-2.164919,-1.271269,0.988129,-0.152058,-0.016986,-0.013832
573,-0.080257,-4.230428,13.582030,-0.343678,-3.050753,2.740132,-17.603495,-2.062243,-1.180312,0.987983,-0.153166,-0.016207,-0.012930
574,0.376554,-3.989734,12.130232,10.453772,-4.198249,2.082458,-17.448992,-2.087760,-1.066881,0.988196,-0.151819,-0.016595,-0.011964
575,0.679181,-3.569124,10.192123,18.934864,-3.551256,0.916651,-17.018625,-2.222501,-0.978819,0.988745,-0.148101,-0.017916,-0.011316
576,0.997601,-2.823302,8.790863,16.562050,-2.390027,-1.834592,-16.487864,-2.446793,-0.963510,0.989380,-0.143528,-0.019924,-0.011381
577,0.999472,-2.335253,8.405718,5.589121,0.374949,-5.399154,-16.109930,-2.696922,-1.071461,0.989786,-0.140296,-0.021990,-0.012553
578,0.710092,-2.100503,8.229529,-8.199142,2.625690,-9.313153,-16.078514,-2.858385,-1.324614,0.989758,-0.140084,-0.023079,-0.014930
579,0.773864,-2.623051,8.729700,-22.779358,5.088532,-10.329418,-16.551086,-2.920630,-1.676052,0.989106,-0.144241,-0.023112,-0.018136
580,0.763575,-3.088449,10.450891,-23.705593,5.000030,-10.810084,-17.318941,-2.933406,-2.060910,0.988048,-0.150943,-0.022593,-0.021626
581,0.320660,-2.819472,11.953809,16.140894,6.907436,-5.934753,-17.333931,-2.819177,-2.391281,0.987989,-0.151120,-0.021170,-0.024328
582,0.050435,-3.749790,12.371147,46.442715,7.520858,-3.572621,-16.177259,-2.541251,-2.616516,0.989479,-0.141135,-0.018737,-0.025718
583,0.777546,-3.349268,12.321467,72.627594,6.414562,-1.601126,-14.154223,-2.301274,-2.759943,0.991834,-0.123624,-0.016956,-0.026368
584,0.175037,-2.501365,12.075869,96.210777,5.917111,1.644518,-11.261504,-2.087659,-2.806846,0.994667,-0.098515,-0.015721,-0.026157
585,-0.051247,-0.959488,9.617510,102.410606,5.453229,5.529524,-7.773597,-1.791693,-2.723057,0.997271,-0.068129,-0.013984,-0.024763
586,0.374504,-0.320666,7.979490,63.949665,3.124668,2.918665,-4.755344,-1.599354,-2.603175,0.998771,-0.041788,-0.012999,-0.023272
587,0.293667,0.920639,7.203190,31.163628,1.748283,4.794027,-2.775794,-1.547609,-2.492515,0.999372,-0.024507,-0.012971,-0.022068
588,-0.380233,1.686783,6.267935,2.613566,0.857142,6.579360,-1.542629,-1.402955,-2.322706,0.999626,-0.013706,-0.011966,-0.020429
589,-0.211401,1.837848,6.086880,-29.990885,-1.508042,8.091552,-1.189814,-1.222725,-2.096793,0.999720,-0.010576,-0.010478,-0.018406
590,-0.082907,1.862489,7.061367,-52.322800,-2.208442,7.859612,-1.793049,-1.161243,-1.847643,0.999694,-0.015807,-0.009879,-0.016279
591,0.107313,1.652495,6.966858,-61.991058,-3.621449,9.957758,-3.000305,-1.197838,-1.562682,0.999506,-0.026318,-0.010091,-0.013905
592,0.635875,1.716833,6.916649,-64.872009,-3.947997,12.271063,-4.399008,-1.384606,-1.199085,0.999131,-0.038501,-0.011672,-0.010919
593,0.424981,0.709872,7.633365,-55.287678,-2.069583,13.917535,-5.810678,-1.578099,-0.765417,0.998593,-0.050772,-0.013415,-0.007368
594,0.773549,0.289242,6.070043,-26.916143,-1.625539,4.601761,-6.774940,-1.777485,-0.459487,0.998121,-0.059143,-0.015247,-0.004919
595,0.359831,-0.144851,4.819241,-4.945868,0.315439,-1.257792,-6.999290,-1.979988,-0.408656,0.997976,-0.061094,-0.017028,-0.004614
596,0.416537,-1.003422,3.728352,16.241606,1.290505,-4.373732,-6.875480,-2.118049,-0.502476,0.998016,-0.060034,-0.018186,-0.005485
597,0.056660,-1.722339,2.694529,33.911823,0.626728,-11.531847,-6.782750,-2.193501,-0.742566,0.998038,-0.059268,-0.018724,-0.007600
598,0.176486,-2.168236,1.798192,44.330837,0.629779,-13.750542,-6.936012,-2.248346,-1.108027,0.997919,-0.060666,-0.018998,-0.010836
599,0.239617,-2.015134,2.696844,38.381260,0.661824,-11.597464,-7.095982,-2.372907,-1.469891,0.997771,-0.062131,-0.019871,-0.014081
600,0.287307,-2.484631,4.151943,30.356415,1.984801,-8.125982,-7.117921,-2.446189,-1.754266,0.997707,-0.062380,-0.020352,-0.016600
601,0.026541,-1.911032,6.069573,19.517769,1.343913,-8.524250,-7.040527,-2.403821,-2.004700,0.997718,-0.061745,-0.019859,-0.018744
602,0.029787,-1.478936,8.288279,4.221892,1.321024,-7.236367,-6.940860,-2.291607,-2.257852,0.997749,-0.060903,-0.018764,-0.020872
603,-0.244970,-0.825148,10.549503,-9.598414,-0.761865,-4.799466,-7.036617,-2.173710,-2.457617,0.997681,-0.061748,-0.017612,-0.022565
604,-0.596928,-0.800043,12.265640,-17.943701,-3.741997,0.484814,-7.361125,-2.061213,-2.525473,0.997508,-0.064563,-0.016531,-0.023142
605,-0.075819,-0.744204,13.317793,-23.633875,-10.269905,5.144991,-7.887560,-2.112586,-2.409190,0.997215,-0.069137,-0.016941,-0.022237
606,0.345319,-0.873018,14.248179,-26.688780,-10.451490,4.560561,-8.538706,-2.360463,-2.207975,0.996799,-0.074811,-0.019102,-0.020743
607,0.028343,-1.088328,14.620344,-23.089121,-12.200201,9.409951,-9.182398,-2.629728,-1.927881,0.996357,-0.080398,-0.021524,-0.018601
608,1.053965,-1.601157,14.318648,-23.787992,-10.956572,7.578842,-9.817981,-2.948317,-1.592188,0.995875,-0.085893,-0.024441,-0.016040
609,1.074127,-2.134295,14.179149,-23.751371,-8.388439,8.617996,-10.535129,-3.284157,-1.272804,0.995277,-0.092080,-0.027514,-0.013686
610,1.140412,-2.569581,13.772502,-20.380602,-4.634664,6.078857,-11.259285,-3.512980,-0.991220,0.994646,-0.098312,-0.029655,-0.011611
611,1.072333,-2.717513,12.691791,-14.299789,-3.075168,8.518811,-11.873498,-3.649049,-0.724547,0.994092,-0.103576,-0.031014,-0.009579
612,1.570383,-3.209001,11.916659,-15.045967,0.233039,6.438975,-12.470703,-3.753297,-0.463631,0.993528,-0.108685,-0.032115,-0.007577
613,0.990702,-3.255310,11.329525,-11.946813,1.519394,6.171939,-13.088008,-3.784907,-0.253282,0.992932,-0.113976,-0.032557,-0.005958
614,1.098308,-3.252134,10.680637,-10.329332,3.760978,3.025480,-13.636983,-3.730202,-0.112299,0.992397,-0.118693,-0.032200,-0.004837
615,0.763475,-3.153377,10.233172,-8.884281,4.594134,3.954769,-14.130064,-3.617207,-0.020976,0.991912,-0.122940,-0.031299,-0.004063
616,0.361075,-3.252976,10.204052,-10.205731,4.279793,5.787405,-14.616929,-3.403235,0.110221,0.991441,-0.127127,-0.029576,-0.002824
617,0.183041,-3.110719,9.959967,-7.398030,2.857631,7.229405,-15.064536,-3.139326,0.297989,0.991005,-0.130964,-0.027497,-0.001014
618,0.071029,-2.988518,9.763762,-5.769867,1.519394,8.691240,-15.403841,-2.881685,0.540629,0.990670,-0.133858,-0.025550,0.001304
619,0.032418,-3.088771,9.694729,-3.868565,0.326120,9.876885,-15.675323,-2.644686,0.835320,0.990391,-0.136160,-0.023855,0.004073
620,0.119245,-2.886550,9.497125,-0.806033,-0.464309,8.897242,-15.931239,-2.320697,1.144302,0.990127,-0.138343,-0.021438,0.007081
621,0.154093,-2.900842,9.471400,-1.726165,-1.324931,7.536116,-16.196901,-1.963280,1.423786,0.989836,-0.140632,-0.018710,0.009886
622,0.393365,-2.856133,9.502991,-3.036935,-1.375287,5.460857,-16.432940,-1.842725,1.649280,0.989538,-0.142651,-0.017970,0.011945
623,0.370872,-2.810859,9.599481,-3.464194,-1.300516,3.377969,-16.584873,-1.897475,1.804646,0.989324,-0.143930,-0.018654,0.013193
625,0.442043,-2.693327,9.569047,-5.577601,-0.581806,0.762533,-16.708012,-1.948379,1.878900,0.989154,-0.144973,-0.019201,0.013750
626,0.479884,-2.681839,9.594409,-8.426503,0.124698,-2.055852,-16.895987,-1.995301,1.859048,0.988911,-0.146591,-0.019603,0.013486
627,0.470175,-2.666131,9.587087,-8.559258,1.214209,-3.709955,-17.119604,-2.036878,1.758769,0.988629,-0.148531,-0.019858,0.012529
628,0.458087,-2.641751,9.561144,-8.730163,2.007690,-5.397628,-17.332644,-2.060732,1.595467,0.988365,-0.150393,-0.019873,0.011052
629,0.513833,-2.587411,9.523227,-9.036874,2.850001,-6.700768,-17.533775,-2.078923,1.375695,0.988116,-0.152163,-0.019757,0.009098
630,0.483538,-2.592740,9.543296,-8.057229,3.316934,-6.618368,-17.707577,-2.085804,1.129288,0.987900,-0.153703,-0.019500,0.006934
631,0.485051,-2.549569,9.622634,-8.647763,3.527512,-6.584797,-17.858015,-2.077109,0.880524,0.987712,-0.155043,-0.019097,0.004776
632,0.487008,-2.655599,9.700882,-8.057231,3.684681,-7.211954,-18.003181,-2.065707,0.620157,0.987524,-0.156338,-0.018650,0.002524
633,0.436505,-2.600078,9.656094,-6.604549,4.046327,-7.144811,-18.112438,-2.043349,0.348082,0.987381,-0.157324,-0.018086,0.000193
634,0.445483,-2.661504,9.752923,-6.464163,4.023438,-6.838101,-18.188566,-2.009165,0.079865,0.987280,-0.158023,-0.017422,-0.002083
635,0.482531,-2.732411,9.747012,-4.498772,3.838800,-5.940857,-18.239685,-1.978867,-0.167878,0.987207,-0.158501,-0.016818,-0.004183
636,0.443294,-2.843818,9.682572,-1.866550,3.815912,-4.547688,-18.237955,-1.941247,-0.377448,0.987206,-0.158517,-0.016204,-0.005936
637,0.358095,-2.810315,9.629494,-1.639187,3.493941,-3.262858,-18.203033,-1.880908,-0.542287,0.987253,-0.158238,-0.015458,-0.007268
638,0.334922,-2.806925,9.594603,-2.408253,2.790490,-2.458695,-18.177990,-1.814448,-0.668598,0.987289,-0.158037,-0.014713,-0.008262
639,0.215451,-2.714321,9.498347,-3.130016,2.062623,-1.744563,-18.172909,-1.747433,-0.763479,0.987298,-0.158003,-0.014005,-0.008986
640,0.169324,-2.582344,9.423575,-5.176282,1.408001,-1.936829,-18.192703,-1.681465,-0.843469,0.987274,-0.158181,-0.013325,-0.009587
641,0.112388,-2.538864,9.473413,-7.269852,0.689290,-2.072637,-18.259626,-1.628504,-0.922076,0.987182,-0.158764,-0.012754,-0.010199
642,0.149183,-2.424949,9.384885,-7.356831,-0.149969,-1.605704,-18.342194,-1.598777,-0.987792,0.987065,-0.159480,-0.012399,-0.010733
643,0.184126,-2.410613,9.460076,-7.634548,-0.439895,-0.838163,-18.411978,-1.592138,-1.028448,0.986965,-0.160086,-0.012278,-0.011081
644,0.270530,-2.384335,9.537861,-7.617763,-0.822902,-0.005008,-18.473129,-1.604515,-1.040516,0.986876,-0.160614,-0.012362,-0.011209
645,0.305004,-2.471322,9.671603,-7.248490,-1.433272,1.485822,-18.526928,-1.635527,-1.010606,0.986799,-0.161076,-0.012666,-0.011001
646,0.333892,-2.482161,9.622867,-6.154401,-2.034487,3.092621,-18.565134,-1.676205,-0.925143,0.986748,-0.161398,-0.013133,-0.010326
647,0.308162,-2.551614,9.698237,-6.690000,-2.676902,4.531569,-18.602915,-1.718871,-0.784824,0.986701,-0.161708,-0.013695,-0.009182
648,0.235304,-2.685247,9.626010,-6.311571,-3.638234,6.554946,-18.669243,-1.753140,-0.580641,0.986617,-0.162256,-0.014274,-0.007481
649,0.211118,-2.835528,9.553259,-5.507409,-4.474441,8.520338,-18.756804,-1.779838,-0.302750,0.986505,-0.162974,-0.014893,-0.005137
650,0.276944,-2.888558,9.511678,-5.537927,-5.185523,9.019314,-18.859514,-1.821473,0.023176,0.986363,-0.163814,-0.015713,-0.002405
651,0.376409,-3.044491,9.525656,-5.058786,-5.695182,9.234470,-18.978674,-1.897848,0.367785,0.986185,-0.164788,-0.016863,0.000435
652,0.484825,-3.141058,9.465669,-3.226150,-5.754693,9.028471,-19.088488,-2.006927,0.716699,0.986006,-0.165672,-0.018307,0.003263
653,0.632763,-3.147618,9.488372,-2.162581,-5.383893,7.374367,-19.158838,-2.150086,1.035015,0.985870,-0.166211,-0.020002,0.005782
654,0.679290,-3.256784,9.460549,-0.241439,-4.324901,5.622605,-19.177502,-2.427746,1.291865,0.985785,-0.166292,-0.022765,0.007585
655,0.668368,-3.348361,9.408507,1.826189,-2.858486,4.237065,-19.182949,-2.774212,1.487667,0.985701,-0.166249,-0.026029,0.008764
656,0.640090,-3.297873,9.382451,3.065240,-1.431746,2.396799,-19.162462,-3.017120,1.618158,0.985672,-0.166005,-0.028306,0.009537
657,0.642263,-3.286511,9.387043,4.325654,-0.073672,0.883081,-19.062334,-3.121753,1.678916,0.985790,-0.165111,-0.029285,0.009933
658,0.593181,-3.383533,9.326248,6.962454,0.928861,-0.424637,-18.957859,-3.148871,1.685926,0.985934,-0.164206,-0.029519,0.009981
659,0.577556,-3.260535,9.316400,7.298157,1.461409,-2.583822,-18.827675,-3.173290,1.631447,0.986119,-0.163096,-0.029641,0.009511
660,0.542034,-3.214956,9.290463,7.469061,1.932920,-3.932740,-18.629066,-3.171333,1.513148,0.986410,-0.161417,-0.029441,0.008547
661,0.467066,-3.200003,9.270150,8.537209,2.232001,-4.546162,-18.415710,-3.108085,1.360363,0.986733,-0.159629,-0.028667,0.007375
662,0.374098,-3.134927,9.243487,8.566201,2.502090,-5.115333,-18.188589,-2.959317,1.186514,0.987090,-0.157735,-0.027132,0.006139
663,0.345701,-3.040107,9.317824,7.377505,2.579912,-4.834562,-17.932066,-2.760422,1.004065,0.987489,-0.155589,-0.025157,0.004899
664,0.324418,-3.062611,9.370752,7.807817,2.166386,-3.545155,-17.676121,-2.561436,0.847681,0.987878,-0.153436,-0.023221,0.003874
665,0.296882,-2.970274,9.386306,8.261017,1.415631,-2.347303,-17.408167,-2.377380,0.736920,0.988270,-0.151164,-0.021479,0.003216
666,0.362243,-2.912060,9.410975,7.475165,0.855616,-1.599600,-17.112619,-2.259359,0.662174,0.988678,-0.148637,-0.020355,0.002780
667,0.378845,-2.947889,9.519570,7.000602,0.168950,-0.851897,-16.858534,-2.222517,0.617870,0.989012,-0.146455,-0.019974,0.002490
668,0.437994,-2.881600,9.500485,6.953298,-0.400220,-0.493304,-16.635071,-2.252947,0.597900,0.989292,-0.144528,-0.020207,0.002318
669,0.454175,-2.818993,9.454721,5.909564,-0.687094,-0.056889,-16.418869,-2.335835,0.594009,0.989549,-0.142656,-0.020913,0.002219
670,0.461635,-2.765285,9.509681,4.607951,-0.902250,0.730488,-16.222517,-2.423700,0.611127,0.989776,-0.140951,-0.021690,0.002295
671,0.444976,-2.796354,9.455345,5.221373,-1.210487,1.607896,-16.047693,-2.480873,0.657713,0.989979,-0.139427,-0.022237,0.002660
672,0.488023,-2.700936,9.401196,4.397373,-1.105198,1.913081,-15.895664,-2.514091,0.724997,0.990155,-0.138098,-0.022601,0.003231
673,0.445898,-2.756850,9.358506,3.848040,-0.893094,2.102296,-15.772932,-2.538827,0.799010,0.990296,-0.137021,-0.022900,0.003865
674,0.467940,-2.836353,9.379818,3.901447,-0.464309,1.379007,-15.682503,-2.551708,0.862627,0.990399,-0.136225,-0.023084,0.004418
675,0.486641,-2.926162,9.316501,4.156277,0.126224,-0.078252,-15.734051,-2.583465,0.893276,0.990331,-0.136661,-0.023397,0.004634
676,0.446036,-2.927001,9.391803,2.308381,0.539750,-1.891052,-15.929915,-2.610655,0.872391,0.990091,-0.138356,-0.023615,0.004381
677,0.293019,-2.965358,9.468648,2.554055,0.542802,-2.235911,-16.123960,-2.529311,0.813722,0.989873,-0.140051,-0.022848,0.003934
678,0.187665,-2.791488,9.625394,2.670026,0.371898,-1.613333,-16.172422,-2.314807,0.753793,0.989853,-0.140500,-0.020923,0.003670
679,0.165816,-2.586483,9.660430,2.999626,0.115543,0.159792,-15.972919,-2.055107,0.724532,0.990138,-0.138802,-0.018637,0.003769
680,0.160607,-2.455128,9.719918,3.783951,-0.494828,2.894250,-15.711934,-1.896134,0.770312,0.990472,-0.136551,-0.017309,0.004397
681,0.314912,-2.357895,9.671398,4.479773,-1.437850,6.010190,-15.353776,-1.853682,0.914728,0.990893,-0.133437,-0.017096,0.005749
682,0.621865,-2.341430,9.402063,3.333803,-1.373761,7.122590,-14.921460,-2.000809,1.127727,0.991357,-0.129650,-0.018588,0.007489
683,0.879182,-2.563374,9.245053,-0.664121,-0.154546,5.360146,-14.812313,-2.435028,1.331948,0.991398,-0.128619,-0.022567,0.008785
684,0.952672,-2.810851,9.135138,-2.417409,2.392223,0.892236,-15.129909,-2.966828,1.435411,0.990929,-0.131274,-0.027309,0.009005
685,0.968626,-2.876094,9.114612,-4.607112,6.455762,-5.414413,-15.504865,-3.207457,1.338609,0.990449,-0.134507,-0.029304,0.007795
686,0.893409,-3.077460,9.167581,-6.552667,11.466904,-14.121343,-15.793492,-3.119557,0.951658,0.990147,-0.137109,-0.028101,0.004483
687,0.450420,-3.261988,9.339884,-6.569453,15.409893,-21.557175,-16.124708,-2.888125,0.264454,0.989807,-0.140148,-0.025275,-0.001250
688,0.074400,-3.367392,9.273417,-4.553704,17.089935,-25.248390,-16.434736,-2.518899,-0.628526,0.989462,-0.143012,-0.020970,-0.008569
689,-0.109095,-3.426778,9.271070,-5.771393,16.351389,-24.804346,-16.744335,-2.094538,-1.580056,0.989047,-0.145814,-0.016074,-0.016300
690,-0.253295,-3.580891,9.143851,-6.931097,14.215093,-22.242319,-17.120905,-1.681943,-2.472106,0.988476,-0.149115,-0.011300,-0.023513
691,-0.459304,-3.602342,9.084733,-8.484488,10.732931,-16.016544,-17.568180,-1.293720,-3.199317,0.987775,-0.152954,-0.006890,-0.029310
692,-0.299583,-3.575349,9.096847,-9.421407,6.687703,-8.801967,-18.049313,-0.974318,-3.678503,0.987034,-0.157043,-0.003359,-0.033030
693,-0.115043,-3.447496,9.135083,-9.029245,3.646534,-2.974459,-18.502392,-0.765049,-3.917007,0.986358,-0.160891,-0.001092,-0.034803
694,0.005352,-3.390152,9.151233,-10.175214,0.866298,0.939540,-18.923796,-0.650290,-3.972244,0.985754,-0.164484,0.000103,-0.035118
695,0.206499,-3.265309,9.196527,-12.572443,-1.526353,4.111939,-19.359995,-0.629287,-3.888596,0.985149,-0.168230,0.000294,-0.034367
696,0.414516,-3.447292,9.351473,-15.903536,-2.594501,6.049864,-19.871065,-0.690266,-3.705374,0.984436,-0.172638,-0.000352,-0.032883
697,0.494208,-3.476845,9.604838,-21.491478,-2.153509,4.874902,-20.517591,-0.789501,-3.506135,0.983492,-0.178214,-0.001328,-0.031329
698,0.257944,-3.571707,9.870337,-28.524467,-1.494309,4.098206,-21.339853,-0.854547,-3.343925,0.982224,-0.185281,-0.001923,-0.030052
699,0.243834,-3.770684,9.948509,-33.108345,-1.016695,3.457317,-22.341335,-0.871083,-3.211274,0.980600,-0.193859,-0.002026,-0.028960
700,0.246566,-4.232985,9.783826,-36.410454,-0.618428,1.379006,-23.511997,-0.885585,-3.125821,0.978588,-0.203869,-0.002006,-0.028276
701,0.200276,-4.346755,9.361976,-37.991306,-0.111821,-3.624503,-24.807501,-0.927361,-3.153775,0.976209,-0.214928,-0.001990,-0.028613
702,0.117868,-4.536630,8.686350,-37.936375,-0.537554,-8.884367,-26.165022,-1.026098,-3.335801,0.973534,-0.226503,-0.002130,-0.030376
703,0.342667,-4.759542,8.225449,-37.895180,-1.657583,-14.885833,-27.574436,-1.255700,-3.670150,0.970548,-0.238521,-0.003006,-0.033708
704,0.434199,-4.945577,7.861577,-37.332108,-2.330516,-20.937651,-29.009624,-1.653098,-4.159796,0.967257,-0.250777,-0.004867,-0.038743
705,0.359791,-4.961053,7.797964,-36.152573,-2.177923,-24.331312,-30.397995,-2.137405,-4.772562,0.963813,-0.262649,-0.007069,-0.045059
706,0.306468,-5.089564,7.874538,-35.352982,-2.309153,-24.680748,-31.697992,-2.629364,-5.429596,0.960355,-0.273770,-0.009115,-0.051811
707,0.410924,-5.278489,8.035696,-33.415058,-2.643331,-21.096350,-32.907425,-3.096358,-6.027423,0.956971,-0.284108,-0.010989,-0.058045
708,0.469645,-5.517790,8.038765,-30.663815,-2.544145,-15.677787,-34.020950,-3.494578,-6.488291,0.953770,-0.293592,-0.012563,-0.062996
709,0.330551,-5.646286,8.051363,-27.456320,-2.583820,-10.228707,-35.029114,-3.766196,-6.793138,0.950865,-0.302114,-0.013461,-0.066341
710,0.280326,-5.790977,8.017530,-24.595207,-4.302012,-4.581258,-35.929520,-3.918078,-6.926189,0.948317,-0.309653,-0.013839,-0.067952
711,0.330241,-5.758092,8.023783,-21.717312,-6.198737,2.132814,-36.718655,-3.988604,-6.855706,0.946173,-0.316196,-0.014148,-0.067655
712,0.341123,-5.872252,7.978335,-17.887239,-7.472884,7.609360,-37.382710,-3.980952,-6.590247,0.944482,-0.321638,-0.014438,-0.065527
713,0.370890,-5.881584,8.027699,-14.003760,-8.524246,11.526411,-37.907894,-3.909123,-6.177153,0.943260,-0.325886,-0.014720,-0.061991
714,0.597598,-5.949115,8.290087,-11.673674,-8.327402,13.934319,-38.292103,-3.813633,-5.674625,0.942465,-0.328950,-0.015169,-0.057636
715,0.702338,-5.868731,8.501473,-8.202192,-6.670248,14.918543,-38.522751,-3.700197,-5.150566,0.942100,-0.330743,-0.015632,-0.053034
716,0.811016,-5.768737,8.557920,-4.246995,-4.887967,13.491801,-38.573448,-3.576364,-4.671437,0.942214,-0.331061,-0.015974,-0.048747
717,0.860468,-5.450013,8.633869,-2.774477,-3.178931,11.064055,-38.467449,-3.474202,-4.282413,0.942717,-0.330110,-0.016299,-0.045240
718,0.882150,-5.228879,8.608803,-1.947424,-1.707939,9.275670,-38.256927,-3.392399,-3.984560,0.943464,-0.328318,-0.016562,-0.042525
719,0.791241,-4.985087,8.383777,0.738204,-0.757287,8.663774,-37.442062,-3.393583,-3.774566,0.945851,-0.321569,-0.017463,-0.040676
720,0.730121,-4.937371,8.215178,2.567789,-0.447524,7.977107,-36.126480,-3.449785,-3.619219,0.949516,-0.310675,-0.018816,-0.039337
721,0.554332,-4.977386,8.131226,3.936544,-0.478043,8.979642,-35.337608,-3.383770,-3.424402,0.951719,-0.304087,-0.019055,-0.037414
722,0.568768,-5.343327,8.068957,5.315981,-0.874783,10.371285,-34.925491,-3.211681,-3.163923,0.952942,-0.300591,-0.018441,-0.034730
723,0.588993,-5.485217,8.060497,6.263580,-1.027376,9.910456,-34.518314,-3.065951,-2.881015,0.954130,-0.297137,-0.018084,-0.031933
724,0.573904,-5.515491,8.286116,5.750869,-0.711509,9.115449,-34.189850,-2.954763,-2.610584,0.955081,-0.294343,-0.017943,-0.029343
725,0.508243,-5.515014,8.351802,7.528572,-0.055361,8.312811,-33.832474,-2.819986,-2.370326,0.956089,-0.291310,-0.017520,-0.026941
726,0.524002,-5.529251,8.302473,9.916645,0.799157,6.954738,-33.467087,-2.681477,-2.169503,0.957093,-0.288215,-0.016954,-0.024860
728,0.464820,-5.355798,8.253397,14.303680,0.316965,5.390665,-33.044128,-2.570793,-2.008910,0.958210,-0.284646,-0.016519,-0.023181
729,0.427881,-5.182707,8.191469,19.655104,-0.084354,4.493421,-32.456463,-2.478037,-1.873556,0.959705,-0.279701,-0.016191,-0.021736
730,0.407761,-5.129016,7.982510,26.434788,-0.586384,3.800650,-31.683115,-2.412805,-1.750766,0.961607,-0.273195,-0.016083,-0.020441
731,0.488081,-5.000873,7.878952,31.784683,-1.138768,2.289984,-30.739719,-2.397798,-1.648038,0.963844,-0.265254,-0.016362,-0.019409
732,0.528776,-4.925397,7.926872,36.898056,-1.866635,0.667925,-29.640013,-2.449126,-1.578808,0.966346,-0.255985,-0.017135,-0.018782
733,0.550301,-4.873001,8.005949,40.015522,-1.050265,-1.544667,-28.422890,-2.539140,-1.565940,0.968994,-0.245711,-0.018122,-0.018682
734,0.574869,-4.808264,8.009497,43.322201,0.306283,-5.811154,-27.126524,-2.650968,-1.665403,0.971670,-0.234758,-0.019077,-0.019548
735,0.549081,-4.728697,8.075602,46.165001,1.614001,-10.309581,-25.755455,-2.781296,-1.915391,0.974334,-0.223170,-0.019931,-0.021697
736,0.389635,-4.497459,8.330406,48.044941,2.346445,-13.088292,-24.300253,-2.893643,-2.291209,0.976986,-0.210858,-0.020472,-0.024852
737,0.333506,-3.791326,8.543681,50.190392,2.923245,-16.060793,-22.690022,-2.977949,-2.769302,0.979720,-0.197208,-0.020717,-0.028794
738,0.198636,-3.151878,8.874137,49.123768,3.031586,-16.610128,-20.926428,-3.028244,-3.315039,0.982478,-0.182216,-0.020722,-0.033231
739,-0.002544,-2.779403,9.457429,46.213829,2.138919,-14.214424,-19.134922,-3.013100,-3.834198,0.985052,-0.166926,-0.020353,-0.037344
740,-0.050266,-2.178237,9.800762,44.085163,0.127750,-10.648337,-17.354042,-2.961784,-4.249230,0.987400,-0.151657,-0.019939,-0.040533
741,0.155989,-1.827871,9.929733,39.887348,-2.060428,-7.529346,-15.630942,-2.955571,-4.542739,0.989465,-0.136844,-0.020142,-0.042755
742,0.253714,-1.854516,10.031344,33.843155,-4.237923,-5.765376,-14.116122,-3.031273,-4.741549,0.991091,-0.123813,-0.021146,-0.044285
743,0.317847,-1.709056,9.833821,32.036461,-5.919493,-4.269969,-12.796021,-3.172151,-4.874266,0.992361,-0.112461,-0.022745,-0.045324
744,0.310687,-1.633116,9.456463,28.883896,-7.387432,-1.378341,-11.612000,-3.350887,-4.926988,0.993399,-0.102274,-0.024715,-0.045699
745,0.519987,-1.859862,9.411503,21.255796,-8.693624,0.266607,-10.699798,-3.581260,-4.896600,0.994125,-0.094436,-0.027102,-0.045422
746,0.484510,-1.981437,9.516341,16.053917,-8.803491,1.330177,-10.097541,-3.840761,-4.816126,0.994558,-0.089279,-0.029656,-0.044776
747,0.594199,-2.147311,9.478109,12.806747,-8.364025,4.702472,-9.712310,-4.080859,-4.661531,0.994832,-0.085974,-0.032007,-0.043508
748,0.730542,-2.514275,9.587962,6.574869,-7.790277,6.435923,-9.581142,-4.310752,-4.420441,0.994940,-0.084838,-0.034232,-0.041543
749,0.995408,-2.389127,9.551385,2.938588,-6.467299,5.375405,-9.962820,-4.649870,-4.146016,0.994624,-0.088166,-0.037249,-0.039527
750,0.983031,-2.088258,9.250890,0.220915,-4.225715,4.105835,-10.397198,-4.960974,-3.920685,0.994237,-0.091945,-0.039979,-0.037954
751,0.834254,-1.887292,9.254470,-6.249009,-2.794398,2.877466,-10.598500,-5.086139,-3.776930,0.994070,-0.093672,-0.041116,-0.036877
752,0.758863,-1.885996,9.499887,-10.175214,-1.236428,0.849511,-10.919138,-5.128586,-3.699502,0.993811,-0.096436,-0.041446,-0.036355
753,0.781904,-1.725701,9.661164,-7.962622,-0.369702,-1.709466,-11.216920,-5.130521,-3.708896,0.993553,-0.099022,-0.041360,-0.036545
754,0.782510,-1.887203,10.053546,-4.402638,0.162846,-5.241984,-11.381276,-5.126102,-3.825215,0.993374,-0.100488,-0.041168,-0.037609
755,0.755465,-2.104560,10.405429,4.202054,0.762535,-9.891479,-11.349961,-5.119109,-4.077665,0.993320,-0.100305,-0.040896,-0.039780
756,0.817490,-2.063023,10.180878,19.000479,1.327127,-14.432632,-10.930638,-5.124744,-4.483291,0.993531,-0.096816,-0.040748,-0.043152
757,0.692634,-1.745143,9.857334,30.501379,1.581957,-17.727106,-10.039520,-5.133379,-5.022449,0.994038,-0.089282,-0.040738,-0.047518
758,0.586131,-1.493835,9.702260,36.875168,1.813897,-19.004307,-8.811849,-5.111426,-5.641392,0.994678,-0.078841,-0.040628,-0.052438
759,0.577310,-1.250257,9.590308,42.043476,1.519394,-18.006351,-7.380539,-5.064903,-6.265941,0.995307,-0.066614,-0.040513,-0.057326
760,0.480731,-0.978741,9.604432,46.668556,1.272194,-14.624899,-5.786837,-4.991099,-6.817247,0.995882,-0.052927,-0.040411,-0.061519
761,0.746311,-0.906974,9.639088,47.664986,1.673512,-11.547108,-4.131886,-4.915203,-7.259279,0.996330,-0.038657,-0.040486,-0.064750
762,1.052835,-1.020081,9.923153,43.342037,1.710134,-10.561359,-2.613892,-4.892395,-7.628698,0.996552,-0.025576,-0.041060,-0.067417
763,1.341790,-1.105637,10.150200,39.482971,1.874934,-13.976380,-1.320053,-4.932099,-8.031918,0.996520,-0.014494,-0.042113,-0.070459
764,1.544525,-0.929917,10.227456,36.293789,2.509719,-21.444260,-0.175748,-5.010305,-8.613335,0.996217,-0.004810,-0.043471,-0.075090
765,1.653786,-0.741086,10.101869,28.345245,2.842371,-30.581501,0.799080,-5.098416,-9.470808,0.995602,0.003271,-0.044900,-0.082162
766,1.720619,-0.657252,10.226401,18.144434,1.099764,-43.602222,1.492740,-5.209009,-10.696325,0.994589,0.008721,-0.046453,-0.092514
767,1.752727,-0.442003,9.959930,13.772659,-0.746606,-58.812653,1.989859,-5.364051,-12.393953,0.993006,0.012193,-0.048385,-0.107005
768,1.557777,0.004633,9.734952,9.216246,-1.979553,-72.123299,2.445060,-5.520661,-14.574749,0.990676,0.015031,-0.050462,-0.125651
769,1.249686,0.083926,9.767136,0.689374,-4.236397,-82.023499,2.771742,-5.633840,-17.149555,0.987516,0.016561,-0.052183,-0.147701
770,1.150704,0.146710,9.880755,-1.573573,-6.471878,-91.078339,2.955829,-5.733397,-20.044125,0.983406,0.016666,-0.053716,-0.172482
771,0.995409,0.467955,9.809225,1.684277,-6.845729,-97.162201,3.226428,-5.810657,-23.197876,0.978219,0.017355,-0.055284,-0.199324
772,0.855517,0.592967,9.811337,4.273773,-6.203314,-101.453102,3.662891,-5.809645,-26.529497,0.971945,0.019445,-0.056623,-0.227463
773,0.864436,0.655708,9.872808,7.322572,-5.783685,-105.859978,4.213552,-5.733063,-30.005188,0.964529,0.022528,-0.057777,-0.256588
774,0.841543,0.939612,9.740624,13.421697,-4.804041,-109.896049,4.948048,-5.583747,-33.620495,0.955848,0.027199,-0.059052,-0.286578
775,0.688202,1.112807,9.661762,13.650585,-4.242501,-110.935204,5.816706,-5.332965,-37.317436,0.945951,0.033155,-0.060235,-0.316936
776,0.539131,1.082970,9.781919,8.317476,-4.704856,-107.369118,6.559089,-5.003590,-40.965008,0.935227,0.038291,-0.060823,-0.346676
777,0.257348,1.192866,10.129260,3.024041,-6.023256,-99.730339,7.053609,-4.642193,-44.422409,0.924227,0.041623,-0.060659,-0.374690
778,0.012254,1.128953,10.147376,0.458961,-6.821315,-89.619553,7.344851,-4.274500,-47.584778,0.913463,0.043554,-0.059876,-0.400130
779,0.158004,1.153330,9.953424,-2.684446,-7.846736,-81.243759,7.480163,-3.968663,-50.442211,0.903165,0.044253,-0.059037,-0.422907
780,0.474747,1.171402,9.924184,-6.393970,-8.414380,-78.016426,7.476151,-3.786906,-53.111118,0.893074,0.043546,-0.058623,-0.443944
781,0.452038,1.124641,9.855556,-7.985512,-7.767388,-78.901451,7.368995,-3.661717,-55.740875,0.882689,0.041875,-0.058210,-0.464454
782,0.390903,1.138961,9.721620,-11.214369,-7.742973,-82.556046,7.180581,-3.519324,-58.444317,0.871548,0.039664,-0.057304,-0.485331
783,0.372828,1.148557,9.897806,-16.292646,-9.560351,-86.338821,6.864528,-3.398875,-61.275223,0.859391,0.036403,-0.055967,-0.506941
784,0.053432,0.949144,9.965500,-24.888186,-10.549150,-89.515785,6.305717,-3.294244,-64.226189,0.846209,0.031309,-0.053535,-0.529229
785,-0.232288,0.839434,10.020341,-27.270159,-10.741416,-87.425278,5.536760,-3.168428,-67.196327,0.832388,0.024934,-0.049717,-0.551396
786,-0.242577,0.843847,9.929165,-24.000097,-12.983002,-81.565727,4.787583,-3.099390,-70.038834,0.818592,0.018687,-0.046088,-0.572218
787,-0.033674,0.924745,9.790693,-19.423847,-14.008423,-73.743835,4.206347,-3.164418,-72.659073,0.805374,0.013208,-0.043963,-0.590987
788,0.249707,1.057084,9.546809,-17.554588,-13.076083,-65.897514,3.787062,-3.337867,-75.019493,0.793066,0.008476,-0.043201,-0.607542
789,0.526901,1.021706,9.741351,-13.573450,-11.377728,-55.129059,3.490809,-3.571988,-77.067337,0.782091,0.004407,-0.043334,-0.621640
790,0.630642,0.977535,9.799370,-9.566369,-10.718528,-44.526928,3.315279,-3.837004,-78.756401,0.772833,0.001117,-0.044209,-0.633067
791,0.824729,1.119173,9.869440,-6.075053,-8.504410,-35.350018,3.271116,-4.103226,-80.114883,0.765255,-0.001198,-0.045747,-0.642099
792,1.111174,1.113597,9.870433,1.951315,-5.638723,-25.451340,3.422770,-4.352314,-81.153091,0.759389,-0.002021,-0.048240,-0.648843
793,0.884175,0.739686,10.064328,14.328095,-2.895108,-14.919403,3.837205,-4.518340,-81.842651,0.755464,-0.000528,-0.051682,-0.653149
794,0.665110,0.768362,9.766260,23.547737,-0.812220,-7.184487,4.530932,-4.552801,-82.218605,0.753306,0.003665,-0.055874,-0.655282
795,0.842238,0.697031,9.969314,23.218138,1.723868,-2.498370,5.325887,-4.514693,-82.378731,0.752346,0.009025,-0.060182,-0.655951
796,0.711893,0.566105,10.044254,24.397676,4.089053,0.739644,6.060646,-4.410600,-82.393707,0.752182,0.014439,-0.063707,-0.655709
797,0.471373,0.460019,10.026642,19.412479,3.902890,1.113495,6.660394,-4.231653,-82.338043,0.752399,0.019436,-0.065959,-0.655108
798,0.661139,0.739054,9.830966,10.218779,3.625170,-1.685052,6.858610,-4.030838,-82.310318,0.752502,0.021907,-0.065773,-0.654932
799,0.846261,0.876187,10.082963,5.257995,3.214697,-4.259288,6.862743,-3.887201,-82.376366,0.752106,0.022722,-0.064870,-0.655448
800,0.682304,1.091275,9.813177,6.548928,2.375438,-6.044620,6.979562,-3.797258,-82.529694,0.751193,0.023918,-0.064982,-0.656440
801,0.715388,1.170845,9.733217,1.971152,1.258460,-7.335554,7.085482,-3.724535,-82.740685,0.749951,0.024911,-0.065160,-0.657805
802,0.718053,1.247756,9.841659,-0.717528,1.617053,-7.234842,7.122036,-3.665133,-82.976273,0.748580,0.025360,-0.065035,-0.659360
803,0.688351,1.281859,9.890808,-0.918951,1.778801,-4.695702,7.116060,-3.600376,-83.167564,0.747470,0.025587,-0.064621,-0.660650
804,0.755652,1.253979,9.829794,-0.186506,1.705557,-1.291363,7.123506,-3.606569,-83.260826,0.746931,0.025547,-0.064725,-0.661250
805,0.807345,1.248589,9.816284,-0.047648,1.522446,1.800162,7.144238,-3.720881,-83.247353,0.747022,0.025027,-0.065585,-0.661083
806,0.867324,1.255776,9.814584,-0.036965,1.476668,4.040221,7.160951,-3.898473,-83.145973,0.747628,0.024166,-0.066813,-0.660306
807,0.931453,1.289935,9.780481,0.280426,1.209631,5.094635,7.199748,-4.128256,-82.992126,0.748537,0.023181,-0.068499,-0.659138
808,1.012207,1.291200,9.807731,0.494057,0.497024,5.314368,7.259243,-4.416039,-82.820381,0.749547,0.022011,-0.070680,-0.657799
809,1.064229,1.332760,9.783273,0.886219,-0.294932,4.890161,7.341721,-4.750509,-82.656578,0.750506,0.020725,-0.073302,-0.656459
810,1.092838,1.318933,9.808647,1.139523,-0.934295,4.186708,7.437355,-5.091533,-82.515068,0.751330,0.019480,-0.076048,-0.655241
811,1.129676,1.281646,9.852060,2.160366,-1.471420,3.553450,7.507741,-5.418094,-82.394447,0.752032,0.018144,-0.078562,-0.654177
812,1.159103,1.359964,9.786257,3.858722,-1.730828,3.077362,7.632694,-5.730143,-82.295113,0.752598,0.017240,-0.081296,-0.653216
813,1.110991,1.417154,9.774405,3.623729,-1.640798,2.845421,7.841647,-5.978901,-82.214211,0.753040,0.017243,-0.084099,-0.652350
814,1.057595,1.420502,9.800301,3.161374,-1.538561,2.924769,8.039161,-6.118474,-82.135727,0.753463,0.017799,-0.086122,-0.651582
815,1.041418,1.434641,9.802745,3.004203,-1.395124,3.223851,8.195266,-6.181278,-82.047386,0.753944,0.018533,-0.087406,-0.650834
816,1.001363,1.484052,9.771296,2.230559,-1.207435,3.599228,8.337738,-6.193467,-81.947533,0.754488,0.019477,-0.088277,-0.650058
817,0.961166,1.418522,9.797350,0.956411,-1.067050,4.081421,8.409065,-6.153936,-81.828957,0.755145,0.020265,-0.088403,-0.649253
818,0.984968,1.401603,9.792519,1.145626,-1.016695,4.111939,8.396838,-6.105947,-81.694557,0.755905,0.020562,-0.087995,-0.648415
819,0.974201,1.401562,9.799554,1.501167,-0.864102,3.915095,8.379516,-6.069095,-81.560974,0.756661,0.020760,-0.087632,-0.647575
820,0.969396,1.433839,9.784810,1.920796,-0.771020,3.585495,8.396322,-6.026662,-81.437691,0.757352,0.021207,-0.087426,-0.646781
821,0.978696,1.460972,9.778168,2.210722,-0.696250,3.135347,8.459264,-5.989930,-81.330368,0.757942,0.021914,-0.087519,-0.646052
822,0.998078,1.507191,9.811189,2.119167,-0.635213,2.364755,8.556720,-5.968482,-81.246033,0.758397,0.022745,-0.087911,-0.645436
823,0.953089,1.518722,9.802152,1.992515,-0.481095,1.823051,8.666462,-5.930592,-81.184357,0.758719,0.023735,-0.088267,-0.644974
824,0.953591,1.481734,9.820683,1.774307,-0.388013,1.473614,8.738903,-5.868324,-81.133408,0.758985,0.024607,-0.088254,-0.644630
825,0.954373,1.502406,9.778354,1.887226,-0.244576,1.272192,8.787169,-5.811980,-81.088623,0.759221,0.025281,-0.088145,-0.644341
826,0.953418,1.495336,9.785221,1.121211,-0.104191,1.052459,8.824103,-5.762374,-81.050034,0.759424,0.025837,-0.088018,-0.644096
827,0.936548,1.486042,9.783731,0.646648,-0.008058,0.812888,8.824262,-5.707901,-81.016792,0.759605,0.026172,-0.087653,-0.643919
828,0.957527,1.479678,9.798587,0.373508,-0.067569,0.469555,8.800261,-5.662482,-80.991890,0.759746,0.026290,-0.087213,-0.643808
829,0.938925,1.508578,9.771069,0.178189,-0.133183,0.150637,8.784614,-5.628289,-80.979759,0.759814,0.026389,-0.086897,-0.643766
831,0.938678,1.485000,9.829442,-0.387929,-0.175909,-0.073674,8.761172,-5.590345,-80.977356,0.759829,0.026450,-0.086515,-0.643798
832,0.984421,1.503692,9.814082,-0.072063,-0.351391,-0.241526,8.731802,-5.583375,-80.981743,0.759810,0.026292,-0.086305,-0.643855
833,1.020253,1.511020,9.764828,0.088160,-0.384961,-0.490252,8.734741,-5.628829,-80.995850,0.759735,0.026043,-0.086624,-0.643910
834,1.065339,1.526027,9.723193,-0.404714,-0.211006,-0.583333,8.754212,-5.714818,-81.017395,0.759619,0.025668,-0.087305,-0.643971
835,1.113992,1.543257,9.758138,-2.354846,-0.130132,-0.682519,8.748663,-5.833423,-81.043022,0.759488,0.024939,-0.088060,-0.644051
836,1.129873,1.478396,9.742551,-3.538965,-0.258309,-0.598593,8.671261,-5.918684,-81.066986,0.759377,0.023924,-0.088191,-0.644202
837,1.100768,1.400505,9.784983,-4.735290,-0.363598,-0.775600,8.521068,-5.951717,-81.089714,0.759283,0.022724,-0.087569,-0.644442
838,1.086439,1.380671,9.766813,-5.487571,-0.517717,-0.777126,8.330661,-5.980089,-81.115173,0.759178,0.021282,-0.086690,-0.644733
839,1.001293,1.243607,9.838975,-9.256606,-1.021272,-1.758296,8.052983,-6.002197,-81.157036,0.758993,0.019286,-0.085280,-0.645202
840,0.947138,1.049711,9.938100,-13.837435,-2.448012,-5.222147,7.608821,-6.025295,-81.273399,0.758407,0.016128,-0.082947,-0.646281
841,0.964007,1.090679,9.959037,-19.695463,-4.581256,-10.840604,7.002135,-6.081830,-81.547516,0.756932,0.011600,-0.079924,-0.648484
842,1.016998,1.049999,9.769096,-27.259474,-5.870663,-14.388380,6.215624,-6.190207,-81.982658,0.754519,0.005498,-0.076205,-0.651815
843,1.069972,0.900808,9.860179,-38.900761,-6.516130,-17.374615,5.130429,-6.338789,-82.528633,0.751405,-0.002837,-0.070990,-0.656005
844,1.269107,0.862159,9.931484,-41.514671,-7.262307,-18.006351,3.832013,-6.542259,-83.135002,0.747804,-0.012865,-0.064815,-0.660623
845,1.377717,0.939276,9.657325,-35.359089,-6.333019,-14.128974,2.650466,-6.794498,-83.689331,0.744362,-0.022323,-0.059535,-0.664742
846,1.451017,0.898965,9.565842,-27.979710,-3.529894,-6.998324,1.739660,-7.021995,-84.060699,0.741933,-0.029742,-0.055628,-0.667500
847,1.458961,0.803931,9.855413,-15.238234,-1.048739,1.139436,1.160536,-7.169134,-84.175468,0.741054,-0.034403,-0.053171,-0.668452
848,1.491239,0.767009,9.694010,9.336794,1.572801,11.285315,1.409695,-7.340015,-84.013130,0.742015,-0.033711,-0.055776,-0.667208
849,1.344339,0.700772,9.423140,24.654034,4.954252,19.922052,2.280922,-7.408469,-83.534332,0.745009,-0.028212,-0.061408,-0.663623
850,1.255742,0.546596,9.758094,27.493780,8.120547,24.377752,3.140632,-7.240408,-82.792595,0.749520,-0.021222,-0.065434,-0.658398
851,1.078877,0.484895,9.806724,33.769913,8.700398,25.662584,4.069740,-6.988503,-81.938026,0.754604,-0.013175,-0.069228,-0.652385
852,1.055234,0.625297,9.693056,30.777573,7.487287,22.606152,5.030455,-6.743337,-81.106277,0.759435,-0.004914,-0.073126,-0.646441
853,0.945793,0.718529,9.812320,19.574228,5.622607,16.217106,5.764035,-6.540058,-80.433167,0.763253,0.001547,-0.075914,-0.641622
854,0.954198,0.843298,9.993055,11.868303,3.344401,9.155122,6.197750,-6.381372,-79.989113,0.765733,0.005630,-0.077269,-0.638475
855,0.945051,1.013390,9.773299,10.115016,0.654194,4.186710,6.491774,-6.233114,-79.753632,0.767034,0.008587,-0.077904,-0.636801
856,1.005418,1.046350,9.829025,3.695447,-0.555865,0.922755,6.649195,-6.121042,-79.660858,0.767541,0.010331,-0.078024,-0.636150
857,0.966399,1.032576,9.813046,3.124752,-0.381909,-0.606222,6.665477,-6.049920,-79.646881,0.767619,0.010848,-0.077640,-0.636094
858,1.003971,1.032802,9.809149,2.506751,-0.261361,-1.128089,6.643517,-5.987144,-79.664398,0.767526,0.011040,-0.077101,-0.636269
859,1.016180,1.035122,9.791048,2.085596,-0.124028,-0.931244,6.607862,-5.959160,-79.687286,0.767403,0.010942,-0.076719,-0.636465
860,1.038995,1.043746,9.830846,1.727004,-0.012635,-0.757289,6.568385,-5.953291,-79.704643,0.767310,0.010699,-0.076462,-0.636612
861,1.059505,1.071581,9.810547,1.939107,0.146061,-0.284252,6.550400,-5.968819,-79.713333,0.767263,0.010486,-0.076466,-0.636671
862,1.077903,1.073924,9.795571,1.769729,0.252876,0.260503,6.554571,-6.003253,-79.706985,0.767297,0.010325,-0.076718,-0.636603
863,1.045818,1.084450,9.807618,1.199033,0.252876,0.524489,6.553211,-6.025755,-79.687805,0.767403,0.010203,-0.076859,-0.636460
864,1.021140,1.098655,9.826297,1.047966,0.167424,0.823570,6.549863,-6.013794,-79.660545,0.767555,0.010266,-0.076758,-0.636288
865,1.048383,1.137068,9.802481,1.427922,-0.030947,1.058562,6.578022,-6.007888,-79.627899,0.767734,0.010510,-0.076872,-0.636054
866,1.045668,1.149769,9.795292,0.980826,-0.194221,1.133333,6.631204,-6.024505,-79.593613,0.767919,0.010796,-0.077275,-0.635777
867,1.046381,1.177874,9.818617,0.735152,-0.334606,0.796103,6.686437,-6.042477,-79.565666,0.768068,0.011085,-0.077698,-0.635541
868,1.054226,1.183373,9.834893,0.960989,-0.404798,0.570266,6.747672,-6.061781,-79.548073,0.768159,0.011399,-0.078165,-0.635368
869,1.069193,1.205223,9.822702,1.217344,-0.386487,0.460399,6.821013,-6.089453,-79.536583,0.768215,0.011744,-0.078755,-0.635221
870,1.034722,1.203272,9.837988,0.977774,-0.238472,0.588577,6.892506,-6.099594,-79.524261,0.768275,0.012175,-0.079218,-0.635082
871,1.039246,1.206262,9.820107,1.273804,-0.078250,0.904444,6.951532,-6.086494,-79.502594,0.768389,0.012659,-0.079455,-0.634905
872,1.030824,1.194384,9.808656,1.218870,0.110965,1.458355,6.998209,-6.069275,-79.464188,0.768597,0.013095,-0.079594,-0.634628
873,1.037803,1.212303,9.788737,1.197508,0.260505,2.045836,7.037089,-6.052505,-79.405624,0.768917,0.013490,-0.079691,-0.634220
874,1.022960,1.212474,9.804132,0.639019,0.321542,2.393747,7.066635,-6.033309,-79.331306,0.769325,0.013847,-0.079717,-0.633714
875,1.022074,1.199187,9.803785,0.265168,0.309335,2.596695,7.065524,-6.008735,-79.246239,0.769795,0.014036,-0.079537,-0.633160
876,1.025668,1.202494,9.817700,-0.062906,0.191838,2.561599,7.043726,-5.991399,-79.157722,0.770287,0.014047,-0.079290,-0.632593
877,1.004003,1.191607,9.817816,-0.232285,0.060609,2.349495,7.011347,-5.971276,-79.073563,0.770755,0.014000,-0.078966,-0.632064
878,1.010167,1.151940,9.871161,0.007287,-0.101139,2.000059,6.956213,-5.947581,-78.996765,0.771186,0.013813,-0.078494,-0.631601
