seq,ax,ay,az,wroll,wpitch,wyaw,roll,pitch,yaw,q0,q1,q2,q3
60,0.280137,-3.003489,9.316925,-7.371702,-8.818624,45.312885,-17.867718,-1.639203,0.528341,0.987767,-0.155212,-0.014847,0.002333
61,-1.281408,-4.759032,9.139272,-8.124619,17.700653,20.817024,-18.150465,-1.157672,1.531003,0.987365,-0.157576,-0.012082,0.011599
62,-1.610258,-4.624605,8.818722,0.417891,15.840510,15.653452,-18.282112,-0.436062,1.933935,0.987163,-0.158778,-0.006437,0.016057
63,-1.427139,-4.666428,8.642472,2.261616,10.410708,11.923176,-18.238148,0.123205,2.233707,0.987170,-0.158477,-0.002028,0.019416
64,-1.705788,-4.617430,8.452452,1.594453,9.927881,7.654601,-18.172749,0.547099,2.437858,0.987201,-0.157986,0.001354,0.021759
65,-1.770035,-4.430014,8.417109,2.703930,9.343548,2.301942,-18.100286,0.903973,2.495566,0.987259,-0.157426,0.004363,0.022745
66,-1.590431,-4.364494,8.374545,0.551612,7.081087,-4.321122,-18.048008,1.153736,2.378667,0.987327,-0.157013,0.006686,0.022077
67,-1.258362,-4.460313,8.512382,-3.240805,3.000770,-12.408213,-18.099277,1.226933,2.061383,0.987306,-0.157446,0.007743,0.019447
68,-1.823850,-4.247872,8.668522,-1.170610,6.983975,-18.470951,-18.184198,1.224760,1.520342,0.987270,-0.158139,0.008456,0.014788
69,-1.511777,-4.178161,8.714993,0.489349,2.941921,-23.379974,-18.210516,1.164209,0.805926,0.987313,-0.158307,0.008918,0.008552
70,-1.390868,-4.194742,8.743374,-1.116536,-0.331102,-26.714630,-18.235552,0.944545,-0.000827,0.987331,-0.158459,0.008140,0.001299
71,-1.323422,-4.228811,8.746605,-3.918859,-3.051887,-28.640818,-18.330839,0.601500,-0.859154,0.987197,-0.159240,0.006376,-0.006566
72,-1.370369,-4.142342,8.690602,-6.489911,-3.864090,-28.209837,-18.510115,0.192590,-1.721598,0.986873,-0.160786,0.004075,-0.014557
73,-0.610715,-4.338242,8.707734,-12.847009,-11.044269,-26.742773,-18.831337,-0.336142,-2.509596,0.986276,-0.163619,0.000689,-0.022083
74,-0.296016,-4.451510,8.742870,-17.579241,-12.551218,-24.942471,-19.329975,-0.989791,-3.195014,0.985346,-0.168053,-0.003831,-0.028931
75,-0.194918,-4.380083,8.795872,-17.244396,-9.477301,-22.783749,-19.896015,-1.602892,-3.820958,0.984241,-0.173101,-0.008011,-0.035249
76,0.039557,-4.311070,8.888535,-14.819727,-7.032728,-21.011517,-20.411356,-2.112682,-4.411499,0.983156,-0.177719,-0.011312,-0.041137
77,0.208029,-4.211891,9.032829,-9.648787,-4.473394,-19.346762,-20.796459,-2.528791,-4.974028,0.982239,-0.181217,-0.013853,-0.046649
78,0.261767,-4.070798,8.956716,-4.544697,-1.617591,-17.084307,-21.008209,-2.840051,-5.505661,0.981589,-0.183210,-0.015585,-0.051721
79,0.349840,-4.045123,8.993079,-2.990919,0.295843,-15.612871,-21.108126,-3.056235,-6.007010,0.981127,-0.184220,-0.016587,-0.056370
80,0.579737,-4.012833,9.021878,-2.140785,-0.536545,-15.279051,-21.167366,-3.245589,-6.486502,0.980725,-0.184879,-0.017406,-0.060784
81,0.648297,-3.962752,8.989144,-1.218042,-0.268637,-13.612459,-21.197407,-3.432067,-6.931406,0.980369,-0.185290,-0.018268,-0.064891
82,0.642561,-4.007489,8.947571,-5.223655,-0.072281,-12.109543,-21.280371,-3.592636,-7.329679,0.979944,-0.186142,-0.018948,-0.068566
83,0.541446,-4.162699,9.082387,-9.007039,0.751435,-10.935136,-21.494432,-3.722283,-7.692115,0.979324,-0.188098,-0.019334,-0.071907
84,0.539913,-4.110560,8.951371,-6.511873,2.074366,-9.599139,-21.731037,-3.804666,-8.028300,0.978685,-0.190221,-0.019332,-0.074952
85,0.342436,-4.167054,8.951535,-4.898156,5.585226,-7.197284,-21.900845,-3.790136,-8.336290,0.978203,-0.191713,-0.018582,-0.077586
86,0.093898,-4.194117,8.972997,-3.855040,9.503104,-5.047707,-22.028446,-3.633229,-8.620152,0.977857,-0.192755,-0.016677,-0.079772
87,-0.115603,-4.232498,9.000255,-0.930837,13.487803,-2.365998,-22.092602,-3.324496,-8.879001,0.977686,-0.193151,-0.013560,-0.081482
88,-0.185335,-4.035904,8.825609,3.768690,16.272566,-0.533731,-22.032888,-2.882921,-9.110344,0.977781,-0.192388,-0.009443,-0.082723
89,-0.229290,-4.009184,8.906932,2.373715,16.968554,0.563985,-21.921110,-2.368902,-9.317278,0.977987,-0.191113,-0.004788,-0.083638
90,-0.075569,-4.046575,8.813526,-4.874729,17.876596,2.527134,-21.956665,-1.810988,-9.486638,0.977966,-0.191045,0.000285,-0.084168
91,0.090194,-4.025157,8.776598,-4.117293,10.160659,0.748045,-22.103159,-1.357450,-9.611649,0.977746,-0.191979,0.004474,-0.084482
92,0.054763,-4.071217,8.878972,-0.725297,6.703698,2.891858,-22.182775,-1.074252,-9.661468,0.977641,-0.192457,0.007033,-0.084433
93,-0.025076,-4.020708,8.998993,4.349597,4.583563,6.703408,-22.123720,-0.839724,-9.584224,0.977846,-0.191794,0.008862,-0.083387
94,0.050940,-3.687120,9.131665,14.046063,-2.206741,6.708386,-21.819828,-0.719365,-9.391647,0.978514,-0.189131,0.009351,-0.081569
95,-0.212021,-3.412378,9.569100,18.779409,-1.797076,12.081228,-21.276676,-0.666494,-9.075623,0.979630,-0.184479,0.008907,-0.078826
96,-0.218223,-3.273681,9.700373,18.669600,-2.404044,17.047890,-20.657627,-0.558074,-8.597298,0.980950,-0.179150,0.008661,-0.074610
97,0.123847,-3.138281,9.721447,14.436622,-5.022705,18.123903,-20.111197,-0.469699,-8.004762,0.982179,-0.174458,0.008161,-0.069439
98,0.344223,-3.162679,9.606084,6.414988,-6.335332,15.882647,-19.768600,-0.454104,-7.407357,0.983047,-0.171551,0.007193,-0.064316
99,0.093001,-3.491293,9.481910,-3.794939,-1.264549,15.833174,-19.729025,-0.394402,-6.867012,0.983406,-0.171213,0.006875,-0.059593
100,0.192877,-3.531925,8.881305,-11.494052,0.351020,10.855898,-19.986052,-0.257232,-6.443535,0.983248,-0.173378,0.007545,-0.055737
101,-0.044998,-3.683630,8.738403,-19.199215,5.062361,7.020595,-20.498255,-0.069168,-6.195298,0.982600,-0.177701,0.009022,-0.053283
102,-0.190856,-3.839005,8.500054,-22.093964,7.008912,3.021520,-21.186247,0.178727,-6.110463,0.981574,-0.183490,0.011329,-0.052104
103,-0.280358,-3.919786,8.526937,-20.828678,7.792983,0.444427,-21.901705,0.429628,-6.147360,0.980409,-0.189495,0.013862,-0.051932
104,-0.270056,-4.050486,8.616240,-18.637905,5.553706,-1.258698,-22.560295,0.630536,-6.244072,0.979271,-0.195019,0.016041,-0.052335
105,-0.126724,-4.345423,8.975371,-15.158548,2.728286,-3.160254,-23.124966,0.729198,-6.365633,0.978247,-0.199777,0.017353,-0.053121
106,-0.005701,-4.398460,9.117595,-9.125429,0.554761,-5.217291,-23.531559,0.724207,-6.515633,0.977461,-0.203226,0.017765,-0.054347
107,-0.021476,-4.372408,9.429349,-4.727709,0.355120,-6.662896,-23.764675,0.658771,-6.703189,0.976952,-0.205218,0.017654,-0.056028
108,-0.110286,-4.309592,9.603887,-2.639903,1.973736,-6.921862,-23.889917,0.602892,-6.926031,0.976613,-0.206280,0.017640,-0.058009
110,0.021304,-4.095391,9.399233,-2.717625,0.463932,-7.469029,-23.981590,0.542759,-7.161742,0.976322,-0.207057,0.017600,-0.060112
111,-0.028198,-3.851947,8.991795,-2.249142,-2.254378,-6.734524,-24.066053,0.419126,-7.365829,0.976050,-0.207814,0.016961,-0.062062
112,-0.096411,-3.736925,8.594800,-0.388842,-4.959122,-4.952088,-24.110703,0.229870,-7.494594,0.975881,-0.208281,0.015608,-0.063497
113,-0.202182,-3.713495,8.403517,0.414352,-6.214810,-1.674333,-24.110273,0.014780,-7.519354,0.975844,-0.208395,0.013821,-0.064099
114,0.126895,-3.953850,8.703471,0.703985,-12.875443,-1.287221,-24.091785,-0.295808,-7.434499,0.975885,-0.208419,0.011011,-0.063943
115,0.144630,-4.027469,8.982807,6.068470,-13.226631,1.505284,-23.980433,-0.691632,-7.253979,0.976127,-0.207698,0.007250,-0.063131
116,0.284465,-4.000784,9.275814,9.466833,-11.411025,3.032088,-23.724976,-1.036648,-7.018903,0.976655,-0.205712,0.003746,-0.061760
117,0.444221,-3.887050,9.411482,7.591963,-9.176855,2.078327,-23.445036,-1.317078,-6.803642,0.977215,-0.203468,0.000821,-0.060428
118,0.624275,-3.863287,9.455664,2.731002,-8.391529,-1.476381,-23.276163,-1.581907,-6.678287,0.977523,-0.202155,-0.001749,-0.059823
119,0.460918,-3.911387,9.143362,-1.685755,-4.263157,-4.390550,-23.258631,-1.814291,-6.684702,0.977498,-0.202115,-0.003730,-0.060284
120,0.375137,-3.950167,8.752192,-6.068576,-1.962391,-7.520584,-23.383257,-1.988170,-6.825932,0.977159,-0.203266,-0.004897,-0.061798
121,0.260389,-4.279160,8.718221,-12.415161,-0.613576,-8.955241,-23.682930,-2.137180,-7.060636,0.976456,-0.205903,-0.005584,-0.064075
122,0.418813,-4.737317,8.909545,-13.968361,-1.935210,-10.609178,-24.111778,-2.308173,-7.341668,0.975471,-0.209656,-0.006287,-0.066798
123,0.341079,-4.719470,8.793134,-7.556460,-1.003839,-9.545678,-24.458504,-2.490973,-7.627995,0.974607,-0.212718,-0.007109,-0.069587
124,0.268660,-4.487820,8.629445,-2.337549,0.055792,-7.165082,-24.612400,-2.620882,-7.875092,0.974127,-0.214112,-0.007659,-0.071936
125,0.377752,-4.461694,8.892854,-0.210882,-0.483308,-7.007090,-24.645004,-2.725719,-8.087092,0.973896,-0.214461,-0.008134,-0.073934
126,0.303332,-4.223091,8.984095,4.703256,0.624645,-5.178217,-24.561153,-2.808097,-8.272958,0.973904,-0.213808,-0.008542,-0.075659
127,0.168458,-3.916669,9.069502,10.573925,5.009815,-1.814839,-24.299480,-2.770728,-8.418120,0.974306,-0.211573,-0.008129,-0.076806
128,0.260263,-3.883759,9.182797,11.069807,3.863299,-1.678656,-23.933428,-2.659457,-8.531899,0.974937,-0.208402,-0.007220,-0.077548
129,0.421818,-3.818427,9.247635,13.330392,0.785158,-2.062181,-23.522696,-2.613602,-8.620213,0.975633,-0.204884,-0.006949,-0.078193
130,0.504530,-3.769576,9.318069,13.157516,-0.279665,-2.222248,-23.078074,-2.634069,-8.689105,0.976367,-0.201114,-0.007306,-0.078788
131,0.611597,-3.807255,9.363119,13.767569,-0.842719,-3.695667,-22.625437,-2.689602,-8.772786,0.977078,-0.197295,-0.007947,-0.079566
132,0.593898,-3.737279,9.298286,15.953596,-0.267891,-3.908234,-22.124853,-2.754994,-8.883017,0.977831,-0.193074,-0.008667,-0.080579
133,0.574368,-3.557977,9.211114,17.299103,-0.767100,-3.504454,-21.565392,-2.816972,-8.991424,0.978665,-0.188345,-0.009412,-0.081562
134,0.482462,-3.555344,9.274030,16.820450,-0.372103,-1.799193,-20.992994,-2.866709,-9.066984,0.979523,-0.183493,-0.010124,-0.082238
135,0.347966,-3.513742,9.283181,17.959492,0.088066,2.308167,-20.413826,-2.868080,-9.057402,0.980444,-0.178540,-0.010566,-0.082105
136,0.360520,-3.402991,9.191207,20.044338,-1.016182,6.467002,-19.787542,-2.832190,-8.914647,0.981519,-0.173142,-0.010923,-0.080771
137,0.462305,-3.334543,9.198317,21.274254,-3.179987,9.708538,-19.112600,-2.808189,-8.636838,0.982722,-0.167315,-0.011598,-0.078289
138,0.533207,-3.305832,9.165434,22.318413,-4.310849,12.592113,-18.405346,-2.806714,-8.244254,0.983998,-0.161203,-0.012620,-0.074843
139,0.607887,-3.287829,9.138910,21.714865,-4.772496,13.311207,-17.693966,-2.816755,-7.786341,0.985268,-0.155044,-0.013791,-0.070840
140,0.642028,-3.294627,9.104720,19.871918,-4.392208,11.452529,-17.022608,-2.839342,-7.346318,0.986417,-0.149225,-0.014973,-0.066999
141,0.603471,-3.168059,9.102401,17.975845,-3.249873,9.057764,-16.409979,-2.863038,-6.981846,0.987402,-0.143911,-0.015993,-0.063807
142,0.538880,-3.014350,9.074239,13.618959,-1.672097,7.308459,-15.897664,-2.866013,-6.696695,0.988190,-0.139456,-0.016651,-0.061280
143,0.470008,-3.063234,9.298684,3.843766,0.421710,5.719600,-15.617274,-2.827094,-6.481839,0.988652,-0.136988,-0.016722,-0.059340
144,0.422444,-2.955886,9.538696,6.097460,1.955822,5.052534,-15.459450,-2.740715,-6.319351,0.988947,-0.135564,-0.016250,-0.057814
145,0.379627,-2.690828,9.632016,11.581433,3.189834,4.248177,-15.170715,-2.617096,-6.192360,0.989381,-0.132999,-0.015476,-0.056536
146,0.393750,-2.536575,9.785673,13.235833,2.424914,3.046393,-14.761247,-2.495371,-6.098955,0.989927,-0.129397,-0.014731,-0.055538
147,0.320188,-2.446026,10.007419,15.475865,3.208165,2.243191,-14.285360,-2.382421,-6.037055,0.990513,-0.125228,-0.014053,-0.054820
148,0.234932,-2.158250,10.086660,20.304535,4.390650,1.176826,-13.690022,-2.245800,-6.012340,0.991193,-0.120018,-0.013181,-0.054392
149,0.167246,-1.822272,10.018734,20.895947,6.483875,-0.936526,-13.001925,-2.068601,-6.050296,0.991916,-0.113990,-0.011936,-0.054467
150,0.116942,-1.746144,10.092717,14.928894,9.300879,-2.184554,-12.401149,-1.823532,-6.159014,0.992496,-0.108690,-0.009995,-0.055117
151,-0.271693,-1.844703,10.345578,6.110393,18.658003,-6.281975,-12.043832,-1.398124,-6.395878,0.992788,-0.105415,-0.006262,-0.056752
152,-0.408926,-1.566442,10.285923,5.771362,25.691254,-13.015821,-11.837024,-0.741830,-6.864022,0.992825,-0.103312,-0.000255,-0.060210
153,-0.313696,-0.950461,9.628633,22.115946,22.664188,-15.636170,-11.367715,-0.048586,-7.493945,0.992954,-0.098855,0.006051,-0.065071
154,-0.478836,-1.055856,9.637450,2.977828,21.880011,-14.962194,-10.952254,0.581696,-8.136962,0.992949,-0.094831,0.011811,-0.070141
155,-0.455599,-1.553106,10.036569,-24.095957,17.673418,-10.696350,-11.312469,1.145040,-8.684716,0.992300,-0.097519,0.017377,-0.074361
156,-0.016890,-2.148771,10.083274,-29.428774,5.560471,-4.884255,-12.212198,1.469956,-9.019114,0.991274,-0.105029,0.021078,-0.076813
157,-0.064150,-2.376001,9.699508,-8.199227,-1.051452,2.774024,-12.840569,1.535008,-9.070562,0.990646,-0.110408,0.022111,-0.077077
158,-0.094862,-2.495202,9.138411,-18.905951,-0.187606,9.900622,-13.286654,1.562310,-8.860157,0.990348,-0.114286,0.022437,-0.075144
159,0.157330,-2.494854,9.148288,-21.650234,-5.758757,16.173277,-13.950364,1.568253,-8.414266,0.989953,-0.120104,0.022456,-0.071155
160,0.077744,-2.011560,7.808020,11.112820,-9.366563,18.819870,-14.109513,1.464801,-7.787336,0.990164,-0.121663,0.020996,-0.065819
161,-0.025875,-1.268172,7.140438,22.505865,-11.746283,23.294968,-13.530924,1.289247,-7.021791,0.991191,-0.116893,0.018365,-0.059485
162,0.050941,-1.397586,7.468575,-6.325393,-16.671736,25.951017,-13.242992,1.018095,-6.113664,0.991932,-0.114671,0.014961,-0.051946
163,0.187745,-2.351513,9.074758,-27.906929,-21.498436,23.086567,-13.800433,0.592660,-5.169631,0.991762,-0.119785,0.010547,-0.044150
164,0.266169,-3.249552,9.933600,-21.518696,-20.361263,14.776207,-14.619982,0.072874,-4.386310,0.991149,-0.127120,0.005499,-0.037877
165,0.316503,-3.700772,10.857771,-30.402885,-16.504391,9.619930,-15.487280,-0.414675,-3.834457,0.990303,-0.134785,0.000924,-0.033638
166,0.210088,-3.910268,11.202653,-35.047180,-10.889524,4.731598,-16.581854,-0.786622,-3.478037,0.989040,-0.144336,-0.002414,-0.031018
167,0.286056,-4.231066,11.305760,-35.659302,-5.898345,-1.375452,-17.762390,-1.036770,-3.341561,0.987509,-0.154575,-0.004434,-0.030202
168,0.053747,-4.204755,10.937447,-30.485497,0.864435,-5.907745,-18.863087,-1.153903,-3.430197,0.985941,-0.164085,-0.005025,-0.031173
169,-0.217134,-3.768710,10.044015,-26.038914,4.743217,-3.757888,-19.801538,-1.118487,-3.612822,0.984518,-0.172152,-0.004191,-0.032729
170,-0.218229,-3.924599,9.971575,-28.907402,5.420894,-3.133481,-20.714239,-0.999327,-3.778934,0.983082,-0.179961,-0.002646,-0.034000
171,-0.103592,-4.134155,9.761577,-27.353598,4.627260,-3.818331,-21.649092,-0.885103,-3.947456,0.981545,-0.187946,-0.001114,-0.035277
172,-0.060972,-4.083004,9.398314,-26.646784,3.099212,-1.223199,-22.547159,-0.797363,-4.073810,0.980013,-0.195608,0.000129,-0.036216
173,-0.046846,-4.200659,8.903580,-26.893314,1.769245,2.341944,-23.439262,-0.715581,-4.088361,0.978466,-0.203208,0.001135,-0.036193
174,0.092536,-4.285640,8.513469,-23.714003,-0.188520,4.489214,-24.283798,-0.645683,-3.994884,0.976979,-0.210394,0.001826,-0.035259
175,0.272585,-3.999460,8.097684,-14.823546,-3.055608,5.129084,-24.927942,-0.628287,-3.826658,0.975833,-0.215881,0.001855,-0.033783
176,0.449918,-3.841467,7.918936,-7.903113,-6.097165,5.713057,-25.309370,-0.689892,-3.598377,0.975168,-0.219147,0.001007,-0.031952
177,0.651012,-3.978754,7.975685,-5.860321,-7.863256,3.423825,-25.541946,-0.834813,-3.361030,0.974769,-0.221162,-0.000619,-0.030210
178,0.732442,-3.913288,8.248622,-2.009104,-6.892167,-0.007121,-25.675726,-1.031978,-3.203429,0.974526,-0.222342,-0.002567,-0.029252
179,0.623277,-3.789367,8.564840,0.932019,-3.149809,-4.038668,-25.693966,-1.212042,-3.191716,0.974469,-0.222537,-0.004116,-0.029502
180,0.430903,-4.040887,8.927058,-1.314830,3.131246,-7.660088,-25.696564,-1.296856,-3.367358,0.974405,-0.222584,-0.004496,-0.031159
181,0.186910,-4.254572,9.264995,0.195656,10.522643,-9.689473,-25.707426,-1.217238,-3.726670,0.974294,-0.222669,-0.003117,-0.034061
182,-0.224952,-4.181302,9.505104,5.586731,17.938957,-6.770783,-25.602779,-0.908374,-4.179391,0.974401,-0.221700,0.000354,-0.037312
183,-0.547175,-4.265837,9.598749,8.214748,23.970247,-1.263202,-25.368435,-0.335312,-4.600750,0.974779,-0.219514,0.005961,-0.039801
184,-0.413478,-4.296047,9.319270,10.555671,25.165560,2.565046,-25.056170,0.414927,-4.929962,0.975314,-0.216564,0.012861,-0.041200
185,-0.214382,-4.012730,9.009759,11.904631,22.424465,3.782593,-24.685383,1.179102,-5.167501,0.975941,-0.213077,0.019677,-0.041838
186,-0.062392,-4.059042,8.707272,4.667251,18.408571,3.806592,-24.413719,1.850729,-5.335120,0.976363,-0.210451,0.025607,-0.042072
187,0.268418,-4.108595,8.350557,-2.284469,12.044552,0.121558,-24.379547,2.339931,-5.485517,0.976337,-0.209909,0.030037,-0.042457
188,0.548304,-4.076186,8.054906,-7.303871,2.978595,-5.321507,-24.547022,2.531869,-5.668478,0.975943,-0.211199,0.032070,-0.043614
189,0.318595,-4.134439,8.294771,-12.919353,-3.094681,-8.406830,-24.892904,2.434376,-5.875892,0.975229,-0.214132,0.031760,-0.045466
190,0.044454,-4.375892,8.571011,-14.694820,-7.407025,-9.318859,-25.360764,2.150390,-6.069319,0.974288,-0.218197,0.029900,-0.047526
191,-0.054849,-4.422302,8.766097,-8.275086,-13.751814,-9.943959,-25.748127,1.693705,-6.207017,0.973504,-0.221678,0.026449,-0.049485
192,-0.472924,-4.484819,8.723229,-3.196054,-18.697817,-4.802305,-25.938826,1.099851,-6.192830,0.973139,-0.223588,0.021462,-0.050485
193,-0.678951,-4.290217,8.823512,0.770042,-21.859312,0.968021,-25.975719,0.464038,-5.954659,0.973142,-0.224234,0.015614,-0.049703
194,-0.602031,-4.238530,8.595110,0.426519,-22.970016,5.910167,-25.954327,-0.157574,-5.524674,0.973312,-0.224366,0.009484,-0.047271
195,-0.579748,-4.330580,8.466791,-3.469556,-22.432055,12.220743,-26.009323,-0.705375,-4.921532,0.973375,-0.225076,0.003669,-0.043217
196,-0.554431,-4.229035,8.354465,-6.364495,-19.537319,18.607773,-26.185030,-1.107358,-4.152187,0.973241,-0.226706,-0.001200,-0.037471
197,-0.124520,-4.140607,8.544138,-8.174946,-16.897320,18.710352,-26.444836,-1.375828,-3.325192,0.972930,-0.228958,-0.005047,-0.030988
198,0.211752,-4.473543,8.629824,-9.666179,-13.781994,17.461941,-26.761751,-1.562903,-2.556893,0.972450,-0.231640,-0.008102,-0.024859
199,0.448217,-4.589408,8.775373,-5.809949,-10.519087,14.296605,-27.038158,-1.684476,-1.901317,0.971996,-0.233949,-0.010412,-0.019566
200,0.564506,-4.495426,8.816547,-1.071622,-5.418432,9.040118,-27.166801,-1.743838,-1.433880,0.971796,-0.235000,-0.011852,-0.015735
201,0.587916,-4.527355,8.948635,-0.597805,1.097488,3.092893,-27.201004,-1.715619,-1.221007,0.971757,-0.235266,-0.012045,-0.013875
202,0.379031,-4.570175,9.090150,0.253987,8.330659,-2.072095,-27.205051,-1.568077,-1.277726,0.971763,-0.235297,-0.010677,-0.014054
203,0.211280,-4.280670,9.024132,4.624843,14.768639,-5.583205,-27.116467,-1.283779,-1.567064,0.971944,-0.234546,-0.007684,-0.015919
204,0.054899,-4.263958,8.994865,4.513515,19.943079,-8.225988,-26.955315,-0.873037,-2.035042,0.972248,-0.233154,-0.003269,-0.019044
205,-0.099343,-4.195065,8.982748,5.202415,22.563293,-9.094874,-26.787092,-0.371644,-2.612808,0.972527,-0.231649,0.002127,-0.022930
206,-0.162705,-4.173475,8.812243,3.879480,21.891714,-9.025545,-26.634598,0.154441,-3.215584,0.972734,-0.230216,0.007774,-0.026993
207,-0.195177,-3.991771,8.602881,4.532170,20.123322,-8.065608,-26.498400,0.653284,-3.783565,0.972879,-0.228875,0.013112,-0.030827
208,-0.278198,-3.988350,8.484840,4.338645,16.791388,-8.139816,-26.358387,1.084046,-4.299260,0.973014,-0.227481,0.017756,-0.034364
209,-0.384986,-3.995478,8.405196,2.726365,12.002966,-7.087826,-26.250120,1.401791,-4.739500,0.973086,-0.226374,0.021291,-0.037490
210,-0.392932,-4.253253,8.513382,0.780082,6.220281,-6.945273,-26.200556,1.570865,-5.083638,0.973063,-0.225820,0.023389,-0.040086
211,-0.548681,-4.256529,8.689631,5.505197,1.706320,-5.390440,-26.102425,1.598798,-5.326507,0.973168,-0.224924,0.024069,-0.042114
213,-0.467860,-4.410065,8.765443,8.185836,-5.043048,-2.279642,-25.876635,1.492901,-5.417041,0.973578,-0.223033,0.023262,-0.043138
214,-0.247378,-4.475473,8.880096,8.665097,-11.308288,1.187829,-25.593279,1.239624,-5.315015,0.974168,-0.220751,0.020807,-0.042818
215,0.143477,-4.360234,8.998506,11.857252,-16.067198,2.045888,-25.246706,0.850795,-5.070377,0.974918,-0.218001,0.016904,-0.041542
216,0.528930,-4.073809,8.842875,13.235441,-19.041744,2.134640,-24.825241,0.350141,-4.759608,0.975805,-0.214640,0.011907,-0.039896
217,0.878242,-4.026956,8.812953,9.902822,-20.095442,1.472803,-24.439249,-0.217695,-4.433073,0.976595,-0.211573,0.006331,-0.038202
218,1.066609,-4.027215,8.844208,5.642633,-17.993750,-1.660860,-24.182497,-0.797414,-4.174412,0.977090,-0.209573,0.000829,-0.037068
219,1.145816,-4.019853,8.949862,1.868817,-23.347265,-9.723408,-24.059641,-1.503773,-4.065822,0.977243,-0.208727,-0.005433,-0.037425
220,0.975219,-3.898939,8.965885,1.750171,-14.859060,-9.573228,-23.998539,-2.216305,-4.100016,0.977198,-0.208404,-0.011469,-0.039002
221,0.840849,-3.751798,9.107346,4.947254,-7.083910,-7.878908,-23.882103,-2.668588,-4.217591,0.977256,-0.207547,-0.015155,-0.040806
222,0.532013,-3.670993,9.310505,8.146796,3.158623,-4.582910,-23.656149,-2.812155,-4.381657,0.977565,-0.205682,-0.016166,-0.042431
223,0.269372,-3.695619,9.488599,5.531374,9.396613,-2.711674,-23.418974,-2.668842,-4.577108,0.977954,-0.203643,-0.014683,-0.043813
224,0.012138,-3.685194,9.468483,6.148398,13.971460,-0.954781,-23.215200,-2.335423,-4.787716,0.978319,-0.201824,-0.011542,-0.045003
225,-0.155646,-3.802373,9.395700,6.728403,15.532315,2.031684,-22.994169,-1.876094,-4.964338,0.978743,-0.199799,-0.007397,-0.045694
226,-0.281316,-3.895593,9.355921,5.372533,15.084363,4.123281,-22.789654,-1.366073,-5.068388,0.979157,-0.197878,-0.002940,-0.045694
227,-0.203574,-3.964839,9.224820,2.792164,11.846187,4.623493,-22.652889,-0.895746,-5.107349,0.979452,-0.196539,0.001093,-0.045220
228,-0.219552,-3.822724,9.169611,2.312448,10.751443,8.898068,-22.568617,-0.461422,-5.044170,0.979676,-0.195660,0.004666,-0.043941
229,-0.446774,-3.659358,8.983992,3.389543,8.511391,15.083668,-22.474739,-0.011741,-4.797951,0.979968,-0.194708,0.008057,-0.041075
230,-0.566936,-3.713160,9.109790,0.204425,0.444965,15.030389,-22.413960,0.317862,-4.391033,0.980228,-0.194106,0.010165,-0.037040
231,-0.580680,-3.804932,9.054083,-0.872348,-2.549009,17.184221,-22.421793,0.490304,-3.881368,0.980375,-0.194165,0.010779,-0.032387
232,-0.639295,-3.725435,8.862922,-0.625291,-4.335876,19.275734,-22.441019,0.616144,-3.275897,0.980501,-0.194352,0.010834,-0.026991
233,-0.522076,-3.830246,8.730692,-2.265223,-5.715819,18.246544,-22.481876,0.700237,-2.633941,0.980566,-0.194742,0.010472,-0.021351
234,-0.180290,-4.044999,8.876695,-3.170185,-7.770065,13.985197,-22.565432,0.698475,-2.051614,0.980520,-0.195508,0.009479,-0.016364
235,0.089462,-4.070470,8.857186,-2.457820,-8.816674,11.140552,-22.653774,0.604329,-1.558760,0.980432,-0.196315,0.007842,-0.012302
236,0.134913,-4.087527,8.941319,-5.029908,-8.679221,5.372729,-22.775312,0.441613,-1.192298,0.980261,-0.197395,0.005832,-0.009439
237,0.169587,-4.117565,9.063243,-4.408793,-5.156488,-0.461943,-22.931732,0.261026,-1.027307,0.980006,-0.198756,0.004014,-0.008333
238,0.138069,-4.044301,9.142513,-2.768720,-0.767777,-4.131568,-23.051540,0.140299,-1.059214,0.979795,-0.199789,0.003046,-0.008812
239,0.114171,-3.949257,9.152342,-1.245727,4.180305,-7.311773,-23.118950,0.117886,-1.256957,0.979660,-0.200362,0.003206,-0.010540
240,0.007857,-3.810385,9.062845,0.615171,7.600320,-11.037476,-23.130438,0.178393,-1.615302,0.979603,-0.200442,0.004351,-0.013497
241,-0.026452,-3.721508,8.949587,-0.301892,9.181073,-13.062516,-23.127148,0.277880,-2.094534,0.979545,-0.200378,0.006039,-0.017420
242,0.005740,-3.822531,8.944140,-2.169706,8.928216,-13.607824,-23.171373,0.380618,-2.621908,0.979379,-0.200705,0.007848,-0.021745
243,-0.140311,-3.730844,8.974535,-1.056700,9.615897,-12.519617,-23.229109,0.493074,-3.143925,0.979170,-0.201133,0.009736,-0.026005
244,-0.319967,-3.701327,8.993500,0.544064,10.384746,-10.697064,-23.242542,0.646761,-3.630994,0.979029,-0.201162,0.011907,-0.029895
245,-0.327066,-3.780622,9.075136,0.116974,8.847024,-7.040959,-23.236704,0.824687,-4.029120,0.978931,-0.201014,0.014124,-0.032984
246,-0.345976,-3.819190,9.205628,3.369433,8.126649,-1.959394,-23.182678,1.025558,-4.278509,0.978951,-0.200454,0.016261,-0.034769
247,-0.208709,-3.774452,9.287909,6.490238,2.121118,1.013132,-23.020012,1.176549,-4.360001,0.979207,-0.199001,0.017643,-0.035225
248,0.095509,-3.792826,9.273829,6.674349,-7.087133,1.696095,-22.799152,1.117967,-4.286088,0.979613,-0.197145,0.016947,-0.034728
249,0.335643,-3.849889,9.295309,4.742167,-10.578373,4.680922,-22.605202,0.887440,-4.074247,0.980011,-0.195591,0.014556,-0.033340
250,0.369654,-3.904708,9.318708,2.294263,-14.053617,5.197818,-22.483952,0.571494,-3.764703,0.980303,-0.194685,0.011292,-0.031245
251,0.405776,-3.738867,9.285598,1.042015,-15.936436,3.664298,-22.426258,0.166051,-3.437201,0.980477,-0.194329,0.007253,-0.029137
252,0.209978,-3.491286,9.073721,-0.199694,-14.255963,4.060595,-22.412529,-0.249984,-3.126231,0.980555,-0.194327,0.003162,-0.027182
253,-0.002600,-3.361751,8.869529,-1.441746,-10.635010,4.068414,-22.441916,-0.581735,-2.842688,0.980545,-0.194654,-0.000151,-0.025318
254,-0.077070,-3.531341,8.734936,-4.185124,-7.029987,3.680431,-22.538462,-0.804326,-2.610691,0.980410,-0.195521,-0.002430,-0.023712
255,-0.019387,-3.484491,8.634892,0.146368,-4.227649,1.335690,-22.608028,-0.945428,-2.461388,0.980307,-0.196137,-0.003879,-0.022677
256,-0.016894,-3.543379,8.678818,2.971196,-0.693083,0.492956,-22.557104,-1.009479,-2.401781,0.980398,-0.195710,-0.004538,-0.022275
257,-0.032529,-3.776606,8.891523,3.902252,4.389114,-0.723919,-22.442072,-0.954061,-2.428938,0.980595,-0.194717,-0.004040,-0.022409
258,-0.045935,-3.805881,8.919546,5.819663,7.313185,-2.484066,-22.278154,-0.794051,-2.552628,0.980864,-0.193290,-0.002494,-0.023192
259,-0.173514,-3.519022,8.983200,11.087130,11.749258,-2.097089,-21.994162,-0.528549,-2.743079,0.981324,-0.190811,0.000039,-0.024375
260,-0.478345,-3.304613,9.022840,10.916686,17.068947,2.235661,-21.626532,-0.081732,-2.919368,0.981921,-0.187566,0.004079,-0.025155
261,-0.787762,-3.097162,8.926606,5.641030,11.913056,4.999609,-21.350918,0.411936,-2.984284,0.982370,-0.185090,0.008355,-0.024923
262,-0.641107,-2.843632,8.932652,3.786724,7.625283,8.967865,-21.192890,0.799901,-2.885602,0.982644,-0.183655,0.011489,-0.023466
263,-0.309948,-2.916769,9.240449,0.949686,1.701211,9.546342,-21.110367,1.056284,-2.653905,0.982813,-0.182916,0.013301,-0.021077
264,-0.106617,-2.831017,9.399989,2.330185,-3.061758,7.169386,-21.050713,1.135394,-2.385774,0.982951,-0.182419,0.013542,-0.018658
265,0.201294,-2.737012,9.436687,2.942454,-7.311222,3.963989,-20.958466,1.040481,-2.150509,0.983138,-0.181672,0.012340,-0.016801
266,0.548736,-2.875502,9.470305,2.914186,-9.598995,-1.708012,-20.858786,0.790602,-2.014759,0.983325,-0.180872,0.009967,-0.016042
267,0.532907,-3.095541,9.367743,4.789609,-8.098742,-6.589191,-20.730780,0.465731,-2.039291,0.983530,-0.179824,0.007199,-0.016774
268,0.242453,-3.126216,9.031525,6.788984,-4.596563,-7.997050,-20.538788,0.182003,-2.192275,0.983805,-0.178214,0.004973,-0.018540
269,0.082163,-3.308652,8.875040,4.471825,-2.891016,-5.148721,-20.351439,-0.011472,-2.354058,0.984063,-0.176632,0.003531,-0.020236
270,0.101804,-3.540544,8.913293,0.403763,-3.168831,-3.313830,-20.270039,-0.155145,-2.451276,0.984165,-0.175957,0.002431,-0.021294
271,0.076012,-3.686024,9.018363,-2.882630,-1.812329,-1.095403,-20.311188,-0.258515,-2.491372,0.984089,-0.176328,0.001613,-0.021797
272,0.075651,-3.675098,9.169562,-4.163647,-1.165354,0.634745,-20.428673,-0.307726,-2.481265,0.983907,-0.177346,0.001197,-0.021784
273,0.195848,-3.896678,9.412180,-5.439881,-1.421968,1.418860,-20.588991,-0.336135,-2.434084,0.983665,-0.178728,0.000910,-0.021422
274,0.311557,-3.861727,9.417572,-5.958831,-0.805228,-0.853070,-20.779104,-0.367536,-2.412148,0.983369,-0.180365,0.000642,-0.021281
275,0.273766,-3.884151,9.561783,-6.716077,0.625713,-3.472761,-20.989918,-0.396000,-2.478445,0.983022,-0.182179,0.000542,-0.021894
276,0.279121,-3.887281,9.345826,-6.594626,1.559228,-5.807262,-21.210649,-0.417664,-2.635847,0.982636,-0.184075,0.000651,-0.023278
277,0.216120,-4.047283,9.033678,-8.728049,2.749204,-6.592593,-21.464418,-0.425934,-2.854476,0.982179,-0.186251,0.000987,-0.025164
278,0.079452,-3.973301,8.917392,-7.073547,3.767875,-7.404027,-21.725918,-0.410809,-3.111344,0.981694,-0.188485,0.001597,-0.027337
279,-0.146261,-4.129585,8.988493,-6.932224,5.324312,-5.148494,-21.957697,-0.347934,-3.361902,0.981254,-0.190451,0.002607,-0.029375
280,-0.294766,-4.227317,8.897697,-7.695409,5.830120,-2.794359,-22.200577,-0.225445,-3.554415,0.980806,-0.192494,0.004041,-0.030811
281,-0.339573,-4.227181,9.143191,-6.874312,4.489269,0.333660,-22.443161,-0.081967,-3.657658,0.980378,-0.194527,0.005509,-0.031443
282,-0.370368,-4.166678,9.226481,-5.240695,2.328104,4.276418,-22.645115,0.052377,-3.630250,0.980048,-0.196219,0.006667,-0.030968
283,-0.349655,-4.274237,9.165772,-6.394429,0.161325,9.843010,-22.838669,0.181544,-3.429251,0.979774,-0.197853,0.007476,-0.029016
284,-0.110155,-4.148787,9.074388,-4.339865,-3.035228,10.088963,-23.016354,0.266775,-3.104646,0.979547,-0.199372,0.007685,-0.026081
285,0.001156,-4.216984,9.086929,-2.578737,-4.534714,9.649897,-23.130064,0.279564,-2.752561,0.979424,-0.200364,0.007205,-0.023042
286,0.051148,-4.214314,8.930333,-3.536318,-5.591212,8.805616,-23.230419,0.245452,-2.403382,0.979313,-0.201249,0.006320,-0.020111
287,0.202364,-4.163264,9.011646,0.195754,-6.853789,5.603487,-23.285084,0.149746,-2.100852,0.979265,-0.201748,0.004979,-0.017692
288,0.235220,-4.049709,9.101510,4.515420,-5.750501,2.303850,-23.206352,0.008671,-1.896889,0.979430,-0.201103,0.003403,-0.016199
289,0.142641,-4.151259,9.112359,4.762847,-1.529802,2.377081,-23.051821,-0.072353,-1.777525,0.979714,-0.199797,0.002481,-0.015325
290,0.076328,-4.006294,9.002245,5.647737,-0.275919,2.455448,-22.878399,-0.068658,-1.691670,0.980027,-0.198315,0.002341,-0.014588
291,-0.024767,-3.979293,9.046259,4.170744,1.036884,2.994542,-22.714813,-0.021782,-1.612861,0.980320,-0.196912,0.002585,-0.013836
292,-0.140705,-4.012977,9.124248,3.113709,2.217341,3.080705,-22.593365,0.067278,-1.540331,0.980539,-0.195864,0.003209,-0.013066
293,-0.194809,-3.933768,9.098619,3.884283,2.676382,2.708725,-22.476599,0.179594,-1.482484,0.980746,-0.194854,0.004058,-0.012383
294,-0.269452,-3.810714,9.091556,4.577378,2.622833,3.861385,-22.335285,0.302977,-1.414909,0.980993,-0.193633,0.004985,-0.011601
295,-0.211320,-3.831632,9.019273,3.231974,1.294521,4.573579,-22.204475,0.416680,-1.309551,0.981223,-0.192506,0.005768,-0.010514
296,-0.175053,-3.849468,9.049617,2.796431,0.194948,4.304083,-22.103003,0.495488,-1.181873,0.981403,-0.191635,0.006221,-0.009293
297,-0.145867,-3.811262,9.007158,1.543816,-0.430456,4.689610,-22.029394,0.548168,-1.041472,0.981535,-0.191008,0.006432,-0.008007
298,-0.140503,-3.746996,8.961797,1.434977,-1.578245,5.497387,-21.978081,0.580756,-0.871507,0.981630,-0.190575,0.006425,-0.006500
299,0.011046,-3.723268,8.978590,0.741732,-4.794790,4.459641,-21.939915,0.544307,-0.677866,0.981704,-0.190261,0.005789,-0.004903
300,0.080353,-3.763391,9.128520,0.385536,-5.629752,3.040142,-21.919632,0.429829,-0.497009,0.981748,-0.190101,0.004507,-0.003545
301,0.190389,-3.746852,9.095411,1.252755,-6.721450,0.765945,-21.891531,0.262508,-0.361349,0.981801,-0.189871,0.002848,-0.002661
302,0.153220,-3.527872,9.174360,4.814875,-4.681241,-1.129295,-21.790249,0.083840,-0.296274,0.981972,-0.189009,0.001207,-0.002401
303,0.210942,-3.525585,9.295664,4.242812,-4.114859,-3.760356,-21.639315,-0.082544,-0.317800,0.982219,-0.187719,-0.000187,-0.002859
304,0.120409,-3.610973,9.349410,3.427040,-1.045481,-5.042038,-21.511242,-0.216501,-0.422589,0.982422,-0.186626,-0.001168,-0.003976
305,-0.044967,-3.401806,9.254823,4.846452,2.024218,-5.682150,-21.372663,-0.266684,-0.594934,0.982639,-0.185441,-0.001324,-0.005533
306,-0.166174,-3.340986,9.279956,3.506414,2.875195,-5.330517,-21.232569,-0.257286,-0.795635,0.982854,-0.184241,-0.000928,-0.007238
307,-0.172977,-3.527466,9.175310,1.336425,4.246157,-3.061289,-21.151184,-0.197202,-0.968957,0.982974,-0.183540,-0.000140,-0.008628
308,-0.185935,-3.574062,9.103485,-1.088674,3.713244,-2.450088,-21.146738,-0.106640,-1.102510,0.982973,-0.183495,0.000851,-0.009628
309,-0.178219,-3.581164,9.064839,-3.423715,0.723074,-2.438384,-21.221786,-0.067164,-1.205213,0.982845,-0.184134,0.001361,-0.010445
310,-0.107670,-3.541939,9.106277,-6.379855,-0.312139,-1.830002,-21.385073,-0.086652,-1.274002,0.982574,-0.185535,0.001320,-0.011065
311,-0.061086,-3.545712,9.121952,-7.910672,0.020191,-1.803236,-21.623146,-0.113402,-1.328562,0.982181,-0.187578,0.001203,-0.011573
312,-0.010003,-3.487532,9.164678,-7.678545,1.040046,-3.887030,-21.882761,-0.132141,-1.423186,0.981743,-0.189804,0.001225,-0.012412
313,-0.045401,-3.393979,9.209608,-5.536398,2.369699,-5.164642,-22.102636,-0.135898,-1.584348,0.981358,-0.191686,0.001486,-0.013797
314,-0.129606,-3.220256,9.286122,-2.337519,4.093585,-5.769864,-22.233437,-0.104851,-1.793752,0.981113,-0.192799,0.002120,-0.015535
316,-0.071721,-3.347390,9.389414,-0.663558,3.280120,-7.042174,-22.283094,-0.071936,-2.037904,0.980995,-0.193214,0.002820,-0.017569
317,-0.009667,-3.290539,9.343652,1.680183,2.357355,-6.280042,-22.265831,-0.069118,-2.278986,0.980985,-0.193059,0.003248,-0.019629
318,0.079683,-3.329502,9.217631,1.366796,1.199185,-5.428900,-22.214758,-0.088072,-2.482050,0.981034,-0.192619,0.003418,-0.021401
319,0.131138,-3.478978,9.220842,-1.416701,0.892417,-4.286589,-22.215288,-0.117021,-2.645132,0.981001,-0.192625,0.003445,-0.022845
320,0.192206,-3.663949,9.113087,-3.395012,0.325082,-3.891567,-22.295170,-0.149896,-2.778960,0.980837,-0.193311,0.003405,-0.024044
321,0.204483,-3.706686,9.041589,-4.684876,0.777933,-1.870206,-22.429564,-0.169454,-2.874760,0.980588,-0.194462,0.003429,-0.024893
322,0.204469,-3.772788,9.160318,-4.875371,0.538736,-1.827489,-22.588709,-0.172800,-2.940081,0.980303,-0.195823,0.003546,-0.025453
323,0.119888,-3.684762,9.418020,-1.993086,1.542878,-0.543638,-22.703039,-0.155999,-2.989913,0.980096,-0.196795,0.003801,-0.025846
324,0.056348,-3.659147,9.443920,0.962748,1.530951,-0.104892,-22.720148,-0.112911,-3.019648,0.980063,-0.196931,0.004224,-0.026026
325,0.063706,-3.517020,9.562296,4.590555,1.053312,0.448215,-22.627575,-0.070957,-3.030962,0.980221,-0.196130,0.004581,-0.026055
326,-0.084351,-3.410192,9.515378,7.948780,2.121705,0.284025,-22.418581,-0.017394,-3.039947,0.980578,-0.194329,0.005008,-0.026049
327,-0.215546,-3.416243,9.456977,9.313321,3.146913,-0.110538,-22.130898,0.064953,-3.070556,0.981059,-0.191846,0.005698,-0.026186
328,-0.251997,-3.478027,9.340536,12.728923,5.020334,-0.616365,-21.763662,0.186667,-3.132677,0.981659,-0.188670,0.006759,-0.026535
329,-0.194510,-3.329833,9.203741,15.076850,3.201754,-1.078443,-21.300564,0.303753,-3.209258,0.982398,-0.184668,0.007779,-0.027030
330,-0.032839,-3.369224,9.203512,13.568403,-0.656575,-4.037347,-20.823652,0.312717,-3.303986,0.983136,-0.180569,0.007893,-0.027861
331,0.264058,-3.415761,9.226962,12.663325,-3.320708,-7.541773,-20.387110,0.182695,-3.461134,0.983774,-0.176846,0.006913,-0.029441
332,0.352125,-3.288486,9.161626,14.133872,-4.036112,-8.805415,-19.940767,-0.026402,-3.674492,0.984390,-0.173057,0.005324,-0.031616
333,0.086800,-3.403145,9.049591,10.444097,-1.706707,-4.679722,-19.530802,-0.192392,-3.853704,0.984942,-0.169574,0.004049,-0.033421
334,0.024483,-3.380566,9.307246,8.676147,-0.335307,-1.327947,-19.211815,-0.257664,-3.936935,0.985382,-0.166848,0.003516,-0.034243
335,0.208402,-3.378938,9.337452,8.696673,-2.713955,-1.299473,-18.922148,-0.319950,-3.961768,0.985788,-0.164374,0.002929,-0.034554
336,0.278859,-3.403945,9.279381,7.253417,-4.093302,-2.097395,-18.656191,-0.445575,-3.978777,0.986152,-0.162122,0.001792,-0.034885
337,0.169619,-3.568588,9.114623,1.411839,-0.889663,-1.417733,-18.511526,-0.542972,-4.007798,0.986339,-0.160905,0.000950,-0.035273
338,0.470003,-3.466462,9.320592,9.190448,-0.489577,-5.908911,-18.333742,-0.603387,-4.116384,0.986548,-0.159392,0.000527,-0.036294
339,0.256494,-3.521963,9.053068,9.549471,2.514879,-8.165251,-18.018879,-0.644483,-4.349811,0.986902,-0.156693,0.000392,-0.038361
340,-0.284514,-3.561414,8.982852,7.484510,6.656702,-4.536316,-17.732409,-0.564047,-4.598264,0.987213,-0.154197,0.001324,-0.040395
341,-0.745370,-3.493784,9.012894,-0.992941,18.037310,6.149591,-17.623688,-0.163746,-4.697742,0.987356,-0.153119,0.004867,-0.040719
342,-0.608948,-3.461825,9.219304,0.966706,11.743266,10.161394,-17.624205,0.391589,-4.589288,0.987419,-0.152936,0.009508,-0.039042
343,-0.407874,-3.553805,9.061212,3.087385,-0.827086,12.892311,-17.553993,0.681106,-4.277915,0.987618,-0.152261,0.011565,-0.035979
344,-0.098907,-3.585928,9.183780,-0.480219,-7.033628,14.548818,-17.505220,0.693914,-3.802215,0.987823,-0.151883,0.011030,-0.031867
345,0.172186,-3.516600,9.203840,-2.496048,-9.774237,13.054902,-17.549267,0.565475,-3.279114,0.987901,-0.152344,0.009240,-0.027524
346,0.522690,-3.545663,9.165441,-4.167084,-11.767363,8.448755,-17.656912,0.331729,-2.828914,0.987858,-0.153359,0.006648,-0.023948
347,0.502135,-3.472975,9.147546,-11.530046,-15.110700,2.218830,-17.917923,-0.040419,-2.522778,0.987559,-0.155697,0.003080,-0.021800
348,0.244249,-3.267534,9.208062,-6.850540,-7.203688,0.404841,-18.225080,-0.380148,-2.365743,0.987153,-0.158407,-0.000005,-0.020908
349,0.218206,-3.251952,9.126214,-5.603921,-3.443681,-2.429487,-18.432875,-0.559170,-2.341931,0.986857,-0.160227,-0.001543,-0.020953
350,0.170633,-3.304705,9.118364,-4.890774,-0.186147,-2.878311,-18.607151,-0.644576,-2.406576,0.986593,-0.161744,-0.002155,-0.021632
351,0.009540,-3.203562,9.211607,-5.407851,1.965396,-2.981620,-18.777666,-0.647765,-2.508567,0.986332,-0.163214,-0.002005,-0.022518
352,-0.040221,-3.223625,9.292452,-7.090415,2.877797,-2.678491,-18.984730,-0.601910,-2.623930,0.986016,-0.164989,-0.001403,-0.023448
353,-0.005168,-3.269276,9.309221,-8.102365,2.834486,-3.385054,-19.236679,-0.545053,-2.750585,0.985628,-0.167147,-0.000678,-0.024458
354,-0.098660,-3.293535,9.341443,-8.821178,3.178663,-2.396964,-19.517620,-0.482481,-2.874757,0.985193,-0.169550,0.000104,-0.025435
355,-0.095694,-3.185795,9.312083,-6.920914,2.713650,-2.358693,-19.779152,-0.416669,-2.982417,0.984784,-0.171784,0.000889,-0.026261
356,-0.110262,-3.265627,9.268866,-7.983914,2.160842,-1.033112,-20.027014,-0.359514,-3.063228,0.984396,-0.173900,0.001559,-0.026867
357,-0.063117,-3.264000,9.222118,-7.405232,0.927286,0.231120,-20.283321,-0.315835,-3.093515,0.984000,-0.176091,0.002041,-0.027056
358,0.008188,-3.288992,9.214553,-8.389796,-0.571808,1.332770,-20.546700,-0.301220,-3.071167,0.983599,-0.178349,0.002194,-0.026837
359,0.132579,-3.300657,9.203462,-8.870383,-2.049884,1.069128,-20.834663,-0.327980,-3.018299,0.983158,-0.180827,0.001948,-0.026420
360,0.174376,-3.381388,9.278879,-9.557100,-1.898406,0.379797,-21.142069,-0.380773,-2.972211,0.982676,-0.183476,0.001492,-0.026104
361,0.214194,-3.407227,9.286409,-8.236797,-1.480391,-1.036054,-21.438709,-0.437196,-2.961954,0.982196,-0.186032,0.001060,-0.026103
362,0.217680,-3.466982,9.303121,-8.128466,-0.737381,-2.424210,-21.711145,-0.492745,-3.002003,0.981738,-0.188378,0.000712,-0.026535
363,0.125770,-3.522954,9.288811,-7.573528,0.899183,-3.524282,-21.972027,-0.527095,-3.095031,0.981282,-0.190620,0.000633,-0.027387
364,0.060237,-3.486012,9.325735,-6.719829,1.645353,-3.739081,-22.209070,-0.533290,-3.223134,0.980853,-0.192650,0.000852,-0.028493
365,0.014833,-3.542550,9.218398,-6.374146,1.735343,-3.207797,-22.426121,-0.525116,-3.351634,0.980455,-0.194504,0.001194,-0.029577
366,-0.027068,-3.632838,9.220017,-7.311055,2.032395,-2.879499,-22.653151,-0.506011,-3.469409,0.980039,-0.196440,0.001618,-0.030549
367,-0.049447,-3.572251,9.190550,-5.590009,1.790944,-2.743831,-22.867212,-0.483521,-3.580484,0.979642,-0.198263,0.002059,-0.031456
368,-0.032857,-3.508618,9.174314,-2.721800,1.323240,-1.809430,-23.004995,-0.465285,-3.670601,0.979379,-0.199434,0.002410,-0.032192
369,0.044146,-3.565142,9.219585,-0.612039,0.403295,-0.850724,-23.060143,-0.456141,-3.722660,0.979269,-0.199902,0.002594,-0.032620
370,0.039294,-3.457934,9.320590,8.945554,0.559556,0.485510,-22.921158,-0.443743,-3.734532,0.979509,-0.198710,0.002681,-0.032703
371,0.092516,-3.214011,9.357017,12.406050,-1.316719,2.483810,-22.565685,-0.436229,-3.684010,0.980136,-0.195670,0.002558,-0.032266
372,0.090960,-3.208665,9.377100,22.539974,-2.458813,5.604460,-21.984407,-0.443307,-3.535384,0.981156,-0.190700,0.002086,-0.031018
373,0.177485,-3.184523,9.465496,22.770832,-4.677022,7.273678,-21.231201,-0.474807,-3.292049,0.982449,-0.184258,0.001221,-0.028996
374,0.133129,-3.056485,9.422216,17.274076,-3.456912,8.629041,-20.566380,-0.506781,-2.996007,0.983571,-0.178565,0.000317,-0.026511
375,0.189120,-2.962088,9.437472,16.592283,-4.026717,8.999124,-20.004784,-0.521751,-2.677249,0.984503,-0.173745,-0.000425,-0.023797
376,0.199747,-2.930887,9.460247,17.892864,-4.557022,7.832994,-19.433014,-0.561730,-2.364875,0.985416,-0.168835,-0.001348,-0.021167
377,0.244358,-2.878319,9.534079,14.713338,-4.438885,6.252540,-18.892426,-0.626360,-2.093871,0.986244,-0.164190,-0.002392,-0.018920
378,0.161925,-2.780151,9.517774,14.135337,-2.219561,5.679053,-18.414171,-0.667898,-1.869925,0.986953,-0.160073,-0.003142,-0.017039
379,0.149273,-2.707651,9.568950,10.089121,-1.173429,5.054989,-18.012594,-0.665732,-1.682369,0.987535,-0.156608,-0.003439,-0.015409
380,0.137845,-2.762811,9.567546,8.919559,-0.783831,4.149450,-17.697569,-0.649718,-1.526365,0.987983,-0.153886,-0.003553,-0.014033
381,0.144328,-2.765811,9.604062,8.236800,-0.848703,3.330309,-17.413055,-0.638067,-1.399298,0.988377,-0.151427,-0.003655,-0.012913
382,0.067589,-2.652658,9.517211,9.201270,-0.160676,3.293967,-17.123638,-0.621368,-1.288865,0.988770,-0.148925,-0.003687,-0.011929
383,0.132309,-2.739209,9.579561,8.062760,-0.355508,1.978716,-16.836828,-0.603945,-1.202314,0.989149,-0.146446,-0.003677,-0.011150
384,0.168047,-2.756451,9.629897,7.367183,-0.595763,0.821022,-16.580183,-0.605732,-1.153050,0.989479,-0.144228,-0.003780,-0.010719
385,0.122781,-2.643192,9.572416,7.085598,0.040803,0.494096,-16.339560,-0.608409,-1.129398,0.989782,-0.142150,-0.003855,-0.010510
386,0.083656,-2.716269,9.615017,6.784644,1.069333,-0.038835,-16.108410,-0.588532,-1.127290,0.990068,-0.140151,-0.003707,-0.010460
387,0.093423,-2.738762,9.684776,6.215784,1.315699,-1.534836,-15.891376,-0.557564,-1.163475,0.990330,-0.138274,-0.003415,-0.010728
388,0.075984,-2.608284,9.566184,7.384912,1.657113,-1.638261,-15.664085,-0.524289,-1.227841,0.990598,-0.136309,-0.003072,-0.011238
389,0.065801,-2.769723,9.625663,4.051582,1.831283,-0.904637,-15.472983,-0.479655,-1.284276,0.990820,-0.134654,-0.002639,-0.011669
390,0.059318,-2.700483,9.710338,8.724096,1.156638,-0.967534,-15.259714,-0.439910,-1.327576,0.991067,-0.132807,-0.002267,-0.011992
391,0.001418,-2.586344,9.629730,10.388861,2.029727,1.558767,-14.941134,-0.386054,-1.331874,0.991434,-0.130046,-0.001829,-0.011962
392,0.009127,-2.697643,9.636638,7.345032,1.171322,2.672685,-14.645916,-0.316413,-1.277337,0.991774,-0.127484,-0.001318,-0.011408
393,0.012919,-2.678188,9.645818,9.783960,0.436308,2.934352,-14.360870,-0.267030,-1.193578,0.992098,-0.125011,-0.001010,-0.010625
394,-0.058251,-2.494906,9.603972,13.964866,0.297246,3.090592,-13.965475,-0.230612,-1.099184,0.992533,-0.121584,-0.000831,-0.009766
395,-0.147750,-2.549684,9.570422,10.607775,2.742235,5.529884,-13.556360,-0.147257,-0.971671,0.992973,-0.118032,-0.000275,-0.008572
396,-0.158212,-2.641242,9.536826,12.050483,0.393073,4.548792,-13.178980,-0.057498,-0.820435,0.993368,-0.114756,0.000323,-0.007170
397,-0.119441,-2.530779,9.550045,12.167099,-0.267229,3.980701,-12.775482,-0.023558,-0.682303,0.993774,-0.111256,0.000458,-0.005940
398,-0.070626,-2.471081,9.667318,7.338655,-0.378107,3.591707,-12.450432,-0.006509,-0.556772,0.994092,-0.108436,0.000470,-0.004836
399,-0.006210,-2.494905,9.645526,4.470297,-1.954464,3.396889,-12.253646,-0.019533,-0.434678,0.994281,-0.106729,0.000235,-0.003790
400,0.143345,-2.583533,9.644229,0.232783,-4.934264,0.813166,-12.175386,-0.116873,-0.341782,0.994355,-0.106053,-0.000698,-0.003074
401,0.281885,-2.585272,9.750860,2.742832,-4.765316,-0.689783,-12.125953,-0.274460,-0.305695,0.994399,-0.105627,-0.002100,-0.002906
402,0.189916,-2.822604,10.204762,0.266278,-4.275785,-2.622953,-12.075684,-0.433383,-0.328121,0.994440,-0.105195,-0.003460,-0.003245
403,0.073025,-2.832627,10.966770,3.034256,-5.448026,-5.117359,-12.019850,-0.618815,-0.420433,0.994481,-0.104718,-0.004986,-0.004214
404,-0.181941,-2.439414,12.260484,11.110476,-5.305781,-5.305157,-11.782440,-0.830004,-0.553487,0.994677,-0.102671,-0.006709,-0.005548
405,-0.472823,-2.691802,13.142090,19.658577,-1.870501,-5.660923,-11.267177,-0.983635,-0.708816,0.995109,-0.098214,-0.007935,-0.006998
406,-0.554507,-2.879425,14.076747,22.545084,0.175236,-4.086976,-10.561123,-1.042076,-0.863228,0.995680,-0.092095,-0.008362,-0.008338
407,-0.348702,-3.062808,14.271182,22.738234,-0.489329,-3.172402,-9.804279,-1.068522,-0.981529,0.996255,-0.085527,-0.008558,-0.009330
408,0.044165,-3.106931,14.142124,29.882401,-1.489201,-2.523077,-8.925623,-1.116444,-1.069805,0.996870,-0.077896,-0.008986,-0.010065
409,0.320720,-3.613547,12.697114,32.118633,0.725547,-3.620248,-7.890382,-1.143907,-1.169210,0.997522,-0.068897,-0.009256,-0.010865
410,0.790409,-3.066624,11.957726,30.187986,-1.927673,-5.899755,-6.848901,-1.184213,-1.324171,0.998087,-0.059844,-0.009625,-0.012151
411,0.978864,-2.736928,10.908392,31.397839,-1.324215,-7.653046,-5.817872,-1.263160,-1.542498,0.998553,-0.050889,-0.010325,-0.014002
412,0.712177,-2.448995,9.908013,36.607922,10.828238,-8.552943,-4.678645,-1.130257,-1.826024,0.998985,-0.040967,-0.009203,-0.016323
413,0.202656,-2.183280,10.310267,41.558762,32.642063,-6.228586,-3.372221,-0.424975,-2.123554,0.999386,-0.029487,-0.003161,-0.018631
414,-0.171940,-1.833441,10.571978,51.734489,38.015137,-4.239150,-1.818801,0.743457,-2.352916,0.999644,-0.015734,0.006812,-0.020426
415,-0.474153,0.106499,9.124739,81.114479,34.493500,-5.769732,0.390079,1.949577,-2.534485,0.999604,0.003779,0.016933,-0.022170
416,-0.753000,0.674825,9.109076,71.995766,29.986536,2.109714,2.939472,3.024836,-2.561074,0.999058,0.026223,0.025805,-0.023009
417,-0.689913,1.665087,8.912817,65.488518,15.901747,2.518300,5.236842,3.783057,-2.429244,0.998155,0.046348,0.031998,-0.022671
419,-0.993301,2.316458,7.317813,47.540691,4.225517,5.617330,7.131674,4.101672,-2.255970,0.997188,0.062847,0.034486,-0.021860
420,-0.830746,3.006619,6.700012,18.087173,-3.903091,7.323089,8.240432,4.078575,-2.039784,0.996580,0.072424,0.034209,-0.020299
421,-0.421698,1.897169,7.139250,-38.218792,-8.575342,10.529869,7.923166,3.831347,-1.773094,0.996898,0.069557,0.032276,-0.017736
422,-0.263892,1.781476,6.057259,-44.709061,-7.207193,1.031671,6.551329,3.547196,-1.613890,0.997764,0.057542,0.030092,-0.015822
423,-0.664825,1.163086,5.336245,-55.241337,4.395809,3.199837,4.889687,3.494581,-1.547917,0.998517,0.043045,0.029885,-0.014790
424,0.284042,0.391520,4.196389,-56.579906,-16.584305,2.599969,3.031508,3.284989,-1.463981,0.999148,0.026805,0.028313,-0.013524
425,0.294932,-0.266549,3.178550,-53.642117,-15.736888,-5.933056,1.190733,2.749104,-1.542244,0.999564,0.010710,0.023845,-0.013703
426,-0.370123,-1.015463,2.472088,-61.151875,12.694056,-13.287081,-0.737520,2.700837,-1.863037,0.999572,-0.006050,0.023668,-0.016101
427,0.163286,-1.146825,2.162741,-53.137047,-7.162284,-15.376498,-2.665199,2.779723,-2.339715,0.999239,-0.022749,0.024718,-0.019841
428,-0.092235,-1.118713,1.934508,-33.885159,3.113104,-22.073046,-4.144078,2.675769,-2.962026,0.998762,-0.035531,0.024260,-0.024978
429,-0.618716,-1.483351,2.582423,-21.138571,21.794502,-18.183552,-5.096480,3.037097,-3.664119,0.998188,-0.043576,0.027882,-0.030750
430,-0.268518,-1.096946,3.709512,8.885275,8.046364,-17.965496,-5.338323,3.478066,-4.308723,0.997802,-0.045375,0.032043,-0.036122
431,-0.434652,-0.600991,5.530952,28.964832,7.216306,-6.891555,-4.734133,3.696468,-4.743803,0.997827,-0.039911,0.033905,-0.039998
432,-0.900662,-0.224397,7.938294,27.442625,9.851732,-5.759391,-3.809722,3.965556,-4.975424,0.997958,-0.031688,0.035989,-0.042206
433,-1.067360,0.133641,10.809018,11.860353,5.853203,0.248123,-3.162499,4.221254,-5.083500,0.998003,-0.025916,0.038002,-0.043285
434,-1.312963,1.015168,13.172306,8.567717,6.110857,-4.251107,-2.827955,4.417068,-5.160879,0.997983,-0.022898,0.039596,-0.044025
435,-1.760938,1.053534,14.900528,-5.183441,1.779337,3.155009,-2.773426,4.547391,-5.185674,0.997941,-0.022362,0.040715,-0.044230
436,-1.247028,0.782007,15.958134,-12.743966,-6.129539,1.722094,-3.065590,4.479128,-5.100652,0.997936,-0.024964,0.040214,-0.043403
437,-1.303308,1.104260,15.808867,-3.151521,-9.189909,4.713953,-3.321337,4.230247,-4.979114,0.998003,-0.027331,0.038115,-0.042321
438,-0.106550,0.225921,15.613435,-10.717593,-17.643213,5.599764,-3.538560,3.793972,-4.780516,0.998149,-0.029451,0.034345,-0.040642
439,0.017130,-0.042144,14.605169,-9.629143,-18.243860,4.685241,-3.864907,3.208275,-4.570358,0.998283,-0.032566,0.029300,-0.038892
440,0.376705,-0.659954,14.359596,-17.547235,-15.810719,0.552529,-4.311359,2.648395,-4.442724,0.998308,-0.036681,0.024533,-0.037854
441,0.602675,-1.368198,13.723191,-23.223112,-13.581072,-6.429707,-4.993403,2.152448,-4.500280,0.998137,-0.042784,0.020460,-0.038400
442,0.263537,-1.970423,13.843524,-24.840599,-5.714274,-8.822426,-5.802377,1.808732,-4.722938,0.997779,-0.049915,0.017835,-0.040348
443,-0.089706,-1.655651,13.516447,-21.362873,0.037513,-13.081300,-6.583302,1.675464,-5.075323,0.997302,-0.056710,0.017124,-0.043360
444,-0.070881,-2.095085,13.924026,-33.350830,-3.615903,-11.075521,-7.506419,1.567269,-5.467453,0.996669,-0.064728,0.016753,-0.046693
445,-0.310823,-2.259859,13.156313,-32.854744,-6.268713,-12.107761,-8.618778,1.349480,-5.827114,0.995860,-0.074443,0.015547,-0.049798
446,-0.675650,-2.107837,12.955692,-35.255672,-4.240388,-7.352511,-9.760079,1.124870,-6.119573,0.994951,-0.084422,0.014307,-0.052348
447,-0.622514,-2.997277,12.141362,-44.447979,-1.112678,4.027876,-11.089012,1.026709,-6.157647,0.993891,-0.095997,0.014094,-0.052592
448,-0.874947,-3.272040,12.066326,-40.511436,6.616618,11.063701,-12.500348,1.166860,-5.929591,0.992731,-0.108195,0.015739,-0.050305
449,-0.917542,-3.671525,12.513669,-27.315691,12.829032,18.333851,-13.620769,1.592638,-5.524507,0.991774,-0.117770,0.019498,-0.046201
450,-0.669429,-4.306640,12.582675,-12.377943,13.851188,25.322260,-14.262347,2.198611,-4.924162,0.991268,-0.123186,0.024351,-0.040239
451,-0.495154,-3.968695,12.534438,30.805582,10.297086,23.511631,-13.925264,2.786153,-4.231387,0.991764,-0.120213,0.028590,-0.033689
452,-0.191736,-2.806150,12.251401,75.510353,-0.208505,18.453939,-12.120508,3.105288,-3.585221,0.993649,-0.104641,0.030232,-0.028236
453,0.243934,-1.432528,11.088194,105.090561,-12.974862,14.415778,-9.081466,2.987608,-3.003474,0.996234,-0.078433,0.028052,-0.024053
454,0.321441,-0.225944,9.528329,118.119041,-17.734686,11.349014,-5.341618,2.532445,-2.510681,0.998453,-0.046091,0.023089,-0.020849
455,-0.069882,1.675467,8.293575,120.648605,-12.999761,8.603312,-1.352911,2.040003,-2.148218,0.999600,-0.011468,0.018018,-0.018531
456,0.001569,2.171579,7.094354,78.361664,-12.904444,8.865663,1.968857,1.606433,-1.861125,0.999618,0.017404,0.013735,-0.016477
457,-0.309494,1.913777,6.704306,25.998848,-4.223375,8.233561,3.713841,1.308334,-1.589396,0.999308,0.032557,0.010961,-0.014231
458,-0.720549,1.692083,6.731467,-9.451818,5.374930,6.662417,3.995415,1.311800,-1.340308,0.999254,0.034989,0.011032,-0.012087
459,-0.319315,1.947732,6.541491,-30.753168,-0.292872,1.069100,3.328668,1.388719,-1.206472,0.999446,0.029168,0.011807,-0.010875
460,0.187080,1.361992,6.709300,-49.896431,-6.657195,0.756254,1.985167,1.272100,-1.181836,0.999733,0.017435,0.010920,-0.010503
461,-0.220974,0.838975,6.134706,-45.408794,2.824304,3.740182,0.398608,1.206772,-1.108700,0.999891,0.003580,0.010497,-0.009711
462,0.176278,0.445015,5.115189,-35.125134,-5.395963,-3.199451,-0.943089,1.163590,-1.098414,0.999869,-0.008132,0.010232,-0.009501
463,-0.090490,-0.145880,4.330509,-24.756306,-0.889748,-9.908779,-1.945207,1.054027,-1.315040,0.999750,-0.016867,0.009391,-0.011317
464,-0.293195,-0.666085,3.070120,-17.813190,8.027940,-7.700168,-2.660530,1.161762,-1.612879,0.999583,-0.023069,0.010461,-0.013835
465,-0.335115,-1.619158,1.560000,-45.360283,14.592067,-6.643376,-3.719649,1.524911,-1.872081,0.999258,-0.032230,0.013828,-0.015894
466,-0.088909,-1.963161,1.403676,-38.046509,0.496721,-6.680298,-5.116606,1.757918,-2.113122,0.998729,-0.044341,0.016145,-0.017734
467,-0.536696,-2.047434,1.799672,-22.660599,15.246904,-1.439348,-6.133329,2.005751,-2.274870,0.998237,-0.053132,0.018536,-0.018883
468,0.123727,-2.231157,2.255049,-23.505793,-6.866001,-3.741614,-6.906588,2.134626,-2.375184,0.997820,-0.059826,0.019837,-0.019563
469,0.037343,-2.220810,4.775935,-9.194684,-5.408955,-5.748496,-7.456094,1.911858,-2.507865,0.997530,-0.064632,0.018067,-0.020750
470,-0.601823,-0.789735,7.858996,9.059057,2.382008,-9.323979,-7.466325,1.829438,-2.750706,0.997488,-0.064700,0.017488,-0.022909
471,-1.221921,-0.415387,10.553717,-13.059277,7.978012,-13.210622,-7.546190,1.951885,-3.145941,0.997343,-0.065304,0.018795,-0.026266
472,-0.640683,-0.265794,13.460671,-26.806173,-2.190978,-14.521427,-8.226892,1.983388,-3.617434,0.996817,-0.071140,0.019518,-0.030236
473,-0.780512,0.108189,15.614375,-19.795008,-6.547523,-10.247227,-9.015879,1.777040,-4.004447,0.996221,-0.078000,0.018195,-0.033608
474,-1.049874,0.123620,15.983251,-6.649697,-5.351401,-6.254730,-9.463366,1.537066,-4.244465,0.995860,-0.081931,0.016413,-0.035796
475,-0.449004,-0.320192,16.015793,-5.632715,-10.471562,-2.394030,-9.670434,1.253173,-4.342975,0.995701,-0.083812,0.014083,-0.036832
476,0.239236,-0.585122,15.400358,7.189131,-16.054747,-0.201604,-9.643798,0.810019,-4.311540,0.995753,-0.083732,0.010201,-0.036889
477,0.111834,-0.614327,14.250330,11.733135,-10.292633,0.401951,-9.327564,0.377438,-4.236280,0.996013,-0.081131,0.006286,-0.036570
478,0.295636,-0.918204,13.367355,2.349548,-7.726216,3.482372,-9.092380,0.091331,-4.124587,0.996210,-0.079183,0.003646,-0.035810
479,0.696447,-1.410803,13.072713,-8.218407,-8.228057,2.441880,-9.190192,-0.155386,-3.984716,0.996178,-0.080112,0.001434,-0.034763
480,0.685406,-2.081761,13.185301,-14.309236,-4.514809,2.071174,-9.566157,-0.352555,-3.875713,0.995934,-0.083439,-0.000245,-0.033954
481,0.628212,-2.049683,13.811162,-20.178614,-0.154260,-3.597835,-10.140849,-0.433500,-3.887281,0.995495,-0.088456,-0.000769,-0.034118
482,0.431133,-2.442690,14.343412,-27.813816,4.055695,-3.630954,-10.939796,-0.391351,-4.017449,0.994818,-0.095383,-0.000056,-0.035217
483,0.321278,-3.030043,14.212405,-32.847015,5.031897,-5.612881,-11.949729,-0.273504,-4.198275,0.993888,-0.104109,0.001441,-0.036678
484,-0.051800,-3.510942,13.691249,-35.553646,8.858218,-2.768802,-13.089048,-0.077717,-4.384813,0.992753,-0.113918,0.003687,-0.038083
485,0.105313,-3.445417,12.612799,-28.619720,4.578085,-4.311733,-14.158619,0.111906,-4.551902,0.991598,-0.123107,0.005863,-0.039289
486,-0.236633,-3.698567,11.327450,-26.363369,3.619098,1.918107,-15.075087,0.234145,-4.625230,0.990561,-0.130987,0.007317,-0.039735
487,-0.240229,-3.549579,10.494847,-23.811077,2.410734,3.651823,-15.911010,0.355373,-4.562551,0.989603,-0.138171,0.008578,-0.038993
488,-0.113642,-3.561360,10.105659,-31.941843,-3.624800,5.461753,-16.839220,0.378646,-4.411137,0.988503,-0.146187,0.008901,-0.037586
489,0.411260,-4.054892,10.075002,-33.059132,-7.955657,7.820998,-17.921041,0.260440,-4.142602,0.987161,-0.155571,0.007873,-0.035348
490,-0.281697,-4.584823,11.535603,-10.354305,5.210500,11.807827,-18.642921,0.319357,-3.817899,0.986259,-0.161791,0.008144,-0.032420
491,0.232275,-4.390075,11.957676,41.550217,0.037920,10.685382,-18.120258,0.520060,-3.488906,0.987078,-0.157260,0.009273,-0.029347
492,0.280538,-3.596159,11.665808,85.059586,-3.196521,11.367481,-16.007029,0.576330,-3.121225,0.989899,-0.139045,0.008770,-0.026269
493,0.257915,-2.027226,11.220218,115.619034,0.171153,11.155253,-12.660513,0.619427,-2.744746,0.993618,-0.110097,0.008012,-0.023208
494,-0.115172,-0.246645,10.387590,131.161072,0.869993,7.909590,-8.548517,0.693807,-2.436797,0.996985,-0.074384,0.007621,-0.020753
495,-0.120944,0.982157,7.992165,111.997963,-4.680202,9.905446,-4.498150,0.663144,-2.135102,0.999044,-0.039128,0.006513,-0.018389
496,-0.198304,1.615493,6.632669,60.554577,-1.608176,8.142704,-1.622497,0.575760,-1.827853,0.999761,-0.014076,0.005249,-0.015877
497,-0.098438,1.974990,6.236105,14.278267,-2.466538,7.394707,-0.373412,0.513130,-1.568112,0.999891,-0.003197,0.004522,-0.013669
498,-0.430242,2.082948,6.237907,-13.345243,3.215264,12.086337,-0.354944,0.528480,-1.243215,0.999926,-0.003047,0.004645,-0.010834
499,-0.082334,1.978280,6.212892,-36.531597,-3.410623,13.584903,-1.182119,0.531621,-0.815395,0.999911,-0.010282,0.004712,-0.007067
500,0.896113,1.667878,6.369224,-49.910603,-18.289879,9.831448,-2.620361,0.183756,-0.413811,0.999731,-0.022859,0.001686,-0.003574
501,0.502422,1.047111,6.483307,-48.484497,-9.332242,9.247211,-4.260658,-0.255885,-0.070125,0.999306,-0.037174,-0.002209,-0.000695
502,0.474805,0.332038,4.662839,-29.595600,-12.017577,6.503001,-5.563670,-0.587742,0.222827,0.998807,-0.048522,-0.005217,0.001693
503,0.473378,-0.621227,3.299744,-29.944801,-15.616041,-2.841429,-6.557560,-1.039401,0.331401,0.998319,-0.057165,-0.009221,0.002368
504,0.130452,-1.181771,2.367684,-35.780048,-5.738624,-3.778243,-7.651790,-1.405541,0.265603,0.997696,-0.066691,-0.012393,0.001494
505,-0.309823,-1.299685,1.050953,-48.343304,15.714144,3.957019,-9.053307,-1.240466,0.245320,0.996822,-0.078895,-0.010960,0.001280
506,-0.238201,-1.673156,0.953227,-48.652203,8.227703,3.816943,-10.670781,-0.825660,0.306762,0.995640,-0.092964,-0.007423,0.001995
507,0.315071,-1.853082,2.342353,-15.508319,-13.387464,-2.603756,-11.740497,-0.906230,0.342430,0.994723,-0.102249,-0.008172,0.002164
508,0.264239,-1.593328,4.223433,9.243703,-5.949098,-4.338693,-11.844038,-1.245279,0.293079,0.994604,-0.103141,-0.011073,0.001423
509,-0.223371,-1.079486,6.323627,26.852383,5.389430,-3.059362,-11.239912,-1.278973,0.173553,0.995132,-0.097906,-0.011256,0.000414
510,-0.342987,-1.112300,9.649326,10.682178,5.776580,-7.541982,-10.610062,-1.129623,-0.035780,0.995668,-0.092457,-0.009787,-0.001222
511,-0.351997,-0.617824,11.969488,9.069512,4.348095,-4.177119,-10.276679,-0.999528,-0.258640,0.995939,-0.089577,-0.008485,-0.003029
512,-0.530803,-0.168877,13.878413,1.588849,4.409200,-2.684746,-10.096801,-0.876042,-0.397028,0.996083,-0.088021,-0.007310,-0.004124
513,-0.374928,-0.582790,15.077108,-9.358130,-0.274462,2.976528,-10.226194,-0.807409,-0.404471,0.995988,-0.089144,-0.006703,-0.004143
514,0.370184,-1.006683,15.607848,-16.178993,-5.770258,-0.477167,-10.652720,-0.899005,-0.345332,0.995645,-0.092849,-0.007532,-0.003729
515,0.449892,-0.825002,14.999008,-1.216650,-6.775512,-0.343740,-10.943132,-1.106856,-0.319737,0.995391,-0.095374,-0.009349,-0.003698
516,0.783379,-1.451547,14.571266,-10.241334,-8.238153,-6.513992,-11.132699,-1.374371,-0.384271,0.995203,-0.097031,-0.011611,-0.004501
517,0.268636,-1.802358,13.695488,-9.618866,-1.926072,-5.437328,-11.459620,-1.579469,-0.546331,0.994891,-0.099892,-0.013238,-0.006119
518,0.596038,-2.002248,12.845123,-7.830829,-2.569620,-6.062983,-11.745598,-1.691402,-0.718940,0.994614,-0.102399,-0.014040,-0.007750
519,0.541703,-2.562517,12.301617,-10.537400,-1.687560,-3.883461,-12.047233,-1.794970,-0.866624,0.994316,-0.105040,-0.014783,-0.009164
520,0.420036,-3.034421,12.101801,-14.720915,0.669599,-1.478956,-12.465550,-1.830594,-0.950349,0.993914,-0.108682,-0.014979,-0.009977
522,0.183066,-2.794557,12.370964,-13.070273,4.016881,-3.279854,-12.925774,-1.771909,-1.044837,0.993469,-0.112682,-0.014337,-0.010799
523,0.332582,-3.609623,13.555536,-21.232845,3.911377,-4.740792,-13.492668,-1.673719,-1.205138,0.992897,-0.117607,-0.013268,-0.012158
524,-0.202534,-3.783792,13.696380,-13.363854,7.281282,-6.455974,-14.062920,-1.537028,-1.430964,0.992292,-0.122560,-0.011782,-0.014034
525,-0.280230,-3.775574,13.313802,-5.664453,6.749184,-5.208573,-14.373864,-1.357871,-1.676729,0.991946,-0.125257,-0.009925,-0.015998
526,-0.040916,-3.827027,12.867464,-0.776756,4.208760,-6.864651,-14.475801,-1.231016,-1.917065,0.991813,-0.126143,-0.008548,-0.017948
527,0.273781,-3.587193,11.651443,9.994246,0.150209,-4.645987,-14.317779,-1.208255,-2.120970,0.991955,-0.124787,-0.008153,-0.019676
528,0.275956,-2.894816,10.228302,16.422117,-1.953831,-4.215666,-13.874522,-1.273185,-2.256870,0.992399,-0.120969,-0.008648,-0.020890
529,0.635077,-2.701830,9.387237,3.143665,-9.716030,-4.630168,-13.546061,-1.496988,-2.353995,0.992695,-0.118168,-0.010547,-0.021936
530,0.686824,-2.559773,9.067910,-6.462908,-5.119845,-5.410484,-13.598324,-1.776676,-2.458284,0.992580,-0.118678,-0.012852,-0.023133
531,0.530972,-2.437566,9.586091,-19.463919,-0.634222,-4.537632,-14.026068,-1.909450,-2.596253,0.992080,-0.122421,-0.013768,-0.024516
532,0.515018,-3.309157,10.728148,-31.250935,2.027858,0.033561,-14.868731,-1.905806,-2.674511,0.991136,-0.129722,-0.013467,-0.025289
533,0.473706,-4.591311,11.792858,-17.148096,3.844363,3.838645,-15.676535,-1.794694,-2.637787,0.990224,-0.136681,-0.012372,-0.024934
534,0.145316,-3.641188,11.890605,42.412086,6.221843,8.097897,-15.259828,-1.580172,-2.490459,0.990778,-0.133027,-0.010779,-0.023368
535,0.335596,-3.316457,12.397482,68.717644,2.754330,13.479857,-13.415870,-1.346757,-2.178215,0.992880,-0.117001,-0.009450,-0.020248
536,0.538463,-2.428251,11.577990,96.535812,-0.759644,14.612817,-10.673042,-1.216429,-1.726649,0.995482,-0.093149,-0.009167,-0.015988
537,0.542543,-0.858540,9.734090,113.026466,-2.622558,10.657992,-7.192220,-1.207335,-1.301273,0.997904,-0.062835,-0.009802,-0.011993
538,-0.121259,1.222968,8.147889,109.320671,4.774471,9.635099,-3.497395,-1.141653,-0.967692,0.999447,-0.030597,-0.009700,-0.008744
539,0.385599,1.085773,7.200015,51.328346,-2.315179,4.667549,-0.827123,-1.092051,-0.733271,0.999908,-0.007278,-0.009483,-0.006467
540,0.108361,1.897821,6.235820,34.152550,2.895784,0.580429,0.595212,-1.082134,-0.644647,0.999926,0.005141,-0.009472,-0.005576
541,-0.250927,2.082250,6.145965,4.367608,9.614252,0.069337,1.236929,-0.874164,-0.631042,0.999898,0.010752,-0.007687,-0.005424
542,-0.309218,2.079161,6.535342,-21.018944,8.944552,2.090853,0.958902,-0.565589,-0.589881,0.999940,0.008342,-0.004979,-0.005106
543,0.367934,2.105251,6.450684,-33.204212,-3.834107,4.274587,0.054195,-0.481332,-0.483627,0.999982,0.000455,-0.004202,-0.004218
544,0.244012,1.876653,6.960260,-41.957817,-1.580040,7.588733,-1.200315,-0.569637,-0.285940,0.999930,-0.010487,-0.004945,-0.002547
545,0.381755,0.880836,6.485120,-42.013783,-2.864758,8.460940,-2.602417,-0.634963,-0.015898,0.999727,-0.022709,-0.005536,-0.000265
546,0.585194,-0.298879,5.605750,-35.044281,-9.391260,4.705890,-3.889470,-0.826540,0.214613,0.999397,-0.033921,-0.007272,0.001627
547,0.065014,-0.283912,4.168805,-11.430355,0.481408,0.590198,-4.665650,-0.967833,0.312981,0.999133,-0.040680,-0.008550,0.002385
548,0.734021,-1.763955,3.661535,-30.880331,-15.133057,-5.610878,-5.369612,-1.218297,0.251265,0.998845,-0.046816,-0.010722,0.001692
549,-0.121257,-2.288342,2.540185,-29.798929,6.604729,-7.031270,-6.376441,-1.381079,0.055704,0.998380,-0.055606,-0.012060,-0.000185
550,-0.267991,-2.304629,1.917094,-26.923449,10.007805,-6.657549,-7.316423,-1.133090,-0.202298,0.997911,-0.063819,-0.009755,-0.002393
551,-0.222314,-2.369776,2.673504,-24.211870,6.117808,-6.964960,-8.164052,-0.897311,-0.463201,0.997422,-0.071213,-0.007523,-0.004589
552,-0.235931,-2.539804,4.419854,-11.304771,5.575388,-5.935500,-8.752446,-0.736143,-0.704740,0.997042,-0.076342,-0.005936,-0.006622
553,-0.576671,-1.799746,5.719035,6.460630,8.294395,-5.045953,-8.830788,-0.535494,-0.920820,0.996986,-0.077021,-0.004040,-0.008371
554,-0.216710,-1.547396,8.376753,-3.055820,-0.349970,-3.668676,-8.772717,-0.426595,-1.084343,0.997017,-0.076513,-0.002988,-0.009719
555,-0.198359,-1.022285,11.013779,-8.888660,-2.143709,-6.766545,-8.970382,-0.494583,-1.249818,0.996865,-0.078243,-0.003450,-0.011211
556,-0.295466,-0.261419,12.698239,-7.387628,-2.227689,-5.060480,-9.239896,-0.597744,-1.432933,0.996654,-0.080604,-0.004192,-0.012884
557,0.264464,-0.747857,13.972880,-17.814264,-9.780231,-4.206998,-9.658430,-0.820529,-1.552453,0.996325,-0.084273,-0.005994,-0.014102
558,-0.036369,-0.960028,14.942179,-22.113234,-6.848208,-2.136560,-10.322827,-1.111953,-1.608554,0.995788,-0.090084,-0.008400,-0.014852
559,0.281600,-0.687829,14.851634,-13.783801,-10.162197,-0.999843,-10.921092,-1.400313,-1.607424,0.995273,-0.095314,-0.010828,-0.015125
560,0.736919,-1.443365,14.806950,-20.347908,-12.320386,1.064499,-11.491937,-1.767733,-1.533824,0.994747,-0.100303,-0.014007,-0.014860
561,0.613083,-2.184482,14.153308,-17.160135,-8.404272,4.422080,-12.122383,-2.087175,-1.373450,0.994150,-0.105783,-0.016845,-0.013839
562,1.033401,-2.358959,13.575097,-15.544439,-8.947662,2.722152,-12.674236,-2.344203,-1.194804,0.993604,-0.110561,-0.019179,-0.012618
563,1.165059,-2.431028,12.748960,-12.095655,-6.734995,2.966715,-13.141410,-2.577748,-1.043930,0.993115,-0.114599,-0.021302,-0.011622
564,1.287704,-3.050903,12.117101,-16.401581,-3.873593,1.885390,-13.621881,-2.731066,-0.924195,0.992606,-0.118747,-0.022706,-0.010832
565,1.038747,-3.003206,11.418981,-13.065822,-0.717457,0.562056,-14.115791,-2.795476,-0.866052,0.992076,-0.123015,-0.023279,-0.010495
566,1.216958,-2.904824,10.879242,-13.946567,-1.991367,-3.058274,-14.564556,-2.849460,-0.895130,0.991572,-0.126907,-0.023673,-0.010898
567,0.828024,-3.025705,10.544459,-13.398838,1.144082,-2.263008,-15.016196,-2.885650,-0.977444,0.991048,-0.130833,-0.023848,-0.011744
568,0.532777,-3.192191,10.848217,-14.297772,2.732337,-1.221818,-15.474174,-2.838585,-1.050453,0.990520,-0.134806,-0.023309,-0.012415
569,0.218359,-3.185275,11.779041,-14.867528,4.525575,-0.175873,-15.957585,-2.728478,-1.105648,0.989961,-0.138988,-0.022238,-0.012857
570,-0.118568,-3.577734,13.015861,-17.601076,6.384434,0.970836,-16.496975,-2.550211,-1.143713,0.989329,-0.143644,-0.020590,-0.013067
571,-0.401419,-4.311615,14.091660,-20.123356,7.042701,2.013315,-17.124987,-2.321642,-1.160791,0.988570,-0.149053,-0.018524,-0.013031
572,-0.466679,-4.218222,14.077967,-7.215364,5.482199,3.739957,-17.581755,-2.093844,-1.131508,0.988012,-0.152974,-0.016547,-0.012549
573,-0.080257,-4.230428,13.582030,0.148400,0.985754,4.000300,-17.702765,-1.952116,-1.041004,0.987883,-0.153996,-0.015433,-0.011596
574,0.376554,-3.989734,12.130232,9.573203,-3.768984,2.250982,-17.544659,-1.964843,-0.927556,0.988103,-0.152618,-0.015710,-0.010613
575,0.679181,-3.569124,10.192123,15.872293,-6.310446,0.154508,-17.123758,-2.113338,-0.839128,0.988641,-0.148982,-0.017145,-0.009985
576,0.997601,-2.823302,8.790863,15.377417,-9.176367,-3.879681,-16.603580,-2.378436,-0.823630,0.989261,-0.144500,-0.019499,-0.010107
577,0.999472,-2.335253,8.405718,7.460548,-6.569101,-7.550851,-16.218227,-2.684099,-0.932183,0.989670,-0.141204,-0.022039,-0.011355
578,0.710092,-2.100503,8.229529,-4.890326,-0.853068,-10.486574,-16.163137,-2.886899,-1.186554,0.989665,-0.140789,-0.023484,-0.013789
579,0.773864,-2.623051,8.729700,-23.756397,1.771167,-11.239590,-16.622734,-2.974653,-1.538541,0.989024,-0.144836,-0.023741,-0.017032
580,0.763575,-3.088449,10.450891,-23.427940,3.271402,-11.341215,-17.389109,-3.004782,-1.923309,0.987963,-0.151529,-0.023378,-0.020548
581,0.320660,-2.819472,11.953809,23.328249,9.527372,-5.509605,-17.373739,-2.885070,-2.255396,0.987949,-0.151447,-0.021909,-0.023250
582,0.050435,-3.749790,12.371147,47.336300,11.977696,-2.225362,-16.185459,-2.578026,-2.482119,0.989490,-0.141189,-0.019218,-0.024604
583,0.777546,-3.349268,12.321467,74.335052,4.911561,-2.117426,-14.151991,-2.324760,-2.625447,0.991862,-0.123589,-0.017305,-0.025228
584,0.175037,-2.501365,12.075869,100.491936,8.520700,2.121764,-11.237721,-2.105969,-2.673050,0.994715,-0.098294,-0.016000,-0.025007
585,-0.051247,-0.959488,9.617510,112.084663,9.640679,5.998831,-7.700661,-1.784652,-2.589850,0.997343,-0.067476,-0.014017,-0.023591
586,0.374504,-0.320666,7.979490,73.369698,1.589042,2.414840,-4.616547,-1.582903,-2.470718,0.998849,-0.040560,-0.012930,-0.022096
587,0.293667,0.920639,7.203190,51.814507,0.456586,4.117203,-2.534395,-1.542444,-2.362898,0.999446,-0.022386,-0.012998,-0.020909
588,-0.380233,1.686783,6.267935,32.862949,9.314582,6.138377,-1.127743,-1.373828,-2.197153,0.999694,-0.010069,-0.011797,-0.019288
589,-0.211401,1.837848,6.086880,0.848897,4.122306,7.462632,-0.570762,-1.146148,-1.974923,0.999788,-0.005152,-0.009914,-0.017282
590,-0.082907,1.862489,7.061367,-25.793495,0.868684,7.359476,-0.991337,-1.059030,-1.729321,0.999805,-0.008789,-0.009110,-0.015169
591,0.107313,1.652495,6.966858,-37.172836,-3.320597,9.504114,-2.046073,-1.091956,-1.447520,0.999713,-0.017973,-0.009301,-0.012799
592,0.635875,1.716833,6.916649,-37.372074,-11.004615,11.494461,-3.295994,-1.314060,-1.087059,0.999473,-0.028865,-0.011189,-0.009811
593,0.424981,0.709872,7.633365,-40.305523,-5.322739,13.385946,-4.601417,-1.557161,-0.655245,0.999082,-0.040217,-0.013348,-0.006258
594,0.773549,0.289242,6.070043,-14.231484,-11.541419,3.457763,-5.518991,-1.812383,-0.350139,0.998709,-0.048186,-0.015650,-0.003813
595,0.359831,-0.144851,4.819241,1.672956,-3.947732,-1.880127,-5.730328,-2.066670,-0.299596,0.998582,-0.050024,-0.017881,-0.003512
596,0.416537,-1.003422,3.728352,0.085432,-5.932027,-4.512560,-5.697730,-2.241089,-0.389468,0.998564,-0.049758,-0.019363,-0.004366
597,0.056660,-1.722339,2.694529,-11.393660,2.163787,-9.596687,-5.877136,-2.327300,-0.617245,0.998459,-0.051363,-0.020005,-0.006419
598,0.176486,-2.168236,1.798192,-25.693487,-3.007803,-11.264059,-6.481275,-2.378816,-0.961496,0.998141,-0.056689,-0.020249,-0.009549
599,0.239617,-2.015134,2.696844,-12.015096,-3.079767,-9.915491,-7.095098,-2.521590,-1.300495,0.997763,-0.062107,-0.021258,-0.012686
600,0.287307,-2.484631,4.151943,-9.999537,-0.128538,-6.598100,-7.450053,-2.609196,-1.567136,0.997515,-0.065256,-0.021829,-0.015122
601,0.026541,-1.911032,6.069573,2.078565,5.283438,-7.207615,-7.571323,-2.554132,-1.806651,0.997423,-0.066350,-0.021195,-0.017198
602,0.029787,-1.478936,8.288279,-0.227489,5.368467,-6.498163,-7.529741,-2.407934,-2.056562,0.997436,-0.066013,-0.019785,-0.019283
603,-0.244970,-0.825148,10.549503,-4.256734,5.735388,-4.167233,-7.596332,-2.247916,-2.257318,0.997392,-0.066602,-0.018264,-0.020950
604,-0.596928,-0.800043,12.265640,-11.199233,4.995107,1.382934,-7.851323,-2.077007,-2.327431,0.997259,-0.068804,-0.016688,-0.021499
605,-0.075819,-0.744204,13.317793,-15.505659,-6.077441,5.425542,-8.300634,-2.079067,-2.212559,0.997002,-0.072697,-0.016694,-0.020566
606,0.345319,-0.873018,14.248179,-18.316376,-9.219641,4.433125,-8.872076,-2.306770,-2.012218,0.996621,-0.077671,-0.018708,-0.019060
607,0.028343,-1.088328,14.620344,-15.028380,-8.366955,9.679668,-9.439701,-2.558648,-1.733208,0.996219,-0.082590,-0.021004,-0.016906
608,1.053965,-1.601157,14.318648,-18.456499,-13.728976,6.876383,-10.013496,-2.875260,-1.398652,0.995770,-0.087544,-0.023926,-0.014344
609,1.074127,-2.134295,14.179149,-21.218494,-10.795458,8.063807,-10.691878,-3.232423,-1.079970,0.995185,-0.093392,-0.027203,-0.012007
610,1.140412,-2.569581,13.772502,-20.165491,-7.075978,5.605561,-11.397964,-3.481067,-0.798619,0.994553,-0.099464,-0.029531,-0.009948
611,1.072333,-2.717513,12.691791,-15.496568,-5.220196,8.160643,-12.008858,-3.635057,-0.531741,0.993987,-0.104698,-0.031057,-0.007930
612,1.570383,-3.209001,11.916659,-20.349478,-6.032500,5.450646,-12.623137,-3.770074,-0.269516,0.993390,-0.109952,-0.032436,-0.005953
613,0.990702,-3.255310,11.329525,-17.873152,-0.342936,6.155060,-13.274310,-3.830083,-0.056752,0.992741,-0.115533,-0.033136,-0.004354
614,1.098308,-3.252134,10.680637,-16.686033,0.604829,2.718139,-13.859715,-3.791157,0.086548,0.992154,-0.120563,-0.032927,-0.003242
615,0.763475,-3.153377,10.233172,-14.571654,4.005634,4.197744,-14.386734,-3.688379,0.179782,0.991620,-0.125103,-0.032125,-0.002474
616,0.361075,-3.252976,10.204052,-15.953887,7.156032,6.907729,-14.903722,-3.461640,0.312234,0.991109,-0.129552,-0.030302,-0.001217
617,0.183041,-3.110719,9.959967,-11.660084,6.939270,8.582519,-15.374821,-3.167507,0.500516,0.990641,-0.133596,-0.027974,0.000630
618,0.071029,-2.988518,9.763762,-8.641343,6.145497,10.128099,-15.725978,-2.873931,0.742911,0.990288,-0.136598,-0.025727,0.002990
619,0.032418,-3.088771,9.694729,-7.269226,4.809012,11.316520,-16.005243,-2.600701,1.037179,0.989995,-0.138973,-0.023731,0.005801
620,0.119245,-2.886550,9.497125,-3.955400,5.927993,10.879657,-16.205526,-2.326215,1.343242,0.989779,-0.140675,-0.021746,0.008741
621,0.154093,-2.900842,9.471400,-4.603611,3.464048,9.049669,-16.358725,-2.082900,1.618467,0.989602,-0.141981,-0.019998,0.011392
622,0.393365,-2.856133,9.502991,-4.328224,-2.017448,5.321306,-16.515554,-1.991979,1.841469,0.989395,-0.143310,-0.019508,0.013404
623,0.370872,-2.810859,9.599481,-2.783265,-1.734907,3.224466,-16.639563,-2.011265,1.995849,0.989218,-0.144351,-0.019883,0.014691
625,0.442043,-2.693327,9.569047,-3.970869,-1.462856,0.440327,-16.754749,-2.044763,2.069707,0.989058,-0.145327,-0.020281,0.015266
626,0.479884,-2.681839,9.594409,-6.438789,-1.050397,-2.483735,-16.927515,-2.094692,2.049232,0.988834,-0.146812,-0.020708,0.014994
627,0.470175,-2.666131,9.587087,-6.137492,0.216921,-4.106066,-17.133392,-2.140108,1.948220,0.988575,-0.148599,-0.020996,0.014027
628,0.458087,-2.641751,9.561144,-5.782009,1.195769,-5.763213,-17.325897,-2.166311,1.784035,0.988339,-0.150285,-0.021030,0.012541
629,0.513833,-2.587411,9.523227,-5.325172,1.529030,-7.259937,-17.502630,-2.187906,1.563187,0.988126,-0.151847,-0.020943,0.010575
630,0.483538,-2.592740,9.543296,-4.035321,2.339860,-7.087602,-17.649162,-2.198615,1.315571,0.987949,-0.153154,-0.020718,0.008399
631,0.485051,-2.549569,9.622634,-3.742856,2.594699,-7.079194,-17.769232,-2.192068,1.065456,0.987805,-0.154234,-0.020334,0.006230
632,0.487008,-2.655599,9.700882,-3.762289,2.764795,-7.679387,-17.884333,-2.182329,0.803757,0.987663,-0.155273,-0.019901,0.003968
633,0.436505,-2.600078,9.656094,-1.690537,3.571404,-7.494831,-17.964861,-2.159681,0.530433,0.987564,-0.156016,-0.019337,0.001629
634,0.445483,-2.661504,9.752923,-1.747262,3.469279,-7.204781,-18.012106,-2.123691,0.260999,0.987506,-0.156470,-0.018660,-0.000652
635,0.482531,-2.732411,9.747012,-0.391143,2.875395,-6.414282,-18.038595,-2.093377,0.012266,0.987471,-0.156739,-0.018058,-0.002758
636,0.443294,-2.843818,9.682572,1.052215,3.145523,-4.878213,-18.019962,-2.056184,-0.197894,0.987496,-0.156612,-0.017451,-0.004515
637,0.358095,-2.810315,9.629494,1.419563,3.545790,-3.361473,-17.972950,-1.992525,-0.363058,0.987562,-0.156231,-0.016679,-0.005845
638,0.334922,-2.806925,9.594603,0.503402,2.942958,-2.515729,-17.936596,-1.919833,-0.489653,0.987616,-0.155935,-0.015882,-0.006832
639,0.215451,-2.714321,9.498347,0.346154,3.212760,-1.494741,-17.919310,-1.842800,-0.584885,0.987645,-0.155798,-0.015090,-0.007545
640,0.169324,-2.582344,9.423575,-0.640084,2.865062,-1.619057,-17.921682,-1.762386,-0.665474,0.987648,-0.155827,-0.014287,-0.008131
641,0.112388,-2.538864,9.473413,-2.166514,2.575032,-1.627804,-17.966063,-1.692806,-0.744931,0.987591,-0.156216,-0.013576,-0.008727
642,0.149183,-2.424949,9.384885,-1.276832,1.250364,-1.340522,-18.021502,-1.647460,-0.811716,0.987516,-0.156700,-0.013089,-0.009247
643,0.184126,-2.410613,9.460076,-1.123098,0.555716,-0.711197,-18.060301,-1.629427,-0.853571,0.987462,-0.157039,-0.012873,-0.009587
644,0.270530,-2.384335,9.537861,-0.585673,-0.679030,-0.168499,-18.088406,-1.635931,-0.866879,0.987422,-0.157283,-0.012909,-0.009714
645,0.305004,-2.471322,9.671603,-0.688221,-1.570840,1.243785,-18.110462,-1.666008,-0.838185,0.987390,-0.157471,-0.013205,-0.009511
646,0.333892,-2.482161,9.622867,0.216616,-2.412113,2.774154,-18.120800,-1.708280,-0.753862,0.987376,-0.157552,-0.013685,-0.008843
647,0.308162,-2.551614,9.698237,-0.783328,-2.713247,4.334321,-18.134443,-1.752607,-0.614629,0.987361,-0.157653,-0.014257,-0.007706
648,0.235304,-2.685247,9.626010,-1.858053,-2.927170,6.644437,-18.184734,-1.784895,-0.411365,0.987300,-0.158062,-0.014812,-0.006006
649,0.211118,-2.835528,9.553259,-2.616796,-3.497848,8.746324,-18.267992,-1.806367,-0.134091,0.987194,-0.158742,-0.015377,-0.003657
650,0.276944,-2.888558,9.511678,-3.133657,-4.812764,9.062512,-18.374193,-1.844552,0.191382,0.987047,-0.159611,-0.016156,-0.000921
651,0.376409,-3.044491,9.525656,-3.923034,-6.200383,9.028123,-18.503143,-1.923308,0.535645,0.986855,-0.160668,-0.017316,0.001915
652,0.484825,-3.141058,9.465669,-2.972149,-7.178814,8.542884,-18.630159,-2.041426,0.884452,0.986649,-0.161697,-0.018828,0.004732
653,0.632763,-3.147618,9.488372,-1.677870,-7.998785,6.474593,-18.719471,-2.200947,1.202760,0.986483,-0.162395,-0.020656,0.007231
654,0.679290,-3.256784,9.460549,-1.206242,-9.915066,3.767472,-18.778002,-2.428821,1.460551,0.986346,-0.162820,-0.022987,0.009115
655,0.668368,-3.348361,9.408507,-1.006673,-7.536983,2.773293,-18.823736,-2.669036,1.657664,0.986223,-0.163136,-0.025339,0.010459
656,0.640090,-3.297873,9.382451,1.172414,-4.818132,1.335638,-18.827293,-2.841839,1.789083,0.986173,-0.163109,-0.027013,0.011342
657,0.642263,-3.286511,9.387043,3.508600,-1.499753,0.439697,-18.752407,-2.932015,1.851062,0.986256,-0.162434,-0.027869,0.011764
658,0.593181,-3.383533,9.326248,2.816901,-0.764213,-0.775207,-18.647335,-2.969571,1.857840,0.986396,-0.161521,-0.028191,0.011795
659,0.577556,-3.260535,9.316400,5.059481,0.166190,-2.898337,-18.513205,-2.998538,1.802907,0.986584,-0.160375,-0.028350,0.011314
660,0.542034,-3.214956,9.290463,5.462653,1.377059,-4.008035,-18.331684,-3.010524,1.685403,0.986846,-0.158839,-0.028273,0.010331
661,0.467066,-3.200003,9.270150,6.049083,3.132981,-4.109788,-18.131870,-2.981474,1.533163,0.987140,-0.157160,-0.027795,0.009108
662,0.374098,-3.134927,9.243487,6.461930,5.083602,-4.154651,-17.914476,-2.893870,1.359562,0.987467,-0.155341,-0.026788,0.007784
663,0.345701,-3.040107,9.317824,6.834757,5.481407,-3.867761,-17.683929,-2.767092,1.178185,0.987814,-0.153411,-0.025437,0.006445
664,0.324418,-3.062611,9.370752,6.358369,5.086946,-2.540457,-17.456745,-2.631406,1.023017,0.988150,-0.151502,-0.024049,0.005337
665,0.296882,-2.970274,9.386306,7.900693,4.429306,-1.382236,-17.214199,-2.499471,0.913235,0.988497,-0.149446,-0.022756,0.004614
666,0.362243,-2.912060,9.410975,7.546589,2.172332,-1.194914,-16.953611,-2.406883,0.839808,0.988854,-0.147220,-0.021853,0.004151
667,0.378845,-2.947889,9.519570,6.118710,0.927428,-0.581926,-16.724047,-2.366000,0.796498,0.989155,-0.145251,-0.021436,0.003873
668,0.437994,-2.881600,9.500485,6.432501,-0.943128,-0.633964,-16.514061,-2.372036,0.777151,0.989419,-0.143441,-0.021457,0.003738
669,0.454175,-2.818993,9.454721,5.601223,-1.575512,-0.306965,-16.313368,-2.416726,0.773994,0.989661,-0.141705,-0.021833,0.003693
670,0.461635,-2.765285,9.509681,4.956065,-1.744854,0.468571,-16.138180,-2.469101,0.792070,0.989867,-0.140184,-0.022301,0.003818
671,0.444976,-2.796354,9.455345,4.632693,-1.410638,1.576407,-15.980419,-2.510200,0.839418,0.990050,-0.138808,-0.022709,0.004208
672,0.488023,-2.700936,9.401196,4.312188,-1.688428,1.749943,-15.834311,-2.544666,0.906950,0.990217,-0.137529,-0.023082,0.004779
673,0.445898,-2.756850,9.358506,2.835593,-1.027120,2.111053,-15.718499,-2.570720,0.981258,0.990348,-0.136510,-0.023391,0.005413
674,0.467940,-2.836353,9.379818,1.969807,-0.763561,1.384882,-15.641295,-2.583699,1.045483,0.990434,-0.135829,-0.023576,0.005969
675,0.486641,-2.926162,9.316501,-2.112307,-0.861695,-0.061106,-15.644964,-2.603834,1.074062,0.990424,-0.135852,-0.023784,0.006191
676,0.446036,-2.927001,9.391803,-3.506085,0.490888,-1.630139,-15.737449,-2.617399,1.048576,0.990313,-0.136655,-0.023876,0.005935
677,0.293019,-2.965358,9.468648,-3.218188,3.586401,-1.104098,-15.846700,-2.564400,0.986175,0.990195,-0.137618,-0.023348,0.005437
678,0.187665,-2.791488,9.625394,1.529894,5.379595,-0.138807,-15.872206,-2.426312,0.925381,0.990192,-0.137864,-0.022083,0.005073
679,0.165816,-2.586483,9.660430,6.088175,5.120234,1.446734,-15.744164,-2.251976,0.898713,0.990376,-0.136779,-0.020539,0.005076
680,0.160607,-2.455128,9.719918,6.525986,1.779987,3.423531,-15.535753,-2.119325,0.945965,0.990641,-0.134981,-0.019439,0.005678
681,0.314912,-2.357895,9.671398,10.891083,-0.341372,6.068752,-15.250835,-2.054173,1.092271,0.990975,-0.132499,-0.019030,0.007067
682,0.621865,-2.341430,9.402063,7.754991,-6.796906,5.479621,-14.948001,-2.118879,1.309281,0.991297,-0.129836,-0.019817,0.008921
683,0.879182,-2.563374,9.245053,-2.576574,-10.708570,2.615704,-14.869841,-2.366026,1.515040,0.991330,-0.129090,-0.022181,0.010436
684,0.952672,-2.810851,9.135138,-10.186184,-8.941436,-1.784914,-15.086975,-2.678673,1.613367,0.991020,-0.130904,-0.025017,0.010885
685,0.968626,-2.876094,9.114612,-8.825088,1.150965,-6.640077,-15.399052,-2.840733,1.512092,0.990637,-0.133601,-0.026329,0.009751
686,0.893409,-3.077460,9.167581,-12.044987,7.275800,-14.993009,-15.728063,-2.801994,1.126794,0.990284,-0.136537,-0.025563,0.006392
687,0.450420,-3.261988,9.339884,-12.718604,15.648211,-21.177397,-16.108572,-2.599767,0.441630,0.989886,-0.139988,-0.023001,0.000636
688,0.074400,-3.367392,9.273417,-11.276502,20.639051,-23.905687,-16.471107,-2.229822,-0.449778,0.989482,-0.143290,-0.018695,-0.006671
689,-0.109095,-3.426778,9.271070,-12.435938,21.070818,-23.138371,-16.833107,-1.788314,-1.400504,0.989008,-0.146529,-0.013648,-0.014372
690,-0.253295,-3.580891,9.143851,-14.884062,19.601145,-20.353354,-17.264021,-1.352886,-2.292508,0.988371,-0.150281,-0.008668,-0.021548
691,-0.459304,-3.602342,9.084733,-16.106432,17.424980,-13.748314,-17.766014,-0.935741,-3.020406,0.987596,-0.154571,-0.003996,-0.027298
692,-0.299583,-3.575349,9.096847,-15.871229,11.135882,-7.266101,-18.292747,-0.591852,-3.500819,0.986787,-0.159037,-0.000241,-0.030977
693,-0.115043,-3.447496,9.135083,-13.198302,5.737034,-2.238026,-18.775263,-0.375890,-3.740537,0.986059,-0.163131,0.002089,-0.032734
694,0.005352,-3.390152,9.151233,-12.891378,1.431072,1.150354,-19.209806,-0.269010,-3.796637,0.985425,-0.166838,0.003214,-0.033053
695,0.206499,-3.265309,9.196527,-13.163901,-3.085861,3.571502,-19.644466,-0.268990,-3.713336,0.984809,-0.170577,0.003215,-0.032325
696,0.414516,-3.447292,9.351473,-16.937298,-6.077219,4.811831,-20.147182,-0.365161,-3.530092,0.984095,-0.174926,0.002251,-0.030883
697,0.494208,-3.476845,9.604838,-21.058897,-6.102214,3.423256,-20.781971,-0.507379,-3.330593,0.983152,-0.180413,0.000888,-0.029382
698,0.257944,-3.571707,9.870337,-26.969898,-2.962505,3.526294,-21.584015,-0.606271,-3.167985,0.981897,-0.187314,-0.000019,-0.028143
699,0.243834,-3.770684,9.948509,-31.662828,-2.161048,2.988155,-22.562588,-0.644466,-3.035069,0.980290,-0.195700,-0.000333,-0.027071
700,0.246566,-4.232985,9.783826,-37.868019,-1.724556,0.937171,-23.722309,-0.678195,-2.949414,0.978276,-0.205618,-0.000500,-0.026402
701,0.200276,-4.346755,9.361976,-40.061012,-0.816236,-3.907286,-25.020638,-0.736975,-2.977055,0.975871,-0.216701,-0.000650,-0.026752
702,0.117868,-4.536630,8.686350,-42.407429,-0.487131,-8.797363,-26.392418,-0.847932,-3.158521,0.973151,-0.228392,-0.000910,-0.028520
703,0.342667,-4.759542,8.225449,-44.295872,-3.610255,-15.749071,-27.831598,-1.094698,-3.491714,0.970085,-0.240656,-0.001942,-0.031867
704,0.434199,-4.945577,7.861577,-44.913082,-4.850785,-22.104404,-29.306957,-1.519720,-3.978974,0.966689,-0.253243,-0.004041,-0.036937
705,0.359791,-4.961053,7.797964,-41.669285,-3.335922,-24.813492,-30.730835,-2.028445,-4.588369,0.963144,-0.265404,-0.006449,-0.043280
706,0.306468,-5.089564,7.874538,-39.101566,-2.143952,-24.428082,-32.050842,-2.533305,-5.241867,0.959620,-0.276679,-0.008603,-0.050036
707,0.410924,-5.278489,8.035696,-35.596989,-2.568007,-20.935293,-33.266914,-3.007168,-5.836555,0.956201,-0.287058,-0.010541,-0.056266
708,0.469645,-5.517790,8.038765,-32.756065,-2.240309,-15.346999,-34.380260,-3.410409,-6.294924,0.952983,-0.296528,-0.012165,-0.061211
709,0.330551,-5.646286,8.051363,-28.610472,-0.478137,-8.704643,-35.384151,-3.677058,-6.598185,0.950074,-0.305000,-0.013035,-0.064532
710,0.280326,-5.790977,8.017530,-25.391281,-1.402572,-2.459189,-36.275482,-3.811609,-6.730641,0.947540,-0.312449,-0.013285,-0.066089
711,0.330241,-5.758092,8.023783,-20.650698,-3.481960,4.038550,-37.047466,-3.861524,-6.660600,0.945432,-0.318837,-0.013447,-0.065737
712,0.341123,-5.872252,7.978335,-16.677162,-4.785619,9.535515,-37.687260,-3.834112,-6.396472,0.943798,-0.324069,-0.013601,-0.063559
713,0.370890,-5.881584,8.027699,-11.459194,-6.068106,13.208367,-38.183319,-3.744059,-5.985292,0.942646,-0.328072,-0.013761,-0.059980
714,0.597598,-5.949115,8.290087,-7.283041,-7.615138,14.128951,-38.527863,-3.640445,-5.485388,0.941950,-0.330811,-0.014172,-0.055616
715,0.702338,-5.868731,8.501473,-1.394871,-6.752879,14.299122,-38.705097,-3.532040,-4.964712,0.941722,-0.332171,-0.014704,-0.051048
716,0.811016,-5.768737,8.557920,3.965995,-5.899788,12.031424,-38.691036,-3.422469,-4.489453,0.942006,-0.331966,-0.015185,-0.046825
717,0.860468,-5.450013,8.633869,8.393790,-4.695704,8.993563,-38.507748,-3.342059,-4.104716,0.942716,-0.330389,-0.015708,-0.043405
718,0.882150,-5.228879,8.608803,10.608543,-3.564985,6.861105,-38.208004,-3.286208,-3.811545,0.943703,-0.327869,-0.016200,-0.040791
719,0.791241,-4.985087,8.383777,26.687374,-3.628696,4.507381,-37.599186,-3.264512,-3.588008,0.945516,-0.322814,-0.016867,-0.038799
720,0.730121,-4.937371,8.215178,25.488853,-2.736421,4.564365,-36.740170,-3.258042,-3.403057,0.947973,-0.315688,-0.017613,-0.037124
721,0.554332,-4.977386,8.131226,13.112216,-0.282526,8.473788,-36.108341,-3.169521,-3.198069,0.949791,-0.310411,-0.017639,-0.035088
722,0.568768,-5.343327,8.068957,14.367620,-1.136899,9.559675,-35.664192,-3.012247,-2.940607,0.951109,-0.306664,-0.017158,-0.032464
723,0.588993,-5.485217,8.060497,11.247385,-2.142001,8.787771,-35.251751,-2.879349,-2.659445,0.952320,-0.303179,-0.016914,-0.029715
724,0.573904,-5.515491,8.286116,11.343581,-1.754082,8.034124,-34.888428,-2.771343,-2.392342,0.953371,-0.300106,-0.016809,-0.027157
725,0.508243,-5.515014,8.351802,12.590990,-0.307423,7.838295,-34.500740,-2.649043,-2.155016,0.954465,-0.296831,-0.016496,-0.024808
726,0.524002,-5.529251,8.302473,12.842585,-0.157541,6.132932,-34.085716,-2.524302,-1.958099,0.955604,-0.293333,-0.016050,-0.022787
728,0.464820,-5.355798,8.253397,16.233900,0.102327,5.142674,-33.607883,-2.420448,-1.801338,0.956872,-0.289315,-0.015673,-0.021150
729,0.427881,-5.182707,8.191469,21.902124,-0.188693,4.310033,-32.977802,-2.335248,-1.668713,0.958490,-0.284025,-0.015405,-0.019743
730,0.407761,-5.129016,7.982510,26.881592,-0.760799,3.665759,-32.169628,-2.277099,-1.548015,0.960501,-0.277238,-0.015349,-0.018482
731,0.488081,-5.000873,7.878952,31.375725,-2.209307,1.635832,-31.202774,-2.272870,-1.446685,0.962823,-0.269110,-0.015706,-0.017490
732,0.528776,-4.925397,7.926872,35.759514,-3.342187,-0.172967,-30.086718,-2.340144,-1.378338,0.965395,-0.259714,-0.016598,-0.016913
733,0.550301,-4.873001,8.005949,37.849464,-2.640093,-2.363464,-28.860567,-2.447835,-1.365945,0.968098,-0.249374,-0.017715,-0.016864
734,0.574869,-4.808264,8.009497,39.629215,-1.417679,-6.581025,-27.565083,-2.578090,-1.465400,0.970813,-0.238437,-0.018801,-0.017775
735,0.549081,-4.728697,8.075602,41.304401,0.298268,-10.749528,-26.204876,-2.725712,-1.714755,0.973501,-0.226950,-0.019771,-0.019961
736,0.389635,-4.497459,8.330406,44.274952,2.843362,-12.643682,-24.760607,-2.846577,-2.089607,0.976185,-0.214740,-0.020349,-0.023129
737,0.333506,-3.791326,8.543681,51.641823,4.229214,-15.537916,-23.138285,-2.929698,-2.567398,0.979003,-0.200996,-0.020547,-0.027066
738,0.198636,-3.151878,8.874137,55.382935,5.917872,-15.725093,-21.326857,-2.970402,-3.114324,0.981908,-0.185601,-0.020435,-0.031490
739,-0.002544,-2.779403,9.457429,54.853146,7.148048,-12.739989,-19.463345,-2.931580,-3.635608,0.984655,-0.169694,-0.019839,-0.035576
740,-0.050266,-2.178237,9.800762,56.172199,5.606258,-9.368738,-17.592505,-2.846837,-4.053204,0.987181,-0.153647,-0.019127,-0.038733
741,0.155989,-1.827871,9.929733,52.371712,1.361959,-7.095471,-15.769343,-2.813832,-4.349575,0.989406,-0.137962,-0.019099,-0.040944
742,0.253714,-1.854516,10.031344,43.082573,-1.795446,-5.547515,-14.168786,-2.874874,-4.551008,0.991148,-0.124184,-0.019979,-0.042480
743,0.317847,-1.709056,9.833821,39.557884,-4.057728,-4.189511,-12.784734,-3.007415,-4.685884,0.992491,-0.112271,-0.021507,-0.043532
744,0.310687,-1.633116,9.456463,34.097961,-5.366014,-1.200551,-11.554339,-3.179715,-4.740432,0.993572,-0.101677,-0.023419,-0.043921
745,0.519987,-1.859862,9.411503,21.911493,-8.554070,0.257958,-10.622602,-3.410121,-4.711051,0.994312,-0.093665,-0.025799,-0.043657
746,0.484510,-1.981437,9.516341,14.066540,-7.869130,1.625908,-10.027946,-3.673605,-4.630551,0.994736,-0.088572,-0.028375,-0.043022
747,0.594199,-2.147311,9.478109,8.037215,-8.123379,5.056002,-9.669840,-3.917065,-4.474786,0.994988,-0.085501,-0.030740,-0.041757
748,0.730542,-2.514275,9.587962,-2.161870,-8.430913,6.933611,-9.589023,-4.155494,-4.230924,0.995055,-0.084804,-0.033021,-0.039788
749,0.995408,-2.389127,9.551385,-12.516560,-12.279045,5.532364,-9.853458,-4.460424,-3.966939,0.994839,-0.087107,-0.035777,-0.037797
750,0.983031,-2.088258,9.250890,-4.752498,-6.814314,4.049987,-10.158491,-4.745839,-3.753531,0.994565,-0.089761,-0.038322,-0.036257
751,0.834254,-1.887292,9.254470,-8.625250,-3.351528,2.978057,-10.393682,-4.891724,-3.607591,0.994367,-0.091788,-0.039630,-0.035183
752,0.758863,-1.885996,9.499887,-11.626893,-0.551204,1.101509,-10.737983,-4.943129,-3.528440,0.994091,-0.094760,-0.040036,-0.034656
753,0.781904,-1.725701,9.661164,-6.901641,0.313850,-1.673236,-11.046045,-4.948740,-3.537012,0.993828,-0.097436,-0.039984,-0.034843
754,0.782510,-1.887203,10.053546,-3.682113,1.160863,-5.110723,-11.212426,-4.946379,-3.653122,0.993650,-0.098919,-0.039813,-0.035905
755,0.755465,-2.104560,10.405429,3.816436,2.259589,-9.560694,-11.188492,-4.937882,-3.904995,0.993593,-0.098797,-0.039530,-0.038074
756,0.817490,-2.063023,10.180878,18.537010,2.071433,-14.244594,-10.781081,-4.942485,-4.309728,0.993796,-0.095404,-0.039368,-0.041447
757,0.692634,-1.745143,9.857334,31.790995,3.294496,-17.514534,-9.895837,-4.949190,-4.848450,0.994296,-0.087912,-0.039332,-0.045822
758,0.586131,-1.493835,9.702260,38.864059,4.482975,-18.713509,-8.665153,-4.918331,-5.467506,0.994936,-0.077431,-0.039136,-0.050753
759,0.577310,-1.250257,9.590308,44.197262,4.144017,-17.793840,-7.227807,-4.859855,-6.092212,0.995563,-0.065136,-0.038907,-0.055655
760,0.480731,-0.978741,9.604432,49.122429,4.783269,-14.389927,-5.626481,-4.771729,-6.643653,0.996134,-0.051365,-0.038668,-0.059864
761,0.746311,-0.906974,9.639088,48.101685,2.310585,-11.520974,-3.970080,-4.689485,-7.085328,0.996567,-0.037070,-0.038671,-0.063117
762,1.052835,-1.020081,9.923153,40.048466,-0.644096,-10.453926,-2.471109,-4.682014,-7.453428,0.996764,-0.024154,-0.039351,-0.065807
763,1.341790,-1.105637,10.150200,33.010571,-3.066892,-13.659072,-1.220616,-4.756856,-7.854093,0.996706,-0.013460,-0.040671,-0.068864
764,1.544525,-0.929917,10.227456,29.444721,-4.159110,-21.016283,-0.131173,-4.884572,-8.432273,0.996384,-0.004273,-0.042414,-0.073501
765,1.653786,-0.741086,10.101869,21.356506,-4.852384,-30.001863,0.789220,-5.030570,-9.286407,0.995759,0.003305,-0.044298,-0.080569
766,1.720619,-0.657252,10.226401,10.473314,-6.784891,-42.818283,1.428566,-5.202042,-10.508205,0.994747,0.008246,-0.046327,-0.090908
767,1.752727,-0.442003,9.959930,6.964453,-9.086051,-57.984650,1.875926,-5.419443,-12.201962,0.993173,0.011235,-0.048740,-0.105379
768,1.557777,0.004633,9.734952,6.036566,-8.392516,-71.611435,2.302354,-5.632531,-14.380463,0.990861,0.013760,-0.051249,-0.124008
769,1.249686,0.083926,9.767136,-2.436896,-7.128451,-81.598648,2.617908,-5.781684,-16.954323,0.987728,0.015133,-0.053232,-0.146050
770,1.150704,0.146710,9.880755,-4.629375,-7.966381,-90.700279,2.794252,-5.898977,-19.847870,0.983656,0.015120,-0.054867,-0.170825
771,0.995409,0.467955,9.809225,1.575182,-6.650893,-97.160423,3.069896,-5.982453,-23.001865,0.978514,0.015812,-0.056450,-0.197671
772,0.855517,0.592967,9.811337,4.947702,-4.445818,-101.618088,3.525450,-5.975075,-26.335329,0.972289,0.018044,-0.057722,-0.225823
773,0.864436,0.655708,9.872808,7.798177,-4.071492,-106.015335,4.096622,-5.885975,-29.813044,0.964928,0.021295,-0.058765,-0.254966
774,0.841543,0.939612,9.740624,15.872577,-3.130618,-110.269218,4.856804,-5.723731,-33.431000,0.956300,0.026182,-0.059947,-0.284977
775,0.688202,1.112807,9.661762,16.626144,-1.349910,-111.480309,5.758269,-5.454422,-37.131271,0.946452,0.032431,-0.061022,-0.315363
776,0.539131,1.082970,9.781919,9.290346,-0.678180,-107.868538,6.525087,-5.097024,-40.781055,0.935777,0.037825,-0.061421,-0.345136
777,0.257348,1.192866,10.129260,3.357524,0.317994,-100.485588,7.030772,-4.695268,-44.239170,0.924826,0.041361,-0.060945,-0.373190
778,0.012254,1.128953,10.147376,-0.731203,1.216840,-90.512413,7.321532,-4.273883,-47.401234,0.914111,0.043466,-0.059720,-0.398679
779,0.158004,1.153330,9.953424,-3.926781,-1.988617,-81.902832,7.447780,-3.918412,-50.257854,0.903858,0.044279,-0.058451,-0.421502
780,0.474747,1.171402,9.924184,-7.642626,-6.324342,-78.203384,7.433251,-3.711052,-52.926071,0.893806,0.043601,-0.057797,-0.442571
781,0.452038,1.124641,9.855556,-9.596076,-5.842782,-79.047203,7.314042,-3.576628,-55.555180,0.883459,0.041892,-0.057266,-0.463104
782,0.390903,1.138961,9.721620,-12.317089,-5.496241,-82.774925,7.113947,-3.425860,-58.258060,0.872356,0.039648,-0.056248,-0.484003
783,0.372828,1.148557,9.897806,-17.156487,-7.326316,-86.565521,6.788799,-3.296915,-61.088589,0.860236,0.036378,-0.054809,-0.505636
784,0.053432,0.949144,9.965500,-27.243359,-5.339335,-89.999359,6.216012,-3.174305,-64.038971,0.847092,0.031289,-0.052185,-0.527951
785,-0.232288,0.839434,10.020341,-29.763275,-2.911589,-88.139000,5.426209,-3.012069,-67.008476,0.833309,0.024965,-0.048011,-0.550152
786,-0.242577,0.843847,9.929165,-24.993294,-5.308987,-82.242180,4.660198,-2.899675,-69.850601,0.819548,0.018850,-0.043997,-0.571008
787,-0.033674,0.924745,9.790693,-18.138477,-8.616905,-74.248650,4.075562,-2.931840,-72.470612,0.806360,0.013560,-0.041633,-0.589802
788,0.249707,1.057084,9.546809,-13.637051,-10.576281,-66.276779,3.671010,-3.091834,-74.831116,0.794078,0.009047,-0.040870,-0.606372
789,0.526901,1.021706,9.741351,-9.532464,-11.374049,-55.348019,3.400275,-3.331430,-76.879349,0.783124,0.005165,-0.041195,-0.620479
790,0.630642,0.977535,9.799370,-5.563711,-11.318113,-44.724712,3.251475,-3.611866,-78.569031,0.773882,0.002002,-0.042337,-0.631910
791,0.824729,1.119173,9.869440,-0.476773,-10.516616,-35.589653,3.240174,-3.899068,-79.928780,0.766312,-0.000186,-0.044212,-0.640946
792,1.111174,1.113597,9.870433,7.495292,-10.009058,-25.582390,3.430598,-4.180803,-80.969040,0.760444,-0.000920,-0.047152,-0.647689
793,0.884175,0.739686,10.064328,15.671786,-4.345275,-14.930868,3.868465,-4.375875,-81.660141,0.756512,0.000573,-0.050922,-0.651994
794,0.665110,0.768362,9.766260,24.644516,0.040425,-7.326263,4.569157,-4.419415,-82.036697,0.754348,0.004769,-0.055211,-0.654132
795,0.842238,0.697031,9.969314,22.227692,1.035419,-2.366559,5.362531,-4.386935,-82.196762,0.753382,0.010095,-0.059539,-0.654804
796,0.711893,0.566105,10.044254,20.679581,4.701485,0.968649,6.078638,-4.289219,-82.210487,0.753221,0.015356,-0.062992,-0.654564
797,0.471373,0.460019,10.026642,13.399075,6.721784,1.266868,6.642313,-4.103946,-82.152397,0.753451,0.020156,-0.064987,-0.653974
798,0.661139,0.739054,9.830966,2.059481,4.610446,-1.210403,6.898335,-3.916453,-82.129318,0.753514,0.022928,-0.065216,-0.653787
799,0.846261,0.876187,10.082963,1.897371,1.738876,-3.848986,6.969108,-3.801258,-82.200531,0.753079,0.024013,-0.064880,-0.654283
800,0.682304,1.091275,9.813177,4.376358,1.864829,-5.836780,7.083757,-3.721914,-82.353722,0.752168,0.025135,-0.065048,-0.655271
801,0.715388,1.170845,9.733217,1.580332,0.477000,-7.212824,7.196642,-3.656139,-82.565102,0.750923,0.026133,-0.065312,-0.656632
802,0.718053,1.247756,9.841659,-0.667112,0.776720,-7.131980,7.226773,-3.605451,-82.800133,0.749560,0.026489,-0.065208,-0.658184
803,0.688351,1.281859,9.890808,-0.644246,1.181612,-4.637424,7.216821,-3.548450,-82.991005,0.748456,0.026645,-0.064824,-0.659471
804,0.755652,1.253979,9.829794,-0.001586,-1.116105,-0.945621,7.211751,-3.535687,-83.083359,0.747923,0.026633,-0.064733,-0.660085
805,0.807345,1.248589,9.816284,0.081526,-2.397287,2.288111,7.212174,-3.596587,-83.068489,0.748018,0.026292,-0.065128,-0.659951
806,0.867324,1.255776,9.814584,0.238646,-3.431209,4.643827,7.210983,-3.707462,-82.965851,0.748627,0.025702,-0.065819,-0.659216
807,0.931453,1.289935,9.780481,1.331649,-4.653673,5.767824,7.226893,-3.862947,-82.810295,0.749540,0.024998,-0.066889,-0.658096
808,1.012207,1.291200,9.807731,1.442559,-6.382487,6.122174,7.261102,-4.070413,-82.636497,0.750559,0.024128,-0.068401,-0.656811
809,1.064229,1.332760,9.783273,2.609441,-7.536051,5.689154,7.316443,-4.325488,-82.470207,0.751531,0.023123,-0.070349,-0.655528
810,1.092838,1.318933,9.808647,2.325806,-7.803267,4.978184,7.387465,-4.601809,-82.326187,0.752372,0.022091,-0.072531,-0.654361
811,1.129676,1.281646,9.852060,2.245187,-8.014531,4.394911,7.453602,-4.883405,-82.204895,0.753080,0.020986,-0.074727,-0.653335
812,1.159103,1.359964,9.786257,5.444782,-8.021184,3.763656,7.572976,-5.166153,-82.104652,0.753654,0.020216,-0.077239,-0.652404
813,1.110991,1.417154,9.774405,5.967512,-6.013076,3.212939,7.755392,-5.413502,-82.020317,0.754121,0.020057,-0.079880,-0.651550
814,1.057595,1.420502,9.800301,4.865615,-3.927873,3.087174,7.928110,-5.591967,-81.938568,0.754569,0.020230,-0.082015,-0.650761
815,1.041418,1.434641,9.802745,4.383223,-2.831297,3.287533,8.073406,-5.718301,-81.848610,0.755063,0.020529,-0.083651,-0.649970
816,1.001363,1.484052,9.771296,4.179869,-1.468183,3.439065,8.205959,-5.805101,-81.747261,0.755620,0.020981,-0.084953,-0.649139
817,0.961166,1.418522,9.797350,1.068825,-0.169718,3.940471,8.281428,-5.849748,-81.628860,0.756280,0.021312,-0.085651,-0.648267
818,0.984968,1.401603,9.792519,0.674416,-0.443150,4.077244,8.297064,-5.879091,-81.497398,0.757022,0.021347,-0.085907,-0.647365
819,0.974201,1.401562,9.799554,0.954947,0.039678,3.840135,8.310841,-5.904799,-81.367104,0.757757,0.021389,-0.086130,-0.646474
820,0.969396,1.433839,9.784810,2.010153,0.288377,3.421401,8.347785,-5.916924,-81.245926,0.758434,0.021656,-0.086395,-0.645635
821,0.978696,1.460972,9.778168,2.730413,0.208584,2.948138,8.415781,-5.924216,-81.139122,0.759023,0.022145,-0.086805,-0.644871
822,0.998078,1.507191,9.811189,3.219625,-0.020443,2.158366,8.506158,-5.933644,-81.054031,0.759485,0.022755,-0.087359,-0.644231
823,0.953089,1.518722,9.802152,3.035857,1.043497,1.485387,8.603914,-5.925826,-80.991104,0.759818,0.023496,-0.087844,-0.643745
824,0.953591,1.481734,9.820683,1.691468,1.140995,1.250962,8.677474,-5.896686,-80.940285,0.760086,0.024188,-0.088055,-0.643375
825,0.954373,1.502406,9.778354,2.086459,1.089548,1.047764,8.735960,-5.865734,-80.896561,0.760316,0.024785,-0.088170,-0.643064
826,0.953418,1.495336,9.785221,0.956669,1.158216,0.875575,8.782849,-5.833592,-80.858986,0.760513,0.025307,-0.088213,-0.642804
827,0.936548,1.486042,9.783731,0.139660,1.477601,0.635764,8.797903,-5.794024,-80.827217,0.760684,0.025655,-0.088029,-0.642613
828,0.957527,1.479678,9.798587,-0.356382,0.894550,0.395592,8.791965,-5.757580,-80.804077,0.760812,0.025840,-0.087750,-0.642493
829,0.938925,1.508578,9.771069,0.125373,1.018158,-0.022046,8.787006,-5.727027,-80.792999,0.760872,0.025988,-0.087519,-0.642448
831,0.938678,1.485000,9.829442,-1.067187,0.985724,-0.184303,8.771142,-5.693497,-80.791298,0.760882,0.026074,-0.087208,-0.642475
832,0.984421,1.503692,9.814082,-0.280532,-0.240551,-0.237597,8.749185,-5.680150,-80.796387,0.760857,0.025999,-0.086998,-0.642536
833,1.020253,1.511020,9.764828,0.251200,-1.131013,-0.391842,8.750076,-5.701147,-80.810303,0.760781,0.025876,-0.087145,-0.642611
834,1.065339,1.526027,9.723193,0.182415,-1.868671,-0.387497,8.759354,-5.748582,-80.830856,0.760668,0.025653,-0.087514,-0.642703
835,1.113992,1.543257,9.758138,-1.567292,-2.511330,-0.395838,8.738705,-5.818748,-80.854980,0.760544,0.025101,-0.087866,-0.642823
836,1.129873,1.478396,9.742551,-3.729416,-1.504601,-0.387386,8.652785,-5.882940,-80.878120,0.760439,0.024149,-0.087813,-0.642992
837,1.100768,1.400505,9.784983,-5.613256,-1.165906,-0.562000,8.499376,-5.924595,-80.900497,0.760348,0.022878,-0.087231,-0.643225
838,1.086439,1.380671,9.766813,-6.271611,-1.130444,-0.603294,8.303876,-5.959620,-80.925430,0.760248,0.021364,-0.086369,-0.643511
839,1.001293,1.243607,9.838975,-11.161604,-0.657972,-1.610348,8.017584,-5.983888,-80.966393,0.760070,0.019297,-0.084928,-0.643978
840,0.947138,1.049711,9.938100,-17.281488,-1.416534,-5.002865,7.555490,-6.003206,-81.080887,0.759498,0.016040,-0.082474,-0.645061
841,0.964007,1.090679,9.959037,-21.957027,-3.673106,-10.721148,6.930116,-6.054248,-81.353065,0.758039,0.011417,-0.079316,-0.647268
842,1.016998,1.049999,9.769096,-28.636292,-5.602584,-14.273862,6.133112,-6.160255,-81.787025,0.755637,0.005255,-0.075531,-0.650601
843,1.069972,0.900808,9.860179,-40.480301,-6.512225,-17.203568,5.040479,-6.310100,-82.332008,0.752531,-0.003141,-0.070294,-0.654788
844,1.269107,0.862159,9.931484,-41.651035,-8.908360,-17.846029,3.739508,-6.521819,-82.937729,0.748933,-0.013240,-0.064172,-0.659398
845,1.377717,0.939276,9.657325,-32.234165,-9.085128,-14.307105,2.572780,-6.791673,-83.493164,0.745485,-0.022710,-0.059105,-0.663508
846,1.451017,0.898965,9.565842,-23.177580,-6.709433,-7.427945,1.694574,-7.041155,-83.867859,0.743038,-0.030052,-0.055540,-0.666264
847,1.458961,0.803931,9.855413,-10.139415,-3.448554,0.580384,1.154185,-7.207778,-83.987091,0.742137,-0.034582,-0.053440,-0.667219
848,1.491239,0.767009,9.694010,20.895830,-3.785432,9.931130,1.311522,-7.332297,-83.813156,0.743152,-0.034205,-0.055214,-0.665963
849,1.344339,0.700772,9.423140,29.706568,3.584541,19.303101,2.092255,-7.350379,-83.322517,0.746205,-0.028990,-0.059992,-0.662373
850,1.255742,0.546596,9.758094,29.411026,8.159479,24.128847,2.984452,-7.186625,-82.585289,0.750694,-0.021817,-0.064225,-0.657158
851,1.078877,0.484895,9.806724,33.504543,10.303086,25.612532,3.928395,-6.929108,-81.733200,0.755765,-0.013644,-0.068058,-0.651154
852,1.055234,0.625297,9.693056,30.367620,8.763072,22.568481,4.894490,-6.674212,-80.902504,0.760588,-0.005295,-0.071912,-0.645219
853,0.945793,0.718529,9.812320,18.352150,7.696813,16.183010,5.629431,-6.460352,-80.229866,0.764400,0.001232,-0.074630,-0.640407
854,0.954198,0.843298,9.993055,10.473523,5.144036,9.136436,6.060585,-6.290232,-79.785713,0.766878,0.005360,-0.075890,-0.637267
855,0.945051,1.013390,9.773299,9.627566,3.431301,3.945888,6.370275,-6.171760,-79.552155,0.768164,0.008252,-0.076806,-0.635575
856,1.005418,1.046350,9.829025,2.678596,0.721619,0.890775,6.565940,-6.112182,-79.463722,0.768642,0.009957,-0.077486,-0.634891
857,0.966399,1.032576,9.813046,1.188295,1.443463,-0.607592,6.629445,-6.076884,-79.454842,0.768687,0.010586,-0.077602,-0.634813
858,1.003971,1.032802,9.809149,0.363758,0.684662,-1.008359,6.657721,-6.038544,-79.477623,0.768559,0.010974,-0.077505,-0.634972
859,1.016180,1.035122,9.791048,-0.070460,0.408139,-0.763735,6.665487,-6.017029,-79.505005,0.768407,0.011128,-0.077407,-0.635165
860,1.038995,1.043746,9.830846,-0.367489,0.072539,-0.544971,6.660372,-6.006541,-79.525848,0.768292,0.011138,-0.077310,-0.635316
861,1.059505,1.071581,9.810547,0.461967,-0.257644,-0.080630,6.663074,-6.008397,-79.536629,0.768232,0.011138,-0.077339,-0.635385
862,1.077903,1.073924,9.795571,0.363134,-0.544107,0.502661,6.676254,-6.022486,-79.531166,0.768261,0.011152,-0.077505,-0.635330
863,1.045818,1.084450,9.807618,-0.069746,0.172236,0.668700,6.679173,-6.030910,-79.512383,0.768364,0.011137,-0.077576,-0.635196
864,1.021140,1.098655,9.826297,0.010819,0.647642,0.877658,6.675322,-6.020335,-79.485054,0.768516,0.011188,-0.077481,-0.635023
865,1.048383,1.137068,9.802481,1.224757,-0.181187,1.097718,6.692373,-6.016445,-79.451271,0.768702,0.011347,-0.077546,-0.634787
866,1.045668,1.149769,9.795292,0.988986,-0.318366,1.147034,6.725451,-6.029088,-79.414894,0.768900,0.011523,-0.077810,-0.634512
867,1.046381,1.177874,9.818617,1.134077,-0.377974,0.758792,6.757642,-6.044341,-79.384537,0.769064,0.011675,-0.078087,-0.634276
868,1.054226,1.183373,9.834893,1.318950,-0.515245,0.545185,6.796424,-6.061690,-79.364609,0.769170,0.011852,-0.078416,-0.634104
869,1.069193,1.205223,9.822702,1.904810,-0.758670,0.431235,6.848702,-6.084706,-79.350891,0.769240,0.012084,-0.078857,-0.633960
870,1.034722,1.203272,9.837988,1.408516,0.189408,0.490940,6.902416,-6.095967,-79.336685,0.769313,0.012392,-0.079228,-0.633820
871,1.039246,1.206262,9.820107,1.621593,0.263573,0.825650,6.950499,-6.091118,-79.313881,0.769434,0.012757,-0.079459,-0.633637
872,1.030824,1.194384,9.808656,1.191649,0.581766,1.403887,6.993269,-6.081641,-79.275055,0.769644,0.013124,-0.079628,-0.633353
873,1.037803,1.212303,9.788737,1.428288,0.519058,1.989348,7.030722,-6.070332,-79.216354,0.769964,0.013480,-0.079753,-0.632940
874,1.022960,1.212474,9.804132,0.705601,0.870830,2.318869,7.058416,-6.056149,-79.141846,0.770372,0.013797,-0.079802,-0.632430
875,1.022074,1.199187,9.803785,-0.028089,0.827593,2.563875,7.060785,-6.038052,-79.057137,0.770839,0.013972,-0.079683,-0.631872
876,1.025668,1.202494,9.817700,-0.332423,0.604657,2.539193,7.045547,-6.024800,-78.969315,0.771325,0.014004,-0.079500,-0.631301
877,1.004003,1.191607,9.817816,-0.666174,0.858444,2.297031,7.020156,-6.010467,-78.885880,0.771788,0.013971,-0.079254,-0.630767
878,1.010167,1.151940,9.871161,-1.253159,0.632157,2.043473,6.980301,-5.994623,-78.810631,0.772207,0.013842,-0.078919,-0.630298
