seq,ax,ay,az,wroll,wpitch,wyaw,roll,pitch,yaw,q0,q1,q2,q3
1161,6.928518,-6.826195,-0.370379,-0.062906,-0.117924,0.042296,-93.105759,-45.384129,94.358902,-0.636674,0.260684,0.671618,-0.274991
1163,6.927035,-6.818871,-0.428980,-0.064514,-0.134791,0.037710,-93.141426,-45.383488,94.377884,-0.636545,0.260774,0.671745,-0.274891
1164,6.922547,-6.827602,-0.433502,-0.035683,-0.115119,0.048393,-93.196533,-45.380146,94.418785,-0.636313,0.260859,0.671964,-0.274814
1165,6.923085,-6.827791,-0.428912,-0.009890,-0.086276,0.046887,-93.245094,-45.374184,94.455101,-0.636099,0.260950,0.672151,-0.274765
1166,6.922884,-6.824634,-0.426271,-0.005431,-0.087924,0.046900,-93.284554,-45.369503,94.484970,-0.635925,0.261021,0.672305,-0.274726
1167,6.924580,-6.818541,-0.425169,-0.011635,-0.084974,0.036213,-93.318298,-45.367817,94.510757,-0.635781,0.261066,0.672441,-0.274680
1168,6.925467,-6.817794,-0.420816,0.002016,-0.080478,0.049928,-93.346008,-45.368420,94.532227,-0.635668,0.261091,0.672558,-0.274633
1170,6.924996,-6.818385,-0.420824,0.024840,-0.069863,0.059063,-93.367958,-45.368885,94.549850,-0.635577,0.261106,0.672651,-0.274600
1171,6.929200,-6.812702,-0.418590,0.036991,-0.069916,0.060558,-93.385841,-45.370995,94.564865,-0.635506,0.261105,0.672733,-0.274566
1172,6.922291,-6.811236,-0.423178,0.044568,-0.062337,0.049840,-93.402458,-45.374035,94.579140,-0.635443,0.261096,0.672811,-0.274530
1173,6.920929,-6.816386,-0.423432,0.049095,-0.060864,0.069659,-93.418922,-45.374126,94.593323,-0.635371,0.261104,0.672883,-0.274512
1174,6.920443,-6.816391,-0.422959,0.061255,-0.067015,0.072703,-93.433296,-45.372223,94.606255,-0.635302,0.261118,0.672943,-0.274510
1175,6.919638,-6.816016,-0.417190,0.045963,-0.071626,0.057438,-93.443756,-45.370487,94.616501,-0.635249,0.261126,0.672988,-0.274515
1177,6.918447,-6.813038,-0.420713,0.026099,-0.082333,0.043697,-93.453011,-45.369713,94.625664,-0.635204,0.261128,0.673030,-0.274516
1178,6.926394,-6.820996,-0.415249,0.006244,-0.085404,0.040633,-93.461243,-45.369717,94.633812,-0.635166,0.261126,0.673068,-0.274513
1179,6.929395,-6.820017,-0.416522,0.003181,-0.086940,0.016201,-93.467148,-45.371063,94.640106,-0.635141,0.261114,0.673099,-0.274505
1180,6.926228,-6.821152,-0.420313,-0.010569,-0.085429,0.023815,-93.474770,-45.372494,94.647423,-0.635110,0.261105,0.673137,-0.274493
1181,6.921551,-6.818350,-0.423056,-0.010591,-0.088503,0.031439,-93.484711,-45.372169,94.656242,-0.635065,0.261110,0.673180,-0.274485
1182,6.917043,-6.831694,-0.421541,-0.013662,-0.091577,0.036038,-93.494194,-45.367462,94.664757,-0.635011,0.261139,0.673213,-0.274504
1184,6.914754,-6.834682,-0.426276,-0.019786,-0.096177,0.040667,-93.503891,-45.357983,94.673393,-0.634942,0.261197,0.673238,-0.274548
1185,6.911911,-6.841108,-0.422216,-0.028959,-0.096198,0.040735,-93.512970,-45.346085,94.681473,-0.634869,0.261268,0.673255,-0.274607
1186,6.912559,-6.836553,-0.421732,-0.033543,-0.093159,0.025543,-93.519371,-45.334724,94.687454,-0.634809,0.261333,0.673262,-0.274667
1187,6.917590,-6.838768,-0.419226,-0.027441,-0.084006,0.027116,-93.523598,-45.326469,94.691765,-0.634766,0.261378,0.673266,-0.274713
1188,6.923229,-6.831900,-0.417933,-0.021332,-0.073320,0.025611,-93.525291,-45.322449,94.694191,-0.634745,0.261396,0.673267,-0.274739
1189,6.926191,-6.826450,-0.412468,-0.022843,-0.065675,0.022546,-93.523796,-45.323582,94.694206,-0.634752,0.261381,0.673266,-0.274742
1191,6.929250,-6.817465,-0.417374,-0.019776,-0.067184,0.040814,-93.522285,-45.328876,94.694130,-0.634770,0.261343,0.673272,-0.274720
1192,6.931144,-6.821176,-0.420465,-0.018248,-0.061074,0.046864,-93.524200,-45.335472,94.696480,-0.634778,0.261302,0.673295,-0.274684
1193,6.932823,-6.814265,-0.418883,-0.036558,-0.065648,0.036123,-93.527084,-45.342934,94.699295,-0.634785,0.261259,0.673323,-0.274641
1194,6.930976,-6.812949,-0.425307,-0.045721,-0.070228,0.045212,-93.532585,-45.351345,94.703773,-0.634785,0.261215,0.673363,-0.274586
1195,6.929480,-6.813702,-0.428948,-0.035059,-0.074822,0.049733,-93.542007,-45.358025,94.711143,-0.634764,0.261186,0.673415,-0.274533
1196,6.927810,-6.818130,-0.425112,-0.039651,-0.061101,0.045114,-93.550201,-45.362213,94.717613,-0.634742,0.261169,0.673457,-0.274497
1198,6.924283,-6.812793,-0.418318,-0.032019,-0.070254,0.049662,-93.552971,-45.365128,94.720207,-0.634737,0.261153,0.673476,-0.274479
1199,6.925559,-6.816391,-0.420215,-0.033535,-0.079397,0.048108,-93.553398,-45.367573,94.721405,-0.634740,0.261134,0.673484,-0.274469
1200,6.926455,-6.815649,-0.416465,-0.038099,-0.076329,0.054188,-93.553009,-45.369553,94.722015,-0.634745,0.261117,0.673488,-0.274463
1201,6.921402,-6.814232,-0.416560,-0.053341,-0.082413,0.055692,-93.551521,-45.370811,94.721657,-0.634753,0.261104,0.673486,-0.274463
1202,6.924143,-6.809896,-0.419773,-0.068587,-0.091555,0.052617,-93.552414,-45.372604,94.722794,-0.634753,0.261092,0.673495,-0.274454
1203,6.928608,-6.817863,-0.422446,-0.085367,-0.085444,0.044958,-93.556313,-45.375080,94.725739,-0.634744,0.261082,0.673515,-0.274433
1205,6.927578,-6.817329,-0.426443,-0.071637,-0.077815,0.049515,-93.562401,-45.376469,94.730042,-0.634723,0.261082,0.673542,-0.274413
1206,6.927451,-6.824207,-0.427515,-0.077748,-0.091556,0.034247,-93.569931,-45.376217,94.735550,-0.634692,0.261093,0.673573,-0.274401
1207,6.933010,-6.826898,-0.428011,-0.079279,-0.094614,0.026615,-93.577614,-45.375359,94.741295,-0.634659,0.261107,0.673602,-0.274393
1208,6.932123,-6.829780,-0.421754,-0.064016,-0.103765,0.023561,-93.581970,-45.374596,94.744965,-0.634638,0.261114,0.673620,-0.274392
1209,6.931732,-6.830987,-0.426820,-0.054853,-0.105283,0.028144,-93.584885,-45.372780,94.748047,-0.634619,0.261122,0.673630,-0.274402
1210,6.928629,-6.829027,-0.421216,-0.059420,-0.097643,0.032730,-93.587036,-45.370384,94.750542,-0.634601,0.261133,0.673636,-0.274417
1212,6.924057,-6.821301,-0.419268,-0.045667,-0.088468,0.043415,-93.585587,-45.368507,94.750389,-0.634600,0.261137,0.673629,-0.274435
1213,6.926395,-6.816428,-0.411402,-0.034951,-0.080803,0.044930,-93.579620,-45.368961,94.747101,-0.634623,0.261120,0.673608,-0.274449
1214,6.930216,-6.812189,-0.414596,-0.028811,-0.080763,0.046422,-93.571892,-45.372677,94.742661,-0.634661,0.261082,0.673587,-0.274449
1215,6.930770,-6.815392,-0.408192,-0.015037,-0.079194,0.043330,-93.563179,-45.377380,94.737740,-0.634706,0.261036,0.673564,-0.274446
1216,6.933687,-6.809055,-0.408876,-0.005837,-0.088302,0.038706,-93.552719,-45.383228,94.731956,-0.634760,0.260979,0.673537,-0.274443
1217,6.939831,-6.810457,-0.409605,-0.024109,-0.086733,0.024911,-93.544243,-45.391739,94.727562,-0.634813,0.260909,0.673523,-0.274420
1219,6.934666,-6.811882,-0.415962,-0.027135,-0.083650,0.030960,-93.539894,-45.399178,94.725807,-0.634848,0.260853,0.673523,-0.274393
1220,6.931354,-6.815086,-0.415895,-0.030171,-0.077528,0.037031,-93.538612,-45.402821,94.726051,-0.634860,0.260823,0.673527,-0.274382
1221,6.931060,-6.810327,-0.416875,-0.031683,-0.072935,0.049213,-93.537910,-45.405197,94.726517,-0.634867,0.260803,0.673531,-0.274375
1222,6.930405,-6.824415,-0.415771,-0.030142,-0.072920,0.055307,-93.536942,-45.404816,94.726707,-0.634867,0.260799,0.673529,-0.274384
1223,6.926915,-6.827941,-0.411247,-0.001126,-0.069846,0.067537,-93.532646,-45.399567,94.724861,-0.634867,0.260816,0.673504,-0.274429
1224,6.929805,-6.828356,-0.411796,-0.004150,-0.066767,0.067563,-93.526314,-45.393517,94.721786,-0.634872,0.260833,0.673470,-0.274483
1226,6.930633,-6.824290,-0.415044,-0.011758,-0.066747,0.052315,-93.522331,-45.389759,94.720245,-0.634875,0.260842,0.673450,-0.274519
1227,6.930542,-6.824421,-0.416974,-0.027006,-0.069787,0.029429,-93.521599,-45.388031,94.720802,-0.634870,0.260844,0.673446,-0.274536
1228,6.933009,-6.817993,-0.419835,-0.019372,-0.072834,0.027892,-93.523544,-45.388733,94.723251,-0.634862,0.260837,0.673458,-0.274535
1229,6.934445,-6.814498,-0.423191,-0.025481,-0.077415,0.020230,-93.528374,-45.392429,94.727882,-0.634850,0.260815,0.673487,-0.274511
1230,6.934209,-6.813927,-0.424041,-0.019387,-0.075897,0.029349,-93.534782,-45.396923,94.733665,-0.634834,0.260791,0.673524,-0.274480
1231,6.934319,-6.824150,-0.421606,-0.011763,-0.075901,0.038484,-93.539452,-45.398678,94.738342,-0.634817,0.260779,0.673549,-0.274468
1233,6.935139,-6.821120,-0.423285,-0.001084,-0.065221,0.055259,-93.542542,-45.398396,94.741982,-0.634801,0.260777,0.673564,-0.274472
1234,6.930726,-6.824913,-0.421067,-0.017869,-0.053014,0.044575,-93.544724,-45.397068,94.744614,-0.634786,0.260781,0.673573,-0.274481
1235,6.932745,-6.822554,-0.422120,-0.022445,-0.042329,0.044577,-93.546097,-45.395241,94.746155,-0.634774,0.260790,0.673576,-0.274492
1236,6.931091,-6.828375,-0.417919,-0.017859,-0.039270,0.024745,-93.545662,-45.393311,94.746277,-0.634769,0.260798,0.673572,-0.274506
1237,6.927545,-6.824131,-0.417270,-0.005637,-0.028574,0.035439,-93.542618,-45.390392,94.744576,-0.634772,0.260808,0.673555,-0.274531
1238,6.927160,-6.823140,-0.407879,-0.008662,-0.033125,0.030871,-93.535423,-45.388031,94.739960,-0.634793,0.260808,0.673523,-0.274561
1239,6.929765,-6.824638,-0.412649,-0.013206,-0.028514,0.038506,-93.526901,-45.386292,94.734299,-0.634821,0.260804,0.673486,-0.274590
1240,6.927362,-6.824565,-0.412331,-0.004027,-0.025439,0.043090,-93.520775,-45.384254,94.730316,-0.634839,0.260806,0.673458,-0.274615
1241,6.928695,-6.821889,-0.416048,0.009722,-0.040681,0.062929,-93.516693,-45.382301,94.728165,-0.634848,0.260807,0.673440,-0.274639
1242,6.931226,-6.822542,-0.416363,-0.007052,-0.054405,0.058343,-93.515358,-45.381420,94.728271,-0.634848,0.260804,0.673435,-0.274652
1243,6.930450,-6.830508,-0.421421,-0.005525,-0.058981,0.058344,-93.516899,-45.379242,94.730461,-0.634834,0.260812,0.673440,-0.274667
1244,6.928558,-6.826682,-0.418571,0.006681,-0.063560,0.064457,-93.519157,-45.375660,94.733429,-0.634812,0.260827,0.673445,-0.274691
1245,6.929663,-6.829216,-0.417823,0.011263,-0.072712,0.072093,-93.519707,-45.372276,94.735519,-0.634796,0.260838,0.673445,-0.274718
1246,6.928615,-6.824107,-0.416648,-0.008568,-0.065075,0.065991,-93.519638,-45.369781,94.737022,-0.634786,0.260843,0.673443,-0.274741
1247,6.929789,-6.820605,-0.418442,0.009749,-0.058965,0.053770,-93.519852,-45.369724,94.738556,-0.634781,0.260835,0.673447,-0.274749
1248,6.932106,-6.814743,-0.418654,0.008225,-0.055909,0.052213,-93.520706,-45.372684,94.740639,-0.634783,0.260811,0.673459,-0.274739
1249,6.933897,-6.815167,-0.417656,-0.005505,-0.066585,0.029279,-93.521736,-45.377899,94.742775,-0.634790,0.260774,0.673477,-0.274715
1250,6.932740,-6.817060,-0.418758,-0.023812,-0.065053,0.026188,-93.523354,-45.382767,94.745079,-0.634794,0.260742,0.673495,-0.274690
1251,6.934200,-6.818198,-0.419090,-0.022284,-0.058945,0.027682,-93.525536,-45.386578,94.747490,-0.634793,0.260718,0.673513,-0.274669
1252,6.932123,-6.824981,-0.418028,-0.043643,-0.074198,0.055131,-93.527466,-45.387688,94.749573,-0.634787,0.260710,0.673525,-0.274663
1253,6.926819,-6.825412,-0.415472,-0.043632,-0.071136,0.058187,-93.528015,-45.385048,94.750549,-0.634776,0.260722,0.673523,-0.274680
1254,6.925732,-6.825660,-0.414648,-0.043616,-0.065018,0.071934,-93.526848,-45.380798,94.750183,-0.634768,0.260742,0.673512,-0.274709
1255,6.923833,-6.826168,-0.415525,-0.031392,-0.066529,0.068900,-93.525414,-45.375935,94.749702,-0.634759,0.260765,0.673498,-0.274743
1256,6.923937,-6.832344,-0.416715,-0.026803,-0.075673,0.070452,-93.524704,-45.369751,94.750069,-0.634743,0.260794,0.673485,-0.274784
1257,6.923191,-6.827028,-0.420114,-0.031374,-0.060409,0.053691,-93.525902,-45.364006,94.751732,-0.634720,0.260824,0.673480,-0.274819
1258,6.923744,-6.827980,-0.424441,-0.029853,-0.063466,0.047601,-93.530304,-45.360020,94.755516,-0.634690,0.260849,0.673492,-0.274836
1259,6.924450,-6.831718,-0.428276,-0.017660,-0.058904,0.053719,-93.537445,-45.355705,94.761391,-0.634648,0.260878,0.673514,-0.274851
1260,6.923795,-6.831933,-0.424070,-0.026827,-0.063495,0.049161,-93.543701,-45.350956,94.766670,-0.634608,0.260909,0.673532,-0.274871
1261,6.921970,-6.827386,-0.418207,-0.029875,-0.069596,0.044596,-93.545593,-45.347328,94.768829,-0.634588,0.260928,0.673534,-0.274892
1262,6.922220,-6.824899,-0.412906,-0.014596,-0.071101,0.046125,-93.542519,-45.345451,94.767700,-0.634593,0.260928,0.673521,-0.274915
1263,6.924484,-6.823694,-0.413108,-0.005414,-0.069548,0.058324,-93.537041,-45.344978,94.765129,-0.634610,0.260916,0.673501,-0.274935
1264,6.922147,-6.827120,-0.413987,-0.020649,-0.067998,0.062897,-93.532417,-45.343853,94.763046,-0.634623,0.260909,0.673483,-0.274957
1265,6.921106,-6.824616,-0.419193,-0.026739,-0.055776,0.065949,-93.530922,-45.341728,94.762787,-0.634621,0.260914,0.673475,-0.274977
1266,6.924007,-6.820992,-0.424572,-0.020637,-0.051200,0.062884,-93.534050,-45.341312,94.765602,-0.634606,0.260917,0.673488,-0.274976
1267,6.921063,-6.826159,-0.423168,-0.022170,-0.054259,0.055243,-93.538628,-45.340820,94.769501,-0.634585,0.260922,0.673507,-0.274974
1268,6.920347,-6.828369,-0.421127,-0.037429,-0.058837,0.043040,-93.541611,-45.338436,94.772163,-0.634565,0.260937,0.673515,-0.274984
1269,6.921869,-6.821212,-0.417259,-0.040473,-0.072562,0.030829,-93.542519,-45.337872,94.773376,-0.634559,0.260938,0.673519,-0.274989
1270,6.921665,-6.819439,-0.413048,-0.034351,-0.075593,0.024705,-93.540321,-45.339977,94.772614,-0.634571,0.260918,0.673516,-0.274986
1271,6.919213,-6.824950,-0.412116,-0.037375,-0.069461,0.029272,-93.535843,-45.340767,94.770233,-0.634589,0.260903,0.673501,-0.274994
1272,6.925843,-6.825768,-0.413922,-0.041929,-0.070962,0.033843,-93.531952,-45.340797,94.768120,-0.634603,0.260894,0.673487,-0.275005
1273,6.922246,-6.825142,-0.414471,-0.032752,-0.070941,0.044514,-93.529381,-45.341087,94.767014,-0.634613,0.260884,0.673479,-0.275013
1274,6.921329,-6.824603,-0.417984,-0.011377,-0.052616,0.046034,-93.528030,-45.340439,94.766907,-0.634614,0.260881,0.673474,-0.275024
1275,6.921764,-6.820066,-0.419432,-0.014423,-0.063291,0.041444,-93.528648,-45.340759,94.768326,-0.634610,0.260874,0.673480,-0.275026
1276,6.922761,-6.821915,-0.420254,-0.011369,-0.057183,0.026167,-93.530418,-45.342251,94.770645,-0.634605,0.260862,0.673492,-0.275020
1277,6.920862,-6.819303,-0.424271,-0.009847,-0.051084,0.016994,-93.533867,-45.343990,94.774078,-0.634593,0.260851,0.673512,-0.275009
1278,6.926522,-6.820134,-0.425251,-0.014436,-0.041937,0.009341,-93.538986,-45.346935,94.778503,-0.634579,0.260837,0.673540,-0.274987
1279,6.930187,-6.822119,-0.419637,-0.023594,-0.046515,0.016939,-93.541840,-45.351059,94.781097,-0.634578,0.260814,0.673560,-0.274961
1280,6.929394,-6.834468,-0.419021,-0.000697,-0.029721,0.029134,-93.540863,-45.352207,94.780975,-0.634584,0.260802,0.673560,-0.274960
1281,6.928106,-6.838552,-0.417107,0.002369,-0.031233,0.035253,-93.537598,-45.348953,94.779335,-0.634586,0.260812,0.673542,-0.274988
1282,6.926379,-6.832374,-0.411247,-0.002186,-0.031210,0.042897,-93.531387,-45.345490,94.775597,-0.634600,0.260820,0.673512,-0.275024
1283,6.923362,-6.828145,-0.414083,-0.003687,-0.032710,0.038325,-93.524788,-45.343552,94.771515,-0.634619,0.260818,0.673483,-0.275051
1284,6.921820,-6.827605,-0.415799,0.000908,-0.026590,0.027646,-93.520714,-45.342129,94.769241,-0.634630,0.260817,0.673465,-0.275070
1285,6.922031,-6.817703,-0.415215,-0.009762,-0.028102,0.018479,-93.517967,-45.343102,94.767792,-0.634642,0.260805,0.673458,-0.275073
1286,6.920816,-6.811069,-0.412239,-0.014324,-0.037241,0.024550,-93.514938,-45.347435,94.766083,-0.634665,0.260774,0.673455,-0.275057
1288,6.925257,-6.814170,-0.418056,0.014679,-0.034177,0.016880,-93.513176,-45.352898,94.765633,-0.634685,0.260735,0.673460,-0.275034
1289,6.923697,-6.819976,-0.412046,0.022318,-0.049425,0.018376,-93.510941,-45.356686,94.765434,-0.634701,0.260702,0.673461,-0.275024
1290,6.922591,-6.822702,-0.415917,0.020805,-0.069249,0.038204,-93.508247,-45.357319,94.765373,-0.634709,0.260684,0.673456,-0.275036
1291,6.928638,-6.824465,-0.417972,0.016231,-0.073822,0.041245,-93.508659,-45.357334,94.767723,-0.634703,0.260673,0.673463,-0.275046
1292,6.925306,-6.822228,-0.421894,0.014701,-0.070773,0.038180,-93.511833,-45.357895,94.771973,-0.634687,0.260662,0.673481,-0.275048
1293,6.921847,-6.826925,-0.418452,-0.002088,-0.073830,0.045808,-93.515259,-45.356434,94.776192,-0.634665,0.260664,0.673496,-0.275060
1294,6.925305,-6.827197,-0.416822,0.002494,-0.058566,0.059549,-93.516068,-45.353687,94.778252,-0.634651,0.260673,0.673497,-0.275082
1295,6.927092,-6.829354,-0.413892,0.000980,-0.055502,0.047341,-93.514351,-45.351791,94.778328,-0.634649,0.260673,0.673490,-0.275103
1296,6.922925,-6.828808,-0.407943,-0.005101,-0.055479,0.051924,-93.509010,-45.349545,94.775703,-0.634661,0.260672,0.673466,-0.275133
1297,6.927807,-6.825348,-0.409067,0.013239,-0.049345,0.053446,-93.501801,-45.348446,94.771812,-0.634684,0.260661,0.673438,-0.275160
1298,6.927169,-6.825109,-0.406548,0.002586,-0.038634,0.053431,-93.494301,-45.349182,94.767624,-0.634713,0.260640,0.673412,-0.275176
1299,6.925517,-6.824575,-0.408990,-0.011121,-0.035555,0.045787,-93.487717,-45.349766,94.763626,-0.634739,0.260624,0.673388,-0.275190
1300,6.921263,-6.819657,-0.409801,0.005683,-0.008070,0.050352,-93.482750,-45.350227,94.760468,-0.634760,0.260612,0.673370,-0.275199
1301,6.924933,-6.824248,-0.410447,0.037741,-0.003476,0.061021,-93.477615,-45.350361,94.757385,-0.634779,0.260601,0.673351,-0.275211
1302,6.925224,-6.833167,-0.405120,0.037762,-0.001929,0.057970,-93.470055,-45.348400,94.752892,-0.634802,0.260597,0.673319,-0.275242
1303,6.923329,-6.831134,-0.408774,0.065250,-0.018693,0.050353,-93.462067,-45.344936,94.748581,-0.634821,0.260598,0.673283,-0.275284
1304,6.924006,-6.829829,-0.407077,0.071369,-0.017151,0.051885,-93.455452,-45.342255,94.745850,-0.634835,0.260593,0.673256,-0.275323
1305,6.925555,-6.827946,-0.408259,0.074436,-0.020189,0.045780,-93.449318,-45.341084,94.743576,-0.634851,0.260579,0.673234,-0.275353
1306,6.924998,-6.820174,-0.410576,0.056131,-0.017129,0.035080,-93.445786,-45.342564,94.742996,-0.634865,0.260554,0.673227,-0.275363
1307,6.924537,-6.817996,-0.414084,0.048498,-0.023236,0.042678,-93.445923,-45.345879,94.744751,-0.634869,0.260525,0.673237,-0.275353
1308,6.927936,-6.815120,-0.411498,0.036283,-0.004929,0.048741,-93.446838,-45.350388,94.746681,-0.634875,0.260493,0.673253,-0.275332
1309,6.928714,-6.816752,-0.414011,0.036277,-0.006459,0.034962,-93.447647,-45.355782,94.748184,-0.634884,0.260458,0.673269,-0.275306
1310,6.927517,-6.817700,-0.413187,0.019484,-0.015619,0.037975,-93.449478,-45.360199,94.750359,-0.634887,0.260430,0.673286,-0.275282
1311,6.925537,-6.828746,-0.406208,0.021014,-0.023245,0.039487,-93.448135,-45.360962,94.750275,-0.634892,0.260419,0.673285,-0.275285
1312,6.925345,-6.819176,-0.402135,0.019507,-0.015594,0.036429,-93.442123,-45.360882,94.746887,-0.634914,0.260406,0.673262,-0.275302
1313,6.921653,-6.821453,-0.401595,-0.009462,-0.027777,0.039469,-93.435295,-45.361538,94.742599,-0.634942,0.260390,0.673237,-0.275315
1314,6.921060,-6.822623,-0.400880,-0.020119,-0.021649,0.063883,-93.429237,-45.360107,94.738441,-0.634961,0.260389,0.673211,-0.275335
1315,6.921413,-6.824693,-0.398338,-0.015514,-0.032304,0.059309,-93.422546,-45.357697,94.733803,-0.634981,0.260393,0.673179,-0.275362
1316,6.921853,-6.816690,-0.403530,-0.032279,-0.042964,0.057776,-93.418320,-45.356930,94.731026,-0.634995,0.260390,0.673161,-0.275376
1317,6.921497,-6.821383,-0.407624,-0.058215,-0.050588,0.050134,-93.419632,-45.357048,94.731903,-0.634990,0.260391,0.673167,-0.275373
1318,6.919684,-6.822911,-0.405002,-0.033796,-0.044480,0.044028,-93.421616,-45.355656,94.733269,-0.634979,0.260402,0.673172,-0.275376
1319,6.920470,-6.819519,-0.404634,-0.020055,-0.047524,0.030292,-93.421562,-45.354885,94.733612,-0.634976,0.260404,0.673171,-0.275383
1320,6.920954,-6.814366,-0.401623,-0.035301,-0.041407,0.033327,-93.420197,-45.356487,94.732986,-0.634985,0.260391,0.673169,-0.275379
1321,6.919944,-6.819621,-0.401269,-0.027656,-0.038337,0.028732,-93.417465,-45.358006,94.731186,-0.635000,0.260378,0.673162,-0.275376
1322,6.919352,-6.819635,-0.401761,-0.021536,-0.027639,0.034830,-93.414391,-45.357910,94.729149,-0.635011,0.260374,0.673150,-0.275383
1323,6.921072,-6.818238,-0.406192,-0.032208,-0.027630,0.037872,-93.413605,-45.358070,94.728546,-0.635015,0.260372,0.673147,-0.275384
1324,6.922540,-6.815275,-0.402677,-0.053565,-0.038303,0.039379,-93.414207,-45.359699,94.728661,-0.635018,0.260365,0.673151,-0.275372
1325,6.924437,-6.818987,-0.406009,-0.041352,-0.042873,0.043934,-93.415108,-45.361652,94.729073,-0.635020,0.260357,0.673158,-0.275357
1326,6.922432,-6.813665,-0.405213,-0.026090,-0.033713,0.053066,-93.416504,-45.363503,94.730095,-0.635020,0.260348,0.673168,-0.275344
1327,6.925638,-6.820006,-0.405141,-0.013877,-0.041337,0.054570,-93.416908,-45.365032,94.730713,-0.635021,0.260338,0.673173,-0.275337
1328,6.929484,-6.819939,-0.405915,-0.019977,-0.050486,0.046919,-93.417542,-45.366608,94.731758,-0.635022,0.260326,0.673180,-0.275330
1329,6.925929,-6.820258,-0.408510,-0.018450,-0.045908,0.039268,-93.419693,-45.368244,94.733910,-0.635016,0.260316,0.673193,-0.275320
1330,6.925715,-6.817094,-0.405026,-0.021501,-0.047431,0.028568,-93.421394,-45.369865,94.735695,-0.635013,0.260306,0.673204,-0.275311
1331,6.928567,-6.821595,-0.407254,-0.035230,-0.055055,0.022445,-93.422798,-45.371861,94.737175,-0.635011,0.260293,0.673215,-0.275299
1332,6.929218,-6.813398,-0.402078,-0.048955,-0.062675,0.017838,-93.423630,-45.375385,94.738113,-0.635017,0.260272,0.673226,-0.275280
1333,6.931967,-6.815538,-0.399372,-0.047411,-0.068757,0.037636,-93.421616,-45.380436,94.737045,-0.635038,0.260238,0.673228,-0.275257
1334,6.932961,-6.817732,-0.399590,-0.029076,-0.074836,0.039126,-93.418373,-45.384579,94.735451,-0.635060,0.260206,0.673225,-0.275244
1335,6.933906,-6.822160,-0.402697,-0.041267,-0.074816,0.040626,-93.416611,-45.387192,94.735054,-0.635073,0.260184,0.673225,-0.275237
1336,6.929359,-6.815024,-0.401951,-0.044306,-0.071749,0.039077,-93.416367,-45.389259,94.735527,-0.635078,0.260168,0.673229,-0.275229
1337,6.927083,-6.817786,-0.407771,-0.030566,-0.068691,0.037534,-93.418175,-45.390587,94.737511,-0.635073,0.260159,0.673241,-0.275222
1338,6.920835,-6.819514,-0.404989,-0.007676,-0.061058,0.026854,-93.420273,-45.389225,94.740021,-0.635058,0.260163,0.673249,-0.275232
1339,6.924587,-6.818592,-0.399981,-0.012239,-0.062571,0.029912,-93.418495,-45.387402,94.739922,-0.635057,0.260164,0.673241,-0.275252
1340,6.925605,-6.813226,-0.401059,-0.012220,-0.059500,0.037531,-93.415253,-45.387917,94.738708,-0.635069,0.260151,0.673231,-0.275261
1341,6.928746,-6.815837,-0.400153,-0.007627,-0.062533,0.045139,-93.412308,-45.389675,94.737747,-0.635083,0.260130,0.673226,-0.275263
1342,6.927691,-6.817311,-0.391853,-0.007598,-0.057924,0.045122,-93.405609,-45.390892,94.734138,-0.635110,0.260107,0.673204,-0.275276
1343,6.930388,-6.816944,-0.396505,-0.021298,-0.070098,0.043579,-93.398201,-45.392128,94.729950,-0.635140,0.260083,0.673179,-0.275289
1344,6.928164,-6.822853,-0.402920,0.000081,-0.050244,0.042044,-93.395737,-45.392097,94.729294,-0.635147,0.260074,0.673171,-0.275300
1345,6.922612,-6.823114,-0.408443,0.059590,-0.024306,0.039003,-93.396500,-45.389084,94.731354,-0.635132,0.260083,0.673172,-0.275324
1346,6.924834,-6.828421,-0.407668,0.187760,0.053506,0.026818,-93.394318,-45.384678,94.732361,-0.635123,0.260090,0.673160,-0.275367
1347,6.922128,-6.827689,-0.412057,0.222843,0.067225,0.035999,-93.389359,-45.379669,94.732239,-0.635121,0.260092,0.673139,-0.275424
1348,6.922791,-6.823950,-0.411813,0.206037,0.076359,0.040597,-93.385895,-45.375385,94.733139,-0.635114,0.260092,0.673124,-0.275474
1349,6.920816,-6.817657,-0.405596,0.173980,0.059560,0.036023,-93.381340,-45.373470,94.732765,-0.635120,0.260080,0.673108,-0.275509
1350,6.925215,-6.822525,-0.398033,0.131258,0.030572,0.042123,-93.373474,-45.372765,94.729683,-0.635144,0.260059,0.673081,-0.275542
1351,6.924987,-6.817389,-0.395518,-0.009113,-0.048761,0.052795,-93.366882,-45.372845,94.726578,-0.635166,0.260040,0.673058,-0.275564
1352,6.928683,-6.824188,-0.395797,-0.041140,-0.068580,0.045152,-93.364563,-45.373203,94.725639,-0.635175,0.260031,0.673051,-0.275570
1353,6.928164,-6.824409,-0.392793,-0.024336,-0.076189,0.042093,-93.362114,-45.372917,94.724747,-0.635182,0.260024,0.673043,-0.275581
1354,6.926936,-6.819911,-0.395236,-0.009058,-0.077695,0.049712,-93.359383,-45.373085,94.724144,-0.635190,0.260011,0.673035,-0.275593
1355,6.925334,-6.820034,-0.392011,-0.018193,-0.073098,0.032912,-93.356552,-45.373749,94.723511,-0.635200,0.259996,0.673028,-0.275602
1356,6.926746,-6.823406,-0.395232,-0.022753,-0.068501,0.017645,-93.354012,-45.374146,94.722832,-0.635208,0.259983,0.673021,-0.275611
1357,6.928327,-6.818820,-0.392923,-0.025789,-0.062380,0.019158,-93.352104,-45.375584,94.722404,-0.635217,0.259967,0.673019,-0.275612
1358,6.929895,-6.818217,-0.394222,-0.025773,-0.069992,0.022185,-93.350204,-45.378613,94.721970,-0.635231,0.259942,0.673019,-0.275603
1359,6.933156,-6.820249,-0.393917,-0.027284,-0.073027,0.014527,-93.349083,-45.382168,94.722183,-0.635243,0.259914,0.673024,-0.275591
1360,6.931901,-6.819842,-0.398882,-0.013543,-0.077596,0.023657,-93.349945,-45.385376,94.724045,-0.635245,0.259889,0.673036,-0.275578
1361,6.926790,-6.817935,-0.395363,-0.002856,-0.066908,0.034320,-93.350960,-45.387081,94.726227,-0.635242,0.259872,0.673047,-0.275574
1362,6.923066,-6.825689,-0.395534,0.004785,-0.076052,0.035850,-93.349991,-45.385330,94.727180,-0.635238,0.259871,0.673043,-0.275595
1363,6.921214,-6.829917,-0.395920,0.017002,-0.059258,0.034352,-93.348488,-45.379910,94.727913,-0.635224,0.259890,0.673031,-0.275639
1364,6.923538,-6.838103,-0.391039,0.010917,-0.050087,0.038972,-93.344391,-45.372383,94.726547,-0.635216,0.259918,0.673003,-0.275698
1365,6.925513,-6.835722,-0.388960,-0.007368,-0.043958,0.034434,-93.337669,-45.365284,94.722855,-0.635221,0.259943,0.672965,-0.275757
1366,6.926649,-6.836077,-0.392674,-0.007345,-0.060722,0.029884,-93.332733,-45.360107,94.720337,-0.635224,0.259960,0.672937,-0.275802
1367,6.928552,-6.827999,-0.391211,-0.028690,-0.056127,0.035997,-93.330048,-45.357712,94.719322,-0.635226,0.259965,0.672924,-0.275825
1368,6.929823,-6.827373,-0.388418,-0.053085,-0.056105,0.023780,-93.326866,-45.358334,94.717361,-0.635240,0.259955,0.672913,-0.275830
1369,6.929828,-6.824255,-0.391920,-0.040858,-0.063715,0.040547,-93.324692,-45.360001,94.716057,-0.635252,0.259941,0.672908,-0.275826
1370,6.929873,-6.827281,-0.392033,-0.025586,-0.063701,0.037477,-93.323967,-45.361305,94.716194,-0.635257,0.259929,0.672909,-0.275823
1371,6.931378,-6.829769,-0.385733,-0.024039,-0.063679,0.029836,-93.320389,-45.361881,94.714500,-0.635271,0.259916,0.672898,-0.275832
1372,6.927539,-6.831402,-0.392427,-0.028596,-0.060606,0.029835,-93.317108,-45.361145,94.712952,-0.635280,0.259911,0.672885,-0.275847
1373,6.928130,-6.830925,-0.392297,-0.019431,-0.069752,0.032892,-93.316895,-45.359360,94.713722,-0.635274,0.259916,0.672883,-0.275862
1374,6.926560,-6.827944,-0.394502,-0.030104,-0.062115,0.014581,-93.317871,-45.358440,94.715332,-0.635265,0.259917,0.672887,-0.275871
1375,6.928891,-6.822550,-0.395194,-0.037732,-0.069742,0.014568,-93.320557,-45.359844,94.717957,-0.635257,0.259908,0.672902,-0.275861
1376,6.932671,-6.818467,-0.403812,-0.043847,-0.072802,0.019111,-93.327583,-45.364273,94.723633,-0.635239,0.259888,0.672941,-0.275827
1377,6.934398,-6.817474,-0.399806,-0.022499,-0.077394,0.016012,-93.336052,-45.370525,94.730606,-0.635220,0.259859,0.672989,-0.275780
1378,6.936814,-6.815012,-0.403624,-0.016410,-0.069775,0.017484,-93.343246,-45.377850,94.736969,-0.635209,0.259819,0.673035,-0.275732
1379,6.933124,-6.817983,-0.402479,-0.019476,-0.071313,0.020489,-93.350616,-45.384026,94.743408,-0.635194,0.259787,0.673079,-0.275689
1380,6.926157,-6.815102,-0.404299,-0.010333,-0.068273,0.032668,-93.357376,-45.387051,94.749466,-0.635172,0.259772,0.673115,-0.275666
1381,6.921745,-6.819704,-0.401356,0.011020,-0.060652,0.043343,-93.362228,-45.386536,94.754379,-0.635148,0.259773,0.673137,-0.275667
1382,6.927084,-6.822872,-0.402819,0.003386,-0.068286,0.049451,-93.365425,-45.384197,94.758263,-0.635125,0.259781,0.673149,-0.275683
1383,6.922359,-6.820277,-0.401826,-0.002722,-0.071342,0.057084,-93.368820,-45.381779,94.762253,-0.635101,0.259790,0.673161,-0.275699
1384,6.928373,-6.820521,-0.403042,0.000327,-0.065241,0.063184,-93.372009,-45.380116,94.766006,-0.635080,0.259795,0.673174,-0.275711
1385,6.935279,-6.825745,-0.403025,-0.011883,-0.066770,0.054013,-93.375305,-45.380222,94.769691,-0.635064,0.259791,0.673191,-0.275711
1386,6.938932,-6.822177,-0.402123,-0.036299,-0.066769,0.046357,-93.378525,-45.382538,94.772888,-0.635055,0.259777,0.673210,-0.275697
1387,6.934883,-6.816774,-0.400883,-0.043927,-0.053030,0.031059,-93.381058,-45.386944,94.775085,-0.635056,0.259753,0.673230,-0.275669
1388,6.934579,-6.825768,-0.404364,-0.036296,-0.054554,0.038663,-93.383957,-45.389488,94.777412,-0.635051,0.259741,0.673247,-0.275651
1389,6.930807,-6.820147,-0.406011,-0.037827,-0.072871,0.035599,-93.388878,-45.389957,94.781471,-0.635032,0.259741,0.673269,-0.275642
1391,6.929180,-6.824018,-0.405791,-0.048514,-0.082032,0.034067,-93.394707,-45.389576,94.786362,-0.635005,0.259747,0.673293,-0.275637
1392,6.925633,-6.825264,-0.408022,-0.050046,-0.088143,0.031023,-93.401192,-45.387089,94.791756,-0.634971,0.259766,0.673316,-0.275642
1393,6.927357,-6.822190,-0.405828,-0.030214,-0.109511,0.035607,-93.407280,-45.384686,94.797401,-0.634937,0.259780,0.673339,-0.275652
1394,6.927553,-6.816787,-0.399570,-0.057674,-0.115605,0.012710,-93.410027,-45.385086,94.800911,-0.634924,0.259772,0.673354,-0.275653
1395,6.926930,-6.823782,-0.399445,-0.083596,-0.115586,0.006599,-93.410629,-45.385719,94.802345,-0.634920,0.259764,0.673360,-0.275654
1396,6.927373,-6.824102,-0.396544,-0.069838,-0.103355,0.017284,-93.409615,-45.384712,94.802353,-0.634920,0.259764,0.673356,-0.275665
1397,6.929812,-6.825002,-0.398547,-0.060657,-0.104856,0.023390,-93.407631,-45.383797,94.801781,-0.634923,0.259761,0.673348,-0.275679
1398,6.930543,-6.824416,-0.399981,-0.080475,-0.089577,0.021861,-93.407150,-45.383461,94.802010,-0.634923,0.259759,0.673347,-0.275685
1399,6.932981,-6.822134,-0.396688,-0.052986,-0.084976,0.031005,-93.405640,-45.384365,94.801353,-0.634930,0.259750,0.673344,-0.275685
1400,6.929471,-6.823454,-0.392892,-0.020911,-0.078839,0.041675,-93.400085,-45.384987,94.798386,-0.634952,0.259733,0.673325,-0.275698
1401,6.928398,-6.823246,-0.393514,-0.017824,-0.086434,0.037094,-93.392960,-45.384285,94.794731,-0.634975,0.259719,0.673298,-0.275723
1402,6.928948,-6.821939,-0.391338,-0.022368,-0.086399,0.038615,-93.386017,-45.383869,94.791283,-0.634998,0.259703,0.673273,-0.275747
1403,6.929580,-6.829286,-0.394805,-0.031492,-0.086368,0.043195,-93.380394,-45.382362,94.788597,-0.635013,0.259696,0.673250,-0.275774
1404,6.925200,-6.829743,-0.398258,-0.045206,-0.083297,0.046263,-93.378410,-45.378345,94.788193,-0.635007,0.259710,0.673237,-0.275806
1405,6.930696,-6.825123,-0.401664,-0.054353,-0.081762,0.032537,-93.380089,-45.375793,94.790085,-0.634992,0.259723,0.673240,-0.275821
1406,6.933197,-6.825415,-0.400171,-0.061976,-0.075652,0.037104,-93.382866,-45.376266,94.792473,-0.634981,0.259722,0.673253,-0.275815
1407,6.926845,-6.822530,-0.403185,-0.049764,-0.075647,0.038619,-93.385918,-45.376480,94.795036,-0.634969,0.259722,0.673267,-0.275810
1408,6.924278,-6.825673,-0.396476,-0.020762,-0.071060,0.049304,-93.386360,-45.374603,94.796165,-0.634960,0.259729,0.673267,-0.275825
1409,6.928082,-6.822234,-0.397620,-0.011587,-0.063411,0.049303,-93.383446,-45.373039,94.795212,-0.634964,0.259727,0.673254,-0.275845
1410,6.927084,-6.821886,-0.395228,-0.023776,-0.061864,0.046241,-93.380127,-45.373085,94.793831,-0.634975,0.259717,0.673243,-0.275857
1411,6.922378,-6.820572,-0.394353,-0.034434,-0.063367,0.043183,-93.376190,-45.372524,94.791740,-0.634988,0.259711,0.673228,-0.275872
1412,6.926641,-6.818732,-0.392472,-0.035935,-0.064867,0.041647,-93.371796,-45.372669,94.789215,-0.635004,0.259700,0.673212,-0.275883
1413,6.925196,-6.810490,-0.391793,-0.046591,-0.077045,0.037042,-93.367424,-45.375645,94.786736,-0.635028,0.259674,0.673202,-0.275878
1414,6.923533,-6.811916,-0.391459,-0.052668,-0.080069,0.032431,-93.363770,-45.379398,94.784744,-0.635052,0.259644,0.673196,-0.275867
1415,6.920838,-6.814771,-0.392947,-0.040437,-0.080044,0.041569,-93.360855,-45.380932,94.783386,-0.635066,0.259627,0.673188,-0.275868
1416,6.922829,-6.811706,-0.392677,-0.019054,-0.076971,0.032398,-93.358154,-45.382072,94.782539,-0.635077,0.259610,0.673182,-0.275873
1417,6.922684,-6.818459,-0.392665,-0.025137,-0.072371,0.030861,-93.355156,-45.382877,94.781586,-0.635088,0.259594,0.673174,-0.275880
1418,6.922046,-6.824005,-0.401341,-0.026655,-0.070837,0.021711,-93.355812,-45.380943,94.783066,-0.635078,0.259600,0.673176,-0.275896
1419,6.921652,-6.828909,-0.402543,-0.017503,-0.064740,0.030890,-93.360207,-45.376545,94.787224,-0.635046,0.259626,0.673187,-0.275918
1420,6.925481,-6.826176,-0.404769,-0.000727,-0.066276,0.038537,-93.365189,-45.372395,94.792046,-0.635011,0.259649,0.673202,-0.275939
1421,6.922175,-6.830193,-0.404338,0.000790,-0.080019,0.047710,-93.370369,-45.368202,94.797371,-0.634975,0.259670,0.673218,-0.275962
1422,6.920474,-6.832294,-0.400628,0.006893,-0.078496,0.046214,-93.373222,-45.362019,94.801285,-0.634942,0.259698,0.673222,-0.276002
1423,6.920064,-6.831351,-0.397987,0.008428,-0.069334,0.046245,-93.372696,-45.355789,94.802757,-0.634923,0.259722,0.673212,-0.276048
1424,6.920592,-6.827607,-0.396660,0.003863,-0.083054,0.046265,-93.370628,-45.351223,94.803146,-0.634914,0.259735,0.673199,-0.276088
1425,6.919745,-6.834383,-0.397865,-0.011381,-0.090669,0.031027,-93.369278,-45.346745,94.804085,-0.634903,0.259747,0.673189,-0.276127
1426,6.921086,-6.833213,-0.400615,-0.020529,-0.079981,0.021896,-93.369965,-45.341991,94.806145,-0.634883,0.259766,0.673187,-0.276161
1427,6.926056,-6.830028,-0.407763,-0.019009,-0.073883,0.021903,-93.374802,-45.339970,94.810890,-0.634855,0.259777,0.673205,-0.276170
1428,6.929435,-6.827025,-0.403852,-0.029699,-0.070840,0.021888,-93.380875,-45.341274,94.816284,-0.634832,0.259771,0.673234,-0.276157
1429,6.932196,-6.827206,-0.403922,-0.052591,-0.070841,0.012704,-93.385384,-45.344688,94.820168,-0.634822,0.259754,0.673261,-0.276133
1430,6.936058,-6.818127,-0.397846,-0.055635,-0.060150,0.014183,-93.387314,-45.351288,94.821762,-0.634832,0.259717,0.673282,-0.276093
1431,6.936471,-6.820572,-0.399159,-0.061726,-0.064710,0.018702,-93.387154,-45.359631,94.821701,-0.634855,0.259669,0.673297,-0.276046
1432,6.934560,-6.819396,-0.392326,-0.057127,-0.073840,0.020178,-93.384827,-45.366611,94.820229,-0.634883,0.259625,0.673302,-0.276012
1433,6.931925,-6.820025,-0.391891,-0.041836,-0.075332,0.023190,-93.379410,-45.372009,94.816917,-0.634918,0.259583,0.673292,-0.275995
1434,6.931972,-6.824670,-0.390554,-0.017388,-0.061564,0.030795,-93.372658,-45.375004,94.812973,-0.634951,0.259552,0.673272,-0.275996
1435,6.927210,-6.825585,-0.391964,-0.002098,-0.058480,0.033839,-93.365448,-45.375278,94.808960,-0.634978,0.259534,0.673246,-0.276015
1436,6.926749,-6.821498,-0.388848,0.004036,-0.049293,0.039938,-93.357704,-45.374855,94.804680,-0.635005,0.259519,0.673217,-0.276039
1437,6.926163,-6.822325,-0.388978,-0.011190,-0.047734,0.050611,-93.349495,-45.374668,94.799828,-0.635035,0.259503,0.673186,-0.276061
1438,6.927701,-6.820667,-0.389194,-0.026420,-0.044652,0.049075,-93.342682,-45.374733,94.795547,-0.635060,0.259490,0.673160,-0.276077
1439,6.927061,-6.824071,-0.391368,-0.034025,-0.055308,0.039911,-93.338097,-45.374760,94.792671,-0.635078,0.259481,0.673143,-0.276088
1440,6.926863,-6.827794,-0.390640,-0.026376,-0.062917,0.044490,-93.334816,-45.373169,94.790947,-0.635085,0.259482,0.673128,-0.276107
1441,6.924233,-6.826922,-0.392015,-0.009572,-0.061373,0.055180,-93.331818,-45.370209,94.789780,-0.635087,0.259490,0.673112,-0.276135
1442,6.921309,-6.828863,-0.395198,0.002647,-0.044578,0.046042,-93.330215,-45.366039,94.789719,-0.635079,0.259505,0.673100,-0.276167
1443,6.919775,-6.836015,-0.398343,0.016382,-0.044577,0.058282,-93.330544,-45.359283,94.791145,-0.635056,0.259537,0.673091,-0.276212
1444,6.916455,-6.829910,-0.398537,0.016380,-0.035426,0.065949,-93.331909,-45.351498,94.793358,-0.635026,0.259576,0.673084,-0.276260
1445,6.914898,-6.829709,-0.398807,0.019429,-0.027801,0.062928,-93.333191,-45.344666,94.795334,-0.635000,0.259611,0.673079,-0.276302
1446,6.920158,-6.832376,-0.395090,0.017905,-0.035430,0.040063,-93.332848,-45.339298,94.796219,-0.634984,0.259634,0.673069,-0.276339
1447,6.920104,-6.827612,-0.396066,0.005704,-0.053735,0.035495,-93.332062,-45.336521,94.796913,-0.634976,0.259642,0.673064,-0.276364
1448,6.920201,-6.815056,-0.398502,-0.004978,-0.053734,0.023271,-93.333870,-45.337994,94.799431,-0.634970,0.259629,0.673077,-0.276359
1449,6.919502,-6.815773,-0.399236,0.002646,-0.065945,0.030867,-93.337509,-45.341919,94.803352,-0.634963,0.259603,0.673102,-0.276337
1450,6.924228,-6.814208,-0.404457,-0.030938,-0.072060,0.036933,-93.344116,-45.346256,94.809280,-0.634946,0.259580,0.673140,-0.276306
1451,6.919981,-6.815247,-0.408268,-0.050798,-0.062927,0.046052,-93.354843,-45.350048,94.817474,-0.634912,0.259570,0.673191,-0.276267
1452,6.922882,-6.815259,-0.401466,-0.041659,-0.055312,0.061280,-93.363289,-45.352573,94.823685,-0.634885,0.259566,0.673231,-0.276238
1453,6.924028,-6.821281,-0.400227,-0.035556,-0.059890,0.062781,-93.366936,-45.354179,94.826637,-0.634874,0.259559,0.673249,-0.276223
1454,6.925528,-6.822032,-0.395257,-0.043177,-0.050723,0.053607,-93.367188,-45.354923,94.827087,-0.634875,0.259554,0.673252,-0.276220
1455,6.923585,-6.820323,-0.395175,-0.038582,-0.052231,0.042908,-93.365082,-45.356056,94.825760,-0.634886,0.259543,0.673246,-0.276219
1456,6.930031,-6.819148,-0.394458,-0.030936,-0.053738,0.048984,-93.362656,-45.358704,94.824387,-0.634902,0.259523,0.673243,-0.276211
1457,6.933628,-6.820582,-0.393064,-0.029389,-0.047613,0.039789,-93.359344,-45.363277,94.822449,-0.634926,0.259490,0.673239,-0.276193
1458,6.931674,-6.816787,-0.394313,-0.038527,-0.052169,0.032116,-93.356438,-45.368603,94.820679,-0.634952,0.259454,0.673238,-0.276170
1459,6.934125,-6.813994,-0.400903,-0.032416,-0.059789,0.029015,-93.357536,-45.374989,94.821884,-0.634964,0.259416,0.673256,-0.276135
1460,6.936084,-6.819757,-0.398083,-0.015630,-0.052155,0.039649,-93.359848,-45.380909,94.824219,-0.634970,0.259381,0.673278,-0.276100
1461,6.933910,-6.817132,-0.399574,-0.015627,-0.058253,0.041136,-93.361031,-45.385311,94.825920,-0.634975,0.259352,0.673294,-0.276078
1462,6.929228,-6.822015,-0.402662,-0.007999,-0.065884,0.039587,-93.364029,-45.387260,94.829170,-0.634966,0.259339,0.673312,-0.276067
1463,6.932780,-6.829730,-0.400290,0.011836,-0.059781,0.045690,-93.366341,-45.385925,94.832291,-0.634949,0.259341,0.673322,-0.276078
1464,6.933506,-6.829951,-0.400518,0.027100,-0.044519,0.038064,-93.366364,-45.383854,94.833916,-0.634939,0.259343,0.673322,-0.276099
1465,6.932026,-6.823887,-0.395135,0.046947,-0.041456,0.027378,-93.363388,-45.383408,94.833633,-0.634946,0.259331,0.673313,-0.276117
1466,6.934754,-6.823706,-0.393278,0.060699,-0.030754,0.013629,-93.356911,-45.385174,94.831123,-0.634971,0.259300,0.673295,-0.276132
1467,6.937745,-6.816943,-0.399626,0.045451,-0.029215,0.012070,-93.352791,-45.389706,94.830124,-0.634995,0.259257,0.673292,-0.276125
1468,6.932176,-6.818468,-0.402736,0.043922,-0.032269,0.016613,-93.353584,-45.394325,94.832443,-0.635001,0.259221,0.673308,-0.276107
1469,6.930975,-6.814153,-0.398429,0.031711,-0.032271,0.033373,-93.354378,-45.397327,94.834625,-0.635002,0.259196,0.673321,-0.276097
1470,6.931869,-6.812893,-0.403598,0.001187,-0.039904,0.036394,-93.356407,-45.400700,94.837265,-0.635000,0.259172,0.673338,-0.276081
1471,6.925550,-6.813029,-0.405881,-0.014086,-0.042969,0.037896,-93.362389,-45.402702,94.842293,-0.634980,0.259164,0.673368,-0.276062
1472,6.928371,-6.814335,-0.400645,-0.001889,-0.038400,0.043986,-93.366730,-45.403324,94.846077,-0.634963,0.259163,0.673388,-0.276054
1473,6.933262,-6.815733,-0.397540,0.004220,-0.036868,0.050069,-93.366547,-45.404736,94.846802,-0.634965,0.259149,0.673392,-0.276051
1474,6.931064,-6.820090,-0.398776,-0.001876,-0.049066,0.040899,-93.365433,-45.405464,94.846970,-0.634970,0.259138,0.673391,-0.276054
1475,6.929295,-6.824992,-0.395905,0.005765,-0.047530,0.047007,-93.363625,-45.403397,94.846794,-0.634968,0.259141,0.673382,-0.276076
1476,6.932696,-6.821076,-0.394526,0.016462,-0.044462,0.048536,-93.359756,-45.401447,94.845314,-0.634975,0.259139,0.673366,-0.276101
1477,6.923730,-6.825995,-0.391304,0.010380,-0.050544,0.036339,-93.354218,-45.398575,94.842743,-0.634986,0.259140,0.673341,-0.276136
1478,6.924660,-6.822381,-0.392861,-0.021641,-0.053575,0.033309,-93.349228,-45.394272,94.840225,-0.634992,0.259152,0.673315,-0.276176
1479,6.927512,-6.828038,-0.393882,-0.020098,-0.047454,0.039429,-93.346245,-45.390602,94.838737,-0.634992,0.259165,0.673297,-0.276206
1480,6.929822,-6.823328,-0.392404,-0.015504,-0.050489,0.045541,-93.343285,-45.388004,94.837296,-0.634995,0.259172,0.673282,-0.276230
1481,6.930181,-6.826210,-0.389499,-0.029216,-0.059622,0.042489,-93.339188,-45.386646,94.835075,-0.635006,0.259170,0.673264,-0.276249
1482,6.934421,-6.822917,-0.395937,-0.030726,-0.055028,0.048585,-93.337257,-45.386429,94.834267,-0.635012,0.259165,0.673257,-0.276257
1483,6.933297,-6.827829,-0.396308,-0.013935,-0.045867,0.048574,-93.337936,-45.386414,94.835335,-0.635007,0.259163,0.673261,-0.276259
1484,6.932913,-6.823025,-0.390902,-0.012396,-0.051958,0.036357,-93.336227,-45.386349,94.834892,-0.635012,0.259156,0.673256,-0.276267
1485,6.930188,-6.828816,-0.395880,-0.020013,-0.048893,0.025673,-93.334549,-45.385834,94.834450,-0.635016,0.259153,0.673250,-0.276278
1486,6.932889,-6.831572,-0.397633,-0.018484,-0.047363,0.031784,-93.335663,-45.383541,94.835869,-0.635003,0.259164,0.673252,-0.276292
1488,6.935547,-6.834652,-0.396011,-0.004747,-0.050412,0.034844,-93.336487,-45.381119,94.837273,-0.634991,0.259174,0.673252,-0.276309
1489,6.934897,-6.826026,-0.392547,-0.019995,-0.048875,0.021107,-93.335281,-45.380749,94.837242,-0.634993,0.259169,0.673248,-0.276318
1490,6.932475,-6.827738,-0.397649,-0.030668,-0.048867,0.031779,-93.335350,-45.381363,94.837799,-0.634993,0.259163,0.673251,-0.276317
1491,6.932044,-6.826207,-0.394045,-0.033715,-0.053438,0.027195,-93.336411,-45.381210,94.838943,-0.634988,0.259163,0.673256,-0.276318
1492,6.924261,-6.823469,-0.397446,-0.038287,-0.050381,0.033299,-93.337570,-45.380203,94.840088,-0.634980,0.259169,0.673259,-0.276323
1493,6.919662,-6.816599,-0.401280,-0.064233,-0.050386,0.037879,-93.342339,-45.378448,94.843391,-0.634956,0.259186,0.673275,-0.276323
1494,6.921546,-6.820421,-0.403528,-0.044409,-0.053450,0.047036,-93.349571,-45.376598,94.848404,-0.634923,0.259207,0.673300,-0.276319
1495,6.920478,-6.821719,-0.403062,-0.024584,-0.062619,0.039413,-93.356361,-45.373966,94.853714,-0.634887,0.259228,0.673323,-0.276324
1496,6.922903,-6.821918,-0.404825,-0.013915,-0.056527,0.053151,-93.362495,-45.371407,94.858963,-0.634854,0.259246,0.673345,-0.276331
1497,6.927875,-6.824974,-0.405813,-0.009349,-0.061118,0.037890,-93.368782,-45.369946,94.864464,-0.634822,0.259257,0.673370,-0.276333
1498,6.928062,-6.826908,-0.400141,-0.007829,-0.064174,0.033309,-93.372414,-45.369091,94.868263,-0.634802,0.259260,0.673386,-0.276337
1499,6.927001,-6.825142,-0.394620,-0.012393,-0.068739,0.021100,-93.371056,-45.368546,94.868568,-0.634803,0.259253,0.673382,-0.276350
1500,6.929909,-6.828686,-0.393234,-0.009318,-0.051930,0.024149,-93.366486,-45.368332,94.866440,-0.634818,0.259242,0.673366,-0.276367
1501,6.926274,-6.824921,-0.394273,-0.012348,-0.050381,0.027198,-93.361748,-45.367970,94.863976,-0.634834,0.259232,0.673348,-0.276383
1502,6.928112,-6.823459,-0.390024,0.004462,-0.048829,0.033294,-93.355957,-45.368244,94.860886,-0.634855,0.259217,0.673328,-0.276398
1503,6.931056,-6.820257,-0.389496,0.006017,-0.048799,0.022592,-93.348495,-45.370632,94.856796,-0.634888,0.259186,0.673305,-0.276406
1504,6.931795,-6.821293,-0.389842,-0.016845,-0.053348,0.028667,-93.342110,-45.374172,94.853287,-0.634921,0.259151,0.673288,-0.276404
1505,6.932333,-6.812816,-0.394069,-0.038190,-0.053327,0.033206,-93.339310,-45.378998,94.851845,-0.634944,0.259116,0.673288,-0.276385
1506,6.935051,-6.811589,-0.392455,-0.039704,-0.054838,0.030100,-93.338692,-45.386055,94.851700,-0.634965,0.259073,0.673300,-0.276348
1507,6.930277,-6.812383,-0.393143,-0.050373,-0.054822,0.037682,-93.338104,-45.392117,94.851456,-0.634984,0.259037,0.673309,-0.276315
1508,6.927104,-6.817097,-0.392949,-0.041204,-0.042601,0.046813,-93.337448,-45.394451,94.850967,-0.634993,0.259022,0.673311,-0.276303
1509,6.926879,-6.823180,-0.396435,-0.035092,-0.028858,0.051388,-93.337242,-45.393158,94.850693,-0.634990,0.259030,0.673308,-0.276310
1510,6.926072,-6.831185,-0.390647,-0.041183,-0.024269,0.045304,-93.335503,-45.388737,94.849106,-0.634986,0.259055,0.673291,-0.276337
1511,6.926774,-6.833188,-0.395933,-0.048800,-0.022730,0.046861,-93.333519,-45.382568,94.847107,-0.634978,0.259091,0.673270,-0.276372
1512,6.928491,-6.834794,-0.397103,-0.050321,-0.013573,0.043839,-93.334312,-45.376625,94.846863,-0.634961,0.259131,0.673260,-0.276400
1513,6.930534,-6.834989,-0.397306,-0.053370,-0.008993,0.036232,-93.335548,-45.371872,94.846718,-0.634945,0.259166,0.673253,-0.276419
1514,6.932812,-6.828298,-0.395472,-0.039632,-0.018145,0.045392,-93.336052,-45.369892,94.846237,-0.634940,0.259183,0.673250,-0.276424
1515,6.934121,-6.826073,-0.397020,-0.009108,-0.030346,0.053005,-93.336182,-45.370560,94.846245,-0.634942,0.259180,0.673251,-0.276420
1516,6.928228,-6.832530,-0.389158,0.015320,-0.047118,0.054528,-93.333092,-45.369354,94.844955,-0.634948,0.259177,0.673238,-0.276438
1517,6.927097,-6.828249,-0.389791,0.010765,-0.057776,0.042330,-93.327217,-45.366508,94.842247,-0.634960,0.259177,0.673213,-0.276473
1518,6.927431,-6.826034,-0.390151,0.010785,-0.066911,0.049958,-93.322769,-45.365105,94.840736,-0.634970,0.259169,0.673196,-0.276499
1519,6.923116,-6.828311,-0.387935,0.018436,-0.063838,0.034703,-93.318054,-45.363220,94.839195,-0.634979,0.259163,0.673177,-0.276529
1520,6.921816,-6.829847,-0.387714,-0.012060,-0.066868,0.033192,-93.313065,-45.359840,94.837196,-0.634986,0.259166,0.673154,-0.276566
1521,6.926743,-6.820686,-0.389212,-0.041033,-0.056166,0.028613,-93.310158,-45.359169,94.835892,-0.634994,0.259162,0.673143,-0.276580
1522,6.928718,-6.829576,-0.384336,-0.036432,-0.059195,0.033178,-93.306526,-45.360233,94.833702,-0.635010,0.259148,0.673131,-0.276583
1523,6.928232,-6.837270,-0.384689,-0.053188,-0.063744,0.031660,-93.301254,-45.358116,94.830276,-0.635025,0.259151,0.673107,-0.276607
