seq,ax,ay,az,wroll,wpitch,wyaw,roll,pitch,yaw,q0,q1,q2,q3
34,0.041867,0.107091,-9.869753,1.341555,-0.171412,-4.393925,179.378342,-0.243030,-179.997360,-0.002121,-0.000012,0.999983,0.005425
36,0.024703,0.049166,-9.875416,-1.680317,0.339832,-0.191171,179.386383,-0.240858,-179.920975,-0.002106,-0.000678,0.999983,0.005353
37,0.028565,0.056335,-9.875964,-2.755965,0.487811,-0.093512,179.338394,-0.247304,-179.916199,-0.002162,-0.000719,0.999981,0.005772
38,0.039420,0.094776,-9.868138,-3.564623,0.545776,0.001096,179.249634,-0.260611,-179.914520,-0.002279,-0.000731,0.999976,0.006546
39,0.042896,0.126172,-9.865493,-3.190744,0.469474,0.046873,179.142426,-0.276293,-179.915100,-0.002417,-0.000723,0.999969,0.007482
40,0.045354,0.143875,-9.870549,-2.308751,0.356551,0.052977,179.052444,-0.289061,-179.916565,-0.002528,-0.000707,0.999962,0.008267
41,0.050542,0.157544,-9.861085,-1.719732,0.284830,0.020933,178.987579,-0.299416,-179.917618,-0.002619,-0.000696,0.999957,0.008833
43,0.053190,0.158281,-9.862605,-0.607306,0.141396,-0.038577,178.954025,-0.307101,-179.917221,-0.002686,-0.000698,0.999955,0.009126
44,0.046753,0.145308,-9.869201,0.271689,0.007110,-0.056888,178.960724,-0.308457,-179.915649,-0.002698,-0.000712,0.999955,0.009067
45,0.042744,0.139421,-9.868055,0.128341,0.029979,-0.056888,178.985397,-0.305041,-179.913849,-0.002669,-0.000728,0.999957,0.008852
46,0.044598,0.143070,-9.867187,-0.161498,0.071156,-0.046207,179.002075,-0.302263,-179.912186,-0.002644,-0.000743,0.999958,0.008706
47,0.042428,0.149392,-9.872663,0.021679,0.045194,-0.044681,179.012848,-0.299918,-179.910706,-0.002624,-0.000757,0.999959,0.008612
48,0.041423,0.153672,-9.873654,-0.077459,0.061955,-0.041629,179.021347,-0.296861,-179.909286,-0.002597,-0.000769,0.999960,0.008538
50,0.041603,0.160524,-9.876318,-0.196441,0.092438,-0.029423,179.024719,-0.292303,-179.908096,-0.002558,-0.000780,0.999960,0.008509
51,0.047341,0.162373,-9.877061,-0.057549,0.066467,-0.034000,179.027222,-0.288828,-179.907028,-0.002527,-0.000790,0.999960,0.008487
52,0.043646,0.162062,-9.878212,-0.065151,0.064919,-0.035526,179.030701,-0.286545,-179.905869,-0.002507,-0.000800,0.999961,0.008457
53,0.042836,0.155792,-9.873996,-0.110887,0.070991,-0.032474,179.035950,-0.282647,-179.904739,-0.002473,-0.000811,0.999961,0.008411
54,0.044385,0.156288,-9.873848,-0.040644,0.057232,-0.040105,179.043625,-0.279502,-179.903534,-0.002446,-0.000821,0.999962,0.008344
55,0.045519,0.156342,-9.869248,-0.022289,0.055689,-0.037053,179.051407,-0.277996,-179.902267,-0.002433,-0.000833,0.999963,0.008276
57,0.044300,0.155867,-9.867341,-0.035983,0.066356,-0.043157,179.058136,-0.277002,-179.900925,-0.002424,-0.000845,0.999963,0.008217
58,0.045629,0.156410,-9.860086,-0.057315,0.078549,-0.041631,179.062958,-0.276669,-179.899506,-0.002421,-0.000857,0.999963,0.008175
59,0.047785,0.156275,-9.868363,-0.016089,0.072441,-0.055364,179.066971,-0.278229,-179.897873,-0.002435,-0.000871,0.999964,0.008140
60,0.045559,0.152624,-9.868396,-0.046575,0.075487,-0.056889,179.072311,-0.279579,-179.895996,-0.002447,-0.000888,0.999964,0.008093
61,0.043849,0.154920,-9.868431,-0.040440,0.070894,-0.059942,179.077118,-0.278756,-179.894043,-0.002440,-0.000905,0.999964,0.008051
62,0.043874,0.159475,-9.866272,-0.019067,0.066296,-0.050786,179.078217,-0.276927,-179.892166,-0.002424,-0.000922,0.999964,0.008042
64,0.039436,0.161705,-9.868286,0.009917,0.058635,-0.053839,179.076370,-0.272981,-179.890381,-0.002390,-0.000937,0.999964,0.008058
65,0.037465,0.168227,-9.862552,0.012940,0.061644,-0.044684,179.070862,-0.266346,-179.888687,-0.002332,-0.000953,0.999964,0.008106
66,0.039847,0.178972,-9.863737,-0.006966,0.078392,-0.034003,179.057297,-0.261134,-179.887268,-0.002287,-0.000965,0.999963,0.008224
67,0.041637,0.175482,-9.868155,0.026528,0.072265,-0.037056,179.042084,-0.259096,-179.885971,-0.002269,-0.000976,0.999962,0.008357
68,0.039118,0.177053,-9.869651,0.009681,0.070719,-0.038582,179.030533,-0.257169,-179.884613,-0.002253,-0.000988,0.999961,0.008458
69,0.045674,0.176788,-9.875316,0.008104,0.072234,-0.041635,179.020325,-0.257506,-179.883194,-0.002256,-0.001000,0.999960,0.008547
71,0.045549,0.170140,-9.876749,-0.028545,0.066137,-0.044687,179.014694,-0.260993,-179.881699,-0.002286,-0.001013,0.999960,0.008596
72,0.044469,0.166769,-9.873267,0.005029,0.056982,-0.034005,179.015167,-0.263332,-179.880356,-0.002307,-0.001024,0.999960,0.008592
73,0.047042,0.169971,-9.871902,-0.007172,0.060037,-0.030953,179.016464,-0.265820,-179.879242,-0.002329,-0.001034,0.999960,0.008580
74,0.045708,0.163421,-9.872755,-0.020891,0.056989,-0.024850,179.018799,-0.268509,-179.878296,-0.002352,-0.001042,0.999960,0.008560
75,0.044894,0.166921,-9.869524,-0.004086,0.058511,-0.009590,179.022339,-0.269714,-179.877701,-0.002363,-0.001047,0.999960,0.008529
76,0.047258,0.167329,-9.867554,0.012707,0.060036,-0.011116,179.024017,-0.271411,-179.877335,-0.002378,-0.001050,0.999960,0.008514
78,0.046539,0.168008,-9.868291,0.012710,0.047829,-0.017220,179.024994,-0.273484,-179.876831,-0.002396,-0.001054,0.999960,0.008506
79,0.049115,0.167279,-9.863181,0.021867,0.049360,-0.014168,179.025909,-0.275973,-179.876282,-0.002417,-0.001059,0.999960,0.008498
80,0.050519,0.170444,-9.863886,0.037121,0.050898,-0.011115,179.025848,-0.280071,-179.875824,-0.002453,-0.001063,0.999960,0.008498
81,0.047107,0.158267,-9.864764,0.032560,0.040221,-0.024849,179.030258,-0.282489,-179.875214,-0.002474,-0.001068,0.999961,0.008460
82,0.047614,0.159765,-9.868253,0.032600,0.037164,-0.027901,179.039444,-0.282715,-179.874359,-0.002476,-0.001076,0.999961,0.008380
83,0.049500,0.156751,-9.871466,0.028061,0.041742,-0.035530,179.048203,-0.283886,-179.873322,-0.002486,-0.001085,0.999962,0.008303
85,0.046687,0.151581,-9.870783,0.034216,0.029531,-0.034004,179.059479,-0.284357,-179.872192,-0.002491,-0.001095,0.999963,0.008205
86,0.050069,0.150244,-9.871321,0.026645,0.034105,-0.040108,179.072189,-0.284839,-179.871002,-0.002495,-0.001106,0.999964,0.008094
87,0.055237,0.158717,-9.872210,0.025151,0.035649,-0.034003,179.079315,-0.289475,-179.869766,-0.002535,-0.001116,0.999964,0.008031
88,0.052753,0.163683,-9.871060,0.022089,0.046352,-0.026374,179.078217,-0.295190,-179.868729,-0.002585,-0.001125,0.999964,0.008041
89,0.049738,0.165022,-9.871119,0.019010,0.050934,-0.035529,179.073456,-0.297640,-179.867645,-0.002607,-0.001134,0.999963,0.008082
90,0.046443,0.165969,-9.876483,0.014402,0.057023,-0.041633,179.067993,-0.296519,-179.866302,-0.002597,-0.001146,0.999963,0.008130
92,0.045664,0.167603,-9.873850,0.032681,0.063102,-0.043160,179.062378,-0.293512,-179.864822,-0.002571,-0.001159,0.999963,0.008179
93,0.043495,0.169532,-9.874978,0.026542,0.070701,-0.043161,179.056168,-0.289654,-179.863312,-0.002537,-0.001172,0.999962,0.008233
94,0.045757,0.166347,-9.870712,0.040246,0.069149,-0.040109,179.051636,-0.286522,-179.861862,-0.002510,-0.001185,0.999962,0.008273
95,0.043682,0.170834,-9.872567,0.028012,0.070650,-0.027903,179.047379,-0.284071,-179.860657,-0.002489,-0.001195,0.999962,0.008310
96,0.045963,0.177177,-9.870612,0.024912,0.070629,-0.017221,179.038376,-0.282215,-179.859818,-0.002473,-0.001203,0.999961,0.008389
97,0.047402,0.178012,-9.871552,0.029428,0.064516,-0.014169,179.027008,-0.282421,-179.859192,-0.002475,-0.001208,0.999960,0.008488
99,0.045836,0.173364,-9.866267,0.033961,0.055350,-0.029429,179.019302,-0.282455,-179.858398,-0.002475,-0.001215,0.999960,0.008555
100,0.047172,0.172687,-9.866844,0.046146,0.056866,-0.035533,179.015991,-0.282235,-179.857254,-0.002474,-0.001224,0.999959,0.008584
101,0.048458,0.169377,-9.861149,0.076655,0.062966,-0.032481,179.016205,-0.283437,-179.856079,-0.002484,-0.001235,0.999959,0.008582
102,0.049957,0.166947,-9.863045,0.070557,0.084331,-0.047741,179.019821,-0.286369,-179.854706,-0.002510,-0.001246,0.999960,0.008550
103,0.047318,0.164587,-9.860557,0.082781,0.087381,-0.052319,179.025528,-0.288807,-179.853012,-0.002531,-0.001261,0.999960,0.008500
104,0.049452,0.167181,-9.861487,0.058377,0.102635,-0.044689,179.030136,-0.290863,-179.851349,-0.002549,-0.001276,0.999960,0.008460
106,0.046616,0.164565,-9.861774,0.072117,0.102626,-0.032482,179.033722,-0.292462,-179.850006,-0.002563,-0.001287,0.999960,0.008429
107,0.045156,0.166513,-9.862166,0.035501,0.101079,-0.032482,179.036591,-0.291652,-179.848877,-0.002556,-0.001297,0.999961,0.008404
108,0.048193,0.167882,-9.857897,0.058384,0.075121,-0.029430,179.037033,-0.291092,-179.847794,-0.002551,-0.001307,0.999961,0.008400
109,0.049474,0.163588,-9.859430,0.046178,0.073588,-0.035534,179.038788,-0.292284,-179.846664,-0.002562,-0.001317,0.999961,0.008385
110,0.049785,0.168010,-9.860399,0.066013,0.065957,-0.027905,179.040436,-0.294036,-179.845566,-0.002577,-0.001326,0.999961,0.008370
111,0.050650,0.170093,-9.864365,0.049211,0.061377,-0.027905,179.038757,-0.295898,-179.844589,-0.002593,-0.001335,0.999961,0.008385
113,0.053584,0.166884,-9.865148,0.088870,0.041547,-0.037061,179.038025,-0.298876,-179.843460,-0.002620,-0.001344,0.999960,0.008391
114,0.048232,0.162772,-9.872587,0.061407,0.050700,-0.032483,179.041321,-0.300083,-179.842285,-0.002630,-0.001354,0.999961,0.008362
115,0.047181,0.174817,-9.878177,0.055287,0.044578,-0.020276,179.040115,-0.297867,-179.841354,-0.002611,-0.001363,0.999961,0.008373
116,0.043606,0.175201,-9.880050,0.079655,0.041496,-0.030959,179.033081,-0.293329,-179.840424,-0.002571,-0.001371,0.999960,0.008434
117,0.043349,0.177286,-9.880903,0.053667,0.049090,-0.043167,179.025558,-0.287564,-179.839127,-0.002521,-0.001383,0.999960,0.008500
118,0.048490,0.179238,-9.881898,0.056666,0.062803,-0.043167,179.016907,-0.285365,-179.837601,-0.002502,-0.001396,0.999959,0.008575
120,0.046369,0.189933,-9.878224,0.079477,0.058216,-0.047745,179.003922,-0.285445,-179.835968,-0.002503,-0.001410,0.999958,0.008689
121,0.044176,0.178061,-9.872333,0.070257,0.062775,-0.058428,178.993439,-0.283632,-179.834106,-0.002488,-0.001426,0.999957,0.008780
122,0.044485,0.172370,-9.871471,0.054985,0.062752,-0.046221,178.992920,-0.281145,-179.832306,-0.002466,-0.001442,0.999957,0.008785
123,0.045079,0.172615,-9.871341,0.071775,0.050526,-0.046221,178.995987,-0.279255,-179.830734,-0.002450,-0.001456,0.999958,0.008758
124,0.042409,0.170963,-9.867409,0.071781,0.038296,-0.034014,178.999771,-0.276330,-179.829391,-0.002424,-0.001468,0.999958,0.008725
125,0.043749,0.167395,-9.865327,0.056539,0.041325,-0.023333,179.005188,-0.273030,-179.828415,-0.002396,-0.001477,0.999958,0.008678
127,0.046141,0.174723,-9.872290,0.088588,0.038262,-0.024859,179.008362,-0.272045,-179.827591,-0.002387,-0.001484,0.999959,0.008650
128,0.048299,0.177190,-9.874787,0.067201,0.041315,-0.026385,179.006332,-0.273595,-179.826706,-0.002401,-0.001492,0.999959,0.008668
129,0.050633,0.175302,-9.868353,0.065650,0.048957,-0.035540,179.003510,-0.277455,-179.825623,-0.002434,-0.001501,0.999958,0.008692
130,0.053382,0.181659,-9.865666,0.067143,0.052031,-0.049274,178.998840,-0.283516,-179.824142,-0.002487,-0.001513,0.999958,0.008733
131,0.051271,0.180440,-9.867751,0.054891,0.052050,-0.056903,178.992142,-0.289106,-179.822296,-0.002536,-0.001528,0.999957,0.008791
132,0.050724,0.174163,-9.865215,0.018249,0.049006,-0.058429,178.989182,-0.292388,-179.820328,-0.002565,-0.001545,0.999957,0.008817
134,0.052672,0.176556,-9.861209,0.022818,0.050539,-0.064533,178.988312,-0.295597,-179.818237,-0.002593,-0.001563,0.999956,0.008824
135,0.053379,0.179349,-9.863131,0.033481,0.038344,-0.052325,178.985504,-0.299379,-179.816254,-0.002627,-0.001580,0.999956,0.008849
136,0.049678,0.175860,-9.869216,-0.016890,0.038345,-0.061481,178.982727,-0.300908,-179.814316,-0.002640,-0.001597,0.999956,0.008873
137,0.055960,0.170869,-9.867644,0.001429,0.027668,-0.066058,178.984039,-0.303049,-179.812180,-0.002659,-0.001616,0.999956,0.008861
138,0.054534,0.175404,-9.864547,0.030431,0.024633,-0.056902,178.986435,-0.307019,-179.810120,-0.002694,-0.001633,0.999956,0.008840
139,0.053124,0.177096,-9.868312,0.030423,0.024639,-0.052325,178.985992,-0.309059,-179.808273,-0.002712,-0.001649,0.999956,0.008844
140,0.051439,0.172731,-9.871948,0.027370,0.041421,-0.056902,178.986710,-0.309361,-179.806442,-0.002715,-0.001665,0.999956,0.008838
141,0.052645,0.169167,-9.868906,0.071640,0.042941,-0.049272,178.991913,-0.309542,-179.804657,-0.002716,-0.001681,0.999956,0.008792
142,0.047852,0.168498,-9.868389,0.051828,0.053607,-0.041643,178.999054,-0.308164,-179.803146,-0.002704,-0.001694,0.999957,0.008730
143,0.048893,0.166396,-9.872101,0.050331,0.059687,-0.038591,179.006195,-0.305345,-179.801804,-0.002680,-0.001706,0.999957,0.008668
144,0.049894,0.159229,-9.867849,0.061055,0.053568,-0.041643,179.016754,-0.303866,-179.800476,-0.002667,-0.001718,0.999958,0.008576
145,0.049557,0.162970,-9.864730,0.041262,0.042872,-0.049273,179.027298,-0.302801,-179.798981,-0.002657,-0.001732,0.999959,0.008484
146,0.047220,0.159136,-9.873682,0.041298,0.035224,-0.047748,179.035843,-0.300333,-179.797379,-0.002636,-0.001746,0.999960,0.008409
147,0.048081,0.171336,-9.878997,0.035202,0.038255,-0.050800,179.038773,-0.297334,-179.795731,-0.002610,-0.001761,0.999960,0.008384
148,0.049826,0.172783,-9.876678,0.018389,0.042820,-0.056903,179.033783,-0.296167,-179.793884,-0.002600,-0.001777,0.999960,0.008427
149,0.046535,0.173381,-9.881922,0.035140,0.042806,-0.056904,179.028000,-0.294668,-179.791931,-0.002587,-0.001794,0.999959,0.008477
150,0.048326,0.166424,-9.882958,0.022920,0.054996,-0.046223,179.026321,-0.292857,-179.790161,-0.002571,-0.001809,0.999959,0.008492
151,0.049163,0.177425,-9.876821,0.029004,0.071771,-0.047748,179.023163,-0.293088,-179.788544,-0.002573,-0.001823,0.999959,0.008520
153,0.049008,0.174783,-9.871635,0.048802,0.061084,-0.043172,179.016693,-0.293910,-179.786957,-0.002581,-0.001837,0.999958,0.008576
154,0.048670,0.171298,-9.869706,0.062515,0.059549,-0.055379,179.014496,-0.294216,-179.785248,-0.002584,-0.001852,0.999958,0.008595
155,0.051562,0.174873,-9.865805,0.031980,0.067177,-0.061483,179.012650,-0.295775,-179.783249,-0.002597,-0.001869,0.999958,0.008611
156,0.045537,0.179976,-9.868697,0.063987,0.059536,-0.052328,179.006958,-0.295666,-179.781281,-0.002597,-0.001886,0.999957,0.008661
157,0.043758,0.175426,-9.865465,0.053271,0.048824,-0.038595,179.001984,-0.291360,-179.779694,-0.002559,-0.001900,0.999957,0.008704
158,0.042056,0.171416,-9.868259,0.031900,0.050312,-0.035544,179.001495,-0.285592,-179.778427,-0.002509,-0.001912,0.999957,0.008709
159,0.036812,0.173035,-9.872094,0.036475,0.044160,-0.021812,179.002396,-0.277216,-179.777435,-0.002436,-0.001921,0.999957,0.008701
160,0.034284,0.167847,-9.874660,0.070053,0.037993,-0.012657,179.005676,-0.266051,-179.776855,-0.002339,-0.001927,0.999958,0.008672
161,0.039285,0.167034,-9.871433,0.038029,0.047101,-0.024866,179.011536,-0.257759,-179.776215,-0.002266,-0.001933,0.999958,0.008621
162,0.041122,0.173581,-9.872258,0.051765,0.057758,-0.037073,179.013535,-0.254722,-179.775162,-0.002240,-0.001943,0.999959,0.008604
163,0.043513,0.173167,-9.871370,0.071586,0.062327,-0.043177,179.012466,-0.254922,-179.773773,-0.002242,-0.001955,0.999959,0.008613
164,0.052126,0.180102,-9.868578,0.047140,0.073027,-0.052333,179.008057,-0.260938,-179.772110,-0.002294,-0.001969,0.999958,0.008652
165,0.053353,0.184332,-9.866275,0.056239,0.066964,-0.055384,178.998413,-0.271281,-179.770233,-0.002385,-0.001984,0.999957,0.008736
166,0.051290,0.185693,-9.865833,0.068382,0.053261,-0.050806,178.987549,-0.279534,-179.768356,-0.002457,-0.002000,0.999956,0.008830
167,0.050340,0.178097,-9.867400,0.045451,0.047175,-0.053858,178.981247,-0.284448,-179.766541,-0.002500,-0.002015,0.999955,0.008885
168,0.050372,0.176926,-9.868482,0.054595,0.050234,-0.038598,178.980423,-0.287767,-179.764969,-0.002529,-0.002029,0.999955,0.008892
169,0.046164,0.169743,-9.868904,0.054606,0.051756,-0.023339,178.984390,-0.288462,-179.763916,-0.002535,-0.002038,0.999956,0.008858
170,0.045119,0.168550,-9.870126,0.022591,0.063944,-0.021813,178.991623,-0.286511,-179.763153,-0.002518,-0.002045,0.999956,0.008794
171,0.040810,0.170084,-9.872135,0.028719,0.065438,-0.021814,178.997360,-0.282298,-179.762421,-0.002482,-0.002052,0.999957,0.008744
172,0.040707,0.167646,-9.870927,0.028740,0.060820,-0.001977,179.002563,-0.276416,-179.762009,-0.002430,-0.002056,0.999957,0.008699
173,0.037813,0.162686,-9.873258,0.019620,0.053148,-0.012659,179.010300,-0.269723,-179.761765,-0.002372,-0.002059,0.999958,0.008632
174,0.036688,0.166618,-9.873890,0.015074,0.037841,-0.015712,179.017227,-0.261741,-179.761292,-0.002302,-0.002063,0.999959,0.008571
175,0.036988,0.166015,-9.877619,0.036455,0.031694,-0.020290,179.021652,-0.254216,-179.760681,-0.002236,-0.002069,0.999959,0.008533
176,0.043559,0.166150,-9.876175,0.021210,0.034726,-0.020291,179.025482,-0.251247,-179.760010,-0.002210,-0.002076,0.999959,0.008500
177,0.044880,0.170103,-9.880257,0.036471,0.034729,-0.034024,179.026672,-0.253008,-179.759079,-0.002226,-0.002084,0.999959,0.008489
178,0.046822,0.172268,-9.875647,0.051713,0.040844,-0.043180,179.024979,-0.256543,-179.757751,-0.002257,-0.002095,0.999959,0.008504
179,0.047266,0.169868,-9.870692,0.031862,0.062222,-0.040127,179.023285,-0.261268,-179.756332,-0.002298,-0.002107,0.999959,0.008518
180,0.047315,0.174065,-9.869857,0.065414,0.065287,-0.041653,179.021194,-0.265964,-179.754913,-0.002339,-0.002119,0.999959,0.008537
181,0.044189,0.167709,-9.871346,0.054720,0.066815,-0.049282,179.020844,-0.268459,-179.753342,-0.002361,-0.002132,0.999958,0.008540
182,0.044409,0.168879,-9.871103,0.034885,0.071384,-0.043179,179.022705,-0.269048,-179.751770,-0.002366,-0.002146,0.999959,0.008523
183,0.048360,0.170689,-9.872602,0.045561,0.074436,-0.041653,179.022858,-0.271524,-179.750305,-0.002388,-0.002159,0.999959,0.008522
184,0.048604,0.173003,-9.875254,0.031812,0.060712,-0.037075,179.020828,-0.275586,-179.748947,-0.002424,-0.002170,0.999958,0.008539
185,0.045828,0.168685,-9.869511,0.028748,0.050030,-0.024868,179.019623,-0.277485,-179.747864,-0.002440,-0.002179,0.999958,0.008550
186,0.044163,0.174486,-9.867745,0.036364,0.057647,-0.020290,179.017975,-0.276710,-179.747070,-0.002434,-0.002186,0.999958,0.008564
187,0.046292,0.172460,-9.863726,0.040920,0.059161,-0.018765,179.014908,-0.276232,-179.746368,-0.002430,-0.002193,0.999958,0.008591
188,0.045641,0.173283,-9.860847,0.047007,0.053050,-0.026395,179.012924,-0.276511,-179.745560,-0.002432,-0.002199,0.999958,0.008608
189,0.046306,0.176790,-9.860481,0.036299,0.062198,-0.026395,179.009171,-0.276869,-179.744629,-0.002435,-0.002208,0.999957,0.008641
190,0.049516,0.179406,-9.861273,0.053046,0.074406,-0.034024,179.003021,-0.279402,-179.743546,-0.002458,-0.002217,0.999957,0.008695
191,0.048912,0.188010,-9.861061,0.027044,0.068310,-0.032498,178.992126,-0.283054,-179.742340,-0.002490,-0.002227,0.999956,0.008790
192,0.047323,0.183312,-9.862646,0.014774,0.063730,-0.034025,178.980133,-0.284947,-179.741119,-0.002507,-0.002237,0.999955,0.008894
193,0.039305,0.184888,-9.865206,0.034564,0.056073,-0.027922,178.971725,-0.281517,-179.740005,-0.002477,-0.002247,0.999954,0.008968
194,0.040868,0.177227,-9.866365,0.028438,0.051453,-0.038604,178.968216,-0.274877,-179.738846,-0.002419,-0.002257,0.999954,0.008998
195,0.040354,0.174978,-9.870226,0.004029,0.043789,-0.041657,178.970032,-0.269366,-179.737488,-0.002371,-0.002270,0.999954,0.008983
196,0.040060,0.168699,-9.868530,0.052887,0.039179,-0.043184,178.976532,-0.264267,-179.736069,-0.002327,-0.002282,0.999955,0.008926
197,0.036774,0.175365,-9.871737,0.037651,0.048297,-0.035554,178.982742,-0.258394,-179.734756,-0.002275,-0.002295,0.999955,0.008872
198,0.042394,0.174668,-9.870068,0.019344,0.057427,-0.034030,178.984451,-0.254869,-179.733566,-0.002245,-0.002305,0.999956,0.008857
199,0.041240,0.178268,-9.868289,0.046804,0.052837,-0.037081,178.984207,-0.254368,-179.732346,-0.002240,-0.002316,0.999956,0.008859
200,0.043991,0.176474,-9.866066,0.020852,0.063513,-0.030978,178.982971,-0.255086,-179.731171,-0.002247,-0.002326,0.999955,0.008870
201,0.043479,0.172953,-9.868719,0.037638,0.066565,-0.032503,178.984283,-0.257099,-179.730072,-0.002264,-0.002336,0.999956,0.008858
202,0.047480,0.175261,-9.865759,0.019332,0.068097,-0.041659,178.986145,-0.260646,-179.728806,-0.002295,-0.002346,0.999956,0.008842
203,0.049920,0.173783,-9.867278,0.039170,0.054383,-0.052340,178.987350,-0.266640,-179.727203,-0.002348,-0.002360,0.999956,0.008831
204,0.050534,0.174365,-9.868956,0.045275,0.049829,-0.046236,178.989197,-0.273004,-179.725525,-0.002403,-0.002374,0.999956,0.008815
205,0.051248,0.173572,-9.867736,0.039174,0.046799,-0.053865,178.990891,-0.278852,-179.723831,-0.002455,-0.002388,0.999955,0.008800
206,0.053716,0.176302,-9.866974,0.049851,0.051400,-0.044709,178.991409,-0.285253,-179.722153,-0.002511,-0.002403,0.999955,0.008795
207,0.053407,0.178411,-9.864212,0.051358,0.062106,-0.026398,178.989578,-0.291950,-179.720917,-0.002569,-0.002413,0.999955,0.008811
208,0.050426,0.178001,-9.864868,0.046760,0.066694,-0.017242,178.986969,-0.296232,-179.720139,-0.002607,-0.002419,0.999955,0.008834
209,0.046071,0.180828,-9.864953,0.051312,0.071260,-0.017242,178.983566,-0.296203,-179.719498,-0.002606,-0.002425,0.999954,0.008864
210,0.047564,0.185627,-9.865057,0.051271,0.074292,-0.014191,178.977051,-0.294560,-179.718887,-0.002592,-0.002430,0.999954,0.008920
211,0.051752,0.179986,-9.867379,0.046658,0.071234,-0.023347,178.971710,-0.295798,-179.718185,-0.002603,-0.002436,0.999953,0.008967
212,0.050220,0.171909,-9.869678,0.074128,0.051397,-0.049287,178.974426,-0.297952,-179.716934,-0.002622,-0.002447,0.999954,0.008943
213,0.049744,0.170165,-9.868237,0.063476,0.057496,-0.052339,178.982376,-0.298612,-179.715240,-0.002628,-0.002462,0.999954,0.008874
214,0.055706,0.164454,-9.868719,0.060466,0.055976,-0.050813,178.992813,-0.301771,-179.713531,-0.002655,-0.002477,0.999955,0.008783
215,0.050854,0.156990,-9.874214,0.077316,0.040725,-0.046235,179.008377,-0.304857,-179.711960,-0.002682,-0.002491,0.999956,0.008647
216,0.045517,0.158886,-9.871664,0.052971,0.033075,-0.038605,179.024353,-0.302109,-179.710602,-0.002658,-0.002503,0.999957,0.008507
217,0.044745,0.161787,-9.870841,0.043860,0.048300,-0.018769,179.034821,-0.296522,-179.709656,-0.002609,-0.002512,0.999958,0.008416
218,0.045040,0.170207,-9.866154,0.022502,0.051319,-0.021821,179.037033,-0.291719,-179.708969,-0.002567,-0.002518,0.999958,0.008397
219,0.043708,0.170420,-9.865455,0.022482,0.052815,-0.024874,179.033630,-0.287364,-179.708130,-0.002529,-0.002526,0.999958,0.008427
220,0.041727,0.177062,-9.859118,0.027022,0.057358,-0.021822,179.027023,-0.282285,-179.707291,-0.002485,-0.002533,0.999958,0.008484
221,0.043161,0.176398,-9.858127,0.001034,0.060378,-0.035556,179.017929,-0.277865,-179.706253,-0.002447,-0.002543,0.999957,0.008564
222,0.043192,0.174534,-9.858483,0.026939,0.040517,-0.043187,179.011353,-0.274661,-179.704880,-0.002419,-0.002555,0.999957,0.008621
223,0.044087,0.167875,-9.864238,0.062028,0.040498,-0.023350,179.011292,-0.272200,-179.703735,-0.002398,-0.002565,0.999957,0.008622
224,0.042105,0.171568,-9.863439,0.025409,0.045057,-0.027929,179.013229,-0.269755,-179.702866,-0.002376,-0.002573,0.999957,0.008605
225,0.044586,0.166487,-9.864225,0.004049,0.051144,-0.030981,179.014725,-0.268135,-179.701859,-0.002362,-0.002582,0.999957,0.008592
226,0.045990,0.168727,-9.864084,0.081883,0.049613,-0.014195,179.018250,-0.268813,-179.701080,-0.002368,-0.002588,0.999957,0.008561
227,0.045459,0.172095,-9.863740,0.028470,0.058766,-0.029455,179.019043,-0.270120,-179.700317,-0.002380,-0.002595,0.999957,0.008554
228,0.045900,0.182931,-9.863395,-0.012771,0.055711,-0.041662,179.011017,-0.271313,-179.699066,-0.002390,-0.002606,0.999957,0.008624
229,0.045095,0.184516,-9.867390,0.066509,0.055706,-0.050819,178.998245,-0.272055,-179.697418,-0.002397,-0.002620,0.999956,0.008735
230,0.046372,0.189184,-9.869184,0.032864,0.058752,-0.049293,178.985001,-0.272899,-179.695648,-0.002405,-0.002635,0.999955,0.008851
231,0.045820,0.189958,-9.873294,0.011425,0.054170,-0.056922,178.970428,-0.273921,-179.693771,-0.002414,-0.002651,0.999953,0.008978
232,0.048835,0.186478,-9.879619,0.063249,0.045016,-0.044716,178.960083,-0.275725,-179.692001,-0.002430,-0.002666,0.999952,0.009068
233,0.055063,0.178679,-9.879971,0.052547,0.048089,-0.046241,178.958008,-0.281648,-179.690430,-0.002482,-0.002679,0.999952,0.009086
234,0.054044,0.171349,-9.876840,0.041888,0.043544,-0.037085,178.963913,-0.289429,-179.689041,-0.002550,-0.002691,0.999952,0.009035
235,0.055432,0.168104,-9.878494,0.054140,0.040518,-0.029454,178.974609,-0.296130,-179.687958,-0.002608,-0.002700,0.999953,0.008941
236,0.058769,0.167483,-9.876504,0.049610,0.043602,-0.030979,178.985916,-0.303912,-179.686966,-0.002676,-0.002708,0.999954,0.008842
237,0.055722,0.165718,-9.871132,0.025241,0.055836,-0.030979,178.996002,-0.310903,-179.685959,-0.002737,-0.002717,0.999954,0.008754
238,0.048786,0.156966,-9.872083,0.037508,0.052780,-0.030979,179.009155,-0.312001,-179.684952,-0.002746,-0.002726,0.999955,0.008639
239,0.043670,0.165232,-9.874604,0.028404,0.051219,-0.020298,179.020691,-0.306515,-179.684128,-0.002698,-0.002734,0.999956,0.008539
240,0.045055,0.176556,-9.873640,0.026873,0.037442,-0.037084,179.020538,-0.299330,-179.683136,-0.002636,-0.002743,0.999956,0.008540
241,0.039716,0.176196,-9.877231,0.031414,0.046551,-0.038611,179.014191,-0.291200,-179.681824,-0.002565,-0.002755,0.999956,0.008596
242,0.040582,0.176198,-9.879144,0.028329,0.052602,-0.041664,179.008636,-0.282424,-179.680420,-0.002489,-0.002767,0.999956,0.008644
243,0.041407,0.183101,-9.876492,0.043545,0.044932,-0.041665,179.000946,-0.275848,-179.678955,-0.002432,-0.002780,0.999955,0.008712
244,0.049508,0.183625,-9.873454,0.058746,0.047971,-0.040139,178.991211,-0.274801,-179.677521,-0.002423,-0.002793,0.999955,0.008796
245,0.043479,0.168731,-9.873048,0.060257,0.067803,-0.037088,178.990128,-0.275780,-179.676178,-0.002431,-0.002805,0.999954,0.008806
246,0.046054,0.169736,-9.869629,0.055702,0.055583,-0.029458,178.996582,-0.275235,-179.675049,-0.002427,-0.002815,0.999955,0.008749
247,0.045394,0.175879,-9.871462,0.083172,0.052522,-0.026406,178.999496,-0.275331,-179.674103,-0.002427,-0.002823,0.999955,0.008724
248,0.044829,0.181343,-9.870882,0.043469,0.064719,-0.029458,178.995834,-0.275021,-179.673096,-0.002425,-0.002832,0.999955,0.008756
249,0.041600,0.172434,-9.871041,0.052604,0.050965,-0.044719,178.993378,-0.272864,-179.671814,-0.002406,-0.002843,0.999955,0.008777
250,0.045187,0.175049,-9.873031,0.046498,0.055524,-0.037089,178.994537,-0.270925,-179.670410,-0.002389,-0.002855,0.999955,0.008767
251,0.040829,0.175682,-9.870581,0.038858,0.064662,-0.037090,178.994019,-0.269186,-179.669144,-0.002374,-0.002867,0.999955,0.008772
252,0.041965,0.169434,-9.868377,0.037336,0.061585,-0.035564,178.995956,-0.266307,-179.667892,-0.002349,-0.002878,0.999955,0.008755
253,0.046041,0.170551,-9.869511,0.029722,0.056997,-0.027935,179.000107,-0.266211,-179.666809,-0.002348,-0.002887,0.999955,0.008719
254,0.047998,0.169759,-9.871522,0.035837,0.069209,-0.017253,179.003586,-0.269407,-179.666031,-0.002376,-0.002894,0.999955,0.008688
256,0.046691,0.172101,-9.866128,0.063309,0.053956,-0.006572,179.006210,-0.272622,-179.665604,-0.002404,-0.002897,0.999955,0.008665
257,0.053110,0.169877,-9.868537,0.066363,0.060076,-0.012676,179.008759,-0.277632,-179.665253,-0.002448,-0.002900,0.999955,0.008643
258,0.050647,0.164487,-9.867003,0.046544,0.050941,-0.021830,179.014282,-0.283814,-179.664673,-0.002502,-0.002905,0.999956,0.008595
259,0.045221,0.164054,-9.864329,0.083195,0.044836,-0.020304,179.022202,-0.285000,-179.663971,-0.002512,-0.002911,0.999956,0.008525
260,0.047054,0.169332,-9.863585,0.037428,0.047874,-0.026408,179.026474,-0.283790,-179.663177,-0.002501,-0.002918,0.999957,0.008488
261,0.047832,0.169317,-9.867788,0.026740,0.053970,-0.046245,179.026276,-0.283982,-179.661926,-0.002503,-0.002929,0.999957,0.008490
262,0.048483,0.167223,-9.869339,0.016056,0.053967,-0.055401,179.026443,-0.285030,-179.660202,-0.002512,-0.002944,0.999956,0.008488
263,0.052833,0.173704,-9.869756,0.019095,0.052448,-0.055401,179.024368,-0.288360,-179.658310,-0.002542,-0.002960,0.999956,0.008506
264,0.053758,0.171135,-9.873349,0.029754,0.057045,-0.066082,179.020828,-0.293915,-179.656235,-0.002590,-0.002978,0.999956,0.008537
265,0.048945,0.172441,-9.873319,0.029738,0.061629,-0.066082,179.018585,-0.296990,-179.653976,-0.002617,-0.002997,0.999956,0.008557
266,0.048623,0.169989,-9.873560,0.026675,0.052463,-0.058452,179.017319,-0.296789,-179.651855,-0.002616,-0.003016,0.999955,0.008568
267,0.048999,0.174209,-9.870429,0.035817,0.034140,-0.055401,179.015564,-0.295926,-179.649918,-0.002609,-0.003033,0.999955,0.008583
268,0.047281,0.175583,-9.869018,0.011377,0.035652,-0.061505,179.011063,-0.294232,-179.647934,-0.002594,-0.003050,0.999955,0.008622
269,0.045176,0.172975,-9.870134,0.022036,0.038682,-0.058453,179.007462,-0.290977,-179.645889,-0.002566,-0.003068,0.999955,0.008654
270,0.048948,0.175158,-9.867781,0.022020,0.031037,-0.050824,179.004898,-0.288870,-179.644028,-0.002548,-0.003084,0.999954,0.008676
271,0.050873,0.177502,-9.870644,0.011313,0.049347,-0.046247,179.000488,-0.290146,-179.642365,-0.002559,-0.003099,0.999954,0.008714
272,0.047645,0.176975,-9.870701,0.052487,0.060025,-0.035565,178.996307,-0.291340,-179.640945,-0.002570,-0.003111,0.999954,0.008751
273,0.049696,0.177585,-9.872231,0.043309,0.072226,-0.020306,178.993362,-0.292144,-179.639954,-0.002577,-0.003120,0.999953,0.008776
274,0.054026,0.176619,-9.872272,0.021927,0.078337,-0.014202,178.990677,-0.296176,-179.639313,-0.002612,-0.003125,0.999953,0.008800
275,0.050801,0.172215,-9.877261,0.064650,0.072241,-0.026410,178.991470,-0.300324,-179.638580,-0.002648,-0.003131,0.999953,0.008793
276,0.045538,0.174136,-9.871456,0.047869,0.075278,-0.035565,178.994034,-0.299632,-179.637512,-0.002642,-0.003140,0.999953,0.008770
277,0.043936,0.177364,-9.871613,0.020391,0.079822,-0.037092,178.993042,-0.295468,-179.636246,-0.002606,-0.003152,0.999953,0.008779
278,0.043153,0.177728,-9.867410,0.049364,0.069103,-0.046249,178.990173,-0.290458,-179.634796,-0.002563,-0.003165,0.999953,0.008804
279,0.044273,0.177905,-9.861966,0.015773,0.058389,-0.061509,178.987198,-0.286032,-179.632935,-0.002524,-0.003181,0.999953,0.008830
280,0.047897,0.174376,-9.860447,0.012712,0.067527,-0.061509,178.985672,-0.284673,-179.630844,-0.002513,-0.003199,0.999953,0.008844
281,0.048560,0.177306,-9.859357,0.009652,0.061420,-0.050827,178.984680,-0.285932,-179.628922,-0.002524,-0.003216,0.999952,0.008852
282,0.053809,0.168921,-9.857676,-0.008652,0.053800,-0.053879,178.986160,-0.289842,-179.627151,-0.002558,-0.003231,0.999952,0.008839
283,0.050726,0.162891,-9.862539,0.063110,0.064495,-0.052353,178.995483,-0.294413,-179.625397,-0.002598,-0.003246,0.999953,0.008757
284,0.052761,0.166051,-9.865522,-0.010089,0.081287,-0.035567,179.005356,-0.298214,-179.623932,-0.002631,-0.003259,0.999954,0.008671
285,0.052167,0.165229,-9.865049,0.063186,0.073664,-0.023360,179.012512,-0.302170,-179.622940,-0.002665,-0.003268,0.999954,0.008609
286,0.051881,0.163337,-9.868424,0.076950,0.070615,-0.035567,179.021042,-0.304868,-179.621948,-0.002689,-0.003276,0.999955,0.008534
287,0.049852,0.163872,-9.869548,-0.005421,0.084341,-0.023360,179.027802,-0.306059,-179.620941,-0.002699,-0.003285,0.999955,0.008475
288,0.049706,0.158505,-9.870864,0.081589,0.059912,-0.021834,179.035736,-0.305693,-179.620193,-0.002695,-0.003292,0.999956,0.008406
289,0.048875,0.151144,-9.872550,0.051128,0.059895,-0.018782,179.049561,-0.304373,-179.619537,-0.002684,-0.003298,0.999957,0.008285
290,0.050593,0.154916,-9.870599,0.031350,0.053779,-0.017256,179.062469,-0.303523,-179.618973,-0.002676,-0.003303,0.999958,0.008173
291,0.050175,0.149445,-9.869510,0.074126,0.036983,-0.005048,179.074326,-0.303112,-179.618622,-0.002672,-0.003307,0.999958,0.008069
292,0.050481,0.153754,-9.869995,0.095531,0.026293,-0.009627,179.085754,-0.302297,-179.618408,-0.002665,-0.003309,0.999959,0.007969
293,0.051779,0.166446,-9.872772,0.039065,0.032391,-0.008100,179.086456,-0.302274,-179.618088,-0.002664,-0.003312,0.999959,0.007963
294,0.049283,0.174192,-9.873558,0.106144,0.029331,-0.011152,179.076477,-0.301783,-179.617691,-0.002660,-0.003315,0.999959,0.008050
295,0.051688,0.175273,-9.875203,0.043501,0.036954,-0.009627,179.063095,-0.301359,-179.617249,-0.002657,-0.003319,0.999958,0.008167
296,0.055092,0.180112,-9.874911,0.051047,0.044590,-0.029465,179.047897,-0.304065,-179.616486,-0.002681,-0.003325,0.999956,0.008300
297,0.054658,0.178810,-9.876844,0.052493,0.047655,-0.040147,179.033524,-0.308182,-179.615204,-0.002718,-0.003335,0.999955,0.008425
298,0.057962,0.176934,-9.871237,0.008180,0.058354,-0.043199,179.022400,-0.313354,-179.613724,-0.002763,-0.003347,0.999954,0.008522
299,0.056801,0.172964,-9.869924,0.070707,0.058372,-0.047776,179.016479,-0.318983,-179.612137,-0.002813,-0.003361,0.999954,0.008573
300,0.051608,0.174966,-9.869179,0.018801,0.062949,-0.056931,179.013092,-0.320717,-179.610321,-0.002828,-0.003376,0.999953,0.008603
301,0.049615,0.166524,-9.872450,0.055419,0.058349,-0.046251,179.013351,-0.318355,-179.608566,-0.002807,-0.003392,0.999953,0.008600
302,0.051932,0.169960,-9.870126,0.052375,0.059855,-0.041673,179.016861,-0.316154,-179.607086,-0.002788,-0.003405,0.999954,0.008570
303,0.049849,0.173641,-9.870653,0.021847,0.052206,-0.038622,179.016052,-0.314350,-179.605698,-0.002773,-0.003417,0.999954,0.008577
304,0.047947,0.175562,-9.873705,0.058444,0.038447,-0.049303,179.012421,-0.310584,-179.604172,-0.002740,-0.003431,0.999953,0.008609
305,0.051300,0.175049,-9.872920,0.038581,0.036901,-0.046253,179.008789,-0.307722,-179.602539,-0.002715,-0.003445,0.999953,0.008640
306,0.050945,0.179377,-9.869080,0.026341,0.033838,-0.055408,179.003342,-0.306793,-179.600784,-0.002707,-0.003460,0.999953,0.008688
307,0.046397,0.178825,-9.869040,0.043089,0.036870,-0.053883,178.996872,-0.303816,-179.598907,-0.002682,-0.003477,0.999952,0.008744
308,0.045141,0.178600,-9.864724,0.036953,0.041415,-0.066091,178.991898,-0.298490,-179.596848,-0.002636,-0.003495,0.999952,0.008788
309,0.046042,0.182229,-9.864234,0.032340,0.042910,-0.055410,178.986023,-0.293794,-179.594757,-0.002595,-0.003514,0.999951,0.008839
310,0.047600,0.175379,-9.865878,0.044526,0.041364,-0.059988,178.982727,-0.291122,-179.592789,-0.002572,-0.003531,0.999951,0.008868
311,0.047954,0.175504,-9.865630,0.046049,0.047455,-0.044729,178.983704,-0.290065,-179.591019,-0.002563,-0.003546,0.999951,0.008860
312,0.046797,0.172688,-9.865766,0.041476,0.045917,-0.043204,178.986130,-0.289011,-179.589523,-0.002554,-0.003560,0.999951,0.008838
313,0.046038,0.163673,-9.870942,0.049138,0.050477,-0.026419,178.994080,-0.287251,-179.588379,-0.002538,-0.003570,0.999952,0.008769
314,0.047545,0.158929,-9.871024,0.026309,0.047412,-0.015737,179.007629,-0.286108,-179.587708,-0.002528,-0.003576,0.999953,0.008651
315,0.045734,0.169132,-9.871803,0.058394,0.050450,-0.011159,179.016891,-0.285063,-179.587265,-0.002518,-0.003580,0.999954,0.008570
316,0.045730,0.172716,-9.875185,0.038553,0.042804,-0.023367,179.017838,-0.283233,-179.586655,-0.002502,-0.003586,0.999954,0.008562
317,0.047261,0.176110,-9.876611,0.050736,0.051947,-0.020316,179.014465,-0.282392,-179.585876,-0.002495,-0.003593,0.999954,0.008591
318,0.051546,0.177709,-9.876055,0.056805,0.044321,-0.027946,179.009201,-0.284606,-179.585022,-0.002515,-0.003600,0.999953,0.008637
319,0.051316,0.168223,-9.867240,0.043059,0.050437,-0.034049,179.008255,-0.288661,-179.583939,-0.002550,-0.003609,0.999953,0.008645
320,0.049892,0.167842,-9.867868,0.052227,0.042814,-0.038626,179.012451,-0.291386,-179.582718,-0.002574,-0.003619,0.999953,0.008609
321,0.052625,0.166981,-9.865286,0.024776,0.051975,-0.029470,179.016647,-0.294212,-179.581573,-0.002599,-0.003629,0.999953,0.008572
322,0.054684,0.166663,-9.866453,0.053782,0.042835,-0.030996,179.020752,-0.298899,-179.580551,-0.002640,-0.003638,0.999954,0.008536
323,0.049453,0.169145,-9.863541,0.038528,0.048944,-0.035574,179.023315,-0.301378,-179.579422,-0.002661,-0.003648,0.999954,0.008513
324,0.050531,0.173096,-9.867386,0.050721,0.055039,-0.037100,179.022171,-0.301449,-179.578171,-0.002662,-0.003659,0.999954,0.008523
325,0.050301,0.163550,-9.867007,0.053774,0.064188,-0.024893,179.023895,-0.301967,-179.577103,-0.002666,-0.003668,0.999954,0.008508
326,0.047254,0.163171,-9.863085,0.046168,0.065698,-0.032522,179.030273,-0.301040,-179.576126,-0.002658,-0.003677,0.999954,0.008453
327,0.047167,0.160841,-9.863081,0.055350,0.056520,-0.032522,179.037277,-0.298509,-179.575043,-0.002636,-0.003686,0.999955,0.008392
328,0.051646,0.166396,-9.863254,0.029423,0.054983,-0.023368,179.041321,-0.298217,-179.574097,-0.002633,-0.003695,0.999955,0.008356
329,0.049706,0.170531,-9.865829,0.037037,0.047350,-0.026420,179.039474,-0.299230,-179.573212,-0.002642,-0.003702,0.999955,0.008372
330,0.048819,0.175799,-9.859228,0.029369,0.041236,-0.037101,179.032867,-0.298591,-179.572098,-0.002637,-0.003712,0.999954,0.008430
331,0.052087,0.176538,-9.862184,0.038474,0.044283,-0.030999,179.024033,-0.299030,-179.570877,-0.002641,-0.003722,0.999953,0.008507
332,0.052556,0.177592,-9.862538,0.055212,0.044287,-0.044732,179.016098,-0.301335,-179.569550,-0.002662,-0.003734,0.999953,0.008576
333,0.050855,0.172888,-9.864728,0.059759,0.053443,-0.035576,179.011688,-0.302959,-179.568146,-0.002676,-0.003746,0.999952,0.008615
334,0.050121,0.175309,-9.866073,0.067367,0.058013,-0.029473,179.009644,-0.303302,-179.567001,-0.002679,-0.003756,0.999952,0.008632
335,0.047949,0.172441,-9.870686,0.084135,0.073257,-0.018792,179.008820,-0.302396,-179.566147,-0.002672,-0.003763,0.999952,0.008639
336,0.049787,0.172340,-9.873424,0.070394,0.074767,-0.026422,179.009781,-0.301638,-179.565338,-0.002665,-0.003770,0.999952,0.008631
337,0.046498,0.165888,-9.871781,0.044460,0.076274,-0.021844,179.013245,-0.300363,-179.564499,-0.002654,-0.003778,0.999952,0.008601
338,0.045556,0.164821,-9.871917,0.046010,0.064039,-0.026423,179.019562,-0.297037,-179.563690,-0.002625,-0.003785,0.999953,0.008546
339,0.051310,0.161231,-9.868310,0.017050,0.062498,-0.035578,179.026825,-0.296198,-179.562653,-0.002617,-0.003795,0.999953,0.008482
340,0.055185,0.160476,-9.870287,0.012507,0.051826,-0.047785,179.034485,-0.300156,-179.561264,-0.002652,-0.003806,0.999954,0.008415
341,0.051444,0.161227,-9.869271,0.006434,0.044207,-0.046259,179.040741,-0.303610,-179.559692,-0.002682,-0.003820,0.999954,0.008361
342,0.052477,0.163465,-9.868294,0.007976,0.042681,-0.035577,179.044296,-0.304992,-179.558334,-0.002694,-0.003832,0.999954,0.008330
343,0.052866,0.160338,-9.867195,0.027827,0.044208,-0.041681,179.047806,-0.306666,-179.557037,-0.002708,-0.003843,0.999955,0.008299
344,0.046781,0.159977,-9.868872,0.003433,0.047245,-0.029473,179.052338,-0.305407,-179.555847,-0.002697,-0.003854,0.999955,0.008259
345,0.047503,0.168255,-9.868876,0.024794,0.039589,-0.029474,179.052338,-0.301440,-179.554840,-0.002663,-0.003863,0.999955,0.008260
346,0.047673,0.160661,-9.873316,0.038522,0.041092,-0.026423,179.052246,-0.298229,-179.553879,-0.002635,-0.003871,0.999955,0.008260
347,0.046931,0.162392,-9.873454,0.035479,0.036493,-0.031001,179.055222,-0.295276,-179.552902,-0.002609,-0.003880,0.999955,0.008235
348,0.047632,0.165303,-9.875134,0.055312,0.039527,-0.027950,179.056000,-0.292787,-179.551895,-0.002587,-0.003889,0.999955,0.008228
349,0.046572,0.159434,-9.879118,0.052262,0.051716,-0.040157,179.058212,-0.290816,-179.550735,-0.002570,-0.003900,0.999955,0.008208
350,0.045094,0.151161,-9.876475,0.047719,0.057798,-0.034053,179.066910,-0.288290,-179.549515,-0.002548,-0.003911,0.999956,0.008133
351,0.044100,0.156537,-9.870841,0.040127,0.062351,-0.029477,179.075821,-0.285142,-179.548462,-0.002520,-0.003920,0.999957,0.008055
352,0.044497,0.153983,-9.870949,0.030995,0.063852,-0.021847,179.081589,-0.282295,-179.547592,-0.002495,-0.003928,0.999957,0.008005
353,0.044226,0.150812,-9.874080,0.015765,0.065356,-0.027950,179.088516,-0.280053,-179.546753,-0.002475,-0.003936,0.999958,0.007944
354,0.048268,0.156860,-9.869199,0.038673,0.060768,-0.009639,179.093109,-0.280014,-179.546112,-0.002475,-0.003941,0.999958,0.007904
355,0.047889,0.159405,-9.870417,0.029511,0.057715,-0.006587,179.092789,-0.281823,-179.545807,-0.002491,-0.003944,0.999958,0.007907
356,0.048852,0.161964,-9.873297,0.040170,0.051611,-0.009639,179.089706,-0.283604,-179.545486,-0.002506,-0.003947,0.999958,0.007934
357,0.048212,0.175554,-9.875508,0.052319,0.054662,-0.017269,179.079514,-0.285176,-179.544952,-0.002520,-0.003951,0.999957,0.008023
359,0.046971,0.186130,-9.874590,0.050681,0.059233,-0.021848,179.058945,-0.285678,-179.544159,-0.002526,-0.003957,0.999955,0.008202
360,0.047025,0.194138,-9.877981,0.076479,0.051592,-0.043212,179.032364,-0.285369,-179.542892,-0.002524,-0.003968,0.999953,0.008434
361,0.044368,0.195485,-9.877912,0.058022,0.057679,-0.044739,179.005356,-0.283745,-179.541260,-0.002511,-0.003982,0.999951,0.008670
362,0.043454,0.197470,-9.874558,0.044157,0.062232,-0.049318,178.980621,-0.280738,-179.539520,-0.002486,-0.003996,0.999949,0.008886
363,0.042016,0.186403,-9.872029,0.053223,0.066780,-0.050844,178.964462,-0.277143,-179.537735,-0.002455,-0.004012,0.999948,0.009027
364,0.042619,0.174796,-9.869101,0.044051,0.053020,-0.038638,178.962616,-0.273555,-179.536194,-0.002424,-0.004026,0.999948,0.009043
365,0.043027,0.170272,-9.867998,0.012036,0.051471,-0.035586,178.969345,-0.270814,-179.534943,-0.002400,-0.004037,0.999949,0.008984
366,0.048346,0.165843,-9.866687,0.025817,0.043837,-0.040164,178.979691,-0.271223,-179.533707,-0.002403,-0.004048,0.999949,0.008894
367,0.051631,0.165186,-9.869517,0.022820,0.048430,-0.035585,178.991257,-0.275934,-179.532471,-0.002444,-0.004059,0.999950,0.008793
368,0.053932,0.165911,-9.871888,0.019812,0.054561,-0.041688,179.000900,-0.283087,-179.531189,-0.002506,-0.004069,0.999951,0.008708
369,0.052132,0.170385,-9.876269,0.028991,0.054585,-0.050843,179.006424,-0.289573,-179.529633,-0.002562,-0.004083,0.999951,0.008660
370,0.050696,0.167699,-9.873758,0.041212,0.048490,-0.046266,179.010193,-0.293252,-179.528000,-0.002595,-0.004097,0.999951,0.008627
371,0.044118,0.166643,-9.873755,0.032074,0.053055,-0.046266,179.015030,-0.292191,-179.526459,-0.002585,-0.004110,0.999951,0.008585
372,0.041809,0.170198,-9.875131,0.051919,0.049967,-0.044740,179.018127,-0.286637,-179.524918,-0.002537,-0.004124,0.999952,0.008558
373,0.042280,0.172522,-9.876815,0.045807,0.042300,-0.037111,179.017975,-0.280563,-179.523514,-0.002484,-0.004137,0.999952,0.008559
374,0.046853,0.174625,-9.871675,0.042734,0.046856,-0.027957,179.015259,-0.277857,-179.522385,-0.002460,-0.004147,0.999952,0.008583
375,0.048943,0.177819,-9.870077,0.056434,0.049907,-0.020327,179.010345,-0.279251,-179.521515,-0.002473,-0.004154,0.999951,0.008626
376,0.054842,0.176877,-9.870932,0.056399,0.051452,-0.023378,179.005188,-0.284696,-179.520721,-0.002521,-0.004161,0.999951,0.008671
377,0.053374,0.169292,-9.869737,0.054863,0.042323,-0.021852,179.004974,-0.291590,-179.519943,-0.002581,-0.004167,0.999950,0.008672
378,0.053151,0.169918,-9.862993,0.053346,0.034711,-0.012696,179.008453,-0.296382,-179.519348,-0.002623,-0.004172,0.999951,0.008642
379,0.050503,0.173802,-9.866183,0.059446,0.045399,-0.017274,179.009537,-0.298874,-179.518829,-0.002644,-0.004176,0.999951,0.008632
380,0.047154,0.168821,-9.870210,0.068598,0.051490,-0.027955,179.011078,-0.298114,-179.518036,-0.002638,-0.004183,0.999951,0.008619
381,0.043856,0.175955,-9.873057,0.056382,0.052987,-0.012697,179.011353,-0.294107,-179.517319,-0.002603,-0.004190,0.999951,0.008616
382,0.041470,0.175096,-9.872978,0.067039,0.060577,-0.018801,179.008453,-0.287896,-179.516739,-0.002549,-0.004195,0.999951,0.008642
383,0.041825,0.168341,-9.874403,0.073137,0.069691,-0.024905,179.009750,-0.281827,-179.515961,-0.002496,-0.004203,0.999951,0.008631
384,0.042083,0.164407,-9.871738,0.073159,0.065079,-0.012699,179.016434,-0.277157,-179.515320,-0.002455,-0.004209,0.999951,0.008573
385,0.038930,0.168643,-9.873371,0.054865,0.052834,-0.014225,179.021988,-0.271707,-179.514862,-0.002407,-0.004213,0.999952,0.008525
386,0.042760,0.162939,-9.867264,0.074717,0.052803,-0.024908,179.027222,-0.267229,-179.514191,-0.002368,-0.004220,0.999952,0.008479
387,0.044451,0.167417,-9.864110,0.077782,0.063472,-0.021856,179.032471,-0.266443,-179.513382,-0.002361,-0.004227,0.999953,0.008433
388,0.044638,0.171145,-9.864115,0.067091,0.060413,-0.024908,179.032700,-0.267138,-179.512558,-0.002367,-0.004234,0.999953,0.008431
389,0.040235,0.173242,-9.868538,0.070116,0.058870,-0.026434,179.029587,-0.265713,-179.511642,-0.002355,-0.004242,0.999952,0.008458
390,0.048449,0.174697,-9.865861,0.082289,0.066492,-0.026435,179.025238,-0.266290,-179.510696,-0.002360,-0.004250,0.999952,0.008496
391,0.043595,0.183996,-9.871031,0.068498,0.078700,-0.027961,179.016327,-0.268887,-179.509705,-0.002383,-0.004258,0.999951,0.008574
392,0.041111,0.186013,-9.875419,0.066894,0.072578,-0.024909,179.002869,-0.267751,-179.508698,-0.002374,-0.004267,0.999950,0.008691
393,0.042774,0.184026,-9.880928,0.075980,0.064927,-0.026436,178.991470,-0.265846,-179.507736,-0.002358,-0.004275,0.999950,0.008791
394,0.047397,0.183330,-9.876504,0.065248,0.067975,-0.037117,178.983429,-0.267150,-179.506592,-0.002369,-0.004285,0.999949,0.008861
395,0.044109,0.179767,-9.877761,0.059110,0.063396,-0.021859,178.978745,-0.269132,-179.505539,-0.002387,-0.004294,0.999948,0.008902
396,0.048274,0.173328,-9.877671,0.060632,0.045084,-0.023384,178.979904,-0.270885,-179.504745,-0.002402,-0.004301,0.999948,0.008892
397,0.053916,0.176843,-9.873238,0.057584,0.032899,-0.027962,178.982697,-0.276567,-179.503876,-0.002452,-0.004308,0.999948,0.008867
398,0.050150,0.185872,-9.870193,0.059082,0.031397,-0.034065,178.979004,-0.282324,-179.502792,-0.002502,-0.004317,0.999948,0.008899
399,0.052113,0.189414,-9.868478,0.049867,0.028359,-0.034065,178.969131,-0.286189,-179.501587,-0.002536,-0.004327,0.999947,0.008985
400,0.052950,0.188391,-9.867255,0.054386,0.026851,-0.052376,178.959076,-0.290533,-179.500076,-0.002575,-0.004339,0.999946,0.009073
401,0.053119,0.191319,-9.865211,0.058909,0.025342,-0.063058,178.949860,-0.294628,-179.498077,-0.002611,-0.004356,0.999945,0.009153
402,0.051406,0.189048,-9.868972,0.040549,0.029928,-0.069161,178.941727,-0.297315,-179.495804,-0.002635,-0.004376,0.999944,0.009223
403,0.054563,0.179665,-9.870943,0.039009,0.028412,-0.069161,178.940399,-0.300169,-179.493469,-0.002660,-0.004396,0.999944,0.009235
404,0.053302,0.171693,-9.875527,0.046672,0.040631,-0.070686,178.948410,-0.303641,-179.491150,-0.002690,-0.004416,0.999945,0.009165
405,0.048762,0.170329,-9.875245,0.036043,0.048255,-0.064583,178.960358,-0.304103,-179.488922,-0.002694,-0.004436,0.999946,0.009061
406,0.048215,0.165785,-9.874402,0.023895,0.057393,-0.053901,178.973114,-0.302065,-179.486984,-0.002676,-0.004453,0.999947,0.008949
407,0.050496,0.159701,-9.868563,0.039227,0.060431,-0.041694,178.988953,-0.301224,-179.485428,-0.002668,-0.004467,0.999948,0.008811
408,0.047356,0.166302,-9.865019,0.036236,0.071097,-0.031013,179.002289,-0.300465,-179.484238,-0.002661,-0.004478,0.999949,0.008695
409,0.044443,0.174069,-9.861714,0.034724,0.060388,-0.027961,179.006119,-0.296929,-179.483231,-0.002630,-0.004487,0.999949,0.008661
410,0.044783,0.175588,-9.861832,0.042337,0.043570,-0.023384,179.004089,-0.292056,-179.482330,-0.002588,-0.004495,0.999949,0.008679
411,0.039722,0.175968,-9.860358,0.049944,0.040477,-0.011177,179.001236,-0.285274,-179.481705,-0.002529,-0.004501,0.999949,0.008704
412,0.037602,0.177527,-9.864617,0.028558,0.046527,-0.011178,178.997650,-0.276035,-179.481293,-0.002448,-0.004505,0.999949,0.008736
413,0.038729,0.176021,-9.866522,0.036165,0.048004,-0.009654,178.994400,-0.267764,-179.480896,-0.002376,-0.004509,0.999949,0.008765
414,0.038402,0.167502,-9.868799,0.043801,0.047964,-0.015757,178.996857,-0.261355,-179.480453,-0.002320,-0.004514,0.999949,0.008744
415,0.041096,0.171051,-9.867914,0.028560,0.073876,-0.008129,179.001663,-0.257743,-179.480026,-0.002289,-0.004518,0.999949,0.008702
416,0.047126,0.173920,-9.873355,0.049921,0.061666,-0.026440,179.002914,-0.259401,-179.479416,-0.002303,-0.004523,0.999949,0.008691
417,0.048029,0.178010,-9.873468,0.046851,0.049474,-0.035595,179.000626,-0.264148,-179.478333,-0.002345,-0.004532,0.999949,0.008710
418,0.048189,0.176375,-9.874666,0.037670,0.058643,-0.041699,178.997055,-0.268817,-179.476990,-0.002386,-0.004543,0.999949,0.008741
419,0.048490,0.181495,-9.875636,0.049846,0.054077,-0.034069,178.992355,-0.272995,-179.475662,-0.002422,-0.004555,0.999948,0.008782
420,0.051545,0.176438,-9.874726,0.039137,0.049516,-0.040172,178.988342,-0.277908,-179.474365,-0.002466,-0.004565,0.999948,0.008817
421,0.043620,0.178260,-9.875597,0.039121,0.051041,-0.034068,178.986435,-0.279658,-179.473083,-0.002481,-0.004576,0.999947,0.008834
422,0.044458,0.177467,-9.874737,0.039105,0.055600,-0.035595,178.984528,-0.277529,-179.471878,-0.002463,-0.004587,0.999947,0.008850
423,0.046878,0.174843,-9.873723,0.039099,0.044907,-0.029492,178.984573,-0.276910,-179.470764,-0.002457,-0.004597,0.999947,0.008850
424,0.050323,0.176196,-9.872820,0.026888,0.044911,-0.027966,178.985168,-0.279185,-179.469772,-0.002477,-0.004605,0.999947,0.008845
