seq,ax,ay,az,wroll,wpitch,wyaw,roll,pitch,yaw,q0,q1,q2,q3
2874,0.047173,-0.089431,9.914555,-0.006448,-0.061465,-0.087408,-0.516804,-0.272596,0.002459,0.999987,-0.004510,-0.002379,0.000011
2876,0.031015,-0.139438,9.917021,-0.015844,-0.072069,-0.085880,-0.538549,-0.269010,-0.000107,0.999986,-0.004700,-0.002348,-0.000012
2877,0.030694,-0.126632,9.918430,-0.000986,-0.076492,-0.076721,-0.574943,-0.257628,-0.002628,0.999985,-0.005017,-0.002248,-0.000034
2878,0.035469,-0.132600,9.917326,-0.007410,-0.064165,-0.087400,-0.603871,-0.249167,-0.005214,0.999984,-0.005270,-0.002174,-0.000057
2879,0.039186,-0.134495,9.919206,0.004495,-0.059524,-0.082820,-0.631211,-0.245591,-0.007911,0.999983,-0.005508,-0.002143,-0.000081
2880,0.034431,-0.134720,9.916589,-0.001876,-0.050311,-0.075188,-0.655162,-0.242237,-0.010422,0.999981,-0.005718,-0.002113,-0.000103
2881,0.033081,-0.126697,9.919317,0.010145,-0.042599,-0.064506,-0.671796,-0.236474,-0.012663,0.999981,-0.005863,-0.002063,-0.000123
2882,0.024376,-0.132432,9.921824,-0.014411,-0.040951,-0.073660,-0.684573,-0.226877,-0.014898,0.999980,-0.005974,-0.001979,-0.000142
2883,0.027583,-0.122359,9.922340,-0.011456,-0.048445,-0.067554,-0.693610,-0.216145,-0.017201,0.999980,-0.006053,-0.001885,-0.000162
2884,0.028655,-0.121641,9.922117,-0.022163,-0.040716,-0.069079,-0.696466,-0.208786,-0.019452,0.999980,-0.006078,-0.001821,-0.000181
2885,0.025082,-0.127731,9.926526,-0.008471,-0.057405,-0.078232,-0.700683,-0.201847,-0.021874,0.999980,-0.006115,-0.001760,-0.000202
2886,0.030965,-0.126468,9.924581,-0.011581,-0.058859,-0.085861,-0.706269,-0.197284,-0.024567,0.999980,-0.006164,-0.001720,-0.000225
2887,0.033434,-0.128536,9.921618,0.005150,-0.058836,-0.069076,-0.711269,-0.197228,-0.027108,0.999979,-0.006207,-0.001720,-0.000247
2888,0.030230,-0.138381,9.920619,0.015728,-0.058814,-0.066023,-0.720202,-0.197201,-0.029303,0.999979,-0.006285,-0.001719,-0.000267
2889,0.030304,-0.141535,9.918579,0.012521,-0.067932,-0.073652,-0.733615,-0.195982,-0.031557,0.999978,-0.006402,-0.001708,-0.000286
2890,0.034246,-0.140067,9.918044,0.012378,-0.058759,-0.072124,-0.746154,-0.196600,-0.033915,0.999977,-0.006512,-0.001714,-0.000307
2891,0.027684,-0.146910,9.922762,0.007651,-0.061782,-0.073650,-0.759128,-0.196021,-0.036273,0.999977,-0.006625,-0.001708,-0.000328
2892,0.028920,-0.142686,9.924341,0.004462,-0.061727,-0.073648,-0.771417,-0.193174,-0.038658,0.999976,-0.006732,-0.001683,-0.000349
2893,0.026944,-0.139459,9.925261,-0.006303,-0.066250,-0.075173,-0.778802,-0.190336,-0.041085,0.999975,-0.006797,-0.001659,-0.000370
2894,0.023867,-0.139074,9.922071,-0.010929,-0.064649,-0.066017,-0.783418,-0.185786,-0.043394,0.999975,-0.006837,-0.001619,-0.000390
2895,0.020936,-0.134133,9.920922,-0.001785,-0.066077,-0.062964,-0.784780,-0.179188,-0.045511,0.999975,-0.006849,-0.001561,-0.000408
2896,0.023756,-0.135613,9.917964,0.008905,-0.069040,-0.067541,-0.783889,-0.173456,-0.047657,0.999975,-0.006841,-0.001511,-0.000426
2897,0.019980,-0.137563,9.915611,0.007370,-0.061326,-0.082799,-0.784327,-0.168164,-0.050131,0.999975,-0.006845,-0.001464,-0.000448
2898,0.022950,-0.144487,9.915922,0.030208,-0.058197,-0.084323,-0.788300,-0.163175,-0.052875,0.999975,-0.006880,-0.001421,-0.000471
2899,0.027673,-0.147195,9.915291,0.034692,-0.058164,-0.084323,-0.795662,-0.162239,-0.055635,0.999975,-0.006944,-0.001412,-0.000495
2900,0.026936,-0.148587,9.917932,0.036113,-0.065786,-0.091952,-0.803839,-0.163601,-0.058517,0.999974,-0.007015,-0.001424,-0.000521
2901,0.027515,-0.150243,9.912523,0.019222,-0.062724,-0.084322,-0.812446,-0.164942,-0.061398,0.999974,-0.007091,-0.001436,-0.000546
2902,0.035294,-0.145985,9.917715,0.020669,-0.073435,-0.073640,-0.818928,-0.169825,-0.063977,0.999973,-0.007147,-0.001478,-0.000569
2903,0.037506,-0.141288,9.917624,0.006912,-0.073506,-0.073641,-0.820570,-0.178741,-0.066390,0.999973,-0.007162,-0.001556,-0.000591
2904,0.032968,-0.132135,9.924268,0.013066,-0.073555,-0.067539,-0.815693,-0.185606,-0.068722,0.999973,-0.007119,-0.001615,-0.000611
2905,0.035304,-0.135817,9.923837,-0.005170,-0.061372,-0.053805,-0.808853,-0.190117,-0.070734,0.999974,-0.007060,-0.001655,-0.000629
2906,0.035511,-0.131116,9.929976,0.005581,-0.047666,-0.052280,-0.802544,-0.194431,-0.072498,0.999974,-0.007005,-0.001692,-0.000645
2907,0.026456,-0.132586,9.927526,0.007181,-0.041540,-0.056858,-0.795594,-0.193918,-0.074318,0.999974,-0.006944,-0.001688,-0.000660
2908,0.026062,-0.129456,9.926787,0.001149,-0.035365,-0.061435,-0.789012,-0.188833,-0.076293,0.999975,-0.006886,-0.001643,-0.000677
2909,0.028944,-0.132583,9.921063,0.005787,-0.035310,-0.072115,-0.783504,-0.185151,-0.078520,0.999975,-0.006838,-0.001611,-0.000696
2910,0.027291,-0.126674,9.921864,0.010428,-0.039847,-0.085849,-0.777570,-0.182745,-0.081153,0.999975,-0.006787,-0.001590,-0.000719
2911,0.024856,-0.124737,9.922538,0.018149,-0.055051,-0.098055,-0.768881,-0.179358,-0.084223,0.999976,-0.006711,-0.001560,-0.000745
2912,0.028028,-0.129674,9.923571,0.025843,-0.061107,-0.102633,-0.762320,-0.177080,-0.087559,0.999976,-0.006654,-0.001540,-0.000774
2913,0.023857,-0.138954,9.922673,0.033456,-0.068690,-0.096529,-0.762803,-0.175021,-0.090845,0.999976,-0.006658,-0.001522,-0.000803
2914,0.019521,-0.139835,9.925007,0.016600,-0.059449,-0.102631,-0.768287,-0.169575,-0.094116,0.999976,-0.006706,-0.001474,-0.000831
2915,0.029047,-0.141184,9.922411,0.014999,-0.050240,-0.091948,-0.774599,-0.166632,-0.097314,0.999976,-0.006761,-0.001448,-0.000859
2916,0.027581,-0.144262,9.918897,-0.004927,-0.038025,-0.085845,-0.782340,-0.167453,-0.100234,0.999975,-0.006828,-0.001455,-0.000885
2917,0.028199,-0.150039,9.923381,-0.011149,-0.034963,-0.081266,-0.793291,-0.167809,-0.102971,0.999975,-0.006924,-0.001458,-0.000909
2918,0.033535,-0.143667,9.921173,-0.011250,-0.030403,-0.078214,-0.802674,-0.170524,-0.105588,0.999974,-0.007006,-0.001482,-0.000932
2919,0.031358,-0.142544,9.921372,-0.005193,-0.038063,-0.070585,-0.807201,-0.174429,-0.108039,0.999974,-0.007046,-0.001515,-0.000954
2920,0.023190,-0.143153,9.923154,0.000878,-0.047193,-0.066007,-0.810248,-0.173632,-0.110286,0.999973,-0.007072,-0.001508,-0.000973
2921,0.027332,-0.146111,9.921428,0.028300,-0.056302,-0.070583,-0.813713,-0.171162,-0.112526,0.999973,-0.007102,-0.001487,-0.000993
2922,0.028470,-0.142073,9.913125,0.013006,-0.060861,-0.067532,-0.816082,-0.171465,-0.114791,0.999973,-0.007123,-0.001489,-0.001012
2923,0.023357,-0.132596,9.917709,0.016094,-0.060825,-0.069056,-0.812386,-0.170287,-0.117048,0.999973,-0.007091,-0.001479,-0.001032
2924,0.025995,-0.140118,9.916690,0.014612,-0.063830,-0.075160,-0.807894,-0.168150,-0.119433,0.999974,-0.007052,-0.001460,-0.001053
2925,0.029365,-0.142372,9.917961,0.014603,-0.060763,-0.087368,-0.808273,-0.168867,-0.122110,0.999974,-0.007055,-0.001466,-0.001076
2926,0.028632,-0.140992,9.917583,0.006956,-0.059235,-0.082790,-0.809461,-0.170757,-0.124913,0.999973,-0.007065,-0.001482,-0.001101
2927,0.027874,-0.139717,9.919013,0.014582,-0.047017,-0.085842,-0.809375,-0.171574,-0.127697,0.999973,-0.007065,-0.001489,-0.001125
2928,0.030586,-0.153052,9.918612,0.020626,-0.051590,-0.098048,-0.814195,-0.172910,-0.130722,0.999973,-0.007107,-0.001501,-0.001151
2929,0.030562,-0.150382,9.917641,0.014415,-0.043968,-0.091945,-0.823291,-0.175202,-0.133836,0.999972,-0.007186,-0.001520,-0.001179
2930,0.029047,-0.151010,9.915204,-0.002457,-0.048542,-0.073633,-0.830867,-0.176503,-0.136550,0.999972,-0.007252,-0.001532,-0.001203
2931,0.031106,-0.147340,9.918487,-0.013198,-0.057695,-0.076685,-0.836330,-0.177994,-0.139013,0.999971,-0.007300,-0.001544,-0.001224
2932,0.032359,-0.144626,9.920431,-0.019316,-0.063809,-0.072107,-0.838298,-0.180959,-0.141459,0.999971,-0.007317,-0.001570,-0.001246
2933,0.031685,-0.132754,9.922319,-0.039093,-0.066870,-0.058374,-0.833800,-0.183983,-0.143619,0.999972,-0.007278,-0.001596,-0.001265
2934,0.035379,-0.132674,9.923832,-0.020665,-0.060784,-0.059901,-0.824319,-0.187807,-0.145593,0.999972,-0.007196,-0.001630,-0.001282
2935,0.035794,-0.136854,9.924090,-0.023632,-0.059291,-0.079738,-0.817392,-0.192773,-0.147916,0.999972,-0.007135,-0.001673,-0.001303
2936,0.037168,-0.137663,9.920984,-0.014429,-0.060851,-0.067532,-0.813768,-0.197861,-0.150356,0.999972,-0.007104,-0.001717,-0.001324
2937,0.037300,-0.145354,9.919317,-0.014432,-0.059358,-0.079739,-0.814492,-0.202856,-0.152781,0.999972,-0.007110,-0.001761,-0.001346
2938,0.038449,-0.149989,9.918987,-0.003815,-0.067018,-0.079740,-0.820607,-0.207759,-0.155388,0.999972,-0.007164,-0.001803,-0.001369
2939,0.035669,-0.148412,9.919053,-0.013045,-0.071611,-0.075162,-0.827511,-0.211416,-0.157912,0.999971,-0.007224,-0.001835,-0.001391
2940,0.032631,-0.149143,9.922736,-0.008525,-0.073116,-0.067532,-0.833128,-0.212005,-0.160236,0.999971,-0.007273,-0.001840,-0.001412
2941,0.025153,-0.150188,9.927062,0.000575,-0.053203,-0.070583,-0.838296,-0.207404,-0.162489,0.999971,-0.007318,-0.001800,-0.001431
2942,0.023868,-0.149246,9.932219,0.009683,-0.062246,-0.069054,-0.842334,-0.199118,-0.164773,0.999970,-0.007353,-0.001727,-0.001451
2943,0.022113,-0.144850,9.933261,0.006617,-0.052972,-0.078208,-0.843232,-0.190476,-0.167195,0.999970,-0.007361,-0.001651,-0.001471
2944,0.022611,-0.142017,9.937601,0.003593,-0.052862,-0.073629,-0.840701,-0.182399,-0.169707,0.999971,-0.007339,-0.001581,-0.001493
2945,0.022572,-0.135873,9.934212,0.008238,-0.045140,-0.075154,-0.834378,-0.175642,-0.172182,0.999971,-0.007284,-0.001522,-0.001514
2946,0.025476,-0.128144,9.933042,0.006838,-0.049650,-0.081257,-0.822692,-0.171189,-0.174800,0.999972,-0.007182,-0.001483,-0.001536
2947,0.029517,-0.125739,9.933108,-0.003682,-0.041995,-0.081257,-0.808178,-0.170532,-0.177529,0.999973,-0.007055,-0.001477,-0.001560
2948,0.029944,-0.135531,9.929645,-0.003579,-0.048100,-0.076680,-0.799019,-0.172167,-0.180168,0.999973,-0.006975,-0.001491,-0.001583
2949,0.030028,-0.139616,9.927728,-0.056971,-0.055732,-0.093465,-0.798557,-0.174188,-0.182983,0.999973,-0.006971,-0.001509,-0.001607
2950,0.033354,-0.145144,9.926958,-0.131779,-0.060326,-0.090413,-0.805129,-0.177621,-0.186010,0.999973,-0.007029,-0.001539,-0.001634
2951,0.031856,-0.156702,9.925753,-0.159360,-0.066451,-0.091940,-0.820357,-0.181618,-0.188987,0.999972,-0.007161,-0.001573,-0.001661
2952,0.025595,-0.147446,9.918386,-0.092330,-0.067954,-0.087361,-0.834343,-0.181836,-0.191912,0.999971,-0.007284,-0.001575,-0.001686
2953,0.026675,-0.138699,9.918025,-0.069439,-0.061799,-0.091939,-0.836895,-0.179427,-0.194869,0.999971,-0.007306,-0.001553,-0.001712
2954,0.024869,-0.134221,9.914125,-0.009848,-0.060220,-0.065997,-0.831129,-0.176738,-0.197494,0.999971,-0.007256,-0.001530,-0.001735
2955,0.025383,-0.135962,9.913415,0.048225,-0.057113,-0.069049,-0.822486,-0.173794,-0.199740,0.999972,-0.007180,-0.001504,-0.001754
2956,0.031918,-0.135810,9.917390,-0.014268,-0.055571,-0.059893,-0.815667,-0.174243,-0.201881,0.999972,-0.007121,-0.001508,-0.001773
2957,0.034545,-0.150261,9.924099,-0.104309,-0.054075,-0.055316,-0.818677,-0.178780,-0.203772,0.999972,-0.007147,-0.001547,-0.001789
2958,0.031422,-0.149739,9.924041,-0.046405,-0.044943,-0.062945,-0.828499,-0.182542,-0.205696,0.999971,-0.007233,-0.001580,-0.001807
2959,0.034310,-0.152117,9.925665,-0.073952,-0.043432,-0.085834,-0.837644,-0.185409,-0.208131,0.999970,-0.007313,-0.001605,-0.001828
2960,0.033763,-0.147934,9.926248,-0.116733,-0.049557,-0.082783,-0.845742,-0.188870,-0.210902,0.999970,-0.007383,-0.001635,-0.001853
2961,0.029042,-0.149157,9.930744,-0.135069,-0.054124,-0.096515,-0.852250,-0.189751,-0.213857,0.999969,-0.007440,-0.001642,-0.001879
2962,0.029259,-0.138219,9.929879,-0.034325,-0.057141,-0.099567,-0.852062,-0.188484,-0.217107,0.999969,-0.007439,-0.001631,-0.001907
2963,0.031849,-0.137800,9.932817,-0.061698,-0.064749,-0.093463,-0.845251,-0.188633,-0.220322,0.999970,-0.007379,-0.001632,-0.001935
2964,0.032096,-0.137567,9.932098,-0.105859,-0.067794,-0.093463,-0.839862,-0.190266,-0.223431,0.999970,-0.007332,-0.001646,-0.001962
2965,0.031883,-0.140821,9.933428,-0.085955,-0.061682,-0.105671,-0.837095,-0.191731,-0.226738,0.999970,-0.007308,-0.001659,-0.001991
2966,0.031322,-0.138076,9.927989,-0.166772,-0.057089,-0.101093,-0.836199,-0.192458,-0.230171,0.999970,-0.007300,-0.001665,-0.002021
2967,0.034402,-0.138058,9.922019,-0.284203,-0.052507,-0.096515,-0.837756,-0.193972,-0.233458,0.999970,-0.007314,-0.001678,-0.002050
2968,0.036613,-0.146769,9.918465,-0.355897,-0.058631,-0.104145,-0.846238,-0.197650,-0.236782,0.999969,-0.007388,-0.001710,-0.002079
2969,0.036554,-0.142003,9.917850,-0.275009,-0.058657,-0.099568,-0.855547,-0.201980,-0.240151,0.999968,-0.007470,-0.001747,-0.002109
2970,0.036658,-0.153553,9.913541,-0.236867,-0.054098,-0.096516,-0.864510,-0.205661,-0.243389,0.999968,-0.007548,-0.001779,-0.002137
2971,0.037371,-0.143653,9.912566,-0.143783,-0.049537,-0.093465,-0.870664,-0.208949,-0.246529,0.999967,-0.007602,-0.001807,-0.002165
2973,0.038085,-0.154676,9.915497,-0.165136,-0.075496,-0.104147,-0.874961,-0.212690,-0.249793,0.999967,-0.007639,-0.001839,-0.002194
2974,0.043439,-0.169118,9.915869,-0.063003,-0.069433,-0.099569,-0.888140,-0.218859,-0.253116,0.999966,-0.007755,-0.001893,-0.002224
2975,0.042075,-0.179121,9.920568,-0.104411,-0.064908,-0.099569,-0.909546,-0.225828,-0.256327,0.999964,-0.007942,-0.001953,-0.002252
2976,0.040365,-0.163880,9.924598,-0.312089,-0.083245,-0.079732,-0.930180,-0.230691,-0.259222,0.999962,-0.008122,-0.001995,-0.002278
2977,0.041474,-0.183870,9.925508,-0.498391,-0.136665,-0.043109,-0.956248,-0.235578,-0.261158,0.999960,-0.008349,-0.002037,-0.002296
2978,0.038153,-0.183142,9.922193,-0.550466,-0.132082,-0.006486,-0.991147,-0.239574,-0.261837,0.999958,-0.008654,-0.002071,-0.002303
2979,0.028467,-0.175766,9.921638,-0.715370,-0.144214,0.027086,-1.021618,-0.237384,-0.261376,0.999955,-0.008920,-0.002051,-0.002299
2980,0.030985,-0.174678,9.920476,-0.765735,-0.160888,0.028614,-1.047125,-0.232426,-0.260358,0.999954,-0.009142,-0.002007,-0.002290
2981,0.037327,-0.191081,9.920750,-0.658956,-0.180662,0.001149,-1.074129,-0.232458,-0.259747,0.999951,-0.009378,-0.002007,-0.002286
2982,0.033936,-0.179628,9.920180,-0.188987,-0.087537,-0.053784,-1.089723,-0.232940,-0.260535,0.999950,-0.009514,-0.002011,-0.002293
2983,0.038894,-0.180711,9.918223,0.044549,-0.037143,-0.090405,-1.085920,-0.231704,-0.262924,0.999950,-0.009481,-0.002000,-0.002313
2984,0.041716,-0.181209,9.922614,0.177374,-0.009677,-0.128554,-1.075787,-0.232616,-0.266584,0.999951,-0.009393,-0.002008,-0.002345
2985,0.039413,-0.178350,9.921601,0.522306,0.049831,-0.143814,-1.057685,-0.232338,-0.271161,0.999953,-0.009235,-0.002006,-0.002385
2986,0.032947,-0.154492,9.922634,0.939059,0.110907,-0.143814,-1.017437,-0.226209,-0.276066,0.999956,-0.008883,-0.001953,-0.002427
2987,0.035671,-0.155176,9.917141,0.939298,0.083492,-0.128555,-0.964612,-0.218377,-0.280743,0.999960,-0.008422,-0.001885,-0.002466
2988,0.030337,-0.155363,9.921624,0.925722,0.065234,-0.111770,-0.919378,-0.211213,-0.284840,0.999963,-0.008028,-0.001823,-0.002500
2989,0.027400,-0.147993,9.918421,0.939565,0.051581,-0.093457,-0.878376,-0.202108,-0.288323,0.999966,-0.007670,-0.001744,-0.002530
2990,0.030761,-0.146198,9.916308,0.739751,0.008919,-0.076671,-0.843009,-0.195342,-0.291195,0.999968,-0.007361,-0.001686,-0.002554
2991,0.035305,-0.153099,9.915564,0.442189,-0.004802,-0.058360,-0.823893,-0.194125,-0.293443,0.999969,-0.007194,-0.001676,-0.002573
2992,0.032125,-0.145557,9.921031,0.338377,-0.015483,-0.065990,-0.815245,-0.194494,-0.295496,0.999970,-0.007119,-0.001679,-0.002591
2993,0.030378,-0.132323,9.921089,0.310939,-0.018512,-0.087352,-0.801831,-0.193020,-0.298052,0.999971,-0.007002,-0.001666,-0.002613
2994,0.031138,-0.124641,9.919036,0.303421,-0.016959,-0.105663,-0.781606,-0.191237,-0.301293,0.999972,-0.006825,-0.001651,-0.002641
2995,0.027176,-0.123673,9.918480,0.239456,-0.019971,-0.120922,-0.761361,-0.188346,-0.305098,0.999973,-0.006648,-0.001626,-0.002673
2996,0.025100,-0.128838,9.917852,0.242578,-0.027536,-0.157544,-0.746988,-0.183377,-0.309748,0.999974,-0.006523,-0.001583,-0.002713
2997,0.030804,-0.131191,9.915190,0.315827,-0.024444,-0.209425,-0.737209,-0.180667,-0.315853,0.999974,-0.006438,-0.001559,-0.002766
2998,0.033290,-0.128470,9.914746,0.340229,-0.036656,-0.239943,-0.727468,-0.182254,-0.323324,0.999975,-0.006353,-0.001573,-0.002832
2999,0.033215,-0.128551,9.920168,0.170835,-0.027518,-0.258254,-0.720432,-0.185023,-0.331609,0.999975,-0.006292,-0.001596,-0.002904
3000,0.038226,-0.120757,9.922530,0.137271,-0.016874,-0.293352,-0.714651,-0.189272,-0.340795,0.999975,-0.006241,-0.001633,-0.002984
3001,0.034314,-0.097677,9.921803,0.024497,-0.021490,-0.320819,-0.698886,-0.193380,-0.351066,0.999975,-0.006104,-0.001669,-0.003074
3002,0.033856,-0.102089,9.924697,-0.555137,-0.055069,-0.349813,-0.688181,-0.195611,-0.362292,0.999976,-0.006011,-0.001688,-0.003172
3003,0.059246,-0.270124,9.924706,-0.983031,-0.017044,-1.889471,-0.770782,-0.208416,-0.399392,0.999970,-0.006733,-0.001795,-0.003497
3004,0.047451,-0.214554,9.914843,-0.176834,0.226941,-8.396015,-0.881156,-0.222063,-0.570501,0.999956,-0.007699,-0.001900,-0.004993
3005,0.040952,-0.234835,9.911519,-0.459722,0.297083,-10.901583,-0.943684,-0.222880,-0.892016,0.999934,-0.008250,-0.001881,-0.007800
3006,0.044376,-0.254915,9.909821,-0.417625,0.341305,-12.552631,-1.013378,-0.221625,-1.282820,0.999896,-0.008864,-0.001835,-0.011211
3007,0.041101,-0.256519,9.905667,0.092935,0.402311,-13.913755,-1.073328,-0.220053,-1.723854,0.999841,-0.009394,-0.001779,-0.015060
3008,0.014695,-0.100497,9.904704,0.337097,0.440533,-14.873559,-1.063134,-0.208230,-2.203818,0.999770,-0.009311,-0.001638,-0.019247
3009,0.030026,-0.158688,9.912951,-0.512444,0.300254,-11.913265,-1.028618,-0.194365,-2.650540,0.999691,-0.009013,-0.001488,-0.023143
3010,0.037329,-0.154441,9.917893,-0.512268,0.349092,-13.631459,-1.028364,-0.190488,-3.076463,0.999598,-0.009015,-0.001421,-0.026858
3011,0.039478,-0.174970,9.922077,-0.736482,0.458922,-17.043428,-1.038780,-0.189549,-3.587893,0.999467,-0.009112,-0.001369,-0.031319
3012,0.043959,-0.169994,9.922388,-0.922599,0.641970,-22.049992,-1.060040,-0.188877,-4.239677,0.999271,-0.009305,-0.001305,-0.037003
3013,0.040332,-0.169933,9.924491,-0.969816,0.791442,-26.046392,-1.081286,-0.186049,-5.041584,0.998986,-0.009498,-0.001207,-0.043995
3014,0.032930,-0.194304,9.921280,-1.148325,0.899753,-29.337812,-1.111499,-0.178222,-5.964979,0.998596,-0.009767,-0.001048,-0.052043
3015,0.033514,-0.183940,9.920423,-0.885861,0.998926,-32.055485,-1.141837,-0.167826,-6.988552,0.998089,-0.010035,-0.000854,-0.060960
3016,0.030060,-0.168297,9.920203,-0.363857,1.052321,-32.952732,-1.147268,-0.156424,-8.072430,0.997468,-0.010083,-0.000657,-0.070397
3017,0.021813,-0.172395,9.922594,-0.059997,1.037077,-32.360668,-1.133401,-0.141808,-9.161412,0.996755,-0.009958,-0.000444,-0.079871
3018,0.027337,-0.156690,9.923140,0.565870,0.944004,-30.183178,-1.101111,-0.128289,-10.204213,0.995990,-0.009670,-0.000261,-0.088937
3019,0.034851,-0.108849,9.920393,1.303330,0.786779,-25.718321,-1.028471,-0.121696,-11.136295,0.995240,-0.009036,-0.000186,-0.097035
3020,0.030928,-0.134658,9.918454,1.015382,0.653942,-21.877569,-0.947475,-0.118546,-11.929902,0.994550,-0.008331,-0.000170,-0.103925
3021,0.032213,-0.122885,9.917485,0.391585,0.606560,-21.113081,-0.895098,-0.116101,-12.646692,0.993885,-0.007875,-0.000147,-0.110144
3022,0.040317,-0.113519,9.920021,-0.105570,0.568297,-20.574434,-0.862078,-0.117574,-13.341736,0.993200,-0.007591,-0.000145,-0.116170
3023,0.040843,-0.135377,9.921647,-0.943103,0.594091,-21.126822,-0.860104,-0.121891,-14.036983,0.992477,-0.007579,-0.000139,-0.122194
3024,0.035680,-0.173384,9.926342,-1.867851,0.680942,-23.971149,-0.908730,-0.123693,-14.788813,0.991651,-0.008003,-0.000050,-0.128703
3025,0.037690,-0.168363,9.923234,-1.840512,0.755601,-25.921284,-0.980216,-0.123549,-15.620561,0.990685,-0.008621,0.000094,-0.135897
3026,0.043761,-0.182444,9.923377,-1.370612,0.750884,-25.661879,-1.039529,-0.126111,-16.480507,0.989633,-0.009136,0.000211,-0.143328
3027,0.040593,-0.194039,9.921659,-1.295938,0.753787,-25.826679,-1.090699,-0.130313,-17.338888,0.988527,-0.009581,0.000311,-0.150737
3028,0.041759,-0.206022,9.918937,-1.381503,0.787220,-26.342443,-1.143448,-0.133907,-18.208622,0.987350,-0.010037,0.000425,-0.158236
3029,0.048250,-0.212323,9.915455,-1.079483,0.826735,-26.530136,-1.192624,-0.139366,-19.090109,0.986099,-0.010465,0.000526,-0.165826
3030,0.048073,-0.208138,9.915321,-0.832341,0.837240,-26.945192,-1.227499,-0.146366,-19.981672,0.984776,-0.010771,0.000601,-0.173494
3031,0.045792,-0.201649,9.917555,-1.119182,0.888960,-27.726467,-1.254686,-0.151733,-20.893217,0.983362,-0.011008,0.000683,-0.181322
3032,0.051707,-0.204908,9.917911,-1.026017,0.939151,-27.512844,-1.280441,-0.156548,-21.814278,0.981870,-0.011230,0.000773,-0.189221
3033,0.048769,-0.200658,9.917968,-0.386534,0.922196,-27.013868,-1.290631,-0.161216,-22.723484,0.980337,-0.011319,0.000840,-0.197006
3034,0.046459,-0.176123,9.921242,0.321742,0.867118,-26.244806,-1.266974,-0.164218,-23.611582,0.978783,-0.011116,0.000859,-0.204598
3035,0.046764,-0.175051,9.924016,0.444147,0.839518,-25.553564,-1.221905,-0.166418,-24.475344,0.977217,-0.010728,0.000841,-0.211970
3036,0.046584,-0.219412,9.921706,0.174190,0.847018,-25.925894,-1.197198,-0.168135,-25.333733,0.975604,-0.010515,0.000859,-0.219285
3037,0.046759,-0.210823,9.917714,0.444238,0.808741,-26.273809,-1.188007,-0.170234,-26.204054,0.973911,-0.010434,0.000903,-0.226688
3038,0.051282,-0.184772,9.919422,0.741857,0.771977,-25.211769,-1.160015,-0.174271,-27.062473,0.972188,-0.010198,0.000890,-0.233978
3039,0.051913,-0.206333,9.913218,0.456565,0.721464,-23.167030,-1.132567,-0.179619,-27.869106,0.970519,-0.009970,0.000859,-0.240816
3040,0.049113,-0.217231,9.910180,-0.002837,0.698432,-23.525625,-1.131278,-0.184310,-28.647570,0.968861,-0.009963,0.000884,-0.247404
3041,0.042155,-0.211813,9.905101,-0.424127,0.797514,-25.509327,-1.147964,-0.184890,-29.465082,0.967070,-0.010099,0.000987,-0.254310
3042,0.035572,-0.232286,9.907921,-0.639464,0.812723,-26.215836,-1.179201,-0.180095,-30.327431,0.965126,-0.010343,0.001175,-0.261579
3043,0.032129,-0.253058,9.909353,-1.167733,0.858485,-28.497091,-1.233444,-0.172962,-31.239557,0.963008,-0.010772,0.001445,-0.269252
3044,0.041771,-0.222673,9.917771,-0.827663,0.940838,-30.947729,-1.282666,-0.168936,-32.230595,0.960639,-0.011162,0.001691,-0.277569
3045,0.045468,-0.211150,9.924560,0.681484,0.901063,-27.197010,-1.281604,-0.168939,-33.200043,0.958257,-0.011139,0.001782,-0.285686
3046,0.053512,-0.162918,9.926400,1.907056,0.601837,-19.938183,-1.213319,-0.173994,-33.986012,0.956281,-0.010569,0.001642,-0.292254
3047,0.056345,-0.153769,9.928841,1.643487,0.455166,-15.447391,-1.114742,-0.184572,-34.576122,0.954772,-0.009767,0.001353,-0.297176
3048,0.082113,-0.147383,9.922786,0.243057,0.409112,-15.055234,-1.048388,-0.204532,-35.084801,0.953448,-0.009261,0.001056,-0.301414
3049,0.075522,-0.176984,9.918276,-2.102110,0.520180,-16.082190,-1.061088,-0.227972,-35.604008,0.952070,-0.009424,0.000937,-0.305732
3050,0.065163,-0.292109,9.926672,-4.098394,0.593187,-18.445850,-1.195735,-0.242225,-36.179550,0.950511,-0.010575,0.001231,-0.310510
3051,0.067339,-0.338255,9.929109,-5.396292,0.617418,-22.832888,-1.428621,-0.254503,-36.867416,0.948605,-0.012529,0.001835,-0.316208
3052,0.071936,-0.355757,9.926702,-5.598576,0.690470,-26.098368,-1.685694,-0.272129,-37.682781,0.946300,-0.014689,0.002503,-0.322947
3053,0.055652,-0.372142,9.924758,-4.398351,0.751376,-25.120247,-1.909198,-0.286585,-38.536373,0.943837,-0.016552,0.003137,-0.329983
3054,0.056508,-0.376064,9.927554,-2.758433,0.697914,-23.922396,-2.064947,-0.295656,-39.353832,0.941435,-0.017835,0.003638,-0.336704
3055,0.069516,-0.290486,9.913854,-1.958769,0.751230,-25.037851,-2.132143,-0.309446,-40.170177,0.939000,-0.018401,0.003854,-0.343402
3056,0.068570,-0.249186,9.914102,-1.088317,0.929643,-24.673162,-2.117653,-0.322824,-40.999451,0.936492,-0.018295,0.003833,-0.350190
3057,0.065965,-0.218505,9.915067,-0.676876,1.034841,-24.427502,-2.055392,-0.327941,-41.818897,0.933973,-0.017776,0.003728,-0.356881
3058,0.068121,-0.238460,9.918164,-0.578258,1.152261,-26.466145,-1.985219,-0.328319,-42.668343,0.931313,-0.017178,0.003634,-0.363797
3059,0.074041,-0.254437,9.913851,-0.499691,1.228454,-28.431541,-1.930820,-0.329244,-43.584484,0.928383,-0.016711,0.003587,-0.371233
3060,0.077843,-0.250650,9.912466,-0.431926,1.271043,-29.196037,-1.884693,-0.331997,-44.546074,0.925241,-0.016317,0.003553,-0.379012
3061,0.078150,-0.272638,9.912764,-0.333773,1.229693,-28.257605,-1.847350,-0.335031,-45.504688,0.922043,-0.015997,0.003539,-0.386740
3062,0.082586,-0.281744,9.913348,-0.299872,1.197485,-27.499224,-1.822703,-0.339103,-46.434917,0.918876,-0.015784,0.003551,-0.394214
3063,0.084293,-0.250978,9.914513,-0.323916,1.130164,-26.029768,-1.794466,-0.344812,-47.328003,0.915780,-0.015550,0.003529,-0.401365
3064,0.081571,-0.253243,9.914227,-0.564573,1.154407,-26.229671,-1.764400,-0.349195,-48.199963,0.912703,-0.015299,0.003506,-0.408323
3065,0.055942,-0.253972,9.913281,-0.614536,1.265737,-28.526196,-1.743215,-0.342484,-49.113541,0.909422,-0.015078,0.003604,-0.415586
3066,0.063550,-0.281885,9.911798,-0.548663,1.360345,-30.398502,-1.733762,-0.328474,-50.096584,0.905826,-0.014920,0.003809,-0.423371
3067,0.060443,-0.315354,9.910614,-0.508974,1.332850,-30.082642,-1.744266,-0.316798,-51.105446,0.902063,-0.014925,0.004072,-0.431328
3068,0.056298,-0.344413,9.910606,-0.461879,1.259587,-28.565870,-1.773969,-0.305311,-52.083618,0.898345,-0.015078,0.004403,-0.439010
3069,0.054980,-0.343108,9.917809,-0.173762,1.114611,-25.474344,-1.805347,-0.295086,-52.984882,0.894861,-0.015248,0.004723,-0.446059
3070,0.081464,-0.339075,9.922860,-0.193824,0.931383,-21.604599,-1.827620,-0.296382,-53.770077,0.891781,-0.015394,0.004905,-0.452180
3071,0.077300,-0.332986,9.923012,-0.409133,0.922025,-21.439806,-1.847695,-0.306776,-54.487999,0.888927,-0.015560,0.005001,-0.457758
3072,0.077792,-0.323100,9.920708,-0.436671,1.028658,-23.598995,-1.864019,-0.315014,-55.239250,0.885904,-0.015687,0.005105,-0.463576
3073,0.081129,-0.321062,9.920041,-0.346645,1.034576,-23.951490,-1.873077,-0.323096,-56.032429,0.882672,-0.015754,0.005189,-0.469697
3074,0.083720,-0.330007,9.915289,-0.265786,1.023699,-23.899616,-1.880002,-0.332560,-56.830597,0.879377,-0.015810,0.005254,-0.475835
3076,0.082052,-0.317560,9.919086,-0.088771,0.982311,-23.133608,-1.880553,-0.341831,-57.615139,0.876098,-0.015816,0.005294,-0.481845
3077,0.083645,-0.302173,9.918235,0.210425,0.850905,-19.930696,-1.863961,-0.350595,-58.333527,0.873061,-0.015694,0.005256,-0.487330
3078,0.085690,-0.289076,9.921616,0.793534,0.766801,-15.676422,-1.824955,-0.358755,-58.927647,0.870527,-0.015405,0.005108,-0.491853
3079,0.077715,-0.258103,9.929111,1.366088,0.743766,-12.520815,-1.756138,-0.361369,-59.398357,0.868508,-0.014874,0.004854,-0.495428
3080,0.075725,-0.229613,9.931177,1.720583,0.653634,-9.182097,-1.659253,-0.358095,-59.760902,0.866949,-0.014111,0.004504,-0.498176
3081,0.074017,-0.221540,9.925223,1.977445,0.508580,-5.986815,-1.550360,-0.353898,-60.014465,0.865858,-0.013260,0.004092,-0.500097
3082,0.071294,-0.206697,9.924898,2.148885,0.371156,-3.612482,-1.432399,-0.351582,-60.175095,0.865170,-0.012353,0.003612,-0.501314
3083,0.068539,-0.183691,9.927204,1.864145,0.178805,-1.972118,-1.310221,-0.352234,-60.268730,0.864772,-0.011431,0.003082,-0.502025
3084,0.072145,-0.191719,9.917528,1.365647,0.026122,-0.961960,-1.212956,-0.358013,-60.317966,0.864565,-0.010722,0.002617,-0.502399
3085,0.071530,-0.196982,9.915359,1.260590,-0.068585,-0.403475,-1.148220,-0.368165,-60.340847,0.864470,-0.010277,0.002258,-0.502574
3086,0.071873,-0.196736,9.916329,1.175210,-0.085455,-0.305818,-1.101059,-0.378632,-60.352669,0.864422,-0.009967,0.001973,-0.502664
3087,0.076848,-0.184071,9.916389,1.184406,-0.093179,-0.241731,-1.057975,-0.390204,-60.361759,0.864385,-0.009693,0.001698,-0.502734
3088,0.086111,-0.208243,9.912758,1.552064,-0.082641,-0.224948,-1.020402,-0.406228,-60.369431,0.864353,-0.009479,0.001413,-0.502794
3089,0.084634,-0.223567,9.922407,1.959139,-0.064488,-0.252416,-0.993012,-0.423050,-60.377132,0.864321,-0.009347,0.001166,-0.502853
3090,0.084820,-0.207240,9.926831,2.009101,-0.034094,-0.253941,-0.962309,-0.435994,-60.385284,0.864287,-0.009172,0.000935,-0.502915
3091,0.085562,-0.184292,9.927755,1.963069,-0.015885,-0.223422,-0.918855,-0.446265,-60.393074,0.864255,-0.008889,0.000667,-0.502975
3092,0.081571,-0.183542,9.929488,1.683624,-0.008325,-0.215793,-0.876115,-0.452936,-60.400246,0.864227,-0.008596,0.000430,-0.503029
3093,0.072572,-0.158221,9.930230,1.047166,-0.022049,-0.194428,-0.843810,-0.452800,-60.406975,0.864199,-0.008352,0.000289,-0.503080
3094,0.076643,-0.114334,9.920561,0.612399,-0.038797,-0.145599,-0.805097,-0.450562,-60.412712,0.864177,-0.008050,0.000137,-0.503123
3095,0.078182,-0.117822,9.916862,0.040434,-0.067783,-0.115083,-0.771089,-0.451716,-60.417225,0.864160,-0.007798,-0.000021,-0.503157
3096,0.081197,-0.133955,9.914785,-0.231079,-0.083057,-0.098298,-0.765131,-0.455669,-60.420803,0.864144,-0.007771,-0.000077,-0.503185
3097,0.080647,-0.137457,9.914783,-0.220425,-0.084607,-0.086091,-0.775041,-0.460588,-60.423828,0.864130,-0.007867,-0.000070,-0.503208
3098,0.084462,-0.143096,9.913420,-0.102996,-0.078535,-0.076935,-0.786493,-0.466181,-60.426460,0.864117,-0.007978,-0.000062,-0.503228
3099,0.080906,-0.150465,9.917952,-0.066486,-0.080085,-0.089142,-0.799391,-0.471012,-60.429108,0.864104,-0.008097,-0.000041,-0.503248
3100,0.080117,-0.133513,9.914403,0.046387,-0.081605,-0.076934,-0.803815,-0.473226,-60.431808,0.864092,-0.008140,-0.000038,-0.503268
3101,0.075424,-0.127409,9.918038,0.145652,-0.057152,-0.078460,-0.793417,-0.472153,-60.434414,0.864081,-0.008057,-0.000076,-0.503288
3102,0.074744,-0.120101,9.916443,0.132058,-0.052509,-0.081512,-0.776215,-0.468176,-60.437157,0.864071,-0.007909,-0.000121,-0.503308
3103,0.075304,-0.127989,9.918641,0.054349,-0.057026,-0.063201,-0.762856,-0.464517,-60.439636,0.864061,-0.007793,-0.000152,-0.503327
3104,0.071811,-0.115622,9.915897,0.072770,-0.049327,-0.054045,-0.750843,-0.460103,-60.441650,0.864053,-0.007683,-0.000171,-0.503342
3105,0.072807,-0.122671,9.920390,0.178173,-0.032468,-0.069305,-0.736355,-0.454798,-60.443771,0.864045,-0.007550,-0.000195,-0.503358
3106,0.074250,-0.127212,9.916089,0.162951,-0.038517,-0.079986,-0.727369,-0.451103,-60.446259,0.864035,-0.007466,-0.000206,-0.503376
3107,0.070448,-0.128572,9.915059,0.147679,-0.032355,-0.081511,-0.723237,-0.447078,-60.448936,0.864024,-0.007417,-0.000194,-0.503396
3108,0.067817,-0.128857,9.914892,0.086611,-0.032272,-0.083035,-0.722080,-0.440745,-60.451645,0.864012,-0.007381,-0.000151,-0.503417
3109,0.071362,-0.143097,9.915833,0.016313,-0.050513,-0.087611,-0.729797,-0.435885,-60.454395,0.864000,-0.007418,-0.000080,-0.503437
3110,0.069929,-0.146017,9.918344,0.022236,-0.059618,-0.081505,-0.745510,-0.433225,-60.457058,0.863987,-0.007524,0.000009,-0.503457
3111,0.070011,-0.138195,9.921702,0.069400,-0.061093,-0.063193,-0.756425,-0.430698,-60.459354,0.863977,-0.007596,0.000076,-0.503474
3112,0.073879,-0.135767,9.925502,0.105955,-0.062591,-0.057088,-0.759468,-0.430292,-60.461285,0.863968,-0.007617,0.000093,-0.503489
3113,0.074898,-0.129939,9.923940,0.176134,-0.062590,-0.070822,-0.756096,-0.432242,-60.463383,0.863959,-0.007600,0.000063,-0.503505
3114,0.076472,-0.139222,9.923629,0.269184,-0.053444,-0.070822,-0.751534,-0.435056,-60.465694,0.863949,-0.007578,0.000022,-0.503522
3115,0.073535,-0.154565,9.917706,0.211041,-0.051917,-0.069294,-0.757688,-0.436763,-60.467899,0.863939,-0.007632,0.000036,-0.503539
3116,0.073553,-0.153533,9.915415,0.189452,-0.054951,-0.081499,-0.771301,-0.436920,-60.470222,0.863928,-0.007735,0.000095,-0.503557
3117,0.071681,-0.143939,9.911020,0.114524,-0.057973,-0.075394,-0.780479,-0.436259,-60.472713,0.863916,-0.007801,0.000141,-0.503575
3118,0.070296,-0.144049,9.915816,-0.042741,-0.060981,-0.069289,-0.787706,-0.434322,-60.475029,0.863906,-0.007847,0.000187,-0.503593
3119,0.068732,-0.135696,9.916370,-0.380010,-0.067029,-0.067763,-0.798342,-0.431435,-60.477261,0.863895,-0.007915,0.000256,-0.503609
3120,0.070660,-0.118788,9.915764,-0.633217,-0.076135,-0.063184,-0.806535,-0.429320,-60.479477,0.863885,-0.007967,0.000308,-0.503626
3121,0.070984,-0.131190,9.922185,-1.084757,-0.115773,-0.044874,-0.823079,-0.429345,-60.481331,0.863876,-0.008092,0.000381,-0.503640
3122,0.079021,-0.178663,9.918344,-1.376342,-0.150875,-0.025036,-0.876080,-0.434376,-60.482334,0.863867,-0.008514,0.000576,-0.503648
3123,0.079229,-0.188931,9.913914,-0.790740,-0.117348,-0.041819,-0.944034,-0.442650,-60.483135,0.863858,-0.009062,0.000812,-0.503653
3124,0.076877,-0.166169,9.913336,-0.148520,-0.088376,-0.050973,-0.977074,-0.447980,-60.484486,0.863849,-0.009335,0.000917,-0.503664
3125,0.081753,-0.169641,9.919578,-0.417099,-0.123493,-0.046396,-0.987910,-0.453470,-60.486027,0.863841,-0.009441,0.000924,-0.503675
3126,0.068421,-0.179648,9.922975,-1.163319,-0.059375,-0.040291,-1.018136,-0.453968,-60.487400,0.863832,-0.009671,0.001053,-0.503686
3127,0.055163,-0.267481,9.931133,-2.256360,0.047600,-0.063173,-1.118163,-0.439625,-60.488792,0.863818,-0.010362,0.001601,-0.503694
3128,0.056161,-0.260835,9.930171,-2.919372,-0.010175,-0.003653,-1.272753,-0.420160,-60.489422,0.863802,-0.011441,0.002427,-0.503695
3129,0.060591,-0.304383,9.931678,-3.347354,-0.080212,1.001941,-1.442505,-0.407288,-60.472305,0.863861,-0.012665,0.003268,-0.503561
3130,0.054287,-0.324292,9.931129,-2.885758,-0.095335,1.931238,-1.615017,-0.396542,-60.422901,0.864059,-0.013920,0.004101,-0.503182
3131,0.069929,-0.334427,9.920109,-2.115785,-0.211232,2.483629,-1.754653,-0.392965,-60.348839,0.864367,-0.014960,0.004732,-0.502618
3132,0.080973,-0.260710,9.913148,-0.966819,-0.339479,2.637746,-1.811703,-0.405644,-60.263191,0.864733,-0.015450,0.004875,-0.501970
3133,0.077667,-0.275073,9.915411,-0.433879,-0.251072,2.590437,-1.800374,-0.421597,-60.176033,0.865115,-0.015438,0.004693,-0.501315
3134,0.074520,-0.279800,9.913799,-0.210755,-0.168716,1.626048,-1.781165,-0.430288,-60.105797,0.865424,-0.015334,0.004534,-0.500786
3135,0.077490,-0.282793,9.910245,0.051979,-0.078708,0.678446,-1.759324,-0.435207,-60.067463,0.865593,-0.015192,0.004396,-0.500498
3136,0.070357,-0.270704,9.910931,0.632115,0.041850,0.090963,-1.722415,-0.434601,-60.054817,0.865654,-0.014911,0.004238,-0.500403
3137,0.069911,-0.245183,9.917009,0.882785,0.099884,-0.060106,-1.659601,-0.427769,-60.054653,0.865663,-0.014406,0.004015,-0.500404
3138,0.074917,-0.250565,9.915908,0.527676,0.031239,-0.061635,-1.597209,-0.423705,-60.057034,0.865661,-0.013917,0.003774,-0.500424
3139,0.078069,-0.243298,9.914622,0.340324,0.000694,-0.098260,-1.552453,-0.425667,-60.059937,0.865653,-0.013588,0.003564,-0.500447
3140,0.080958,-0.238105,9.917072,0.169726,-0.034460,-0.086057,-1.516287,-0.431504,-60.063198,0.865643,-0.013340,0.003362,-0.500473
3141,0.087330,-0.241923,9.919607,-0.089434,-0.068126,-0.067750,-1.492709,-0.441881,-60.065895,0.865633,-0.013207,0.003181,-0.500495
3142,0.085389,-0.241487,9.920775,-0.202171,-0.094170,-0.055546,-1.481239,-0.453928,-60.068005,0.865624,-0.013173,0.003040,-0.500512
3143,0.088068,-0.258101,9.917489,-0.127327,-0.085102,-0.031134,-1.480061,-0.464887,-60.069424,0.865617,-0.013212,0.002953,-0.500524
3144,0.084116,-0.271182,9.921785,0.286120,-0.060750,-0.060128,-1.484535,-0.473007,-60.070820,0.865610,-0.013281,0.002911,-0.500535
3145,0.080658,-0.256229,9.922531,0.923890,-0.091280,-0.090646,-1.470365,-0.476598,-60.073208,0.865600,-0.013189,0.002822,-0.500554
3146,0.075305,-0.235603,9.924435,1.166608,-0.106498,-0.078439,-1.426820,-0.476259,-60.076019,0.865593,-0.012859,0.002635,-0.500576
3147,0.076887,-0.214663,9.918751,0.869300,-0.080495,-0.072335,-1.370559,-0.473870,-60.078632,0.865588,-0.012424,0.002408,-0.500597
3148,0.066757,-0.184310,9.926691,0.109801,-0.066661,-0.083018,-1.317179,-0.467318,-60.081467,0.865582,-0.011992,0.002224,-0.500619
3149,0.070583,-0.188336,9.922914,-0.822092,-0.200820,0.032952,-1.288792,-0.460659,-60.082516,0.865581,-0.011748,0.002151,-0.500627
3150,0.069031,-0.210966,9.919564,-1.725190,-0.219029,0.109248,-1.308746,-0.458460,-60.080158,0.865589,-0.011889,0.002254,-0.500609
3151,0.076708,-0.249372,9.915215,-1.882411,-0.212860,0.364079,-1.373553,-0.459669,-60.072086,0.865618,-0.012384,0.002527,-0.500546
3152,0.074200,-0.285257,9.916457,-1.107580,-0.127370,0.391550,-1.453948,-0.461541,-60.059120,0.865665,-0.013000,0.002863,-0.500447
3153,0.079452,-0.281217,9.914013,0.070064,-0.049520,0.351879,-1.504716,-0.461642,-60.046391,0.865715,-0.013384,0.003082,-0.500349
3154,0.077623,-0.264245,9.916230,0.481903,0.057308,0.284740,-1.510045,-0.460044,-60.035675,0.865761,-0.013418,0.003116,-0.500268
3155,0.081577,-0.267520,9.919683,0.695486,0.087828,0.307630,-1.494737,-0.457192,-60.025826,0.865806,-0.013290,0.003070,-0.500194
3156,0.076994,-0.246210,9.917260,0.799281,0.122927,0.042118,-1.467034,-0.453414,-60.020115,0.865835,-0.013064,0.002977,-0.500151
3157,0.077990,-0.233263,9.918694,0.404226,0.035962,0.000918,-1.432550,-0.449583,-60.019585,0.865841,-0.012787,0.002855,-0.500148
3158,0.077962,-0.252958,9.914884,-0.093151,-0.064748,0.031435,-1.420551,-0.449880,-60.019081,0.865845,-0.012698,0.002801,-0.500144
3159,0.081544,-0.261264,9.915690,0.031879,-0.061714,0.010072,-1.430404,-0.453614,-60.018272,0.865847,-0.012789,0.002815,-0.500138
3160,0.081468,-0.246837,9.915174,0.159985,-0.022071,-0.072328,-1.433531,-0.457896,-60.019234,0.865842,-0.012831,0.002797,-0.500145
3161,0.077466,-0.247815,9.919441,0.021132,-0.046492,-0.090638,-1.429985,-0.459587,-60.021923,0.865830,-0.012811,0.002769,-0.500166
3162,0.076453,-0.244110,9.919536,-0.021575,-0.058675,-0.107424,-1.428263,-0.459267,-60.025196,0.865816,-0.012797,0.002764,-0.500191
3163,0.076482,-0.237824,9.919641,0.001376,-0.051016,-0.113526,-1.422936,-0.458503,-60.028881,0.865801,-0.012753,0.002747,-0.500219
3164,0.073451,-0.233126,9.917406,0.006063,-0.052499,-0.095215,-1.412944,-0.456420,-60.032398,0.865787,-0.012669,0.002719,-0.500245
3165,0.072327,-0.239772,9.918727,-0.077775,-0.075326,-0.098266,-1.406276,-0.453151,-60.035625,0.865774,-0.012604,0.002715,-0.500270
3166,0.079790,-0.239299,9.916090,-0.140295,-0.099715,-0.093688,-1.405984,-0.453820,-60.038784,0.865760,-0.012604,0.002709,-0.500294
3167,0.080259,-0.248012,9.917083,-0.076208,-0.082945,-0.087586,-1.409775,-0.458247,-60.041721,0.865746,-0.012652,0.002693,-0.500316
3168,0.082281,-0.251838,9.913513,0.047332,-0.069234,-0.084534,-1.415635,-0.462868,-60.044491,0.865733,-0.012717,0.002684,-0.500337
3169,0.081166,-0.250917,9.915177,0.236480,-0.061623,-0.133364,-1.416834,-0.466873,-60.048019,0.865717,-0.012743,0.002659,-0.500364
3170,0.079530,-0.236404,9.914632,0.454702,-0.052467,-0.134890,-1.404008,-0.468777,-60.052448,0.865699,-0.012655,0.002589,-0.500398
3171,0.073523,-0.237090,9.916211,0.380003,-0.021905,-0.122681,-1.383664,-0.466258,-60.056759,0.865683,-0.012490,0.002520,-0.500431
3172,0.074943,-0.235320,9.915751,0.186259,-0.024893,-0.092161,-1.369807,-0.461316,-60.060360,0.865669,-0.012363,0.002497,-0.500458
3173,0.078286,-0.236175,9.917622,0.105409,-0.037065,-0.086058,-1.362685,-0.459229,-60.063316,0.865657,-0.012300,0.002482,-0.500480
3174,0.077664,-0.234095,9.917123,-0.103629,-0.044678,-0.058590,-1.361429,-0.459160,-60.065712,0.865647,-0.012291,0.002477,-0.500498
3175,0.079218,-0.248396,9.914775,-0.300526,-0.047720,-0.047908,-1.372894,-0.459828,-60.067413,0.865638,-0.012380,0.002523,-0.500511
3176,0.080578,-0.251396,9.914806,0.160176,-0.044671,-0.063167,-1.386714,-0.461722,-60.069130,0.865629,-0.012493,0.002569,-0.500524
3177,0.077290,-0.278829,9.911919,0.799285,-0.066026,-0.086054,-1.393518,-0.462916,-60.071400,0.865618,-0.012549,0.002590,-0.500541
3179,0.078379,-0.262283,9.911659,0.945485,-0.076686,-0.098258,-1.390434,-0.463484,-60.074200,0.865606,-0.012528,0.002572,-0.500562
3180,0.079902,-0.249349,9.909728,1.134556,-0.093463,-0.101308,-1.368732,-0.465524,-60.077351,0.865595,-0.012373,0.002462,-0.500587
3181,0.080791,-0.236064,9.909834,1.290161,-0.104144,-0.115042,-1.331802,-0.468885,-60.080849,0.865583,-0.012109,0.002276,-0.500614
3182,0.084793,-0.214106,9.910096,1.012524,-0.110266,-0.104361,-1.286024,-0.474241,-60.084480,0.865571,-0.011786,0.002036,-0.500643
3183,0.090597,-0.161253,9.913091,0.506290,-0.093540,-0.102840,-1.227066,-0.483003,-60.088142,0.865561,-0.011379,0.001713,-0.500672
3184,0.080266,-0.165021,9.918455,-0.086772,-0.059994,-0.099792,-1.172948,-0.487875,-60.091866,0.865549,-0.010992,0.001440,-0.500701
3185,0.076518,-0.180566,9.919268,-0.872286,-0.021791,-0.073853,-1.158612,-0.484394,-60.094990,0.865537,-0.010868,0.001404,-0.500725
3186,0.076254,-0.191656,9.915071,-1.302445,0.005749,-0.055542,-1.181241,-0.477970,-60.097252,0.865526,-0.011011,0.001551,-0.500741
3187,0.073788,-0.210569,9.913383,-1.374151,0.007355,-0.057066,-1.224662,-0.470633,-60.099148,0.865514,-0.011307,0.001797,-0.500754
3188,0.067230,-0.228511,9.911860,-1.381891,0.016622,-0.058589,-1.280451,-0.460246,-60.101017,0.865501,-0.011683,0.002119,-0.500767
3189,0.076177,-0.230343,9.908291,-1.130235,0.009077,-0.050957,-1.333353,-0.452211,-60.102776,0.865488,-0.012047,0.002411,-0.500778
3190,0.080402,-0.232127,9.908010,-0.675560,-0.016857,-0.041801,-1.367940,-0.451831,-60.104271,0.865478,-0.012307,0.002565,-0.500789
3191,0.080303,-0.228267,9.911132,-0.382549,-0.030611,-0.047906,-1.382576,-0.454522,-60.105770,0.865470,-0.012429,0.002609,-0.500800
3192,0.079860,-0.230142,9.910406,-0.335161,-0.036731,-0.038751,-1.386963,-0.457127,-60.107250,0.865463,-0.012474,0.002609,-0.500811
3193,0.076559,-0.243120,9.910978,-0.185592,-0.039776,-0.055536,-1.393077,-0.457868,-60.108810,0.865455,-0.012523,0.002630,-0.500823
3194,0.072569,-0.249132,9.910920,0.443035,-0.087036,-0.064691,-1.393655,-0.456042,-60.110737,0.865447,-0.012519,0.002647,-0.500838
3195,0.070329,-0.218330,9.911410,1.264053,-0.117481,-0.096733,-1.358817,-0.452909,-60.113392,0.865439,-0.012242,0.002518,-0.500858
3196,0.071492,-0.210835,9.914909,1.659496,-0.138769,-0.110467,-1.289637,-0.450549,-60.116886,0.865431,-0.011710,0.002234,-0.500886
3197,0.075168,-0.204331,9.919781,1.731422,-0.140248,-0.125727,-1.214323,-0.451057,-60.120876,0.865421,-0.011143,0.001901,-0.500917
3198,0.081843,-0.188697,9.923842,1.785025,-0.149408,-0.115047,-1.138089,-0.456332,-60.124916,0.865411,-0.010590,0.001529,-0.500949
3199,0.085794,-0.173708,9.926168,1.560931,-0.105206,-0.119627,-1.062753,-0.465163,-60.128902,0.865399,-0.010060,0.001133,-0.500981
3200,0.090217,-0.192690,9.929065,0.871285,-0.077817,-0.112001,-1.015699,-0.475342,-60.132771,0.865386,-0.009749,0.000851,-0.501011
3201,0.088979,-0.191539,9.930726,0.520206,-0.062636,-0.108949,-1.002848,-0.484741,-60.136318,0.865371,-0.009693,0.000724,-0.501038
3202,0.085720,-0.177430,9.926658,0.581152,-0.053521,-0.113526,-0.992742,-0.490330,-60.139935,0.865355,-0.009641,0.000638,-0.501066
3203,0.084562,-0.170594,9.925415,0.423971,-0.056578,-0.105897,-0.976940,-0.492803,-60.143555,0.865341,-0.009533,0.000550,-0.501093
3204,0.078931,-0.175153,9.921227,0.249993,-0.065702,-0.092162,-0.967661,-0.491948,-60.146805,0.865327,-0.009459,0.000516,-0.501118
3205,0.076907,-0.173234,9.918294,0.256041,-0.062579,-0.093686,-0.964259,-0.487778,-60.149822,0.865315,-0.009415,0.000533,-0.501141
3206,0.075882,-0.173395,9.914660,0.161374,-0.050291,-0.095210,-0.962574,-0.482430,-60.152889,0.865302,-0.009379,0.000567,-0.501163
3207,0.072543,-0.174507,9.914482,0.059068,-0.056300,-0.084527,-0.965135,-0.475810,-60.155804,0.865289,-0.009369,0.000628,-0.501185
3208,0.074121,-0.172522,9.911132,0.254321,-0.028742,-0.098258,-0.965730,-0.468979,-60.158775,0.865277,-0.009344,0.000682,-0.501207
3209,0.075499,-0.159925,9.911247,0.400818,-0.022571,-0.096731,-0.954095,-0.463889,-60.162018,0.865264,-0.009234,0.000670,-0.501232
3210,0.074768,-0.156466,9.908575,0.355116,-0.025570,-0.087576,-0.934668,-0.459927,-60.165127,0.865252,-0.009069,0.000615,-0.501255
3211,0.077380,-0.154092,9.908014,0.259060,-0.042318,-0.075368,-0.917429,-0.457792,-60.167885,0.865241,-0.008930,0.000556,-0.501276
3212,0.079776,-0.165894,9.911459,0.217862,-0.046888,-0.078420,-0.909296,-0.458628,-60.170422,0.865231,-0.008872,0.000515,-0.501295
3213,0.076407,-0.153814,9.917274,0.315504,-0.048403,-0.072315,-0.901943,-0.459209,-60.172894,0.865220,-0.008819,0.000478,-0.501314
3214,0.078670,-0.153418,9.917917,0.126319,-0.059065,-0.078419,-0.891826,-0.459385,-60.175396,0.865210,-0.008744,0.000433,-0.501333
3215,0.076775,-0.160169,9.923081,-0.020184,-0.066678,-0.066211,-0.891327,-0.459947,-60.177761,0.865200,-0.008742,0.000427,-0.501351
3216,0.078164,-0.155957,9.922374,0.094224,-0.062079,-0.075366,-0.893229,-0.460268,-60.180065,0.865190,-0.008758,0.000433,-0.501368
3217,0.082080,-0.150547,9.919781,0.002681,-0.065135,-0.066211,-0.890501,-0.462807,-60.182411,0.865180,-0.008749,0.000402,-0.501386
3218,0.083083,-0.159044,9.916686,-0.261308,-0.083472,-0.057056,-0.895139,-0.467633,-60.184425,0.865170,-0.008805,0.000386,-0.501401
3219,0.081900,-0.171269,9.919343,-0.298033,-0.092647,-0.060107,-0.913623,-0.472287,-60.186245,0.865160,-0.008965,0.000432,-0.501415
3220,0.084512,-0.168202,9.918057,-0.119625,-0.072828,-0.082996,-0.931966,-0.476673,-60.188499,0.865149,-0.009122,0.000479,-0.501432
3221,0.080456,-0.167364,9.915813,-0.063244,-0.060623,-0.076891,-0.941966,-0.479240,-60.191074,0.865136,-0.009209,0.000504,-0.501452
3222,0.078158,-0.165433,9.915285,-0.015980,-0.052961,-0.072312,-0.946934,-0.478209,-60.193493,0.865125,-0.009242,0.000533,-0.501470
3223,0.077280,-0.175834,9.911438,-0.046568,-0.051386,-0.066207,-0.954207,-0.475545,-60.195736,0.865115,-0.009285,0.000585,-0.501487
3224,0.074141,-0.164729,9.910391,-0.011529,-0.040638,-0.063154,-0.960219,-0.471225,-60.197826,0.865106,-0.009312,0.000645,-0.501502
3225,0.072625,-0.171134,9.913873,-0.246543,-0.054289,-0.040264,-0.966516,-0.465445,-60.199509,0.865099,-0.009334,0.000716,-0.501515
3226,0.073656,-0.192013,9.921170,-0.351975,-0.052687,-0.041787,-0.989303,-0.460371,-60.200733,0.865092,-0.009484,0.000854,-0.501524
3227,0.076388,-0.180333,9.919747,-0.190389,-0.041956,-0.057044,-1.012910,-0.457522,-60.202240,0.865083,-0.009649,0.000979,-0.501535
3228,0.075722,-0.161357,9.922462,-0.095756,-0.034293,-0.079933,-1.015480,-0.455864,-60.204521,0.865073,-0.009662,0.001003,-0.501552
3229,0.078455,-0.175280,9.921098,-0.010234,-0.029697,-0.082985,-1.010881,-0.455239,-60.207256,0.865062,-0.009624,0.000988,-0.501572
3230,0.079070,-0.166549,9.919764,0.488786,-0.014436,-0.096718,-0.998958,-0.455917,-60.210278,0.865049,-0.009537,0.000931,-0.501595
3231,0.073148,-0.143174,9.916710,0.913178,0.000850,-0.093667,-0.959007,-0.453801,-60.213577,0.865038,-0.009226,0.000772,-0.501620
3232,0.071996,-0.149460,9.919716,0.859993,-0.005195,-0.095194,-0.909360,-0.448573,-60.216885,0.865028,-0.008828,0.000594,-0.501645
3233,0.074376,-0.156861,9.919896,0.742580,-0.015828,-0.072305,-0.875186,-0.444688,-60.219730,0.865018,-0.008553,0.000474,-0.501667
3234,0.073482,-0.143964,9.919368,0.495419,-0.021899,-0.063150,-0.851002,-0.442399,-60.222004,0.865010,-0.008361,0.000386,-0.501684
3235,0.074158,-0.148611,9.918548,0.002576,-0.038656,-0.053993,-0.839966,-0.440860,-60.223957,0.865003,-0.008271,0.000349,-0.501699
3236,0.078569,-0.154353,9.917556,-0.295029,-0.052389,-0.041786,-0.849260,-0.442319,-60.225502,0.864995,-0.008347,0.000379,-0.501710
3237,0.074749,-0.147903,9.918436,-0.308810,-0.053917,-0.041786,-0.863571,-0.444292,-60.226833,0.864988,-0.008464,0.000427,-0.501721
3238,0.074109,-0.159974,9.924959,-0.243249,-0.052368,-0.038733,-0.877631,-0.444051,-60.228100,0.864982,-0.008569,0.000491,-0.501730
3239,0.074287,-0.161327,9.930751,0.196124,-0.035556,-0.044835,-0.886876,-0.443134,-60.229408,0.864975,-0.008635,0.000538,-0.501740
3240,0.071890,-0.142417,9.928735,0.708844,-0.018734,-0.055516,-0.870879,-0.440776,-60.231079,0.864969,-0.008504,0.000486,-0.501752
3241,0.075161,-0.135841,9.928177,0.704393,-0.029386,-0.063147,-0.835904,-0.438953,-60.233131,0.864963,-0.008232,0.000347,-0.501768
3242,0.076330,-0.142912,9.928937,0.629705,-0.027856,-0.038732,-0.806287,-0.439511,-60.234871,0.864957,-0.008011,0.000213,-0.501781
3243,0.074450,-0.123779,9.924038,0.500088,-0.035478,-0.040259,-0.779724,-0.439965,-60.236240,0.864953,-0.007812,0.000093,-0.501792
3244,0.074649,-0.128668,9.923329,-0.046086,-0.061403,-0.032630,-0.762507,-0.440192,-60.237499,0.864949,-0.007683,0.000016,-0.501801
3245,0.075570,-0.150652,9.922555,-0.400160,-0.081230,-0.035681,-0.775222,-0.441618,-60.238567,0.864943,-0.007785,0.000061,-0.501809
3246,0.071704,-0.149439,9.923446,-0.304189,-0.079677,-0.044835,-0.801567,-0.441952,-60.239765,0.864936,-0.007986,0.000174,-0.501818
3247,0.072930,-0.150932,9.922989,-0.211239,-0.078112,-0.060093,-0.821949,-0.440963,-60.241383,0.864928,-0.008135,0.000271,-0.501830
3248,0.074186,-0.154981,9.923021,0.038894,-0.062824,-0.067722,-0.835507,-0.440824,-60.243404,0.864918,-0.008237,0.000332,-0.501846
3249,0.072853,-0.156214,9.916735,0.304287,-0.047538,-0.078401,-0.840255,-0.440251,-60.245731,0.864908,-0.008270,0.000357,-0.501863
3250,0.070732,-0.143441,9.918353,0.400375,-0.044443,-0.081452,-0.832637,-0.437948,-60.248341,0.864897,-0.008203,0.000341,-0.501883
3251,0.068522,-0.141608,9.920237,0.350042,-0.038277,-0.084504,-0.818121,-0.433821,-60.251102,0.864886,-0.008075,0.000309,-0.501903
3252,0.062735,-0.135576,9.916502,0.246321,-0.035130,-0.089080,-0.804436,-0.426564,-60.253994,0.864875,-0.007940,0.000304,-0.501925
3253,0.060130,-0.137607,9.916219,0.040357,-0.044161,-0.093656,-0.796319,-0.416636,-60.257050,0.864862,-0.007835,0.000343,-0.501948
3254,0.059437,-0.134454,9.919693,-0.075590,-0.050138,-0.086026,-0.794697,-0.406809,-60.260036,0.864850,-0.007780,0.000411,-0.501970
3255,0.058145,-0.134722,9.918104,-0.299869,-0.063750,-0.078394,-0.798218,-0.397921,-60.262768,0.864838,-0.007768,0.000493,-0.501990
3256,0.062446,-0.139431,9.915301,-0.363951,-0.066712,-0.075341,-0.808587,-0.392027,-60.265312,0.864827,-0.007820,0.000584,-0.502009
3257,0.065493,-0.138067,9.918968,-0.275444,-0.068196,-0.067710,-0.818952,-0.390494,-60.267673,0.864816,-0.007891,0.000641,-0.502027
3258,0.073883,-0.138254,9.919242,-0.292203,-0.069741,-0.041770,-0.826035,-0.394503,-60.269466,0.864807,-0.007962,0.000642,-0.502041
3259,0.077731,-0.131309,9.919898,-0.224989,-0.071342,-0.023461,-0.828042,-0.403668,-60.270573,0.864802,-0.008018,0.000581,-0.502049
3260,0.081660,-0.133071,9.923589,-0.111963,-0.065340,0.007056,-0.824099,-0.415112,-60.270889,0.864800,-0.008038,0.000478,-0.502052
3261,0.084890,-0.143121,9.925599,-0.232463,-0.076141,0.077246,-0.825518,-0.428146,-60.269482,0.864805,-0.008106,0.000385,-0.502042
3262,0.087793,-0.154117,9.926280,-0.208104,-0.077795,0.155067,-0.837841,-0.442159,-60.265537,0.864821,-0.008260,0.000333,-0.502013
3263,0.082676,-0.152961,9.922448,0.116827,-0.064155,0.223733,-0.847611,-0.452960,-60.259117,0.864847,-0.008381,0.000294,-0.501965
3264,0.083958,-0.156444,9.920070,0.457024,-0.038270,0.325969,-0.845713,-0.459561,-60.249874,0.864888,-0.008396,0.000235,-0.501895
3265,0.085438,-0.145398,9.914527,0.777427,-0.016962,0.435836,-0.829019,-0.465247,-60.237137,0.864944,-0.008295,0.000118,-0.501799
3266,0.080394,-0.136300,9.914535,0.966681,-0.006309,0.626575,-0.796576,-0.467890,-60.219448,0.865024,-0.008062,-0.000045,-0.501666
3267,0.078830,-0.133437,9.912089,0.901121,-0.021557,1.117923,-0.760681,-0.466986,-60.190411,0.865154,-0.007787,-0.000197,-0.501447
3268,0.074662,-0.128848,9.914052,0.803497,-0.064244,2.201330,-0.729616,-0.464108,-60.135098,0.865398,-0.007539,-0.000315,-0.501029
3269,0.072713,-0.117022,9.912904,0.640281,-0.137421,4.101109,-0.701200,-0.460199,-60.030067,0.865859,-0.007307,-0.000416,-0.500235
3270,0.066149,-0.105833,9.916615,0.529007,-0.221246,6.757744,-0.672432,-0.454860,-59.849098,0.866650,-0.007066,-0.000513,-0.498867
3271,0.066269,-0.106177,9.916980,0.747338,-0.303521,9.415907,-0.642130,-0.449255,-59.579540,0.867823,-0.006811,-0.000618,-0.496826
3272,0.060230,-0.076044,9.915475,1.127469,-0.376642,11.828396,-0.597822,-0.445659,-59.225464,0.869357,-0.006457,-0.000803,-0.494142
3273,0.063048,-0.071108,9.914671,1.132290,-0.428409,13.581683,-0.541536,-0.444608,-58.802010,0.871180,-0.006022,-0.001060,-0.490926
3274,0.060203,-0.075223,9.916557,1.240815,-0.428298,13.860928,-0.489011,-0.444745,-58.344643,0.873135,-0.005618,-0.001309,-0.487444
3276,0.063597,-0.074252,9.912881,1.097482,-0.435819,14.282082,-0.444302,-0.445535,-57.875538,0.875125,-0.005274,-0.001527,-0.483865
3277,0.062099,-0.069050,9.911878,0.780155,-0.441820,14.701714,-0.410869,-0.447334,-57.392418,0.877159,-0.005020,-0.001703,-0.480171
3278,0.067825,-0.076730,9.913084,0.722178,-0.450887,15.136601,-0.389021,-0.450743,-56.895020,0.879236,-0.004859,-0.001841,-0.476359
3279,0.067578,-0.070084,9.915474,0.407806,-0.434030,15.714930,-0.376991,-0.455539,-56.380707,0.881365,-0.004778,-0.001950,-0.472408
3280,0.068045,-0.070994,9.917292,-0.167498,-0.482782,17.806971,-0.380212,-0.460215,-55.821903,0.883658,-0.004812,-0.001996,-0.468104
3281,0.063893,-0.075602,9.918794,-0.022591,-0.536094,19.941744,-0.393500,-0.464283,-55.192608,0.886215,-0.004920,-0.002000,-0.463245
3282,0.063853,-0.080380,9.917960,0.174173,-0.563445,21.339493,-0.403728,-0.467331,-54.504417,0.888980,-0.005000,-0.002012,-0.457914
3283,0.053643,-0.079119,9.926689,0.079489,-0.573968,21.798798,-0.412325,-0.466936,-53.785282,0.891836,-0.005052,-0.002007,-0.452327
3284,0.052916,-0.081902,9.930057,0.709626,-0.605812,22.013954,-0.411457,-0.463384,-53.054909,0.894701,-0.005019,-0.002014,-0.446633
3285,0.050213,-0.078223,9.930964,1.509147,-0.581188,20.950386,-0.385875,-0.459355,-52.338669,0.897476,-0.004790,-0.002113,-0.441032
3286,0.054701,-0.067645,9.933671,1.591520,-0.512323,18.579100,-0.341938,-0.455580,-51.679722,0.900000,-0.004418,-0.002278,-0.435863
3287,0.056943,-0.045565,9.939565,1.602249,-0.469427,16.978405,-0.289195,-0.453442,-51.087032,0.902244,-0.003983,-0.002482,-0.431201
3288,0.062702,-0.039795,9.933390,1.693891,-0.428091,16.426020,-0.230852,-0.453567,-50.530273,0.904330,-0.003511,-0.002720,-0.426811
3289,0.062337,-0.027258,9.929739,1.770271,-0.398982,16.313101,-0.169953,-0.455003,-49.984619,0.906354,-0.003022,-0.002972,-0.422498
3290,0.068880,-0.020580,9.918033,1.542985,-0.394310,16.546568,-0.112087,-0.458389,-49.436966,0.908364,-0.002561,-0.003225,-0.418160
3291,0.064947,-0.016099,9.920482,0.865518,-0.362177,16.769352,-0.072465,-0.462193,-48.881710,0.910380,-0.002245,-0.003410,-0.413753
3292,0.060869,-0.003288,9.916281,0.088867,-0.340693,17.004345,-0.057013,-0.462338,-48.318825,0.912402,-0.002105,-0.003478,-0.409275
3293,0.064157,-0.019086,9.911436,-0.425370,-0.345145,17.712374,-0.067275,-0.461753,-47.740196,0.914457,-0.002167,-0.003447,-0.404663
3294,0.060026,-0.026940,9.914753,-1.119755,-0.364853,18.640139,-0.105880,-0.461028,-47.134243,0.916583,-0.002455,-0.003318,-0.399823
3295,0.049531,-0.029419,9.921920,-1.064916,-0.392139,20.054670,-0.156021,-0.455831,-46.489246,0.918818,-0.002821,-0.003118,-0.394659
3296,0.057682,-0.047989,9.923556,-0.863609,-0.452990,22.013962,-0.204113,-0.450972,-45.787994,0.921215,-0.003172,-0.002933,-0.389030
3297,0.060466,-0.074072,9.930778,-0.666981,-0.501678,23.343044,-0.254952,-0.451210,-45.031841,0.923760,-0.003563,-0.002785,-0.382944
3298,0.060148,-0.065197,9.935933,-0.708396,-0.551905,24.048025,-0.303479,-0.453300,-44.241795,0.926377,-0.003943,-0.002667,-0.376568
3299,0.065026,-0.065723,9.930600,-0.583392,-0.570102,24.154840,-0.342459,-0.457225,-43.438263,0.928993,-0.004253,-0.002601,-0.370063
3300,0.065587,-0.074189,9.933281,-0.913093,-0.571530,23.370518,-0.382829,-0.462419,-42.646023,0.931528,-0.004579,-0.002544,-0.363633
3301,0.052391,-0.074377,9.925692,-0.722435,-0.571381,21.904102,-0.423602,-0.462694,-41.891293,0.933901,-0.004896,-0.002449,-0.357491
3302,0.049416,-0.077161,9.918414,-0.424921,-0.566592,21.028223,-0.452315,-0.457234,-41.175617,0.936114,-0.005098,-0.002347,-0.351652
3303,0.039172,-0.077676,9.922809,-0.110593,-0.573967,20.834436,-0.467778,-0.447693,-40.477791,0.938238,-0.005182,-0.002253,-0.345945
3304,0.042121,-0.075516,9.924062,0.505903,-0.630153,21.601976,-0.464642,-0.437525,-39.770397,0.940356,-0.005112,-0.002211,-0.340146
3305,0.042725,-0.064699,9.921396,1.160603,-0.657373,22.386305,-0.435525,-0.431024,-39.037170,0.942515,-0.004839,-0.002275,-0.334121
3306,0.055643,-0.070047,9.920197,1.352945,-0.611408,22.024660,-0.392339,-0.429965,-38.296894,0.944655,-0.004465,-0.002421,-0.328025
3307,0.053977,-0.059624,9.917372,1.157675,-0.553280,20.794765,-0.351443,-0.431932,-37.583160,0.946682,-0.004118,-0.002580,-0.322134
3308,0.061548,-0.080238,9.911170,0.599147,-0.467707,18.782070,-0.330775,-0.434090,-36.923435,0.948521,-0.003938,-0.002679,-0.316678
3309,0.056340,-0.105914,9.915233,-0.284610,-0.357724,15.861452,-0.352052,-0.433969,-36.345810,0.950105,-0.004100,-0.002640,-0.311893
3310,0.057698,-0.120760,9.918787,-0.713787,-0.293505,13.418448,-0.407614,-0.429753,-35.857487,0.951423,-0.004539,-0.002473,-0.307843
3311,0.045646,-0.108763,9.919866,-0.521875,-0.308598,12.736365,-0.463285,-0.421434,-35.421284,0.952586,-0.004970,-0.002273,-0.304220
3312,0.042521,-0.106390,9.918117,-0.081114,-0.343480,13.287227,-0.497390,-0.409448,-34.987331,0.953730,-0.005214,-0.002103,-0.300610
3313,0.044856,-0.100074,9.916216,0.562682,-0.364639,14.211941,-0.505654,-0.398918,-34.528835,0.954926,-0.005247,-0.002015,-0.296792
3314,0.037276,-0.086739,9.913276,0.912071,-0.387320,15.483037,-0.488782,-0.388411,-34.033794,0.956200,-0.005071,-0.001993,-0.292663
3315,0.041437,-0.083985,9.912983,0.666402,-0.422208,17.346195,-0.465702,-0.378669,-33.486546,0.957588,-0.004844,-0.001994,-0.288093
3316,0.046267,-0.073969,9.917506,0.239168,-0.464771,19.307011,-0.452280,-0.373902,-32.875568,0.959111,-0.004709,-0.002013,-0.282983
3317,0.057463,-0.074993,9.923616,0.135441,-0.508927,20.774952,-0.447174,-0.376234,-32.207455,0.960745,-0.004660,-0.002072,-0.277386
3318,0.058063,-0.079259,9.927855,-0.047664,-0.530238,21.298342,-0.449863,-0.383369,-31.506134,0.962424,-0.004687,-0.002154,-0.271501
3319,0.066940,-0.081289,9.929467,0.048451,-0.533266,21.255619,-0.456313,-0.393317,-30.796789,0.964086,-0.004750,-0.002252,-0.265539
3320,0.064843,-0.085172,9.929076,0.216268,-0.528678,20.642199,-0.459829,-0.404520,-30.098362,0.965686,-0.004792,-0.002367,-0.259658
3321,0.053166,-0.106293,9.919634,0.371795,-0.490457,19.473339,-0.465421,-0.409553,-29.429585,0.967184,-0.004836,-0.002425,-0.254018
3322,0.046893,-0.104428,9.920601,0.132042,-0.462843,18.745476,-0.477961,-0.406899,-28.792385,0.968581,-0.004923,-0.002402,-0.248636
3323,0.041303,-0.091493,9.921554,0.012902,-0.451970,18.173254,-0.490448,-0.399660,-28.176903,0.969903,-0.005000,-0.002341,-0.243430
3324,0.039233,-0.086200,9.918490,-0.222126,-0.445653,18.040503,-0.501346,-0.390199,-27.573223,0.971172,-0.005060,-0.002264,-0.238317
3325,0.037296,-0.077963,9.920124,-0.359432,-0.440857,17.904697,-0.512614,-0.380103,-26.974052,0.972404,-0.005124,-0.002182,-0.233236
3326,0.047145,-0.074145,9.923427,-0.347140,-0.443732,17.852816,-0.520683,-0.373573,-26.378042,0.973604,-0.005168,-0.002137,-0.228175
3327,0.049703,-0.079838,9.917703,-0.151731,-0.443611,17.497276,-0.524743,-0.372060,-25.788822,0.974764,-0.005188,-0.002143,-0.223166
3328,0.051885,-0.077727,9.913881,-0.023469,-0.455720,17.784151,-0.523895,-0.372747,-25.200739,0.975897,-0.005171,-0.002177,-0.218161
3329,0.043968,-0.086256,9.914240,-0.044769,-0.470859,17.987099,-0.523231,-0.372013,-24.604479,0.977019,-0.005153,-0.002199,-0.213080
3330,0.043405,-0.094895,9.911839,0.034579,-0.487495,18.582212,-0.527329,-0.368901,-23.994875,0.978138,-0.005170,-0.002192,-0.207879
3331,0.040792,-0.099233,9.914454,0.162712,-0.527010,19.667147,-0.532145,-0.365607,-23.357235,0.979280,-0.005193,-0.002184,-0.202433
3332,0.034743,-0.094929,9.914092,0.274066,-0.561920,20.987074,-0.532681,-0.360699,-22.679516,0.980460,-0.005177,-0.002172,-0.196638
3333,0.034904,-0.089571,9.914324,0.281694,-0.595288,22.026230,-0.527973,-0.355145,-21.962500,0.981672,-0.005113,-0.002165,-0.190499
3334,0.040357,-0.084005,9.913084,0.409908,-0.604268,22.758677,-0.517825,-0.352529,-21.215963,0.982892,-0.005008,-0.002192,-0.184099
3335,0.040890,-0.065816,9.916547,0.481738,-0.593438,22.644232,-0.497502,-0.352399,-20.459185,0.984088,-0.004819,-0.002255,-0.177604
3336,0.043795,-0.054562,9.920308,0.367494,-0.576518,22.242912,-0.469962,-0.353468,-19.711050,0.985227,-0.004569,-0.002337,-0.171175
3337,0.044952,-0.079775,9.923039,0.202814,-0.558085,22.084217,-0.454247,-0.355544,-18.972218,0.986311,-0.004421,-0.002407,-0.164819
3338,0.042957,-0.095785,9.919065,0.228699,-0.556433,22.351255,-0.456705,-0.356866,-18.231487,0.987356,-0.004429,-0.002443,-0.158440
3339,0.043794,-0.097964,9.921374,0.254510,-0.553249,22.435184,-0.465004,-0.357447,-17.484873,0.988367,-0.004485,-0.002466,-0.152003
3340,0.039634,-0.124935,9.920398,0.159674,-0.548527,22.331423,-0.483313,-0.356555,-16.738531,0.989335,-0.004626,-0.002464,-0.145563
3341,0.037173,-0.143041,9.917503,0.099788,-0.560565,22.751059,-0.517362,-0.353237,-15.986839,0.990267,-0.004900,-0.002425,-0.139071
3342,0.036141,-0.129559,9.917693,0.149785,-0.574119,23.002838,-0.550166,-0.348922,-15.223961,0.991170,-0.005162,-0.002382,-0.132476
3343,0.031622,-0.136135,9.921723,0.131181,-0.564770,22.828886,-0.576365,-0.342936,-14.459818,0.992030,-0.005366,-0.002336,-0.125864
3344,0.025812,-0.126336,9.924367,0.204183,-0.581330,23.018105,-0.597160,-0.333945,-13.695446,0.992847,-0.005521,-0.002272,-0.119244
3345,0.026851,-0.101849,9.928185,0.190360,-0.600933,23.617796,-0.603122,-0.324551,-12.917996,0.993633,-0.005548,-0.002222,-0.112505
3346,0.028220,-0.095548,9.926749,0.185820,-0.600720,23.350761,-0.597808,-0.317241,-12.135068,0.994379,-0.005480,-0.002201,-0.105713
3347,0.026144,-0.089559,9.923444,0.285089,-0.583730,22.519135,-0.586706,-0.310638,-11.370471,0.995063,-0.005363,-0.002190,-0.099075
3348,0.021478,-0.063240,9.921972,0.534003,-0.562147,21.215994,-0.559954,-0.302602,-10.641508,0.995675,-0.005110,-0.002176,-0.092743
3349,0.025514,-0.062162,9.915174,0.779941,-0.531415,19.972366,-0.517880,-0.295187,-9.955029,0.996214,-0.004726,-0.002174,-0.086775
3350,0.021093,-0.066588,9.910043,0.948001,-0.499165,18.737892,-0.473604,-0.288321,-9.309834,0.996689,-0.004324,-0.002172,-0.081164
3351,0.017464,-0.065600,9.911421,1.013758,-0.471474,18.475435,-0.431192,-0.279318,-8.689565,0.997115,-0.003937,-0.002145,-0.075766
3352,0.018493,-0.068099,9.917471,0.615574,-0.469723,18.547155,-0.399559,-0.270288,-8.072461,0.997510,-0.003644,-0.002107,-0.070395
3353,0.028833,-0.079303,9.918046,0.108953,-0.469550,18.760786,-0.391567,-0.266086,-7.450570,0.997878,-0.003561,-0.002095,-0.064980
3354,0.029938,-0.091605,9.920023,-0.518324,-0.478582,19.047661,-0.412357,-0.266353,-6.820297,0.998220,-0.003730,-0.002106,-0.059491
3355,0.035076,-0.088841,9.918422,-0.918265,-0.505951,19.699234,-0.452726,-0.269019,-6.174367,0.998538,-0.004071,-0.002131,-0.053864
3356,0.036555,-0.093109,9.919785,-1.318173,-0.548601,20.123444,-0.503607,-0.274203,-5.510504,0.998831,-0.004505,-0.002179,-0.048080
3357,0.033579,-0.117507,9.917256,-1.181003,-0.577507,20.465250,-0.563169,-0.278889,-4.833836,0.999095,-0.005013,-0.002224,-0.042182
3358,0.029652,-0.143777,9.916041,-0.827264,-0.591123,20.501875,-0.624877,-0.280716,-4.150793,0.999326,-0.005538,-0.002251,-0.036227
3359,0.027753,-0.137060,9.916473,-0.368233,-0.575721,19.963224,-0.672537,-0.279706,-3.476108,0.999519,-0.005940,-0.002262,-0.030344
3360,0.028662,-0.150543,9.916521,-0.130416,-0.542004,18.621941,-0.704458,-0.277453,-2.832769,0.999672,-0.006205,-0.002268,-0.024732
3361,0.029470,-0.159123,9.918845,0.195874,-0.464044,16.224714,-0.729330,-0.274505,-2.251733,0.999784,-0.006410,-0.002270,-0.019664
3362,0.034528,-0.152970,9.919525,0.529822,-0.366270,12.979074,-0.740300,-0.271851,-1.764775,0.999857,-0.006496,-0.002273,-0.015415
3363,0.033067,-0.126344,9.919919,0.770830,-0.291386,9.824988,-0.728290,-0.267668,-1.384563,0.999904,-0.006383,-0.002259,-0.012097
3364,0.033769,-0.115630,9.918943,0.720534,-0.233273,6.693790,-0.699377,-0.261495,-1.109182,0.999932,-0.006125,-0.002223,-0.009693
3365,0.031324,-0.105309,9.920442,0.490246,-0.164478,4.005110,-0.668631,-0.254514,-0.930846,0.999947,-0.005853,-0.002174,-0.008136
3366,0.029007,-0.093024,9.919407,0.169986,-0.124664,1.972579,-0.641371,-0.245632,-0.831238,0.999956,-0.005612,-0.002103,-0.007266
3367,0.028700,-0.080051,9.911177,-0.203607,-0.112318,0.657232,-0.618869,-0.236600,-0.787462,0.999960,-0.005415,-0.002028,-0.006883
3368,0.031905,-0.083674,9.917027,-0.700797,-0.104578,-0.017227,-0.610430,-0.230202,-0.776854,0.999961,-0.005340,-0.001973,-0.006790
3369,0.031650,-0.109389,9.918408,-0.967739,-0.101443,-0.229330,-0.629673,-0.226206,-0.780962,0.999960,-0.005508,-0.001936,-0.006826
3370,0.030174,-0.123501,9.918174,-0.651959,-0.099835,-0.265951,-0.664525,-0.222207,-0.789151,0.999958,-0.005812,-0.001899,-0.006898
3371,0.034226,-0.120870,9.917276,-0.148501,-0.092142,-0.241535,-0.686645,-0.219776,-0.797539,0.999956,-0.006005,-0.001876,-0.006971
3372,0.033365,-0.128851,9.926800,0.333615,-0.079891,-0.252216,-0.690336,-0.218864,-0.805708,0.999955,-0.006038,-0.001868,-0.007042
3373,0.028071,-0.123163,9.922472,1.197224,-0.102710,-0.305622,-0.670624,-0.215717,-0.814946,0.999956,-0.005865,-0.001841,-0.007123
3374,0.028163,-0.087893,9.923115,1.954202,-0.125507,-0.383444,-0.607383,-0.211406,-0.826421,0.999958,-0.005314,-0.001807,-0.007221
3375,0.029094,-0.066535,9.929227,2.033872,-0.148316,-0.470422,-0.511868,-0.208860,-0.840704,0.999961,-0.004480,-0.001790,-0.007345
3376,0.022363,-0.049431,9.930390,1.878603,-0.151265,-0.552822,-0.412840,-0.204738,-0.857827,0.999964,-0.003616,-0.001760,-0.007492
3377,0.024549,-0.044144,9.931623,1.262450,-0.137413,-0.554348,-0.331561,-0.198949,-0.876336,0.999965,-0.002907,-0.001714,-0.007652
3379,0.027912,-0.051596,9.938691,0.257025,-0.096129,-0.490259,-0.291755,-0.195351,-0.893766,0.999965,-0.002559,-0.001685,-0.007804
3380,0.028415,-0.091013,9.942527,-0.458800,-0.054871,-0.403280,-0.309962,-0.192723,-0.908594,0.999964,-0.002718,-0.001660,-0.007933
3381,0.031200,-0.086467,9.935940,-0.442366,-0.027366,-0.348346,-0.356541,-0.190837,-0.921008,0.999961,-0.003125,-0.001640,-0.008042
3382,0.035861,-0.108044,9.933062,-0.433590,-0.028895,-0.304093,-0.405250,-0.192086,-0.931762,0.999959,-0.003550,-0.001647,-0.008137
3383,0.035303,-0.090044,9.929033,0.139840,-0.053333,-0.272048,-0.438688,-0.195600,-0.941258,0.999957,-0.003842,-0.001675,-0.008220
3384,0.035755,-0.084127,9.925051,0.316714,-0.059456,-0.244581,-0.443146,-0.199227,-0.949813,0.999957,-0.003881,-0.001706,-0.008295
3385,0.030849,-0.059951,9.917193,0.277080,-0.068602,-0.233899,-0.429484,-0.200656,-0.957784,0.999957,-0.003762,-0.001720,-0.008365
3386,0.029674,-0.064146,9.919713,0.059003,-0.070086,-0.183544,-0.412175,-0.199248,-0.964764,0.999957,-0.003611,-0.001708,-0.008425
3387,0.031166,-0.042355,9.919569,-0.059830,-0.054787,-0.139293,-0.395182,-0.197730,-0.970188,0.999957,-0.003463,-0.001696,-0.008472
3388,0.025999,-0.049440,9.919009,-0.587569,-0.033368,-0.128612,-0.385171,-0.194221,-0.974714,0.999957,-0.003376,-0.001666,-0.008512
3389,0.024703,-0.030635,9.915567,-0.726164,-0.042441,-0.105723,-0.383222,-0.188083,-0.978692,0.999957,-0.003358,-0.001613,-0.008546
3390,0.031409,-0.045473,9.922472,-0.925786,-0.036289,-0.069102,-0.386086,-0.185050,-0.981679,0.999956,-0.003383,-0.001586,-0.008572
3391,0.033578,-0.061851,9.921103,-1.003484,-0.046972,-0.053842,-0.407018,-0.186613,-0.983756,0.999956,-0.003566,-0.001598,-0.008591
3392,0.032081,-0.083177,9.921126,-0.902810,-0.069867,-0.050791,-0.442117,-0.189137,-0.985474,0.999954,-0.003872,-0.001617,-0.008606
3393,0.031255,-0.095972,9.924516,-0.486387,-0.085118,-0.030954,-0.479160,-0.190977,-0.986770,0.999953,-0.004196,-0.001631,-0.008618
3394,0.030957,-0.140971,9.931243,-0.526432,-0.069841,-0.035529,-0.529487,-0.191987,-0.987745,0.999951,-0.004635,-0.001635,-0.008627
3395,0.029832,-0.135537,9.929041,-0.348388,-0.062185,-0.050787,-0.588062,-0.191782,-0.989017,0.999948,-0.005146,-0.001629,-0.008639
3396,0.026363,-0.134798,9.927771,-0.304505,-0.057558,-0.061467,-0.632120,-0.189335,-0.990759,0.999946,-0.005530,-0.001604,-0.008655
3397,0.025921,-0.142221,9.932600,-0.399427,-0.034603,-0.062991,-0.672200,-0.184934,-0.992725,0.999944,-0.005880,-0.001563,-0.008672
3398,0.032214,-0.122481,9.925559,-0.549154,-0.016259,-0.069093,-0.704729,-0.182897,-0.994864,0.999942,-0.006163,-0.001543,-0.008691
3399,0.031815,-0.105767,9.920090,-0.266809,-0.013209,-0.073671,-0.713889,-0.183556,-0.997251,0.999941,-0.006244,-0.001548,-0.008712
3400,0.028991,-0.107580,9.918114,-0.129319,-0.017774,-0.066043,-0.706511,-0.182958,-0.999618,0.999942,-0.006179,-0.001543,-0.008733
3401,0.028413,-0.112918,9.921972,-0.091050,-0.005537,-0.064517,-0.699159,-0.180750,-1.001824,0.999942,-0.006115,-0.001524,-0.008752
3402,0.029731,-0.104340,9.913421,-0.032938,-0.017722,-0.064517,-0.689922,-0.179077,-1.004005,0.999942,-0.006034,-0.001510,-0.008771
3403,0.027389,-0.117356,9.922566,-0.054212,-0.016171,-0.078250,-0.683234,-0.177431,-1.006403,0.999942,-0.005976,-0.001496,-0.008791
3404,0.032218,-0.118553,9.921331,-0.072514,-0.022264,-0.084354,-0.684518,-0.177179,-1.009108,0.999942,-0.005987,-0.001493,-0.008815
3405,0.033253,-0.119783,9.925691,-0.092357,-0.022283,-0.091984,-0.687877,-0.179710,-1.012036,0.999942,-0.006016,-0.001515,-0.008841
3406,0.032133,-0.120305,9.920610,-0.093895,-0.031457,-0.104191,-0.692006,-0.182191,-1.015291,0.999941,-0.006053,-0.001536,-0.008869
3407,0.030303,-0.121017,9.923593,-0.092380,-0.034507,-0.102665,-0.696118,-0.183228,-1.018722,0.999941,-0.006089,-0.001545,-0.008899
3408,0.028787,-0.122569,9.922122,-0.067981,-0.046694,-0.085880,-0.700153,-0.182801,-1.021843,0.999940,-0.006124,-0.001541,-0.008927
3409,0.024439,-0.122520,9.924453,-0.057315,-0.048171,-0.076724,-0.703640,-0.180010,-1.024530,0.999940,-0.006154,-0.001516,-0.008950
3410,0.022388,-0.119895,9.922723,-0.054260,-0.058776,-0.079775,-0.705175,-0.174889,-1.027117,0.999940,-0.006167,-0.001471,-0.008972
3411,0.025928,-0.118760,9.925556,-0.061864,-0.058713,-0.069093,-0.704775,-0.171180,-1.029581,0.999940,-0.006163,-0.001438,-0.008994
3412,0.026517,-0.119091,9.926652,-0.057254,-0.051047,-0.062988,-0.703972,-0.169783,-1.031768,0.999939,-0.006156,-0.001426,-0.009013
3413,0.026248,-0.122607,9.923763,-0.074029,-0.049490,-0.066040,-0.705138,-0.168756,-1.033901,0.999939,-0.006166,-0.001417,-0.009031
3414,0.028984,-0.120580,9.923206,-0.070973,-0.051000,-0.069091,-0.707167,-0.168984,-1.036133,0.999939,-0.006184,-0.001419,-0.009051
3415,0.031634,-0.121808,9.923498,-0.060281,-0.047958,-0.062988,-0.708383,-0.171577,-1.038317,0.999939,-0.006195,-0.001441,-0.009070
3416,0.028250,-0.119547,9.923190,-0.049580,-0.047962,-0.050780,-0.708553,-0.173587,-1.040198,0.999938,-0.006197,-0.001459,-0.009086
3417,0.029521,-0.116032,9.923084,-0.046482,-0.049479,-0.062988,-0.705890,-0.174363,-1.042087,0.999938,-0.006174,-0.001465,-0.009103
3418,0.032852,-0.115494,9.924348,-0.026580,-0.055593,-0.056885,-0.701270,-0.177049,-1.044081,0.999939,-0.006134,-0.001489,-0.009120
3419,0.031394,-0.114472,9.924681,-0.021936,-0.051031,-0.059937,-0.696103,-0.180310,-1.046025,0.999939,-0.006089,-0.001518,-0.009138
3420,0.031481,-0.118558,9.922643,-0.024944,-0.041880,-0.052308,-0.692979,-0.182303,-1.047889,0.999939,-0.006062,-0.001535,-0.009154
3421,0.033635,-0.119093,9.923407,-0.023404,-0.043417,-0.072146,-0.692507,-0.184750,-1.049950,0.999938,-0.006058,-0.001557,-0.009172
3422,0.033508,-0.127704,9.924026,-0.021911,-0.055642,-0.082827,-0.696205,-0.187975,-1.052503,0.999938,-0.006090,-0.001584,-0.009194
3423,0.032323,-0.129235,9.924611,-0.034198,-0.051070,-0.096559,-0.704225,-0.190338,-1.055447,0.999937,-0.006161,-0.001604,-0.009220
3424,0.033590,-0.133521,9.924042,-0.038872,-0.061753,-0.102663,-0.714165,-0.192423,-1.058715,0.999936,-0.006247,-0.001622,-0.009249
3425,0.031610,-0.127634,9.922546,-0.038947,-0.063274,-0.117922,-0.722154,-0.194078,-1.062343,0.999936,-0.006317,-0.001635,-0.009281
3426,0.029110,-0.119194,9.921397,-0.038937,-0.061718,-0.105714,-0.722610,-0.193515,-1.066047,0.999935,-0.006321,-0.001630,-0.009313
3427,0.030730,-0.114742,9.921055,-0.034282,-0.058632,-0.095032,-0.716782,-0.192410,-1.069391,0.999935,-0.006270,-0.001621,-0.009342
3428,0.031186,-0.112296,9.920214,-0.025019,-0.060134,-0.095032,-0.708144,-0.192302,-1.072566,0.999936,-0.006195,-0.001620,-0.009370
3429,0.029890,-0.110366,9.916692,-0.020326,-0.052478,-0.093506,-0.698484,-0.191823,-1.075719,0.999936,-0.006111,-0.001617,-0.009397
3430,0.032466,-0.115547,9.917714,-0.032449,-0.058562,-0.087403,-0.691742,-0.191918,-1.078737,0.999936,-0.006052,-0.001618,-0.009424
3431,0.039994,-0.117357,9.921229,-0.027834,-0.057065,-0.095034,-0.689360,-0.196489,-1.081765,0.999936,-0.006032,-0.001658,-0.009450
3432,0.035332,-0.114678,9.917644,-0.029325,-0.049473,-0.093507,-0.687234,-0.201800,-1.084897,0.999936,-0.006014,-0.001704,-0.009478
3433,0.031437,-0.111024,9.918167,-0.026213,-0.043359,-0.095034,-0.682691,-0.202441,-1.088040,0.999936,-0.005974,-0.001710,-0.009505
3434,0.034141,-0.106035,9.925435,-0.030693,-0.032657,-0.091982,-0.674891,-0.201826,-1.091172,0.999936,-0.005906,-0.001705,-0.009532
3435,0.026740,-0.101047,9.926735,-0.021403,-0.034139,-0.082826,-0.663577,-0.199009,-1.094115,0.999936,-0.005807,-0.001681,-0.009558
3436,0.019899,-0.106663,9.924455,-0.012130,-0.026399,-0.085878,-0.653664,-0.190178,-1.096950,0.999936,-0.005720,-0.001605,-0.009582
3437,0.025266,-0.111749,9.931553,-0.010557,-0.017136,-0.081298,-0.649772,-0.181293,-1.099741,0.999937,-0.005685,-0.001528,-0.009606
3438,0.025432,-0.112809,9.929269,-0.033441,-0.021648,-0.081298,-0.649908,-0.176047,-1.102445,0.999936,-0.005686,-0.001482,-0.009629
3439,0.022190,-0.116162,9.924518,-0.024303,-0.026157,-0.073667,-0.652500,-0.170685,-1.105014,0.999936,-0.005708,-0.001435,-0.009651
3440,0.031139,-0.119845,9.922641,-0.016723,-0.006288,-0.079771,-0.657688,-0.168342,-1.107552,0.999936,-0.005753,-0.001413,-0.009673
3441,0.033916,-0.120611,9.921969,-0.038151,-0.010896,-0.081297,-0.664463,-0.171404,-1.110215,0.999935,-0.005813,-0.001440,-0.009697
3442,0.027857,-0.121792,9.919332,-0.033640,-0.027695,-0.084349,-0.671483,-0.173354,-1.112951,0.999934,-0.005874,-0.001456,-0.009721
3443,0.031199,-0.128253,9.918323,-0.024574,-0.024640,-0.075192,-0.680572,-0.173984,-1.115575,0.999934,-0.005954,-0.001460,-0.009744
3444,0.034044,-0.130379,9.922717,-0.010958,-0.032295,-0.081297,-0.691775,-0.177171,-1.118139,0.999933,-0.006052,-0.001487,-0.009767
3445,0.028184,-0.127896,9.927787,-0.003427,-0.047561,-0.084348,-0.700896,-0.179139,-1.120856,0.999932,-0.006131,-0.001503,-0.009791
3446,0.025915,-0.125863,9.925090,0.016350,-0.053628,-0.072140,-0.706069,-0.177552,-1.123427,0.999932,-0.006176,-0.001489,-0.009813
3447,0.031841,-0.114910,9.927462,0.020943,-0.050557,-0.066036,-0.704146,-0.177566,-1.125712,0.999932,-0.006160,-0.001489,-0.009833
3448,0.028017,-0.115335,9.927032,0.024063,-0.055127,-0.069089,-0.697284,-0.178629,-1.127962,0.999932,-0.006100,-0.001499,-0.009852
3449,0.025701,-0.107501,9.921910,0.011951,-0.056614,-0.062984,-0.688051,-0.177061,-1.130167,0.999932,-0.006019,-0.001486,-0.009871
3450,0.032895,-0.105862,9.920109,0.010552,-0.058126,-0.062985,-0.676181,-0.177700,-1.132279,0.999933,-0.005916,-0.001492,-0.009890
3451,0.033271,-0.104880,9.926500,0.018305,-0.062725,-0.078244,-0.664632,-0.181786,-1.134643,0.999933,-0.005815,-0.001529,-0.009910
3452,0.028893,-0.112678,9.921740,0.024480,-0.059674,-0.085875,-0.657550,-0.183811,-1.137375,0.999933,-0.005754,-0.001547,-0.009934
3453,0.033781,-0.109914,9.920858,0.027562,-0.061196,-0.079771,-0.653917,-0.185581,-1.140121,0.999933,-0.005722,-0.001563,-0.009958
3454,0.032561,-0.111083,9.923491,0.010806,-0.058156,-0.085875,-0.650615,-0.188627,-1.142867,0.999933,-0.005694,-0.001589,-0.009982
3455,0.029201,-0.123282,9.918999,0.004662,-0.056616,-0.075192,-0.654016,-0.189254,-1.145518,0.999932,-0.005724,-0.001594,-0.010006
3456,0.036069,-0.121088,9.914298,-0.003057,-0.055089,-0.075192,-0.662021,-0.191085,-1.147976,0.999932,-0.005794,-0.001610,-0.010027
3457,0.037706,-0.120112,9.916253,-0.001596,-0.059705,-0.066037,-0.667916,-0.196471,-1.150288,0.999931,-0.005846,-0.001656,-0.010048
3458,0.036136,-0.120945,9.917913,-0.007752,-0.056686,-0.069090,-0.672767,-0.201364,-1.152501,0.999931,-0.005888,-0.001698,-0.010067
3459,0.040338,-0.126128,9.914145,-0.000194,-0.039937,-0.066038,-0.679406,-0.206302,-1.154711,0.999930,-0.005947,-0.001740,-0.010087
3460,0.034572,-0.117274,9.914623,-0.010921,-0.049114,-0.090452,-0.683661,-0.209708,-1.157287,0.999929,-0.005984,-0.001770,-0.010110
3461,0.022412,-0.124588,9.917192,-0.018579,-0.036834,-0.079770,-0.686721,-0.204667,-1.160097,0.999929,-0.006010,-0.001725,-0.010134
3462,0.024443,-0.123621,9.916744,-0.044573,-0.027559,-0.079768,-0.692533,-0.194995,-1.162727,0.999929,-0.006060,-0.001640,-0.010157
3463,0.027063,-0.120558,9.914856,-0.035444,-0.027473,-0.081293,-0.696227,-0.188290,-1.165393,0.999928,-0.006092,-0.001581,-0.010180
3464,0.027385,-0.127989,9.916446,-0.026328,-0.048779,-0.076714,-0.700799,-0.184440,-1.167999,0.999928,-0.006132,-0.001547,-0.010202
3465,0.035921,-0.134543,9.921315,-0.014220,-0.038092,-0.064507,-0.710420,-0.185385,-1.170306,0.999927,-0.006216,-0.001554,-0.010222
3466,0.044211,-0.130927,9.916276,-0.012796,-0.045799,-0.062981,-0.720026,-0.193787,-1.172383,0.999926,-0.006300,-0.001627,-0.010241
3467,0.045975,-0.138968,9.926810,-0.008325,-0.048969,-0.069087,-0.729974,-0.206013,-1.174530,0.999925,-0.006388,-0.001732,-0.010261
3468,0.043596,-0.135843,9.930857,-0.009964,-0.039910,-0.078242,-0.740450,-0.216303,-1.176929,0.999924,-0.006481,-0.001821,-0.010282
3469,0.042623,-0.126665,9.931179,-0.017630,-0.023188,-0.079769,-0.744200,-0.223019,-1.179536,0.999924,-0.006514,-0.001879,-0.010306
3470,0.035132,-0.119613,9.928255,-0.019102,-0.021670,-0.087399,-0.740026,-0.224499,-1.182331,0.999924,-0.006478,-0.001892,-0.010330
3471,0.031371,-0.124344,9.927716,-0.020565,-0.026195,-0.091977,-0.734946,-0.220554,-1.185332,0.999924,-0.006433,-0.001858,-0.010356
3472,0.025361,-0.118498,9.914459,-0.005245,-0.035253,-0.090450,-0.729919,-0.212807,-1.188380,0.999924,-0.006389,-0.001791,-0.010382
3473,0.026359,-0.119076,9.912310,-0.017376,-0.044296,-0.073664,-0.723398,-0.204083,-1.191123,0.999924,-0.006331,-0.001715,-0.010405
3474,0.022534,-0.121927,9.914416,-0.017326,-0.065547,-0.079766,-0.719432,-0.195871,-1.193673,0.999924,-0.006296,-0.001644,-0.010427
3475,0.026617,-0.118849,9.910748,-0.006602,-0.073080,-0.066031,-0.715984,-0.189522,-1.196087,0.999925,-0.006265,-0.001589,-0.010448
3476,0.026828,-0.118368,9.912316,-0.005022,-0.069965,-0.062979,-0.711356,-0.186197,-1.198223,0.999925,-0.006224,-0.001560,-0.010466
3477,0.023768,-0.119205,9.917685,-0.011080,-0.054636,-0.064504,-0.707526,-0.182048,-1.200335,0.999925,-0.006191,-0.001524,-0.010484
3478,0.025535,-0.127883,9.920026,0.010275,-0.045411,-0.058399,-0.708158,-0.177481,-1.202360,0.999925,-0.006196,-0.001484,-0.010502
3479,0.029861,-0.125726,9.917088,0.014812,-0.037748,-0.055347,-0.711427,-0.175924,-1.204227,0.999924,-0.006224,-0.001470,-0.010518
3480,0.030502,-0.130473,9.918918,-0.006601,-0.034692,-0.076709,-0.715812,-0.176804,-1.206399,0.999924,-0.006262,-0.001477,-0.010537
3482,0.029081,-0.129006,9.916238,-0.008187,-0.030107,-0.064502,-0.721431,-0.177273,-1.208722,0.999923,-0.006312,-0.001480,-0.010557
3483,0.034703,-0.130280,9.918391,-0.006712,-0.045378,-0.066028,-0.726222,-0.179638,-1.210868,0.999923,-0.006354,-0.001501,-0.010576
3484,0.030299,-0.124657,9.919022,-0.008259,-0.057602,-0.087391,-0.728333,-0.182777,-1.213397,0.999922,-0.006372,-0.001528,-0.010599
3485,0.028949,-0.126517,9.923099,-0.009781,-0.049955,-0.082813,-0.728320,-0.183085,-1.216212,0.999922,-0.006372,-0.001530,-0.010623
3486,0.026475,-0.123059,9.925094,-0.002138,-0.046865,-0.066027,-0.727324,-0.181288,-1.218675,0.999922,-0.006364,-0.001514,-0.010645
3487,0.029837,-0.117507,9.927672,0.004022,-0.043780,-0.076709,-0.722249,-0.179876,-1.221051,0.999922,-0.006319,-0.001502,-0.010665
3488,0.030496,-0.113998,9.928399,0.008694,-0.030036,-0.069079,-0.713510,-0.180162,-1.223492,0.999922,-0.006243,-0.001506,-0.010686
3489,0.030013,-0.111463,9.926095,-0.006453,-0.022397,-0.073657,-0.703374,-0.180253,-1.225891,0.999923,-0.006155,-0.001507,-0.010707
3490,0.029070,-0.110680,9.924148,-0.006341,-0.036114,-0.084339,-0.693488,-0.179808,-1.228544,0.999923,-0.006068,-0.001504,-0.010730
3491,0.032177,-0.113159,9.927343,0.002902,-0.033057,-0.084339,-0.685674,-0.180504,-1.231366,0.999923,-0.006000,-0.001511,-0.010755
3492,0.030309,-0.116802,9.927438,-0.000105,-0.043739,-0.076710,-0.681719,-0.181838,-1.234047,0.999923,-0.005966,-0.001523,-0.010778
3493,0.024560,-0.113561,9.923832,-0.004652,-0.051331,-0.088917,-0.678963,-0.180032,-1.236797,0.999923,-0.005942,-0.001507,-0.010802
3494,0.028872,-0.113477,9.924030,0.006072,-0.055864,-0.082813,-0.675186,-0.177848,-1.239649,0.999923,-0.005909,-0.001488,-0.010827
3495,0.028119,-0.114053,9.927031,0.007632,-0.043632,-0.073657,-0.671891,-0.177368,-1.242247,0.999923,-0.005880,-0.001484,-0.010849
3496,0.027113,-0.115032,9.922797,0.003074,-0.043602,-0.078234,-0.669857,-0.176122,-1.244767,0.999923,-0.005862,-0.001473,-0.010871
3497,0.033595,-0.118034,9.925211,0.003071,-0.040547,-0.084338,-0.670030,-0.177329,-1.247459,0.999922,-0.005864,-0.001484,-0.010895
3498,0.039422,-0.118999,9.920981,0.004572,-0.040604,-0.072131,-0.672045,-0.183821,-1.250044,0.999922,-0.005882,-0.001540,-0.010918
3499,0.035798,-0.119864,9.923810,0.003016,-0.037614,-0.072131,-0.674696,-0.190641,-1.252424,0.999922,-0.005906,-0.001599,-0.010939
3500,0.037771,-0.117079,9.917091,0.010627,-0.048337,-0.066029,-0.676086,-0.195881,-1.254704,0.999921,-0.005918,-0.001645,-0.010959
3501,0.035798,-0.114316,9.918254,0.015217,-0.051421,-0.070608,-0.674594,-0.200455,-1.256965,0.999921,-0.005906,-0.001685,-0.010979
3502,0.029898,-0.113606,9.919351,0.021349,-0.036147,-0.075184,-0.671415,-0.200678,-1.259387,0.999921,-0.005878,-0.001687,-0.011000
3503,0.031721,-0.117398,9.921441,0.018307,-0.034584,-0.081288,-0.669853,-0.198492,-1.261984,0.999921,-0.005864,-0.001668,-0.011023
3504,0.031791,-0.121996,9.912536,0.010642,-0.040660,-0.084340,-0.672495,-0.197359,-1.264718,0.999920,-0.005887,-0.001657,-0.011046
3505,0.032113,-0.119544,9.912777,0.009071,-0.022327,-0.090443,-0.676184,-0.196455,-1.267605,0.999920,-0.005919,-0.001649,-0.011072
3506,0.033071,-0.121722,9.914968,-0.003174,-0.025365,-0.085865,-0.679496,-0.196000,-1.270522,0.999919,-0.005948,-0.001645,-0.011097
3507,0.032904,-0.119275,9.915923,-0.000152,-0.037563,-0.078235,-0.682305,-0.196237,-1.273235,0.999919,-0.005973,-0.001646,-0.011121
3508,0.027447,-0.121834,9.914384,-0.004756,-0.032949,-0.076708,-0.684734,-0.194179,-1.275795,0.999919,-0.005994,-0.001628,-0.011143
3509,0.030868,-0.121510,9.918060,0.005893,-0.025274,-0.081286,-0.687626,-0.191168,-1.278407,0.999918,-0.006019,-0.001601,-0.011166
3510,0.026685,-0.131363,9.918489,0.001242,-0.028282,-0.084337,-0.694124,-0.188126,-1.281134,0.999918,-0.006075,-0.001574,-0.011189
3511,0.026463,-0.130683,9.916556,-0.000394,-0.016014,-0.088914,-0.704005,-0.183479,-1.283981,0.999917,-0.006161,-0.001532,-0.011214
3512,0.028817,-0.132640,9.913109,-0.009654,-0.011394,-0.101120,-0.713423,-0.180062,-1.287113,0.999916,-0.006243,-0.001501,-0.011241
3513,0.032272,-0.132796,9.914739,-0.015853,-0.012910,-0.110276,-0.722576,-0.179722,-1.290603,0.999915,-0.006323,-0.001497,-0.011272
3514,0.029668,-0.122805,9.919368,-0.018939,-0.006805,-0.090437,-0.726196,-0.179946,-1.293935,0.999915,-0.006355,-0.001499,-0.011301
3515,0.034443,-0.121086,9.919088,-0.028062,-0.006814,-0.099593,-0.723964,-0.181010,-1.297108,0.999915,-0.006335,-0.001508,-0.011329
3516,0.037359,-0.124517,9.919752,-0.021931,-0.008385,-0.085861,-0.722417,-0.185333,-1.300203,0.999914,-0.006322,-0.001546,-0.011356
3517,0.036686,-0.120102,9.920573,-0.023429,-0.009962,-0.072128,-0.720644,-0.190268,-1.302840,0.999914,-0.006307,-0.001589,-0.011379
3518,0.032948,-0.118197,9.920259,-0.018795,-0.019139,-0.061447,-0.716328,-0.192772,-1.305077,0.999914,-0.006270,-0.001611,-0.011399
3519,0.033576,-0.128198,9.919692,-0.014206,-0.026770,-0.072128,-0.715827,-0.193652,-1.307297,0.999914,-0.006266,-0.001619,-0.011418
3520,0.033369,-0.126772,9.924505,-0.014240,-0.028296,-0.066025,-0.719302,-0.194607,-1.309578,0.999913,-0.006296,-0.001626,-0.011438
3521,0.034634,-0.123948,9.925486,-0.018827,-0.028300,-0.067551,-0.720758,-0.195900,-1.311789,0.999913,-0.006309,-0.001637,-0.011458
3522,0.034000,-0.124117,9.919569,-0.018821,-0.026779,-0.076706,-0.720798,-0.197281,-1.314183,0.999913,-0.006309,-0.001649,-0.011479
3523,0.035722,-0.125262,9.917555,-0.006613,-0.014580,-0.087388,-0.721132,-0.198720,-1.316910,0.999913,-0.006313,-0.001662,-0.011503
3524,0.034914,-0.125639,9.915733,0.004061,-0.022219,-0.090439,-0.721737,-0.200277,-1.319864,0.999912,-0.006318,-0.001675,-0.011528
3525,0.032911,-0.125579,9.913166,0.010158,-0.023739,-0.087388,-0.722153,-0.200550,-1.322815,0.999912,-0.006322,-0.001677,-0.011554
3526,0.029136,-0.127529,9.910812,0.019298,-0.028282,-0.084336,-0.723086,-0.198288,-1.325661,0.999912,-0.006330,-0.001657,-0.011579
3527,0.030141,-0.130017,9.918549,0.020787,-0.025183,-0.076705,-0.725633,-0.194989,-1.328323,0.999911,-0.006352,-0.001628,-0.011602
3528,0.031855,-0.126014,9.920499,0.022288,-0.035835,-0.072126,-0.727161,-0.193396,-1.330782,0.999911,-0.006365,-0.001614,-0.011623
3529,0.031909,-0.122282,9.921454,0.003994,-0.022085,-0.062971,-0.725298,-0.192878,-1.333026,0.999911,-0.006349,-0.001609,-0.011643
3530,0.033875,-0.127122,9.922948,0.007056,-0.023605,-0.058393,-0.724180,-0.193182,-1.335042,0.999911,-0.006339,-0.001612,-0.011661
3531,0.031408,-0.125517,9.926273,0.025360,-0.017494,-0.072126,-0.724304,-0.193204,-1.337207,0.999910,-0.006340,-0.001612,-0.011679
3532,0.035325,-0.129065,9.924063,0.046705,-0.026649,-0.085860,-0.724675,-0.193884,-1.339825,0.999910,-0.006343,-0.001618,-0.011702
3533,0.030923,-0.135060,9.927732,0.068006,-0.023593,-0.073652,-0.728421,-0.194402,-1.342453,0.999910,-0.006376,-0.001622,-0.011725
3534,0.028274,-0.138861,9.923838,0.081632,-0.031184,-0.078229,-0.735518,-0.191851,-1.344941,0.999909,-0.006438,-0.001599,-0.011747
3535,0.027530,-0.136320,9.923096,0.046432,-0.029604,-0.081280,-0.742734,-0.188092,-1.347555,0.999908,-0.006500,-0.001565,-0.011770
3536,0.028931,-0.135872,9.916733,0.017361,-0.044819,-0.073650,-0.748696,-0.185326,-1.350098,0.999908,-0.006552,-0.001540,-0.011792
3537,0.025086,-0.134438,9.915937,-0.031526,-0.041715,-0.073649,-0.754197,-0.182200,-1.352517,0.999907,-0.006600,-0.001512,-0.011813
3538,0.028382,-0.125793,9.911518,-0.039157,-0.047771,-0.084330,-0.755442,-0.179336,-1.355130,0.999907,-0.006610,-0.001487,-0.011836
3539,0.031199,-0.115943,9.914439,-0.037537,-0.044704,-0.091960,-0.748274,-0.179626,-1.358074,0.999907,-0.006548,-0.001490,-0.011861
3540,0.029054,-0.108419,9.914503,-0.063306,-0.050799,-0.093485,-0.734406,-0.180449,-1.361192,0.999908,-0.006427,-0.001498,-0.011888
3541,0.028489,-0.106192,9.918344,-0.130245,-0.040094,-0.087382,-0.719418,-0.179930,-1.364244,0.999908,-0.006296,-0.001495,-0.011915
3542,0.027847,-0.098901,9.914097,-0.274984,-0.038539,-0.062967,-0.706000,-0.178655,-1.366796,0.999909,-0.006179,-0.001485,-0.011937
3543,0.029066,-0.095940,9.918209,-0.407489,-0.027834,-0.032449,-0.694896,-0.177549,-1.368443,0.999909,-0.006082,-0.001477,-0.011951
3544,0.026338,-0.088782,9.917420,-0.410263,-0.018647,0.008750,-0.683490,-0.175617,-1.368906,0.999910,-0.005982,-0.001461,-0.011955
3545,0.028769,-0.102218,9.920026,-0.397826,-0.012515,0.036217,-0.676327,-0.173514,-1.368213,0.999910,-0.005920,-0.001444,-0.011948
3546,0.026188,-0.105530,9.919384,-0.130656,-0.014014,-0.000406,-0.673143,-0.171570,-1.367648,0.999910,-0.005892,-0.001427,-0.011943
3547,0.025369,-0.112490,9.924929,0.339404,-0.020079,-0.055339,-0.662869,-0.168595,-1.368590,0.999911,-0.005802,-0.001402,-0.011951
3548,0.025667,-0.117483,9.925790,0.685796,-0.041404,-0.119427,-0.645135,-0.166235,-1.371492,0.999911,-0.005647,-0.001383,-0.011976
3549,0.028033,-0.127884,9.929955,0.819988,-0.058168,-0.207931,-0.628121,-0.166084,-1.376905,0.999912,-0.005498,-0.001383,-0.012023
3550,0.027150,-0.119557,9.924737,0.990764,-0.058156,-0.310168,-0.609524,-0.167077,-1.385484,0.999912,-0.005336,-0.001394,-0.012098
3551,0.028496,-0.104172,9.924364,0.934259,-0.070354,-0.380359,-0.581450,-0.168444,-1.396958,0.999912,-0.005092,-0.001408,-0.012198
3552,0.029473,-0.095435,9.922795,0.429210,-0.077982,-0.462759,-0.555793,-0.170992,-1.410993,0.999911,-0.004868,-0.001432,-0.012320
3553,0.026390,-0.101694,9.918175,-0.121650,-0.064236,-0.577204,-0.550709,-0.172269,-1.428302,0.999910,-0.004824,-0.001443,-0.012471
3554,0.028074,-0.116345,9.915467,-0.449852,-0.053531,-0.777100,-0.571657,-0.172308,-1.450819,0.999906,-0.005007,-0.001440,-0.012668
3555,0.027486,-0.109599,9.916405,-0.695678,-0.067244,-1.088388,-0.604389,-0.172874,-1.481848,0.999901,-0.005293,-0.001440,-0.012939
3556,0.036334,-0.138318,9.912776,-1.281847,-0.003175,-2.859986,-0.656393,-0.176541,-1.547579,0.999891,-0.005748,-0.001463,-0.013513
3557,0.040471,-0.150811,9.912398,-1.315715,0.169188,-7.720058,-0.725869,-0.181911,-1.723847,0.999865,-0.006358,-0.001492,-0.015053
3558,0.040977,-0.138908,9.915633,-0.855067,0.285088,-10.955022,-0.777480,-0.184708,-2.035113,0.999818,-0.006812,-0.001491,-0.017769
3559,0.041851,-0.107236,9.915455,-0.674958,0.400988,-14.525687,-0.797049,-0.185374,-2.459918,0.999744,-0.006989,-0.001468,-0.021476
3560,0.042016,-0.147133,9.918202,-0.709988,0.530621,-18.201643,-0.812468,-0.183911,-3.005547,0.999629,-0.007130,-0.001418,-0.026236
3561,0.038205,-0.137970,9.924257,-0.101167,0.561080,-19.069895,-0.826091,-0.179910,-3.626914,0.999472,-0.007255,-0.001341,-0.031656
3562,0.036207,-0.125659,9.926121,0.472654,0.467958,-16.031778,-0.811524,-0.174778,-4.212132,0.999298,-0.007133,-0.001264,-0.036759
3563,0.036804,-0.137553,9.921218,0.486461,0.420612,-14.673704,-0.787358,-0.170829,-4.724057,0.999125,-0.006927,-0.001206,-0.041223
3564,0.035533,-0.171121,9.917418,0.605368,0.358004,-13.242388,-0.778130,-0.168277,-5.189423,0.998950,-0.006850,-0.001160,-0.045280
3565,0.035394,-0.141812,9.914936,0.898195,0.286242,-11.455528,-0.765504,-0.167080,-5.601117,0.998782,-0.006743,-0.001130,-0.048868
3566,0.034887,-0.132851,9.916352,0.574672,0.283146,-12.097944,-0.742250,-0.166707,-5.993757,0.998610,-0.006544,-0.001114,-0.052290
3567,0.033051,-0.132520,9.918729,0.119930,0.321257,-13.849707,-0.730840,-0.165500,-6.426305,0.998406,-0.006449,-0.001084,-0.056059
3568,0.032839,-0.126238,9.918951,-0.015891,0.328857,-14.777471,-0.728949,-0.163483,-6.903514,0.998164,-0.006436,-0.001041,-0.060216
3569,0.034954,-0.111959,9.924740,-0.020417,0.341025,-15.374107,-0.723382,-0.162203,-7.406147,0.997891,-0.006391,-0.001005,-0.064593
3570,0.034369,-0.100650,9.929403,-0.067578,0.382178,-16.297293,-0.710688,-0.160932,-7.934142,0.997583,-0.006284,-0.000972,-0.069190
3571,0.031771,-0.119559,9.928556,0.188879,0.403505,-16.585695,-0.697952,-0.157861,-8.482327,0.997242,-0.006176,-0.000923,-0.073962
3572,0.034393,-0.122681,9.924273,0.730589,0.388206,-16.672672,-0.680528,-0.154889,-9.036742,0.996873,-0.006027,-0.000880,-0.078785
3573,0.036626,-0.109035,9.922234,1.125829,0.412560,-17.634005,-0.645759,-0.153616,-9.608633,0.996469,-0.005728,-0.000864,-0.083759
3574,0.030455,-0.102421,9.919696,1.238813,0.427770,-18.334408,-0.598842,-0.150536,-10.208225,0.996020,-0.005322,-0.000844,-0.088971
3575,0.034721,-0.089312,9.918538,1.657002,0.398732,-18.564819,-0.541274,-0.146945,-10.823329,0.995530,-0.004823,-0.000831,-0.094316
3576,0.040225,-0.033720,9.914532,1.960930,0.357447,-18.073477,-0.455253,-0.147255,-11.434103,0.995017,-0.004081,-0.000883,-0.099620
3577,0.039393,-0.029174,9.918000,1.561532,0.329878,-17.630959,-0.359388,-0.149302,-12.029334,0.994489,-0.003255,-0.000967,-0.104787
3578,0.043094,-0.034182,9.924105,1.082673,0.320609,-17.513464,-0.288536,-0.151909,-12.615191,0.993942,-0.002648,-0.001041,-0.109869
3579,0.050779,-0.025778,9.923260,0.841766,0.331140,-18.456488,-0.237869,-0.157382,-13.214777,0.993355,-0.002220,-0.001125,-0.115068
3580,0.049874,-0.027439,9.921079,0.236110,0.378274,-19.683334,-0.205796,-0.163332,-13.850509,0.992701,-0.001955,-0.001198,-0.120577
3581,0.046821,-0.060644,9.924355,-0.365145,0.426955,-21.332861,-0.209639,-0.165796,-14.534128,0.991964,-0.001998,-0.001204,-0.126497
3582,0.043684,-0.043702,9.925824,-0.366788,0.471087,-23.038843,-0.230226,-0.164609,-15.273645,0.991127,-0.002182,-0.001157,-0.132896
3583,0.037787,-0.036694,9.928954,-0.493455,0.484732,-24.099361,-0.243703,-0.159771,-16.059298,0.990192,-0.002301,-0.001084,-0.139688
3585,0.036041,-0.029297,9.926375,-1.028997,0.538076,-25.582561,-0.261593,-0.152091,-16.887369,0.989157,-0.002453,-0.000978,-0.146840
3586,0.034519,-0.043965,9.929996,-1.193745,0.576165,-26.804831,-0.291750,-0.143118,-17.760534,0.988009,-0.002708,-0.000841,-0.154373
3587,0.034388,-0.051186,9.929528,-1.038098,0.576101,-26.688858,-0.326544,-0.134506,-18.652130,0.986777,-0.003002,-0.000696,-0.162055
3588,0.038744,-0.086147,9.927641,-1.254888,0.591270,-26.971153,-0.372504,-0.128621,-19.546482,0.985481,-0.003394,-0.000554,-0.169752
3589,0.044146,-0.091539,9.924015,-1.142173,0.636913,-28.362801,-0.428761,-0.126763,-20.468727,0.984081,-0.003879,-0.000424,-0.177678
3590,0.044753,-0.111990,9.926966,-0.695311,0.645907,-28.791586,-0.478277,-0.127405,-21.421309,0.982568,-0.004308,-0.000317,-0.185852
3591,0.047764,-0.111477,9.925452,-0.291180,0.635051,-28.816004,-0.514090,-0.130093,-22.381454,0.980975,-0.004621,-0.000243,-0.194079
3592,0.049528,-0.089119,9.922420,0.036791,0.633335,-29.446207,-0.525400,-0.134832,-23.352547,0.979295,-0.004728,-0.000224,-0.202385
3593,0.055471,-0.069794,9.923688,0.261179,0.633122,-29.295147,-0.511210,-0.141717,-24.331663,0.977530,-0.004622,-0.000269,-0.210745
3594,0.053292,-0.069363,9.924732,0.651960,0.596280,-27.836361,-0.480449,-0.149185,-25.283966,0.975746,-0.004376,-0.000353,-0.218861
3595,0.058394,-0.030750,9.923771,0.990975,0.515185,-25.223982,-0.427434,-0.157546,-26.168434,0.974029,-0.003944,-0.000495,-0.226386
3596,0.058199,-0.017598,9.924459,0.849457,0.469178,-23.284534,-0.359094,-0.167226,-26.977074,0.972410,-0.003388,-0.000688,-0.233254
3597,0.062920,-0.018340,9.921896,0.692648,0.435373,-21.508358,-0.298578,-0.177498,-27.723778,0.970871,-0.002901,-0.000880,-0.239585
3598,0.055555,-0.018974,9.917788,0.381635,0.393961,-20.380699,-0.253582,-0.186154,-28.422058,0.969394,-0.002544,-0.001032,-0.245497
3599,0.055776,-0.016187,9.916339,-0.492501,0.395312,-20.061783,-0.233583,-0.191613,-29.096201,0.967933,-0.002393,-0.001106,-0.251195
3600,0.046795,-0.040462,9.914425,-1.470520,0.442482,-20.959030,-0.255019,-0.192702,-29.779940,0.966416,-0.002583,-0.001053,-0.256966
3601,0.047504,-0.076796,9.909100,-2.467067,0.535462,-22.948837,-0.328862,-0.189249,-30.511742,0.964754,-0.003203,-0.000838,-0.263133
3602,0.031098,-0.104684,9.910313,-4.263372,0.744469,-30.795145,-0.464338,-0.178272,-31.407467,0.962663,-0.004322,-0.000401,-0.270667
3603,0.031517,-0.149495,9.908497,-7.106593,1.190042,-40.129227,-0.688431,-0.157671,-32.589577,0.959810,-0.006152,0.000365,-0.280582
3604,0.042410,-0.211468,9.903658,-8.398110,1.186934,-44.093578,-0.995716,-0.143967,-33.993362,0.956282,-0.008677,0.001339,-0.292315
3605,0.045946,-0.267953,9.905058,-7.910495,1.281410,-44.804661,-1.324949,-0.144703,-35.475044,0.952393,-0.011397,0.002320,-0.304650
3606,0.046269,-0.285036,9.907755,-7.004644,1.380442,-45.137314,-1.618921,-0.152546,-36.974247,0.948294,-0.013820,0.003217,-0.317077
3607,0.064260,-0.320763,9.908888,-5.402771,1.409222,-40.889141,-1.853061,-0.168528,-38.408344,0.944220,-0.015754,0.003930,-0.328915
3608,0.065384,-0.318972,9.912399,-2.370897,1.209058,-34.846489,-1.991283,-0.191202,-39.671059,0.940517,-0.016911,0.004327,-0.339297
3609,0.055866,-0.304912,9.918701,-0.402304,1.314133,-32.740719,-2.020043,-0.207462,-40.798187,0.937129,-0.017153,0.004447,-0.348532
3610,0.061403,-0.297131,9.917819,0.145837,1.187309,-32.083054,-1.990262,-0.219044,-41.879383,0.933803,-0.016903,0.004422,-0.357362
3611,0.064270,-0.279502,9.917830,0.311063,1.101670,-31.005754,-1.940228,-0.233741,-42.931618,0.930488,-0.016503,0.004298,-0.365925
3612,0.070525,-0.264945,9.918754,0.169643,1.006858,-28.956450,-1.883771,-0.250241,-43.931709,0.927266,-0.016062,0.004124,-0.374036
3613,0.079451,-0.270523,9.928929,-0.258684,1.105805,-27.157391,-1.839783,-0.266889,-44.867729,0.924185,-0.015728,0.003974,-0.381601
3614,0.084388,-0.269746,9.926607,-0.410898,1.175731,-26.492096,-1.812559,-0.281499,-45.762760,0.921179,-0.015527,0.003887,-0.388811
3615,0.082369,-0.273955,9.929473,-0.554012,1.314331,-26.255590,-1.795259,-0.290975,-46.642860,0.918167,-0.015391,0.003870,-0.395876
3616,0.083381,-0.271591,9.931895,-0.732257,1.314092,-25.828341,-1.786328,-0.295905,-47.511963,0.915139,-0.015307,0.003916,-0.402829
3617,0.079250,-0.275169,9.930864,-0.753352,1.283355,-25.314112,-1.782584,-0.298933,-48.365353,0.912114,-0.015259,0.003993,-0.409633
3618,0.076110,-0.256666,9.922450,-0.345618,1.054277,-24.387882,-1.768429,-0.302626,-49.194645,0.909127,-0.015131,0.004022,-0.416224
3619,0.067907,-0.266795,9.927748,-0.377332,0.976312,-23.208347,-1.746449,-0.305993,-49.988705,0.906224,-0.014941,0.004019,-0.422515
3620,0.073616,-0.241293,9.930924,-0.596700,0.934982,-22.929108,-1.725730,-0.309148,-50.758423,0.903368,-0.014762,0.004017,-0.428594
3621,0.073264,-0.255637,9.927698,-0.567329,0.915000,-22.048655,-1.706998,-0.313827,-51.508804,0.900544,-0.014606,0.004006,-0.434501
3622,0.070876,-0.257189,9.928622,-0.377818,0.891981,-21.249077,-1.692123,-0.316876,-52.231133,0.897789,-0.014476,0.004017,-0.440170
3623,0.070691,-0.284325,9.926393,-0.283040,0.876606,-20.875231,-1.683799,-0.318550,-52.933838,0.895074,-0.014392,0.004060,-0.445668
3624,0.078598,-0.260593,9.919974,-0.221859,0.888672,-21.349798,-1.675313,-0.322519,-53.638206,0.892318,-0.014316,0.004084,-0.451162
3625,0.075477,-0.280705,9.914903,-0.174409,0.905301,-21.804531,-1.664741,-0.327558,-54.358067,0.889467,-0.014229,0.004093,-0.456759
3626,0.077535,-0.279404,9.912166,-0.142300,0.934148,-22.588858,-1.659929,-0.331553,-55.098553,0.886497,-0.014181,0.004134,-0.462498
3627,0.078844,-0.271919,9.913859,-0.107116,0.950781,-23.118359,-1.651831,-0.335908,-55.860950,0.883401,-0.014108,0.004162,-0.468386
3628,0.082411,-0.252071,9.913034,-0.145088,0.941460,-22.845224,-1.635529,-0.341208,-56.627670,0.880249,-0.013977,0.004148,-0.474288
3629,0.081492,-0.267713,9.908836,-0.271563,0.904669,-21.926622,-1.622061,-0.346835,-57.374519,0.877141,-0.013870,0.004140,-0.480016
3630,0.084310,-0.296760,9.908112,-0.282248,0.884663,-21.389503,-1.627195,-0.352723,-58.096985,0.874096,-0.013908,0.004204,-0.485537
3631,0.085949,-0.311505,9.908658,-0.261051,0.925685,-22.198246,-1.646746,-0.359350,-58.823906,0.870995,-0.014058,0.004325,-0.491072
3632,0.082334,-0.326475,9.908025,-0.339132,1.029286,-24.448990,-1.675122,-0.363981,-59.601803,0.867638,-0.014263,0.004509,-0.496972
3633,0.081664,-0.343619,9.904678,-0.395938,1.151219,-27.125465,-1.712970,-0.365713,-60.461842,0.863878,-0.014522,0.004769,-0.503469
3634,0.083491,-0.351920,9.910996,-0.338347,1.268575,-29.780579,-1.754718,-0.366752,-61.410786,0.859674,-0.014799,0.005067,-0.510603
3635,0.082443,-0.314331,9.913661,-0.340111,1.390507,-32.234268,-1.780887,-0.367048,-62.445030,0.855027,-0.014950,0.005317,-0.518340
3636,0.076068,-0.270922,9.914167,-0.317126,1.459061,-33.125412,-1.776220,-0.363545,-63.535286,0.850058,-0.014848,0.005463,-0.526452
3637,0.080913,-0.260798,9.917485,-0.408378,1.404018,-32.357880,-1.754129,-0.359300,-64.627708,0.845004,-0.014612,0.005533,-0.534532
3638,0.081639,-0.252754,9.917480,-0.301211,1.348949,-30.975397,-1.727607,-0.357644,-65.684303,0.840043,-0.014358,0.005554,-0.542302
3639,0.078331,-0.230011,9.916764,0.211934,1.359502,-28.901670,-1.683904,-0.353855,-66.683342,0.835289,-0.013973,0.005497,-0.549607
3640,0.071811,-0.211040,9.918048,0.351333,1.289212,-26.751644,-1.620276,-0.345160,-67.612045,0.830816,-0.013424,0.005364,-0.556360
3641,0.076342,-0.231806,9.915046,0.327384,1.162463,-24.575684,-1.561922,-0.336853,-68.468521,0.826641,-0.012922,0.005238,-0.562556
3642,0.072578,-0.223995,9.910621,0.581030,1.145565,-23.135216,-1.511309,-0.329795,-69.264610,0.822720,-0.012487,0.005127,-0.568287
3643,0.074368,-0.215115,9.910753,0.787365,1.143925,-22.389044,-1.454096,-0.321540,-70.024246,0.818941,-0.012002,0.004982,-0.573730
3644,0.066575,-0.208616,9.912887,0.757168,1.081260,-22.123535,-1.395202,-0.312076,-70.766968,0.815212,-0.011503,0.004830,-0.579028
3645,0.071592,-0.226833,9.906874,0.935910,0.962135,-21.273600,-1.344416,-0.304607,-71.490952,0.811543,-0.011075,0.004696,-0.584169
3646,0.068834,-0.230122,9.910206,1.431896,0.879613,-20.472490,-1.295764,-0.300939,-72.187256,0.807983,-0.010684,0.004539,-0.589091
3647,0.070054,-0.222538,9.909608,1.793554,0.775727,-19.975040,-1.237150,-0.299335,-72.861832,0.804507,-0.010237,0.004310,-0.593839
3648,0.062404,-0.186225,9.914205,1.905054,0.670336,-19.619503,-1.162476,-0.298333,-73.522141,0.801078,-0.009685,0.003986,-0.598468
3649,0.070084,-0.184349,9.911689,1.572563,0.558838,-18.835182,-1.086661,-0.299845,-74.163406,0.797723,-0.009143,0.003630,-0.602944
3650,0.066980,-0.184241,9.919224,0.617409,0.592287,-19.369257,-1.040075,-0.303396,-74.800438,0.794362,-0.008818,0.003409,-0.607371
3651,0.070543,-0.183925,9.921336,-0.179123,0.642524,-20.286341,-1.029228,-0.305549,-75.461609,0.790845,-0.008735,0.003388,-0.611944
3652,0.073519,-0.183743,9.922595,-0.609468,0.700369,-20.478611,-1.041746,-0.308028,-76.141289,0.787201,-0.008814,0.003490,-0.616624
3653,0.077575,-0.204867,9.919704,-0.829309,0.729200,-20.312288,-1.071781,-0.311326,-76.821388,0.783525,-0.009017,0.003682,-0.621284
3654,0.082745,-0.213041,9.918251,-0.933259,0.744268,-20.852467,-1.114271,-0.317130,-77.507706,0.779786,-0.009315,0.003929,-0.625965
3655,0.083561,-0.216656,9.915020,-0.478720,0.731852,-20.840261,-1.150567,-0.324956,-78.202812,0.775971,-0.009580,0.004132,-0.630683
3656,0.083216,-0.208636,9.914392,0.136109,0.733178,-20.702932,-1.163128,-0.332578,-78.895462,0.772143,-0.009682,0.004208,-0.635361
3657,0.087190,-0.184123,9.914046,0.905203,0.702455,-20.834167,-1.139219,-0.340915,-79.588089,0.768290,-0.009542,0.004077,-0.640018
3658,0.086994,-0.156175,9.916990,1.686687,0.686988,-20.455742,-1.072961,-0.349703,-80.276672,0.764435,-0.009125,0.003703,-0.644626
3659,0.086112,-0.123690,9.921477,2.521740,0.636439,-18.823009,-0.965281,-0.356619,-80.931839,0.760745,-0.008428,0.003099,-0.648989
3660,0.090681,-0.106965,9.920798,3.222581,0.567577,-16.483768,-0.826121,-0.363377,-81.520790,0.757408,-0.007531,0.002305,-0.652894
3661,0.092574,-0.081314,9.922339,3.029228,0.484965,-14.971586,-0.678951,-0.371694,-82.045532,0.754419,-0.006599,0.001442,-0.656358
3662,0.078013,-0.097514,9.925608,2.078873,0.410038,-13.152686,-0.564168,-0.375902,-82.514618,0.751732,-0.005864,0.000781,-0.659442
3663,0.077374,-0.111147,9.925025,1.119090,0.313812,-11.736629,-0.505982,-0.376158,-82.929558,0.749342,-0.005482,0.000464,-0.662160
3664,0.077301,-0.115217,9.925756,0.246113,0.274050,-11.309369,-0.494003,-0.377672,-83.313637,0.747119,-0.005411,0.000403,-0.664668
3665,0.074250,-0.120739,9.926678,-0.642201,0.241929,-11.399397,-0.518462,-0.379248,-83.692055,0.744919,-0.005578,0.000553,-0.667132
3666,0.071451,-0.148051,9.922956,-1.361250,0.189996,-11.756462,-0.579623,-0.380508,-84.077843,0.742665,-0.005980,0.000921,-0.669635
3667,0.081070,-0.164181,9.920034,-1.550905,0.199075,-12.964994,-0.665054,-0.385332,-84.489639,0.740249,-0.006557,0.001413,-0.672299
3668,0.078849,-0.161649,9.922037,-1.403288,0.282903,-14.011777,-0.747059,-0.391705,-84.939079,0.737601,-0.007117,0.001880,-0.675196
3669,0.080140,-0.172245,9.917626,-1.428026,0.307229,-14.936484,-0.819972,-0.396384,-85.421425,0.734748,-0.007604,0.002312,-0.678294
3670,0.087729,-0.164202,9.915456,-1.071193,0.346790,-15.816943,-0.879236,-0.403297,-85.933922,0.731702,-0.008013,0.002654,-0.681572
3671,0.088938,-0.146209,9.922184,-0.308290,0.426000,-15.455301,-0.903794,-0.410909,-86.455238,0.728592,-0.008203,0.002789,-0.684893
3672,0.081425,-0.148277,9.930005,0.059510,0.453361,-14.483289,-0.899665,-0.413567,-86.954422,0.725602,-0.008180,0.002783,-0.688061
3673,0.093196,-0.163901,9.927002,0.003052,0.402891,-13.885127,-0.895086,-0.416987,-87.427399,0.722756,-0.008160,0.002768,-0.691050
3674,0.093364,-0.168660,9.928342,0.497374,0.419522,-13.270184,-0.890409,-0.424181,-87.880104,0.720020,-0.008164,0.002726,-0.693900
3675,0.085891,-0.155952,9.935527,0.817764,0.393462,-12.066230,-0.870243,-0.427952,-88.302498,0.717458,-0.008050,0.002610,-0.696550
3676,0.090913,-0.147528,9.928007,0.720111,0.329268,-10.950779,-0.841175,-0.431052,-88.686272,0.715123,-0.007879,0.002441,-0.698950
3677,0.100206,-0.120392,9.921846,0.698852,0.289441,-10.311420,-0.805554,-0.439567,-89.040825,0.712959,-0.007702,0.002194,-0.701160
3678,0.097029,-0.100773,9.923430,0.728075,0.254178,-9.614077,-0.758392,-0.450112,-89.373199,0.710925,-0.007467,0.001861,-0.703226
3679,0.093513,-0.133301,9.924889,0.093423,0.214372,-9.197501,-0.730255,-0.458195,-89.686905,0.708998,-0.007338,0.001659,-0.705170
3680,0.096416,-0.151059,9.923778,-0.680316,0.218832,-11.153738,-0.745904,-0.465955,-90.026093,0.706906,-0.007477,0.001729,-0.707266
3682,0.091866,-0.152189,9.924541,-0.726266,0.233990,-11.356687,-0.781712,-0.472590,-90.401215,0.704584,-0.007733,0.001935,-0.709575
3683,0.092922,-0.160884,9.926388,-0.509760,0.204917,-10.145101,-0.815064,-0.477468,-90.759521,0.702360,-0.007962,0.002136,-0.711775
3684,0.087723,-0.157378,9.926044,-0.195569,0.185022,-8.739723,-0.837694,-0.480711,-91.074226,0.700400,-0.008114,0.002279,-0.713700
3685,0.089290,-0.129670,9.923116,-0.067393,0.163620,-7.934034,-0.839982,-0.482538,-91.352180,0.698667,-0.008134,0.002302,-0.715397
3686,0.087119,-0.117163,9.920035,0.314245,0.151377,-6.215845,-0.819684,-0.483805,-91.588188,0.697193,-0.008014,0.002184,-0.716835
3687,0.087596,-0.110737,9.922318,0.500623,0.116254,-5.423892,-0.785138,-0.484443,-91.782410,0.695980,-0.007804,0.001977,-0.718016
3688,0.085844,-0.103800,9.920584,0.508520,0.096394,-4.723495,-0.742822,-0.485232,-91.951775,0.694921,-0.007550,0.001718,-0.719045
3689,0.085860,-0.096814,9.920929,0.235687,0.070436,-4.222994,-0.701451,-0.485969,-92.101151,0.693985,-0.007301,0.001464,-0.719951
3690,0.086256,-0.081914,9.920419,0.028504,0.026165,-3.144168,-0.665099,-0.487533,-92.224220,0.693214,-0.007090,0.001234,-0.720696
3691,0.083701,-0.126734,9.925538,-0.499331,-0.048612,-1.865444,-0.660090,-0.489452,-92.307800,0.692688,-0.007071,0.001196,-0.721202
3692,0.079699,-0.257055,9.957461,-0.556528,0.029240,-2.958000,-0.743384,-0.488116,-92.387611,0.692180,-0.007565,0.001733,-0.721683
3693,0.076713,-0.219897,9.953465,-0.113601,0.087290,-3.923900,-0.854149,-0.481965,-92.501488,0.691456,-0.008192,0.002476,-0.722368
3694,0.074471,-0.234809,9.957436,-0.332658,0.079743,-4.218396,-0.936873,-0.473765,-92.636589,0.690598,-0.008636,0.003057,-0.723181
3695,0.073904,-0.229692,9.958498,-0.061777,0.070672,-3.994077,-1.008408,-0.465912,-92.772934,0.689732,-0.009014,0.003567,-0.724000
3696,0.072736,-0.146217,9.949123,0.891744,0.095167,-3.186860,-1.009959,-0.458068,-92.892525,0.688977,-0.008970,0.003633,-0.724719
3697,0.080413,-0.029041,9.924769,0.268481,-0.023821,-1.035311,-0.914410,-0.454964,-92.963501,0.688535,-0.008374,0.003053,-0.725148
3698,0.099204,-0.143566,9.922606,-1.717500,-0.356576,0.193051,-0.868865,-0.470792,-92.977997,0.688446,-0.008200,0.002670,-0.725237
3699,0.066961,-0.046101,9.935289,0.263724,-0.092619,0.559268,-0.841561,-0.480579,-92.965767,0.688524,-0.008098,0.002438,-0.725164
3700,0.053604,-0.018935,9.945708,0.298408,-0.072567,0.428032,-0.732166,-0.463882,-92.950089,0.688632,-0.007335,0.001845,-0.725072
3701,0.058739,0.048270,9.939259,-0.168600,-0.067742,0.289164,-0.599384,-0.443810,-92.939133,0.688711,-0.006410,0.001125,-0.725007
3702,0.057115,0.058847,9.924744,0.182461,-0.047706,0.206754,-0.453007,-0.427714,-92.931953,0.688764,-0.005429,0.000295,-0.724965
3703,0.039564,0.133381,9.930036,1.504189,0.218066,0.009899,-0.262806,-0.401346,-92.929543,0.688789,-0.004119,-0.000750,-0.724950
3704,0.072162,0.039855,9.913734,-0.328545,-0.033558,-0.011474,-0.114540,-0.384497,-92.930458,0.688788,-0.003121,-0.001587,-0.724954
3705,0.086950,-0.003694,9.903258,-0.340263,-0.042825,-0.040470,-0.081708,-0.395841,-92.931633,0.688781,-0.002995,-0.001862,-0.724961
3706,0.087221,-0.109293,9.913391,-0.174318,-0.043014,-0.057253,-0.124530,-0.414283,-92.933022,0.688771,-0.003369,-0.001702,-0.724969
3707,0.082607,-0.121777,9.921651,-0.027243,-0.046209,-0.061825,-0.212519,-0.428598,-92.934372,0.688759,-0.003989,-0.001232,-0.724979
3708,0.080711,-0.123442,9.921741,-0.022040,-0.053921,-0.060292,-0.294246,-0.437790,-92.935791,0.688747,-0.004538,-0.000770,-0.724988
3709,0.078677,-0.124754,9.922791,-0.025862,-0.066174,-0.069443,-0.364504,-0.443848,-92.937424,0.688733,-0.004999,-0.000362,-0.724998
3710,0.078771,-0.115782,9.924097,-0.006634,-0.066197,-0.072490,-0.419776,-0.448122,-92.939346,0.688718,-0.005358,-0.000038,-0.725009
3711,0.078922,-0.116025,9.922173,-0.002517,-0.060109,-0.084694,-0.461465,-0.451632,-92.941612,0.688702,-0.005631,0.000205,-0.725023
3712,0.078601,-0.108132,9.919979,0.004768,-0.046384,-0.081639,-0.492399,-0.454172,-92.944130,0.688684,-0.005833,0.000386,-0.725038
3713,0.084378,-0.099422,9.918136,0.024400,-0.037258,-0.077060,-0.510266,-0.458255,-92.946617,0.688667,-0.005966,0.000474,-0.725053
3714,0.087097,-0.103340,9.916266,0.022734,-0.034271,-0.069430,-0.522116,-0.465333,-92.948936,0.688652,-0.006082,0.000507,-0.725067
3715,0.086163,-0.107531,9.918669,0.013423,-0.041965,-0.067904,-0.535432,-0.472422,-92.951111,0.688637,-0.006207,0.000549,-0.725080
3716,0.087383,-0.106189,9.924352,0.017854,-0.048122,-0.061799,-0.548139,-0.478771,-92.953148,0.688623,-0.006324,0.000591,-0.725092
3717,0.091483,-0.110977,9.927450,0.002454,-0.061923,-0.067902,-0.560527,-0.486716,-92.955185,0.688609,-0.006448,0.000622,-0.725104
3718,0.086133,-0.115493,9.928809,-0.011446,-0.069603,-0.069426,-0.575526,-0.493389,-92.957329,0.688594,-0.006581,0.000677,-0.725117
3719,0.088685,-0.115808,9.926688,-0.000931,-0.072679,-0.063322,-0.590623,-0.497938,-92.959396,0.688580,-0.006700,0.000745,-0.725129
3720,0.092229,-0.110283,9.924811,0.000480,-0.063567,-0.064848,-0.601028,-0.504198,-92.961418,0.688566,-0.006802,0.000774,-0.725141
3721,0.090646,-0.107180,9.923450,-0.022461,-0.065138,-0.052640,-0.606162,-0.510381,-92.963318,0.688553,-0.006872,0.000769,-0.725153
3722,0.086283,-0.101577,9.921188,-0.011780,-0.062091,-0.061795,-0.606582,-0.513047,-92.965195,0.688541,-0.006892,0.000756,-0.725164
3723,0.090544,-0.097308,9.920774,-0.013252,-0.052934,-0.069425,-0.602166,-0.514815,-92.967407,0.688527,-0.006876,0.000717,-0.725177
3724,0.093094,-0.100743,9.921912,-0.020827,-0.051436,-0.072478,-0.597835,-0.519021,-92.969780,0.688512,-0.006877,0.000665,-0.725192
3725,0.090020,-0.103827,9.921985,-0.023863,-0.051455,-0.070953,-0.597154,-0.522523,-92.972176,0.688497,-0.006895,0.000640,-0.725206
3726,0.089847,-0.105828,9.919214,-0.002513,-0.051453,-0.069427,-0.598759,-0.524051,-92.974495,0.688482,-0.006914,0.000641,-0.725220
3727,0.096285,-0.110832,9.918259,-0.008663,-0.045373,-0.055693,-0.603094,-0.527826,-92.976517,0.688469,-0.006964,0.000646,-0.725232
3728,0.092777,-0.112039,9.921692,0.001947,-0.048458,-0.048063,-0.609592,-0.532409,-92.978172,0.688458,-0.007032,0.000659,-0.725242
3729,0.089175,-0.102684,9.921244,0.015658,-0.048450,-0.058744,-0.611327,-0.533326,-92.979919,0.688446,-0.007048,0.000665,-0.725253
3730,0.091269,-0.099146,9.922236,0.017229,-0.034696,-0.063322,-0.606603,-0.532948,-92.981987,0.688434,-0.007017,0.000637,-0.725265
3731,0.091772,-0.101806,9.923216,0.005070,-0.028585,-0.074004,-0.601887,-0.533319,-92.984299,0.688419,-0.006991,0.000605,-0.725279
3732,0.088835,-0.099868,9.925569,0.003581,-0.036194,-0.077056,-0.598404,-0.532650,-92.986839,0.688404,-0.006966,0.000587,-0.725294
3733,0.091176,-0.105287,9.926467,-0.010139,-0.040750,-0.084686,-0.597279,-0.531937,-92.989532,0.688387,-0.006955,0.000585,-0.725311
3734,0.092460,-0.111199,9.926384,-0.025443,-0.034642,-0.089264,-0.601883,-0.532869,-92.992378,0.688368,-0.006989,0.000609,-0.725328
3735,0.092565,-0.109456,9.925659,-0.022453,-0.049904,-0.078581,-0.608240,-0.534542,-92.995110,0.688350,-0.007037,0.000639,-0.725344
3736,0.094798,-0.116270,9.927161,-0.021004,-0.049916,-0.083158,-0.615893,-0.537281,-92.997734,0.688333,-0.007101,0.000671,-0.725360
3737,0.092523,-0.119378,9.921584,-0.024169,-0.046872,-0.083157,-0.626840,-0.539638,-93.000389,0.688316,-0.007181,0.000726,-0.725376
3738,0.090095,-0.117675,9.922018,-0.018172,-0.043801,-0.080104,-0.636979,-0.539495,-93.002998,0.688298,-0.007241,0.000792,-0.725391
3739,0.089095,-0.108369,9.924148,-0.018206,-0.048342,-0.070947,-0.640660,-0.537715,-93.005470,0.688283,-0.007252,0.000826,-0.725406
3740,0.087526,-0.115271,9.923292,-0.016691,-0.048294,-0.064844,-0.642234,-0.535033,-93.007698,0.688269,-0.007245,0.000852,-0.725419
3741,0.083179,-0.111871,9.922121,-0.009085,-0.052799,-0.058739,-0.644791,-0.530205,-93.009727,0.688256,-0.007229,0.000897,-0.725431
3742,0.085670,-0.106320,9.926973,-0.007536,-0.058827,-0.063316,-0.642993,-0.525298,-93.011757,0.688243,-0.007187,0.000915,-0.725444
3743,0.086994,-0.109361,9.921100,-0.016657,-0.064882,-0.054160,-0.640183,-0.522977,-93.013725,0.688231,-0.007156,0.000912,-0.725455
3744,0.085550,-0.116032,9.919642,-0.015146,-0.063313,-0.061789,-0.642086,-0.521249,-93.015625,0.688219,-0.007156,0.000934,-0.725467
3745,0.083678,-0.110715,9.919597,-0.019746,-0.061731,-0.069418,-0.644701,-0.518343,-93.017769,0.688206,-0.007154,0.000968,-0.725480
3746,0.084509,-0.099541,9.917417,-0.025790,-0.061675,-0.066366,-0.640020,-0.515317,-93.020050,0.688192,-0.007106,0.000957,-0.725493
3747,0.088528,-0.104813,9.918223,-0.021125,-0.057068,-0.069419,-0.632966,-0.514764,-93.022369,0.688178,-0.007060,0.000916,-0.725507
3748,0.087365,-0.101326,9.920726,-0.004271,-0.050953,-0.086204,-0.627190,-0.515529,-93.025009,0.688161,-0.007031,0.000875,-0.725523
3749,0.089240,-0.097455,9.919907,0.003451,-0.049419,-0.080101,-0.618770,-0.516454,-93.027832,0.688144,-0.006986,0.000816,-0.725540
3750,0.090890,-0.102554,9.918503,0.008105,-0.052478,-0.086206,-0.611751,-0.518813,-93.030647,0.688126,-0.006959,0.000758,-0.725557
3751,0.086628,-0.108902,9.921091,0.018793,-0.057046,-0.087731,-0.610584,-0.519917,-93.033524,0.688108,-0.006959,0.000744,-0.725575
3752,0.083664,-0.099207,9.917521,0.015760,-0.049371,-0.086205,-0.608459,-0.517584,-93.036423,0.688090,-0.006931,0.000745,-0.725592
3753,0.089030,-0.095509,9.915802,0.015838,-0.056967,-0.080102,-0.600853,-0.516401,-93.039238,0.688073,-0.006878,0.000704,-0.725609
3754,0.088204,-0.097958,9.917358,0.020492,-0.053908,-0.081628,-0.593358,-0.517523,-93.041977,0.688056,-0.006840,0.000650,-0.725625
3755,0.091087,-0.094380,9.921862,0.026665,-0.047805,-0.084681,-0.586300,-0.519366,-93.044792,0.688038,-0.006809,0.000594,-0.725642
3756,0.096818,-0.093336,9.922445,0.013012,-0.046319,-0.086208,-0.578434,-0.524570,-93.047676,0.688020,-0.006795,0.000513,-0.725660
3757,0.095832,-0.102184,9.924737,0.009990,-0.049428,-0.086209,-0.575331,-0.531316,-93.050560,0.688001,-0.006819,0.000453,-0.725677
3758,0.090702,-0.106801,9.927668,0.003842,-0.043341,-0.083157,-0.579011,-0.534445,-93.053337,0.687984,-0.006861,0.000458,-0.725694
3759,0.090566,-0.107143,9.929112,-0.008432,-0.052480,-0.081630,-0.585082,-0.534587,-93.056015,0.687966,-0.006898,0.000496,-0.725710
3760,0.088283,-0.106952,9.929311,-0.006966,-0.060079,-0.063318,-0.590662,-0.533707,-93.058357,0.687951,-0.006926,0.000536,-0.725724
3761,0.088922,-0.102740,9.930758,0.003687,-0.060041,-0.061791,-0.593257,-0.532287,-93.060402,0.687938,-0.006933,0.000562,-0.725736
3762,0.084722,-0.102587,9.930923,0.008265,-0.066091,-0.063316,-0.593089,-0.529592,-93.062469,0.687925,-0.006915,0.000577,-0.725748
3763,0.082693,-0.098699,9.926418,0.005233,-0.066011,-0.063316,-0.590983,-0.524627,-93.064560,0.687912,-0.006871,0.000593,-0.725761
3764,0.079524,-0.097058,9.919971,0.012908,-0.065913,-0.064841,-0.586624,-0.518023,-93.066711,0.687899,-0.006803,0.000606,-0.725774
3765,0.079874,-0.098088,9.921666,0.009899,-0.061233,-0.080100,-0.582426,-0.511006,-93.069145,0.687885,-0.006733,0.000621,-0.725789
3766,0.079214,-0.107434,9.918302,0.000727,-0.070298,-0.089255,-0.583572,-0.504959,-93.071922,0.687867,-0.006701,0.000665,-0.725805
3767,0.080889,-0.104627,9.915675,-0.010002,-0.070222,-0.087727,-0.588137,-0.500503,-93.074814,0.687849,-0.006701,0.000721,-0.725823
3768,0.082580,-0.108877,9.919090,-0.003950,-0.071697,-0.095355,-0.592972,-0.498315,-93.077805,0.687830,-0.006716,0.000765,-0.725840
3769,0.085175,-0.111812,9.925049,-0.017761,-0.067094,-0.095354,-0.600298,-0.498397,-93.080894,0.687810,-0.006760,0.000811,-0.725859
3770,0.079744,-0.110685,9.917958,-0.019364,-0.059427,-0.090775,-0.607758,-0.497207,-93.083916,0.687790,-0.006797,0.000865,-0.725877
3771,0.078766,-0.109769,9.918421,-0.020943,-0.047153,-0.084671,-0.613311,-0.493015,-93.086777,0.687772,-0.006804,0.000926,-0.725894
3772,0.078013,-0.115489,9.918059,-0.014907,-0.051659,-0.086196,-0.619895,-0.488346,-93.089561,0.687754,-0.006814,0.000996,-0.725911
3773,0.080418,-0.114638,9.916655,-0.011936,-0.050078,-0.080091,-0.627538,-0.485112,-93.092247,0.687737,-0.006839,0.001064,-0.725927
3774,0.078954,-0.115405,9.910725,-0.004373,-0.048509,-0.081615,-0.633940,-0.482850,-93.094872,0.687720,-0.006864,0.001118,-0.725942
3775,0.082617,-0.115194,9.914285,-0.015115,-0.050006,-0.083141,-0.639594,-0.481962,-93.097557,0.687703,-0.006892,0.001159,-0.725959
3776,0.079090,-0.110845,9.913487,0.004694,-0.056085,-0.072459,-0.642203,-0.481484,-93.100113,0.687687,-0.006904,0.001179,-0.725974
3777,0.081912,-0.108799,9.915341,0.023016,-0.056057,-0.075510,-0.640782,-0.480899,-93.102562,0.687671,-0.006892,0.001174,-0.725989
3778,0.083162,-0.114464,9.917426,0.024536,-0.062154,-0.081614,-0.640489,-0.482247,-93.105164,0.687655,-0.006899,0.001164,-0.726004
3779,0.083552,-0.112679,9.922008,0.022984,-0.069784,-0.081613,-0.641972,-0.484453,-93.107834,0.687638,-0.006922,0.001160,-0.726020
3780,0.085957,-0.114256,9.923019,0.035168,-0.071320,-0.073985,-0.643072,-0.487735,-93.110374,0.687621,-0.006949,0.001148,-0.726035
3781,0.088140,-0.119081,9.926083,0.021384,-0.069821,-0.083139,-0.646755,-0.492577,-93.112930,0.687604,-0.007002,0.001142,-0.726051
3782,0.087780,-0.114637,9.930162,0.019809,-0.057642,-0.077035,-0.650465,-0.497344,-93.115540,0.687587,-0.007054,0.001137,-0.726066
3783,0.086995,-0.108494,9.928688,0.025921,-0.048502,-0.084666,-0.648948,-0.500530,-93.118217,0.687570,-0.007065,0.001108,-0.726083
3785,0.085294,-0.115740,9.929036,0.022873,-0.046973,-0.080088,-0.647699,-0.501872,-93.120949,0.687553,-0.007066,0.001093,-0.726099
3786,0.080537,-0.116888,9.927506,0.019784,-0.045410,-0.089243,-0.650397,-0.500032,-93.123726,0.687535,-0.007071,0.001121,-0.726116
3787,0.084216,-0.116338,9.929621,0.016692,-0.042315,-0.084664,-0.653345,-0.497684,-93.126572,0.687517,-0.007074,0.001154,-0.726133
3788,0.082726,-0.117787,9.926223,0.004445,-0.043812,-0.078559,-0.656522,-0.496574,-93.129234,0.687500,-0.007086,0.001181,-0.726149
3789,0.080551,-0.116779,9.926422,-0.003220,-0.046821,-0.069403,-0.659781,-0.494221,-93.131668,0.687485,-0.007090,0.001216,-0.726163
3790,0.081982,-0.116633,9.926809,-0.003246,-0.037621,-0.070928,-0.662185,-0.491699,-93.133972,0.687470,-0.007089,0.001246,-0.726177
3791,0.081903,-0.113534,9.920775,-0.003252,-0.054373,-0.061772,-0.662789,-0.490272,-93.136169,0.687456,-0.007083,0.001259,-0.726190
3792,0.084606,-0.115132,9.917695,0.004381,-0.049779,-0.051090,-0.662438,-0.490510,-93.138016,0.687445,-0.007083,0.001255,-0.726201
3793,0.087879,-0.120751,9.920780,0.011980,-0.048266,-0.055668,-0.664942,-0.493322,-93.139763,0.687433,-0.007115,0.001254,-0.726212
3794,0.091653,-0.117645,9.922047,-0.004846,-0.052887,-0.055668,-0.668503,-0.498994,-93.141571,0.687421,-0.007173,0.001243,-0.726222
