seq,ax,ay,az,wroll,wpitch,wyaw,roll,pitch,yaw,q0,q1,q2,q3
69,0.007384,-0.062838,9.925945,-0.028204,0.008208,1.290412,-0.362715,-0.042622,0.000270,0.999995,-0.003165,-0.000372,0.000001
71,0.008452,-0.071428,9.928542,-0.485977,-0.016171,-0.026392,-0.371300,-0.042620,0.021337,0.999995,-0.003240,-0.000373,0.000185
72,0.009231,-0.065373,9.926735,-0.025501,-0.052099,-0.022439,-0.379825,-0.043761,0.020531,0.999994,-0.003315,-0.000382,0.000178
73,0.007607,-0.065255,9.931285,0.056068,0.050191,-0.017249,-0.379315,-0.043798,0.019870,0.999994,-0.003310,-0.000383,0.000172
74,0.005204,-0.062408,9.928824,0.220437,0.184538,-0.008820,-0.374706,-0.039888,0.019409,0.999995,-0.003270,-0.000349,0.000168
75,0.010028,-0.056839,9.929744,0.518942,-0.142024,-0.008035,-0.362383,-0.039182,0.019124,0.999995,-0.003162,-0.000342,0.000166
76,0.009344,-0.054097,9.924422,0.562995,-0.105359,-0.012387,-0.344350,-0.043307,0.018809,0.999995,-0.003005,-0.000378,0.000163
78,0.010983,-0.053468,9.926620,0.413619,-0.172347,-0.020219,-0.328073,-0.047938,0.018293,0.999996,-0.002863,-0.000419,0.000158
79,0.006967,-0.056001,9.924866,0.099525,0.116363,-0.025969,-0.319520,-0.048876,0.017529,0.999996,-0.002788,-0.000427,0.000152
80,0.010077,-0.053050,9.922384,0.182070,-0.034106,-0.031580,-0.314826,-0.047510,0.016562,0.999996,-0.002747,-0.000415,0.000143
81,0.005410,-0.058056,9.918334,-0.159880,0.224650,-0.026833,-0.314455,-0.044340,0.015571,0.999996,-0.002744,-0.000387,0.000135
82,0.007565,-0.061135,9.921634,-0.350992,0.059462,-0.021459,-0.322969,-0.039609,0.014739,0.999996,-0.002818,-0.000346,0.000128
83,0.004556,-0.065869,9.918697,-0.531256,0.193477,-0.009965,-0.337673,-0.035397,0.014191,0.999996,-0.002947,-0.000309,0.000123
85,0.006011,-0.064925,9.916553,-0.318357,0.048931,-0.009315,-0.351833,-0.031358,0.013846,0.999995,-0.003070,-0.000274,0.000120
86,0.004321,-0.063449,9.915915,-0.090225,0.086343,-0.013690,-0.358642,-0.029106,0.013448,0.999995,-0.003130,-0.000254,0.000117
87,0.001369,-0.063351,9.921165,-0.028278,0.232921,-0.032637,-0.360617,-0.023790,0.012643,0.999995,-0.003147,-0.000208,0.000110
88,0.001684,-0.061588,9.922612,0.112108,0.169238,-0.039240,-0.359220,-0.017095,0.011403,0.999995,-0.003135,-0.000149,0.000099
89,-0.000274,-0.061374,9.925228,0.103799,0.221466,-0.042000,-0.355621,-0.010592,0.010008,0.999995,-0.003103,-0.000093,0.000087
90,0.002979,-0.066406,9.929154,-0.222686,-0.028217,-0.038936,-0.357602,-0.007380,0.008639,0.999995,-0.003121,-0.000065,0.000075
92,0.002581,-0.065585,9.931074,-0.153275,-0.029725,-0.032917,-0.363868,-0.008353,0.007448,0.999995,-0.003175,-0.000073,0.000065
93,0.009117,-0.062082,9.931546,0.132998,-0.395545,-0.032241,-0.364206,-0.015447,0.006407,0.999995,-0.003178,-0.000135,0.000055
94,0.008129,-0.066769,9.929852,-0.154514,-0.273838,-0.031366,-0.364564,-0.026610,0.005418,0.999995,-0.003181,-0.000232,0.000047
95,0.008194,-0.065815,9.932743,-0.096333,-0.173489,-0.026090,-0.368744,-0.034072,0.004508,0.999995,-0.003218,-0.000297,0.000038
96,0.007296,-0.067597,9.930200,-0.156815,-0.048731,-0.028288,-0.372963,-0.037781,0.003626,0.999995,-0.003255,-0.000330,0.000031
97,0.005766,-0.069720,9.930297,-0.249318,0.087320,-0.033514,-0.379731,-0.037145,0.002591,0.999994,-0.003314,-0.000324,0.000022
99,0.005247,-0.066127,9.929557,0.005520,0.113938,-0.035059,-0.383793,-0.033798,0.001426,0.999994,-0.003349,-0.000295,0.000011
100,0.010537,-0.053086,9.932396,0.811747,-0.230704,-0.046948,-0.370171,-0.035753,0.000072,0.999995,-0.003230,-0.000312,-0.000000
101,0.009893,-0.056141,9.930100,0.491006,-0.172644,-0.063135,-0.348458,-0.042487,-0.001720,0.999995,-0.003041,-0.000371,-0.000016
102,0.009598,-0.049008,9.935382,0.680898,-0.081913,-0.067317,-0.328924,-0.046743,-0.003869,0.999996,-0.002870,-0.000408,-0.000035
103,0.011383,-0.057465,9.936277,0.013478,-0.149886,-0.067111,-0.317349,-0.050618,-0.006088,0.999996,-0.002769,-0.000442,-0.000054
104,0.009638,-0.059258,9.934321,-0.198718,-0.003005,-0.056950,-0.320435,-0.053178,-0.008141,0.999996,-0.002796,-0.000464,-0.000072
106,0.006477,-0.069009,9.930188,-0.733474,0.218479,-0.038500,-0.335970,-0.049596,-0.009752,0.999996,-0.002932,-0.000433,-0.000086
107,0.008477,-0.064561,9.928407,-0.313082,0.067191,-0.035171,-0.353412,-0.044843,-0.011009,0.999995,-0.003084,-0.000391,-0.000097
108,0.009769,-0.066548,9.923735,-0.256707,-0.047542,-0.032947,-0.362907,-0.044522,-0.012146,0.999995,-0.003167,-0.000388,-0.000107
109,0.012123,-0.060704,9.920992,0.170085,-0.189922,-0.035712,-0.364350,-0.048487,-0.013265,0.999995,-0.003180,-0.000423,-0.000117
110,0.016305,-0.063045,9.924327,0.042923,-0.397617,-0.030804,-0.360799,-0.058286,-0.014312,0.999995,-0.003149,-0.000508,-0.000126
111,0.017804,-0.060675,9.926157,0.137257,-0.386037,-0.039963,-0.357795,-0.071354,-0.015409,0.999995,-0.003122,-0.000622,-0.000136
113,0.019665,-0.065641,9.926683,-0.171598,-0.349039,-0.028743,-0.358365,-0.083612,-0.016478,0.999995,-0.003127,-0.000729,-0.000146
114,0.015193,-0.065129,9.928770,-0.130996,0.027225,-0.015691,-0.363408,-0.088981,-0.017184,0.999995,-0.003171,-0.000776,-0.000152
115,0.010148,-0.067414,9.931817,-0.218893,0.379850,-0.010313,-0.369238,-0.082199,-0.017661,0.999995,-0.003222,-0.000717,-0.000156
116,0.003060,-0.071068,9.928082,-0.365327,0.719386,-0.026204,-0.378975,-0.063883,-0.018389,0.999994,-0.003307,-0.000557,-0.000162
117,0.003358,-0.075137,9.927976,-0.499837,0.511472,-0.027397,-0.393393,-0.043375,-0.019421,0.999994,-0.003433,-0.000378,-0.000171
118,0.002276,-0.065387,9.926970,0.195915,0.359723,-0.036624,-0.398458,-0.028863,-0.020588,0.999994,-0.003477,-0.000251,-0.000181
120,0.004702,-0.068707,9.928226,0.049358,0.071593,-0.052202,-0.394369,-0.021684,-0.022118,0.999994,-0.003442,-0.000189,-0.000194
121,0.006084,-0.061603,9.925103,0.424965,-0.084637,-0.059487,-0.386463,-0.021915,-0.023978,0.999994,-0.003373,-0.000191,-0.000210
122,0.009594,-0.052187,9.930328,0.889595,-0.277065,-0.051843,-0.364553,-0.027955,-0.025794,0.999995,-0.003181,-0.000243,-0.000226
123,0.014751,-0.047754,9.934268,0.924418,-0.507821,-0.041123,-0.334318,-0.041045,-0.027263,0.999996,-0.002918,-0.000357,-0.000239
124,0.017215,-0.056063,9.937826,0.162402,-0.529427,-0.034426,-0.316204,-0.058340,-0.028424,0.999996,-0.002760,-0.000508,-0.000249
125,0.018228,-0.053815,9.940250,0.116205,-0.407074,-0.025961,-0.311559,-0.073953,-0.029344,0.999996,-0.002719,-0.000645,-0.000258
127,0.017539,-0.053436,9.946262,0.096524,-0.204562,-0.024842,-0.308012,-0.084152,-0.030135,0.999996,-0.002688,-0.000734,-0.000265
128,0.016763,-0.060708,9.940600,-0.356798,-0.072189,-0.037109,-0.312349,-0.088770,-0.031143,0.999996,-0.002726,-0.000774,-0.000274
129,0.009642,-0.061572,9.936376,-0.369375,0.378092,-0.039163,-0.324450,-0.083679,-0.032442,0.999996,-0.002832,-0.000729,-0.000285
130,0.008118,-0.054045,9.934885,0.171425,0.419611,-0.051938,-0.327747,-0.070392,-0.034036,0.999996,-0.002860,-0.000613,-0.000299
131,0.005884,-0.057576,9.935334,-0.011286,0.401915,-0.048649,-0.325076,-0.056710,-0.035790,0.999996,-0.002837,-0.000494,-0.000314
132,0.006766,-0.056310,9.931009,0.025964,0.204942,-0.034527,-0.324830,-0.046604,-0.037233,0.999996,-0.002835,-0.000406,-0.000326
134,0.006614,-0.054910,9.931847,0.093864,0.102019,-0.024433,-0.322832,-0.041493,-0.038245,0.999996,-0.002817,-0.000361,-0.000335
135,0.004654,-0.057413,9.928803,-0.057789,0.166967,-0.030064,-0.322230,-0.037015,-0.039178,0.999996,-0.002812,-0.000322,-0.000343
136,0.003477,-0.057446,9.927336,-0.076895,0.196203,-0.026885,-0.324474,-0.030968,-0.040162,0.999996,-0.002832,-0.000269,-0.000351
137,0.004562,-0.057082,9.926512,-0.032202,0.082259,-0.039816,-0.326292,-0.026333,-0.041300,0.999996,-0.002848,-0.000229,-0.000361
138,0.005854,-0.057507,9.928825,-0.039315,-0.035530,-0.051185,-0.327483,-0.025563,-0.042821,0.999996,-0.002858,-0.000222,-0.000374
139,0.002350,-0.057675,9.930932,-0.033346,0.165102,-0.053129,-0.328694,-0.023414,-0.044572,0.999996,-0.002868,-0.000203,-0.000390
141,0.006049,-0.058405,9.932929,-0.073372,-0.065150,-0.046834,-0.330472,-0.021758,-0.046247,0.999996,-0.002884,-0.000189,-0.000404
142,0.007588,-0.058251,9.934161,-0.029516,-0.175028,-0.041354,-0.332186,-0.025769,-0.047694,0.999996,-0.002899,-0.000224,-0.000417
143,0.009346,-0.059298,9.929496,-0.082004,-0.227436,-0.032539,-0.334044,-0.032484,-0.048887,0.999996,-0.002915,-0.000282,-0.000427
144,0.008142,-0.062846,9.924902,-0.266797,-0.081907,-0.027056,-0.339857,-0.037645,-0.049850,0.999995,-0.002966,-0.000327,-0.000436
145,0.013738,-0.059139,9.923911,0.012593,-0.345822,-0.016626,-0.344093,-0.044778,-0.050535,0.999995,-0.003003,-0.000389,-0.000442
146,0.010393,-0.060825,9.924818,-0.054275,-0.082884,-0.033335,-0.344787,-0.051928,-0.051325,0.999995,-0.003009,-0.000452,-0.000449
147,0.009020,-0.063889,9.923233,-0.211088,0.073884,-0.032267,-0.349209,-0.052085,-0.052417,0.999995,-0.003048,-0.000453,-0.000459
148,0.007460,-0.059235,9.927172,0.115390,0.156542,-0.036571,-0.350802,-0.048251,-0.053588,0.999995,-0.003062,-0.000420,-0.000469
149,0.004514,-0.065325,9.929663,-0.223793,0.277638,-0.040053,-0.352608,-0.041023,-0.054909,0.999995,-0.003077,-0.000357,-0.000480
150,0.000142,-0.063992,9.932352,-0.130904,0.465291,-0.052773,-0.358519,-0.028651,-0.056533,0.999995,-0.003129,-0.000248,-0.000494
151,0.000674,-0.061983,9.935128,0.048130,0.307886,-0.032458,-0.359898,-0.015774,-0.058035,0.999995,-0.003141,-0.000136,-0.000507
152,0.000285,-0.060011,9.935238,0.158903,0.186317,-0.037730,-0.356447,-0.007544,-0.059256,0.999995,-0.003111,-0.000064,-0.000517
153,0.000144,-0.064339,9.932593,-0.126176,0.112168,-0.036617,-0.355902,-0.002577,-0.060526,0.999995,-0.003106,-0.000021,-0.000528
154,0.003733,-0.060917,9.929638,0.057076,-0.146121,-0.029078,-0.357053,-0.003150,-0.061617,0.999995,-0.003116,-0.000026,-0.000538
155,0.005896,-0.059492,9.927866,0.136480,-0.272922,-0.022200,-0.353827,-0.010139,-0.062428,0.999995,-0.003088,-0.000087,-0.000545
156,0.006644,-0.058337,9.924623,0.182002,-0.246363,-0.034249,-0.348519,-0.018800,-0.063316,0.999995,-0.003041,-0.000162,-0.000553
157,0.006118,-0.062082,9.923176,-0.103052,-0.115743,-0.033449,-0.347203,-0.024842,-0.064408,0.999995,-0.003030,-0.000215,-0.000563
158,0.008187,-0.063214,9.922132,-0.181975,-0.170282,-0.038337,-0.351952,-0.029616,-0.065575,0.999995,-0.003072,-0.000257,-0.000573
159,0.008414,-0.067133,9.926965,-0.351289,-0.130860,-0.038035,-0.360839,-0.034643,-0.066817,0.999995,-0.003149,-0.000300,-0.000584
160,0.009261,-0.073075,9.923861,-0.596060,-0.122038,-0.047026,-0.376628,-0.038867,-0.068207,0.999994,-0.003287,-0.000337,-0.000596
161,0.009810,-0.075528,9.921345,-0.573351,-0.108609,-0.045450,-0.396117,-0.042721,-0.069722,0.999994,-0.003457,-0.000371,-0.000610
162,0.011709,-0.077216,9.924396,-0.470061,-0.187176,-0.053665,-0.413506,-0.047663,-0.071339,0.999993,-0.003609,-0.000414,-0.000624
163,0.007280,-0.078805,9.925524,-0.381342,0.110323,-0.054615,-0.427694,-0.048957,-0.073135,0.999993,-0.003733,-0.000425,-0.000640
164,0.004487,-0.073754,9.923052,0.047959,0.282912,-0.058239,-0.433249,-0.042417,-0.075064,0.999993,-0.003781,-0.000368,-0.000656
165,0.003392,-0.078620,9.929069,-0.185381,0.280888,-0.050435,-0.435538,-0.033034,-0.076947,0.999993,-0.003801,-0.000286,-0.000673
166,0.001431,-0.078288,9.931805,-0.149743,0.307901,-0.054915,-0.441123,-0.023235,-0.078778,0.999992,-0.003850,-0.000200,-0.000688
167,-0.002655,-0.082350,9.928123,-0.331537,0.448764,-0.041577,-0.449144,-0.010637,-0.080484,0.999992,-0.003920,-0.000090,-0.000703
168,-0.000445,-0.070541,9.929584,0.436843,0.196812,-0.037623,-0.447388,0.000112,-0.081888,0.999992,-0.003904,0.000004,-0.000715
169,-0.000994,-0.072597,9.936568,0.303654,0.116396,-0.025934,-0.435047,0.005324,-0.082987,0.999993,-0.003796,0.000049,-0.000724
170,-0.001212,-0.068567,9.931011,0.431799,0.060107,-0.027736,-0.422789,0.008259,-0.083903,0.999993,-0.003689,0.000075,-0.000732
171,-0.000888,-0.067503,9.932461,0.374276,0.002902,-0.018926,-0.409355,0.009304,-0.084688,0.999993,-0.003572,0.000084,-0.000739
172,0.001024,-0.060931,9.934772,0.622954,-0.111727,-0.016683,-0.392735,0.007486,-0.085269,0.999994,-0.003427,0.000068,-0.000744
173,0.001502,-0.069072,9.934557,-0.029573,-0.111982,-0.018331,-0.382845,0.003753,-0.085827,0.999994,-0.003341,0.000035,-0.000749
174,0.004890,-0.066828,9.930034,0.009864,-0.268682,-0.033088,-0.383173,-0.002597,-0.086642,0.999994,-0.003344,-0.000020,-0.000756
175,0.005483,-0.068663,9.932339,-0.091816,-0.228683,-0.032886,-0.384539,-0.010893,-0.087686,0.999994,-0.003356,-0.000092,-0.000766
176,0.005207,-0.072755,9.930535,-0.313466,-0.134462,-0.042851,-0.391294,-0.016954,-0.088907,0.999994,-0.003415,-0.000145,-0.000776
177,0.006331,-0.079113,9.933702,-0.600665,-0.138611,-0.044303,-0.406529,-0.021515,-0.090328,0.999993,-0.003548,-0.000185,-0.000789
178,0.005613,-0.076816,9.931274,-0.316987,-0.063896,-0.042267,-0.421822,-0.024901,-0.091746,0.999993,-0.003681,-0.000214,-0.000801
179,0.003969,-0.080794,9.932819,-0.402021,0.072458,-0.032137,-0.433805,-0.024767,-0.092987,0.999992,-0.003786,-0.000213,-0.000812
180,0.007750,-0.083875,9.931328,-0.471372,-0.139412,-0.033771,-0.448361,-0.025892,-0.094077,0.999992,-0.003913,-0.000223,-0.000822
181,0.008491,-0.075953,9.930360,0.121585,-0.157260,-0.026702,-0.454191,-0.030844,-0.095046,0.999992,-0.003964,-0.000266,-0.000830
182,0.009453,-0.067671,9.930359,0.648597,-0.166324,-0.030122,-0.441354,-0.036244,-0.095951,0.999992,-0.003852,-0.000313,-0.000839
183,0.011164,-0.068580,9.928946,0.477974,-0.203535,-0.037989,-0.422577,-0.042417,-0.097040,0.999993,-0.003688,-0.000367,-0.000848
184,0.012004,-0.064751,9.924976,0.508193,-0.190596,-0.051608,-0.406139,-0.048996,-0.098486,0.999993,-0.003545,-0.000425,-0.000861
185,0.008140,-0.058508,9.929231,0.701154,0.087754,-0.054284,-0.385982,-0.050723,-0.100239,0.999994,-0.003369,-0.000440,-0.000876
186,0.008304,-0.057657,9.933812,0.562509,0.086619,-0.051072,-0.364920,-0.047828,-0.102014,0.999995,-0.003185,-0.000415,-0.000892
187,0.006103,-0.062823,9.933542,0.067606,0.183090,-0.050007,-0.354416,-0.043343,-0.103727,0.999995,-0.003093,-0.000375,-0.000906
188,0.004526,-0.066310,9.938342,-0.230613,0.233926,-0.037304,-0.357132,-0.036402,-0.105225,0.999995,-0.003117,-0.000315,-0.000919
189,0.005420,-0.070944,9.939092,-0.464238,0.117595,-0.030302,-0.368712,-0.030551,-0.106389,0.999994,-0.003218,-0.000264,-0.000929
190,0.009928,-0.066559,9.938079,-0.080844,-0.193221,-0.031064,-0.377796,-0.031818,-0.107404,0.999994,-0.003297,-0.000275,-0.000938
191,0.012986,-0.069422,9.936574,-0.161789,-0.361581,-0.029090,-0.381840,-0.041071,-0.108346,0.999994,-0.003333,-0.000355,-0.000947
192,0.013166,-0.071413,9.934292,-0.246292,-0.278130,-0.028484,-0.388640,-0.051739,-0.109233,0.999994,-0.003392,-0.000448,-0.000955
193,0.012529,-0.065628,9.931134,0.144974,-0.138033,-0.037015,-0.390328,-0.058683,-0.110278,0.999994,-0.003407,-0.000509,-0.000964
194,0.010975,-0.055484,9.937712,0.733980,0.012295,-0.041144,-0.375677,-0.060787,-0.111567,0.999994,-0.003279,-0.000527,-0.000975
196,0.006720,-0.060910,9.938851,0.253752,0.274126,-0.040450,-0.359214,-0.056022,-0.112957,0.999995,-0.003135,-0.000486,-0.000987
197,-0.000687,-0.059676,9.935822,0.160756,0.664211,-0.050229,-0.352304,-0.040393,-0.114566,0.999995,-0.003075,-0.000349,-0.001001
198,-0.000434,-0.052567,9.936294,0.503304,0.487298,-0.051551,-0.341235,-0.021212,-0.116379,0.999995,-0.002978,-0.000182,-0.001016
199,-0.002375,-0.049587,9.934926,0.561074,0.399851,-0.047390,-0.323495,-0.006435,-0.118113,0.999995,-0.002823,-0.000053,-0.001031
200,-0.001309,-0.060315,9.929545,-0.221608,0.193741,-0.045395,-0.317837,0.003449,-0.119715,0.999996,-0.002774,0.000033,-0.001045
201,-0.005124,-0.058201,9.925977,-0.149814,0.328893,-0.043247,-0.324028,0.012151,-0.121241,0.999995,-0.002828,0.000109,-0.001058
202,-0.001674,-0.062283,9.931953,-0.324450,0.039642,-0.037272,-0.331933,0.018285,-0.122618,0.999995,-0.002896,0.000163,-0.001070
203,-0.002551,-0.065462,9.929294,-0.435956,0.030450,-0.034357,-0.344606,0.019447,-0.123819,0.999995,-0.003007,0.000173,-0.001080
204,0.003217,-0.071947,9.934835,-0.679642,-0.309328,-0.048736,-0.363200,0.014790,-0.125175,0.999994,-0.003169,0.000133,-0.001092
205,0.000548,-0.068977,9.934057,-0.316708,-0.114990,-0.039810,-0.379806,0.007709,-0.126606,0.999994,-0.003314,0.000071,-0.001105
206,0.002081,-0.064775,9.931665,0.090778,-0.143327,-0.041407,-0.383572,0.003395,-0.127930,0.999994,-0.003347,0.000033,-0.001116
207,0.000426,-0.063778,9.928982,0.189547,-0.012366,-0.042017,-0.378900,0.000791,-0.129304,0.999994,-0.003307,0.000011,-0.001128
208,0.000830,-0.061767,9.932360,0.275366,-0.008104,-0.035896,-0.371151,0.000441,-0.130600,0.999994,-0.003239,0.000008,-0.001140
209,-0.000870,-0.064507,9.928117,0.027570,0.093475,-0.019975,-0.366102,0.001858,-0.131540,0.999994,-0.003195,0.000020,-0.001148
210,0.002963,-0.060504,9.924321,0.197606,-0.140438,-0.032159,-0.362350,0.001070,-0.132404,0.999994,-0.003162,0.000013,-0.001155
211,0.005096,-0.068833,9.925944,-0.304862,-0.244997,-0.029835,-0.364137,-0.005361,-0.133397,0.999994,-0.003178,-0.000043,-0.001164
212,0.008572,-0.070732,9.927819,-0.406560,-0.379762,-0.038293,-0.375994,-0.015781,-0.134465,0.999994,-0.003281,-0.000134,-0.001174
213,0.012508,-0.070301,9.928854,-0.271899,-0.501177,-0.055936,-0.387301,-0.030473,-0.135937,0.999994,-0.003380,-0.000262,-0.001187
214,0.011566,-0.065297,9.931116,0.129239,-0.298283,-0.057876,-0.389678,-0.043810,-0.137744,0.999994,-0.003401,-0.000378,-0.001203
215,0.011704,-0.066344,9.930880,0.097099,-0.166832,-0.049405,-0.385904,-0.051574,-0.139480,0.999994,-0.003368,-0.000446,-0.001219
216,0.011059,-0.063213,9.930981,0.226320,-0.056579,-0.048754,-0.380512,-0.055308,-0.141091,0.999994,-0.003321,-0.000479,-0.001233
217,0.010168,-0.059736,9.931198,0.383791,0.036746,-0.049835,-0.370342,-0.055649,-0.142732,0.999994,-0.003232,-0.000482,-0.001247
218,0.008099,-0.058835,9.932485,0.334553,0.164162,-0.039834,-0.358368,-0.052310,-0.144248,0.999994,-0.003128,-0.000453,-0.001260
219,0.007758,-0.059891,9.932240,0.169104,0.145866,-0.048910,-0.349972,-0.047153,-0.145759,0.999994,-0.003055,-0.000408,-0.001273
220,0.006463,-0.059635,9.938844,0.114422,0.164670,-0.054816,-0.345246,-0.041988,-0.147519,0.999995,-0.003013,-0.000363,-0.001288
221,0.004707,-0.061654,9.937853,-0.054169,0.203555,-0.057452,-0.344240,-0.035862,-0.149427,0.999995,-0.003004,-0.000309,-0.001305
222,0.005988,-0.061264,9.940165,-0.036353,0.067012,-0.050656,-0.345748,-0.031363,-0.151256,0.999995,-0.003018,-0.000270,-0.001321
223,0.004813,-0.069911,9.938596,-0.515776,0.082083,-0.051786,-0.354949,-0.028889,-0.152979,0.999994,-0.003098,-0.000248,-0.001336
224,0.003022,-0.065326,9.933491,-0.164492,0.158981,-0.053023,-0.366286,-0.024882,-0.154751,0.999994,-0.003197,-0.000213,-0.001351
225,0.002801,-0.066380,9.933249,-0.125766,0.134724,-0.048636,-0.371123,-0.019998,-0.156477,0.999994,-0.003239,-0.000170,-0.001366
226,0.005734,-0.061438,9.932809,0.212070,-0.071097,-0.056275,-0.369684,-0.018949,-0.158232,0.999994,-0.003226,-0.000161,-0.001381
227,0.002566,-0.061186,9.927689,0.204314,0.104115,-0.053631,-0.362744,-0.018410,-0.160067,0.999994,-0.003166,-0.000156,-0.001397
228,0.005410,-0.050076,9.927355,0.768417,-0.060840,-0.057943,-0.346531,-0.017701,-0.161931,0.999994,-0.003024,-0.000150,-0.001414
229,0.008859,-0.056007,9.935264,0.263577,-0.269665,-0.054410,-0.329330,-0.023220,-0.163771,0.999995,-0.002874,-0.000199,-0.001430
230,0.007840,-0.057905,9.932960,-0.014065,-0.154327,-0.055090,-0.325171,-0.030297,-0.165555,0.999995,-0.002838,-0.000260,-0.001445
231,0.007005,-0.060812,9.935602,-0.217845,-0.033784,-0.035971,-0.329035,-0.033441,-0.167055,0.999995,-0.002872,-0.000288,-0.001459
232,0.010992,-0.062371,9.934956,-0.269373,-0.233850,-0.027919,-0.337155,-0.037908,-0.168094,0.999995,-0.002943,-0.000326,-0.001468
233,0.008019,-0.065097,9.935992,-0.349613,-0.017712,-0.025090,-0.347471,-0.042105,-0.168952,0.999994,-0.003033,-0.000363,-0.001475
234,0.007814,-0.066968,9.935390,-0.350048,0.045208,-0.020169,-0.359131,-0.041652,-0.169709,0.999994,-0.003135,-0.000359,-0.001482
235,0.008057,-0.067080,9.935274,-0.232363,0.022071,-0.028005,-0.368837,-0.040536,-0.170519,0.999994,-0.003219,-0.000349,-0.001489
236,0.006103,-0.066290,9.937045,-0.089090,0.109920,-0.033569,-0.374194,-0.038342,-0.171560,0.999994,-0.003266,-0.000330,-0.001498
237,0.003217,-0.065646,9.936991,0.010732,0.246772,-0.031160,-0.375500,-0.032405,-0.172677,0.999993,-0.003277,-0.000278,-0.001508
238,0.001921,-0.065913,9.935642,0.018551,0.262132,-0.032583,-0.375011,-0.023930,-0.173795,0.999994,-0.003273,-0.000204,-0.001517
239,0.000475,-0.063279,9.933561,0.172421,0.269948,-0.038766,-0.371828,-0.015070,-0.175042,0.999994,-0.003245,-0.000127,-0.001528
240,0.006259,-0.055613,9.932203,0.571661,-0.156880,-0.032454,-0.359426,-0.013193,-0.176241,0.999994,-0.003137,-0.000110,-0.001538
241,0.008019,-0.057586,9.928383,0.335657,-0.266706,-0.031568,-0.344304,-0.020259,-0.177264,0.999994,-0.003005,-0.000172,-0.001547
242,0.008237,-0.056184,9.928504,0.254730,-0.208661,-0.044873,-0.334463,-0.028190,-0.178491,0.999995,-0.002919,-0.000241,-0.001558
243,0.010257,-0.056714,9.930350,0.130946,-0.251961,-0.040430,-0.328035,-0.035875,-0.179868,0.999995,-0.002863,-0.000309,-0.001571
244,0.010957,-0.056576,9.931567,0.070449,-0.226140,-0.040161,-0.324677,-0.043851,-0.181166,0.999995,-0.002834,-0.000378,-0.001582
245,0.004122,-0.057397,9.932530,0.003563,0.254040,-0.043503,-0.323443,-0.043393,-0.182563,0.999995,-0.002823,-0.000374,-0.001594
246,0.006882,-0.058733,9.933668,-0.086999,0.082696,-0.041313,-0.324832,-0.037789,-0.184008,0.999995,-0.002835,-0.000325,-0.001607
247,0.008218,-0.061605,9.935386,-0.238165,-0.041167,-0.034351,-0.330251,-0.037104,-0.185273,0.999995,-0.002882,-0.000319,-0.001618
248,0.009035,-0.064645,9.931430,-0.365395,-0.099931,-0.028493,-0.340309,-0.039462,-0.186307,0.999994,-0.002970,-0.000340,-0.001627
249,0.006477,-0.069124,9.930309,-0.531344,0.063535,-0.016695,-0.355255,-0.040073,-0.187056,0.999994,-0.003101,-0.000345,-0.001633
250,0.007917,-0.076439,9.929026,-0.815278,-0.004340,-0.015444,-0.377698,-0.039090,-0.187598,0.999993,-0.003297,-0.000336,-0.001638
251,0.003206,-0.075701,9.930866,-0.547547,0.257711,-0.023092,-0.400411,-0.034872,-0.188269,0.999993,-0.003495,-0.000299,-0.001644
252,0.004246,-0.078958,9.928362,-0.504961,0.147859,-0.016161,-0.417953,-0.028117,-0.188971,0.999992,-0.003648,-0.000239,-0.001650
253,0.002707,-0.073967,9.930492,-0.051347,0.178328,-0.023897,-0.427224,-0.022686,-0.189679,0.999992,-0.003729,-0.000192,-0.001656
254,0.004520,-0.067639,9.931596,0.414536,0.017927,-0.031354,-0.421171,-0.019422,-0.190624,0.999992,-0.003676,-0.000163,-0.001664
255,0.004007,-0.061908,9.936756,0.681956,-0.006367,-0.039073,-0.402895,-0.019237,-0.191799,0.999992,-0.003516,-0.000162,-0.001674
256,0.005456,-0.062926,9.937026,0.428468,-0.085654,-0.048734,-0.384388,-0.020781,-0.193252,0.999993,-0.003355,-0.000176,-0.001687
257,0.003164,-0.058625,9.942277,0.485587,0.065072,-0.062998,-0.369153,-0.021136,-0.195112,0.999993,-0.003222,-0.000179,-0.001703
258,0.005520,-0.062204,9.940279,0.129364,-0.065686,-0.062201,-0.358903,-0.021160,-0.197198,0.999994,-0.003132,-0.000179,-0.001721
259,0.008543,-0.060773,9.936956,0.108186,-0.235303,-0.058688,-0.354943,-0.026189,-0.199182,0.999994,-0.003098,-0.000223,-0.001739
260,0.006070,-0.066681,9.931260,-0.265116,-0.027394,-0.043575,-0.357558,-0.030578,-0.200859,0.999994,-0.003121,-0.000261,-0.001754
261,0.009320,-0.069978,9.933616,-0.413006,-0.176996,-0.033682,-0.368859,-0.033992,-0.202125,0.999993,-0.003219,-0.000291,-0.001765
262,0.010139,-0.069898,9.926400,-0.270895,-0.187492,-0.030804,-0.380257,-0.040074,-0.203160,0.999993,-0.003319,-0.000344,-0.001774
263,0.003159,-0.068051,9.926510,-0.054881,0.282300,-0.040101,-0.385685,-0.038502,-0.204352,0.999993,-0.003366,-0.000330,-0.001784
264,0.000480,-0.074266,9.927198,-0.374302,0.412086,-0.046573,-0.392838,-0.026939,-0.205875,0.999993,-0.003429,-0.000229,-0.001797
265,0.006544,-0.070775,9.927180,-0.108980,-0.045867,-0.056040,-0.400892,-0.020847,-0.207628,0.999992,-0.003499,-0.000176,-0.001813
266,0.000970,-0.064031,9.924654,0.358322,0.216427,-0.048314,-0.396735,-0.018017,-0.209387,0.999992,-0.003462,-0.000151,-0.001828
267,0.003943,-0.065465,9.927844,0.216913,0.016577,-0.045077,-0.387148,-0.014144,-0.210970,0.999993,-0.003379,-0.000117,-0.001841
268,0.008391,-0.068624,9.930101,-0.061888,-0.287913,-0.033250,-0.384563,-0.018675,-0.212245,0.999993,-0.003356,-0.000157,-0.001853
269,0.009559,-0.066622,9.930239,0.030879,-0.294774,-0.025776,-0.385080,-0.028393,-0.213163,0.999993,-0.003361,-0.000242,-0.001861
270,0.010073,-0.064951,9.934704,0.141773,-0.237718,-0.029953,-0.382202,-0.037274,-0.214032,0.999993,-0.003336,-0.000319,-0.001869
271,0.010272,-0.066891,9.939532,0.001466,-0.161660,-0.036976,-0.379814,-0.043937,-0.215104,0.999993,-0.003315,-0.000377,-0.001878
272,0.009473,-0.067790,9.946148,-0.074697,-0.044051,-0.043787,-0.381033,-0.047375,-0.216427,0.999993,-0.003326,-0.000407,-0.001890
273,0.010164,-0.072793,9.944605,-0.348322,-0.055690,-0.045117,-0.388082,-0.049047,-0.217897,0.999992,-0.003387,-0.000422,-0.001903
274,0.009034,-0.067935,9.943368,0.009163,0.021482,-0.050968,-0.393734,-0.049628,-0.219495,0.999992,-0.003437,-0.000427,-0.001917
275,0.005139,-0.070119,9.941254,-0.068662,0.251669,-0.043225,-0.394724,-0.045086,-0.221096,0.999992,-0.003445,-0.000387,-0.001931
276,0.005405,-0.065620,9.934861,0.190466,0.190746,-0.040808,-0.392693,-0.037723,-0.222547,0.999992,-0.003428,-0.000323,-0.001943
277,0.001344,-0.068308,9.927924,0.015451,0.352803,-0.028892,-0.389260,-0.028672,-0.223771,0.999992,-0.003397,-0.000244,-0.001954
278,0.002807,-0.063609,9.929989,0.257655,0.191662,-0.033272,-0.384708,-0.019604,-0.224868,0.999992,-0.003358,-0.000164,-0.001963
279,0.005331,-0.071253,9.928726,-0.229430,-0.043147,-0.025512,-0.384237,-0.017136,-0.225864,0.999992,-0.003353,-0.000143,-0.001972
280,0.005552,-0.072511,9.931264,-0.317907,-0.083573,-0.027276,-0.393359,-0.019254,-0.226730,0.999992,-0.003433,-0.000161,-0.001979
281,0.007924,-0.079563,9.931684,-0.630331,-0.196188,-0.027975,-0.409163,-0.023923,-0.227618,0.999992,-0.003571,-0.000202,-0.001987
282,0.004790,-0.071810,9.933659,-0.031904,0.011489,-0.025097,-0.420200,-0.027007,-0.228480,0.999991,-0.003667,-0.000228,-0.001995
283,0.002824,-0.070551,9.935790,0.158061,0.142031,-0.013448,-0.418097,-0.024453,-0.229141,0.999991,-0.003649,-0.000206,-0.002000
284,-0.002683,-0.066668,9.939899,0.364085,0.426384,-0.014454,-0.409394,-0.014983,-0.229675,0.999992,-0.003573,-0.000124,-0.002005
285,-0.001445,-0.068167,9.938600,0.210013,0.264959,-0.020178,-0.399826,-0.003465,-0.230333,0.999992,-0.003489,-0.000023,-0.002010
286,-0.003734,-0.066125,9.937348,0.228536,0.278743,-0.015490,-0.392516,0.005592,-0.230990,0.999992,-0.003425,0.000056,-0.002016
287,-0.002474,-0.070870,9.937743,-0.114909,0.136907,-0.019696,-0.390623,0.012515,-0.231624,0.999992,-0.003409,0.000116,-0.002021
288,-0.003318,-0.071461,9.938693,-0.169077,0.130059,-0.029025,-0.395356,0.016959,-0.232467,0.999992,-0.003450,0.000155,-0.002028
289,0.002696,-0.076905,9.942791,-0.445993,-0.257962,-0.027236,-0.405608,0.014821,-0.233390,0.999992,-0.003539,0.000137,-0.002036
290,0.003907,-0.069432,9.942917,0.085630,-0.310985,-0.012222,-0.411614,0.005334,-0.233980,0.999992,-0.003592,0.000054,-0.002042
291,0.004260,-0.064045,9.946527,0.458998,-0.231837,-0.014752,-0.402536,-0.003716,-0.234365,0.999992,-0.003513,-0.000025,-0.002045
292,0.007243,-0.069243,9.944182,0.080112,-0.322462,-0.009215,-0.393551,-0.012957,-0.234701,0.999992,-0.003435,-0.000106,-0.002049
293,0.008359,-0.068317,9.940585,0.043716,-0.299155,-0.010487,-0.391487,-0.023319,-0.234958,0.999992,-0.003417,-0.000196,-0.002051
294,0.005518,-0.068388,9.938124,0.037844,-0.033425,-0.014741,-0.390128,-0.028865,-0.235341,0.999992,-0.003405,-0.000245,-0.002055
295,0.004299,-0.070542,9.933165,-0.095869,0.090653,-0.018389,-0.391095,-0.027915,-0.235899,0.999992,-0.003413,-0.000237,-0.002059
296,0.004389,-0.077058,9.933301,-0.460491,0.066814,-0.018313,-0.400367,-0.025295,-0.236529,0.999992,-0.003494,-0.000214,-0.002065
297,0.003604,-0.063341,9.932775,0.403354,0.082832,-0.033849,-0.401319,-0.022807,-0.237416,0.999992,-0.003503,-0.000192,-0.002073
299,0.001521,-0.060700,9.933333,0.557833,0.170491,-0.033230,-0.385299,-0.018593,-0.238563,0.999992,-0.003363,-0.000155,-0.002082
300,0.003193,-0.056967,9.929981,0.610380,0.047117,-0.028077,-0.365828,-0.014973,-0.239608,0.999993,-0.003193,-0.000124,-0.002091
301,-0.002705,-0.058221,9.933011,0.344405,0.354243,-0.026031,-0.349915,-0.008289,-0.240552,0.999993,-0.003054,-0.000066,-0.002099
302,-0.000547,-0.058297,9.933050,0.185509,0.169065,-0.027226,-0.341083,0.000427,-0.241493,0.999993,-0.002976,0.000010,-0.002107
303,0.000542,-0.069436,9.935022,-0.532330,0.023680,-0.029647,-0.346863,0.003634,-0.242460,0.999993,-0.003027,0.000038,-0.002116
304,0.001738,-0.074905,9.932164,-0.782095,-0.066714,-0.021157,-0.368771,0.002911,-0.243302,0.999993,-0.003218,0.000032,-0.002123
305,0.000097,-0.070733,9.933812,-0.330927,0.024479,-0.029674,-0.387321,0.002202,-0.244145,0.999992,-0.003380,0.000026,-0.002130
306,0.006813,-0.073960,9.936833,-0.330293,-0.358731,-0.041406,-0.398341,-0.003377,-0.245291,0.999992,-0.003476,-0.000022,-0.002141
307,0.003248,-0.068319,9.937479,0.093178,-0.092845,-0.035079,-0.402293,-0.010912,-0.246514,0.999992,-0.003511,-0.000088,-0.002152
308,0.004830,-0.061422,9.937372,0.536434,-0.107204,-0.024609,-0.391799,-0.014253,-0.247485,0.999992,-0.003419,-0.000117,-0.002160
309,0.004127,-0.050806,9.942638,1.042160,-0.033157,-0.031856,-0.365489,-0.016598,-0.248411,0.999993,-0.003190,-0.000138,-0.002168
310,0.008843,-0.055822,9.944784,0.481647,-0.282904,-0.042432,-0.340092,-0.021874,-0.249617,0.999993,-0.002968,-0.000184,-0.002179
311,0.007640,-0.052723,9.941984,0.400836,-0.161009,-0.033937,-0.325383,-0.029279,-0.250846,0.999994,-0.002840,-0.000249,-0.002190
312,0.011125,-0.060118,9.940255,-0.183685,-0.290987,-0.034355,-0.321763,-0.036819,-0.251942,0.999994,-0.002809,-0.000315,-0.002199
313,0.006354,-0.061607,9.940052,-0.307342,0.053264,-0.039889,-0.329946,-0.040788,-0.253156,0.999993,-0.002880,-0.000350,-0.002210
314,0.004234,-0.069354,9.936656,-0.681104,0.213551,-0.049355,-0.346420,-0.036350,-0.254670,0.999993,-0.003024,-0.000310,-0.002223
315,-0.001153,-0.066224,9.932936,-0.325194,0.489000,-0.037289,-0.363190,-0.024650,-0.256186,0.999992,-0.003170,-0.000208,-0.002236
316,-0.002952,-0.060996,9.936266,0.139125,0.475770,-0.037522,-0.366291,-0.008579,-0.257535,0.999992,-0.003197,-0.000068,-0.002248
317,-0.004835,-0.061049,9.933822,0.184539,0.411549,-0.042381,-0.360897,0.006201,-0.258960,0.999992,-0.003149,0.000061,-0.002260
318,0.000895,-0.059773,9.934284,0.207420,-0.059078,-0.040811,-0.354364,0.012067,-0.260383,0.999993,-0.003092,0.000112,-0.002272
319,0.004519,-0.060759,9.933268,0.087938,-0.334429,-0.025678,-0.349442,0.005502,-0.261451,0.999993,-0.003049,0.000055,-0.002281
320,0.004315,-0.065288,9.935323,-0.240060,-0.266162,-0.032837,-0.351977,-0.004514,-0.262364,0.999993,-0.003072,-0.000032,-0.002290
321,0.008752,-0.071854,9.933249,-0.594267,-0.418976,-0.032206,-0.365883,-0.015939,-0.263377,0.999992,-0.003193,-0.000132,-0.002299
322,0.012188,-0.068186,9.932459,-0.247076,-0.490821,-0.032827,-0.379905,-0.031109,-0.264362,0.999992,-0.003316,-0.000264,-0.002308
323,0.007790,-0.069443,9.931056,-0.193695,-0.099277,-0.028711,-0.387250,-0.040951,-0.265322,0.999992,-0.003380,-0.000350,-0.002317
324,0.009956,-0.069638,9.930614,-0.121009,-0.116712,-0.036547,-0.392494,-0.044558,-0.266385,0.999991,-0.003426,-0.000381,-0.002326
325,0.008956,-0.066169,9.930106,0.149685,-0.022990,-0.026952,-0.392016,-0.046894,-0.267427,0.999991,-0.003422,-0.000401,-0.002335
326,0.008040,-0.060716,9.930078,0.467172,0.053209,-0.031265,-0.381734,-0.046397,-0.268401,0.999992,-0.003332,-0.000397,-0.002344
327,0.006222,-0.055017,9.934250,0.693050,0.157867,-0.032306,-0.362396,-0.042886,-0.269483,0.999992,-0.003163,-0.000367,-0.002353
328,0.004845,-0.059812,9.934718,0.226397,0.205254,-0.034722,-0.347071,-0.036841,-0.270638,0.999993,-0.003030,-0.000314,-0.002363
329,0.003585,-0.060905,9.931684,0.006000,0.214374,-0.031479,-0.343197,-0.029854,-0.271784,0.999993,-0.002996,-0.000253,-0.002373
330,0.005496,-0.066821,9.929563,-0.376399,0.043362,-0.033901,-0.349370,-0.025565,-0.272899,0.999993,-0.003049,-0.000216,-0.002382
331,0.002844,-0.073511,9.928806,-0.717867,0.155012,-0.033118,-0.367607,-0.022265,-0.274037,0.999992,-0.003208,-0.000187,-0.002392
332,0.001282,-0.077182,9.924207,-0.744912,0.204506,-0.034279,-0.391986,-0.016281,-0.275200,0.999991,-0.003421,-0.000134,-0.002402
333,0.005826,-0.069056,9.925356,-0.034650,-0.108469,-0.044334,-0.404979,-0.014690,-0.276521,0.999991,-0.003534,-0.000120,-0.002414
334,0.003332,-0.073159,9.927851,-0.137470,0.016562,-0.040391,-0.407847,-0.016231,-0.277923,0.999991,-0.003559,-0.000133,-0.002426
335,0.000168,-0.069612,9.927665,0.101930,0.211526,-0.037519,-0.408439,-0.012439,-0.279248,0.999991,-0.003565,-0.000100,-0.002437
336,-0.000288,-0.068532,9.933438,0.184695,0.193827,-0.037611,-0.403662,-0.005692,-0.280548,0.999991,-0.003523,-0.000041,-0.002448
337,-0.000925,-0.068987,9.936562,0.121099,0.173783,-0.045447,-0.398565,0.000425,-0.281975,0.999991,-0.003478,0.000012,-0.002461
338,-0.007038,-0.075635,9.934658,-0.310986,0.465192,-0.034270,-0.401730,0.011065,-0.283378,0.999991,-0.003505,0.000105,-0.002473
339,-0.008129,-0.069232,9.937636,0.066679,0.429253,-0.043702,-0.405802,0.025963,-0.284783,0.999991,-0.003541,0.000235,-0.002484
340,-0.006314,-0.065217,9.940914,0.341665,0.170973,-0.051446,-0.398997,0.035955,-0.286439,0.999991,-0.003481,0.000322,-0.002499
341,-0.004948,-0.061748,9.934062,0.472669,-0.002901,-0.055619,-0.385426,0.038744,-0.288242,0.999991,-0.003363,0.000347,-0.002514
342,-0.002226,-0.065554,9.931830,0.122740,-0.196925,-0.044858,-0.375504,0.035402,-0.289894,0.999991,-0.003276,0.000317,-0.002529
343,0.003735,-0.064500,9.933141,0.084815,-0.518089,-0.045350,-0.372045,0.023476,-0.291320,0.999991,-0.003246,0.000213,-0.002542
344,0.005238,-0.065314,9.929314,0.010981,-0.490286,-0.039043,-0.370449,0.006661,-0.292617,0.999992,-0.003233,0.000066,-0.002553
345,0.006627,-0.064916,9.932471,0.006961,-0.390024,-0.020132,-0.370150,-0.008017,-0.293509,0.999992,-0.003230,-0.000062,-0.002562
346,0.003234,-0.062997,9.933128,0.104224,-0.049081,-0.022500,-0.368297,-0.015340,-0.294172,0.999992,-0.003214,-0.000126,-0.002568
347,0.000803,-0.061407,9.933925,0.163967,0.155213,-0.025730,-0.363827,-0.013576,-0.294987,0.999992,-0.003175,-0.000110,-0.002575
348,-0.000441,-0.059327,9.935102,0.242710,0.216968,-0.031512,-0.357049,-0.007379,-0.295980,0.999992,-0.003116,-0.000056,-0.002583
349,-0.000096,-0.062434,9.939213,0.012517,0.139696,-0.035038,-0.352795,-0.001442,-0.297126,0.999992,-0.003079,-0.000005,-0.002593
350,0.000481,-0.065361,9.935253,-0.195688,0.030271,-0.049345,-0.355848,0.001382,-0.298550,0.999992,-0.003105,0.000020,-0.002605
351,0.006175,-0.068867,9.934521,-0.372252,-0.326374,-0.047000,-0.365313,-0.003563,-0.300125,0.999991,-0.003188,-0.000023,-0.002619
352,0.007065,-0.065580,9.936096,-0.099677,-0.322133,-0.047055,-0.373178,-0.014381,-0.301623,0.999991,-0.003257,-0.000117,-0.002633
353,0.006065,-0.068296,9.933192,-0.169651,-0.159482,-0.041405,-0.377667,-0.022418,-0.303045,0.999991,-0.003296,-0.000187,-0.002645
354,0.002514,-0.062431,9.932632,0.199579,0.111946,-0.036610,-0.377168,-0.023218,-0.304340,0.999991,-0.003292,-0.000194,-0.002657
355,0.000767,-0.061797,9.928381,0.226603,0.217672,-0.026753,-0.370064,-0.017732,-0.305432,0.999991,-0.003230,-0.000146,-0.002666
356,-0.002051,-0.064885,9.927252,-0.009311,0.330047,-0.018354,-0.366442,-0.008608,-0.306242,0.999991,-0.003198,-0.000067,-0.002673
357,-0.000570,-0.066265,9.925595,-0.113616,0.162528,-0.016440,-0.368491,-0.000402,-0.306875,0.999991,-0.003216,0.000005,-0.002678
358,-0.000267,-0.064151,9.927524,0.023501,0.070618,-0.010996,-0.369993,0.003480,-0.307357,0.999991,-0.003229,0.000039,-0.002682
359,-0.000228,-0.064979,9.925598,-0.003894,0.038699,-0.012790,-0.369666,0.005300,-0.307765,0.999991,-0.003226,0.000055,-0.002686
360,0.001775,-0.065964,9.929011,-0.061194,-0.073726,-0.015186,-0.370751,0.004713,-0.308228,0.999991,-0.003235,0.000050,-0.002690
361,0.001057,-0.067596,9.930569,-0.145452,-0.035592,-0.008785,-0.374195,0.002888,-0.308616,0.999991,-0.003265,0.000034,-0.002693
362,0.000140,-0.070639,9.930679,-0.277406,0.032498,-0.009854,-0.381243,0.002835,-0.308926,0.999991,-0.003327,0.000034,-0.002696
363,0.005852,-0.067274,9.930293,-0.000763,-0.304179,-0.012034,-0.385879,-0.001696,-0.309260,0.999991,-0.003367,-0.000006,-0.002699
364,0.008377,-0.068964,9.931427,-0.057568,-0.401505,-0.012733,-0.386851,-0.013460,-0.309594,0.999991,-0.003376,-0.000108,-0.002702
365,0.005864,-0.073174,9.935368,-0.293650,-0.140333,-0.006311,-0.392705,-0.022492,-0.309850,0.999991,-0.003428,-0.000187,-0.002705
366,0.005631,-0.067920,9.938124,0.079605,-0.036504,-0.014862,-0.396272,-0.025442,-0.310182,0.999990,-0.003459,-0.000213,-0.002708
367,0.005886,-0.070928,9.940063,-0.078704,-0.023180,-0.017757,-0.396257,-0.026440,-0.310719,0.999990,-0.003459,-0.000221,-0.002712
368,0.000772,-0.073818,9.940098,-0.262229,0.286153,-0.023201,-0.401939,-0.022062,-0.311432,0.999990,-0.003508,-0.000183,-0.002718
369,0.001693,-0.078812,9.939281,-0.479947,0.187778,-0.014636,-0.414308,-0.014168,-0.312119,0.999990,-0.003616,-0.000114,-0.002724
370,0.001009,-0.068728,9.935150,0.223345,0.132997,-0.033452,-0.418585,-0.008828,-0.312960,0.999990,-0.003653,-0.000067,-0.002731
371,0.000546,-0.064584,9.929830,0.493974,0.116970,-0.027564,-0.406629,-0.004669,-0.314006,0.999990,-0.003549,-0.000031,-0.002740
372,0.000854,-0.058890,9.927773,0.690119,0.059132,-0.021877,-0.386894,-0.001740,-0.314850,0.999991,-0.003376,-0.000006,-0.002748
373,0.002538,-0.056780,9.925269,0.598536,-0.062812,-0.027272,-0.365417,-0.001806,-0.315669,0.999991,-0.003189,-0.000007,-0.002755
374,0.003641,-0.052551,9.927811,0.621109,-0.131889,-0.039834,-0.345089,-0.005058,-0.316767,0.999992,-0.003012,-0.000036,-0.002764
375,0.007949,-0.060732,9.928027,-0.063337,-0.344964,-0.039517,-0.335793,-0.013014,-0.318042,0.999992,-0.002931,-0.000105,-0.002776
376,0.012482,-0.062716,9.931608,-0.257303,-0.528340,-0.049618,-0.341136,-0.027577,-0.319441,0.999992,-0.002978,-0.000232,-0.002788
377,0.013245,-0.065959,9.931750,-0.354317,-0.428308,-0.061145,-0.351329,-0.043532,-0.321191,0.999991,-0.003067,-0.000371,-0.002804
378,0.012342,-0.065828,9.936193,-0.238605,-0.230135,-0.056856,-0.361209,-0.054518,-0.323089,0.999991,-0.003153,-0.000467,-0.002821
379,0.010874,-0.061334,9.933746,0.126075,-0.034282,-0.046809,-0.363083,-0.058936,-0.324789,0.999991,-0.003170,-0.000505,-0.002836
380,0.006308,-0.059681,9.932816,0.238320,0.268640,-0.051089,-0.357008,-0.055040,-0.326445,0.999991,-0.003117,-0.000471,-0.002850
381,0.001151,-0.065269,9.930083,-0.153415,0.521068,-0.043017,-0.355592,-0.041889,-0.328096,0.999991,-0.003104,-0.000357,-0.002864
382,0.000022,-0.067060,9.926933,-0.285910,0.453226,-0.025087,-0.362913,-0.025658,-0.329333,0.999991,-0.003168,-0.000215,-0.002875
383,-0.003472,-0.076076,9.928698,-0.730815,0.498702,-0.024674,-0.379858,-0.009798,-0.330265,0.999990,-0.003315,-0.000076,-0.002882
384,0.002323,-0.079455,9.929172,-0.751651,0.004221,-0.023435,-0.404566,-0.001422,-0.331125,0.999990,-0.003531,-0.000002,-0.002890
385,0.001001,-0.081096,9.931080,-0.587775,0.008956,-0.009888,-0.426890,-0.001206,-0.331683,0.999989,-0.003725,0.000000,-0.002894
386,0.000246,-0.079358,9.931906,-0.262429,0.056457,-0.015710,-0.441060,-0.000119,-0.332118,0.999988,-0.003849,0.000010,-0.002898
387,0.001202,-0.072575,9.933836,0.256098,-0.003446,-0.016225,-0.441165,0.000760,-0.332657,0.999988,-0.003850,0.000018,-0.002903
388,0.004969,-0.063109,9.929184,0.796886,-0.222030,-0.021009,-0.423616,-0.003002,-0.333249,0.999989,-0.003697,-0.000015,-0.002908
389,0.000380,-0.057631,9.926075,0.922817,0.075784,-0.034000,-0.394954,-0.005446,-0.334148,0.999990,-0.003447,-0.000037,-0.002916
390,0.001568,-0.051940,9.921143,0.958743,0.022448,-0.035877,-0.363594,-0.003817,-0.335324,0.999991,-0.003173,-0.000024,-0.002926
391,0.002655,-0.051577,9.920197,0.649152,-0.068852,-0.027158,-0.336796,-0.004597,-0.336370,0.999991,-0.002939,-0.000031,-0.002935
392,0.000471,-0.057559,9.919569,0.055351,0.058970,-0.036957,-0.325054,-0.004767,-0.337437,0.999992,-0.002837,-0.000033,-0.002945
393,-0.002352,-0.060067,9.918198,-0.210468,0.222237,-0.040582,-0.327639,-0.000088,-0.338756,0.999992,-0.002859,0.000008,-0.002956
394,-0.000743,-0.065494,9.920046,-0.485248,0.088610,-0.032235,-0.339235,0.005085,-0.340000,0.999991,-0.002960,0.000053,-0.002967
395,-0.001015,-0.072130,9.920538,-0.737175,0.057163,-0.035561,-0.359609,0.007508,-0.341145,0.999991,-0.003138,0.000075,-0.002977
396,-0.000697,-0.073028,9.924402,-0.588327,0.019132,-0.035838,-0.381701,0.008772,-0.342343,0.999990,-0.003331,0.000086,-0.002987
397,0.004083,-0.072815,9.925212,-0.339576,-0.272509,-0.036226,-0.397166,0.004541,-0.343516,0.999990,-0.003466,0.000050,-0.002998
398,0.007402,-0.069613,9.924663,0.008813,-0.420339,-0.029664,-0.402678,-0.007014,-0.344534,0.999989,-0.003514,-0.000051,-0.003007
399,0.006425,-0.069969,9.926332,0.033383,-0.243805,-0.036125,-0.401975,-0.018090,-0.345553,0.999989,-0.003508,-0.000147,-0.003016
400,0.010234,-0.057628,9.932882,0.734787,-0.354078,-0.034053,-0.389172,-0.028063,-0.346653,0.999990,-0.003397,-0.000235,-0.003026
402,0.012508,-0.061920,9.928956,0.365474,-0.388913,-0.035640,-0.370833,-0.040454,-0.347733,0.999990,-0.003237,-0.000343,-0.003036
403,0.006150,-0.055967,9.931841,0.496074,0.112625,-0.026402,-0.356473,-0.045065,-0.348738,0.999990,-0.003112,-0.000384,-0.003045
404,0.002797,-0.059267,9.934920,0.176943,0.350707,-0.026226,-0.345256,-0.037348,-0.349663,0.999991,-0.003014,-0.000317,-0.003052
405,0.003395,-0.056482,9.932154,0.230595,0.231402,-0.016285,-0.338463,-0.027651,-0.350429,0.999991,-0.002954,-0.000232,-0.003059
406,0.002616,-0.066295,9.929268,-0.404522,0.171713,-0.016274,-0.341362,-0.020936,-0.351012,0.999991,-0.002979,-0.000174,-0.003064
407,-0.001122,-0.059591,9.932560,0.020032,0.330938,-0.030846,-0.347769,-0.012563,-0.351848,0.999991,-0.003035,-0.000100,-0.003071
408,0.004019,-0.060935,9.926390,0.016605,-0.058622,-0.043806,-0.347159,-0.008032,-0.353119,0.999991,-0.003030,-0.000061,-0.003082
409,0.007886,-0.065847,9.929122,-0.270468,-0.333137,-0.040816,-0.351389,-0.014570,-0.354490,0.999991,-0.003067,-0.000118,-0.003094
410,0.007845,-0.074209,9.931911,-0.720216,-0.259207,-0.049434,-0.367900,-0.024451,-0.355932,0.999990,-0.003211,-0.000203,-0.003107
411,0.004480,-0.073690,9.931970,-0.523706,0.042855,-0.047593,-0.388632,-0.028068,-0.357525,0.999989,-0.003392,-0.000234,-0.003121
412,0.008112,-0.071906,9.927693,-0.215325,-0.130708,-0.029053,-0.400948,-0.029541,-0.358792,0.999989,-0.003500,-0.000247,-0.003132
413,0.004994,-0.075431,9.931260,-0.284908,0.059475,-0.029209,-0.409285,-0.030735,-0.359754,0.999989,-0.003573,-0.000257,-0.003140
414,0.002016,-0.070412,9.924928,0.067076,0.247732,-0.035717,-0.412915,-0.025623,-0.360873,0.999989,-0.003604,-0.000212,-0.003150
415,-0.002358,-0.065842,9.924477,0.379245,0.444574,-0.034385,-0.405476,-0.014093,-0.362124,0.999989,-0.003539,-0.000112,-0.003161
416,0.000715,-0.058421,9.928614,0.739315,0.144298,-0.041106,-0.386833,-0.004287,-0.363450,0.999989,-0.003376,-0.000027,-0.003172
417,-0.000101,-0.069487,9.929587,-0.083725,0.088762,-0.045882,-0.375906,-0.000413,-0.364924,0.999990,-0.003280,0.000007,-0.003185
418,0.000740,-0.071552,9.931536,-0.306785,0.012182,-0.049524,-0.382415,0.001259,-0.366526,0.999989,-0.003337,0.000022,-0.003198
419,0.000931,-0.070715,9.934189,-0.187790,-0.020123,-0.049721,-0.390658,0.001116,-0.368179,0.999989,-0.003409,0.000021,-0.003213
420,0.001348,-0.074319,9.933722,-0.325662,-0.042751,-0.043783,-0.399215,0.000057,-0.369730,0.999989,-0.003484,0.000012,-0.003226
421,0.001124,-0.079245,9.929029,-0.529468,-0.007080,-0.045152,-0.413468,-0.000784,-0.371207,0.999988,-0.003608,0.000005,-0.003239
422,-0.000772,-0.075071,9.931757,-0.157169,0.118351,-0.051945,-0.424912,0.001059,-0.372838,0.999988,-0.003708,0.000021,-0.003254
423,0.001218,-0.071080,9.931182,0.178102,-0.008773,-0.037662,-0.424563,0.002874,-0.374345,0.999988,-0.003705,0.000037,-0.003267
424,0.000702,-0.077835,9.932031,-0.210125,0.010466,-0.043695,-0.425097,0.002892,-0.375701,0.999988,-0.003710,0.000037,-0.003278
425,0.007885,-0.076539,9.931436,-0.139475,-0.404128,-0.049819,-0.430923,-0.003681,-0.377211,0.999988,-0.003761,-0.000020,-0.003292
426,0.006848,-0.078660,9.930577,-0.196354,-0.284776,-0.045850,-0.436520,-0.015174,-0.378718,0.999987,-0.003810,-0.000120,-0.003305
427,0.011311,-0.076279,9.926194,0.004177,-0.438355,-0.039348,-0.439722,-0.027237,-0.380046,0.999987,-0.003838,-0.000225,-0.003317
428,0.008400,-0.075854,9.928189,0.061610,-0.161871,-0.038706,-0.438625,-0.037250,-0.381270,0.999987,-0.003829,-0.000312,-0.003328
429,0.012344,-0.075427,9.928621,0.076998,-0.286289,-0.018327,-0.436315,-0.044727,-0.382164,0.999987,-0.003809,-0.000378,-0.003336
430,0.005392,-0.076714,9.929824,-0.006108,0.189656,-0.017670,-0.435133,-0.046342,-0.382752,0.999987,-0.003799,-0.000392,-0.003342
431,0.004482,-0.076696,9.934869,-0.019229,0.258465,-0.015615,-0.435554,-0.038877,-0.383363,0.999987,-0.003802,-0.000327,-0.003347
