seq,ax,ay,az,wroll,wpitch,wyaw,roll,pitch,yaw,q0,q1,q2,q3
2874,0.047173,-0.089431,9.914555,-0.006448,-0.061465,-0.087408,-0.516804,-0.272596,0.002459,0.999987,-0.004510,-0.002379,0.000011
2876,0.031015,-0.139438,9.917021,-0.015700,-0.072116,-0.085882,-0.536140,-0.269790,-0.000118,0.999986,-0.004679,-0.002354,-0.000012
2877,0.030694,-0.126632,9.918430,-0.000601,-0.076631,-0.076724,-0.568672,-0.259901,-0.002656,0.999985,-0.004963,-0.002268,-0.000034
2878,0.035469,-0.132600,9.917326,-0.006836,-0.064375,-0.087405,-0.594963,-0.252445,-0.005252,0.999984,-0.005192,-0.002203,-0.000057
2879,0.039186,-0.134495,9.919206,0.005246,-0.059770,-0.082826,-0.620259,-0.249136,-0.007957,0.999983,-0.005413,-0.002174,-0.000081
2880,0.034431,-0.134720,9.916589,-0.000972,-0.050589,-0.075195,-0.642839,-0.245915,-0.010473,0.999982,-0.005610,-0.002145,-0.000103
2881,0.033081,-0.126697,9.919317,0.011153,-0.042924,-0.064514,-0.659128,-0.240495,-0.012715,0.999981,-0.005752,-0.002098,-0.000123
2882,0.024376,-0.132432,9.921824,-0.013326,-0.041347,-0.073669,-0.672123,-0.231620,-0.014949,0.999981,-0.005866,-0.002020,-0.000142
2883,0.027583,-0.122359,9.922340,-0.010322,-0.048919,-0.067564,-0.681840,-0.221679,-0.017248,0.999980,-0.005950,-0.001934,-0.000162
2884,0.028655,-0.121641,9.922117,-0.021021,-0.041246,-0.069089,-0.686016,-0.214637,-0.019494,0.999980,-0.005987,-0.001872,-0.000181
2885,0.025082,-0.127731,9.926526,-0.007312,-0.057989,-0.078244,-0.691263,-0.207914,-0.021912,0.999980,-0.006033,-0.001813,-0.000202
2886,0.030965,-0.126468,9.924581,-0.010394,-0.059483,-0.085873,-0.697550,-0.203302,-0.024602,0.999980,-0.006088,-0.001773,-0.000225
2887,0.033434,-0.128536,9.921618,0.006365,-0.059469,-0.069088,-0.703174,-0.202689,-0.027141,0.999980,-0.006137,-0.001767,-0.000248
2888,0.030230,-0.138381,9.920619,0.016999,-0.059457,-0.066036,-0.712155,-0.202141,-0.029335,0.999979,-0.006215,-0.001762,-0.000267
2889,0.030304,-0.141535,9.918579,0.013880,-0.068594,-0.073665,-0.725056,-0.200623,-0.031590,0.999978,-0.006328,-0.001749,-0.000287
2890,0.034246,-0.140067,9.918044,0.013817,-0.059428,-0.072138,-0.737215,-0.200794,-0.033949,0.999978,-0.006434,-0.001750,-0.000308
2891,0.027684,-0.146910,9.922762,0.009173,-0.062466,-0.073663,-0.749827,-0.199939,-0.036307,0.999977,-0.006544,-0.001743,-0.000328
2892,0.028920,-0.142686,9.924341,0.006061,-0.062441,-0.073663,-0.761890,-0.197123,-0.038693,0.999976,-0.006649,-0.001718,-0.000349
2893,0.026944,-0.139459,9.925261,-0.004660,-0.066994,-0.075188,-0.769658,-0.194340,-0.041118,0.999976,-0.006717,-0.001693,-0.000370
2894,0.023867,-0.139074,9.922071,-0.009263,-0.065435,-0.066033,-0.774982,-0.190037,-0.043425,0.999976,-0.006764,-0.001656,-0.000390
2895,0.020936,-0.134133,9.920922,-0.000118,-0.066920,-0.062980,-0.777332,-0.183894,-0.045538,0.999976,-0.006784,-0.001602,-0.000408
2896,0.023756,-0.135613,9.917964,0.010562,-0.069933,-0.067558,-0.777530,-0.178483,-0.047682,0.999976,-0.006786,-0.001555,-0.000427
2897,0.019980,-0.137563,9.915611,0.009027,-0.062266,-0.082816,-0.778753,-0.173406,-0.050153,0.999976,-0.006796,-0.001510,-0.000448
2898,0.022950,-0.144487,9.915922,0.031892,-0.059180,-0.084342,-0.782953,-0.168545,-0.052897,0.999975,-0.006833,-0.001468,-0.000472
2899,0.027673,-0.147195,9.915291,0.036428,-0.059163,-0.084341,-0.790047,-0.167258,-0.055657,0.999975,-0.006895,-0.001456,-0.000496
2900,0.026936,-0.148587,9.917932,0.037908,-0.066787,-0.091971,-0.797855,-0.168043,-0.058540,0.999975,-0.006963,-0.001463,-0.000521
2901,0.027515,-0.150243,9.912523,0.021077,-0.063728,-0.084341,-0.806115,-0.168880,-0.061421,0.999974,-0.007035,-0.001470,-0.000546
2902,0.035294,-0.145985,9.917715,0.022567,-0.074418,-0.073659,-0.812560,-0.172951,-0.064000,0.999974,-0.007092,-0.001505,-0.000569
2903,0.037506,-0.141288,9.917624,0.008820,-0.074445,-0.073659,-0.814751,-0.180713,-0.066412,0.999973,-0.007111,-0.001573,-0.000591
2904,0.032968,-0.132135,9.924268,0.014941,-0.074462,-0.067557,-0.811127,-0.186782,-0.068740,0.999973,-0.007079,-0.001626,-0.000611
2905,0.035304,-0.135817,9.923837,-0.003344,-0.062263,-0.053823,-0.805662,-0.190864,-0.070748,0.999974,-0.007032,-0.001661,-0.000629
2906,0.035511,-0.131116,9.929976,0.007363,-0.048540,-0.052297,-0.800510,-0.194805,-0.072507,0.999974,-0.006987,-0.001696,-0.000645
2907,0.026456,-0.132586,9.927526,0.008916,-0.042427,-0.056875,-0.794598,-0.194472,-0.074325,0.999974,-0.006935,-0.001693,-0.000660
2908,0.026062,-0.129456,9.926787,0.002840,-0.036294,-0.061453,-0.788876,-0.190065,-0.076297,0.999975,-0.006885,-0.001654,-0.000677
2909,0.028944,-0.132583,9.921063,0.007442,-0.036272,-0.072133,-0.783986,-0.186839,-0.078522,0.999975,-0.006843,-0.001626,-0.000696
2910,0.027291,-0.126674,9.921864,0.012045,-0.040833,-0.085867,-0.778602,-0.184682,-0.081153,0.999975,-0.006796,-0.001607,-0.000719
2911,0.024856,-0.124737,9.922538,0.019712,-0.056068,-0.098074,-0.770670,-0.181643,-0.084221,0.999976,-0.006726,-0.001580,-0.000746
2912,0.028028,-0.129674,9.923571,0.027369,-0.062152,-0.102652,-0.764516,-0.179592,-0.087556,0.999976,-0.006673,-0.001562,-0.000775
2913,0.023857,-0.138954,9.922673,0.034993,-0.069761,-0.096548,-0.764518,-0.177722,-0.090843,0.999976,-0.006673,-0.001546,-0.000803
2914,0.019521,-0.139835,9.925007,0.018181,-0.060570,-0.102651,-0.768986,-0.172813,-0.094117,0.999976,-0.006712,-0.001503,-0.000831
2915,0.029047,-0.141184,9.922411,0.016626,-0.051390,-0.091968,-0.774322,-0.170046,-0.097318,0.999976,-0.006758,-0.001478,-0.000859
2916,0.027581,-0.144262,9.918897,-0.003246,-0.039178,-0.085866,-0.781100,-0.170539,-0.100240,0.999975,-0.006818,-0.001482,-0.000885
2917,0.028199,-0.150039,9.923381,-0.009398,-0.036120,-0.081287,-0.790907,-0.170600,-0.102980,0.999975,-0.006903,-0.001483,-0.000909
2918,0.033535,-0.143667,9.921173,-0.009440,-0.031547,-0.078235,-0.799470,-0.172785,-0.105598,0.999974,-0.006978,-0.001501,-0.000932
2919,0.031358,-0.142544,9.921372,-0.003357,-0.039187,-0.070605,-0.803835,-0.176087,-0.108050,0.999974,-0.007016,-0.001530,-0.000954
2920,0.023190,-0.143153,9.923154,0.002732,-0.048331,-0.066028,-0.806927,-0.175317,-0.110297,0.999974,-0.007043,-0.001523,-0.000973
2921,0.027332,-0.146111,9.921428,0.030179,-0.057467,-0.070605,-0.810336,-0.173132,-0.112537,0.999973,-0.007073,-0.001504,-0.000993
2922,0.028470,-0.142073,9.913125,0.014903,-0.062037,-0.067553,-0.812748,-0.173417,-0.114802,0.999973,-0.007094,-0.001506,-0.001013
2923,0.023357,-0.132596,9.917709,0.017968,-0.062021,-0.069078,-0.809793,-0.172377,-0.117057,0.999973,-0.007068,-0.001497,-0.001032
2924,0.025995,-0.140118,9.916690,0.016458,-0.065053,-0.075182,-0.806075,-0.170482,-0.119440,0.999974,-0.007036,-0.001480,-0.001053
2925,0.029365,-0.142372,9.917961,0.016452,-0.061993,-0.087389,-0.806589,-0.171100,-0.122116,0.999974,-0.007040,-0.001486,-0.001076
2926,0.028632,-0.140992,9.917583,0.008814,-0.060465,-0.082812,-0.807776,-0.172743,-0.124919,0.999973,-0.007051,-0.001500,-0.001101
2927,0.027874,-0.139717,9.919013,0.016442,-0.048252,-0.085864,-0.807821,-0.173431,-0.127703,0.999973,-0.007051,-0.001506,-0.001125
2928,0.030586,-0.153052,9.918612,0.022520,-0.052826,-0.098070,-0.812193,-0.174591,-0.130729,0.999973,-0.007089,-0.001515,-0.001152
2929,0.030562,-0.150382,9.917641,0.016372,-0.045199,-0.091967,-0.820385,-0.176615,-0.133846,0.999972,-0.007161,-0.001533,-0.001179
2930,0.029047,-0.151010,9.915204,-0.000450,-0.049774,-0.073655,-0.827357,-0.177782,-0.136561,0.999972,-0.007222,-0.001543,-0.001203
2931,0.031106,-0.147340,9.918487,-0.011157,-0.058927,-0.076707,-0.832602,-0.179170,-0.139025,0.999972,-0.007268,-0.001555,-0.001225
2932,0.032359,-0.144626,9.920431,-0.017269,-0.065034,-0.072129,-0.834824,-0.181911,-0.141470,0.999972,-0.007287,-0.001578,-0.001246
2933,0.031685,-0.132754,9.922319,-0.037084,-0.068089,-0.058396,-0.831346,-0.184743,-0.143627,0.999972,-0.007257,-0.001603,-0.001265
2934,0.035379,-0.132674,9.923832,-0.018729,-0.061992,-0.059922,-0.823358,-0.188309,-0.145596,0.999972,-0.007187,-0.001634,-0.001282
2935,0.035794,-0.136854,9.924090,-0.021748,-0.060479,-0.079760,-0.817446,-0.192904,-0.147916,0.999972,-0.007136,-0.001674,-0.001303
2936,0.037168,-0.137663,9.920984,-0.012573,-0.062018,-0.067553,-0.814292,-0.197651,-0.150355,0.999972,-0.007108,-0.001715,-0.001324
2937,0.037300,-0.145354,9.919317,-0.012574,-0.060505,-0.079760,-0.814888,-0.202361,-0.152780,0.999972,-0.007114,-0.001756,-0.001346
2938,0.038449,-0.149989,9.918987,-0.001918,-0.068148,-0.079760,-0.820232,-0.207042,-0.155390,0.999972,-0.007160,-0.001797,-0.001369
2939,0.035669,-0.148412,9.919053,-0.011104,-0.072732,-0.075182,-0.826334,-0.210672,-0.157917,0.999971,-0.007214,-0.001828,-0.001391
2940,0.032631,-0.149143,9.922736,-0.006550,-0.074250,-0.067553,-0.831404,-0.211602,-0.160243,0.999971,-0.007258,-0.001836,-0.001412
2941,0.025153,-0.150188,9.927062,0.002583,-0.054382,-0.070604,-0.836138,-0.207865,-0.162497,0.999971,-0.007299,-0.001804,-0.001431
2942,0.023868,-0.149246,9.932219,0.011718,-0.063493,-0.069076,-0.839900,-0.200754,-0.164782,0.999971,-0.007332,-0.001741,-0.001451
2943,0.022113,-0.144850,9.933261,0.008659,-0.054289,-0.078232,-0.840905,-0.193192,-0.167204,0.999971,-0.007341,-0.001675,-0.001471
2944,0.022611,-0.142017,9.937601,0.005617,-0.054244,-0.073653,-0.838885,-0.185967,-0.169714,0.999971,-0.007323,-0.001612,-0.001493
2945,0.022572,-0.135873,9.934212,0.010220,-0.046575,-0.075179,-0.833450,-0.179775,-0.172186,0.999971,-0.007276,-0.001558,-0.001514
2946,0.025476,-0.128144,9.933042,0.008743,-0.051124,-0.081283,-0.823152,-0.175532,-0.174801,0.999972,-0.007186,-0.001521,-0.001536
2947,0.029517,-0.125739,9.933108,-0.001874,-0.043481,-0.081283,-0.810213,-0.174605,-0.177526,0.999973,-0.007073,-0.001513,-0.001560
2948,0.029944,-0.135531,9.929645,-0.001832,-0.049582,-0.076705,-0.801858,-0.175718,-0.180163,0.999973,-0.007000,-0.001522,-0.001583
2949,0.030028,-0.139616,9.927728,-0.055231,-0.057210,-0.093490,-0.801176,-0.177253,-0.182979,0.999973,-0.006994,-0.001536,-0.001608
2950,0.033354,-0.145144,9.926958,-0.130015,-0.061792,-0.090438,-0.806944,-0.180132,-0.186008,0.999973,-0.007044,-0.001560,-0.001634
2951,0.031856,-0.156702,9.925753,-0.157526,-0.067903,-0.091965,-0.820662,-0.183601,-0.188989,0.999972,-0.007164,-0.001590,-0.001661
2952,0.025595,-0.147446,9.918386,-0.090429,-0.069418,-0.087386,-0.833356,-0.183798,-0.191918,0.999971,-0.007275,-0.001592,-0.001686
2953,0.026675,-0.138699,9.918025,-0.067539,-0.063292,-0.091964,-0.835905,-0.181688,-0.194875,0.999971,-0.007297,-0.001573,-0.001712
2954,0.024869,-0.134221,9.914125,-0.007996,-0.061744,-0.066023,-0.830994,-0.179297,-0.197497,0.999971,-0.007254,-0.001552,-0.001735
2955,0.025383,-0.135962,9.913415,0.050022,-0.058668,-0.069075,-0.823254,-0.176630,-0.199741,0.999972,-0.007187,-0.001529,-0.001754
2956,0.031918,-0.135810,9.917390,-0.012512,-0.057134,-0.059919,-0.817028,-0.176934,-0.201880,0.999972,-0.007133,-0.001531,-0.001773
2957,0.034545,-0.150261,9.924099,-0.102545,-0.055618,-0.055342,-0.819722,-0.180856,-0.203772,0.999972,-0.007156,-0.001566,-0.001789
2958,0.031422,-0.149739,9.924041,-0.044592,-0.046471,-0.062971,-0.828510,-0.184120,-0.205699,0.999971,-0.007233,-0.001594,-0.001807
2959,0.034310,-0.152117,9.925665,-0.072091,-0.044949,-0.085860,-0.836730,-0.186643,-0.208137,0.999970,-0.007305,-0.001615,-0.001828
2960,0.033763,-0.147934,9.926248,-0.114839,-0.051061,-0.082808,-0.844277,-0.189760,-0.210910,0.999970,-0.007371,-0.001642,-0.001853
2961,0.029042,-0.149157,9.930744,-0.133161,-0.055633,-0.096541,-0.850623,-0.190648,-0.213865,0.999969,-0.007426,-0.001650,-0.001879
2962,0.029259,-0.138219,9.929879,-0.032437,-0.058670,-0.099593,-0.850911,-0.189664,-0.217114,0.999969,-0.007429,-0.001641,-0.001907
2963,0.031849,-0.137800,9.932817,-0.059867,-0.066291,-0.093489,-0.845156,-0.189941,-0.220325,0.999970,-0.007378,-0.001643,-0.001935
2964,0.032096,-0.137567,9.932098,-0.104084,-0.069339,-0.093489,-0.840698,-0.191529,-0.223431,0.999970,-0.007340,-0.001657,-0.001962
2965,0.031883,-0.140821,9.933428,-0.084220,-0.063231,-0.105697,-0.838485,-0.192956,-0.226736,0.999970,-0.007320,-0.001669,-0.001991
2966,0.031322,-0.138076,9.927989,-0.165070,-0.058647,-0.101119,-0.837949,-0.193714,-0.230168,0.999970,-0.007316,-0.001676,-0.002021
2967,0.034402,-0.138058,9.922019,-0.282540,-0.054066,-0.096541,-0.839902,-0.195155,-0.233453,0.999970,-0.007333,-0.001688,-0.002050
2968,0.036613,-0.146769,9.918465,-0.354246,-0.060177,-0.104171,-0.848310,-0.198525,-0.236778,0.999969,-0.007406,-0.001717,-0.002079
2969,0.036554,-0.142003,9.917850,-0.273365,-0.060187,-0.099593,-0.857416,-0.202511,-0.240148,0.999968,-0.007486,-0.001752,-0.002109
2970,0.036658,-0.153553,9.913541,-0.235218,-0.055616,-0.096541,-0.866012,-0.205954,-0.243386,0.999968,-0.007561,-0.001781,-0.002137
2971,0.037371,-0.143653,9.912566,-0.142135,-0.051045,-0.093489,-0.871906,-0.209070,-0.246528,0.999967,-0.007613,-0.001808,-0.002165
2973,0.038085,-0.154676,9.915497,-0.163493,-0.076993,-0.104171,-0.876059,-0.212654,-0.249792,0.999967,-0.007649,-0.001839,-0.002194
2974,0.043439,-0.169118,9.915869,-0.061297,-0.070905,-0.099593,-0.887982,-0.218456,-0.253119,0.999966,-0.007753,-0.001889,-0.002224
2975,0.042075,-0.179121,9.920568,-0.102580,-0.066349,-0.099593,-0.907198,-0.224983,-0.256339,0.999964,-0.007921,-0.001946,-0.002252
2976,0.040365,-0.163880,9.924598,-0.310167,-0.084671,-0.079757,-0.926413,-0.229716,-0.259239,0.999963,-0.008089,-0.001986,-0.002278
2977,0.041474,-0.183870,9.925508,-0.496388,-0.138084,-0.043134,-0.951427,-0.234639,-0.261180,0.999961,-0.008307,-0.002029,-0.002296
2978,0.038153,-0.183142,9.922193,-0.548350,-0.133504,-0.006512,-0.984894,-0.238865,-0.261865,0.999958,-0.008599,-0.002065,-0.002303
2979,0.028467,-0.175766,9.921638,-0.713195,-0.145683,0.027060,-1.014990,-0.237588,-0.261406,0.999956,-0.008862,-0.002053,-0.002299
2980,0.030985,-0.174678,9.920476,-0.763559,-0.162423,0.028587,-1.041193,-0.233828,-0.260385,0.999954,-0.009091,-0.002020,-0.002291
2981,0.037327,-0.191081,9.920750,-0.656763,-0.182235,0.001120,-1.068600,-0.234432,-0.259772,0.999952,-0.009330,-0.002025,-0.002286
2982,0.033936,-0.179628,9.920180,-0.186788,-0.089135,-0.053812,-1.084722,-0.235187,-0.260558,0.999951,-0.009470,-0.002031,-0.002293
2983,0.038894,-0.180711,9.918223,0.046703,-0.038762,-0.090434,-1.082237,-0.234097,-0.262941,0.999951,-0.009449,-0.002021,-0.002314
2984,0.041716,-0.181209,9.922614,0.179483,-0.011294,-0.128583,-1.073326,-0.234746,-0.266596,0.999951,-0.009371,-0.002027,-0.002346
2985,0.039413,-0.178350,9.921601,0.524370,0.048217,-0.143842,-1.056276,-0.234186,-0.271169,0.999953,-0.009222,-0.002022,-0.002385
2986,0.032947,-0.154492,9.922634,0.941016,0.109271,-0.143842,-1.017983,-0.228239,-0.276066,0.999956,-0.008888,-0.001970,-0.002427
2987,0.035671,-0.155176,9.917141,0.941111,0.081826,-0.128583,-0.967542,-0.220723,-0.280734,0.999959,-0.008448,-0.001905,-0.002466
2988,0.030337,-0.155363,9.921624,0.927442,0.063538,-0.111798,-0.923587,-0.213851,-0.284827,0.999963,-0.008064,-0.001846,-0.002501
2989,0.027400,-0.147993,9.918421,0.941222,0.049838,-0.093486,-0.883153,-0.205273,-0.288309,0.999966,-0.007711,-0.001772,-0.002530
2990,0.030761,-0.146198,9.916308,0.741361,0.007140,-0.076700,-0.847951,-0.198823,-0.291181,0.999968,-0.007404,-0.001716,-0.002554
2991,0.035305,-0.153099,9.915564,0.443806,-0.006586,-0.058389,-0.828067,-0.197354,-0.293432,0.999969,-0.007231,-0.001704,-0.002573
2992,0.032125,-0.145557,9.921031,0.340027,-0.017265,-0.066019,-0.818272,-0.197335,-0.295488,0.999970,-0.007145,-0.001704,-0.002591
2993,0.030378,-0.132323,9.921089,0.312574,-0.020306,-0.087382,-0.804610,-0.195747,-0.298045,0.999970,-0.007026,-0.001690,-0.002613
2994,0.031138,-0.124641,9.919036,0.304991,-0.018767,-0.105693,-0.785053,-0.193922,-0.301284,0.999972,-0.006855,-0.001674,-0.002641
2995,0.027176,-0.123673,9.918480,0.240954,-0.021802,-0.120952,-0.765584,-0.191126,-0.305086,0.999973,-0.006685,-0.001650,-0.002673
2996,0.025100,-0.128838,9.917852,0.244036,-0.029404,-0.157574,-0.751353,-0.186502,-0.309736,0.999974,-0.006561,-0.001610,-0.002714
2997,0.030804,-0.131191,9.915190,0.317285,-0.026334,-0.209456,-0.741003,-0.183867,-0.315843,0.999974,-0.006471,-0.001587,-0.002767
2998,0.033290,-0.128470,9.914746,0.341697,-0.038541,-0.239973,-0.730533,-0.185043,-0.323317,0.999974,-0.006380,-0.001597,-0.002832
2999,0.033215,-0.128551,9.920168,0.172316,-0.029390,-0.258284,-0.722823,-0.187299,-0.331604,0.999975,-0.006312,-0.001616,-0.002904
3000,0.038226,-0.120757,9.922530,0.138750,-0.018722,-0.293382,-0.716697,-0.190896,-0.340791,0.999975,-0.006259,-0.001647,-0.002984
3001,0.034314,-0.097677,9.921803,0.025890,-0.023314,-0.320848,-0.702037,-0.194434,-0.351059,0.999975,-0.006132,-0.001678,-0.003074
3002,0.033856,-0.102089,9.924697,-0.553872,-0.056887,-0.349842,-0.693109,-0.196457,-0.362279,0.999975,-0.006054,-0.001695,-0.003172
3003,0.059246,-0.270124,9.924706,-0.981382,-0.018788,-1.889500,-0.768779,-0.207959,-0.399404,0.999970,-0.006715,-0.001791,-0.003498
3004,0.047451,-0.214554,9.914843,-0.174534,0.225301,-8.396045,-0.860828,-0.218862,-0.570584,0.999958,-0.007521,-0.001872,-0.004993
3005,0.040952,-0.234835,9.911519,-0.456993,0.295480,-10.901614,-0.902384,-0.217847,-0.892182,0.999937,-0.007889,-0.001840,-0.007800
3006,0.044376,-0.254915,9.909821,-0.414445,0.339722,-12.552664,-0.951017,-0.215465,-1.283069,0.999901,-0.008320,-0.001787,-0.011212
3007,0.041101,-0.256519,9.905667,0.096556,0.400749,-13.913791,-0.991449,-0.212628,-1.724178,0.999847,-0.008679,-0.001725,-0.015061
3008,0.014695,-0.100497,9.904704,0.340683,0.438915,-14.873595,-0.986496,-0.203380,-2.204115,0.999776,-0.008641,-0.001609,-0.019248
3009,0.030026,-0.158688,9.912951,-0.509176,0.298556,-11.913301,-0.971786,-0.193396,-2.650760,0.999695,-0.008517,-0.001491,-0.023144
3010,0.037329,-0.154441,9.917893,-0.509152,0.347387,-13.631495,-0.982359,-0.189685,-3.076642,0.999601,-0.008614,-0.001425,-0.026859
3011,0.039478,-0.174970,9.922077,-0.733454,0.457243,-17.043463,-0.999660,-0.187132,-3.588045,0.999470,-0.008770,-0.001359,-0.031319
3012,0.043959,-0.169994,9.922388,-0.919620,0.640337,-22.050024,-1.025426,-0.183865,-4.239810,0.999274,-0.009002,-0.001272,-0.037004
3013,0.040332,-0.169933,9.924491,-0.966912,0.789858,-26.046423,-1.052246,-0.178413,-5.041693,0.998988,-0.009242,-0.001152,-0.043995
3014,0.032930,-0.194304,9.921280,-1.145450,0.898188,-29.337843,-1.085494,-0.169517,-5.965073,0.998599,-0.009537,-0.000984,-0.052043
3015,0.033514,-0.183940,9.920423,-0.882999,0.997367,-32.055515,-1.117921,-0.158814,-6.988635,0.998092,-0.009822,-0.000789,-0.060960
3016,0.030060,-0.168297,9.920203,-0.361103,1.050769,-32.952763,-1.130119,-0.147192,-8.072487,0.997470,-0.009928,-0.000587,-0.070397
3017,0.021813,-0.172395,9.922594,-0.057397,1.035511,-32.360699,-1.125071,-0.133573,-9.161440,0.996756,-0.009880,-0.000378,-0.079871
3018,0.027337,-0.156690,9.923140,0.568292,0.942429,-30.183205,-1.102407,-0.120953,-10.204213,0.995990,-0.009676,-0.000196,-0.088937
3019,0.034851,-0.108849,9.920393,1.305428,0.785241,-25.718349,-1.046129,-0.113054,-11.136257,0.995239,-0.009182,-0.000096,-0.097034
3020,0.030928,-0.134658,9.918454,1.017152,0.652461,-21.877596,-0.981147,-0.107891,-11.929825,0.994548,-0.008613,-0.000047,-0.103924
3021,0.032213,-0.122885,9.917485,0.393140,0.605133,-21.113108,-0.938335,-0.103752,-12.646595,0.993882,-0.008238,0.000002,-0.110142
3022,0.040317,-0.113519,9.920021,-0.104221,0.566950,-20.574459,-0.913802,-0.102389,-13.341623,0.993197,-0.008024,0.000039,-0.116168
3023,0.040843,-0.135377,9.921647,-0.941884,0.592848,-21.126844,-0.916159,-0.102934,-14.036865,0.992474,-0.008045,0.000085,-0.122192
3024,0.035680,-0.173384,9.926342,-1.866587,0.679786,-23.971169,-0.960037,-0.101971,-14.788715,0.991648,-0.008423,0.000196,-0.128701
3025,0.037690,-0.168363,9.923234,-1.839137,0.754520,-25.921305,-1.023555,-0.099814,-15.620492,0.990683,-0.008968,0.000351,-0.135895
3026,0.043761,-0.182444,9.923377,-1.369158,0.749897,-25.661898,-1.076920,-0.099430,-16.480465,0.989631,-0.009425,0.000488,-0.143326
3027,0.040593,-0.194039,9.921659,-1.294400,0.752901,-25.826698,-1.122249,-0.100422,-17.338867,0.988525,-0.009814,0.000610,-0.150735
3028,0.041759,-0.206022,9.918937,-1.379871,0.786425,-26.342459,-1.168993,-0.101341,-18.208632,0.987349,-0.010213,0.000741,-0.158233
3029,0.048250,-0.212323,9.915455,-1.077758,0.826046,-26.530151,-1.212556,-0.103397,-19.090137,0.986098,-0.010584,0.000865,-0.165823
3030,0.048073,-0.208138,9.915321,-0.830566,0.836670,-26.945204,-1.244314,-0.106502,-19.981718,0.984775,-0.010855,0.000969,-0.173491
3031,0.045792,-0.201649,9.917555,-1.117425,0.888495,-27.726477,-1.272083,-0.108815,-20.893263,0.983361,-0.011089,0.001079,-0.181319
3032,0.051707,-0.204908,9.917911,-1.024316,0.938793,-27.512852,-1.300418,-0.110637,-21.814312,0.981869,-0.011326,0.001199,-0.189217
3033,0.048769,-0.200658,9.917968,-0.384914,0.921948,-27.013872,-1.314472,-0.112390,-22.723513,0.980336,-0.011439,0.001298,-0.197001
3034,0.046459,-0.176123,9.921242,0.323187,0.866961,-26.244810,-1.299123,-0.113674,-23.611578,0.978781,-0.011300,0.001348,-0.204593
3035,0.046764,-0.175051,9.924016,0.445359,0.839442,-25.553564,-1.265058,-0.114896,-24.475292,0.977215,-0.011001,0.001360,-0.211965
3036,0.046584,-0.219412,9.921706,0.175318,0.847020,-25.925892,-1.243425,-0.115911,-25.333666,0.975601,-0.010808,0.001393,-0.219279
3037,0.046759,-0.210823,9.917714,0.445411,0.808820,-26.273808,-1.230512,-0.117428,-26.204008,0.973909,-0.010691,0.001436,-0.226683
3038,0.051282,-0.184772,9.919422,0.742999,0.772142,-25.211763,-1.202621,-0.120379,-27.062429,0.972186,-0.010449,0.001434,-0.233973
3039,0.051913,-0.206333,9.913218,0.457680,0.721728,-23.167023,-1.175099,-0.124123,-27.869057,0.970517,-0.010214,0.001418,-0.240811
3040,0.049113,-0.217231,9.910180,-0.001636,0.698782,-23.525618,-1.168132,-0.127707,-28.647545,0.968859,-0.010153,0.001442,-0.247399
3041,0.042155,-0.211813,9.905101,-0.422814,0.797921,-25.509317,-1.177962,-0.128729,-29.465090,0.967069,-0.010227,0.001528,-0.254305
3042,0.035572,-0.232286,9.907921,-0.638007,0.813148,-26.215828,-1.201130,-0.126234,-30.327480,0.965126,-0.010405,0.001679,-0.261575
3043,0.032129,-0.253058,9.909353,-1.166049,0.858903,-28.497084,-1.243448,-0.122397,-31.239660,0.963009,-0.010738,0.001893,-0.269248
3044,0.041771,-0.222673,9.917771,-0.825818,0.941274,-30.947721,-1.284695,-0.120243,-32.230728,0.960641,-0.011062,0.002104,-0.277566
3045,0.045468,-0.211150,9.924560,0.683325,0.901556,-27.196999,-1.284259,-0.119898,-33.200169,0.958258,-0.011039,0.002199,-0.285683
3046,0.053512,-0.162918,9.926400,1.908713,0.602420,-19.938171,-1.225734,-0.122959,-33.986095,0.956282,-0.010543,0.002100,-0.292250
3047,0.056345,-0.153769,9.928841,1.644840,0.455866,-15.447373,-1.142443,-0.130416,-34.576138,0.954771,-0.009857,0.001876,-0.297172
3048,0.082113,-0.147383,9.922786,0.244146,0.409997,-15.055213,-1.088739,-0.144064,-35.084751,0.953447,-0.009438,0.001665,-0.301409
3049,0.075522,-0.176984,9.918276,-2.101142,0.521284,-16.082165,-1.106369,-0.159732,-35.603935,0.952070,-0.009619,0.001625,-0.305726
3050,0.065163,-0.292109,9.926672,-4.097137,0.594443,-18.445826,-1.225115,-0.169897,-36.179577,0.950511,-0.010623,0.001910,-0.310504
3051,0.067339,-0.338255,9.929109,-5.394391,0.618786,-22.832861,-1.424715,-0.180195,-36.867649,0.948609,-0.012292,0.002440,-0.316203
3052,0.071936,-0.355757,9.926702,-5.596038,0.691954,-26.098343,-1.650333,-0.195361,-37.683231,0.946308,-0.014180,0.003038,-0.322942
3053,0.055652,-0.372142,9.924758,-4.395323,0.752931,-25.120222,-1.851325,-0.209331,-38.536987,0.943848,-0.015853,0.003607,-0.329980
3054,0.056508,-0.376064,9.927554,-2.755089,0.699484,-23.922373,-1.994611,-0.220564,-39.354542,0.941449,-0.017037,0.004049,-0.336702
3055,0.069516,-0.290486,9.913854,-1.955505,0.752841,-25.037827,-2.069930,-0.235124,-40.170845,0.939014,-0.017669,0.004276,-0.343399
3056,0.068570,-0.249186,9.914102,-1.085569,0.931317,-24.673132,-2.085564,-0.248384,-40.999916,0.936501,-0.017805,0.004343,-0.350185
3057,0.065965,-0.218505,9.915067,-0.674853,1.036557,-24.427464,-2.062882,-0.254929,-41.819073,0.933977,-0.017609,0.004347,-0.356872
3058,0.068121,-0.238460,9.918164,-0.576943,1.154009,-26.466103,-2.029670,-0.257723,-42.668251,0.931312,-0.017316,0.004349,-0.363785
3059,0.074041,-0.254437,9.913851,-0.498914,1.230254,-28.431494,-2.001961,-0.260494,-43.584187,0.928378,-0.017065,0.004375,-0.371219
3060,0.077843,-0.250650,9.912466,-0.431587,1.272920,-29.195988,-1.975968,-0.264127,-44.545631,0.925235,-0.016830,0.004403,-0.378997
3061,0.078150,-0.272638,9.912764,-0.333769,1.231657,-28.257545,-1.952476,-0.267784,-45.504147,0.922035,-0.016616,0.004435,-0.386724
3062,0.082586,-0.281744,9.913348,-0.300078,1.199546,-27.499163,-1.934491,-0.272040,-46.434326,0.918868,-0.016449,0.004473,-0.394197
3063,0.084293,-0.250978,9.914513,-0.324358,1.132335,-26.029701,-1.913652,-0.277300,-47.327351,0.915771,-0.016266,0.004486,-0.401347
3064,0.081571,-0.253243,9.914227,-0.565298,1.156681,-26.229601,-1.893065,-0.281708,-48.199242,0.912693,-0.016083,0.004501,-0.408305
3065,0.055942,-0.253972,9.913281,-0.615508,1.268035,-28.526119,-1.879080,-0.279222,-49.112766,0.909411,-0.015927,0.004599,-0.415568
3066,0.063550,-0.281885,9.911798,-0.549780,1.362620,-30.398428,-1.871279,-0.271863,-50.095810,0.905814,-0.015798,0.004764,-0.423353
3067,0.060443,-0.315354,9.910614,-0.510056,1.335127,-30.082565,-1.874246,-0.265400,-51.104729,0.902052,-0.015754,0.004965,-0.431311
3068,0.056298,-0.344413,9.910606,-0.462763,1.261859,-28.565796,-1.888229,-0.258831,-52.083015,0.898336,-0.015796,0.005205,-0.438995
3069,0.054980,-0.343108,9.917809,-0.174398,1.116876,-25.474272,-1.901797,-0.252962,-52.984398,0.894853,-0.015837,0.005427,-0.446046
3070,0.081464,-0.339075,9.922860,-0.194260,0.933720,-21.604527,-1.909412,-0.254069,-53.769695,0.891774,-0.015864,0.005557,-0.452168
3071,0.077300,-0.332986,9.923012,-0.409427,0.924496,-21.439728,-1.918488,-0.260714,-54.487690,0.888922,-0.015925,0.005641,-0.457747
3072,0.077792,-0.323100,9.920708,-0.436887,1.031248,-23.598917,-1.927789,-0.266012,-55.238987,0.885900,-0.015981,0.005742,-0.463565
3073,0.081129,-0.321062,9.920041,-0.346836,1.037286,-23.951408,-1.932895,-0.271264,-56.032188,0.882669,-0.016002,0.005833,-0.469687
3074,0.083720,-0.330007,9.915289,-0.265945,1.026536,-23.899527,-1.935926,-0.277617,-56.830395,0.879375,-0.016011,0.005908,-0.475824
3076,0.082052,-0.317560,9.919086,-0.088917,0.985268,-23.133516,-1.933697,-0.284183,-57.614956,0.876096,-0.015980,0.005958,-0.481835
3077,0.083645,-0.302173,9.918235,0.210214,0.853972,-19.930601,-1.918376,-0.290813,-58.333340,0.873060,-0.015854,0.005943,-0.487319
3078,0.085690,-0.289076,9.921616,0.793190,0.769979,-15.676323,-1.884001,-0.296842,-58.927418,0.870526,-0.015588,0.005831,-0.491841
3079,0.077715,-0.258103,9.929111,1.365520,0.747031,-12.520711,-1.824098,-0.298579,-59.398060,0.868506,-0.015117,0.005623,-0.495416
3080,0.075725,-0.229613,9.931177,1.719683,0.656954,-9.181990,-1.740986,-0.296054,-59.760487,0.866946,-0.014460,0.005329,-0.498164
3081,0.074017,-0.221540,9.925223,1.976199,0.511946,-5.986703,-1.646024,-0.292994,-60.013947,0.865854,-0.013717,0.004969,-0.500084
3082,0.071294,-0.206697,9.924898,2.147331,0.374552,-3.612367,-1.530871,-0.294904,-60.174545,0.865166,-0.012849,0.004471,-0.501302
3083,0.068539,-0.183691,9.927204,1.862291,0.182212,-1.972001,-1.401972,-0.302584,-60.268177,0.864769,-0.011906,0.003858,-0.502014
3084,0.072145,-0.191719,9.917528,1.363569,0.029547,-0.961841,-1.296923,-0.314509,-60.317429,0.864563,-0.011164,0.003313,-0.502390
3085,0.071530,-0.196982,9.915359,1.258431,-0.065131,-0.403355,-1.222872,-0.329790,-60.340351,0.864468,-0.010672,0.002875,-0.502566
3086,0.071873,-0.196736,9.916329,1.173061,-0.081977,-0.305698,-1.165937,-0.344761,-60.352219,0.864420,-0.010308,0.002514,-0.502658
3087,0.076848,-0.184071,9.916389,1.182278,-0.089669,-0.241610,-1.114038,-0.360107,-60.361366,0.864384,-0.009984,0.002171,-0.502729
3088,0.086111,-0.208243,9.912758,1.550031,-0.079066,-0.224827,-1.067577,-0.378844,-60.369095,0.864353,-0.009715,0.001826,-0.502789
3089,0.084634,-0.223567,9.922407,1.957348,-0.060837,-0.252295,-1.029906,-0.397803,-60.376881,0.864320,-0.009514,0.001519,-0.502849
3090,0.084820,-0.207240,9.926831,2.007575,-0.030386,-0.253821,-0.989714,-0.412897,-60.385128,0.864287,-0.009277,0.001229,-0.502913
3091,0.085562,-0.184292,9.927755,1.961717,-0.012131,-0.223303,-0.939489,-0.425237,-60.392971,0.864255,-0.008952,0.000916,-0.502973
3092,0.081571,-0.183542,9.929488,1.682408,-0.004545,-0.215674,-0.891582,-0.434042,-60.400196,0.864227,-0.008630,0.000640,-0.503028
3093,0.072572,-0.158221,9.930230,1.046051,-0.018288,-0.194311,-0.855437,-0.436526,-60.406952,0.864200,-0.008368,0.000463,-0.503079
3094,0.076643,-0.114334,9.920561,0.611219,-0.035069,-0.145481,-0.816181,-0.436879,-60.412685,0.864177,-0.008073,0.000289,-0.503123
3095,0.078182,-0.117822,9.916862,0.039108,-0.064069,-0.114964,-0.783268,-0.439983,-60.417179,0.864160,-0.007839,0.000121,-0.503157
3096,0.081197,-0.133955,9.914785,-0.232458,-0.079343,-0.098178,-0.776817,-0.445353,-60.420765,0.864144,-0.007814,0.000052,-0.503184
3097,0.080647,-0.137457,9.914783,-0.221780,-0.080886,-0.085972,-0.784914,-0.451387,-60.423798,0.864130,-0.007901,0.000043,-0.503207
3098,0.084462,-0.143096,9.913420,-0.104303,-0.074802,-0.076816,-0.794297,-0.457842,-60.426441,0.864117,-0.008000,0.000035,-0.503227
3099,0.080906,-0.150465,9.917952,-0.067720,-0.076343,-0.089024,-0.804938,-0.463479,-60.429111,0.864104,-0.008105,0.000040,-0.503247
3100,0.080117,-0.133513,9.914403,0.045185,-0.077872,-0.076816,-0.808056,-0.466685,-60.431812,0.864092,-0.008143,0.000030,-0.503268
3101,0.075424,-0.127409,9.918038,0.144405,-0.053447,-0.078342,-0.797844,-0.466807,-60.434433,0.864081,-0.008066,-0.000016,-0.503288
3102,0.074744,-0.120101,9.916443,0.130731,-0.048847,-0.081394,-0.781502,-0.464148,-60.437149,0.864071,-0.007932,-0.000068,-0.503308
3103,0.075304,-0.127989,9.918641,0.052956,-0.053403,-0.063083,-0.768678,-0.461606,-60.439625,0.864061,-0.007824,-0.000105,-0.503327
3104,0.071811,-0.115622,9.915897,0.071315,-0.045748,-0.053927,-0.757069,-0.458225,-60.441624,0.864053,-0.007721,-0.000130,-0.503342
3105,0.072807,-0.122671,9.920390,0.176654,-0.028935,-0.069187,-0.742971,-0.453865,-60.443741,0.864045,-0.007596,-0.000159,-0.503357
3106,0.074250,-0.127212,9.916089,0.161415,-0.035018,-0.079868,-0.733545,-0.450786,-60.446243,0.864035,-0.007511,-0.000177,-0.503376
3107,0.070448,-0.128572,9.915059,0.146155,-0.028891,-0.081394,-0.728492,-0.447311,-60.448917,0.864024,-0.007458,-0.000173,-0.503396
3108,0.067817,-0.128857,9.914892,0.085109,-0.028858,-0.082920,-0.726316,-0.441696,-60.451630,0.864012,-0.007417,-0.000140,-0.503417
3109,0.071362,-0.143097,9.915833,0.014877,-0.047141,-0.087497,-0.732399,-0.437342,-60.454395,0.864000,-0.007444,-0.000080,-0.503437
3110,0.069929,-0.146017,9.918344,0.020911,-0.056275,-0.081392,-0.745882,-0.434913,-60.457077,0.863987,-0.007535,-0.000002,-0.503457
3111,0.070011,-0.138195,9.921702,0.068159,-0.057779,-0.063080,-0.755257,-0.432573,-60.459389,0.863977,-0.007595,0.000057,-0.503475
3112,0.073879,-0.135767,9.925502,0.104754,-0.059293,-0.056976,-0.757729,-0.432096,-60.461319,0.863968,-0.007612,0.000071,-0.503489
3113,0.074898,-0.129939,9.923940,0.174941,-0.059291,-0.070710,-0.754442,-0.433709,-60.463406,0.863959,-0.007594,0.000045,-0.503505
3114,0.076472,-0.139222,9.923629,0.268009,-0.050139,-0.070710,-0.749825,-0.436100,-60.465721,0.863949,-0.007570,0.000007,-0.503523
3115,0.073535,-0.154565,9.917706,0.209959,-0.048612,-0.069183,-0.754666,-0.437538,-60.467934,0.863939,-0.007612,0.000017,-0.503539
3116,0.073553,-0.153533,9.915415,0.188505,-0.051656,-0.081390,-0.766372,-0.437649,-60.470287,0.863928,-0.007701,0.000068,-0.503557
3117,0.071681,-0.143939,9.911020,0.113668,-0.054695,-0.075285,-0.774525,-0.437064,-60.472771,0.863916,-0.007760,0.000108,-0.503576
3118,0.070296,-0.144049,9.915816,-0.043544,-0.057729,-0.069181,-0.781568,-0.435354,-60.475090,0.863906,-0.007806,0.000152,-0.503593
3119,0.068732,-0.135696,9.916370,-0.380792,-0.063810,-0.067655,-0.792635,-0.432798,-60.477310,0.863895,-0.007878,0.000221,-0.503610
3120,0.070660,-0.118788,9.915764,-0.634062,-0.072945,-0.063077,-0.802609,-0.430920,-60.479511,0.863885,-0.007945,0.000279,-0.503626
3121,0.070984,-0.131190,9.922185,-1.085685,-0.112604,-0.044766,-0.821167,-0.430997,-60.481346,0.863876,-0.008085,0.000360,-0.503640
3122,0.079021,-0.178663,9.918344,-1.377192,-0.147701,-0.024929,-0.873254,-0.435642,-60.482357,0.863867,-0.008498,0.000554,-0.503648
3123,0.079229,-0.188931,9.913914,-0.791379,-0.114147,-0.041713,-0.938010,-0.443194,-60.483177,0.863858,-0.009019,0.000781,-0.503654
3124,0.076877,-0.166169,9.913336,-0.149046,-0.085162,-0.050867,-0.969727,-0.448088,-60.484550,0.863849,-0.009280,0.000884,-0.503664
3125,0.081753,-0.169641,9.919578,-0.417620,-0.120266,-0.046290,-0.981314,-0.453212,-60.486095,0.863841,-0.009390,0.000897,-0.503676
3126,0.068421,-0.179648,9.922975,-1.163818,-0.056166,-0.040186,-1.012054,-0.453899,-60.487446,0.863833,-0.009625,0.001027,-0.503686
3127,0.055163,-0.267481,9.931133,-2.256577,0.050713,-0.063072,-1.108155,-0.441091,-60.488873,0.863819,-0.010293,0.001546,-0.503695
3128,0.056161,-0.260835,9.930171,-2.919138,-0.007188,-0.003557,-1.256224,-0.423528,-60.489552,0.863803,-0.011332,0.002329,-0.503697
3129,0.060591,-0.304383,9.931678,-3.346695,-0.077316,1.002031,-1.420488,-0.411794,-60.472469,0.863862,-0.012519,0.003138,-0.503563
3130,0.054287,-0.324292,9.931129,-2.884656,-0.092519,1.931324,-1.587959,-0.401825,-60.423100,0.864061,-0.013739,0.003943,-0.503185
3131,0.069929,-0.334427,9.920109,-2.114328,-0.208457,2.483712,-1.724633,-0.398264,-60.349049,0.864369,-0.014757,0.004560,-0.502621
3132,0.080973,-0.260710,9.913148,-0.965347,-0.336658,2.637829,-1.784883,-0.409503,-60.263401,0.864736,-0.015264,0.004728,-0.501973
3133,0.077667,-0.275073,9.915411,-0.432661,-0.248190,2.590524,-1.781226,-0.423802,-60.176186,0.865116,-0.015303,0.004593,-0.501317
3134,0.074520,-0.279800,9.913799,-0.209756,-0.165806,1.626138,-1.768433,-0.431579,-60.105904,0.865425,-0.015243,0.004469,-0.500787
3135,0.077490,-0.282793,9.910245,0.052802,-0.075783,0.678537,-1.751440,-0.435955,-60.067532,0.865594,-0.015135,0.004356,-0.500499
3136,0.070357,-0.270704,9.910931,0.632761,0.044769,0.091055,-1.718726,-0.435209,-60.054855,0.865654,-0.014885,0.004217,-0.500404
3137,0.069911,-0.245183,9.917009,0.883176,0.102774,-0.060012,-1.660841,-0.428685,-60.054665,0.865663,-0.014420,0.004014,-0.500404
3138,0.074917,-0.250565,9.915908,0.527807,0.034117,-0.061539,-1.602922,-0.424638,-60.057007,0.865660,-0.013964,0.003792,-0.500423
3139,0.078069,-0.243298,9.914622,0.340255,0.003588,-0.098162,-1.561065,-0.426112,-60.059891,0.865652,-0.013655,0.003598,-0.500446
3140,0.080958,-0.238105,9.917072,0.169479,-0.031531,-0.085957,-1.527021,-0.431183,-60.063133,0.865642,-0.013419,0.003412,-0.500472
3141,0.087330,-0.241923,9.919607,-0.089823,-0.065139,-0.067648,-1.504632,-0.440499,-60.065819,0.865632,-0.013291,0.003244,-0.500494
3142,0.085389,-0.241487,9.920775,-0.202661,-0.091122,-0.055442,-1.493479,-0.451527,-60.067921,0.865623,-0.013255,0.003112,-0.500511
3143,0.088068,-0.258101,9.917489,-0.127853,-0.082003,-0.031028,-1.491447,-0.461754,-60.069344,0.865616,-0.013284,0.003026,-0.500523
3144,0.084116,-0.271182,9.921785,0.285649,-0.057615,-0.060021,-1.493570,-0.469511,-60.070759,0.865609,-0.013334,0.002977,-0.500534
3145,0.080658,-0.256229,9.922531,0.923465,-0.088140,-0.090539,-1.477386,-0.473329,-60.073174,0.865600,-0.013228,0.002878,-0.500553
3146,0.075305,-0.235603,9.924435,1.166131,-0.103385,-0.078332,-1.433749,-0.473749,-60.075981,0.865593,-0.012900,0.002684,-0.500575
3147,0.076887,-0.214663,9.918751,0.868679,-0.077421,-0.072228,-1.379056,-0.472261,-60.078579,0.865587,-0.012481,0.002457,-0.500596
3148,0.066757,-0.184310,9.926691,0.108938,-0.063649,-0.082911,-1.328788,-0.466890,-60.081379,0.865581,-0.012077,0.002278,-0.500618
3149,0.070583,-0.188336,9.922914,-0.823217,-0.197882,0.033060,-1.303566,-0.461505,-60.082417,0.865580,-0.011863,0.002209,-0.500626
3150,0.069031,-0.210966,9.919564,-1.726455,-0.216153,0.109356,-1.324304,-0.460197,-60.080059,0.865588,-0.012014,0.002309,-0.500608
3151,0.076708,-0.249372,9.915215,-1.883635,-0.210022,0.364185,-1.386617,-0.461780,-60.071980,0.865616,-0.012492,0.002568,-0.500545
3152,0.074200,-0.285257,9.916457,-1.108592,-0.124553,0.391654,-1.461758,-0.463687,-60.059052,0.865664,-0.013068,0.002881,-0.500446
3153,0.079452,-0.281217,9.914013,0.069282,-0.046719,0.351981,-1.507456,-0.463690,-60.046356,0.865714,-0.013414,0.003079,-0.500349
3154,0.077623,-0.264245,9.916230,0.481221,0.060103,0.284841,-1.510502,-0.461851,-60.035656,0.865761,-0.013429,0.003105,-0.500268
3155,0.081577,-0.267520,9.919683,0.694833,0.090623,0.307730,-1.494532,-0.458668,-60.025822,0.865806,-0.013295,0.003058,-0.500194
3156,0.076994,-0.246210,9.917260,0.798608,0.125722,0.042219,-1.467150,-0.454591,-60.020096,0.865834,-0.013070,0.002968,-0.500151
3157,0.077990,-0.233263,9.918694,0.403458,0.038750,0.001019,-1.434299,-0.450619,-60.019558,0.865841,-0.012805,0.002855,-0.500147
3158,0.077962,-0.252958,9.914884,-0.093964,-0.061960,0.031536,-1.422960,-0.450695,-60.019043,0.865844,-0.012720,0.002805,-0.500144
3159,0.081544,-0.261264,9.915690,0.031125,-0.058914,0.010174,-1.431581,-0.454030,-60.018250,0.865847,-0.012799,0.002817,-0.500138
3160,0.081468,-0.246837,9.915174,0.159275,-0.019253,-0.072226,-1.433790,-0.457818,-60.019215,0.865842,-0.012832,0.002798,-0.500145
3161,0.077466,-0.247815,9.919441,0.020419,-0.043670,-0.090536,-1.430228,-0.459339,-60.021900,0.865830,-0.012812,0.002772,-0.500166
3162,0.076453,-0.244110,9.919536,-0.022299,-0.055867,-0.107322,-1.428686,-0.459186,-60.025169,0.865816,-0.012800,0.002766,-0.500191
3163,0.076482,-0.237824,9.919641,0.000615,-0.048226,-0.113425,-1.423965,-0.458649,-60.028847,0.865801,-0.012762,0.002750,-0.500218
3164,0.073451,-0.233126,9.917406,0.005237,-0.049735,-0.095114,-1.414997,-0.456901,-60.032352,0.865787,-0.012686,0.002725,-0.500245
3165,0.072327,-0.239772,9.918727,-0.078653,-0.072599,-0.098165,-1.409022,-0.454108,-60.035564,0.865773,-0.012629,0.002720,-0.500269
3166,0.079790,-0.239299,9.916090,-0.141197,-0.097003,-0.093587,-1.408873,-0.454849,-60.038734,0.865760,-0.012631,0.002714,-0.500293
3167,0.080259,-0.248012,9.917083,-0.077107,-0.080223,-0.087484,-1.412295,-0.458908,-60.041676,0.865746,-0.012674,0.002699,-0.500316
3168,0.082281,-0.251838,9.913513,0.046470,-0.066498,-0.084433,-1.417225,-0.463101,-60.044445,0.865733,-0.012730,0.002689,-0.500337
3169,0.081166,-0.250917,9.915177,0.235659,-0.058876,-0.133263,-1.417515,-0.466762,-60.047981,0.865717,-0.012748,0.002663,-0.500364
3170,0.079530,-0.236404,9.914632,0.453874,-0.049720,-0.134788,-1.404706,-0.468579,-60.052414,0.865699,-0.012659,0.002594,-0.500398
3171,0.073523,-0.237090,9.916211,0.379133,-0.019184,-0.122580,-1.385010,-0.466418,-60.056728,0.865683,-0.012501,0.002525,-0.500431
3172,0.074943,-0.235320,9.915751,0.185360,-0.022210,-0.092061,-1.371533,-0.462034,-60.060307,0.865669,-0.012380,0.002499,-0.500458
3173,0.078286,-0.236175,9.917622,0.104497,-0.034404,-0.085958,-1.364486,-0.460154,-60.063274,0.865657,-0.012318,0.002483,-0.500480
3174,0.077664,-0.234095,9.917123,-0.104548,-0.042026,-0.058491,-1.363159,-0.460052,-60.065662,0.865647,-0.012308,0.002478,-0.500498
3175,0.079218,-0.248396,9.914775,-0.301413,-0.045073,-0.047808,-1.373892,-0.460612,-60.067368,0.865638,-0.012391,0.002521,-0.500511
3176,0.080578,-0.251396,9.914806,0.159366,-0.042022,-0.063068,-1.386281,-0.462272,-60.069099,0.865629,-0.012492,0.002563,-0.500524
3177,0.077290,-0.278829,9.911919,0.798627,-0.063381,-0.085956,-1.390537,-0.463367,-60.071377,0.865618,-0.012529,0.002573,-0.500541
3179,0.078379,-0.262283,9.911659,0.944999,-0.074053,-0.098162,-1.384808,-0.463990,-60.074203,0.865607,-0.012488,0.002544,-0.500562
3180,0.079902,-0.249349,9.909728,1.134154,-0.090835,-0.101213,-1.362252,-0.465975,-60.077362,0.865595,-0.012326,0.002431,-0.500587
3181,0.080791,-0.236064,9.909834,1.289778,-0.101516,-0.114947,-1.325751,-0.469186,-60.080853,0.865584,-0.012065,0.002247,-0.500614
3182,0.084793,-0.214106,9.910096,1.012088,-0.107627,-0.104265,-1.281642,-0.474215,-60.084473,0.865572,-0.011753,0.002017,-0.500643
3183,0.090597,-0.161253,9.913091,0.505627,-0.090866,-0.102741,-1.227133,-0.482282,-60.088097,0.865561,-0.011377,0.001718,-0.500672
3184,0.080266,-0.165021,9.918455,-0.087750,-0.057305,-0.099691,-1.178563,-0.486866,-60.091766,0.865549,-0.011030,0.001472,-0.500700
3185,0.076518,-0.180566,9.919268,-0.873465,-0.019135,-0.073751,-1.167250,-0.483956,-60.094856,0.865537,-0.010932,0.001445,-0.500723
3186,0.076254,-0.191656,9.915071,-1.303710,0.008360,-0.055440,-1.190480,-0.478289,-60.097115,0.865525,-0.011082,0.001589,-0.500740
3187,0.073788,-0.210569,9.913383,-1.375418,0.009918,-0.056965,-1.232882,-0.471669,-60.099026,0.865514,-0.011374,0.001825,-0.500753
3188,0.067230,-0.228511,9.911860,-1.383086,0.019119,-0.058490,-1.286451,-0.462223,-60.100903,0.865501,-0.011737,0.002130,-0.500766
3189,0.076177,-0.230343,9.908291,-1.131352,0.011524,-0.050859,-1.337217,-0.454754,-60.102676,0.865488,-0.012088,0.002409,-0.500778
3190,0.080402,-0.232127,9.908010,-0.676643,-0.014412,-0.041704,-1.370682,-0.454052,-60.104179,0.865478,-0.012337,0.002561,-0.500788
3191,0.080303,-0.228267,9.911132,-0.383651,-0.028153,-0.047808,-1.385246,-0.456137,-60.105675,0.865470,-0.012456,0.002609,-0.500800
3192,0.079860,-0.230142,9.910406,-0.336311,-0.034262,-0.038652,-1.390150,-0.458243,-60.107147,0.865463,-0.012503,0.002614,-0.500811
3193,0.076559,-0.243120,9.910978,-0.186757,-0.037310,-0.055437,-1.396196,-0.458783,-60.108707,0.865455,-0.012551,0.002637,-0.500822
3194,0.072569,-0.249132,9.910920,0.441904,-0.084595,-0.064593,-1.395849,-0.457183,-60.110622,0.865447,-0.012541,0.002648,-0.500837
3195,0.070329,-0.218330,9.911410,1.262882,-0.115084,-0.096636,-1.361403,-0.454567,-60.113281,0.865439,-0.012269,0.002517,-0.500857
3196,0.071492,-0.210835,9.914909,1.658189,-0.136415,-0.110370,-1.294214,-0.452686,-60.116776,0.865431,-0.011754,0.002238,-0.500885
3197,0.075168,-0.204331,9.919781,1.729993,-0.137921,-0.125629,-1.220554,-0.453333,-60.120735,0.865421,-0.011200,0.001911,-0.500916
3198,0.081843,-0.188697,9.923842,1.783483,-0.147077,-0.114948,-1.145604,-0.458196,-60.124767,0.865410,-0.010655,0.001547,-0.500948
3199,0.085794,-0.173708,9.926168,1.559263,-0.102844,-0.119527,-1.071576,-0.466172,-60.128735,0.865399,-0.010131,0.001164,-0.500979
3200,0.090217,-0.192690,9.929065,0.869579,-0.075408,-0.111899,-1.024209,-0.475296,-60.132603,0.865386,-0.009813,0.000888,-0.501010
3201,0.088979,-0.191539,9.930726,0.518575,-0.060179,-0.108847,-1.009106,-0.483773,-60.136173,0.865371,-0.009736,0.000759,-0.501037
3202,0.085720,-0.177430,9.926658,0.579581,-0.051041,-0.113424,-0.997149,-0.488949,-60.139793,0.865356,-0.009668,0.000668,-0.501065
3203,0.084562,-0.170594,9.925415,0.422410,-0.054095,-0.105795,-0.980580,-0.491432,-60.143421,0.865341,-0.009554,0.000577,-0.501092
3204,0.078931,-0.175153,9.921227,0.248449,-0.063239,-0.092061,-0.970595,-0.491006,-60.146683,0.865328,-0.009477,0.000536,-0.501117
3205,0.076907,-0.173234,9.918294,0.254532,-0.060159,-0.093586,-0.966244,-0.487615,-60.149708,0.865315,-0.009429,0.000543,-0.501140
3206,0.075882,-0.173395,9.914660,0.159902,-0.047920,-0.095112,-0.963692,-0.483070,-60.152786,0.865302,-0.009390,0.000567,-0.501163
3207,0.072543,-0.174507,9.914482,0.057640,-0.053986,-0.084430,-0.965399,-0.477279,-60.155701,0.865290,-0.009377,0.000618,-0.501184
3208,0.074121,-0.172522,9.911132,0.252932,-0.026482,-0.098162,-0.965299,-0.471153,-60.158672,0.865277,-0.009350,0.000664,-0.501207
3209,0.075499,-0.159925,9.911247,0.399424,-0.020350,-0.096636,-0.953798,-0.466412,-60.161915,0.865264,-0.009242,0.000650,-0.501231
3210,0.074768,-0.156466,9.908575,0.353676,-0.023379,-0.087480,-0.935223,-0.462598,-60.165016,0.865252,-0.009085,0.000598,-0.501254
3211,0.077380,-0.154092,9.908014,0.257574,-0.040148,-0.075272,-0.918791,-0.460413,-60.167767,0.865242,-0.008952,0.000543,-0.501275
3212,0.079776,-0.165894,9.911459,0.216375,-0.044721,-0.078324,-0.910598,-0.460900,-60.170296,0.865231,-0.008892,0.000503,-0.501294
3213,0.076407,-0.153814,9.917274,0.314028,-0.046241,-0.072220,-0.902944,-0.461199,-60.172779,0.865221,-0.008835,0.000468,-0.501313
3214,0.078670,-0.153418,9.917917,0.124826,-0.056913,-0.078324,-0.893026,-0.461203,-60.175289,0.865211,-0.008761,0.000424,-0.501332
3215,0.076775,-0.160169,9.923081,-0.021668,-0.064535,-0.066116,-0.892287,-0.461614,-60.177650,0.865200,-0.008757,0.000418,-0.501350
3216,0.078164,-0.155957,9.922374,0.092763,-0.059947,-0.075272,-0.893744,-0.461838,-60.179958,0.865190,-0.008769,0.000423,-0.501367
3217,0.082080,-0.150547,9.919781,0.001213,-0.063000,-0.066116,-0.891088,-0.464048,-60.182285,0.865180,-0.008758,0.000395,-0.501385
3218,0.083083,-0.159044,9.916686,-0.262773,-0.081320,-0.056961,-0.895662,-0.468357,-60.184292,0.865170,-0.008812,0.000383,-0.501400
3219,0.081900,-0.171269,9.919343,-0.299437,-0.090483,-0.060013,-0.913101,-0.472621,-60.186142,0.865161,-0.008962,0.000427,-0.501414
3220,0.084512,-0.168202,9.918057,-0.120953,-0.070653,-0.082902,-0.930222,-0.476687,-60.188393,0.865149,-0.009109,0.000471,-0.501431
3221,0.080456,-0.167364,9.915813,-0.064526,-0.058446,-0.076797,-0.939642,-0.479125,-60.190968,0.865137,-0.009191,0.000494,-0.501451
3222,0.078158,-0.165433,9.915285,-0.017239,-0.050804,-0.072219,-0.944516,-0.478358,-60.193398,0.865126,-0.009224,0.000522,-0.501469
3223,0.077280,-0.175834,9.911438,-0.047787,-0.049258,-0.066115,-0.951452,-0.476113,-60.195629,0.865116,-0.009267,0.000569,-0.501486
3224,0.074141,-0.164729,9.910391,-0.012716,-0.038550,-0.063062,-0.957286,-0.472329,-60.197704,0.865107,-0.009294,0.000623,-0.501501
3225,0.072625,-0.171134,9.913873,-0.247719,-0.052249,-0.040173,-0.963779,-0.467190,-60.199390,0.865099,-0.009321,0.000691,-0.501514
3226,0.073656,-0.192013,9.921170,-0.353067,-0.050692,-0.041698,-0.985557,-0.462624,-60.200634,0.865092,-0.009465,0.000821,-0.501523
3227,0.076388,-0.180333,9.919747,-0.191386,-0.039990,-0.056956,-1.008011,-0.459937,-60.202148,0.865084,-0.009623,0.000939,-0.501534
3228,0.075722,-0.161357,9.922462,-0.096771,-0.032345,-0.079845,-1.011433,-0.458232,-60.204422,0.865074,-0.009641,0.000967,-0.501551
3229,0.078455,-0.175280,9.921098,-0.011294,-0.027759,-0.082897,-1.008170,-0.457416,-60.207146,0.865062,-0.009613,0.000959,-0.501572
3230,0.079070,-0.166549,9.919764,0.487698,-0.012497,-0.096630,-0.997169,-0.457739,-60.210148,0.865050,-0.009531,0.000909,-0.501594
3231,0.073148,-0.143174,9.916710,0.911978,0.002774,-0.093578,-0.959396,-0.455558,-60.213432,0.865039,-0.009237,0.000761,-0.501619
3232,0.071996,-0.149460,9.919716,0.858659,-0.003305,-0.095104,-0.912114,-0.450623,-60.216721,0.865029,-0.008858,0.000591,-0.501644
3233,0.074376,-0.156861,9.919896,0.741197,-0.013966,-0.072215,-0.878603,-0.446896,-60.219551,0.865019,-0.008589,0.000473,-0.501666
3234,0.073482,-0.143964,9.919368,0.494015,-0.020055,-0.063060,-0.854447,-0.444590,-60.221828,0.865011,-0.008396,0.000385,-0.501683
3235,0.074158,-0.148611,9.918548,0.001156,-0.036827,-0.053904,-0.843302,-0.442983,-60.223782,0.865003,-0.008305,0.000348,-0.501698
3236,0.078569,-0.154353,9.917556,-0.296417,-0.050559,-0.041697,-0.851699,-0.444103,-60.225334,0.864996,-0.008374,0.000376,-0.501709
3237,0.074749,-0.147903,9.918436,-0.310168,-0.052085,-0.041697,-0.865197,-0.445734,-60.226673,0.864989,-0.008483,0.000423,-0.501719
3238,0.074109,-0.159974,9.924959,-0.244573,-0.050549,-0.038645,-0.878490,-0.445443,-60.227955,0.864982,-0.008582,0.000484,-0.501729
3239,0.074287,-0.161327,9.930751,0.194857,-0.033752,-0.044748,-0.886671,-0.444544,-60.229267,0.864976,-0.008639,0.000527,-0.501739
3240,0.071890,-0.142417,9.928735,0.707572,-0.016951,-0.055429,-0.870773,-0.442305,-60.230930,0.864970,-0.008510,0.000474,-0.501751
3241,0.075161,-0.135841,9.928177,0.703044,-0.027620,-0.063059,-0.837130,-0.440521,-60.232967,0.864964,-0.008248,0.000340,-0.501767
3242,0.076330,-0.142912,9.928937,0.628307,-0.026091,-0.038645,-0.808303,-0.440860,-60.234703,0.864958,-0.008032,0.000212,-0.501780
3243,0.074450,-0.123779,9.924038,0.498640,-0.033716,-0.040171,-0.782429,-0.441130,-60.236053,0.864954,-0.007838,0.000096,-0.501790
3244,0.074649,-0.128668,9.923329,-0.047597,-0.059650,-0.032541,-0.766018,-0.441287,-60.237316,0.864949,-0.007714,0.000023,-0.501800
3245,0.075570,-0.150652,9.922555,-0.401633,-0.079482,-0.035593,-0.777781,-0.442612,-60.238384,0.864944,-0.007809,0.000065,-0.501808
3246,0.071704,-0.149439,9.923446,-0.305563,-0.077945,-0.044748,-0.802145,-0.443011,-60.239594,0.864937,-0.007995,0.000169,-0.501817
3247,0.072930,-0.150932,9.922989,-0.212533,-0.076403,-0.060006,-0.821050,-0.442232,-60.241219,0.864928,-0.008134,0.000257,-0.501829
3248,0.074186,-0.154981,9.923021,0.037671,-0.061131,-0.067636,-0.833483,-0.442161,-60.243244,0.864919,-0.008228,0.000313,-0.501844
3249,0.072853,-0.156214,9.916735,0.303134,-0.045860,-0.078316,-0.837300,-0.441630,-60.245579,0.864908,-0.008254,0.000334,-0.501862
3250,0.070732,-0.143441,9.918353,0.399247,-0.042790,-0.081368,-0.829591,-0.439521,-60.248188,0.864898,-0.008187,0.000316,-0.501882
3251,0.068522,-0.141608,9.920237,0.348899,-0.036661,-0.084420,-0.815734,-0.435759,-60.250938,0.864887,-0.008066,0.000284,-0.501902
3252,0.062735,-0.135576,9.916502,0.245151,-0.033569,-0.088997,-0.802864,-0.429161,-60.253838,0.864875,-0.007939,0.000277,-0.501924
3253,0.060130,-0.137607,9.916219,0.039164,-0.042674,-0.093574,-0.795418,-0.420135,-60.256874,0.864863,-0.007844,0.000313,-0.501947
3254,0.059437,-0.134454,9.919693,-0.076798,-0.048725,-0.085944,-0.794244,-0.411124,-60.259861,0.864851,-0.007795,0.000376,-0.501969
3255,0.058145,-0.134722,9.918104,-0.301096,-0.062407,-0.078313,-0.798198,-0.402872,-60.262589,0.864839,-0.007789,0.000456,-0.501989
3256,0.062446,-0.139431,9.915301,-0.365182,-0.065420,-0.075261,-0.808714,-0.397216,-60.265125,0.864827,-0.007844,0.000545,-0.502008
3257,0.065493,-0.138067,9.918968,-0.276677,-0.066926,-0.067630,-0.819143,-0.395388,-60.267467,0.864816,-0.007914,0.000605,-0.502026
3258,0.073883,-0.138254,9.919242,-0.293452,-0.068456,-0.041691,-0.826510,-0.398496,-60.269283,0.864808,-0.007984,0.000613,-0.502039
3259,0.077731,-0.131309,9.919898,-0.226282,-0.070009,-0.023380,-0.829249,-0.406269,-60.270374,0.864802,-0.008038,0.000567,-0.502048
3260,0.081660,-0.133071,9.923589,-0.113320,-0.063944,0.007138,-0.826299,-0.416210,-60.270679,0.864801,-0.008060,0.000479,-0.502051
3261,0.084890,-0.143121,9.925599,-0.233847,-0.074672,0.077329,-0.828018,-0.427761,-60.269268,0.864806,-0.008123,0.000399,-0.502040
3262,0.087793,-0.154117,9.926280,-0.209453,-0.076249,0.155151,-0.839523,-0.440398,-60.265324,0.864822,-0.008265,0.000354,-0.502011
3263,0.082676,-0.152961,9.922448,0.115534,-0.062554,0.223817,-0.848148,-0.450342,-60.258919,0.864849,-0.008374,0.000316,-0.501963
3264,0.083958,-0.156444,9.920070,0.455782,-0.036636,0.326054,-0.845300,-0.456622,-60.249676,0.864889,-0.008380,0.000256,-0.501894
3265,0.085438,-0.145398,9.914527,0.776210,-0.015297,0.435921,-0.828218,-0.462073,-60.236942,0.864946,-0.008275,0.000139,-0.501798
3266,0.080394,-0.136300,9.914535,0.965440,-0.004629,0.626661,-0.796287,-0.464789,-60.219254,0.865025,-0.008046,-0.000023,-0.501664
3267,0.078830,-0.133437,9.912089,0.899847,-0.019886,1.118008,-0.761060,-0.464356,-60.190212,0.865155,-0.007778,-0.000176,-0.501445
3268,0.074662,-0.128848,9.914052,0.802201,-0.062598,2.201415,-0.730375,-0.462203,-60.134895,0.865399,-0.007537,-0.000297,-0.501027
3269,0.072713,-0.117022,9.912904,0.638951,-0.135817,4.101193,-0.702502,-0.459202,-60.029846,0.865860,-0.007313,-0.000403,-0.500233
3270,0.066149,-0.105833,9.916615,0.527607,-0.219703,6.757829,-0.674832,-0.455014,-59.848881,0.866651,-0.007085,-0.000504,-0.498865
3271,0.066269,-0.106177,9.916980,0.745865,-0.302054,9.415991,-0.645575,-0.450651,-59.579300,0.867824,-0.006843,-0.000614,-0.496825
3272,0.060230,-0.076044,9.915475,1.125875,-0.375258,11.828480,-0.606198,-0.449835,-59.225197,0.869357,-0.006539,-0.000799,-0.494140
3273,0.063048,-0.071108,9.914671,1.130520,-0.427107,13.581767,-0.558550,-0.452638,-58.801678,0.871180,-0.006186,-0.001048,-0.490924
3274,0.060203,-0.075223,9.916557,1.238914,-0.427075,13.861012,-0.512050,-0.456250,-58.344250,0.873135,-0.005842,-0.001298,-0.487442
3276,0.063597,-0.074252,9.912881,1.095512,-0.434673,14.282167,-0.470000,-0.460140,-57.875126,0.875125,-0.005532,-0.001530,-0.483863
3277,0.062099,-0.069050,9.911878,0.778144,-0.440745,14.701797,-0.437548,-0.464566,-57.391994,0.877159,-0.005296,-0.001723,-0.480168
3278,0.067825,-0.076730,9.913084,0.720170,-0.449872,15.136685,-0.414467,-0.469907,-56.894600,0.879235,-0.005134,-0.001883,-0.476356
3279,0.067578,-0.070084,9.915474,0.405829,-0.433061,15.715011,-0.399829,-0.475893,-56.380306,0.881365,-0.005037,-0.002012,-0.472405
3280,0.068045,-0.070994,9.917292,-0.169445,-0.481863,17.807055,-0.400585,-0.481820,-55.821507,0.883658,-0.005057,-0.002079,-0.468102
3281,0.063893,-0.075602,9.918794,-0.024489,-0.535239,19.941826,-0.410690,-0.487773,-55.192230,0.886214,-0.005148,-0.002112,-0.463242
3282,0.063853,-0.080380,9.917960,0.172340,-0.562667,21.339573,-0.417108,-0.493384,-54.504066,0.888980,-0.005207,-0.002161,-0.457912
3283,0.053643,-0.079119,9.926689,0.077718,-0.573298,21.798878,-0.422262,-0.496968,-53.784954,0.891835,-0.005248,-0.002201,-0.452325
3284,0.052916,-0.081902,9.930057,0.707911,-0.605279,22.014032,-0.418503,-0.498735,-53.054588,0.894700,-0.005211,-0.002263,-0.446631
3285,0.050213,-0.078223,9.930964,1.507481,-0.580798,20.950464,-0.390594,-0.500122,-52.338375,0.897475,-0.004984,-0.002414,-0.441030
3286,0.054701,-0.067645,9.933671,1.589875,-0.512066,18.579176,-0.345805,-0.501025,-51.679428,0.899998,-0.004622,-0.002620,-0.435861
3287,0.056943,-0.045565,9.939565,1.600571,-0.469280,16.978479,-0.295035,-0.502169,-51.086727,0.902243,-0.004213,-0.002844,-0.431199
3288,0.062702,-0.039795,9.933390,1.692152,-0.428028,16.426096,-0.240091,-0.504095,-50.529945,0.904329,-0.003772,-0.003084,-0.426808
3289,0.062337,-0.027258,9.929739,1.768473,-0.398988,16.313177,-0.182285,-0.506374,-49.984264,0.906353,-0.003309,-0.003333,-0.422496
3290,0.068880,-0.020580,9.918033,1.541134,-0.394368,16.546642,-0.127107,-0.509694,-49.436592,0.908363,-0.002867,-0.003577,-0.418157
3291,0.064947,-0.016099,9.920482,0.863639,-0.362283,16.769428,-0.088737,-0.513145,-48.881313,0.910379,-0.002558,-0.003756,-0.413749
3292,0.060869,-0.003288,9.916281,0.086961,-0.340870,17.004421,-0.074475,-0.514164,-48.318424,0.912401,-0.002429,-0.003828,-0.409272
3293,0.064157,-0.019086,9.911436,-0.427271,-0.345398,17.712450,-0.084209,-0.514613,-47.739799,0.914456,-0.002489,-0.003809,-0.404660
3294,0.060026,-0.026940,9.914753,-1.121585,-0.365183,18.640213,-0.119046,-0.514983,-47.133865,0.916582,-0.002749,-0.003704,-0.399820
3295,0.049531,-0.029419,9.921920,-1.066672,-0.392584,20.054747,-0.165376,-0.512757,-46.488884,0.918817,-0.003092,-0.003542,-0.394656
3296,0.057682,-0.047989,9.923556,-0.865277,-0.453552,22.014034,-0.209252,-0.510953,-45.787655,0.921213,-0.003417,-0.003397,-0.389028
3297,0.060466,-0.074072,9.930778,-0.668488,-0.502325,23.343119,-0.252567,-0.512452,-45.031559,0.923759,-0.003749,-0.003287,-0.382942
3298,0.060148,-0.065197,9.935933,-0.709745,-0.552626,24.048096,-0.294009,-0.515346,-44.241535,0.926375,-0.004070,-0.003200,-0.376566
3299,0.065026,-0.065723,9.930600,-0.584652,-0.570886,24.154911,-0.329791,-0.519514,-43.438019,0.928992,-0.004351,-0.003147,-0.370062
3300,0.065587,-0.074189,9.933281,-0.914284,-0.572365,23.370586,-0.368104,-0.524376,-42.645794,0.931526,-0.004656,-0.003095,-0.363632
3301,0.052391,-0.074377,9.925692,-0.723570,-0.572304,21.904171,-0.407631,-0.526217,-41.891071,0.933899,-0.004964,-0.003017,-0.357490
3302,0.049416,-0.077161,9.918414,-0.426030,-0.567649,21.028290,-0.436655,-0.524530,-41.175388,0.936112,-0.005177,-0.002945,-0.351651
3303,0.039172,-0.077676,9.922809,-0.111697,-0.575190,20.834501,-0.453642,-0.520202,-40.477543,0.938236,-0.005285,-0.002890,-0.345944
3304,0.042121,-0.075516,9.924062,0.504777,-0.631552,21.602039,-0.453286,-0.515556,-39.770130,0.940354,-0.005250,-0.002885,-0.340145
3305,0.042725,-0.064699,9.921396,1.159416,-0.658929,22.386368,-0.428894,-0.513258,-39.036869,0.942512,-0.005024,-0.002971,-0.334120
3306,0.055643,-0.070047,9.920197,1.351699,-0.613074,22.024725,-0.390215,-0.513849,-38.296574,0.944653,-0.004688,-0.003119,-0.328023
3307,0.053977,-0.059624,9.917372,1.156392,-0.555023,20.794827,-0.352497,-0.515567,-37.582817,0.946679,-0.004361,-0.003268,-0.322132
3308,0.061548,-0.080238,9.911170,0.597893,-0.469511,18.782131,-0.331385,-0.516642,-36.923092,0.948519,-0.004171,-0.003361,-0.316676
3309,0.056340,-0.105914,9.915233,-0.285684,-0.359585,15.861512,-0.344448,-0.515321,-36.345505,0.950102,-0.004258,-0.003335,-0.311891
3310,0.057698,-0.120760,9.918787,-0.714574,-0.295434,13.418506,-0.386606,-0.510634,-35.857250,0.951421,-0.004582,-0.003201,-0.307841
3311,0.045646,-0.108763,9.919866,-0.522407,-0.310623,12.736421,-0.430899,-0.503296,-35.421093,0.952585,-0.004918,-0.003040,-0.304219
3312,0.042521,-0.106390,9.918117,-0.081485,-0.345635,13.287279,-0.458911,-0.494054,-34.987171,0.953729,-0.005115,-0.002908,-0.300610
3313,0.044856,-0.100074,9.916216,0.562405,-0.366915,14.211992,-0.464916,-0.485834,-34.528671,0.954924,-0.005133,-0.002845,-0.296792
3314,0.037276,-0.086739,9.913276,0.911817,-0.389720,15.483088,-0.449700,-0.477677,-34.033619,0.956198,-0.004972,-0.002838,-0.292663
3315,0.041437,-0.083985,9.912983,0.666131,-0.424732,17.346245,-0.430330,-0.470113,-33.486343,0.957587,-0.004778,-0.002847,-0.288092
3316,0.046267,-0.073969,9.917506,0.238865,-0.467384,19.307058,-0.421331,-0.465728,-32.875343,0.959109,-0.004677,-0.002858,-0.282982
3317,0.057463,-0.074993,9.923616,0.135101,-0.511580,20.775000,-0.420824,-0.465890,-32.207207,0.960743,-0.004656,-0.002887,-0.277385
3318,0.058063,-0.079259,9.927855,-0.048017,-0.532899,21.298391,-0.426712,-0.469278,-31.505861,0.962422,-0.004696,-0.002930,-0.271500
3319,0.066940,-0.081289,9.929467,0.048102,-0.535915,21.255667,-0.435185,-0.474617,-30.796497,0.964084,-0.004761,-0.002985,-0.265538
3320,0.064843,-0.085172,9.929076,0.215937,-0.531307,20.642246,-0.439902,-0.480959,-30.098066,0.965684,-0.004797,-0.003056,-0.259657
3321,0.053166,-0.106293,9.919634,0.371544,-0.493113,19.473387,-0.443415,-0.483740,-29.429293,0.967183,-0.004815,-0.003100,-0.254017
3322,0.046893,-0.104428,9.920601,0.131918,-0.465581,18.745522,-0.451508,-0.481846,-28.792109,0.968580,-0.004862,-0.003093,-0.248635
3323,0.041303,-0.091493,9.921554,0.012856,-0.454825,18.173300,-0.462124,-0.477061,-28.176630,0.969901,-0.004925,-0.003056,-0.243429
3324,0.039233,-0.086200,9.918490,-0.222155,-0.448638,18.040545,-0.474357,-0.470728,-27.572935,0.971170,-0.004999,-0.003003,-0.238317
3325,0.037296,-0.077963,9.920124,-0.359490,-0.443976,17.904739,-0.489327,-0.463701,-26.973742,0.972403,-0.005096,-0.002939,-0.233235
3326,0.047145,-0.074145,9.923427,-0.347269,-0.446953,17.852858,-0.503059,-0.458494,-26.377695,0.973602,-0.005187,-0.002894,-0.228174
3327,0.049703,-0.079838,9.917703,-0.151933,-0.446893,17.497318,-0.512652,-0.456076,-25.788450,0.974762,-0.005249,-0.002881,-0.223165
3328,0.051885,-0.077727,9.913881,-0.023738,-0.459046,17.784191,-0.516748,-0.454979,-25.200338,0.975895,-0.005267,-0.002891,-0.218160
3329,0.043968,-0.086256,9.914240,-0.045088,-0.474246,17.987143,-0.519899,-0.453244,-24.604050,0.977017,-0.005275,-0.002898,-0.213079
3330,0.043405,-0.094895,9.911839,0.034259,-0.490963,18.582253,-0.525228,-0.450325,-23.994442,0.978136,-0.005300,-0.002891,-0.207878
3331,0.040792,-0.099233,9.914454,0.162424,-0.530568,19.667185,-0.529508,-0.447583,-23.356800,0.979278,-0.005316,-0.002890,-0.202432
3332,0.034743,-0.094929,9.914092,0.273806,-0.565587,20.987112,-0.529756,-0.444212,-22.679077,0.980458,-0.005295,-0.002892,-0.196637
3333,0.034904,-0.089571,9.914324,0.281433,-0.599077,22.026268,-0.526270,-0.440714,-21.962042,0.981669,-0.005241,-0.002901,-0.190498
3334,0.040357,-0.084005,9.913084,0.409621,-0.608157,22.758715,-0.518724,-0.439030,-21.215494,0.982890,-0.005155,-0.002932,-0.184098
3335,0.040890,-0.065816,9.916547,0.481368,-0.597407,22.644270,-0.503702,-0.438705,-20.458685,0.984085,-0.005006,-0.002987,-0.177602
3336,0.043795,-0.054562,9.920308,0.366979,-0.580557,22.242950,-0.484393,-0.438950,-19.710514,0.985225,-0.004820,-0.003050,-0.171173
3337,0.044952,-0.079775,9.923039,0.202214,-0.562185,22.084255,-0.473495,-0.439647,-18.971655,0.986308,-0.004708,-0.003103,-0.164817
3338,0.042957,-0.095785,9.919065,0.228146,-0.560597,22.351292,-0.473874,-0.439846,-18.230930,0.987353,-0.004691,-0.003135,-0.158438
3339,0.043794,-0.097964,9.921374,0.254058,-0.557482,22.435221,-0.477287,-0.439658,-17.484331,0.988364,-0.004700,-0.003159,-0.152002
3340,0.039634,-0.124935,9.920398,0.159394,-0.552838,22.331455,-0.487319,-0.438625,-16.738016,0.989333,-0.004764,-0.003168,-0.145562
3341,0.037173,-0.143041,9.917503,0.099786,-0.564973,22.751089,-0.508175,-0.436218,-15.986374,0.990265,-0.004921,-0.003153,-0.139070
3342,0.036141,-0.129559,9.917693,0.150046,-0.578631,23.002867,-0.529106,-0.433317,-15.223536,0.991168,-0.005077,-0.003136,-0.132475
3343,0.031622,-0.136135,9.921723,0.131651,-0.569396,22.828915,-0.546738,-0.429354,-14.459421,0.992029,-0.005205,-0.003117,-0.125863
3344,0.025812,-0.126336,9.924367,0.204822,-0.586093,23.018131,-0.561468,-0.423517,-13.695065,0.992846,-0.005305,-0.003085,-0.119243
3345,0.026851,-0.101849,9.928185,0.191053,-0.605838,23.617817,-0.567536,-0.417439,-12.917607,0.993632,-0.005331,-0.003063,-0.112505
3346,0.028220,-0.095548,9.926749,0.186474,-0.605751,23.350782,-0.567257,-0.412458,-12.134654,0.994378,-0.005303,-0.003056,-0.105713
3347,0.026144,-0.089559,9.923444,0.285671,-0.588880,22.519156,-0.562654,-0.407632,-11.370030,0.995062,-0.005238,-0.003053,-0.099075
3348,0.021478,-0.063240,9.921972,0.534438,-0.567426,21.216015,-0.545879,-0.401691,-10.641027,0.995673,-0.005068,-0.003049,-0.092742
3349,0.025514,-0.062162,9.915174,0.780176,-0.536818,19.972385,-0.515940,-0.395836,-9.954511,0.996212,-0.004785,-0.003051,-0.086774
3350,0.021093,-0.066588,9.910043,0.948080,-0.504685,18.737911,-0.480975,-0.389991,-9.309285,0.996686,-0.004460,-0.003051,-0.081163
3351,0.017464,-0.065600,9.911421,1.013734,-0.477126,18.475452,-0.444700,-0.382586,-8.688997,0.997113,-0.004122,-0.003035,-0.075765
3352,0.018493,-0.068099,9.917471,0.615493,-0.475505,18.547173,-0.416523,-0.375000,-8.071882,0.997507,-0.003856,-0.003009,-0.070393
3353,0.028833,-0.079303,9.918046,0.108887,-0.475425,18.760803,-0.408173,-0.370212,-7.449990,0.997875,-0.003764,-0.002992,-0.064978
3354,0.029938,-0.091605,9.920023,-0.518294,-0.484512,19.047678,-0.424480,-0.368075,-6.819720,0.998217,-0.003889,-0.002986,-0.059489
3355,0.035076,-0.088841,9.918422,-0.918122,-0.511919,19.699249,-0.459555,-0.367572,-6.173799,0.998535,-0.004177,-0.002987,-0.053863
3356,0.036555,-0.093109,9.919785,-1.317941,-0.554591,20.123457,-0.506657,-0.369006,-5.509942,0.998829,-0.004571,-0.003004,-0.048078
3357,0.033579,-0.117507,9.917256,-1.180650,-0.583528,20.465265,-0.561016,-0.370605,-4.833283,0.999093,-0.005028,-0.003025,-0.042181
3358,0.029652,-0.143777,9.916041,-0.826709,-0.597199,20.501888,-0.613618,-0.370806,-4.150259,0.999324,-0.005468,-0.003040,-0.036227
3359,0.027753,-0.137060,9.916473,-0.367481,-0.581871,19.963236,-0.652807,-0.369352,-3.475591,0.999518,-0.005792,-0.003049,-0.030343
3360,0.028662,-0.150543,9.916521,-0.129503,-0.548232,18.621952,-0.678393,-0.366938,-2.832262,0.999672,-0.005997,-0.003055,-0.024732
3361,0.029470,-0.159123,9.918845,0.196969,-0.470343,16.224722,-0.696226,-0.363602,-2.251236,0.999783,-0.006137,-0.003053,-0.019663
3362,0.034528,-0.152970,9.919525,0.531076,-0.372623,12.979081,-0.701428,-0.359693,-1.764285,0.999858,-0.006169,-0.003044,-0.015415
3363,0.033067,-0.126344,9.919919,0.772131,-0.297770,9.824994,-0.690188,-0.349544,-1.384056,0.999904,-0.006059,-0.002977,-0.012096
3364,0.033769,-0.115630,9.918943,0.721774,-0.239677,6.693797,-0.667318,-0.333709,-1.108644,0.999932,-0.005851,-0.002856,-0.009691
3365,0.031324,-0.105309,9.920442,0.491386,-0.170907,4.005117,-0.642682,-0.318035,-0.930284,0.999947,-0.005631,-0.002730,-0.008134
3366,0.029007,-0.093024,9.919407,0.170996,-0.131132,1.972586,-0.621211,-0.301754,-0.830659,0.999955,-0.005440,-0.002594,-0.007263
3367,0.028700,-0.080051,9.911177,-0.202767,-0.118830,0.657239,-0.604374,-0.286364,-0.786874,0.999959,-0.005291,-0.002463,-0.006880
3368,0.031905,-0.083674,9.917027,-0.700126,-0.111121,-0.017220,-0.600846,-0.274226,-0.776260,0.999960,-0.005259,-0.002357,-0.006787
3369,0.031650,-0.109389,9.918408,-0.967133,-0.108004,-0.229323,-0.622620,-0.265025,-0.780363,0.999959,-0.005449,-0.002276,-0.006822
3370,0.030174,-0.123501,9.918174,-0.651307,-0.106417,-0.265945,-0.657678,-0.256549,-0.788546,0.999957,-0.005755,-0.002199,-0.006894
3371,0.034226,-0.120870,9.917276,-0.147795,-0.098739,-0.241529,-0.679718,-0.250096,-0.796929,0.999956,-0.005947,-0.002141,-0.006967
3372,0.033365,-0.128851,9.926800,0.334363,-0.086492,-0.252210,-0.683543,-0.245523,-0.805091,0.999955,-0.005980,-0.002101,-0.007038
3373,0.028071,-0.123163,9.922472,1.198006,-0.109334,-0.305617,-0.664068,-0.239497,-0.814322,0.999956,-0.005810,-0.002049,-0.007118
3374,0.028163,-0.087893,9.923115,1.954908,-0.132169,-0.383439,-0.602873,-0.232959,-0.825788,0.999958,-0.005276,-0.001995,-0.007217
3375,0.029094,-0.066535,9.929227,2.034381,-0.155011,-0.470416,-0.511292,-0.228418,-0.840061,0.999961,-0.004476,-0.001961,-0.007340
3376,0.022363,-0.049431,9.930390,1.878884,-0.158008,-0.552816,-0.416335,-0.222808,-0.857175,0.999963,-0.003648,-0.001917,-0.007487
3377,0.024549,-0.044144,9.931623,1.262541,-0.144215,-0.554342,-0.338057,-0.215929,-0.875678,0.999965,-0.002964,-0.001862,-0.007647
3379,0.027912,-0.051596,9.938691,0.257023,-0.102970,-0.490253,-0.299181,-0.211066,-0.893107,0.999964,-0.002625,-0.001821,-0.007799
3380,0.028415,-0.091013,9.942527,-0.458698,-0.061736,-0.403275,-0.314799,-0.207070,-0.907938,0.999963,-0.002761,-0.001785,-0.007928
3381,0.031200,-0.086467,9.935940,-0.442049,-0.034244,-0.348341,-0.357039,-0.203779,-0.920359,0.999961,-0.003130,-0.001753,-0.008037
3382,0.035861,-0.108044,9.933062,-0.433043,-0.035762,-0.304088,-0.401582,-0.203411,-0.931120,0.999959,-0.003519,-0.001747,-0.008132
3383,0.035303,-0.090044,9.929033,0.140576,-0.060178,-0.272044,-0.432033,-0.205304,-0.940619,0.999958,-0.003785,-0.001761,-0.008215
3384,0.035755,-0.084127,9.925051,0.317527,-0.066282,-0.244577,-0.435808,-0.207569,-0.949173,0.999957,-0.003818,-0.001780,-0.008290
3385,0.030849,-0.059951,9.917193,0.277864,-0.075428,-0.233895,-0.423466,-0.208107,-0.957138,0.999957,-0.003710,-0.001785,-0.008359
3386,0.029674,-0.064146,9.919713,0.059705,-0.076932,-0.183540,-0.408321,-0.206293,-0.964110,0.999957,-0.003578,-0.001770,-0.008420
3387,0.031166,-0.042355,9.919569,-0.059245,-0.061652,-0.139288,-0.393851,-0.204441,-0.969525,0.999957,-0.003452,-0.001755,-0.008467
3388,0.025999,-0.049440,9.919009,-0.587124,-0.040262,-0.128607,-0.386478,-0.200800,-0.974043,0.999957,-0.003387,-0.001724,-0.008506
3389,0.024703,-0.030635,9.915567,-0.725878,-0.049380,-0.105718,-0.387166,-0.194833,-0.978013,0.999956,-0.003393,-0.001671,-0.008540
3390,0.031409,-0.045473,9.922472,-0.925662,-0.043253,-0.069097,-0.392412,-0.191628,-0.980993,0.999956,-0.003439,-0.001643,-0.008566
3391,0.033578,-0.061851,9.921103,-1.003432,-0.053930,-0.053837,-0.413903,-0.192517,-0.983067,0.999955,-0.003626,-0.001649,-0.008585
3392,0.032081,-0.083177,9.921126,-0.902731,-0.076817,-0.050786,-0.447748,-0.194378,-0.984787,0.999954,-0.003922,-0.001663,-0.008600
3393,0.031255,-0.095972,9.924516,-0.486211,-0.092069,-0.030949,-0.482409,-0.195790,-0.986089,0.999953,-0.004224,-0.001672,-0.008612
3394,0.030957,-0.140971,9.931243,-0.526030,-0.076800,-0.035525,-0.528417,-0.196537,-0.987073,0.999951,-0.004626,-0.001675,-0.008622
3395,0.029832,-0.135537,9.929041,-0.347692,-0.069156,-0.050783,-0.581940,-0.196210,-0.988357,0.999948,-0.005093,-0.001668,-0.008634
3396,0.026363,-0.134798,9.927771,-0.303590,-0.064556,-0.061464,-0.622763,-0.193892,-0.990104,0.999946,-0.005449,-0.001645,-0.008649
3397,0.025921,-0.142221,9.932600,-0.398328,-0.041638,-0.062989,-0.660691,-0.189788,-0.992073,0.999944,-0.005780,-0.001606,-0.008667
3398,0.032214,-0.122481,9.925559,-0.547950,-0.023311,-0.069092,-0.692714,-0.187681,-0.994210,0.999943,-0.006059,-0.001585,-0.008686
3399,0.031815,-0.105767,9.920090,-0.265642,-0.020256,-0.073670,-0.703896,-0.187917,-0.996588,0.999942,-0.006157,-0.001586,-0.008707
3400,0.028991,-0.107580,9.918114,-0.128253,-0.024826,-0.066041,-0.699500,-0.187071,-0.998943,0.999942,-0.006118,-0.001579,-0.008727
3401,0.028413,-0.112918,9.921972,-0.090063,-0.012603,-0.064515,-0.694471,-0.184824,-1.001139,0.999942,-0.006074,-0.001560,-0.008746
3402,0.029731,-0.104340,9.913421,-0.032031,-0.024799,-0.064515,-0.687238,-0.183073,-1.003312,0.999942,-0.006011,-0.001545,-0.008765
3403,0.027389,-0.117356,9.922566,-0.053361,-0.023261,-0.078248,-0.681915,-0.181373,-1.005703,0.999942,-0.005964,-0.001530,-0.008786
3404,0.032218,-0.118553,9.921331,-0.071670,-0.029357,-0.084352,-0.683529,-0.180932,-1.008404,0.999942,-0.005979,-0.001526,-0.008809
3405,0.033253,-0.119783,9.925691,-0.091510,-0.029362,-0.091982,-0.686945,-0.182991,-1.011329,0.999942,-0.006009,-0.001544,-0.008835
3406,0.032133,-0.120305,9.920610,-0.093042,-0.038523,-0.104189,-0.691058,-0.185067,-1.014581,0.999941,-0.006045,-0.001562,-0.008863
3407,0.030303,-0.121017,9.923593,-0.091520,-0.041572,-0.102663,-0.695153,-0.185941,-1.018009,0.999941,-0.006080,-0.001569,-0.008893
3408,0.028787,-0.122569,9.922122,-0.067113,-0.053769,-0.085878,-0.699134,-0.185578,-1.021127,0.999940,-0.006115,-0.001565,-0.008921
3409,0.024439,-0.122520,9.924453,-0.056437,-0.055274,-0.076722,-0.702568,-0.183147,-1.023810,0.999940,-0.006145,-0.001543,-0.008944
3410,0.022388,-0.119895,9.922723,-0.053386,-0.065923,-0.079773,-0.704248,-0.178640,-1.026395,0.999940,-0.006159,-0.001504,-0.008966
3411,0.025928,-0.118760,9.925556,-0.061005,-0.065896,-0.069092,-0.704211,-0.175343,-1.028855,0.999940,-0.006159,-0.001475,-0.008988
3412,0.026517,-0.119091,9.926652,-0.056415,-0.058248,-0.062988,-0.703788,-0.174021,-1.031038,0.999940,-0.006155,-0.001463,-0.009007
3413,0.026248,-0.122607,9.923763,-0.073196,-0.056708,-0.066040,-0.705089,-0.172977,-1.033167,0.999939,-0.006166,-0.001454,-0.009025
3414,0.028984,-0.120580,9.923206,-0.070143,-0.058224,-0.069090,-0.707148,-0.173045,-1.035397,0.999939,-0.006184,-0.001454,-0.009045
3415,0.031634,-0.121808,9.923498,-0.059457,-0.055173,-0.062987,-0.708448,-0.175225,-1.037577,0.999939,-0.006196,-0.001473,-0.009064
3416,0.028250,-0.119547,9.923190,-0.048768,-0.055173,-0.050779,-0.708771,-0.176919,-1.039455,0.999938,-0.006199,-0.001488,-0.009080
3417,0.029521,-0.116032,9.923084,-0.045697,-0.056692,-0.062987,-0.706536,-0.177566,-1.041339,0.999938,-0.006179,-0.001493,-0.009097
3418,0.032852,-0.115494,9.924348,-0.025834,-0.062798,-0.056883,-0.702481,-0.179956,-1.043329,0.999938,-0.006144,-0.001515,-0.009114
3419,0.031394,-0.114472,9.924681,-0.021229,-0.058225,-0.059936,-0.697829,-0.182887,-1.045268,0.999939,-0.006104,-0.001540,-0.009131
3420,0.031481,-0.118558,9.922643,-0.024263,-0.049069,-0.052307,-0.694919,-0.184708,-1.047129,0.999939,-0.006079,-0.001556,-0.009147
3421,0.033635,-0.119093,9.923407,-0.022730,-0.050598,-0.072144,-0.694321,-0.186951,-1.049187,0.999938,-0.006074,-0.001576,-0.009165
3422,0.033508,-0.127704,9.924026,-0.021216,-0.062811,-0.082825,-0.697419,-0.189937,-1.051739,0.999938,-0.006101,-0.001602,-0.009188
3423,0.032323,-0.129235,9.924611,-0.033454,-0.058234,-0.096558,-0.704424,-0.192200,-1.054683,0.999937,-0.006162,-0.001621,-0.009214
3424,0.033590,-0.133521,9.924042,-0.038069,-0.068914,-0.102661,-0.713273,-0.194251,-1.057952,0.999937,-0.006240,-0.001638,-0.009243
3425,0.031610,-0.127634,9.922546,-0.038099,-0.070437,-0.117920,-0.720536,-0.195951,-1.061579,0.999936,-0.006303,-0.001652,-0.009274
3426,0.029110,-0.119194,9.921397,-0.038096,-0.068898,-0.105713,-0.721224,-0.195680,-1.065278,0.999935,-0.006309,-0.001649,-0.009307
3427,0.030730,-0.114742,9.921055,-0.033489,-0.065831,-0.095031,-0.716351,-0.194895,-1.068616,0.999935,-0.006267,-0.001642,-0.009336
3428,0.031186,-0.112296,9.920214,-0.024291,-0.067347,-0.095031,-0.708877,-0.194954,-1.071785,0.999936,-0.006202,-0.001643,-0.009363
3429,0.029890,-0.110366,9.916692,-0.019667,-0.059704,-0.093505,-0.700330,-0.194639,-1.074932,0.999936,-0.006127,-0.001641,-0.009391
3430,0.032466,-0.115547,9.917714,-0.031840,-0.065798,-0.087402,-0.694240,-0.194810,-1.077945,0.999936,-0.006074,-0.001643,-0.009417
3431,0.039994,-0.117357,9.921229,-0.027245,-0.064282,-0.095032,-0.691924,-0.198951,-1.080970,0.999936,-0.006054,-0.001679,-0.009443
3432,0.035332,-0.114678,9.917644,-0.028755,-0.056666,-0.093506,-0.689782,-0.203758,-1.084098,0.999936,-0.006036,-0.001721,-0.009471
3433,0.031437,-0.111024,9.918167,-0.025678,-0.050556,-0.095032,-0.685486,-0.204448,-1.087237,0.999935,-0.005999,-0.001727,-0.009498
3434,0.034141,-0.106035,9.925435,-0.030214,-0.039865,-0.091980,-0.678283,-0.204023,-1.090365,0.999936,-0.005936,-0.001724,-0.009525
3435,0.026740,-0.101047,9.926735,-0.021003,-0.041372,-0.082825,-0.667894,-0.201606,-1.093302,0.999936,-0.005845,-0.001704,-0.009551
3436,0.019899,-0.106663,9.924455,-0.011797,-0.033697,-0.085876,-0.658618,-0.193795,-1.096132,0.999936,-0.005763,-0.001636,-0.009575
3437,0.025266,-0.111749,9.931553,-0.010250,-0.024496,-0.081298,-0.654570,-0.185812,-1.098921,0.999936,-0.005727,-0.001567,-0.009599
3438,0.025432,-0.112809,9.929269,-0.033134,-0.029045,-0.081297,-0.654111,-0.180928,-1.101625,0.999936,-0.005723,-0.001524,-0.009622
3439,0.022190,-0.116162,9.924518,-0.023982,-0.033592,-0.073667,-0.655910,-0.175874,-1.104193,0.999936,-0.005738,-0.001480,-0.009644
3440,0.031139,-0.119845,9.922641,-0.016369,-0.013739,-0.079771,-0.660078,-0.173432,-1.106730,0.999936,-0.005775,-0.001458,-0.009666
3441,0.033916,-0.120611,9.921969,-0.037756,-0.018326,-0.081297,-0.665802,-0.175752,-1.109394,0.999935,-0.005825,-0.001477,-0.009690
3442,0.027857,-0.121792,9.919332,-0.033205,-0.035113,-0.084349,-0.671911,-0.177178,-1.112129,0.999934,-0.005878,-0.001489,-0.009714
3443,0.031199,-0.128253,9.918323,-0.024084,-0.032057,-0.075192,-0.679964,-0.177541,-1.114752,0.999934,-0.005949,-0.001492,-0.009737
3444,0.034044,-0.130379,9.922717,-0.010397,-0.039695,-0.081297,-0.689981,-0.180238,-1.117317,0.999933,-0.006036,-0.001514,-0.009760
3445,0.028184,-0.127896,9.927787,-0.002808,-0.054954,-0.084348,-0.698254,-0.181944,-1.120033,0.999932,-0.006109,-0.001528,-0.009783
3446,0.025915,-0.125863,9.925090,0.017003,-0.061042,-0.072140,-0.703102,-0.180579,-1.122602,0.999932,-0.006151,-0.001516,-0.009806
3447,0.031841,-0.114910,9.927462,0.021585,-0.057980,-0.066037,-0.701676,-0.180645,-1.124882,0.999932,-0.006138,-0.001516,-0.009826
3448,0.028017,-0.115335,9.927032,0.024663,-0.062553,-0.069089,-0.695834,-0.181630,-1.127126,0.999932,-0.006088,-0.001525,-0.009845
3449,0.025701,-0.107501,9.921910,0.012492,-0.064061,-0.062985,-0.687801,-0.180288,-1.129325,0.999932,-0.006017,-0.001514,-0.009864
3450,0.032895,-0.105862,9.920109,0.011015,-0.065579,-0.062985,-0.677305,-0.180905,-1.131430,0.999932,-0.005926,-0.001520,-0.009883
3451,0.033271,-0.104880,9.926500,0.018696,-0.070163,-0.078244,-0.666912,-0.184583,-1.133788,0.999933,-0.005836,-0.001553,-0.009903
3452,0.028893,-0.112678,9.921740,0.024829,-0.067110,-0.085874,-0.660297,-0.186461,-1.136515,0.999933,-0.005778,-0.001570,-0.009927
3453,0.033781,-0.109914,9.920858,0.027894,-0.068632,-0.079770,-0.656623,-0.188147,-1.139259,0.999933,-0.005746,-0.001585,-0.009951
3454,0.032561,-0.111083,9.923491,0.011122,-0.065584,-0.085874,-0.653243,-0.190979,-1.142003,0.999933,-0.005717,-0.001610,-0.009975
3455,0.029201,-0.123282,9.918999,0.005005,-0.064050,-0.075192,-0.655869,-0.191672,-1.144653,0.999932,-0.005740,-0.001615,-0.009998
3456,0.036069,-0.121088,9.914298,-0.002660,-0.062522,-0.075192,-0.662669,-0.193439,-1.147112,0.999932,-0.005799,-0.001630,-0.010020
3457,0.037706,-0.120112,9.916253,-0.001159,-0.067114,-0.066037,-0.667737,-0.198372,-1.149423,0.999931,-0.005844,-0.001673,-0.010040
3458,0.036136,-0.120945,9.917913,-0.007284,-0.064074,-0.069089,-0.672018,-0.202903,-1.151635,0.999931,-0.005882,-0.001712,-0.010060
3459,0.040338,-0.126128,9.914145,0.000317,-0.047302,-0.066037,-0.677979,-0.207490,-1.153845,0.999930,-0.005934,-0.001751,-0.010080
3460,0.034572,-0.117274,9.914623,-0.010383,-0.056465,-0.090451,-0.681908,-0.210749,-1.156418,0.999930,-0.005969,-0.001779,-0.010102
3461,0.022412,-0.124588,9.917192,-0.018025,-0.044228,-0.079770,-0.684875,-0.206528,-1.159226,0.999929,-0.005995,-0.001742,-0.010127
3462,0.024443,-0.123621,9.916744,-0.043989,-0.035023,-0.079769,-0.690378,-0.198108,-1.161854,0.999929,-0.006042,-0.001668,-0.010149
3463,0.027063,-0.120558,9.914856,-0.034844,-0.034988,-0.081294,-0.694056,-0.192171,-1.164516,0.999929,-0.006073,-0.001615,-0.010172
3464,0.027385,-0.127989,9.916446,-0.025706,-0.056325,-0.076716,-0.698501,-0.188679,-1.167120,0.999928,-0.006112,-0.001584,-0.010195
3465,0.035921,-0.134543,9.921315,-0.013540,-0.045639,-0.064509,-0.707404,-0.189393,-1.169425,0.999927,-0.006190,-0.001590,-0.010215
3466,0.044211,-0.130927,9.916276,-0.012057,-0.053297,-0.062983,-0.716322,-0.196720,-1.171501,0.999927,-0.006268,-0.001653,-0.010234
3467,0.045975,-0.138968,9.926810,-0.007524,-0.056394,-0.069087,-0.725625,-0.207552,-1.173647,0.999926,-0.006350,-0.001746,-0.010253
3468,0.043596,-0.135843,9.930857,-0.009098,-0.047275,-0.078243,-0.735480,-0.216815,-1.176046,0.999925,-0.006437,-0.001826,-0.010275
3469,0.042623,-0.126665,9.931179,-0.016745,-0.030515,-0.079769,-0.739454,-0.223013,-1.178649,0.999924,-0.006473,-0.001880,-0.010298
3470,0.035132,-0.119613,9.928255,-0.018253,-0.028991,-0.087399,-0.736430,-0.224626,-1.181436,0.999924,-0.006446,-0.001894,-0.010322
3471,0.031371,-0.124344,9.927716,-0.019757,-0.033548,-0.091977,-0.732515,-0.221449,-1.184429,0.999924,-0.006412,-0.001866,-0.010348
3472,0.025361,-0.118498,9.914459,-0.004475,-0.042665,-0.090450,-0.728469,-0.214858,-1.187470,0.999924,-0.006376,-0.001809,-0.010374
3473,0.026359,-0.119076,9.912310,-0.016653,-0.051774,-0.073665,-0.722947,-0.207306,-1.190207,0.999924,-0.006327,-0.001743,-0.010398
3474,0.022534,-0.121927,9.914416,-0.016633,-0.073090,-0.079768,-0.719588,-0.200113,-1.192752,0.999924,-0.006297,-0.001681,-0.010419
3475,0.026617,-0.118849,9.910748,-0.005935,-0.080679,-0.066034,-0.716563,-0.194484,-1.195161,0.999925,-0.006270,-0.001632,-0.010440
3476,0.026828,-0.118368,9.912316,-0.004387,-0.077599,-0.062982,-0.712399,-0.191437,-1.197292,0.999925,-0.006234,-0.001606,-0.010458
3477,0.023768,-0.119205,9.917685,-0.010472,-0.062309,-0.064508,-0.708895,-0.187558,-1.199400,0.999925,-0.006203,-0.001572,-0.010476
3478,0.025535,-0.127883,9.920026,0.010888,-0.053121,-0.058403,-0.709276,-0.183225,-1.201424,0.999925,-0.006206,-0.001534,-0.010494
3479,0.029861,-0.125726,9.917088,0.015451,-0.045475,-0.055351,-0.711948,-0.181505,-1.203289,0.999924,-0.006229,-0.001519,-0.010510
3480,0.030502,-0.130473,9.918918,-0.005932,-0.042418,-0.076714,-0.715698,-0.181927,-1.205459,0.999924,-0.006262,-0.001522,-0.010529
3482,0.029081,-0.129006,9.916238,-0.007482,-0.037833,-0.064506,-0.720670,-0.182012,-1.207781,0.999923,-0.006305,-0.001522,-0.010549
3483,0.034703,-0.130280,9.918391,-0.005976,-0.053094,-0.066032,-0.724989,-0.183856,-1.209925,0.999923,-0.006343,-0.001538,-0.010568
3484,0.030299,-0.124657,9.919022,-0.007512,-0.065305,-0.087395,-0.727000,-0.186501,-1.212451,0.999923,-0.006361,-0.001560,-0.010591
3485,0.028949,-0.126517,9.923099,-0.009037,-0.057666,-0.082817,-0.727167,-0.186705,-1.215262,0.999922,-0.006363,-0.001562,-0.010615
3486,0.026475,-0.123059,9.925094,-0.001403,-0.054596,-0.066031,-0.726444,-0.185058,-1.217721,0.999922,-0.006356,-0.001547,-0.010636
3487,0.029837,-0.117507,9.927672,0.004723,-0.051529,-0.076713,-0.722040,-0.183739,-1.220092,0.999922,-0.006318,-0.001536,-0.010657
3488,0.030496,-0.113998,9.928399,0.009338,-0.037789,-0.069083,-0.714298,-0.183883,-1.222527,0.999922,-0.006250,-0.001538,-0.010678
3489,0.030013,-0.111463,9.926095,-0.005876,-0.030153,-0.073661,-0.705224,-0.183817,-1.224921,0.999923,-0.006171,-0.001538,-0.010699
3490,0.029070,-0.110680,9.924148,-0.005830,-0.043877,-0.084343,-0.696265,-0.183306,-1.227568,0.999923,-0.006093,-0.001534,-0.010722
3491,0.032177,-0.113159,9.927343,0.003361,-0.040821,-0.084343,-0.689000,-0.183845,-1.230385,0.999923,-0.006029,-0.001540,-0.010746
3492,0.030309,-0.116802,9.927438,0.000329,-0.051500,-0.076713,-0.685056,-0.184980,-1.233063,0.999923,-0.005995,-0.001550,-0.010770
3493,0.024560,-0.113561,9.923832,-0.004234,-0.059113,-0.088921,-0.682156,-0.183381,-1.235811,0.999923,-0.005970,-0.001536,-0.010794
3494,0.028872,-0.113477,9.924030,0.006467,-0.063670,-0.082816,-0.678345,-0.181469,-1.238661,0.999923,-0.005936,-0.001520,-0.010818
3495,0.028119,-0.114053,9.927031,0.008009,-0.051451,-0.073660,-0.674954,-0.181026,-1.241256,0.999923,-0.005907,-0.001516,-0.010841
3496,0.027113,-0.115032,9.922797,0.003441,-0.051436,-0.078238,-0.672698,-0.179859,-1.243773,0.999923,-0.005887,-0.001506,-0.010863
3497,0.033595,-0.118034,9.925211,0.003442,-0.048381,-0.084342,-0.672433,-0.180860,-1.246464,0.999922,-0.005885,-0.001514,-0.010886
3498,0.039422,-0.118999,9.920981,0.004959,-0.048401,-0.072134,-0.673847,-0.186560,-1.249047,0.999922,-0.005898,-0.001564,-0.010909
3499,0.035798,-0.119864,9.923810,0.003423,-0.045372,-0.072134,-0.675895,-0.192611,-1.251426,0.999922,-0.005916,-0.001616,-0.010930
3500,0.037771,-0.117079,9.917091,0.011045,-0.056068,-0.066032,-0.676890,-0.197376,-1.253705,0.999921,-0.005925,-0.001658,-0.010950
3501,0.035798,-0.114316,9.918254,0.015629,-0.059132,-0.070610,-0.675368,-0.201656,-1.255963,0.999921,-0.005913,-0.001695,-0.010970
3502,0.029898,-0.113606,9.919351,0.021745,-0.043866,-0.075187,-0.672355,-0.202097,-1.258381,0.999921,-0.005886,-0.001699,-0.010991
3503,0.031721,-0.117398,9.921441,0.018698,-0.042324,-0.081291,-0.670764,-0.200370,-1.260975,0.999921,-0.005872,-0.001684,-0.011014
3504,0.031791,-0.121996,9.912536,0.011054,-0.048416,-0.084343,-0.672921,-0.199545,-1.263708,0.999920,-0.005891,-0.001676,-0.011038
3505,0.032113,-0.119544,9.912777,0.009511,-0.030095,-0.090446,-0.676059,-0.198849,-1.266594,0.999920,-0.005919,-0.001670,-0.011063
3506,0.033071,-0.121722,9.914968,-0.002711,-0.033139,-0.085868,-0.678956,-0.198491,-1.269509,0.999920,-0.005944,-0.001666,-0.011088
3507,0.032904,-0.119275,9.915923,0.000329,-0.045342,-0.078238,-0.681487,-0.198756,-1.272220,0.999919,-0.005966,-0.001668,-0.011112
3508,0.027447,-0.121834,9.914384,-0.004260,-0.040748,-0.076712,-0.683728,-0.196986,-1.274778,0.999919,-0.005985,-0.001653,-0.011134
3509,0.030868,-0.121510,9.918060,0.006408,-0.033098,-0.081289,-0.686400,-0.194326,-1.277387,0.999918,-0.006008,-0.001629,-0.011157
3510,0.026685,-0.131363,9.918489,0.001800,-0.036130,-0.084341,-0.692293,-0.191588,-1.280113,0.999918,-0.006060,-0.001604,-0.011181
3511,0.026463,-0.130683,9.916556,0.000228,-0.023896,-0.088919,-0.701258,-0.187364,-1.282959,0.999917,-0.006138,-0.001566,-0.011205
3512,0.028817,-0.132640,9.913109,-0.008971,-0.019299,-0.101125,-0.709930,-0.184155,-1.286090,0.999916,-0.006213,-0.001537,-0.011233
3513,0.032272,-0.132796,9.914739,-0.015114,-0.020818,-0.110281,-0.718504,-0.183634,-1.289578,0.999916,-0.006288,-0.001532,-0.011263
3514,0.029668,-0.122805,9.919368,-0.018182,-0.014712,-0.090443,-0.722264,-0.183604,-1.292906,0.999915,-0.006321,-0.001531,-0.011292
3515,0.034443,-0.121086,9.919088,-0.027328,-0.014713,-0.099599,-0.720874,-0.184338,-1.296073,0.999915,-0.006309,-0.001537,-0.011320
3516,0.037359,-0.124517,9.919752,-0.021216,-0.016254,-0.085866,-0.720035,-0.188010,-1.299163,0.999915,-0.006302,-0.001569,-0.011347
3517,0.036686,-0.120102,9.920573,-0.022732,-0.017799,-0.072132,-0.718883,-0.192296,-1.301795,0.999914,-0.006292,-0.001607,-0.011370
3518,0.032948,-0.118197,9.920259,-0.018133,-0.026961,-0.061452,-0.715378,-0.194526,-1.304026,0.999914,-0.006262,-0.001626,-0.011390
3519,0.033576,-0.128198,9.919692,-0.013552,-0.034590,-0.072133,-0.715151,-0.195404,-1.306242,0.999914,-0.006260,-0.001634,-0.011409
3520,0.033369,-0.126772,9.924505,-0.013566,-0.036115,-0.066030,-0.718378,-0.196386,-1.308521,0.999914,-0.006288,-0.001642,-0.011429
3521,0.034634,-0.123948,9.925486,-0.018148,-0.036115,-0.067556,-0.719817,-0.197668,-1.310729,0.999913,-0.006301,-0.001653,-0.011449
3522,0.034000,-0.124117,9.919569,-0.018146,-0.034590,-0.076711,-0.720022,-0.199025,-1.313119,0.999913,-0.006303,-0.001665,-0.011470
3523,0.035722,-0.125262,9.917555,-0.005940,-0.022385,-0.087392,-0.720458,-0.200411,-1.315842,0.999913,-0.006307,-0.001677,-0.011493
3524,0.034914,-0.125639,9.915733,0.004738,-0.030017,-0.090444,-0.721073,-0.201898,-1.318793,0.999912,-0.006312,-0.001689,-0.011519
3525,0.032911,-0.125579,9.913166,0.010839,-0.031540,-0.087392,-0.721482,-0.202269,-1.321741,0.999912,-0.006316,-0.001692,-0.011545
3526,0.029136,-0.127529,9.910812,0.019988,-0.036102,-0.084340,-0.722321,-0.200396,-1.324584,0.999912,-0.006323,-0.001676,-0.011570
3527,0.030141,-0.130017,9.918549,0.021498,-0.033030,-0.076710,-0.724583,-0.197573,-1.327243,0.999911,-0.006343,-0.001651,-0.011593
3528,0.031855,-0.126014,9.920499,0.023013,-0.043699,-0.072132,-0.725957,-0.196222,-1.329700,0.999911,-0.006355,-0.001639,-0.011614
3529,0.031909,-0.122282,9.921454,0.004709,-0.029957,-0.062977,-0.724377,-0.195773,-1.331940,0.999911,-0.006341,-0.001635,-0.011634
3530,0.033875,-0.127122,9.922948,0.007765,-0.031478,-0.058399,-0.723481,-0.196012,-1.333952,0.999911,-0.006333,-0.001637,-0.011651
3531,0.031408,-0.125517,9.926273,0.026072,-0.025369,-0.072132,-0.723614,-0.195992,-1.336113,0.999911,-0.006334,-0.001637,-0.011670
3532,0.035325,-0.129065,9.924063,0.047427,-0.034523,-0.085866,-0.723879,-0.196570,-1.338729,0.999910,-0.006337,-0.001641,-0.011693
3533,0.030923,-0.135060,9.927732,0.068765,-0.031468,-0.073658,-0.727069,-0.197024,-1.341356,0.999910,-0.006365,-0.001645,-0.011716
3534,0.028274,-0.138861,9.923838,0.082454,-0.039081,-0.078235,-0.733216,-0.194771,-1.343842,0.999909,-0.006418,-0.001625,-0.011738
3535,0.027530,-0.136320,9.923096,0.047315,-0.037531,-0.081287,-0.739607,-0.191440,-1.346456,0.999909,-0.006473,-0.001595,-0.011760
3536,0.028931,-0.135872,9.916733,0.018290,-0.052770,-0.073658,-0.745119,-0.188970,-1.348996,0.999908,-0.006521,-0.001572,-0.011782
3537,0.025086,-0.134438,9.915937,-0.030565,-0.049696,-0.073657,-0.750450,-0.186154,-1.351413,0.999908,-0.006568,-0.001547,-0.011803
3538,0.028382,-0.125793,9.911518,-0.038197,-0.055777,-0.084338,-0.752142,-0.183537,-1.354021,0.999907,-0.006582,-0.001524,-0.011826
3539,0.031199,-0.115943,9.914439,-0.036636,-0.052717,-0.091968,-0.746350,-0.183694,-1.356958,0.999907,-0.006532,-0.001526,-0.011852
3540,0.029054,-0.108419,9.914503,-0.062510,-0.058815,-0.093493,-0.734529,-0.184322,-1.360068,0.999908,-0.006429,-0.001532,-0.011879
3541,0.028489,-0.106192,9.918344,-0.129571,-0.048121,-0.087390,-0.721659,-0.183772,-1.363111,0.999908,-0.006316,-0.001529,-0.011905
3542,0.027847,-0.098901,9.914097,-0.274443,-0.046581,-0.062974,-0.710303,-0.182541,-1.365655,0.999908,-0.006217,-0.001519,-0.011927
3543,0.029066,-0.095940,9.918209,-0.407096,-0.035887,-0.032456,-0.701244,-0.181436,-1.367293,0.999909,-0.006138,-0.001510,-0.011941
3544,0.026338,-0.088782,9.917420,-0.410034,-0.026716,0.008743,-0.691900,-0.179556,-1.367748,0.999909,-0.006056,-0.001495,-0.011945
3545,0.028769,-0.102218,9.920026,-0.397730,-0.020598,0.036210,-0.686040,-0.177490,-1.367050,0.999910,-0.006005,-0.001477,-0.011939
3546,0.026188,-0.105530,9.919384,-0.130634,-0.022111,-0.000413,-0.682979,-0.175553,-1.366482,0.999910,-0.005978,-0.001461,-0.011933
3547,0.025369,-0.112490,9.924929,0.339388,-0.028197,-0.055346,-0.672155,-0.172712,-1.367423,0.999910,-0.005883,-0.001437,-0.011941
3548,0.025667,-0.117483,9.925790,0.685782,-0.049542,-0.119434,-0.653218,-0.170464,-1.370326,0.999911,-0.005718,-0.001419,-0.011966
3549,0.028033,-0.127884,9.929955,0.820034,-0.066316,-0.207938,-0.634145,-0.170237,-1.375741,0.999911,-0.005551,-0.001419,-0.012013
3550,0.027150,-0.119557,9.924737,0.990891,-0.066308,-0.310175,-0.613315,-0.171058,-1.384323,0.999911,-0.005370,-0.001428,-0.012088
3551,0.028496,-0.104172,9.924364,0.934417,-0.078509,-0.380367,-0.584132,-0.172255,-1.395797,0.999912,-0.005115,-0.001441,-0.012188
3552,0.029473,-0.095435,9.922795,0.429351,-0.086136,-0.462767,-0.558359,-0.174563,-1.409829,0.999911,-0.004891,-0.001463,-0.012310
3553,0.026390,-0.101694,9.918175,-0.121507,-0.072395,-0.577212,-0.552908,-0.175760,-1.427137,0.999910,-0.004844,-0.001474,-0.012461
3554,0.028074,-0.116345,9.915467,-0.449630,-0.061702,-0.777108,-0.572255,-0.175840,-1.449656,0.999906,-0.005013,-0.001471,-0.012658
3555,0.027486,-0.109599,9.916405,-0.695365,-0.075424,-1.088396,-0.603264,-0.176406,-1.480687,0.999901,-0.005284,-0.001471,-0.012929
3556,0.036334,-0.138318,9.912776,-1.281406,-0.011341,-2.859995,-0.653148,-0.179676,-1.546421,0.999891,-0.005720,-0.001491,-0.013503
3557,0.040471,-0.150811,9.912398,-1.315078,0.161068,-7.720068,-0.716224,-0.183333,-1.722706,0.999866,-0.006274,-0.001506,-0.015043
3558,0.040977,-0.138908,9.915633,-0.854299,0.277021,-10.955030,-0.761549,-0.183608,-2.033990,0.999819,-0.006673,-0.001484,-0.017759
3559,0.041851,-0.107236,9.915455,-0.674231,0.392972,-14.525696,-0.783820,-0.181863,-2.458782,0.999745,-0.006873,-0.001440,-0.021466
3560,0.042016,-0.147133,9.918202,-0.709314,0.522656,-18.201651,-0.802638,-0.178097,-3.004396,0.999630,-0.007043,-0.001370,-0.026226
3561,0.038205,-0.137970,9.924257,-0.100480,0.553157,-19.069902,-0.816234,-0.172399,-3.625758,0.999473,-0.007167,-0.001278,-0.031645
3562,0.036207,-0.125659,9.926121,0.473284,0.460063,-16.031784,-0.805056,-0.166390,-4.210960,0.999299,-0.007074,-0.001193,-0.036749
3563,0.036804,-0.137553,9.921218,0.487034,0.412745,-14.673710,-0.784196,-0.161666,-4.722871,0.999126,-0.006896,-0.001128,-0.041212
3564,0.035533,-0.171121,9.917418,0.606024,0.350167,-13.242393,-0.771131,-0.158261,-5.188243,0.998951,-0.006785,-0.001075,-0.045269
3565,0.035394,-0.141812,9.914936,0.898960,0.278434,-11.455533,-0.753338,-0.156265,-5.599951,0.998783,-0.006633,-0.001041,-0.048857
3566,0.034887,-0.132851,9.916352,0.575454,0.275367,-12.097949,-0.729781,-0.155147,-5.992588,0.998611,-0.006431,-0.001019,-0.052279
3567,0.033051,-0.132520,9.918729,0.120719,0.313502,-13.849711,-0.718676,-0.153510,-6.425131,0.998408,-0.006337,-0.000986,-0.056048
3568,0.032839,-0.126238,9.918951,-0.015095,0.321120,-14.777475,-0.717186,-0.151326,-6.902336,0.998166,-0.006327,-0.000941,-0.060205
3569,0.034954,-0.111959,9.924740,-0.019663,0.333312,-15.374111,-0.714432,-0.149588,-7.404956,0.997892,-0.006306,-0.000900,-0.064582
3570,0.034369,-0.100650,9.929403,-0.066932,0.374496,-16.297297,-0.707687,-0.147643,-7.932929,0.997584,-0.006250,-0.000858,-0.069179
3571,0.031771,-0.119559,9.928556,0.189449,0.395845,-16.585697,-0.699202,-0.144344,-8.481097,0.997243,-0.006178,-0.000805,-0.073950
3572,0.034393,-0.122681,9.924273,0.731154,0.380571,-16.672674,-0.682188,-0.141082,-9.035508,0.996874,-0.006032,-0.000758,-0.078774
3573,0.036626,-0.109035,9.922234,1.126375,0.404964,-17.634007,-0.648379,-0.138764,-9.607391,0.996470,-0.005740,-0.000733,-0.083748
3574,0.030455,-0.102421,9.919696,1.239312,0.420206,-18.334408,-0.603871,-0.135128,-10.206978,0.996021,-0.005354,-0.000706,-0.088960
3575,0.034721,-0.089312,9.918538,1.657440,0.391196,-18.564821,-0.549340,-0.131210,-10.822065,0.995531,-0.004880,-0.000688,-0.094304
3576,0.040225,-0.033720,9.914532,1.961172,0.349968,-18.073477,-0.472888,-0.129841,-11.432809,0.995017,-0.004219,-0.000716,-0.099608
3577,0.039393,-0.029174,9.918000,1.561489,0.322469,-17.630957,-0.390866,-0.129712,-12.027997,0.994490,-0.003511,-0.000768,-0.104775
3578,0.043094,-0.034182,9.924105,1.082432,0.313277,-17.513462,-0.328877,-0.130041,-12.613821,0.993943,-0.002977,-0.000813,-0.109857
3579,0.050779,-0.025778,9.923260,0.841399,0.323911,-18.456486,-0.282989,-0.132060,-13.213387,0.993355,-0.002586,-0.000861,-0.115056
3580,0.049874,-0.027439,9.921079,0.235656,0.371162,-19.683329,-0.253407,-0.134103,-13.849110,0.992702,-0.002336,-0.000895,-0.120564
3581,0.046821,-0.060644,9.924355,-0.365553,0.419943,-21.332855,-0.253050,-0.133714,-14.532751,0.991966,-0.002338,-0.000878,-0.126485
3582,0.043684,-0.043702,9.925824,-0.367095,0.464152,-23.038837,-0.266753,-0.130873,-15.272299,0.991128,-0.002459,-0.000823,-0.132884
3583,0.037787,-0.036694,9.928954,-0.493737,0.477851,-24.099356,-0.277485,-0.125746,-16.057968,0.990194,-0.002551,-0.000748,-0.139676
3585,0.036041,-0.029297,9.926375,-1.029310,0.531230,-25.582556,-0.295659,-0.118719,-16.886045,0.989158,-0.002704,-0.000646,-0.146828
3586,0.034519,-0.043965,9.929996,-1.194085,0.569352,-26.804827,-0.325958,-0.110561,-17.759214,0.988010,-0.002959,-0.000514,-0.154361
3587,0.034388,-0.051186,9.929528,-1.038429,0.569324,-26.688854,-0.359088,-0.102540,-18.650814,0.986778,-0.003237,-0.000375,-0.162043
3588,0.038744,-0.086147,9.927641,-1.255128,0.584548,-26.971149,-0.399343,-0.096185,-19.545193,0.985482,-0.003577,-0.000236,-0.169740
3589,0.044146,-0.091539,9.924015,-1.142253,0.630279,-28.362797,-0.446686,-0.092107,-20.467468,0.984083,-0.003979,-0.000098,-0.177666
3590,0.044753,-0.111990,9.926966,-0.695212,0.639380,-28.791578,-0.486755,-0.089521,-21.420088,0.982570,-0.004319,0.000022,-0.185840
3591,0.047764,-0.111477,9.925452,-0.290901,0.628640,-28.815996,-0.513576,-0.088492,-22.380268,0.980978,-0.004546,0.000112,-0.194067
3592,0.049528,-0.089119,9.922420,0.037147,0.627051,-29.446201,-0.521554,-0.089091,-23.351370,0.979298,-0.004615,0.000160,-0.202373
3593,0.055471,-0.069794,9.923688,0.261478,0.626979,-29.295137,-0.511115,-0.091257,-24.330469,0.977533,-0.004528,0.000161,-0.210733
3594,0.053292,-0.069363,9.924732,0.652152,0.590282,-27.836351,-0.486701,-0.094146,-25.282745,0.975749,-0.004324,0.000128,-0.218849
3595,0.058394,-0.030750,9.923771,0.990978,0.509332,-25.223969,-0.443837,-0.098285,-26.167173,0.974032,-0.003967,0.000041,-0.226374
3596,0.058199,-0.017598,9.924459,0.849176,0.463474,-23.284519,-0.390022,-0.103923,-26.975750,0.972413,-0.003521,-0.000088,-0.233241
3597,0.062920,-0.018340,9.921896,0.692109,0.429820,-21.508343,-0.342059,-0.110372,-27.722393,0.970874,-0.003129,-0.000220,-0.239572
3598,0.055555,-0.018974,9.917788,0.380906,0.388542,-20.380682,-0.305573,-0.116353,-28.420622,0.969397,-0.002834,-0.000330,-0.245483
3599,0.055776,-0.016187,9.916339,-0.493374,0.389998,-20.061764,-0.291239,-0.120789,-29.094732,0.967936,-0.002725,-0.000382,-0.251182
3600,0.046795,-0.040462,9.914425,-1.471447,0.437243,-20.959011,-0.313553,-0.122506,-29.778471,0.966420,-0.002919,-0.000330,-0.256953
3601,0.047504,-0.076796,9.909100,-2.467889,0.530274,-22.948818,-0.380096,-0.120933,-30.510311,0.964757,-0.003478,-0.000145,-0.263120
3602,0.031098,-0.104684,9.910313,-4.263962,0.739291,-30.795128,-0.502312,-0.113769,-31.406094,0.962666,-0.004489,0.000231,-0.270653
3603,0.031517,-0.149495,9.908497,-7.106859,1.184839,-40.129211,-0.709216,-0.098502,-32.588287,0.959814,-0.006182,0.000911,-0.280568
3604,0.042410,-0.211468,9.903658,-8.397938,1.181752,-44.093563,-0.994548,-0.087235,-33.992153,0.956287,-0.008522,0.001809,-0.292301
3605,0.045946,-0.267953,9.905058,-7.909820,1.276305,-44.804649,-1.299664,-0.086858,-35.473946,0.952401,-0.011033,0.002733,-0.304636
3606,0.046269,-0.285036,9.907755,-7.003571,1.375430,-45.137295,-1.575950,-0.092197,-36.973221,0.948304,-0.013298,0.003598,-0.317063
3607,0.064260,-0.320763,9.908888,-5.401454,1.404347,-40.889122,-1.801109,-0.103308,-38.407379,0.944234,-0.015139,0.004318,-0.328900
3608,0.065384,-0.318972,9.912399,-2.369493,1.204359,-34.846466,-1.938814,-0.119382,-39.670113,0.940532,-0.016268,0.004761,-0.339281
3609,0.055866,-0.304912,9.918701,-0.401027,1.309567,-32.740688,-1.977973,-0.131661,-40.797192,0.937143,-0.016578,0.004939,-0.348516
3610,0.061403,-0.297131,9.917819,0.146853,1.182845,-32.083019,-1.964992,-0.141324,-41.878304,0.933815,-0.016455,0.004976,-0.357343
3611,0.064270,-0.279502,9.917830,0.311755,1.097318,-31.005716,-1.934203,-0.154148,-42.930428,0.930498,-0.016200,0.004925,-0.365905
3612,0.070525,-0.264945,9.918754,0.169971,1.002629,-28.956404,-1.898193,-0.168653,-43.930393,0.927274,-0.015912,0.004831,-0.374014
3613,0.079451,-0.270523,9.928929,-0.258690,1.101724,-27.157339,-1.872078,-0.182453,-44.866283,0.924191,-0.015707,0.004762,-0.381578
3614,0.084388,-0.269746,9.926607,-0.411175,1.171818,-26.492039,-1.858545,-0.193523,-45.761211,0.921184,-0.015599,0.004750,-0.388786
3615,0.082369,-0.273955,9.929473,-0.554513,1.310579,-26.255526,-1.851833,-0.200177,-46.641232,0.918171,-0.015531,0.004793,-0.395850
3616,0.083381,-0.271591,9.931895,-0.732952,1.310486,-25.828270,-1.851457,-0.203319,-47.510277,0.915143,-0.015502,0.004884,-0.402802
3617,0.079250,-0.275169,9.930864,-0.754223,1.279878,-25.314037,-1.854875,-0.205556,-48.363621,0.912117,-0.015500,0.004994,-0.409606
3618,0.076110,-0.256666,9.922450,-0.346695,1.050908,-24.387804,-1.848975,-0.209754,-49.192833,0.909130,-0.015432,0.005051,-0.416196
3619,0.067907,-0.266795,9.927748,-0.378626,0.973017,-23.208265,-1.835352,-0.215361,-49.986824,0.906226,-0.015310,0.005064,-0.422486
3620,0.073616,-0.241293,9.930924,-0.598233,0.931752,-22.929022,-1.823602,-0.221230,-50.756451,0.903369,-0.015205,0.005076,-0.428565
3621,0.073264,-0.255637,9.927698,-0.569108,0.911847,-22.048565,-1.813710,-0.227995,-51.506752,0.900544,-0.015119,0.005085,-0.434471
3622,0.070876,-0.257189,9.928622,-0.379780,0.888894,-21.248985,-1.804003,-0.233529,-52.229023,0.897789,-0.015032,0.005100,-0.440140
3623,0.070691,-0.284325,9.926393,-0.285091,0.873576,-20.875135,-1.795757,-0.238051,-52.931721,0.895074,-0.014954,0.005124,-0.445638
3624,0.078598,-0.260593,9.919974,-0.223979,0.885718,-21.349699,-1.786138,-0.243753,-53.636078,0.892318,-0.014869,0.005134,-0.451132
3625,0.075477,-0.280705,9.914903,-0.176598,0.902435,-21.804430,-1.774529,-0.249893,-54.355934,0.889468,-0.014771,0.005133,-0.456730
3626,0.077535,-0.279404,9.912166,-0.144500,0.931363,-22.588757,-1.765809,-0.255221,-55.096439,0.886499,-0.014692,0.005152,-0.462469
3627,0.078844,-0.271919,9.913859,-0.109344,0.948081,-23.118252,-1.754789,-0.260590,-55.858849,0.883403,-0.014594,0.005163,-0.468358
3628,0.082411,-0.252071,9.913034,-0.147412,0.938856,-22.845116,-1.739115,-0.266365,-56.625557,0.880251,-0.014463,0.005152,-0.474260
3629,0.081492,-0.267713,9.908836,-0.273982,0.902164,-21.926510,-1.726305,-0.272256,-57.372387,0.877143,-0.014356,0.005147,-0.479988
3630,0.084310,-0.296760,9.908112,-0.284629,0.882257,-21.389389,-1.725403,-0.278280,-58.094898,0.874099,-0.014342,0.005188,-0.485509
3631,0.085949,-0.311505,9.908658,-0.263276,0.923385,-22.198132,-1.733112,-0.284591,-58.821896,0.870999,-0.014394,0.005264,-0.491045
3632,0.082334,-0.326475,9.908025,-0.341137,1.027080,-24.448872,-1.746935,-0.289370,-59.599915,0.867643,-0.014483,0.005385,-0.496947
3633,0.081664,-0.343619,9.904678,-0.397663,1.149091,-27.125347,-1.768027,-0.291956,-60.460083,0.863886,-0.014613,0.005567,-0.503445
3634,0.083491,-0.351920,9.910996,-0.339761,1.266525,-29.780460,-1.792322,-0.293625,-61.409164,0.859683,-0.014756,0.005783,-0.510582
3635,0.082443,-0.314331,9.913661,-0.341335,1.388537,-32.234146,-1.808011,-0.294292,-62.443501,0.855037,-0.014823,0.005982,-0.518320
3636,0.076068,-0.270922,9.914167,-0.318410,1.457149,-33.125290,-1.806133,-0.292123,-63.533718,0.850068,-0.014742,0.006130,-0.526431
3637,0.080913,-0.260798,9.917485,-0.409875,1.402163,-32.357754,-1.794655,-0.289413,-64.626068,0.845013,-0.014585,0.006237,-0.534511
3638,0.081639,-0.252754,9.917480,-0.302955,1.347170,-30.975267,-1.780051,-0.288442,-65.682556,0.840051,-0.014416,0.006309,-0.542279
3639,0.078331,-0.230011,9.916764,0.209887,1.357794,-28.901537,-1.750396,-0.285643,-66.681488,0.835296,-0.014130,0.006313,-0.549583
3640,0.071811,-0.211040,9.918048,0.348910,1.287552,-26.751507,-1.703757,-0.279242,-67.610054,0.830821,-0.013710,0.006247,-0.556335
3641,0.076342,-0.231806,9.915046,0.324645,1.160853,-24.575544,-1.658548,-0.273220,-68.466438,0.826646,-0.013307,0.006171,-0.562531
3642,0.072578,-0.223995,9.910621,0.578070,1.144015,-23.135073,-1.615464,-0.267821,-69.262474,0.822724,-0.012928,0.006088,-0.568262
3643,0.074368,-0.215115,9.910753,0.784193,1.142438,-22.388897,-1.564733,-0.261040,-70.022064,0.818945,-0.012490,0.005968,-0.573705
3644,0.066575,-0.208616,9.912887,0.753795,1.079827,-22.123384,-1.511395,-0.253436,-70.764755,0.815216,-0.012034,0.005834,-0.579002
3645,0.071592,-0.226833,9.906874,0.932422,0.960758,-21.273447,-1.461500,-0.247674,-71.488739,0.811547,-0.011614,0.005696,-0.584143
3646,0.068834,-0.230122,9.910206,1.428402,0.878306,-20.472338,-1.408119,-0.244815,-72.185097,0.807988,-0.011188,0.005512,-0.589067
3647,0.070054,-0.222538,9.909608,1.790089,0.774492,-19.974888,-1.343169,-0.243782,-72.859703,0.804513,-0.010694,0.005249,-0.593816
3648,0.062404,-0.186225,9.914205,1.901546,0.669158,-19.619349,-1.265871,-0.243962,-73.520035,0.801084,-0.010124,0.004905,-0.598446
3649,0.070084,-0.184349,9.911689,1.568972,0.557718,-18.835026,-1.189705,-0.246493,-74.161301,0.797729,-0.009579,0.004544,-0.602922
3650,0.066980,-0.184241,9.919224,0.613797,0.591238,-19.369101,-1.139692,-0.250355,-74.798325,0.794369,-0.009228,0.004305,-0.607350
3651,0.070543,-0.183925,9.921336,-0.182702,0.641544,-20.286182,-1.122832,-0.252824,-75.459549,0.790853,-0.009100,0.004251,-0.611924
3652,0.073519,-0.183743,9.922595,-0.612989,0.699475,-20.478449,-1.128429,-0.254820,-76.139267,0.787208,-0.009123,0.004321,-0.616605
3653,0.077575,-0.204867,9.919704,-0.832721,0.728406,-20.312128,-1.149246,-0.256720,-76.819420,0.783533,-0.009250,0.004475,-0.621265
3654,0.082745,-0.213041,9.918251,-0.936506,0.743597,-20.852303,-1.180169,-0.259970,-77.505814,0.779795,-0.009452,0.004677,-0.625946
3655,0.083561,-0.216656,9.915020,-0.481808,0.731315,-20.840097,-1.205717,-0.264665,-78.200996,0.775981,-0.009622,0.004844,-0.630665
3656,0.083216,-0.208636,9.914392,0.133130,0.732768,-20.702766,-1.210680,-0.269474,-78.893715,0.772153,-0.009652,0.004897,-0.635344
3657,0.087190,-0.184123,9.914046,0.902220,0.702175,-20.833998,-1.185238,-0.275013,-79.586334,0.768301,-0.009483,0.004776,-0.640001
3658,0.086994,-0.156175,9.916990,1.683566,0.686839,-20.455570,-1.124475,-0.281079,-80.274887,0.764446,-0.009083,0.004450,-0.644609
3659,0.086112,-0.123690,9.921477,2.518362,0.636409,-18.822832,-1.028097,-0.286060,-80.929939,0.760755,-0.008446,0.003923,-0.648972
3660,0.090681,-0.106965,9.920798,3.218899,0.567667,-16.483589,-0.902163,-0.290969,-81.518791,0.757419,-0.007621,0.003217,-0.652877
3661,0.092574,-0.081314,9.922339,3.025246,0.485187,-14.971401,-0.767302,-0.297049,-82.043427,0.754430,-0.006753,0.002439,-0.656341
3662,0.078013,-0.097514,9.925608,2.074702,0.410350,-13.152500,-0.658619,-0.301175,-82.512428,0.751743,-0.006054,0.001814,-0.659426
3663,0.077374,-0.111147,9.925025,1.114931,0.314167,-11.736443,-0.595892,-0.303633,-82.927414,0.749353,-0.005651,0.001458,-0.662145
3664,0.077301,-0.115217,9.925756,0.242093,0.274445,-11.309183,-0.572963,-0.307375,-83.311577,0.747130,-0.005519,0.001319,-0.664653
3665,0.074250,-0.120739,9.926678,-0.646027,0.242356,-11.399213,-0.584086,-0.311402,-83.690094,0.744930,-0.005610,0.001376,-0.667118
3666,0.071451,-0.148051,9.922956,-1.364804,0.190438,-11.756280,-0.628640,-0.315709,-84.075989,0.742677,-0.005919,0.001627,-0.669622
3667,0.081070,-0.164181,9.920034,-1.554117,0.199551,-12.964813,-0.694668,-0.322447,-84.487946,0.740261,-0.006379,0.001992,-0.672287
3668,0.078849,-0.161649,9.922037,-1.406195,0.283429,-14.011598,-0.760052,-0.329617,-84.937500,0.737614,-0.006835,0.002357,-0.675184
3669,0.080140,-0.172245,9.917626,-1.430689,0.307800,-14.936306,-0.820325,-0.335272,-85.419960,0.734760,-0.007245,0.002706,-0.678283
3670,0.087729,-0.164202,9.915456,-1.073682,0.347423,-15.816766,-0.871146,-0.342077,-85.932541,0.731715,-0.007597,0.002997,-0.681562
3671,0.088938,-0.146209,9.922184,-0.310738,0.426714,-15.455122,-0.894459,-0.348615,-86.453857,0.728605,-0.007771,0.003129,-0.684883
3672,0.081425,-0.148277,9.930005,0.057021,0.454132,-14.483109,-0.893445,-0.351433,-86.953011,0.725615,-0.007768,0.003139,-0.688050
3673,0.093196,-0.163901,9.927002,0.000560,0.403725,-13.884947,-0.890025,-0.354732,-87.425972,0.722769,-0.007753,0.003130,-0.691039
3674,0.093364,-0.168660,9.928342,0.494938,0.420448,-13.270001,-0.883457,-0.360355,-87.878662,0.720033,-0.007733,0.003085,-0.693890
3675,0.085891,-0.155952,9.935527,0.815365,0.394455,-12.066047,-0.862251,-0.363821,-88.301079,0.717472,-0.007610,0.002963,-0.696540
3676,0.090913,-0.147528,9.928007,0.717705,0.330317,-10.950596,-0.834417,-0.367262,-88.684845,0.715137,-0.007448,0.002797,-0.698940
3677,0.100206,-0.120392,9.921846,0.696368,0.290581,-10.311235,-0.803548,-0.374383,-89.039345,0.712972,-0.007290,0.002587,-0.701149
3678,0.097029,-0.100773,9.923430,0.725420,0.255419,-9.613888,-0.765621,-0.383062,-89.371628,0.710938,-0.007101,0.002322,-0.703215
3679,0.093513,-0.133301,9.924889,0.090672,0.215688,-9.197310,-0.742640,-0.390748,-89.685287,0.709012,-0.007000,0.002152,-0.705159
3680,0.096416,-0.151059,9.923778,-0.682994,0.220211,-11.153547,-0.754619,-0.398691,-90.024506,0.706920,-0.007116,0.002198,-0.707255
3682,0.091866,-0.152189,9.924541,-0.728815,0.235421,-11.356496,-0.783959,-0.406072,-90.399681,0.704598,-0.007335,0.002357,-0.709565
3683,0.092922,-0.160884,9.926388,-0.512178,0.206385,-10.144911,-0.811035,-0.412424,-90.758049,0.702373,-0.007533,0.002510,-0.711764
3684,0.087723,-0.157378,9.926044,-0.197878,0.186510,-8.739534,-0.828651,-0.417846,-91.072800,0.700414,-0.007668,0.002607,-0.713691
3685,0.089290,-0.129670,9.923116,-0.069703,0.165115,-7.933846,-0.831651,-0.422389,-91.350731,0.698681,-0.007708,0.002616,-0.715387
3686,0.087119,-0.117163,9.920035,0.311818,0.152878,-6.215655,-0.818036,-0.426422,-91.586685,0.697207,-0.007645,0.002523,-0.716825
3687,0.087596,-0.110737,9.922318,0.498036,0.117755,-5.423700,-0.791969,-0.429963,-91.780792,0.695993,-0.007504,0.002351,-0.718005
3688,0.085844,-0.103800,9.920584,0.505760,0.097883,-4.723302,-0.755174,-0.435678,-91.950104,0.694933,-0.007314,0.002096,-0.719034
3689,0.085860,-0.096814,9.920929,0.232749,0.071901,-4.222800,-0.715816,-0.443152,-92.099426,0.693998,-0.007119,0.001813,-0.719940
3690,0.086256,-0.081914,9.920419,0.025369,0.027610,-3.143972,-0.681303,-0.450668,-92.222458,0.693226,-0.006956,0.001558,-0.720685
3691,0.083701,-0.126734,9.925538,-0.502537,-0.047190,-1.865248,-0.675761,-0.457810,-92.306038,0.692700,-0.006966,0.001485,-0.721190
3692,0.079699,-0.257055,9.957461,-0.559280,0.030622,-2.957808,-0.749695,-0.461304,-92.385956,0.692192,-0.007434,0.001935,-0.721672
3693,0.076713,-0.219897,9.953465,-0.115676,0.088614,-3.923715,-0.847950,-0.459650,-92.499954,0.691467,-0.008014,0.002572,-0.722359
3694,0.074471,-0.234809,9.957436,-0.334223,0.081000,-4.218216,-0.922285,-0.455494,-92.635162,0.690610,-0.008433,0.003075,-0.723172
3695,0.073904,-0.229692,9.958498,-0.062909,0.071865,-3.993902,-0.987948,-0.451118,-92.771584,0.689744,-0.008797,0.003526,-0.723992
3696,0.072736,-0.146217,9.949123,0.890710,0.096301,-3.186687,-0.990083,-0.446196,-92.891159,0.688988,-0.008775,0.003579,-0.724711
3697,0.080413,-0.029041,9.924769,0.266929,-0.022716,-1.035134,-0.905685,-0.445158,-92.962029,0.688546,-0.008259,0.003056,-0.725139
3698,0.099204,-0.143566,9.922606,-1.719526,-0.355417,0.193233,-0.869840,-0.461363,-92.976433,0.688456,-0.008146,0.002733,-0.725227
3699,0.066961,-0.046101,9.935289,0.261352,-0.091449,0.559453,-0.848862,-0.472117,-92.964142,0.688535,-0.008088,0.002535,-0.725154
3700,0.053604,-0.018935,9.945708,0.295371,-0.071532,0.428220,-0.750132,-0.458708,-92.948349,0.688642,-0.007410,0.001990,-0.725061
3701,0.058739,0.048270,9.939259,-0.172500,-0.066860,0.289358,-0.630304,-0.441983,-92.937286,0.688721,-0.006585,0.001331,-0.724996
3702,0.057115,0.058847,9.924744,0.177603,-0.046946,0.206953,-0.497060,-0.428315,-92.930000,0.688774,-0.005697,0.000570,-0.724953
3703,0.039564,0.133381,9.930036,1.498274,0.218669,0.010105,-0.320054,-0.404615,-92.927490,0.688799,-0.004484,-0.000407,-0.724938
3704,0.072162,0.039855,9.913734,-0.335283,-0.033045,-0.011262,-0.179543,-0.389022,-92.928352,0.688799,-0.003540,-0.001203,-0.724942
3705,0.086950,-0.003694,9.903258,-0.347254,-0.042243,-0.040257,-0.143676,-0.398710,-92.929543,0.688793,-0.003386,-0.001488,-0.724949
3706,0.087221,-0.109293,9.913391,-0.181038,-0.042316,-0.057041,-0.174456,-0.414749,-92.931007,0.688782,-0.003673,-0.001389,-0.724958
3707,0.082607,-0.121777,9.921651,-0.033362,-0.045424,-0.061617,-0.245795,-0.427394,-92.932480,0.688770,-0.004181,-0.001014,-0.724967
3708,0.080711,-0.123442,9.921741,-0.027591,-0.053087,-0.060088,-0.313179,-0.435773,-92.934013,0.688757,-0.004639,-0.000638,-0.724977
3709,0.078677,-0.124754,9.922791,-0.030933,-0.065314,-0.069242,-0.372414,-0.441569,-92.935699,0.688744,-0.005032,-0.000298,-0.724987
3710,0.078771,-0.115782,9.924097,-0.011330,-0.065325,-0.072293,-0.419976,-0.445873,-92.937683,0.688729,-0.005345,-0.000023,-0.724999
3711,0.078922,-0.116025,9.922173,-0.006934,-0.059228,-0.084498,-0.456659,-0.449501,-92.940002,0.688712,-0.005589,0.000188,-0.725013
3712,0.078601,-0.108132,9.919979,0.000557,-0.045500,-0.081445,-0.484600,-0.452221,-92.942535,0.688695,-0.005774,0.000348,-0.725028
3713,0.084378,-0.099422,9.918136,0.020307,-0.036357,-0.076867,-0.501404,-0.456250,-92.945023,0.688678,-0.005900,0.000430,-0.725043
3714,0.087097,-0.103340,9.916266,0.018720,-0.033333,-0.069237,-0.513094,-0.462909,-92.947350,0.688662,-0.006013,0.000464,-0.725057
3715,0.086163,-0.107531,9.918669,0.009496,-0.040990,-0.067711,-0.526186,-0.469617,-92.949509,0.688647,-0.006134,0.000507,-0.725070
3716,0.087383,-0.106189,9.924352,0.014009,-0.047116,-0.061607,-0.538769,-0.475745,-92.951553,0.688634,-0.006248,0.000550,-0.725082
3717,0.091483,-0.110977,9.927450,-0.001312,-0.060879,-0.067711,-0.551109,-0.483367,-92.953583,0.688620,-0.006370,0.000582,-0.725095
3718,0.086133,-0.115493,9.928809,-0.015119,-0.068531,-0.069235,-0.565833,-0.489935,-92.955711,0.688605,-0.006500,0.000636,-0.725107
3719,0.088685,-0.115808,9.926688,-0.004510,-0.071595,-0.063132,-0.580668,-0.494661,-92.957779,0.688591,-0.006619,0.000702,-0.725120
3720,0.092229,-0.110283,9.924811,-0.003037,-0.062459,-0.064658,-0.591344,-0.500892,-92.959801,0.688577,-0.006723,0.000732,-0.725132
3721,0.090646,-0.107180,9.923450,-0.025953,-0.064005,-0.052450,-0.597373,-0.507030,-92.961678,0.688564,-0.006798,0.000733,-0.725143
3722,0.086283,-0.101577,9.921188,-0.015278,-0.060958,-0.061606,-0.599156,-0.510043,-92.963547,0.688552,-0.006828,0.000727,-0.725154
3723,0.090544,-0.097308,9.920774,-0.016788,-0.051804,-0.069235,-0.596473,-0.512216,-92.965729,0.688538,-0.006826,0.000697,-0.725167
3724,0.093094,-0.100743,9.921912,-0.024399,-0.050291,-0.072287,-0.593677,-0.516486,-92.968109,0.688523,-0.006836,0.000654,-0.725182
3725,0.090020,-0.103827,9.921985,-0.027448,-0.050300,-0.070762,-0.593929,-0.520096,-92.970482,0.688508,-0.006860,0.000634,-0.725196
3726,0.089847,-0.105828,9.919214,-0.006093,-0.050301,-0.069236,-0.596013,-0.521940,-92.972778,0.688493,-0.006884,0.000636,-0.725210
3727,0.096285,-0.110832,9.918259,-0.012218,-0.044208,-0.055503,-0.600403,-0.525741,-92.974800,0.688480,-0.006935,0.000641,-0.725222
3728,0.092777,-0.112039,9.921692,-0.001567,-0.047275,-0.047873,-0.606669,-0.530231,-92.976448,0.688469,-0.007001,0.000654,-0.725232
3729,0.089175,-0.102684,9.921244,0.012156,-0.047273,-0.058554,-0.608669,-0.531472,-92.978188,0.688458,-0.007021,0.000659,-0.725242
3730,0.091269,-0.099146,9.922236,0.013698,-0.033532,-0.063132,-0.604896,-0.531522,-92.980240,0.688445,-0.006998,0.000635,-0.725255
3731,0.091772,-0.101806,9.923216,0.001509,-0.027427,-0.073813,-0.601070,-0.532151,-92.982529,0.688431,-0.006979,0.000607,-0.725268
3732,0.088835,-0.099868,9.925569,-0.000003,-0.035049,-0.076865,-0.598242,-0.531814,-92.985062,0.688415,-0.006960,0.000591,-0.725284
3733,0.091176,-0.105287,9.926467,-0.013731,-0.039619,-0.084495,-0.597437,-0.531422,-92.987747,0.688398,-0.006953,0.000589,-0.725300
3734,0.092460,-0.111199,9.926384,-0.029008,-0.033514,-0.089073,-0.601711,-0.532446,-92.990601,0.688380,-0.006985,0.000610,-0.725317
3735,0.092565,-0.109456,9.925659,-0.025980,-0.048775,-0.078391,-0.607567,-0.534117,-92.993340,0.688362,-0.007031,0.000637,-0.725333
3736,0.094798,-0.116270,9.927161,-0.024486,-0.048780,-0.082969,-0.614621,-0.536758,-92.995949,0.688345,-0.007090,0.000666,-0.725349
3737,0.092523,-0.119378,9.921584,-0.027584,-0.045731,-0.082968,-0.624677,-0.539061,-92.998611,0.688327,-0.007165,0.000716,-0.725365
3738,0.090095,-0.117675,9.922018,-0.021524,-0.042672,-0.079916,-0.634107,-0.539140,-93.001228,0.688310,-0.007222,0.000775,-0.725381
3739,0.089095,-0.108369,9.924148,-0.021539,-0.047236,-0.070759,-0.637891,-0.537756,-93.003700,0.688294,-0.007236,0.000808,-0.725395
3740,0.087526,-0.115271,9.923292,-0.020020,-0.047217,-0.064656,-0.639840,-0.535539,-93.005928,0.688280,-0.007233,0.000834,-0.725409
3741,0.083179,-0.111871,9.922121,-0.012401,-0.051764,-0.058552,-0.642613,-0.531365,-93.007935,0.688267,-0.007224,0.000876,-0.725421
3742,0.085670,-0.106320,9.926973,-0.010867,-0.057838,-0.063130,-0.641459,-0.527068,-93.009941,0.688255,-0.007189,0.000895,-0.725433
3743,0.086994,-0.109361,9.921100,-0.020010,-0.063921,-0.053973,-0.639363,-0.525009,-93.011909,0.688243,-0.007164,0.000894,-0.725445
3744,0.085550,-0.116032,9.919642,-0.018491,-0.062376,-0.061603,-0.641380,-0.523426,-93.013794,0.688231,-0.007166,0.000917,-0.725456
3745,0.083678,-0.110715,9.919597,-0.023078,-0.060827,-0.069233,-0.643980,-0.520767,-93.015930,0.688217,-0.007165,0.000949,-0.725469
3746,0.084509,-0.099541,9.917417,-0.029159,-0.060803,-0.066181,-0.640107,-0.517972,-93.018211,0.688203,-0.007124,0.000942,-0.725482
3747,0.088528,-0.104813,9.918223,-0.024546,-0.056212,-0.069233,-0.634078,-0.517335,-93.020508,0.688189,-0.007083,0.000907,-0.725496
3748,0.087365,-0.101326,9.920726,-0.007733,-0.050102,-0.086018,-0.629023,-0.517841,-93.023132,0.688173,-0.007056,0.000873,-0.725512
3749,0.089240,-0.097455,9.919907,-0.000066,-0.048571,-0.079914,-0.621457,-0.518499,-93.025948,0.688155,-0.007015,0.000821,-0.725529
3750,0.090890,-0.102554,9.918503,0.004544,-0.051624,-0.086019,-0.615010,-0.520469,-93.028755,0.688138,-0.006989,0.000768,-0.725546
3751,0.086628,-0.108902,9.921091,0.015230,-0.056197,-0.087544,-0.613643,-0.521382,-93.031639,0.688120,-0.006986,0.000754,-0.725563
3752,0.083664,-0.099207,9.917521,0.012188,-0.048548,-0.086019,-0.611385,-0.519272,-93.034538,0.688102,-0.006959,0.000753,-0.725581
3753,0.089030,-0.095509,9.915802,0.012221,-0.056163,-0.079915,-0.604283,-0.518184,-93.037338,0.688084,-0.006910,0.000715,-0.725598
3754,0.088204,-0.097958,9.917358,0.016831,-0.053107,-0.081441,-0.597248,-0.519132,-93.040062,0.688067,-0.006873,0.000665,-0.725614
3755,0.091087,-0.094380,9.921862,0.022965,-0.047003,-0.084493,-0.590519,-0.520709,-93.042870,0.688050,-0.006843,0.000613,-0.725631
3756,0.096818,-0.093336,9.922445,0.009266,-0.045492,-0.086020,-0.583034,-0.525289,-93.045761,0.688032,-0.006827,0.000538,-0.725648
3757,0.095832,-0.102184,9.924737,0.006230,-0.048566,-0.086020,-0.579768,-0.531300,-93.048645,0.688013,-0.006846,0.000481,-0.725666
3758,0.090702,-0.106801,9.927668,0.000111,-0.042469,-0.082968,-0.582533,-0.534181,-93.051414,0.687996,-0.006880,0.000482,-0.725682
3759,0.090566,-0.107143,9.929112,-0.012120,-0.051617,-0.081442,-0.587528,-0.534478,-93.054085,0.687978,-0.006912,0.000512,-0.725698
3760,0.088283,-0.106952,9.929311,-0.010617,-0.059235,-0.063130,-0.592238,-0.533902,-93.056442,0.687963,-0.006937,0.000545,-0.725712
3761,0.088922,-0.102740,9.930758,0.000055,-0.059220,-0.061604,-0.594402,-0.532831,-93.058479,0.687950,-0.006943,0.000565,-0.725725
3762,0.084722,-0.102587,9.930923,0.004634,-0.065302,-0.063130,-0.594168,-0.530596,-93.060539,0.687937,-0.006927,0.000577,-0.725737
3763,0.082693,-0.098699,9.926418,0.001591,-0.065270,-0.063130,-0.592242,-0.526301,-93.062630,0.687924,-0.006889,0.000591,-0.725749
3764,0.079524,-0.097058,9.919971,0.009240,-0.065229,-0.064655,-0.588298,-0.520475,-93.064774,0.687911,-0.006828,0.000601,-0.725762
3765,0.079874,-0.098088,9.921666,0.006206,-0.060609,-0.079914,-0.584449,-0.514179,-93.067192,0.687897,-0.006765,0.000615,-0.725777
3766,0.079214,-0.107434,9.918302,-0.002955,-0.069727,-0.089070,-0.585321,-0.508656,-93.069984,0.687879,-0.006735,0.000654,-0.725794
3767,0.080889,-0.104627,9.915675,-0.013654,-0.069694,-0.087543,-0.589264,-0.504483,-93.072868,0.687861,-0.006733,0.000704,-0.725811
3768,0.082580,-0.108877,9.919090,-0.007570,-0.071197,-0.095172,-0.593514,-0.502275,-93.075851,0.687842,-0.006744,0.000744,-0.725829
3769,0.085175,-0.111812,9.925049,-0.021335,-0.066606,-0.095171,-0.600071,-0.502063,-93.078949,0.687822,-0.006782,0.000787,-0.725847
3770,0.079744,-0.110685,9.917958,-0.022891,-0.058959,-0.090593,-0.606866,-0.500719,-93.081963,0.687803,-0.006814,0.000839,-0.725865
3771,0.078766,-0.109769,9.918421,-0.024438,-0.046723,-0.084490,-0.612065,-0.496700,-93.084824,0.687784,-0.006820,0.000896,-0.725882
3772,0.078013,-0.115489,9.918059,-0.018362,-0.051269,-0.086015,-0.618240,-0.492242,-93.087601,0.687767,-0.006829,0.000962,-0.725899
3773,0.080418,-0.114638,9.916655,-0.015344,-0.049719,-0.079910,-0.625388,-0.489041,-93.090294,0.687749,-0.006851,0.001026,-0.725915
3774,0.078954,-0.115405,9.910725,-0.007742,-0.048173,-0.081436,-0.631473,-0.486683,-93.092918,0.687733,-0.006873,0.001079,-0.725931
3775,0.082617,-0.115194,9.914285,-0.018449,-0.049685,-0.082962,-0.636951,-0.485551,-93.095596,0.687715,-0.006899,0.001121,-0.725947
3776,0.079090,-0.110845,9.913487,0.001375,-0.055776,-0.072280,-0.639739,-0.484820,-93.098145,0.687699,-0.006911,0.001143,-0.725962
3777,0.081912,-0.108799,9.915341,0.019689,-0.055763,-0.075331,-0.638874,-0.484039,-93.100586,0.687684,-0.006901,0.001143,-0.725977
3778,0.083162,-0.114464,9.917426,0.021211,-0.061862,-0.081435,-0.638924,-0.485017,-93.103172,0.687667,-0.006907,0.001137,-0.725992
3779,0.083552,-0.112679,9.922008,0.019674,-0.069490,-0.081435,-0.640495,-0.486823,-93.105843,0.687650,-0.006928,0.001136,-0.726008
3780,0.085957,-0.114256,9.923019,0.031870,-0.071018,-0.073806,-0.641675,-0.489651,-93.108383,0.687634,-0.006953,0.001127,-0.726024
3781,0.088140,-0.119081,9.926083,0.018115,-0.069501,-0.082961,-0.645143,-0.493924,-93.110939,0.687617,-0.007001,0.001124,-0.726039
3782,0.087780,-0.114637,9.930162,0.016569,-0.057304,-0.076857,-0.648670,-0.498172,-93.113541,0.687600,-0.007049,0.001121,-0.726054
3783,0.086995,-0.108494,9.928688,0.022675,-0.048154,-0.084487,-0.647571,-0.501048,-93.116211,0.687583,-0.007060,0.001097,-0.726071
3785,0.085294,-0.115740,9.929036,0.019624,-0.046627,-0.079909,-0.646687,-0.502319,-93.118935,0.687566,-0.007063,0.001083,-0.726087
3786,0.080537,-0.116888,9.927506,0.016556,-0.045085,-0.089065,-0.649271,-0.500782,-93.121704,0.687548,-0.007069,0.001109,-0.726103
3787,0.084216,-0.116338,9.929621,0.013487,-0.042016,-0.084486,-0.652070,-0.498771,-93.124550,0.687530,-0.007073,0.001139,-0.726121
3788,0.082726,-0.117787,9.926223,0.001263,-0.043530,-0.078382,-0.655119,-0.497815,-93.127228,0.687513,-0.007085,0.001164,-0.726137
3789,0.080551,-0.116779,9.926422,-0.006381,-0.046564,-0.069227,-0.658296,-0.495730,-93.129631,0.687498,-0.007091,0.001197,-0.726151
3790,0.081982,-0.116633,9.926809,-0.006392,-0.037389,-0.070751,-0.660740,-0.493456,-93.131927,0.687483,-0.007091,0.001226,-0.726165
3791,0.081903,-0.113534,9.920775,-0.006396,-0.054160,-0.061596,-0.661586,-0.492136,-93.134117,0.687469,-0.007088,0.001240,-0.726178
3792,0.084606,-0.115132,9.917695,0.001234,-0.049575,-0.050914,-0.661553,-0.492294,-93.135971,0.687458,-0.007089,0.001239,-0.726189
3793,0.087879,-0.120751,9.920780,0.008851,-0.048053,-0.055492,-0.663990,-0.494727,-93.137703,0.687446,-0.007119,0.001240,-0.726199
3794,0.091653,-0.117645,9.922047,-0.007951,-0.052646,-0.055492,-0.667367,-0.499738,-93.139496,0.687434,-0.007171,0.001231,-0.726210
