seq,ax,ay,az,wroll,wpitch,wyaw,roll,pitch,yaw,q0,q1,q2,q3
69,0.007384,-0.062838,9.925945,0.021019,0.046876,-0.037052,-0.362715,-0.042622,0.000270,0.999995,-0.003165,-0.000372,0.000001
71,0.008452,-0.071428,9.928542,0.008811,0.045350,-0.026371,-0.365940,-0.041954,0.021333,0.999995,-0.003193,-0.000367,0.000185
72,0.009231,-0.065373,9.926735,0.034752,0.054505,-0.021793,-0.368763,-0.041314,0.020523,0.999995,-0.003218,-0.000361,0.000178
73,0.007607,-0.065255,9.931285,0.022545,0.051454,-0.017215,-0.368921,-0.040363,0.019862,0.999995,-0.003219,-0.000353,0.000172
74,0.005204,-0.062408,9.928824,0.028648,0.046876,-0.009585,-0.368004,-0.038274,0.019405,0.999995,-0.003211,-0.000335,0.000168
75,0.010028,-0.056839,9.929744,0.051537,0.037720,-0.006534,-0.363819,-0.037406,0.019125,0.999995,-0.003175,-0.000327,0.000166
76,0.009344,-0.054097,9.924422,0.062220,0.042298,-0.011111,-0.356582,-0.038182,0.018819,0.999995,-0.003112,-0.000334,0.000163
78,0.010983,-0.053468,9.926620,0.056116,0.028564,-0.018741,-0.348807,-0.039439,0.018310,0.999995,-0.003044,-0.000345,0.000159
79,0.006967,-0.056001,9.924866,0.051537,0.039246,-0.026371,-0.342725,-0.039829,0.017548,0.999996,-0.002991,-0.000348,0.000152
80,0.010077,-0.053050,9.922384,0.050012,0.059083,-0.030948,-0.337420,-0.039313,0.016581,0.999996,-0.002944,-0.000343,0.000144
81,0.005410,-0.058056,9.918334,0.045433,0.062135,-0.027896,-0.333586,-0.037899,0.015586,0.999996,-0.002911,-0.000331,0.000135
82,0.007565,-0.061135,9.921634,0.034752,0.052979,-0.021793,-0.333264,-0.035853,0.014748,0.999996,-0.002908,-0.000313,0.000128
83,0.004556,-0.065869,9.918697,0.043908,0.060609,-0.011111,-0.335843,-0.033744,0.014191,0.999996,-0.002931,-0.000295,0.000123
85,0.006011,-0.064925,9.916553,0.056116,0.042298,-0.009585,-0.339221,-0.031532,0.013839,0.999996,-0.002960,-0.000276,0.000120
86,0.004321,-0.063449,9.915915,0.057641,0.022461,-0.014163,-0.341214,-0.030130,0.013439,0.999996,-0.002978,-0.000263,0.000116
87,0.001369,-0.063351,9.921165,0.043908,0.020935,-0.034000,-0.342556,-0.027732,0.012633,0.999995,-0.002989,-0.000242,0.000110
88,0.001684,-0.061588,9.922612,0.062220,0.028565,-0.040104,-0.342986,-0.024568,0.011394,0.999996,-0.002993,-0.000215,0.000099
89,-0.000274,-0.061374,9.925228,0.054589,0.034668,-0.043156,-0.342461,-0.020946,0.010001,0.999996,-0.002989,-0.000183,0.000087
90,0.002979,-0.066406,9.929154,0.053063,0.037720,-0.038578,-0.343701,-0.018003,0.008633,0.999996,-0.002999,-0.000157,0.000075
92,0.002581,-0.065585,9.931074,0.054589,0.045350,-0.032475,-0.346305,-0.016225,0.007442,0.999995,-0.003022,-0.000142,0.000065
93,0.009117,-0.062082,9.931546,0.075953,0.046876,-0.029423,-0.346843,-0.016634,0.006402,0.999995,-0.003027,-0.000145,0.000055
94,0.008129,-0.066769,9.929852,0.056116,0.040772,-0.029423,-0.347573,-0.019067,0.005413,0.999995,-0.003033,-0.000167,0.000047
95,0.008194,-0.065815,9.932743,0.054589,0.033142,-0.024845,-0.349839,-0.021251,0.004502,0.999995,-0.003053,-0.000186,0.000039
96,0.007296,-0.067597,9.930200,0.056116,0.031616,-0.027897,-0.352208,-0.023038,0.003618,0.999995,-0.003074,-0.000201,0.000031
97,0.005766,-0.069720,9.930297,0.043908,0.042298,-0.034000,-0.355804,-0.023625,0.002581,0.999995,-0.003105,-0.000206,0.000022
99,0.005247,-0.066127,9.929557,0.024072,0.045350,-0.035526,-0.359093,-0.023156,0.001415,0.999995,-0.003134,-0.000202,0.000012
100,0.010537,-0.053086,9.932396,0.036279,0.039246,-0.044682,-0.356505,-0.024338,0.000069,0.999995,-0.003111,-0.000212,-0.000000
101,0.009893,-0.056141,9.930100,0.028648,0.040772,-0.061467,-0.350438,-0.027120,-0.001711,0.999995,-0.003058,-0.000237,-0.000016
102,0.009598,-0.049008,9.935382,0.022544,0.046876,-0.066045,-0.343727,-0.029229,-0.003848,0.999996,-0.003000,-0.000255,-0.000034
103,0.011383,-0.057465,9.936277,0.037804,0.039246,-0.066045,-0.338043,-0.031577,-0.006060,0.999996,-0.002950,-0.000275,-0.000054
104,0.009638,-0.059258,9.934321,0.045433,0.046876,-0.056889,-0.336150,-0.033678,-0.008118,0.999996,-0.002933,-0.000294,-0.000072
106,0.006477,-0.069009,9.930188,0.043908,0.060609,-0.040104,-0.338494,-0.033512,-0.009743,0.999996,-0.002954,-0.000292,-0.000086
107,0.008477,-0.064561,9.928407,0.053063,0.060609,-0.035526,-0.342483,-0.032613,-0.011012,0.999996,-0.002989,-0.000284,-0.000097
108,0.009769,-0.066548,9.923735,0.051537,0.068239,-0.032474,-0.345161,-0.032759,-0.012156,0.999995,-0.003012,-0.000286,-0.000107
109,0.012123,-0.060704,9.920992,0.046960,0.065187,-0.034000,-0.346269,-0.034103,-0.013275,0.999995,-0.003022,-0.000297,-0.000117
110,0.016305,-0.063045,9.924327,0.039330,0.059083,-0.027897,-0.346178,-0.037713,-0.014319,0.999995,-0.003021,-0.000329,-0.000126
111,0.017804,-0.060675,9.926157,0.031701,0.059083,-0.037052,-0.346262,-0.043046,-0.015412,0.999995,-0.003022,-0.000375,-0.000136
113,0.019665,-0.065641,9.926683,0.039330,0.072816,-0.026371,-0.347216,-0.048759,-0.016481,0.999995,-0.003030,-0.000425,-0.000145
114,0.015193,-0.065129,9.928770,0.043908,0.068239,-0.015689,-0.349399,-0.052792,-0.017193,0.999995,-0.003049,-0.000460,-0.000151
115,0.010148,-0.067414,9.931817,0.036279,0.075868,-0.012637,-0.352036,-0.052999,-0.017676,0.999995,-0.003072,-0.000462,-0.000156
116,0.003060,-0.071068,9.928082,0.043908,0.074342,-0.030948,-0.356392,-0.048774,-0.018413,0.999995,-0.003110,-0.000425,-0.000162
117,0.003358,-0.075137,9.927976,0.046960,0.066713,-0.030948,-0.362770,-0.042653,-0.019452,0.999995,-0.003166,-0.000372,-0.000171
118,0.002276,-0.065387,9.926970,0.036279,0.057557,-0.038578,-0.366740,-0.037153,-0.020620,0.999995,-0.003200,-0.000324,-0.000181
120,0.004702,-0.068707,9.928226,0.030174,0.054505,-0.052311,-0.368220,-0.032989,-0.022145,0.999995,-0.003213,-0.000287,-0.000194
121,0.006084,-0.061603,9.925103,0.037804,0.049927,-0.058415,-0.368087,-0.030800,-0.024001,0.999995,-0.003212,-0.000268,-0.000210
122,0.009594,-0.052187,9.930328,0.036279,0.057557,-0.049260,-0.362209,-0.030577,-0.025810,0.999995,-0.003161,-0.000266,-0.000226
123,0.014751,-0.047754,9.934268,0.033226,0.063661,-0.037052,-0.352080,-0.033177,-0.027266,0.999995,-0.003073,-0.000289,-0.000239
124,0.017215,-0.056063,9.937826,0.051537,0.052979,-0.030948,-0.343920,-0.038273,-0.028416,0.999995,-0.003001,-0.000333,-0.000249
125,0.018228,-0.053815,9.940250,0.056116,0.060609,-0.023319,-0.338474,-0.044136,-0.029335,0.999996,-0.002954,-0.000384,-0.000257
127,0.017539,-0.053436,9.946262,0.059167,0.066713,-0.023319,-0.332796,-0.049234,-0.030128,0.999996,-0.002904,-0.000429,-0.000264
128,0.016763,-0.060708,9.940600,0.062220,0.052979,-0.037052,-0.329982,-0.053328,-0.031147,0.999996,-0.002880,-0.000465,-0.000273
129,0.009642,-0.061572,9.936376,0.057641,0.046876,-0.041630,-0.330443,-0.054567,-0.032465,0.999996,-0.002884,-0.000475,-0.000285
130,0.008118,-0.054045,9.934885,0.043908,0.051453,-0.053837,-0.329116,-0.052618,-0.034066,0.999996,-0.002872,-0.000458,-0.000299
131,0.005884,-0.057576,9.935334,0.031701,0.037720,-0.050785,-0.326930,-0.049600,-0.035819,0.999996,-0.002853,-0.000432,-0.000314
132,0.006766,-0.056310,9.931009,0.024072,0.028564,-0.035526,-0.326049,-0.046797,-0.037263,0.999996,-0.002845,-0.000407,-0.000326
134,0.006614,-0.054910,9.931847,0.013389,0.017883,-0.024845,-0.324762,-0.044908,-0.038274,0.999996,-0.002834,-0.000391,-0.000335
135,0.004654,-0.057413,9.928803,0.027122,0.020935,-0.030948,-0.323926,-0.042709,-0.039208,0.999996,-0.002827,-0.000372,-0.000343
136,0.003477,-0.057446,9.927336,0.016441,0.027039,-0.027897,-0.324026,-0.039541,-0.040193,0.999996,-0.002828,-0.000344,-0.000352
137,0.004562,-0.057082,9.926512,0.017968,0.036194,-0.040104,-0.324214,-0.036403,-0.041331,0.999996,-0.002829,-0.000317,-0.000362
138,0.005854,-0.057507,9.928825,0.016441,0.039246,-0.050785,-0.324403,-0.034230,-0.042853,0.999996,-0.002831,-0.000298,-0.000375
139,0.002350,-0.057675,9.930932,0.019493,0.045350,-0.053837,-0.324735,-0.031471,-0.044604,0.999996,-0.002834,-0.000274,-0.000390
141,0.006049,-0.058405,9.932929,0.008811,0.049927,-0.046208,-0.325458,-0.028887,-0.046280,0.999996,-0.002840,-0.000251,-0.000405
142,0.007588,-0.058251,9.934161,0.025597,0.045350,-0.040104,-0.326206,-0.028374,-0.047727,0.999996,-0.002847,-0.000246,-0.000417
143,0.009346,-0.059298,9.929496,0.017968,0.054505,-0.030949,-0.327023,-0.029075,-0.048919,0.999996,-0.002854,-0.000253,-0.000428
144,0.008142,-0.062846,9.924902,0.021019,0.063661,-0.026371,-0.329390,-0.029648,-0.049884,0.999996,-0.002875,-0.000257,-0.000436
145,0.013738,-0.059139,9.923911,0.028649,0.071291,-0.014163,-0.331352,-0.031345,-0.050571,0.999996,-0.002892,-0.000272,-0.000442
146,0.010393,-0.060825,9.924818,0.016441,0.069765,-0.032474,-0.332457,-0.033568,-0.051361,0.999996,-0.002901,-0.000292,-0.000449
147,0.009020,-0.063889,9.923233,0.030175,0.075868,-0.032474,-0.334958,-0.033898,-0.052456,0.999996,-0.002923,-0.000294,-0.000459
148,0.007460,-0.059235,9.927172,0.042383,0.066713,-0.037052,-0.336277,-0.033143,-0.053627,0.999996,-0.002935,-0.000288,-0.000469
149,0.004514,-0.065325,9.929663,0.037804,0.056031,-0.041630,-0.337715,-0.031225,-0.054949,0.999996,-0.002947,-0.000271,-0.000480
150,0.000142,-0.063992,9.932352,0.034752,0.063661,-0.055363,-0.340709,-0.027052,-0.056575,0.999995,-0.002973,-0.000235,-0.000494
151,0.000674,-0.061983,9.935128,0.037804,0.060609,-0.034000,-0.342309,-0.021865,-0.058075,0.999995,-0.002987,-0.000189,-0.000507
152,0.000285,-0.060011,9.935238,0.021018,0.045350,-0.038578,-0.342524,-0.017575,-0.059295,0.999995,-0.002989,-0.000152,-0.000518
153,0.000144,-0.064339,9.932593,0.021018,0.045350,-0.037052,-0.343712,-0.013915,-0.060564,0.999995,-0.003000,-0.000120,-0.000529
154,0.003733,-0.060917,9.929638,0.013389,0.043824,-0.027896,-0.345261,-0.011903,-0.061655,0.999995,-0.003013,-0.000102,-0.000538
155,0.005896,-0.059492,9.927866,-0.000344,0.036194,-0.020267,-0.345385,-0.012310,-0.062465,0.999995,-0.003014,-0.000106,-0.000545
156,0.006644,-0.058337,9.924623,0.011864,0.036194,-0.032474,-0.344579,-0.013918,-0.063352,0.999995,-0.003007,-0.000120,-0.000553
157,0.006118,-0.062082,9.923176,-0.003396,0.049928,-0.032474,-0.344745,-0.015258,-0.064443,0.999995,-0.003009,-0.000131,-0.000563
158,0.008187,-0.063214,9.922132,-0.003396,0.054505,-0.037052,-0.346850,-0.016640,-0.065611,0.999995,-0.003027,-0.000143,-0.000573
159,0.008414,-0.067133,9.926965,0.004234,0.059083,-0.037052,-0.350388,-0.018485,-0.066857,0.999995,-0.003058,-0.000160,-0.000584
160,0.009261,-0.073075,9.923861,0.014915,0.066713,-0.046207,-0.356609,-0.020299,-0.068255,0.999995,-0.003112,-0.000175,-0.000596
161,0.009810,-0.075528,9.921345,0.022545,0.069765,-0.044682,-0.364796,-0.022195,-0.069780,0.999995,-0.003184,-0.000192,-0.000610
162,0.011709,-0.077216,9.924396,0.027122,0.062135,-0.052312,-0.373332,-0.024777,-0.071407,0.999995,-0.003258,-0.000214,-0.000624
163,0.007280,-0.078805,9.925524,0.033226,0.054505,-0.055363,-0.381808,-0.026499,-0.073210,0.999994,-0.003332,-0.000229,-0.000640
164,0.004487,-0.073754,9.923052,0.030174,0.052979,-0.059941,-0.388077,-0.025692,-0.075140,0.999994,-0.003387,-0.000222,-0.000656
165,0.003392,-0.078620,9.929069,0.019493,0.052979,-0.052311,-0.393644,-0.023547,-0.077020,0.999994,-0.003435,-0.000203,-0.000673
166,0.001431,-0.078288,9.931805,0.011864,0.060609,-0.056889,-0.400329,-0.020418,-0.078850,0.999994,-0.003494,-0.000176,-0.000689
167,-0.002655,-0.082350,9.928123,0.010337,0.063661,-0.044682,-0.407710,-0.015382,-0.080555,0.999993,-0.003558,-0.000132,-0.000703
168,-0.000445,-0.070541,9.929584,0.016441,0.065187,-0.038578,-0.411594,-0.010112,-0.081957,0.999993,-0.003592,-0.000086,-0.000716
169,-0.000994,-0.072597,9.936568,0.016441,0.060609,-0.026371,-0.411414,-0.006052,-0.083054,0.999993,-0.003590,-0.000050,-0.000725
170,-0.001212,-0.068567,9.931011,0.037804,0.043824,-0.027897,-0.409995,-0.002633,-0.083971,0.999993,-0.003578,-0.000020,-0.000733
171,-0.000888,-0.067503,9.932461,0.040855,0.034668,-0.018741,-0.406559,-0.000117,-0.084758,0.999994,-0.003548,0.000002,-0.000740
172,0.001024,-0.060931,9.934772,0.043907,0.040772,-0.015689,-0.400726,0.001251,-0.085340,0.999994,-0.003497,0.000014,-0.000745
173,0.001502,-0.069072,9.934557,0.027122,0.049927,-0.017215,-0.396186,0.001843,-0.085899,0.999994,-0.003457,0.000019,-0.000750
174,0.004890,-0.066828,9.930034,0.037804,0.051453,-0.030948,-0.394347,0.001195,-0.086714,0.999994,-0.003441,0.000013,-0.000757
175,0.005483,-0.068663,9.932339,0.037804,0.062135,-0.030948,-0.392570,-0.000587,-0.087758,0.999994,-0.003426,-0.000002,-0.000766
176,0.005207,-0.072755,9.930535,0.039330,0.057557,-0.041630,-0.392972,-0.002233,-0.088982,0.999994,-0.003429,-0.000017,-0.000777
177,0.006331,-0.079113,9.933702,0.050012,0.057557,-0.043156,-0.396764,-0.004042,-0.090408,0.999994,-0.003462,-0.000033,-0.000789
178,0.005613,-0.076816,9.931274,0.050012,0.045350,-0.041630,-0.401497,-0.005990,-0.091832,0.999994,-0.003504,-0.000049,-0.000802
179,0.003969,-0.080794,9.932819,0.040856,0.052979,-0.032474,-0.406454,-0.006999,-0.093078,0.999993,-0.003547,-0.000058,-0.000812
180,0.007750,-0.083875,9.931328,0.030175,0.060609,-0.032474,-0.413551,-0.008300,-0.094172,0.999993,-0.003609,-0.000069,-0.000822
181,0.008491,-0.075953,9.930360,0.021019,0.074342,-0.024845,-0.418653,-0.010631,-0.095143,0.999993,-0.003654,-0.000090,-0.000831
182,0.009453,-0.067671,9.930359,0.011864,0.071290,-0.027897,-0.417898,-0.013145,-0.096040,0.999993,-0.003647,-0.000112,-0.000839
183,0.011164,-0.068580,9.928946,0.022545,0.078920,-0.035526,-0.414386,-0.016202,-0.097116,0.999993,-0.003616,-0.000138,-0.000848
184,0.012004,-0.064751,9.924976,0.021019,0.078920,-0.049260,-0.409999,-0.019670,-0.098549,0.999993,-0.003578,-0.000169,-0.000861
185,0.008140,-0.058508,9.929231,0.016441,0.068239,-0.053837,-0.402784,-0.021919,-0.100287,0.999994,-0.003515,-0.000188,-0.000876
186,0.008304,-0.057657,9.933812,0.028648,0.059083,-0.050785,-0.393712,-0.022917,-0.102049,0.999994,-0.003436,-0.000197,-0.000891
187,0.006103,-0.062823,9.933542,0.042383,0.057557,-0.050785,-0.386601,-0.023216,-0.103758,0.999994,-0.003374,-0.000200,-0.000906
188,0.004526,-0.066310,9.938342,0.048485,0.062135,-0.038578,-0.383005,-0.022116,-0.105262,0.999994,-0.003343,-0.000190,-0.000919
189,0.005420,-0.070944,9.939092,0.054589,0.066713,-0.030949,-0.382548,-0.020676,-0.106434,0.999994,-0.003339,-0.000177,-0.000929
190,0.009928,-0.066559,9.938079,0.069849,0.074342,-0.029423,-0.382057,-0.020997,-0.107456,0.999994,-0.003334,-0.000180,-0.000938
191,0.012986,-0.069422,9.936574,0.063745,0.069764,-0.026371,-0.380962,-0.023878,-0.108401,0.999994,-0.003325,-0.000205,-0.000947
192,0.013166,-0.071413,9.934292,0.054589,0.071290,-0.026371,-0.381856,-0.027712,-0.109295,0.999994,-0.003333,-0.000239,-0.000955
193,0.012529,-0.065628,9.931134,0.045433,0.068239,-0.035526,-0.381803,-0.031030,-0.110341,0.999994,-0.003332,-0.000268,-0.000964
194,0.010975,-0.055484,9.937712,0.030174,0.059083,-0.040104,-0.376741,-0.033397,-0.111618,0.999994,-0.003288,-0.000288,-0.000975
196,0.006720,-0.060910,9.938851,0.008811,0.054505,-0.041630,-0.370985,-0.033706,-0.112995,0.999994,-0.003238,-0.000291,-0.000987
197,-0.000687,-0.059676,9.935822,0.010337,0.065187,-0.053837,-0.367605,-0.029835,-0.114601,0.999994,-0.003208,-0.000257,-0.001001
198,-0.000434,-0.052567,9.936294,0.011864,0.059083,-0.053837,-0.361905,-0.023692,-0.116412,0.999994,-0.003158,-0.000204,-0.001017
199,-0.002375,-0.049587,9.934926,0.008811,0.051453,-0.049260,-0.353368,-0.017793,-0.118145,0.999995,-0.003084,-0.000152,-0.001031
200,-0.001309,-0.060315,9.929545,0.024070,0.054505,-0.046208,-0.348079,-0.012377,-0.119748,0.999995,-0.003038,-0.000105,-0.001045
201,-0.005124,-0.058201,9.925977,0.031701,0.068239,-0.044682,-0.346130,-0.006415,-0.121275,0.999995,-0.003021,-0.000053,-0.001058
202,-0.001674,-0.062283,9.931953,0.028648,0.065187,-0.037052,-0.345185,-0.000815,-0.122651,0.999995,-0.003012,-0.000004,-0.001070
203,-0.002551,-0.065462,9.929294,0.022544,0.066713,-0.034000,-0.346998,0.003220,-0.123848,0.999995,-0.003028,0.000031,-0.001081
204,0.003217,-0.071947,9.934835,0.024072,0.071290,-0.046208,-0.352082,0.005148,-0.125199,0.999995,-0.003072,0.000048,-0.001092
205,0.000548,-0.068977,9.934057,0.030174,0.065187,-0.038578,-0.357809,0.005659,-0.126627,0.999995,-0.003122,0.000053,-0.001105
206,0.002081,-0.064775,9.931665,0.030174,0.054505,-0.040104,-0.360398,0.006131,-0.127951,0.999995,-0.003145,0.000057,-0.001116
207,0.000426,-0.063778,9.928982,0.034752,0.046876,-0.041630,-0.360687,0.006280,-0.129324,0.999994,-0.003148,0.000058,-0.001128
208,0.000830,-0.061767,9.932360,0.050012,0.048402,-0.035526,-0.359464,0.006714,-0.130620,0.999994,-0.003137,0.000062,-0.001140
209,-0.000870,-0.064507,9.928117,0.039330,0.048402,-0.020267,-0.358466,0.007577,-0.131560,0.999994,-0.003128,0.000070,-0.001148
210,0.002963,-0.060504,9.924321,0.030174,0.049928,-0.030948,-0.357520,0.007672,-0.132423,0.999994,-0.003120,0.000071,-0.001155
211,0.005096,-0.068833,9.925944,0.045433,0.060609,-0.027896,-0.358047,0.005905,-0.133416,0.999994,-0.003124,0.000055,-0.001164
212,0.008572,-0.070732,9.927819,0.034752,0.062135,-0.035526,-0.361958,0.002550,-0.134486,0.999994,-0.003159,0.000026,-0.001174
213,0.012508,-0.070301,9.928854,0.025597,0.063661,-0.052311,-0.366428,-0.002952,-0.135963,0.999994,-0.003198,-0.000022,-0.001187
214,0.011566,-0.065297,9.931116,0.024072,0.065187,-0.055363,-0.368751,-0.008895,-0.137771,0.999994,-0.003218,-0.000074,-0.001203
215,0.011704,-0.066344,9.930880,0.028648,0.071290,-0.047733,-0.369289,-0.013772,-0.139504,0.999994,-0.003223,-0.000116,-0.001218
216,0.011059,-0.063213,9.930981,0.014915,0.066713,-0.047733,-0.369112,-0.017821,-0.141110,0.999994,-0.003221,-0.000152,-0.001232
217,0.010168,-0.059736,9.931198,0.025597,0.071290,-0.049259,-0.366740,-0.020832,-0.142742,0.999994,-0.003201,-0.000178,-0.001246
218,0.008099,-0.058835,9.932485,0.025597,0.075868,-0.040104,-0.362862,-0.022281,-0.144248,0.999994,-0.003167,-0.000190,-0.001259
219,0.007758,-0.059891,9.932240,0.040856,0.071291,-0.049259,-0.359145,-0.022659,-0.145754,0.999994,-0.003134,-0.000194,-0.001273
220,0.006463,-0.059635,9.938844,0.053063,0.066713,-0.055363,-0.355669,-0.022532,-0.147513,0.999994,-0.003104,-0.000193,-0.001288
221,0.004707,-0.061654,9.937853,0.048485,0.056031,-0.058415,-0.353068,-0.021618,-0.149422,0.999994,-0.003081,-0.000185,-0.001305
222,0.005988,-0.061264,9.940165,0.053063,0.054505,-0.050786,-0.351365,-0.020808,-0.151253,0.999994,-0.003066,-0.000178,-0.001320
223,0.004813,-0.069911,9.938596,0.057641,0.046876,-0.052311,-0.352537,-0.020286,-0.152981,0.999994,-0.003077,-0.000173,-0.001336
224,0.003022,-0.065326,9.933491,0.054589,0.045350,-0.053837,-0.355094,-0.018998,-0.154758,0.999994,-0.003099,-0.000162,-0.001351
225,0.002801,-0.066380,9.933249,0.040856,0.048402,-0.049260,-0.356539,-0.017114,-0.156485,0.999994,-0.003112,-0.000145,-0.001366
226,0.005734,-0.061438,9.932809,0.045433,0.060609,-0.055363,-0.356595,-0.016073,-0.158239,0.999994,-0.003112,-0.000136,-0.001381
227,0.002566,-0.061186,9.927689,0.039330,0.063661,-0.053837,-0.354854,-0.014871,-0.160072,0.999994,-0.003097,-0.000125,-0.001397
228,0.005410,-0.050076,9.927355,0.031701,0.068239,-0.056889,-0.349626,-0.013564,-0.161932,0.999994,-0.003051,-0.000114,-0.001413
229,0.008859,-0.056007,9.935264,0.028648,0.065187,-0.052311,-0.343225,-0.014494,-0.163767,0.999995,-0.002995,-0.000122,-0.001430
230,0.007840,-0.057905,9.932960,0.033226,0.066713,-0.053837,-0.340101,-0.016288,-0.165550,0.999995,-0.002968,-0.000138,-0.001445
231,0.007005,-0.060812,9.935602,0.037804,0.068239,-0.035526,-0.338996,-0.017246,-0.167053,0.999995,-0.002959,-0.000146,-0.001458
232,0.010992,-0.062371,9.934956,0.037804,0.066713,-0.026371,-0.339561,-0.019101,-0.168097,0.999995,-0.002963,-0.000162,-0.001467
233,0.008019,-0.065097,9.935992,0.033226,0.066713,-0.024845,-0.341673,-0.021157,-0.168963,0.999994,-0.002982,-0.000180,-0.001475
234,0.007814,-0.066968,9.935390,0.037804,0.075868,-0.020267,-0.345175,-0.021763,-0.169727,0.999994,-0.003012,-0.000185,-0.001482
235,0.008057,-0.067080,9.935274,0.045433,0.071290,-0.027897,-0.348814,-0.022151,-0.170543,0.999994,-0.003044,-0.000189,-0.001489
236,0.006103,-0.066290,9.937045,0.045433,0.057557,-0.034000,-0.351678,-0.022211,-0.171586,0.999994,-0.003069,-0.000189,-0.001498
237,0.003217,-0.065646,9.936991,0.054589,0.049928,-0.032474,-0.353524,-0.020973,-0.172703,0.999994,-0.003085,-0.000178,-0.001508
238,0.001921,-0.065913,9.935642,0.065271,0.049928,-0.034000,-0.354641,-0.018525,-0.173820,0.999994,-0.003095,-0.000157,-0.001517
239,0.000475,-0.063279,9.933561,0.072900,0.059083,-0.040104,-0.354490,-0.015218,-0.175066,0.999994,-0.003094,-0.000128,-0.001528
240,0.006259,-0.055613,9.932203,0.062220,0.054505,-0.030948,-0.350877,-0.013629,-0.176262,0.999994,-0.003062,-0.000114,-0.001539
241,0.008019,-0.057586,9.928383,0.065271,0.065187,-0.029423,-0.345705,-0.014764,-0.177281,0.999994,-0.003017,-0.000124,-0.001547
242,0.008237,-0.056184,9.928504,0.054591,0.065187,-0.043156,-0.341371,-0.016414,-0.178505,0.999994,-0.002979,-0.000139,-0.001558
243,0.010257,-0.056714,9.930350,0.059167,0.059083,-0.038578,-0.337396,-0.018757,-0.179880,0.999994,-0.002945,-0.000159,-0.001570
244,0.010957,-0.056576,9.931567,0.054589,0.048402,-0.038578,-0.334032,-0.022061,-0.181177,0.999995,-0.002915,-0.000188,-0.001582
245,0.004122,-0.057397,9.932530,0.068323,0.054505,-0.044682,-0.331170,-0.023047,-0.182575,0.999995,-0.002890,-0.000197,-0.001594
246,0.006882,-0.058733,9.933668,0.066798,0.046876,-0.041630,-0.329188,-0.022437,-0.184024,0.999995,-0.002873,-0.000191,-0.001606
247,0.008218,-0.061605,9.935386,0.066798,0.056031,-0.034000,-0.328925,-0.023156,-0.185293,0.999995,-0.002871,-0.000197,-0.001618
248,0.009035,-0.064645,9.931430,0.062220,0.051453,-0.027896,-0.330862,-0.024516,-0.186333,0.999994,-0.002888,-0.000209,-0.001627
249,0.006477,-0.069124,9.930309,0.054589,0.043824,-0.017215,-0.335447,-0.025372,-0.187091,0.999994,-0.002928,-0.000217,-0.001633
250,0.007917,-0.076439,9.929026,0.043908,0.052979,-0.015689,-0.343932,-0.025697,-0.187645,0.999994,-0.003002,-0.000219,-0.001638
251,0.003206,-0.075701,9.930866,0.043908,0.052979,-0.024845,-0.354045,-0.024700,-0.188326,0.999994,-0.003090,-0.000210,-0.001644
252,0.004246,-0.078958,9.928362,0.048487,0.045350,-0.017215,-0.363845,-0.022634,-0.189032,0.999994,-0.003175,-0.000192,-0.001650
253,0.002707,-0.073967,9.930492,0.037804,0.054505,-0.024845,-0.372004,-0.020553,-0.189740,0.999993,-0.003247,-0.000174,-0.001656
254,0.004520,-0.067639,9.931596,0.045433,0.052979,-0.030948,-0.375348,-0.018681,-0.190680,0.999993,-0.003276,-0.000158,-0.001665
255,0.004007,-0.061908,9.936756,0.040856,0.031616,-0.038578,-0.373899,-0.017859,-0.191847,0.999993,-0.003263,-0.000150,-0.001675
256,0.005456,-0.062926,9.937026,0.028648,0.037720,-0.047733,-0.371021,-0.017764,-0.193294,0.999993,-0.003238,-0.000150,-0.001687
257,0.003164,-0.058625,9.942277,0.021019,0.040772,-0.062993,-0.367611,-0.017288,-0.195149,0.999993,-0.003208,-0.000145,-0.001703
258,0.005520,-0.062204,9.940279,0.024072,0.042298,-0.061467,-0.364394,-0.016792,-0.197233,0.999993,-0.003180,-0.000141,-0.001722
259,0.008543,-0.060773,9.936956,0.024072,0.046876,-0.056889,-0.362246,-0.018059,-0.199215,0.999994,-0.003161,-0.000152,-0.001739
260,0.006070,-0.066681,9.931260,0.033226,0.062135,-0.043156,-0.361784,-0.019136,-0.200894,0.999994,-0.003157,-0.000161,-0.001754
261,0.009320,-0.069978,9.933616,0.048485,0.056031,-0.032474,-0.364171,-0.020184,-0.202166,0.999993,-0.003178,-0.000171,-0.001765
262,0.010139,-0.069898,9.926400,0.075953,0.059083,-0.029422,-0.366829,-0.022527,-0.203208,0.999993,-0.003202,-0.000191,-0.001774
263,0.003159,-0.068051,9.926510,0.071374,0.065187,-0.041630,-0.368178,-0.022450,-0.204403,0.999993,-0.003213,-0.000190,-0.001784
264,0.000480,-0.074266,9.927198,0.056116,0.056031,-0.049259,-0.371093,-0.019041,-0.205929,0.999993,-0.003239,-0.000160,-0.001798
265,0.006544,-0.070775,9.927180,0.048487,0.063661,-0.055363,-0.375056,-0.017002,-0.207684,0.999993,-0.003273,-0.000142,-0.001813
266,0.000970,-0.064031,9.924654,0.046960,0.065187,-0.049260,-0.375330,-0.015293,-0.209441,0.999993,-0.003276,-0.000127,-0.001828
267,0.003943,-0.065465,9.927844,0.028649,0.065187,-0.044682,-0.373899,-0.012901,-0.211021,0.999993,-0.003263,-0.000107,-0.001842
268,0.008391,-0.068624,9.930101,0.027122,0.056031,-0.030948,-0.374400,-0.013396,-0.212294,0.999993,-0.003267,-0.000111,-0.001853
269,0.009559,-0.066622,9.930239,0.030174,0.071291,-0.023319,-0.375314,-0.015787,-0.213212,0.999993,-0.003275,-0.000132,-0.001861
270,0.010073,-0.064951,9.934704,0.037804,0.060609,-0.027897,-0.374720,-0.018498,-0.214080,0.999993,-0.003270,-0.000155,-0.001869
271,0.010272,-0.066891,9.939532,0.036279,0.059083,-0.035526,-0.374076,-0.021353,-0.215150,0.999993,-0.003265,-0.000180,-0.001878
272,0.009473,-0.067790,9.946148,0.033226,0.063661,-0.043156,-0.374509,-0.023628,-0.216474,0.999993,-0.003269,-0.000200,-0.001890
273,0.010164,-0.072793,9.944605,0.036279,0.057557,-0.044682,-0.376927,-0.025593,-0.217950,0.999993,-0.003290,-0.000217,-0.001903
274,0.009034,-0.067935,9.943368,0.043908,0.052980,-0.050785,-0.379055,-0.027342,-0.219551,0.999993,-0.003308,-0.000232,-0.001917
275,0.005139,-0.070119,9.941254,0.036279,0.052980,-0.044682,-0.380027,-0.027263,-0.221153,0.999993,-0.003317,-0.000232,-0.001931
276,0.005405,-0.065620,9.934861,0.028648,0.052980,-0.041630,-0.380313,-0.025867,-0.222602,0.999993,-0.003319,-0.000219,-0.001943
277,0.001344,-0.068308,9.927924,0.031701,0.054505,-0.030948,-0.380025,-0.023255,-0.223824,0.999993,-0.003317,-0.000196,-0.001954
278,0.002807,-0.063609,9.929989,0.036279,0.068239,-0.034000,-0.378943,-0.019749,-0.224920,0.999993,-0.003307,-0.000166,-0.001963
279,0.005331,-0.071253,9.928726,0.036279,0.069765,-0.024845,-0.378855,-0.017686,-0.225915,0.999993,-0.003306,-0.000148,-0.001972
280,0.005552,-0.072511,9.931264,0.024072,0.066713,-0.026371,-0.382031,-0.016896,-0.226782,0.999992,-0.003334,-0.000141,-0.001980
281,0.007924,-0.079563,9.931684,0.027122,0.069765,-0.026371,-0.387969,-0.017145,-0.227675,0.999992,-0.003386,-0.000143,-0.001987
282,0.004790,-0.071810,9.933659,0.019493,0.049928,-0.024845,-0.393211,-0.017448,-0.228540,0.999992,-0.003432,-0.000145,-0.001995
283,0.002824,-0.070551,9.935790,0.025597,0.036194,-0.014163,-0.394782,-0.016561,-0.229199,0.999992,-0.003445,-0.000138,-0.002001
284,-0.002683,-0.066668,9.939899,0.027123,0.028565,-0.017215,-0.394086,-0.013549,-0.229729,0.999992,-0.003439,-0.000111,-0.002005
285,-0.001445,-0.068167,9.938600,0.046960,0.033142,-0.021793,-0.392174,-0.009381,-0.230386,0.999992,-0.003423,-0.000075,-0.002011
286,-0.003734,-0.066125,9.937348,0.043908,0.030090,-0.017215,-0.389957,-0.005252,-0.231044,0.999992,-0.003403,-0.000039,-0.002016
287,-0.002474,-0.070870,9.937743,0.046960,0.051453,-0.020267,-0.388893,-0.000956,-0.231678,0.999992,-0.003394,-0.000001,-0.002022
288,-0.003318,-0.071461,9.938693,0.045433,0.065187,-0.029422,-0.389785,0.003292,-0.232519,0.999992,-0.003401,0.000036,-0.002029
289,0.002696,-0.076905,9.942791,0.033226,0.068239,-0.024845,-0.392934,0.005583,-0.233439,0.999992,-0.003429,0.000056,-0.002037
290,0.003907,-0.069432,9.942917,0.031701,0.063661,-0.009585,-0.395383,0.005040,-0.234028,0.999992,-0.003450,0.000051,-0.002042
291,0.004260,-0.064045,9.946527,0.033226,0.068239,-0.012637,-0.393174,0.003872,-0.234413,0.999992,-0.003431,0.000041,-0.002046
292,0.007243,-0.069243,9.944182,0.045433,0.059083,-0.006533,-0.390657,0.001606,-0.234747,0.999992,-0.003409,0.000021,-0.002048
293,0.008359,-0.068317,9.940585,0.046960,0.054505,-0.008059,-0.389635,-0.002067,-0.235003,0.999992,-0.003400,-0.000011,-0.002051
294,0.005518,-0.068388,9.938124,0.066798,0.052980,-0.014163,-0.388191,-0.004917,-0.235386,0.999992,-0.003388,-0.000036,-0.002054
295,0.004299,-0.070542,9.933165,0.072900,0.051454,-0.018741,-0.387223,-0.006075,-0.235946,0.999992,-0.003379,-0.000046,-0.002059
296,0.004389,-0.077058,9.933301,0.074426,0.042298,-0.018741,-0.389197,-0.006799,-0.236581,0.999992,-0.003396,-0.000052,-0.002065
297,0.003604,-0.063341,9.932775,0.054589,0.039246,-0.034000,-0.388996,-0.007384,-0.237469,0.999992,-0.003395,-0.000057,-0.002073
299,0.001521,-0.060700,9.933333,0.046959,0.031617,-0.034000,-0.383646,-0.007108,-0.238611,0.999992,-0.003348,-0.000055,-0.002082
300,0.003193,-0.056967,9.929981,0.045433,0.046876,-0.027896,-0.376632,-0.006548,-0.239652,0.999992,-0.003287,-0.000050,-0.002092
301,-0.002705,-0.058221,9.933011,0.045433,0.049928,-0.027896,-0.369532,-0.004308,-0.240593,0.999993,-0.003225,-0.000031,-0.002100
302,-0.000547,-0.058297,9.933050,0.050011,0.056031,-0.027896,-0.363620,-0.000821,-0.241534,0.999993,-0.003173,-0.000000,-0.002108
303,0.000542,-0.069436,9.935022,0.062220,0.060609,-0.029422,-0.361957,0.001418,-0.242502,0.999993,-0.003159,0.000019,-0.002116
304,0.001738,-0.074905,9.932164,0.071374,0.071291,-0.020267,-0.365969,0.002809,-0.243344,0.999993,-0.003194,0.000031,-0.002123
305,0.000097,-0.070733,9.933812,0.062220,0.060609,-0.029422,-0.370284,0.004138,-0.244186,0.999992,-0.003231,0.000043,-0.002131
306,0.006813,-0.073960,9.936833,0.062220,0.057557,-0.038578,-0.373936,0.003371,-0.245333,0.999992,-0.003263,0.000036,-0.002141
307,0.003248,-0.068319,9.937479,0.050011,0.062135,-0.034000,-0.376506,0.001536,-0.246556,0.999992,-0.003286,0.000020,-0.002152
308,0.004830,-0.061422,9.937372,0.056116,0.063661,-0.023319,-0.374596,0.000623,-0.247525,0.999992,-0.003269,0.000012,-0.002160
309,0.004127,-0.050806,9.942638,0.053063,0.063661,-0.030948,-0.366699,-0.000399,-0.248443,0.999993,-0.003200,0.000003,-0.002168
310,0.008843,-0.055822,9.944784,0.043908,0.062135,-0.040104,-0.357679,-0.002682,-0.249641,0.999993,-0.003121,-0.000017,-0.002179
311,0.007640,-0.052723,9.941984,0.039330,0.062135,-0.032474,-0.350521,-0.005979,-0.250864,0.999993,-0.003059,-0.000045,-0.002189
312,0.011125,-0.060118,9.940255,0.028649,0.059083,-0.032474,-0.346014,-0.009769,-0.251960,0.999993,-0.003020,-0.000079,-0.002199
313,0.006354,-0.061607,9.940052,0.027122,0.052979,-0.040104,-0.345381,-0.012867,-0.253181,0.999993,-0.003014,-0.000106,-0.002210
314,0.004234,-0.069354,9.936656,0.019493,0.051453,-0.050786,-0.348314,-0.013376,-0.254705,0.999993,-0.003040,-0.000110,-0.002223
315,-0.001153,-0.066224,9.932936,0.031701,0.060609,-0.040104,-0.352605,-0.011023,-0.256230,0.999993,-0.003077,-0.000089,-0.002236
316,-0.002952,-0.060996,9.936266,0.025597,0.060609,-0.040104,-0.353563,-0.006206,-0.257579,0.999993,-0.003086,-0.000047,-0.002248
317,-0.004835,-0.061049,9.933822,0.043908,0.048402,-0.044682,-0.352268,-0.000774,-0.259003,0.999993,-0.003074,0.000000,-0.002260
318,0.000895,-0.059773,9.934284,0.046960,0.056031,-0.040104,-0.350229,0.002691,-0.260427,0.999993,-0.003056,0.000030,-0.002273
319,0.004519,-0.060759,9.933268,0.050012,0.048402,-0.023319,-0.348187,0.002492,-0.261495,0.999993,-0.003038,0.000029,-0.002282
320,0.004315,-0.065288,9.935323,0.031701,0.039246,-0.030948,-0.348490,0.000673,-0.262408,0.999993,-0.003041,0.000013,-0.002290
321,0.008752,-0.071854,9.933249,0.031701,0.042298,-0.029422,-0.352933,-0.002555,-0.263422,0.999993,-0.003080,-0.000015,-0.002299
322,0.012188,-0.068186,9.932459,0.028648,0.054505,-0.029422,-0.358131,-0.007884,-0.264413,0.999992,-0.003125,-0.000062,-0.002308
323,0.007790,-0.069443,9.931056,0.014915,0.040772,-0.027896,-0.362241,-0.012416,-0.265377,0.999992,-0.003161,-0.000101,-0.002316
324,0.009956,-0.069638,9.930614,0.025597,0.049927,-0.035526,-0.366351,-0.015699,-0.266442,0.999992,-0.003197,-0.000130,-0.002326
325,0.008956,-0.066169,9.930106,0.043908,0.049927,-0.026371,-0.368399,-0.018767,-0.267483,0.999992,-0.003215,-0.000156,-0.002335
326,0.008040,-0.060716,9.930078,0.051537,0.049927,-0.030948,-0.366653,-0.020818,-0.268450,0.999992,-0.003200,-0.000174,-0.002343
327,0.006222,-0.055017,9.934250,0.050012,0.054505,-0.032474,-0.361028,-0.021575,-0.269519,0.999992,-0.003151,-0.000181,-0.002353
328,0.004845,-0.059812,9.934718,0.053063,0.057557,-0.035526,-0.355493,-0.020965,-0.270666,0.999992,-0.003103,-0.000176,-0.002363
329,0.003585,-0.060905,9.931684,0.050012,0.054505,-0.032475,-0.352595,-0.019459,-0.271811,0.999992,-0.003077,-0.000163,-0.002373
330,0.005496,-0.066821,9.929563,0.048487,0.063661,-0.034000,-0.352635,-0.018194,-0.272931,0.999992,-0.003078,-0.000151,-0.002382
331,0.002844,-0.073511,9.928806,0.031701,0.065187,-0.034000,-0.357396,-0.016665,-0.274075,0.999992,-0.003119,-0.000138,-0.002392
332,0.001282,-0.077182,9.924207,0.036279,0.057557,-0.035526,-0.365582,-0.013982,-0.275244,0.999992,-0.003191,-0.000114,-0.002402
333,0.005826,-0.069056,9.925356,0.033226,0.066713,-0.043156,-0.371495,-0.012525,-0.276567,0.999992,-0.003242,-0.000101,-0.002414
334,0.003332,-0.073159,9.927851,0.036279,0.063661,-0.040104,-0.375223,-0.011899,-0.277967,0.999992,-0.003275,-0.000096,-0.002426
335,0.000168,-0.069612,9.927665,0.042383,0.060609,-0.038578,-0.378417,-0.009590,-0.279291,0.999992,-0.003303,-0.000076,-0.002438
336,-0.000288,-0.068532,9.933438,0.054589,0.054505,-0.038578,-0.379332,-0.006386,-0.280589,0.999992,-0.003310,-0.000048,-0.002449
337,-0.000925,-0.068987,9.936562,0.063745,0.065187,-0.046208,-0.379420,-0.003060,-0.282015,0.999991,-0.003311,-0.000019,-0.002461
338,-0.007038,-0.075635,9.934658,0.066798,0.065187,-0.037052,-0.381633,0.002333,-0.283417,0.999991,-0.003330,0.000029,-0.002473
339,-0.008129,-0.069232,9.937636,0.042383,0.072816,-0.046208,-0.384147,0.009768,-0.284820,0.999991,-0.003352,0.000094,-0.002485
340,-0.006314,-0.065217,9.940914,0.043908,0.068239,-0.052311,-0.383249,0.016258,-0.286478,0.999991,-0.003344,0.000150,-0.002500
341,-0.004948,-0.061748,9.934062,0.045434,0.072816,-0.055363,-0.379697,0.020867,-0.288288,0.999991,-0.003313,0.000190,-0.002515
342,-0.002226,-0.065554,9.931830,0.051538,0.063661,-0.043156,-0.376410,0.023379,-0.289944,0.999991,-0.003284,0.000212,-0.002530
343,0.003735,-0.064500,9.933141,0.051538,0.052980,-0.041630,-0.374349,0.022225,-0.291370,0.999991,-0.003266,0.000202,-0.002542
344,0.005238,-0.065314,9.929314,0.060693,0.048402,-0.035526,-0.372372,0.018226,-0.292667,0.999992,-0.003249,0.000167,-0.002553
345,0.006627,-0.064916,9.932471,0.048487,0.060609,-0.017215,-0.370822,0.013684,-0.293558,0.999991,-0.003236,0.000128,-0.002561
346,0.003234,-0.062997,9.933128,0.037804,0.059083,-0.021793,-0.369071,0.010496,-0.294221,0.999992,-0.003221,0.000100,-0.002567
347,0.000803,-0.061407,9.933925,0.024072,0.049928,-0.026370,-0.366736,0.009538,-0.295035,0.999992,-0.003200,0.000091,-0.002574
348,-0.000441,-0.059327,9.935102,0.027122,0.057557,-0.032474,-0.363579,0.010033,-0.296027,0.999992,-0.003173,0.000096,-0.002583
349,-0.000096,-0.062434,9.939213,0.042383,0.062135,-0.035526,-0.360772,0.011060,-0.297173,0.999992,-0.003148,0.000105,-0.002593
350,0.000481,-0.065361,9.935253,0.046959,0.045350,-0.049259,-0.360011,0.011482,-0.298597,0.999992,-0.003141,0.000108,-0.002605
351,0.006175,-0.068867,9.934521,0.042383,0.045350,-0.044682,-0.361632,0.009430,-0.300173,0.999992,-0.003156,0.000091,-0.002619
352,0.007065,-0.065580,9.936096,0.030174,0.051454,-0.044682,-0.363555,0.005360,-0.301673,0.999991,-0.003172,0.000055,-0.002632
353,0.006065,-0.068296,9.933192,0.039330,0.048402,-0.040104,-0.365132,0.001736,-0.303097,0.999991,-0.003186,0.000024,-0.002645
354,0.002514,-0.062431,9.932632,0.025597,0.034668,-0.037052,-0.365530,-0.000189,-0.304391,0.999991,-0.003190,0.000007,-0.002656
355,0.000767,-0.061797,9.928381,0.022545,0.031616,-0.027896,-0.363916,-0.000285,-0.305481,0.999991,-0.003176,0.000006,-0.002666
356,-0.002051,-0.064885,9.927252,0.036279,0.036194,-0.020267,-0.363032,0.001300,-0.306291,0.999991,-0.003168,0.000020,-0.002673
357,-0.000570,-0.066265,9.925595,0.048487,0.045350,-0.017215,-0.363372,0.003478,-0.306924,0.999991,-0.003171,0.000039,-0.002678
358,-0.000267,-0.064151,9.927524,0.042383,0.052979,-0.011111,-0.363394,0.005117,-0.307407,0.999991,-0.003171,0.000053,-0.002682
359,-0.000228,-0.064979,9.925598,0.048487,0.062135,-0.012637,-0.362962,0.006698,-0.307815,0.999991,-0.003167,0.000067,-0.002686
360,0.001775,-0.065964,9.929011,0.050012,0.083498,-0.014163,-0.363034,0.007913,-0.308277,0.999991,-0.003168,0.000078,-0.002690
361,0.001057,-0.067596,9.930569,0.048485,0.074342,-0.008059,-0.363997,0.008735,-0.308664,0.999991,-0.003176,0.000085,-0.002693
362,0.000140,-0.070639,9.930679,0.057641,0.071291,-0.009585,-0.366342,0.009787,-0.308974,0.999991,-0.003197,0.000094,-0.002696
363,0.005852,-0.067274,9.930293,0.069849,0.063661,-0.009585,-0.368030,0.008937,-0.309309,0.999991,-0.003211,0.000087,-0.002699
364,0.008377,-0.068964,9.931427,0.063745,0.066713,-0.009585,-0.368815,0.005227,-0.309643,0.999991,-0.003218,0.000054,-0.002702
365,0.005864,-0.073174,9.935368,0.059167,0.065187,-0.005008,-0.371608,0.001806,-0.309900,0.999991,-0.003243,0.000025,-0.002704
366,0.005631,-0.067920,9.938124,0.069849,0.065187,-0.014163,-0.373723,-0.000300,-0.310234,0.999991,-0.003261,0.000006,-0.002707
367,0.005886,-0.070928,9.940063,0.048487,0.063661,-0.017215,-0.374963,-0.002117,-0.310771,0.999991,-0.003272,-0.000010,-0.002712
368,0.000772,-0.073818,9.940098,0.031701,0.068239,-0.024845,-0.378622,-0.002021,-0.311486,0.999991,-0.003304,-0.000009,-0.002718
369,0.001693,-0.078812,9.939281,0.045434,0.066713,-0.015689,-0.384699,-0.000364,-0.312177,0.999991,-0.003357,0.000006,-0.002724
370,0.001009,-0.068728,9.935150,0.045434,0.051453,-0.034000,-0.388279,0.000831,-0.313018,0.999991,-0.003388,0.000017,-0.002732
371,0.000546,-0.064584,9.929830,0.036279,0.062135,-0.027897,-0.386684,0.002166,-0.314062,0.999991,-0.003374,0.000028,-0.002741
372,0.000854,-0.058890,9.927773,0.024072,0.063661,-0.021793,-0.382036,0.003611,-0.314904,0.999991,-0.003334,0.000041,-0.002748
373,0.002538,-0.056780,9.925269,0.008811,0.068239,-0.026371,-0.375591,0.004325,-0.315721,0.999991,-0.003278,0.000047,-0.002755
374,0.003641,-0.052551,9.927811,0.001182,0.062135,-0.038578,-0.368041,0.003948,-0.316818,0.999991,-0.003212,0.000043,-0.002765
375,0.007949,-0.060732,9.928027,-0.007974,0.065187,-0.037052,-0.362913,0.001677,-0.318092,0.999991,-0.003167,0.000023,-0.002776
376,0.012482,-0.062716,9.931608,0.004234,0.063661,-0.046208,-0.361886,-0.003389,-0.319493,0.999991,-0.003158,-0.000021,-0.002788
377,0.013245,-0.065959,9.931750,0.040856,0.062135,-0.058415,-0.362156,-0.009861,-0.321250,0.999991,-0.003161,-0.000077,-0.002804
378,0.012342,-0.065828,9.936193,0.045433,0.048402,-0.055363,-0.362821,-0.015866,-0.323157,0.999991,-0.003167,-0.000130,-0.002821
379,0.010874,-0.061334,9.933746,0.053063,0.049928,-0.046208,-0.361666,-0.020547,-0.324861,0.999991,-0.003157,-0.000170,-0.002835
380,0.006308,-0.059681,9.932816,0.051537,0.045350,-0.052312,-0.358378,-0.022627,-0.326513,0.999991,-0.003128,-0.000189,-0.002850
381,0.001151,-0.065269,9.930083,0.043908,0.039246,-0.046208,-0.356833,-0.021218,-0.328164,0.999991,-0.003114,-0.000176,-0.002864
382,0.000022,-0.067060,9.926933,0.030174,0.037720,-0.027897,-0.358423,-0.017781,-0.329406,0.999991,-0.003128,-0.000146,-0.002875
383,-0.003472,-0.076076,9.928698,0.031701,0.043824,-0.027897,-0.363855,-0.012991,-0.330343,0.999991,-0.003176,-0.000104,-0.002883
384,0.002323,-0.079455,9.929172,0.036279,0.042298,-0.023319,-0.372942,-0.009379,-0.331203,0.999991,-0.003255,-0.000072,-0.002891
385,0.001001,-0.081096,9.931080,0.046960,0.054506,-0.009585,-0.382612,-0.007584,-0.331760,0.999990,-0.003339,-0.000057,-0.002895
386,0.000246,-0.079358,9.931906,0.048487,0.060609,-0.015689,-0.390943,-0.005098,-0.332193,0.999990,-0.003412,-0.000035,-0.002899
387,0.001202,-0.072575,9.933836,0.033226,0.066713,-0.015689,-0.395580,-0.002727,-0.332730,0.999990,-0.003452,-0.000014,-0.002904
388,0.004969,-0.063109,9.929184,0.028649,0.074342,-0.018741,-0.394328,-0.002001,-0.333320,0.999990,-0.003441,-0.000007,-0.002909
389,0.000380,-0.057631,9.926075,0.014915,0.069765,-0.034000,-0.388172,-0.001130,-0.334215,0.999990,-0.003387,0.000000,-0.002917
390,0.001568,-0.051940,9.921143,0.010337,0.060609,-0.035526,-0.379008,0.000562,-0.335389,0.999990,-0.003307,0.000015,-0.002927
391,0.002655,-0.051577,9.920197,-0.006446,0.048402,-0.026371,-0.369065,0.000982,-0.336433,0.999991,-0.003221,0.000018,-0.002936
392,0.000471,-0.057559,9.919569,0.013390,0.042298,-0.037052,-0.362082,0.001344,-0.337499,0.999991,-0.003160,0.000021,-0.002945
393,-0.002352,-0.060067,9.918198,0.010338,0.040772,-0.041630,-0.358671,0.003218,-0.338820,0.999991,-0.003130,0.000037,-0.002957
394,-0.000743,-0.065494,9.920046,0.022545,0.046876,-0.032474,-0.358386,0.005448,-0.340064,0.999991,-0.003127,0.000057,-0.002967
395,-0.001015,-0.072130,9.920538,0.037804,0.051454,-0.035526,-0.361919,0.007167,-0.341208,0.999991,-0.003158,0.000072,-0.002977
396,-0.000697,-0.073028,9.924402,0.033226,0.056031,-0.035526,-0.367611,0.008791,-0.342404,0.999990,-0.003208,0.000086,-0.002988
397,0.004083,-0.072815,9.925212,0.048487,0.052979,-0.034000,-0.372806,0.008529,-0.343575,0.999990,-0.003253,0.000084,-0.002998
398,0.007402,-0.069613,9.924663,0.057641,0.054505,-0.026371,-0.375809,0.005436,-0.344594,0.999990,-0.003279,0.000057,-0.003007
399,0.006425,-0.069969,9.926332,0.046960,0.059083,-0.034000,-0.377397,0.001852,-0.345612,0.999990,-0.003293,0.000026,-0.003016
400,0.010234,-0.057628,9.932882,0.040856,0.057557,-0.030948,-0.374946,-0.002243,-0.346708,0.999990,-0.003272,-0.000010,-0.003026
402,0.012508,-0.061920,9.928956,0.048485,0.054505,-0.032474,-0.369804,-0.008013,-0.347777,0.999990,-0.003227,-0.000060,-0.003035
403,0.006150,-0.055967,9.931841,0.017968,0.065187,-0.026371,-0.364929,-0.011706,-0.348772,0.999990,-0.003185,-0.000092,-0.003044
404,0.002797,-0.059267,9.934920,0.031701,0.063661,-0.027897,-0.360014,-0.011425,-0.349691,0.999990,-0.003142,-0.000090,-0.003052
405,0.003395,-0.056482,9.932154,0.037804,0.056031,-0.017215,-0.355511,-0.010169,-0.350456,0.999991,-0.003103,-0.000079,-0.003059
406,0.002616,-0.066295,9.929268,0.037804,0.048402,-0.017215,-0.353833,-0.009195,-0.351041,0.999991,-0.003088,-0.000071,-0.003064
407,-0.001122,-0.059591,9.932560,0.045433,0.059083,-0.032474,-0.353434,-0.006782,-0.351880,0.999991,-0.003084,-0.000050,-0.003071
408,0.004019,-0.060935,9.926390,0.057641,0.049927,-0.043156,-0.351028,-0.005017,-0.353151,0.999991,-0.003063,-0.000034,-0.003082
409,0.007886,-0.065847,9.929122,0.059167,0.043824,-0.038578,-0.350668,-0.006782,-0.354523,0.999991,-0.003060,-0.000050,-0.003094
410,0.007845,-0.074209,9.931911,0.048485,0.049928,-0.047734,-0.355078,-0.009834,-0.355970,0.999990,-0.003099,-0.000076,-0.003107
411,0.004480,-0.073690,9.931970,0.050012,0.059083,-0.047734,-0.362037,-0.011206,-0.357571,0.999990,-0.003160,-0.000088,-0.003121
412,0.008112,-0.071906,9.927693,0.050012,0.059083,-0.027897,-0.367543,-0.012256,-0.358843,0.999990,-0.003208,-0.000097,-0.003132
413,0.004994,-0.075431,9.931260,0.059167,0.054505,-0.029423,-0.372757,-0.013412,-0.359808,0.999990,-0.003253,-0.000107,-0.003140
414,0.002016,-0.070412,9.924928,0.040855,0.059083,-0.037052,-0.377001,-0.012388,-0.360927,0.999990,-0.003290,-0.000098,-0.003150
415,-0.002358,-0.065842,9.924477,0.053063,0.054505,-0.037052,-0.377584,-0.008883,-0.362174,0.999990,-0.003295,-0.000067,-0.003161
416,0.000715,-0.058421,9.928614,0.057641,0.046876,-0.041630,-0.373561,-0.005408,-0.363497,0.999990,-0.003260,-0.000037,-0.003172
417,-0.000101,-0.069487,9.929587,0.059167,0.042298,-0.046208,-0.370851,-0.003304,-0.364971,0.999990,-0.003236,-0.000019,-0.003185
418,0.000740,-0.071552,9.931536,0.063745,0.052979,-0.049260,-0.372846,-0.001433,-0.366572,0.999990,-0.003254,-0.000002,-0.003199
419,0.000931,-0.070715,9.934189,0.068323,0.048402,-0.049260,-0.375133,-0.000040,-0.368225,0.999990,-0.003274,0.000010,-0.003213
420,0.001348,-0.074319,9.933722,0.056116,0.048402,-0.043156,-0.378222,0.000882,-0.369775,0.999989,-0.003301,0.000018,-0.003227
421,0.001124,-0.079245,9.929029,0.053063,0.060609,-0.044682,-0.384136,0.001808,-0.371251,0.999989,-0.003352,0.000027,-0.003240
422,-0.000772,-0.075071,9.931757,0.040856,0.068239,-0.052312,-0.390037,0.003669,-0.372882,0.999989,-0.003404,0.000043,-0.003254
423,0.001218,-0.071080,9.931182,0.031701,0.074343,-0.037052,-0.392851,0.005566,-0.374388,0.999989,-0.003428,0.000060,-0.003267
424,0.000702,-0.077835,9.932031,0.036279,0.081972,-0.043156,-0.396163,0.006977,-0.375743,0.999989,-0.003457,0.000072,-0.003279
425,0.007885,-0.076539,9.931436,0.027123,0.081972,-0.046208,-0.401029,0.006078,-0.377252,0.999988,-0.003499,0.000065,-0.003292
426,0.006848,-0.078660,9.930577,0.034752,0.075868,-0.043156,-0.405726,0.002978,-0.378760,0.999988,-0.003541,0.000038,-0.003305
427,0.011311,-0.076279,9.926194,0.043908,0.065187,-0.035526,-0.409511,-0.001322,-0.380088,0.999988,-0.003574,0.000000,-0.003317
428,0.008400,-0.075854,9.928189,0.043908,0.052979,-0.037052,-0.411711,-0.006094,-0.381312,0.999988,-0.003593,-0.000041,-0.003328
429,0.012344,-0.075427,9.928621,0.045434,0.056031,-0.015689,-0.413243,-0.010834,-0.382203,0.999988,-0.003607,-0.000083,-0.003336
430,0.005392,-0.076714,9.929824,0.059167,0.056031,-0.018741,-0.414588,-0.013953,-0.382790,0.999988,-0.003618,-0.000110,-0.003341
431,0.004482,-0.076696,9.934869,0.054589,0.056031,-0.017215,-0.416023,-0.013966,-0.383402,0.999988,-0.003631,-0.000110,-0.003346
