seq,ax,ay,az,wroll,wpitch,wyaw,roll,pitch,yaw,q0,q1,q2,q3
62,0.081671,-0.328412,9.917795,0.146145,-0.671835,0.109437,-1.896567,-0.471550,0.015614,0.999855,-0.016549,-0.004117,0.000068
63,0.050085,-0.275878,9.942628,-0.586196,-0.316233,-0.047733,-1.876428,-0.457597,0.014958,0.999858,-0.016374,-0.003995,0.000065
64,0.071465,-0.275494,9.922168,-1.158221,-0.137624,0.219305,-1.846208,-0.442252,0.017593,0.999863,-0.016110,-0.003861,0.000091
65,0.081863,-0.289961,9.921908,-1.257254,-0.134567,0.568741,-1.840745,-0.444882,0.030509,0.999863,-0.016062,-0.003886,0.000204
66,0.082840,-0.316190,9.929941,-1.280079,0.083619,0.568740,-1.864263,-0.451429,0.049340,0.999860,-0.016266,-0.003946,0.000366
67,0.074694,-0.358479,9.929410,-1.292349,0.057674,0.579422,-1.925929,-0.449656,0.068538,0.999851,-0.016804,-0.003933,0.000532
68,0.074167,-0.364709,9.921944,-1.048329,-0.639660,0.841883,-2.003386,-0.454299,0.092843,0.999839,-0.017479,-0.003978,0.000741
69,0.070871,-0.374857,9.910821,-0.737153,-1.356823,0.954803,-2.067586,-0.479836,0.124211,0.999828,-0.018037,-0.004206,0.001008
70,0.075446,-0.398592,9.899150,-0.751021,-1.481919,0.899872,-2.132762,-0.517146,0.157151,0.999816,-0.018604,-0.004538,0.001287
71,0.087923,-0.389691,9.889475,-0.832016,-1.430020,0.814421,-2.195630,-0.559395,0.187841,0.999803,-0.019151,-0.004912,0.001545
72,0.100500,-0.363730,9.889643,-0.685538,-1.423922,0.796111,-2.224664,-0.607319,0.216520,0.999796,-0.019402,-0.005336,0.001786
73,0.106515,-0.370444,9.911940,-0.575613,-1.106539,0.805265,-2.228633,-0.651465,0.244649,0.999793,-0.019435,-0.005726,0.002024
74,0.115676,-0.387748,9.925763,-0.632047,-0.696073,0.696924,-2.241481,-0.682876,0.270760,0.999788,-0.019545,-0.006004,0.002246
75,0.116880,-0.375821,9.930457,-0.592352,-0.726594,0.580953,-2.255590,-0.706402,0.292897,0.999784,-0.019666,-0.006214,0.002434
76,0.109934,-0.379135,9.924795,-0.506852,-0.847115,0.617576,-2.259968,-0.723697,0.313719,0.999782,-0.019703,-0.006368,0.002613
77,0.111115,-0.405402,9.909816,-0.593835,-0.691419,0.693874,-2.280076,-0.733047,0.336594,0.999778,-0.019877,-0.006454,0.002809
78,0.113896,-0.417441,9.894590,-0.683938,-0.445693,0.548914,-2.323485,-0.735554,0.358324,0.999769,-0.020254,-0.006481,0.002996
79,0.109269,-0.412235,9.885939,-0.639753,-0.050420,0.307821,-2.365738,-0.725533,0.373175,0.999762,-0.020622,-0.006397,0.003125
80,0.103665,-0.419810,9.899953,-0.508564,0.442530,0.098773,-2.397633,-0.695824,0.379824,0.999758,-0.020901,-0.006140,0.003187
81,0.104925,-0.419063,9.920460,-0.429244,0.582988,0.005695,-2.421643,-0.657021,0.380940,0.999755,-0.021112,-0.005802,0.003202
82,0.116400,-0.408483,9.937755,-0.232385,0.360229,0.013325,-2.428002,-0.633611,0.380537,0.999755,-0.021168,-0.005598,0.003203
83,0.115826,-0.409778,9.937265,0.010282,0.239665,-0.145372,-2.418221,-0.628424,0.377764,0.999757,-0.021083,-0.005552,0.003180
84,0.115573,-0.402669,9.922543,0.225491,-0.019767,-0.249137,-2.398115,-0.632236,0.370861,0.999761,-0.020908,-0.005584,0.003120
85,0.110585,-0.391749,9.899652,0.333908,-0.161693,-0.221671,-2.366071,-0.640145,0.362895,0.999767,-0.020628,-0.005650,0.003051
86,0.106003,-0.391938,9.901737,0.353823,0.268625,-0.468872,-2.331348,-0.636836,0.351065,0.999773,-0.020326,-0.005619,0.002950
87,0.104179,-0.391325,9.894472,0.173818,0.718793,-0.766428,-2.305741,-0.615093,0.329643,0.999779,-0.020104,-0.005424,0.002768
88,0.106259,-0.391074,9.908247,0.205899,0.798153,-0.693183,-2.287950,-0.587287,0.304199,0.999784,-0.019951,-0.005177,0.002552
89,0.091417,-0.405698,9.921387,0.228786,0.947714,-0.893078,-2.281248,-0.553171,0.276628,0.999788,-0.019894,-0.004874,0.002317
90,0.087352,-0.403757,9.927214,0.231804,1.051514,-1.015150,-2.283408,-0.510220,0.243621,0.999790,-0.019915,-0.004494,0.002037
91,0.089472,-0.406763,9.924368,0.416403,0.773809,-0.636720,-2.283497,-0.476562,0.215001,0.999791,-0.019918,-0.004195,0.001793
92,0.077038,-0.391005,9.931817,0.485059,0.654796,-0.536009,-2.271770,-0.450886,0.194557,0.999794,-0.019817,-0.003968,0.001619
93,0.069129,-0.386995,9.927567,0.469823,0.773846,-0.641297,-2.248861,-0.419396,0.173959,0.999800,-0.019618,-0.003689,0.001446
94,0.075123,-0.383012,9.897903,0.576661,0.831844,-0.529904,-2.224051,-0.389707,0.153357,0.999805,-0.019403,-0.003426,0.001272
95,0.065246,-0.387625,9.914485,0.570563,1.132451,-0.729800,-2.202991,-0.358023,0.131099,0.999810,-0.019220,-0.003146,0.001084
96,0.053405,-0.379829,9.913287,0.462220,1.661968,-1.179947,-2.186196,-0.306450,0.097514,0.999814,-0.019075,-0.002690,0.000800
97,0.051126,-0.386403,9.911454,0.686519,2.060254,-1.182998,-2.170613,-0.239884,0.055822,0.999818,-0.018940,-0.002102,0.000447
98,0.037300,-0.386068,9.913974,0.523209,2.235748,-0.906804,-2.160902,-0.166090,0.018360,0.999821,-0.018856,-0.001452,0.000133
99,0.017753,-0.377243,9.948303,0.364490,2.301392,-0.590937,-2.153068,-0.082625,-0.009403,0.999823,-0.018788,-0.000719,-0.000096
100,0.022030,-0.385006,9.907669,0.474329,2.161013,-0.224715,-2.147380,-0.006890,-0.025763,0.999824,-0.018738,-0.000056,-0.000226
101,0.016305,-0.380334,9.875259,0.517011,2.283042,0.091150,-2.143911,0.053811,-0.030751,0.999825,-0.018708,0.000475,-0.000260
102,-0.007592,-0.377591,9.849875,0.626841,2.858284,0.336823,-2.135805,0.129974,-0.026828,0.999826,-0.018637,0.001138,-0.000213
103,-0.010897,-0.388948,9.849119,0.935020,3.822644,0.405488,-2.127458,0.234075,-0.018640,0.999826,-0.018564,0.002045,-0.000125
104,-0.032719,-0.371846,9.874953,0.913604,5.076918,0.274257,-2.112086,0.371618,-0.012849,0.999825,-0.018430,0.003244,-0.000052
105,-0.085230,-0.358619,9.930365,0.736603,5.926883,0.234583,-2.083084,0.562745,-0.011065,0.999823,-0.018177,0.004912,-0.000007
106,-0.133591,-0.360723,9.961787,0.657272,6.290162,0.164396,-2.054549,0.798956,-0.011719,0.999815,-0.017927,0.006973,0.000023
107,-0.174044,-0.373311,9.986870,0.503127,6.291822,-0.096533,-2.043000,1.048942,-0.018190,0.999799,-0.017825,0.009155,0.000004
108,-0.287677,-0.359925,9.981403,0.616010,7.677629,0.069802,-2.035362,1.361562,-0.027086,0.999772,-0.017757,0.011884,-0.000025
109,-0.333787,-0.371400,9.930223,-0.285828,10.410808,0.255973,-2.034886,1.737178,-0.032454,0.999728,-0.017750,0.015162,-0.000014
110,-0.406667,-0.380299,9.904821,-1.558473,13.964786,0.663398,-2.072363,2.173080,-0.031921,0.999657,-0.018075,0.018965,0.000064
112,-0.499710,-0.396447,9.896904,-1.811808,17.738508,1.751386,-2.137287,2.735761,-0.011486,0.999541,-0.018643,0.023869,0.000345
113,-0.666192,-0.411523,9.910427,-2.191802,22.302704,2.967552,-2.212716,3.451133,0.041313,0.999360,-0.019310,0.030100,0.000942
114,-0.774429,-0.399021,9.863005,-2.686231,24.126364,2.998076,-2.298006,4.281752,0.109852,0.999100,-0.020074,0.037330,0.001707
115,-0.954370,-0.424393,9.855100,-2.020949,23.589428,3.024023,-2.377653,5.137374,0.177368,0.998778,-0.020796,0.044775,0.002476
116,-1.090612,-0.472317,9.848160,-0.846032,22.880074,3.042339,-2.432160,5.975852,0.245031,0.998411,-0.021306,0.052068,0.003241
117,-1.261282,-0.484531,9.815569,-0.257087,23.138166,2.094741,-2.463666,6.808537,0.296297,0.997998,-0.021613,0.059311,0.003857
118,-1.389132,-0.478086,9.788050,0.176215,22.975105,1.429440,-2.479856,7.643789,0.320034,0.997535,-0.021777,0.066579,0.004228
119,-1.485312,-0.475037,9.787864,0.559172,22.801340,1.186820,-2.481836,8.463723,0.328721,0.997031,-0.021809,0.073713,0.004458
120,-1.621107,-0.455260,9.774871,0.743769,23.555305,1.073902,-2.471521,9.285139,0.331386,0.996478,-0.021730,0.080858,0.004627
121,-1.765409,-0.419350,9.728306,1.029102,23.463911,0.381137,-2.448109,10.117411,0.321213,0.995868,-0.021526,0.088096,0.004675
122,-1.900685,-0.395708,9.734231,1.236637,22.589716,0.835871,-2.409494,10.932923,0.309343,0.995223,-0.021187,0.095185,0.004690
123,-1.997054,-0.380901,9.684488,1.665445,20.888443,0.803837,-2.354776,11.698836,0.307808,0.994574,-0.020714,0.101838,0.004766
124,-2.114073,-0.358376,9.663394,1.982869,20.024883,1.044944,-2.283579,12.414964,0.313064,0.993930,-0.020105,0.108053,0.004870
125,-2.251126,-0.376795,9.667457,2.252980,19.284916,1.176183,-2.203346,13.103961,0.326214,0.993275,-0.019426,0.114029,0.005021
126,-2.336323,-0.354270,9.659472,2.657363,17.548510,1.514945,-2.112460,13.748274,0.349442,0.992631,-0.018666,0.119612,0.005233
127,-2.395032,-0.373953,9.634473,2.597852,15.351237,1.221969,-2.018609,14.315026,0.376057,0.992041,-0.017886,0.124520,0.005450
128,-2.459426,-0.345922,9.607813,2.748906,13.790234,0.805390,-1.928911,14.807485,0.392752,0.991509,-0.017133,0.128784,0.005567
129,-2.572452,-0.363275,9.598573,2.686321,13.187511,0.141606,-1.845100,15.262877,0.391989,0.991001,-0.016412,0.132728,0.005528
130,-2.566911,-0.353825,9.518879,2.799199,12.841127,-0.499292,-1.772175,15.696382,0.368200,0.990503,-0.015758,0.136483,0.005294
131,-2.637371,-0.339515,9.477078,2.890711,15.227647,-1.124936,-1.703214,16.154768,0.321538,0.989960,-0.015110,0.140453,0.004866
132,-2.753689,-0.323790,9.429984,2.852520,18.624352,-1.669703,-1.639681,16.716373,0.252091,0.989270,-0.014476,0.145315,0.004256
133,-2.837689,-0.333842,9.369557,2.641893,21.677750,-1.941332,-1.589010,17.392052,0.164630,0.988405,-0.013924,0.151158,0.003516
134,-2.959787,-0.335091,9.307214,2.391574,24.996670,-2.402181,-1.557096,18.176706,0.059745,0.987354,-0.013500,0.157936,0.002661
135,-3.141637,-0.301323,9.307450,1.758257,27.871572,-2.277072,-1.541554,19.072985,-0.053559,0.986092,-0.013189,0.165667,0.001768
136,-3.321080,-0.354959,9.266844,1.004380,29.179382,-1.558383,-1.551133,20.049133,-0.156287,0.984645,-0.013092,0.174072,0.001013
137,-3.473589,-0.349289,9.212007,1.034804,29.036047,-1.591983,-1.578717,21.048252,-0.251403,0.983088,-0.013144,0.182661,0.000359
138,-3.647712,-0.336325,9.177968,0.807358,28.080923,-1.997909,-1.610656,22.028395,-0.354195,0.981486,-0.013206,0.191075,-0.000348
139,-3.815545,-0.312863,9.163542,0.880541,26.822132,-1.265485,-1.637448,22.970972,-0.449054,0.979879,-0.013222,0.199153,-0.000995
140,-3.938858,-0.326150,9.080358,1.628189,24.679821,-0.723803,-1.639814,23.853785,-0.519240,0.978315,-0.013064,0.206704,-0.001476
141,-4.051756,-0.269994,9.013710,1.803636,22.780109,-1.218215,-1.619792,24.663681,-0.584233,0.976832,-0.012720,0.213620,-0.001961
142,-4.155115,-0.276336,8.987869,1.158155,20.811708,-1.126665,-1.603616,25.400747,-0.652093,0.975439,-0.012400,0.219905,-0.002474
143,-4.225606,-0.278485,8.922127,1.205437,19.749668,-0.517830,-1.594715,26.077421,-0.706949,0.974124,-0.012165,0.225667,-0.002870
144,-4.279249,-0.297222,8.851305,1.539580,19.783211,-0.183671,-1.576745,26.726799,-0.745973,0.972832,-0.011882,0.231187,-0.003153
145,-4.399916,-0.311848,8.802998,1.579202,20.804018,-0.830690,-1.562529,27.390722,-0.794506,0.971477,-0.011606,0.236824,-0.003507
146,-4.510967,-0.282438,8.751146,2.154427,21.481499,-1.157264,-1.546350,28.086391,-0.861978,0.970022,-0.011265,0.242723,-0.004022
147,-4.636125,-0.240776,8.658643,2.886849,22.355850,-1.477720,-1.505022,28.814003,-0.937865,0.968464,-0.010684,0.248883,-0.004659
148,-4.796869,-0.252096,8.643943,2.633531,22.323830,-1.615060,-1.457842,29.563894,-1.021428,0.966816,-0.010026,0.255220,-0.005372
149,-4.892457,-0.252504,8.579548,2.184884,20.417974,-1.842436,-1.430912,30.282625,-1.113458,0.965196,-0.009515,0.261285,-0.006117
150,-4.947045,-0.212489,8.508332,1.949878,18.414434,-1.380089,-1.408976,30.928375,-1.197321,0.963706,-0.009064,0.266725,-0.006791
151,-5.036613,-0.242499,8.471831,1.098397,16.322367,-1.015401,-1.396746,31.498121,-1.263523,0.962366,-0.008738,0.271517,-0.007303
152,-5.067051,-0.259151,8.436613,0.889309,14.684988,-0.633944,-1.403428,31.995893,-1.318503,0.961175,-0.008601,0.275699,-0.007684
153,-5.117382,-0.228507,8.344891,1.199040,15.507379,-0.824706,-1.405083,32.473152,-1.368827,0.960016,-0.008432,0.279704,-0.008040
154,-5.241716,-0.187166,8.287951,1.092222,17.941175,-0.482903,-1.391027,33.013531,-1.411597,0.958685,-0.008138,0.284229,-0.008361
155,-5.371464,-0.154472,8.224064,1.290617,21.209703,0.776002,-1.347678,33.665054,-1.418605,0.957058,-0.007671,0.289672,-0.008443
156,-5.480271,-0.165231,8.129689,1.545475,24.244804,1.537459,-1.273582,34.434437,-1.386098,0.955100,-0.007035,0.296084,-0.008264
157,-5.605656,-0.157909,8.036779,1.884250,26.719921,2.146317,-1.177997,35.304161,-1.328752,0.952837,-0.006279,0.303313,-0.007932
158,-5.781386,-0.181651,8.000508,1.814059,27.278492,3.045090,-1.066056,36.230549,-1.243457,0.950367,-0.005468,0.310994,-0.007420
159,-5.860775,-0.176502,7.903738,2.137536,25.622938,2.817715,-0.947431,37.135323,-1.145877,0.947895,-0.004653,0.318476,-0.006846
160,-5.958162,-0.188849,7.851389,1.946762,22.833576,1.430624,-0.850861,37.953197,-1.082233,0.945606,-0.003950,0.325225,-0.006516
161,-6.054388,-0.179309,7.796721,1.961974,20.849865,1.163551,-0.782352,38.679817,-1.054189,0.943529,-0.003395,0.331209,-0.006419
162,-6.148574,-0.167883,7.723045,1.391230,19.128599,0.601972,-0.733269,39.339184,-1.042241,0.941611,-0.002964,0.336630,-0.006410
163,-6.177392,-0.150439,7.632105,1.284372,17.834572,-0.046582,-0.709181,39.942329,-1.054011,0.939826,-0.002675,0.341580,-0.006531
164,-6.254587,-0.176530,7.572683,0.806706,17.230242,-0.893513,-0.719606,40.507710,-1.100612,0.938127,-0.002566,0.346214,-0.006837
165,-6.319237,-0.172485,7.494500,0.577758,17.207291,-1.178912,-0.763766,41.061893,-1.176115,0.936437,-0.002642,0.350751,-0.007274
166,-6.412874,-0.158423,7.430227,0.064997,17.495636,-1.650468,-0.828373,41.623356,-1.267091,0.934700,-0.002828,0.355341,-0.007767
167,-6.501893,-0.154187,7.362808,-0.104421,17.748905,-1.638296,-0.907185,42.198517,-1.366546,0.932897,-0.003093,0.360036,-0.008276
168,-6.591157,-0.141457,7.295846,0.400635,18.862804,-1.397224,-0.972327,42.800514,-1.458427,0.930985,-0.003256,0.364939,-0.008753
169,-6.661472,-0.132534,7.214898,0.713436,19.807335,-0.965399,-1.008235,43.439262,-1.532422,0.928930,-0.003225,0.370127,-0.009167
170,-6.744622,-0.149858,7.126909,0.716476,20.692364,-0.628180,-1.028322,44.110832,-1.590561,0.926741,-0.003104,0.375567,-0.009494
171,-6.803716,-0.134921,7.026267,1.203234,21.177605,-0.294015,-1.030529,44.806694,-1.634353,0.924441,-0.002878,0.381189,-0.009758
172,-6.879119,-0.153233,6.942397,1.474836,21.690306,0.612372,-1.001011,45.518269,-1.650176,0.922057,-0.002484,0.386919,-0.009899
173,-6.985260,-0.159330,6.875414,1.325273,21.697924,1.378364,-0.947041,46.238152,-1.630251,0.919612,-0.002014,0.392698,-0.009839
174,-7.097197,-0.141186,6.795617,1.338982,21.690289,2.025331,-0.869284,46.960285,-1.574770,0.917127,-0.001482,0.398478,-0.009582
175,-7.162966,-0.136624,6.694155,1.790635,21.557531,2.881353,-0.753305,47.681438,-1.479202,0.914611,-0.000795,0.404231,-0.009150
176,-7.251528,-0.126763,6.614199,2.184299,21.635347,3.091904,-0.602179,48.400360,-1.355046,0.912068,0.000054,0.409948,-0.008631
177,-7.317748,-0.083327,6.514325,2.225481,21.951200,2.228210,-0.447229,49.124249,-1.239599,0.909468,0.000947,0.415691,-0.008216
178,-7.379161,-0.043679,6.391772,1.689878,21.684156,1.001363,-0.326634,49.849277,-1.165746,0.906825,0.001702,0.421429,-0.008024
179,-7.455845,-0.051804,6.303518,1.230572,21.963392,0.186516,-0.260853,50.574623,-1.142379,0.904140,0.002200,0.427156,-0.008041
180,-7.575061,-0.066584,6.228847,-0.043592,21.786379,-1.641563,-0.287795,51.301914,-1.196120,0.901407,0.002255,0.432886,-0.008322
181,-7.649986,-0.077200,6.128820,-1.526818,21.478142,-2.618188,-0.429364,52.022251,-1.333445,0.898661,0.001736,0.438552,-0.008814
182,-7.739580,-0.092926,6.054207,-1.404772,20.644983,-2.136031,-0.611782,52.721943,-1.491410,0.895957,0.000996,0.444043,-0.009291
183,-7.789854,-0.148536,5.976905,-1.354456,19.808752,-1.641682,-0.784486,53.388180,-1.635238,0.893350,0.000295,0.449258,-0.009673
184,-7.832961,-0.125515,5.873522,-1.162228,18.980135,-2.021689,-0.954896,54.021492,-1.780455,0.890842,-0.000367,0.454202,-0.010058
185,-7.854023,-0.114899,5.766471,-0.277209,18.868694,-1.478486,-1.091800,54.636856,-1.912618,0.888379,-0.000805,0.458992,-0.010456
186,-7.876910,-0.136209,5.659220,1.361621,19.492743,-0.439350,-1.149123,55.259106,-1.999737,0.885866,-0.000791,0.463814,-0.010810
187,-7.917896,-0.137521,5.531711,1.509621,21.340595,-0.735402,-1.164209,55.925453,-2.070311,0.883149,-0.000501,0.468958,-0.011193
188,-8.025876,-0.098441,5.405181,1.651528,23.905668,-0.906313,-1.179712,56.676422,-2.150719,0.880051,-0.000151,0.474737,-0.011632
189,-8.154620,-0.134296,5.321711,1.891094,26.220522,0.212186,-1.168590,57.518860,-2.206527,0.876534,0.000325,0.481191,-0.011973
190,-8.330044,-0.131306,5.262366,1.735437,25.657488,0.692833,-1.125172,58.393044,-2.221982,0.872838,0.000888,0.487858,-0.012136
191,-8.473355,-0.136601,5.195310,0.862594,21.653481,0.257921,-1.097327,59.188572,-2.234776,0.869431,0.001305,0.493901,-0.012228
192,-8.555903,-0.146804,5.142622,-0.155219,15.539091,-0.216675,-1.128303,59.805275,-2.277293,0.866758,0.001372,0.498575,-0.012318
193,-8.533522,-0.158156,5.088226,-0.643542,8.591484,-0.279284,-1.200656,60.186489,-2.336557,0.865090,0.001159,0.501462,-0.012387
194,-8.504015,-0.154718,5.032359,-1.125796,1.977803,-0.644094,-1.337951,60.265408,-2.439589,0.864735,0.000590,0.502071,-0.012550
195,-8.416147,-0.171895,4.981334,-1.154890,-1.770436,-0.616816,-1.534771,60.097012,-2.587730,0.865455,-0.000284,0.500822,-0.012839
196,-8.362354,-0.142426,4.970914,-0.921486,-2.581279,-0.645932,-1.677242,59.850250,-2.690571,0.866518,-0.000970,0.498975,-0.013046
197,-8.367220,-0.141038,4.983114,-0.630038,-2.384924,-0.423169,-1.734030,59.619732,-2.724940,0.867514,-0.001307,0.497238,-0.013109
198,-8.374841,-0.158082,4.996632,-0.343166,-1.944295,-0.235494,-1.767230,59.438282,-2.743975,0.868297,-0.001521,0.495868,-0.013149
199,-8.373590,-0.157331,5.017740,-0.105132,-1.744677,0.004052,-1.788671,59.293121,-2.756981,0.868922,-0.001663,0.494771,-0.013187
200,-8.367575,-0.165722,5.033173,0.050502,-1.873092,0.188663,-1.793673,59.161327,-2.757896,0.869489,-0.001730,0.493773,-0.013201
201,-8.357802,-0.164931,5.036481,0.164931,-2.036560,0.258822,-1.792213,59.038208,-2.754871,0.870019,-0.001763,0.492838,-0.013212
202,-8.338823,-0.146384,5.040638,0.337364,-2.122162,0.306129,-1.759920,58.924282,-2.728428,0.870511,-0.001659,0.491969,-0.013175
203,-8.363116,-0.155186,5.063596,0.361791,-2.097857,0.313774,-1.714337,58.821220,-2.692942,0.870957,-0.001490,0.491181,-0.013123
204,-8.355555,-0.137073,5.070318,0.425896,-1.864462,0.158153,-1.668012,58.734413,-2.659469,0.871333,-0.001303,0.490515,-0.013086
205,-8.376111,-0.115183,5.095079,0.316076,-1.634094,0.124661,-1.591327,58.662975,-2.601183,0.871646,-0.000985,0.489963,-0.012985
206,-8.368073,-0.120754,5.108734,0.165066,-1.914908,0.436039,-1.504402,58.591454,-2.528087,0.871960,-0.000653,0.489409,-0.012815
207,-8.341725,-0.124981,5.114765,0.006399,-1.837150,0.654296,-1.435062,58.510593,-2.461037,0.872313,-0.000429,0.488786,-0.012616
209,-8.327276,-0.113294,5.115482,-0.036301,-1.484727,0.915267,-1.363650,58.436577,-2.385354,0.872636,-0.000224,0.488214,-0.012358
210,-8.313685,-0.132014,5.114085,0.027793,-1.437464,1.043452,-1.303796,58.376453,-2.316559,0.872900,-0.000073,0.487750,-0.012099
211,-8.296193,-0.107520,5.107115,0.096457,-1.121611,0.755049,-1.253293,58.330418,-2.259113,0.873101,0.000058,0.487394,-0.011884
212,-8.327211,-0.101013,5.124131,0.110211,-0.763000,0.607067,-1.189856,58.305508,-2.195782,0.873214,0.000267,0.487198,-0.011675
213,-8.349125,-0.101612,5.148679,0.320805,-0.538660,0.570473,-1.131891,58.292946,-2.142029,0.873272,0.000478,0.487096,-0.011514
214,-8.352268,-0.095763,5.161743,0.085825,-0.584433,0.024212,-1.095665,58.275898,-2.111572,0.873348,0.000621,0.486963,-0.011439
215,-8.343087,-0.084758,5.162727,-0.269696,-0.743145,-0.488466,-1.088140,58.249416,-2.106410,0.873461,0.000652,0.486760,-0.011435
216,-8.325054,-0.101721,5.167552,-0.327670,-1.142974,-0.036777,-1.099718,58.206642,-2.112074,0.873642,0.000580,0.486435,-0.011436
217,-8.283949,-0.116020,5.157125,-0.280387,-1.201025,0.219544,-1.126618,58.147614,-2.124318,0.873891,0.000416,0.485988,-0.011424
218,-8.290973,-0.114673,5.169406,-0.324670,-1.068341,0.036381,-1.161976,58.088432,-2.143139,0.874140,0.000215,0.485540,-0.011427
219,-8.289080,-0.118901,5.175475,-0.115647,-1.008886,0.260647,-1.190072,58.036720,-2.157769,0.874357,0.000053,0.485149,-0.011428
220,-8.296245,-0.124656,5.187770,0.090321,-0.902116,0.668017,-1.198718,57.991482,-2.156209,0.874549,-0.000028,0.484804,-0.011386
221,-8.318154,-0.127396,5.205696,0.055189,-0.845689,0.275795,-1.209138,57.952618,-2.158449,0.874713,-0.000105,0.484509,-0.011365
222,-8.321761,-0.112721,5.217285,0.062797,-1.050190,0.051449,-1.220561,57.912899,-2.166554,0.874879,-0.000165,0.484207,-0.011385
223,-8.286652,-0.111645,5.191529,-0.092852,-1.247043,0.045339,-1.221185,57.871674,-2.165370,0.875054,-0.000183,0.483892,-0.011380
224,-8.285213,-0.097112,5.185496,-0.231698,-1.207338,0.149123,-1.206406,57.840542,-2.146089,0.875187,-0.000157,0.483653,-0.011301
225,-8.288693,-0.095499,5.192660,-0.245403,-1.153874,0.323124,-1.170521,57.818504,-2.104349,0.875284,-0.000064,0.483481,-0.011137
226,-8.263382,-0.088844,5.193224,-0.211800,-1.109584,0.492554,-1.121092,57.792961,-2.048415,0.875397,0.000073,0.483281,-0.010922
227,-8.278855,-0.085491,5.199081,-0.342995,-0.941698,0.353751,-1.070045,57.769543,-1.989526,0.875501,0.000211,0.483098,-0.010691
228,-8.298570,-0.087283,5.213309,-0.274301,-0.912652,0.314121,-1.032858,57.755272,-1.943119,0.875566,0.000297,0.482985,-0.010495
229,-8.278522,-0.091828,5.224408,-0.225458,-1.173560,0.456054,-1.006221,57.728180,-1.906361,0.875683,0.000341,0.482776,-0.010330
230,-8.263451,-0.097711,5.224092,-0.280395,-1.333798,0.410270,-0.994606,57.681866,-1.881314,0.875880,0.000317,0.482421,-0.010194
231,-8.272490,-0.089941,5.228248,-0.352120,-1.246824,0.300395,-0.990890,57.637859,-1.862536,0.876067,0.000259,0.482085,-0.010072
232,-8.256701,-0.083324,5.232616,-0.324644,-1.274286,0.489623,-0.971515,57.597675,-1.829211,0.876239,0.000261,0.481776,-0.009904
233,-8.259009,-0.073181,5.241709,-0.368872,-1.272763,1.071038,-0.916028,57.554916,-1.758291,0.876424,0.000381,0.481444,-0.009600
234,-8.271096,-0.078332,5.253913,-0.326124,-1.028610,1.362525,-0.839620,57.518764,-1.661957,0.876583,0.000555,0.481162,-0.009189
235,-8.262087,-0.064182,5.272480,-0.271171,-1.057618,1.129089,-0.763224,57.479893,-1.566554,0.876754,0.000734,0.480859,-0.008784
236,-8.236680,-0.059710,5.259917,0.014201,-1.240766,0.939912,-0.687235,57.431164,-1.480073,0.876964,0.000946,0.480481,-0.008446
237,-8.233863,-0.048358,5.261267,0.275161,-0.943230,0.868235,-0.607315,57.389729,-1.400342,0.877142,0.001219,0.480159,-0.008175
238,-8.218224,-0.056410,5.265426,0.536110,-0.593809,0.849947,-0.533278,57.359493,-1.333795,0.877273,0.001503,0.479923,-0.007978
239,-8.217913,-0.045631,5.258056,0.468972,-0.787605,0.756870,-0.471479,57.335537,-1.281312,0.877376,0.001754,0.479736,-0.007837
240,-8.242327,-0.045536,5.255082,0.415565,-0.747874,0.837746,-0.413852,57.327190,-1.230753,0.877414,0.001983,0.479669,-0.007692
241,-8.245795,-0.018326,5.261343,0.291983,-0.363250,0.932382,-0.336944,57.336391,-1.159933,0.877378,0.002276,0.479736,-0.007471
242,-8.236045,-0.023940,5.264062,0.334738,-0.218217,1.242190,-0.240840,57.347958,-1.068217,0.877333,0.002629,0.479820,-0.007170
243,-8.242822,-0.038949,5.266625,0.246224,-0.176965,1.196397,-0.178279,57.356949,-1.001743,0.877298,0.002830,0.479887,-0.006923
244,-8.249068,-0.030738,5.276374,0.218724,0.175562,0.663798,-0.155898,57.368427,-0.972693,0.877252,0.002881,0.479974,-0.006794
245,-8.241201,-0.021609,5.278905,0.334672,0.413615,0.514221,-0.139449,57.381130,-0.956033,0.877199,0.002938,0.480071,-0.006734
246,-8.243229,-0.049104,5.280258,0.304108,0.322048,0.356979,-0.153396,57.390049,-0.968935,0.877161,0.002886,0.480140,-0.006774
247,-8.264050,-0.045241,5.290717,-0.057607,0.100776,-0.430509,-0.224278,57.392883,-1.032773,0.877147,0.002611,0.480164,-0.006966
248,-8.262045,-0.020912,5.285756,-0.178189,-0.181527,-0.894442,-0.296621,57.389309,-1.102297,0.877159,0.002348,0.480140,-0.007195
249,-8.247319,-0.022243,5.271325,-0.074420,-0.414987,-0.844078,-0.340785,57.381477,-1.151539,0.877190,0.002216,0.480082,-0.007387
250,-8.244628,-0.032679,5.269470,-0.152239,-0.504996,-0.943257,-0.386927,57.371906,-1.203228,0.877228,0.002078,0.480010,-0.007590
251,-8.242947,-0.040798,5.268917,-0.141563,-0.570586,-0.741845,-0.442604,57.361191,-1.261071,0.877269,0.001893,0.479931,-0.007801
252,-8.234102,-0.054893,5.259350,0.064416,-0.656001,-0.317670,-0.492377,57.351662,-1.311341,0.877307,0.001722,0.479861,-0.007978
253,-8.230546,-0.052841,5.260133,0.149845,-0.427067,-0.238357,-0.526839,57.346966,-1.348284,0.877324,0.001612,0.479827,-0.008117
254,-8.246848,-0.056733,5.281054,0.287162,-0.054714,0.187350,-0.537936,57.347073,-1.364180,0.877323,0.001594,0.479828,-0.008192
255,-8.255536,-0.057390,5.294274,0.343604,0.003271,0.298716,-0.531948,57.345959,-1.363615,0.877328,0.001637,0.479819,-0.008213
256,-8.257309,-0.042697,5.303366,0.133026,-0.224119,-0.006471,-0.517594,57.334473,-1.355572,0.877376,0.001712,0.479730,-0.008213
257,-8.251718,-0.038468,5.293576,-0.127892,-0.399624,-0.119363,-0.503437,57.316685,-1.344809,0.877451,0.001773,0.479593,-0.008191
258,-8.240625,-0.033722,5.292802,-0.162964,-0.504929,-0.108646,-0.490036,57.297104,-1.331429,0.877534,0.001818,0.479442,-0.008146
259,-8.237459,-0.025653,5.289708,-0.312471,-0.570555,-0.583156,-0.480622,57.275776,-1.322985,0.877623,0.001852,0.479279,-0.008123
260,-8.239428,-0.022256,5.281350,-0.347523,-0.478979,-0.642597,-0.478103,57.264233,-1.322572,0.877672,0.001869,0.479190,-0.008131
261,-8.246873,-0.037996,5.281010,-0.197953,-0.358376,-0.474700,-0.485541,57.266712,-1.331185,0.877661,0.001848,0.479209,-0.008165
262,-8.245742,-0.025111,5.289918,0.053853,-0.135541,-0.459398,-0.484159,57.273624,-1.336383,0.877631,0.001881,0.479262,-0.008211
263,-8.244053,-0.031500,5.287071,0.092035,-0.159921,-0.264025,-0.464832,57.279079,-1.328666,0.877609,0.001997,0.479303,-0.008232
264,-8.228670,-0.040243,5.276043,0.085948,-0.246864,-0.204488,-0.456890,57.282860,-1.328671,0.877593,0.002059,0.479331,-0.008265
265,-8.225144,-0.054244,5.278068,0.134766,-0.223948,-0.189244,-0.473733,57.283024,-1.349450,0.877591,0.002016,0.479333,-0.008353
266,-8.229605,-0.037268,5.271320,0.040154,-0.156772,-0.206039,-0.487326,57.286934,-1.366871,0.877574,0.001986,0.479364,-0.008430
267,-8.221473,-0.059008,5.268988,0.058456,-0.109425,-0.093133,-0.501948,57.295658,-1.383233,0.877536,0.001943,0.479431,-0.008493
268,-8.211419,-0.076667,5.279334,0.218631,-0.030069,-0.036747,-0.549119,57.295341,-1.427970,0.877535,0.001769,0.479432,-0.008638
269,-8.219388,-0.070953,5.286165,0.204845,-0.069769,-0.012416,-0.598345,57.285664,-1.475762,0.877572,0.001591,0.479361,-0.008799
270,-8.240926,-0.050864,5.288740,0.136161,-0.040784,-0.099419,-0.612804,57.281601,-1.493707,0.877588,0.001555,0.479331,-0.008877
271,-8.245337,-0.051998,5.305292,0.302496,0.149951,0.007410,-0.598051,57.281513,-1.488285,0.877589,0.001645,0.479329,-0.008897
272,-8.259491,-0.045501,5.307912,0.238423,0.107208,-0.032240,-0.573927,57.280769,-1.475822,0.877593,0.001778,0.479321,-0.008902
273,-8.264903,-0.023576,5.295592,0.145384,-0.065202,-0.105420,-0.528588,57.287575,-1.444301,0.877566,0.001994,0.479371,-0.008850
274,-8.256270,-0.032949,5.296373,0.180527,-0.306265,0.178476,-0.472127,57.291607,-1.400675,0.877551,0.002244,0.479398,-0.008752
275,-8.233933,-0.031274,5.291833,0.215654,-0.414603,0.382997,-0.420247,57.280811,-1.357468,0.877598,0.002459,0.479312,-0.008639
276,-8.231345,-0.038252,5.285269,0.089016,-0.609923,0.170914,-0.386711,57.263214,-1.328470,0.877674,0.002593,0.479176,-0.008558
277,-8.214875,-0.041083,5.284731,0.037128,-0.727420,-0.068664,-0.387037,57.240612,-1.329508,0.877768,0.002593,0.479002,-0.008566
278,-8.222461,-0.047106,5.293163,-0.115483,-0.715223,-0.151091,-0.411922,57.213509,-1.351228,0.877880,0.002490,0.478796,-0.008631
279,-8.214783,-0.033497,5.287607,-0.118541,-0.600776,-0.329636,-0.435387,57.192009,-1.371929,0.877969,0.002394,0.478633,-0.008693
280,-8.208910,-0.050665,5.296430,-0.066666,-0.677074,-0.174001,-0.457615,57.170071,-1.392475,0.878059,0.002308,0.478466,-0.008760
281,-8.192203,-0.051988,5.294567,-0.057532,-0.692356,0.192188,-0.480691,57.140354,-1.409861,0.878183,0.002200,0.478240,-0.008799
282,-8.192685,-0.027202,5.295465,-0.252842,-0.730526,0.140319,-0.468841,57.110359,-1.392452,0.878309,0.002215,0.478009,-0.008717
283,-8.190812,-0.028590,5.291525,-0.303163,-0.698479,-0.048843,-0.440921,57.087322,-1.360291,0.878407,0.002292,0.477831,-0.008589
284,-8.198490,-0.047227,5.293598,-0.248221,-0.410050,0.027467,-0.441545,57.077618,-1.353212,0.878448,0.002257,0.477757,-0.008533
285,-8.209931,-0.036148,5.294811,-0.266535,-0.156692,-0.041203,-0.452351,57.084656,-1.355167,0.878418,0.002183,0.477812,-0.008502
286,-8.217495,-0.027847,5.304295,-0.237523,-0.109330,-0.239542,-0.447775,57.097794,-1.346797,0.878364,0.002184,0.477912,-0.008456
287,-8.236388,-0.048457,5.304603,0.076825,-0.023814,0.180099,-0.444359,57.114685,-1.342211,0.878294,0.002193,0.478041,-0.008434
288,-8.239344,-0.047724,5.300932,0.290440,0.188372,0.393708,-0.438135,57.142101,-1.336941,0.878180,0.002222,0.478251,-0.008418
289,-8.237366,-0.024597,5.307542,0.345384,0.281517,0.262494,-0.400565,57.169155,-1.308374,0.878068,0.002393,0.478456,-0.008353
290,-8.232817,-0.024855,5.308228,0.476643,0.138106,0.442599,-0.338230,57.184326,-1.261159,0.878007,0.002675,0.478569,-0.008251
291,-8.229275,-0.020427,5.299123,0.389690,0.177798,0.239689,-0.281233,57.195129,-1.219244,0.877964,0.002938,0.478649,-0.008167
292,-8.217999,-0.005769,5.300860,0.295116,0.267834,0.087148,-0.227780,57.204399,-1.180975,0.877926,0.003189,0.478717,-0.008097
293,-8.217835,-0.000584,5.309647,0.157825,0.084693,0.047541,-0.172696,57.201332,-1.139816,0.877940,0.003438,0.478691,-0.008011
294,-8.230008,-0.023266,5.311528,-0.034427,-0.205270,-0.062305,-0.156674,57.188259,-1.128210,0.877995,0.003512,0.478590,-0.007990
295,-8.232546,-0.028101,5.309324,-0.359471,-0.426544,-0.510961,-0.200490,57.173061,-1.164677,0.878057,0.003327,0.478476,-0.008087
296,-8.221229,-0.026176,5.303861,-0.357968,-0.646281,-0.530832,-0.262115,57.154255,-1.215788,0.878134,0.003066,0.478334,-0.008223
297,-8.201826,-0.034469,5.296400,-0.264905,-0.754624,-0.694136,-0.323216,57.129936,-1.269409,0.878233,0.002820,0.478151,-0.008380
298,-8.209901,-0.040034,5.305063,-0.139802,-0.557782,-0.640762,-0.386144,57.107140,-1.328600,0.878325,0.002582,0.477980,-0.008573
299,-8.208695,-0.030998,5.312535,0.002103,-0.525743,-0.431719,-0.421589,57.087147,-1.366076,0.878407,0.002464,0.477828,-0.008714
300,-8.212153,-0.033846,5.314166,0.102826,-0.463184,-0.332518,-0.428474,57.069267,-1.380177,0.878480,0.002469,0.477692,-0.008795
301,-8.225385,-0.049968,5.325050,0.098243,-0.246498,-0.126525,-0.442042,57.058987,-1.398487,0.878522,0.002440,0.477613,-0.008880
302,-8.241979,-0.040721,5.344972,-0.156597,-0.219035,-0.063978,-0.458173,57.049961,-1.412903,0.878559,0.002375,0.477545,-0.008924
303,-8.223741,-0.052867,5.338944,-0.400755,-0.638687,-0.201327,-0.484468,57.028965,-1.429514,0.878646,0.002240,0.477386,-0.008943
304,-8.208291,-0.051412,5.321387,-0.640343,-0.881318,-0.477547,-0.536719,57.000668,-1.464826,0.878762,0.001984,0.477172,-0.008999
305,-8.201189,-0.053603,5.321521,-0.661716,-0.699722,-0.286823,-0.588567,56.977627,-1.496910,0.878856,0.001717,0.476999,-0.009031
306,-8.190056,-0.045351,5.322789,-0.582362,-0.756174,-0.065555,-0.611941,56.955379,-1.502187,0.878948,0.001557,0.476830,-0.008976
307,-8.161877,-0.069731,5.304076,-0.205462,-0.742431,0.048884,-0.629165,56.932961,-1.505622,0.879041,0.001436,0.476660,-0.008933
308,-8.187836,-0.055396,5.311404,-0.008629,-0.240363,-0.096095,-0.644621,56.928432,-1.515918,0.879060,0.001360,0.476626,-0.008948
309,-8.219114,-0.050387,5.331310,0.258421,0.292250,0.190799,-0.624605,56.948860,-1.501776,0.878976,0.001457,0.476781,-0.008921
310,-8.224178,-0.047868,5.339406,0.418665,0.241946,0.166418,-0.582920,56.973640,-1.473096,0.878874,0.001660,0.476968,-0.008872
312,-8.212248,-0.051429,5.329991,0.409524,0.190098,-0.059397,-0.552376,56.990608,-1.458125,0.878804,0.001834,0.477096,-0.008883
313,-8.236308,-0.034043,5.335660,0.153190,0.257276,-0.208905,-0.528326,57.009354,-1.448294,0.878726,0.001980,0.477239,-0.008906
314,-8.219273,-0.026850,5.318961,0.160861,0.004023,0.189427,-0.481114,57.029236,-1.413281,0.878646,0.002199,0.477388,-0.008833
315,-8.186045,-0.025595,5.307511,0.302816,-0.134804,0.543510,-0.410159,57.036640,-1.353576,0.878618,0.002495,0.477440,-0.008670
316,-8.175518,-0.017697,5.309732,0.418828,0.179526,0.619870,-0.325822,57.034870,-1.282360,0.878629,0.002844,0.477422,-0.008475
317,-8.216143,-0.004544,5.338246,0.478389,0.419068,0.618419,-0.229457,57.036251,-1.202859,0.878626,0.003252,0.477428,-0.008267
318,-8.216154,-0.006677,5.349699,0.493691,0.336617,0.650530,-0.137159,57.033642,-1.127540,0.878639,0.003646,0.477404,-0.008074
319,-8.208765,-0.017092,5.354677,0.354843,0.135108,0.316370,-0.087002,57.015934,-1.088576,0.878714,0.003867,0.477266,-0.007985
320,-8.210382,-0.006692,5.348478,0.104588,-0.099966,-0.231443,-0.080241,56.991730,-1.088565,0.878815,0.003917,0.477080,-0.008014
321,-8.210223,-0.018383,5.340314,0.014547,-0.307536,-0.226881,-0.100164,56.971809,-1.111091,0.878897,0.003856,0.476927,-0.008105
322,-8.196783,-0.035300,5.330716,-0.037373,-0.394528,-0.197948,-0.151015,56.955757,-1.157250,0.878962,0.003657,0.476806,-0.008248
323,-8.214211,-0.039307,5.338121,0.005299,-0.414360,-0.092743,-0.213909,56.943794,-1.212145,0.879010,0.003402,0.476718,-0.008409
324,-8.214540,-0.031699,5.345328,0.051036,-0.441816,0.001804,-0.254854,56.932369,-1.248049,0.879056,0.003236,0.476632,-0.008514
325,-8.205476,-0.040693,5.349128,0.011333,-0.527278,-0.089798,-0.286639,56.913181,-1.276317,0.879134,0.003108,0.476486,-0.008600
326,-8.201487,-0.025144,5.348201,-0.112283,-0.580703,-0.262253,-0.313543,56.889172,-1.300601,0.879233,0.003000,0.476303,-0.008676
327,-8.193635,-0.022308,5.349662,-0.084808,-0.628024,-0.147795,-0.317938,56.863777,-1.305203,0.879338,0.002983,0.476109,-0.008695
328,-8.182622,-0.016659,5.345028,-0.142772,-0.591418,-0.196591,-0.308951,56.838722,-1.297577,0.879443,0.003018,0.475916,-0.008676
329,-8.178405,-0.011965,5.355819,-0.086281,-0.435800,-0.111092,-0.288432,56.814007,-1.279958,0.879546,0.003100,0.475725,-0.008627
330,-8.186702,-0.033610,5.362346,-0.119840,-0.686083,0.226155,-0.277769,56.785534,-1.267056,0.879665,0.003125,0.475506,-0.008574
331,-8.182996,-0.025097,5.354561,-0.264809,-0.977543,-0.053099,-0.285715,56.755417,-1.266687,0.879790,0.003060,0.475276,-0.008540
332,-8.181668,-0.012130,5.357929,-0.244955,-0.847827,-0.220925,-0.284439,56.728989,-1.260935,0.879900,0.003043,0.475073,-0.008503
333,-8.171411,-0.015609,5.365112,-0.179313,-0.861558,0.072095,-0.267731,56.701321,-1.242336,0.880016,0.003092,0.474860,-0.008431
334,-8.169707,-0.027610,5.358302,-0.260178,-0.844766,0.008020,-0.263802,56.675041,-1.232121,0.880125,0.003077,0.474658,-0.008371
335,-8.170440,-0.011493,5.368615,-0.110626,-0.371710,-0.330719,-0.266656,56.660301,-1.232245,0.880186,0.003055,0.474545,-0.008361
336,-8.164496,-0.027769,5.371532,0.005356,-0.139764,0.038572,-0.264604,56.653236,-1.231717,0.880216,0.003068,0.474490,-0.008366
337,-8.168087,-0.030209,5.365086,-0.011439,-0.240460,0.149952,-0.268633,56.651508,-1.233255,0.880223,0.003043,0.474477,-0.008361
338,-8.168956,-0.033969,5.362428,0.002280,-0.113770,-0.162886,-0.284281,56.656956,-1.246303,0.880200,0.002977,0.474520,-0.008396
339,-8.162393,-0.031980,5.362543,0.084664,-0.107632,0.012572,-0.301768,56.663651,-1.263491,0.880171,0.002915,0.474572,-0.008455
340,-8.164083,-0.028482,5.351297,0.051087,-0.220506,0.270445,-0.298345,56.671280,-1.259913,0.880140,0.002927,0.474631,-0.008442
341,-8.168122,-0.019039,5.364819,0.142653,-0.046510,0.009525,-0.278805,56.679264,-1.243706,0.880107,0.003011,0.474691,-0.008398
342,-8.174511,-0.037001,5.376915,0.135020,-0.037349,0.015626,-0.275583,56.679493,-1.244648,0.880106,0.003039,0.474693,-0.008418
343,-8.171148,-0.026133,5.374059,0.058713,-0.286084,0.033919,-0.282912,56.671349,-1.253002,0.880139,0.003017,0.474630,-0.008452
344,-8.177544,-0.017565,5.368380,0.005315,-0.316592,-0.233104,-0.277588,56.664520,-1.251242,0.880168,0.003050,0.474577,-0.008461
345,-8.172585,-0.024253,5.380535,0.078571,-0.084645,-0.265130,-0.277299,56.659821,-1.256713,0.880187,0.003074,0.474541,-0.008505
346,-8.165174,-0.020866,5.378613,0.051111,-0.168590,-0.065223,-0.276034,56.649757,-1.260477,0.880228,0.003099,0.474464,-0.008540
347,-8.163623,-0.010950,5.377775,-0.008378,-0.220490,-0.136909,-0.258945,56.637409,-1.248632,0.880280,0.003180,0.474368,-0.008520
348,-8.164578,-0.016749,5.383314,-0.040398,-0.089282,-0.213168,-0.244570,56.626133,-1.239143,0.880327,0.003250,0.474280,-0.008508
349,-8.165119,-0.015400,5.394870,-0.055641,-0.096950,-0.092595,-0.237698,56.611366,-1.234863,0.880388,0.003284,0.474167,-0.008504
350,-8.165075,-0.014264,5.390650,-0.194483,-0.307569,-0.226852,-0.233171,56.592190,-1.230517,0.880468,0.003299,0.474019,-0.008490
351,-8.169681,-0.025656,5.388545,-0.275353,-0.423555,-0.358074,-0.251048,56.575459,-1.244240,0.880536,0.003216,0.473891,-0.008523
352,-8.159162,-0.016773,5.381725,-0.244831,-0.408290,-0.293981,-0.272800,56.563076,-1.261111,0.880587,0.003118,0.473798,-0.008563
353,-8.161782,-0.010821,5.374554,-0.133415,-0.325861,-0.136775,-0.266934,56.559597,-1.254878,0.880601,0.003137,0.473770,-0.008540
354,-8.161722,-0.017090,5.376618,0.042091,-0.058779,-0.016189,-0.248087,56.566868,-1.239268,0.880572,0.003218,0.473825,-0.008498
355,-8.163110,-0.018644,5.374548,0.141290,0.165578,0.215772,-0.226599,56.582394,-1.222056,0.880508,0.003313,0.473944,-0.008453
356,-8.166327,-0.007039,5.378560,0.261858,0.319736,0.318040,-0.186352,56.602520,-1.189184,0.880426,0.003488,0.474096,-0.008366
357,-8.177189,-0.024779,5.384550,0.203881,0.281615,0.260066,-0.156580,56.620621,-1.165522,0.880352,0.003621,0.474234,-0.008306
358,-8.171662,-0.025143,5.384049,0.068054,0.127508,0.250883,-0.157976,56.630722,-1.165795,0.880311,0.003612,0.474312,-0.008302
359,-8.181933,-0.025241,5.381453,-0.090665,-0.031177,0.021960,-0.173624,56.635815,-1.176050,0.880289,0.003535,0.474351,-0.008316
360,-8.176191,-0.023161,5.380227,-0.108994,-0.151708,-0.284780,-0.201959,56.638031,-1.199340,0.880279,0.003413,0.474370,-0.008377
361,-8.173576,-0.030151,5.388846,-0.124272,-0.199017,-0.287861,-0.239476,56.630375,-1.232664,0.880310,0.003263,0.474313,-0.008479
362,-8.170198,-0.028017,5.385167,-0.141075,-0.325687,-0.278733,-0.275897,56.615990,-1.264558,0.880368,0.003113,0.474204,-0.008574
363,-8.186107,-0.032150,5.386816,-0.093783,-0.466067,-0.500011,-0.311858,56.604366,-1.298422,0.880414,0.002976,0.474117,-0.008686
364,-8.181479,-0.016203,5.391201,-0.084621,-0.617117,-0.545777,-0.333750,56.591160,-1.323757,0.880467,0.002911,0.474016,-0.008791
365,-8.184394,-0.012540,5.407287,-0.040334,-0.763617,-0.130674,-0.318664,56.565041,-1.315561,0.880576,0.002991,0.473815,-0.008792
366,-8.185901,-0.020859,5.403422,-0.137963,-0.987940,-0.145887,-0.298546,56.532146,-1.298741,0.880712,0.003073,0.473561,-0.008748
367,-8.175039,-0.007857,5.402264,-0.221859,-1.175624,-0.347261,-0.285449,56.497730,-1.287241,0.880855,0.003122,0.473296,-0.008716
368,-8.152965,-0.002014,5.412170,-0.263010,-1.283986,-0.197647,-0.259014,56.450245,-1.263358,0.881052,0.003223,0.472929,-0.008645
369,-8.147845,-0.018949,5.406157,-0.281288,-1.442712,0.023661,-0.239933,56.395802,-1.241380,0.881278,0.003274,0.472510,-0.008558
370,-8.136347,-0.020172,5.399499,-0.342316,-1.374039,-0.305926,-0.248705,56.350800,-1.242518,0.881463,0.003207,0.472164,-0.008533
371,-8.128856,-0.033465,5.408704,-0.198887,-1.065787,-0.138086,-0.276548,56.314583,-1.262182,0.881612,0.003070,0.471887,-0.008572
372,-8.124041,-0.044076,5.409419,0.016238,-0.786531,0.084654,-0.310264,56.287415,-1.288114,0.881723,0.002915,0.471680,-0.008635
373,-8.130576,-0.040008,5.409773,0.106236,-0.586600,-0.080193,-0.338245,56.274563,-1.312981,0.881774,0.002801,0.471583,-0.008712
374,-8.129638,-0.045586,5.425348,0.173350,-0.403462,-0.002410,-0.361136,56.266136,-1.336607,0.881808,0.002721,0.471519,-0.008800
375,-8.141249,-0.055927,5.443116,0.090912,-0.659826,-0.020778,-0.394210,56.245800,-1.367926,0.881890,0.002593,0.471364,-0.008906
376,-8.153007,-0.027826,5.449706,-0.200551,-1.398387,-0.545715,-0.422373,56.207474,-1.394936,0.882046,0.002483,0.471071,-0.009001
377,-8.183016,-0.036522,5.486899,-0.498093,-2.313961,-0.573161,-0.446891,56.139782,-1.415742,0.882323,0.002372,0.470551,-0.009066
378,-8.192170,-0.036904,5.524571,-0.841415,-3.754496,-0.524315,-0.484656,56.019932,-1.438290,0.882814,0.002161,0.469631,-0.009095
379,-8.187772,-0.020560,5.553413,-1.401416,-5.942732,-0.765391,-0.538427,55.840446,-1.463073,0.883547,0.001827,0.468251,-0.009081
380,-8.194361,-0.039584,5.597803,-1.927849,-8.753516,-0.116857,-0.601764,55.586720,-1.476436,0.884581,0.001362,0.466299,-0.008949
381,-8.147680,-0.053109,5.650619,-2.097221,-11.732165,0.890260,-0.639869,55.232723,-1.443149,0.886020,0.000890,0.463567,-0.008570
382,-8.074888,-0.045033,5.708677,-2.416134,-14.736781,0.849070,-0.660222,54.771370,-1.378705,0.887883,0.000419,0.459999,-0.008033
383,-7.977214,-0.065935,5.765568,-2.471063,-17.344683,0.934528,-0.686421,54.209011,-1.312773,0.890134,-0.000113,0.455638,-0.007469
384,-7.897181,-0.089358,5.843352,-2.573303,-19.308659,0.940623,-0.722027,53.565006,-1.250781,0.892684,-0.000706,0.450631,-0.006905
385,-7.795955,-0.068270,5.920815,-2.716745,-20.593613,0.171550,-0.776907,52.862980,-1.207837,0.895429,-0.001379,0.445156,-0.006420
386,-7.723122,-0.081362,6.031463,-2.878491,-21.625275,-0.431190,-0.861045,52.118450,-1.197051,0.898300,-0.002161,0.439334,-0.006083
387,-7.634216,-0.108546,6.130023,-2.820510,-22.519611,-0.531909,-0.965224,51.339088,-1.206894,0.901264,-0.003029,0.433221,-0.005844
388,-7.584377,-0.141271,6.275968,-3.134867,-23.928192,-1.273531,-1.096294,50.518600,-1.241802,0.904336,-0.004028,0.426765,-0.005718
389,-7.524017,-0.194878,6.419261,-3.162367,-26.498013,-2.849856,-1.286628,49.628136,-1.340220,0.907610,-0.005282,0.419739,-0.005903
390,-7.407712,-0.233767,6.550278,-2.838920,-29.794189,-4.610834,-1.538554,48.633965,-1.521448,0.911192,-0.006767,0.411874,-0.006570
391,-7.288864,-0.275627,6.665443,-2.677230,-33.151409,-6.307736,-1.838199,47.524353,-1.777112,0.915098,-0.008431,0.403069,-0.007728
392,-7.137905,-0.280921,6.779057,-2.326318,-35.962341,-7.432405,-2.157135,46.311039,-2.078295,0.919261,-0.010174,0.393408,-0.009271
393,-6.948015,-0.282922,6.874330,-1.523710,-37.453342,-7.649125,-2.446070,45.025940,-2.380385,0.923553,-0.011762,0.383132,-0.011013
394,-6.753923,-0.281089,6.973767,-0.533387,-37.610680,-7.044867,-2.666382,43.715485,-2.645471,0.927813,-0.012996,0.372602,-0.012759
395,-6.602468,-0.296901,7.079701,0.121252,-37.458229,-6.445168,-2.817058,42.412609,-2.863883,0.931934,-0.013873,0.362078,-0.014401
396,-6.453504,-0.263356,7.228013,0.722513,-37.121124,-5.917161,-2.906526,41.125916,-3.039738,0.935893,-0.014424,0.351630,-0.015921
397,-6.308427,-0.272050,7.388283,1.470287,-36.611576,-4.699416,-2.929567,39.856838,-3.164698,0.939694,-0.014614,0.341268,-0.017242
398,-6.171754,-0.292685,7.561563,1.946450,-35.934177,-2.823995,-2.887338,38.610497,-3.222957,0.943332,-0.014474,0.331034,-0.018206
399,-6.037464,-0.284708,7.739071,1.847340,-35.011105,-1.278177,-2.794540,37.393230,-3.211928,0.946795,-0.014108,0.320983,-0.018725
400,-5.887110,-0.268104,7.890821,2.102254,-33.230465,0.406505,-2.658563,36.222874,-3.137683,0.950039,-0.013532,0.311270,-0.018806
401,-5.723218,-0.279968,7.977934,2.486868,-31.208717,1.990471,-2.481671,35.120255,-3.007149,0.953021,-0.012724,0.302074,-0.018480
402,-5.604301,-0.269672,8.078397,2.499143,-29.992643,2.448294,-2.288044,34.080105,-2.848306,0.955760,-0.011802,0.293366,-0.017909
403,-5.479042,-0.220935,8.149484,2.421395,-29.826363,2.246921,-2.096474,33.072956,-2.690425,0.958336,-0.010852,0.284911,-0.017296
404,-5.312270,-0.203560,8.215491,3.179861,-29.821817,3.011462,-1.890151,32.073345,-2.526174,0.960821,-0.009760,0.276497,-0.016627
405,-5.184869,-0.191127,8.298632,3.439343,-30.148396,3.365524,-1.664624,31.070801,-2.348566,0.963241,-0.008504,0.268036,-0.015853
406,-5.047959,-0.158418,8.392742,3.776642,-30.432224,2.822336,-1.438770,30.061047,-2.182174,0.965599,-0.007186,0.259497,-0.015134
407,-4.902584,-0.111424,8.492877,4.078855,-30.152992,2.541612,-1.212530,29.050819,-2.036648,0.967877,-0.005784,0.250938,-0.014550
408,-4.783183,-0.096093,8.596470,4.645052,-29.606714,2.494353,-0.979990,28.056026,-1.904085,0.970042,-0.004268,0.242492,-0.014047
409,-4.658486,-0.030391,8.699079,4.198043,-29.975977,1.540698,-0.756210,27.068056,-1.795342,0.972115,-0.002749,0.234090,-0.013687
410,-4.499988,-0.007911,8.802762,2.925518,-30.401699,0.643504,-0.576738,26.065413,-1.724509,0.974136,-0.001509,0.225553,-0.013526
411,-4.332200,0.025755,8.899478,1.688090,-30.597023,0.684752,-0.449057,25.046618,-1.673735,0.976109,-0.000658,0.216868,-0.013408
412,-4.171378,0.000861,8.945112,0.893162,-30.145367,0.639014,-0.362992,24.030693,-1.628656,0.977998,-0.000139,0.208196,-0.013241
413,-3.992228,0.002618,8.973424,0.011236,-29.852396,0.021040,-0.319830,23.028610,-1.601468,0.979783,0.000055,0.199631,-0.013137
415,-3.797383,-0.029016,9.044394,-0.762372,-30.616913,-0.415359,-0.319981,22.013372,-1.597266,0.981513,-0.000080,0.190942,-0.013149
416,-3.652783,-0.039517,9.129465,-0.831025,-31.750713,-1.123382,-0.349090,20.962374,-1.616223,0.983220,-0.000430,0.181936,-0.013314
417,-3.403792,-0.025313,9.216736,-0.768442,-35.791435,-2.127434,-0.386665,19.813971,-1.663902,0.984987,-0.000826,0.172078,-0.013723
418,-3.161655,0.001489,9.344099,-1.041539,-40.908016,-2.885804,-0.428071,18.489935,-1.737650,0.986899,-0.001251,0.160692,-0.014366
419,-2.890829,-0.001584,9.481572,-0.972812,-44.561298,-3.334406,-0.470914,16.998590,-1.828038,0.988893,-0.001706,0.147842,-0.015169
420,-2.650615,0.002813,9.554969,-0.350165,-44.778236,-3.488504,-0.499721,15.433329,-1.926388,0.990805,-0.002064,0.134327,-0.016072
421,-2.347497,0.029570,9.608005,0.692132,-44.387867,-3.001710,-0.489873,13.866782,-2.016910,0.992533,-0.002118,0.120770,-0.016955
422,-2.176816,-0.017285,9.665075,1.096586,-40.977661,-2.440150,-0.451914,12.371732,-2.091386,0.994012,-0.001954,0.107807,-0.017718
423,-1.961550,0.003460,9.680380,1.459825,-36.856312,-1.912165,-0.400860,11.021970,-2.150807,0.995203,-0.001679,0.096084,-0.018345
424,-1.795327,-0.008448,9.703909,1.137920,-33.337650,-1.590183,-0.346355,9.815476,-2.198303,0.996151,-0.001370,0.085593,-0.018854
425,-1.628124,-0.028842,9.726029,0.681711,-32.045261,-1.770235,-0.310988,8.704270,-2.246280,0.996925,-0.001218,0.075924,-0.019339
426,-1.450944,-0.025020,9.721765,0.100361,-30.868813,-1.771757,-0.297174,7.642304,-2.298877,0.997576,-0.001250,0.066681,-0.019843
427,-1.282992,-0.010219,9.731887,-0.575591,-29.185749,-1.585589,-0.301454,6.632512,-2.348547,0.998116,-0.001440,0.057889,-0.020307
428,-1.136966,-0.059238,9.779840,-1.889398,-27.061670,-2.314979,-0.344204,5.691441,-2.407917,0.998545,-0.001956,0.049699,-0.020836
429,-0.971452,-0.026724,9.732396,-3.245933,-23.849598,-3.181704,-0.434224,4.842553,-2.493663,0.998867,-0.002866,0.042319,-0.021580
430,-0.853870,-0.031014,9.763340,-4.889318,-18.272329,-3.373966,-0.567014,4.143743,-2.596028,0.999082,-0.004125,0.036255,-0.022459
431,-0.768282,-0.065274,9.840648,-6.276348,-12.434098,-3.937029,-0.750077,3.642513,-2.711279,0.999199,-0.005789,0.031927,-0.023438
432,-0.731010,-0.138769,9.864029,-6.711226,-7.248928,-5.134880,-0.972249,3.335126,-2.857488,0.999236,-0.007753,0.029302,-0.024675
433,-0.722935,-0.164528,9.869779,-6.125274,-2.559638,-5.266107,-1.196970,3.204636,-3.028077,0.999213,-0.009699,0.028227,-0.026118
434,-0.753917,-0.242992,9.952546,-4.756535,0.825030,-4.468046,-1.392075,3.221567,-3.190223,0.999153,-0.011356,0.028435,-0.027482
435,-0.773956,-0.254403,9.922807,-2.763699,2.383197,-3.611999,-1.532194,3.330654,-3.326937,0.999078,-0.012516,0.029434,-0.028626
436,-0.810830,-0.266743,9.906260,-0.870036,3.371022,-2.255438,-1.601790,3.589457,-3.427806,0.998978,-0.013028,0.031720,-0.029454
437,-0.826845,-0.238636,9.908676,0.692582,3.727404,-0.489914,-1.586897,3.959047,-3.475672,0.998862,-0.012786,0.034943,-0.029827
438,-0.842422,-0.222060,9.891484,1.928755,3.416810,0.935331,-1.490681,4.286967,-3.467687,0.998773,-0.011862,0.037775,-0.029747
439,-0.842177,-0.180909,9.866810,2.926847,2.684718,1.692209,-1.365537,4.495261,-3.423101,0.998728,-0.010731,0.039554,-0.029376
440,-0.852045,-0.167727,9.881905,3.009315,1.908107,1.454172,-1.241765,4.598563,-3.370560,0.998717,-0.009643,0.040418,-0.028949
441,-0.867323,-0.144931,9.871331,2.937662,1.213882,1.170357,-1.119354,4.672841,-3.326131,0.998712,-0.008573,0.041031,-0.028598
442,-0.872566,-0.123026,9.872630,2.550245,0.788310,0.849930,-0.974626,4.755137,-3.288769,0.998702,-0.007304,0.041710,-0.028318
443,-0.874559,-0.117769,9.864147,2.072861,0.610005,0.419642,-0.826235,4.847638,-3.262015,0.998683,-0.005997,0.042478,-0.028132
444,-0.878447,-0.116893,9.866966,1.361926,0.503373,-0.082373,-0.724721,4.921334,-3.252843,0.998663,-0.005097,0.043095,-0.028084
445,-0.875323,-0.101174,9.876266,1.587857,0.166272,0.254866,-0.646790,4.970805,-3.247599,0.998649,-0.004408,0.043507,-0.028065
446,-0.878725,-0.102835,9.881148,1.632171,-0.120517,0.430355,-0.573296,4.997097,-3.234483,0.998645,-0.003766,0.043717,-0.027977
447,-0.875817,-0.099790,9.875893,1.561993,-0.599597,0.720282,-0.513882,5.003413,-3.214705,0.998649,-0.003254,0.043757,-0.027827
448,-0.868297,-0.088938,9.892874,1.499428,-1.312177,1.181111,-0.460749,4.980111,-3.182669,0.998667,-0.002809,0.043540,-0.027569
449,-0.861016,-0.083526,9.898175,1.171346,-2.136176,1.397793,-0.414868,4.923329,-3.139289,0.998700,-0.002439,0.043034,-0.027211
450,-0.862670,-0.089232,9.902255,0.438860,-2.474916,1.048352,-0.396915,4.851434,-3.098888,0.998737,-0.002315,0.042402,-0.026869
451,-0.838453,-0.078545,9.882787,0.042067,-2.935728,0.907963,-0.402088,4.766809,-3.066895,0.998775,-0.002392,0.041665,-0.026591
452,-0.810223,-0.071566,9.871473,-0.134965,-3.396582,0.857605,-0.408325,4.653781,-3.037225,0.998822,-0.002483,0.040681,-0.026335
453,-0.789305,-0.084895,9.872124,-0.380670,-3.559909,0.645499,-0.424609,4.522277,-3.012041,0.998873,-0.002664,0.039537,-0.026115
454,-0.762430,-0.068965,9.880046,-0.337964,-3.717143,0.555467,-0.440927,4.381910,-2.991525,0.998925,-0.002846,0.038317,-0.025937
455,-0.732215,-0.065909,9.885046,-0.379137,-4.014784,0.607349,-0.442987,4.227661,-2.970453,0.998980,-0.002906,0.036972,-0.025759
456,-0.723142,-0.069532,9.891365,-0.516437,-4.010270,0.441025,-0.446657,4.074843,-2.951147,0.999032,-0.002979,0.035640,-0.025596
457,-0.705660,-0.084391,9.899188,-0.592734,-3.898893,0.300640,-0.464360,3.938730,-2.937702,0.999076,-0.003168,0.034457,-0.025479
458,-0.685837,-0.073113,9.893256,-0.531697,-3.732557,0.291485,-0.482445,3.814545,-2.926768,0.999115,-0.003356,0.033378,-0.025384
459,-0.669649,-0.102746,9.888557,-0.431009,-3.598247,0.318950,-0.504944,3.701073,-2.915994,0.999149,-0.003581,0.032394,-0.025288
460,-0.665979,-0.108086,9.897192,-0.260184,-3.209066,0.250279,-0.539147,3.608479,-2.906984,0.999175,-0.003902,0.031594,-0.025205
461,-0.641456,-0.104705,9.914500,0.034257,-2.922112,0.355564,-0.560885,3.530538,-2.897090,0.999198,-0.004112,0.030918,-0.025116
462,-0.620337,-0.102812,9.911142,0.174610,-2.503961,0.485266,-0.566428,3.454631,-2.882788,0.999221,-0.004181,0.030257,-0.024994
463,-0.600305,-0.103016,9.910422,0.221892,-2.333036,0.581399,-0.564966,3.380419,-2.864566,0.999244,-0.004189,0.029609,-0.024839
464,-0.585727,-0.087286,9.906432,0.177651,-2.220112,0.480689,-0.554127,3.306181,-2.845914,0.999267,-0.004116,0.028959,-0.024683
465,-0.559565,-0.079580,9.888090,0.200591,-2.433764,0.648543,-0.531393,3.222377,-2.825440,0.999293,-0.003941,0.028222,-0.024514
466,-0.549967,-0.082292,9.890199,0.157914,-2.417014,0.695849,-0.509365,3.131029,-2.801426,0.999321,-0.003774,0.027420,-0.024314
467,-0.551122,-0.087305,9.892118,0.281533,-2.355971,0.506635,-0.495084,3.053457,-2.780330,0.999344,-0.003671,0.026740,-0.024137
468,-0.541933,-0.094451,9.893746,0.199117,-2.262843,0.248754,-0.491190,2.990522,-2.767313,0.999362,-0.003654,0.026190,-0.024027
469,-0.540504,-0.102683,9.894154,0.167021,-2.004889,0.061063,-0.500316,2.941227,-2.762342,0.999373,-0.003745,0.025762,-0.023983
470,-0.534257,-0.105577,9.896081,0.192891,-1.521075,-0.257858,-0.515889,2.910935,-2.766217,0.999379,-0.003886,0.025501,-0.024015
471,-0.527489,-0.105301,9.900421,0.206556,-1.301247,-0.402824,-0.530207,2.892550,-2.777863,0.999380,-0.004012,0.025344,-0.024114
472,-0.519250,-0.093628,9.899579,0.021884,-1.172987,-0.363151,-0.537538,2.876048,-2.790798,0.999380,-0.004077,0.025202,-0.024226
473,-0.530037,-0.100250,9.880480,0.174458,-0.467907,-0.440973,-0.540470,2.879005,-2.804240,0.999377,-0.004099,0.025229,-0.024343
474,-0.528449,-0.089138,9.867227,0.493369,0.545434,-0.326528,-0.532078,2.918273,-2.817163,0.999366,-0.004014,0.025570,-0.024455
475,-0.528622,-0.078884,9.903351,0.629209,1.322238,-0.035073,-0.503836,2.981700,-2.822966,0.999351,-0.003753,0.026117,-0.024510
476,-0.529934,-0.073479,9.914520,0.731499,1.659539,0.058011,-0.465669,3.052884,-2.822192,0.999336,-0.003405,0.026730,-0.024509
477,-0.541135,-0.079154,9.949517,0.601825,1.880844,0.019865,-0.434495,3.125692,-2.820882,0.999321,-0.003118,0.027358,-0.024502
478,-0.535897,-0.070193,9.968752,0.533171,1.488685,0.352518,-0.411166,3.183047,-2.814859,0.999309,-0.002903,0.027853,-0.024453
479,-0.537776,-0.075622,9.979938,0.298181,0.589866,0.473066,-0.395750,3.203053,-2.801283,0.999307,-0.002768,0.028024,-0.024337
480,-0.543253,-0.081063,9.948641,0.034165,-0.250978,0.312841,-0.398891,3.191165,-2.788730,0.999313,-0.002801,0.027921,-0.024227
481,-0.548649,-0.080530,9.922633,-0.243599,-0.571456,0.291476,-0.415537,3.167127,-2.779308,0.999320,-0.002954,0.027714,-0.024142
482,-0.545179,-0.077342,9.902806,-0.190224,-0.809515,0.529518,-0.431808,3.139957,-2.765976,0.999329,-0.003104,0.027481,-0.024023
483,-0.548650,-0.077352,9.910937,-0.336729,-0.977362,0.398288,-0.444463,3.111534,-2.750524,0.999339,-0.003225,0.027235,-0.023886
484,-0.542213,-0.065423,9.901506,-0.478624,-0.882739,0.186185,-0.452459,3.085741,-2.740253,0.999346,-0.003302,0.027011,-0.023796
485,-0.538439,-0.074915,9.898464,-0.470965,-0.762174,0.267061,-0.459396,3.063447,-2.732012,0.999353,-0.003369,0.026818,-0.023723
486,-0.532086,-0.083175,9.898237,-0.417560,-0.754530,0.372350,-0.473947,3.042379,-2.721150,0.999360,-0.003503,0.026637,-0.023626
487,-0.522909,-0.077312,9.896100,-0.350417,-0.650768,0.302157,-0.485712,3.018620,-2.709675,0.999367,-0.003613,0.026432,-0.023524
488,-0.514678,-0.081414,9.886017,-0.182552,-0.463098,0.061061,-0.490247,2.994477,-2.703242,0.999374,-0.003659,0.026222,-0.023468
489,-0.523686,-0.082903,9.914415,-0.115403,-0.392909,-0.050331,-0.492694,2.979261,-2.702809,0.999377,-0.003684,0.026090,-0.023464
490,-0.518812,-0.078689,9.904492,0.021946,-0.429515,-0.024389,-0.489445,2.970359,-2.703685,0.999379,-0.003657,0.026012,-0.023473
491,-0.517527,-0.085930,9.914173,0.084518,-0.397459,0.029018,-0.484625,2.960261,-2.703333,0.999382,-0.003617,0.025923,-0.023472
492,-0.520382,-0.097380,9.915594,0.168417,-0.385231,-0.073219,-0.488961,2.953360,-2.704399,0.999383,-0.003656,0.025863,-0.023480
493,-0.518546,-0.080371,9.929927,0.102785,-0.351634,-0.004553,-0.489785,2.949031,-2.705865,0.999384,-0.003664,0.025826,-0.023493
494,-0.511441,-0.077940,9.925230,0.119591,-0.392822,0.114471,-0.479469,2.940293,-2.703591,0.999386,-0.003576,0.025747,-0.023476
495,-0.512377,-0.082708,9.928357,0.053991,-0.414180,0.065642,-0.472212,2.928323,-2.700256,0.999390,-0.003516,0.025641,-0.023449
496,-0.509274,-0.077095,9.906590,0.049423,-0.459947,0.032072,-0.467548,2.916599,-2.698360,0.999393,-0.003478,0.025538,-0.023434
497,-0.506167,-0.059983,9.898653,0.046420,-0.447732,0.067171,-0.451192,2.903991,-2.695835,0.999397,-0.003339,0.025425,-0.023416
498,-0.513241,-0.061850,9.900578,0.247913,-0.403456,0.123634,-0.424758,2.897239,-2.691457,0.999400,-0.003111,0.025360,-0.023384
499,-0.504778,-0.083512,9.908735,0.223509,-0.447680,0.303694,-0.413022,2.891348,-2.684040,0.999403,-0.003011,0.025306,-0.023322
500,-0.498046,-0.082122,9.905962,0.134965,-0.491930,0.425766,-0.418438,2.876353,-2.672359,0.999409,-0.003064,0.025176,-0.023219
501,-0.495617,-0.068336,9.906939,0.153264,-0.484309,0.442550,-0.416776,2.857623,-2.657946,0.999416,-0.003057,0.025012,-0.023095
502,-0.496179,-0.085472,9.904437,0.202075,-0.528562,0.540209,-0.415475,2.840636,-2.641695,0.999423,-0.003052,0.024863,-0.022954
503,-0.493439,-0.090267,9.893413,0.038740,-0.626212,0.552413,-0.429046,2.823999,-2.624240,0.999429,-0.003178,0.024721,-0.022799
504,-0.503276,-0.063576,9.892690,0.050932,-0.581926,0.616502,-0.431229,2.814291,-2.604815,0.999435,-0.003203,0.024636,-0.022630
505,-0.504312,-0.052056,9.912165,0.186803,-0.562027,0.862179,-0.406932,2.814058,-2.579060,0.999441,-0.002997,0.024628,-0.022411
506,-0.497767,-0.059017,9.914107,0.188394,-0.488730,1.074286,-0.379469,2.812611,-2.545656,0.999449,-0.002765,0.024610,-0.022125
507,-0.491464,-0.052400,9.928064,0.081627,-0.413933,1.187208,-0.358822,2.805961,-2.507116,0.999458,-0.002594,0.024547,-0.021794
508,-0.481130,-0.056088,9.921513,0.022153,-0.478025,1.255875,-0.343899,2.790508,-2.465709,0.999469,-0.002476,0.024408,-0.021436
509,-0.474934,-0.064912,9.907426,0.012998,-0.561975,1.106335,-0.341056,2.765834,-2.426172,0.999482,-0.002464,0.024192,-0.021093
510,-0.473693,-0.067047,9.898054,0.037387,-0.586414,0.900334,-0.346457,2.739692,-2.392954,0.999493,-0.002523,0.023964,-0.020803
512,-0.477446,-0.077792,9.902952,-0.052693,-0.548268,0.457813,-0.360693,2.720370,-2.370898,0.999501,-0.002655,0.023797,-0.020608
513,-0.477287,-0.066597,9.888949,0.015931,-0.503995,0.062597,-0.373766,2.709214,-2.362718,0.999504,-0.002773,0.023702,-0.020534
514,-0.486664,-0.055838,9.905625,0.096814,-0.355931,0.051916,-0.369230,2.709516,-2.360594,0.999505,-0.002734,0.023704,-0.020517
515,-0.478787,-0.069020,9.929899,0.179221,-0.171243,0.202983,-0.362247,2.716189,-2.356181,0.999504,-0.002672,0.023761,-0.020479
516,-0.468477,-0.072062,9.932865,0.044913,-0.046106,0.103797,-0.366511,2.716095,-2.351429,0.999505,-0.002711,0.023761,-0.020437
517,-0.460156,-0.061236,9.926966,-0.011559,-0.105643,0.128211,-0.369806,2.705781,-2.347732,0.999508,-0.002742,0.023671,-0.020404
518,-0.468030,-0.068108,9.931178,-0.200778,0.019460,0.128211,-0.374147,2.697394,-2.343492,0.999510,-0.002782,0.023599,-0.020367
519,-0.464295,-0.077119,9.930423,-0.365609,0.129317,-0.022858,-0.392897,2.697064,-2.342192,0.999510,-0.002946,0.023599,-0.020352
520,-0.457154,-0.103315,9.909164,-0.470989,-0.091968,-0.007602,-0.434391,2.690050,-2.343996,0.999510,-0.003309,0.023545,-0.020359
521,-0.468420,-0.108212,9.888365,-0.516899,-0.206423,-0.009135,-0.490572,2.681690,-2.346097,0.999510,-0.003800,0.023483,-0.020366
522,-0.478918,-0.109648,9.911796,-0.546004,-0.058373,0.062578,-0.541825,2.687917,-2.346744,0.999506,-0.004246,0.023546,-0.020361
523,-0.471332,-0.108652,9.933983,-0.420953,-0.172780,0.326560,-0.580438,2.695405,-2.341291,0.999504,-0.004582,0.023618,-0.020305
524,-0.466416,-0.121044,9.929281,-0.390502,-0.339098,0.462364,-0.613622,2.689229,-2.328996,0.999506,-0.004875,0.023569,-0.020191
525,-0.474641,-0.092673,9.914485,-0.338634,-0.317719,0.379964,-0.629102,2.682968,-2.315013,0.999510,-0.005014,0.023517,-0.020067
526,-0.466849,-0.084895,9.923766,-0.195125,-0.342114,0.407434,-0.615674,2.678298,-2.300741,0.999513,-0.004901,0.023473,-0.019945
527,-0.464078,-0.094213,9.915041,-0.037884,-0.227666,0.321986,-0.597962,2.670105,-2.287487,0.999518,-0.004751,0.023398,-0.019834
528,-0.460081,-0.098261,9.907652,-0.013436,-0.194098,0.212121,-0.588300,2.662155,-2.278031,0.999522,-0.004670,0.023327,-0.019753
529,-0.456735,-0.093684,9.903847,0.175803,-0.400110,0.180077,-0.577679,2.648985,-2.271034,0.999526,-0.004581,0.023210,-0.019695
530,-0.464211,-0.083054,9.913326,0.043096,-0.325336,-0.100690,-0.559564,2.637919,-2.268923,0.999529,-0.004425,0.023110,-0.019681
531,-0.462926,-0.084342,9.925524,0.001953,-0.184930,-0.117473,-0.541940,2.635807,-2.271693,0.999530,-0.004271,0.023089,-0.019709
532,-0.452165,-0.094009,9.911642,0.169828,-0.506897,0.144987,-0.531929,2.625121,-2.270798,0.999533,-0.004186,0.022994,-0.019703
533,-0.453015,-0.086853,9.905224,0.102697,-0.679337,0.239595,-0.524279,2.602356,-2.264071,0.999539,-0.004124,0.022794,-0.019647
534,-0.449899,-0.074483,9.918386,0.148516,-0.546585,0.419657,-0.507229,2.580834,-2.252326,0.999545,-0.003982,0.022603,-0.019549
535,-0.431394,-0.084441,9.925252,0.429324,-0.722099,0.788932,-0.485307,2.550121,-2.231467,0.999556,-0.003800,0.022330,-0.019373
536,-0.430542,-0.089921,9.921304,0.325556,-0.961722,0.845390,-0.472932,2.506531,-2.204034,0.999569,-0.003705,0.021947,-0.019138
537,-0.429420,-0.084487,9.929867,0.182103,-0.894614,0.769093,-0.468144,2.466237,-2.177063,0.999581,-0.003675,0.021594,-0.018905
538,-0.427926,-0.078245,9.919637,0.168370,-0.774074,0.633286,-0.461126,2.435963,-2.153438,0.999591,-0.003623,0.021328,-0.018701
539,-0.424535,-0.086520,9.908390,0.110376,-0.735919,0.598189,-0.457898,2.413080,-2.132790,0.999599,-0.003602,0.021127,-0.018523
540,-0.429895,-0.087793,9.924323,0.006585,-0.424602,0.460854,-0.464011,2.402333,-2.115341,0.999603,-0.003661,0.021034,-0.018370
541,-0.422212,-0.081758,9.917459,0.185099,-0.212464,0.395240,-0.465939,2.402083,-2.101216,0.999606,-0.003680,0.021031,-0.018246
542,-0.422039,-0.067332,9.916224,0.151550,-0.188026,0.404396,-0.452908,2.402542,-2.087535,0.999608,-0.003569,0.021033,-0.018129
543,-0.413519,-0.080640,9.920506,0.278224,-0.249057,0.442545,-0.438743,2.397287,-2.073082,0.999612,-0.003449,0.020984,-0.018006
544,-0.415553,-0.074439,9.913948,0.230920,-0.194128,0.271642,-0.430185,2.388703,-2.061131,0.999615,-0.003378,0.020908,-0.017904
545,-0.413547,-0.057395,9.899123,0.218747,-0.264318,0.257909,-0.411667,2.381759,-2.051797,0.999619,-0.003219,0.020844,-0.017826
546,-0.414458,-0.068415,9.923835,0.214207,-0.287202,0.241126,-0.392637,2.373941,-2.042930,0.999622,-0.003056,0.020773,-0.017752
547,-0.416087,-0.074770,9.918158,0.235563,-0.242938,0.030549,-0.387212,2.368932,-2.038431,0.999624,-0.003010,0.020728,-0.017714
548,-0.421319,-0.067782,9.899609,0.211134,-0.223069,-0.118993,-0.384263,2.370781,-2.040038,0.999623,-0.002984,0.020744,-0.017728
549,-0.424516,-0.078380,9.907408,0.327079,-0.113152,-0.244119,-0.382951,2.380204,-2.046363,0.999621,-0.002970,0.020826,-0.017784
550,-0.425963,-0.085858,9.907039,0.410944,-0.171083,-0.196817,-0.389214,2.391853,-2.054444,0.999617,-0.003021,0.020929,-0.017853
551,-0.427299,-0.080443,9.902783,-0.268156,-0.125251,0.315891,-0.405727,2.402977,-2.053216,0.999615,-0.003164,0.021028,-0.017838
552,-0.425860,-0.060476,9.908306,-0.585556,-0.134360,0.717209,-0.421249,2.412459,-2.036040,0.999615,-0.003301,0.021113,-0.017685
553,-0.430059,-0.064657,9.921254,-0.568735,-0.212140,0.642441,-0.429143,2.419611,-2.012882,0.999617,-0.003373,0.021176,-0.017482
554,-0.428775,-0.088370,9.921935,-0.797635,-0.520336,0.506634,-0.454432,2.419984,-1.993765,0.999619,-0.003597,0.021182,-0.017310
555,-0.431077,-0.092215,9.927566,-0.837362,-0.669836,0.560039,-0.496816,2.412401,-1.976486,0.999622,-0.003971,0.021122,-0.017152
556,-0.421386,-0.093062,9.929792,-0.251446,-0.717112,0.306733,-0.526137,2.397788,-1.962326,0.999626,-0.004231,0.020998,-0.017024
557,-0.410715,-0.112800,9.923886,-0.022613,-0.651501,-0.003032,-0.547009,2.373971,-1.957740,0.999630,-0.004418,0.020794,-0.016981
558,-0.408055,-0.120505,9.929977,-0.248541,-0.387532,-0.082384,-0.578916,2.351741,-1.960130,0.999632,-0.004699,0.020604,-0.016997
559,-0.406661,-0.100749,9.921883,-0.138724,-0.222741,0.128192,-0.600448,2.338995,-1.959884,0.999634,-0.004889,0.020496,-0.016992
560,-0.400709,-0.100733,9.907771,-0.121934,-0.143402,0.064103,-0.603151,2.330132,-1.956551,0.999636,-0.004914,0.020419,-0.016963
561,-0.404043,-0.087111,9.900931,-0.083747,-0.198341,-0.175466,-0.594952,2.322770,-1.957874,0.999637,-0.004844,0.020354,-0.016976
562,-0.403170,-0.096761,9.916755,0.055157,-0.215122,-0.154101,-0.582151,2.317010,-1.962752,0.999638,-0.004732,0.020302,-0.017021
563,-0.395443,-0.093231,9.917851,0.013983,-0.035072,-0.132737,-0.573241,2.309931,-1.967172,0.999639,-0.004655,0.020239,-0.017061
564,-0.401937,-0.091436,9.926044,0.065893,-0.045762,-0.212084,-0.563238,2.306023,-1.972552,0.999639,-0.004567,0.020204,-0.017110
565,-0.405493,-0.086958,9.927174,0.064404,-0.111362,-0.186142,-0.550650,2.307512,-1.978737,0.999638,-0.004456,0.020215,-0.017166
566,-0.400908,-0.103588,9.916209,0.133075,0.094651,-0.299060,-0.546335,2.311204,-1.986773,0.999637,-0.004416,0.020247,-0.017237
567,-0.402539,-0.099597,9.908820,0.143731,0.267087,-0.469965,-0.549982,2.319365,-1.999969,0.999633,-0.004445,0.020319,-0.017351
568,-0.402157,-0.088042,9.895665,0.230713,-0.002994,-0.233446,-0.543150,2.325929,-2.011701,0.999630,-0.004382,0.020376,-0.017454
569,-0.394635,-0.083261,9.910010,0.148347,-0.042681,-0.137311,-0.526881,2.321327,-2.017464,0.999631,-0.004240,0.020334,-0.017508
570,-0.390453,-0.086353,9.922626,0.091916,0.077830,-0.410451,-0.514241,2.310471,-2.026243,0.999632,-0.004129,0.020237,-0.017587
571,-0.399112,-0.084769,9.923068,0.049208,-0.126669,-0.408925,-0.507132,2.302003,-2.039689,0.999632,-0.004066,0.020163,-0.017706
572,-0.399409,-0.084113,9.900888,0.069060,-0.515780,-0.186139,-0.501037,2.291277,-2.049339,0.999632,-0.004013,0.020069,-0.017792
573,-0.405718,-0.097836,9.902975,0.294882,-0.605789,-0.260910,-0.499722,2.278788,-2.056809,0.999633,-0.004002,0.019960,-0.017858
574,-0.400750,-0.088115,9.897981,0.401672,-0.570661,-0.273117,-0.495992,2.268535,-2.065846,0.999634,-0.003970,0.019870,-0.017938
575,-0.388386,-0.086907,9.886995,0.470333,-0.643899,0.059533,-0.483388,2.250323,-2.069307,0.999637,-0.003862,0.019709,-0.017971
576,-0.383266,-0.084539,9.895638,0.424550,-0.592034,0.180081,-0.469680,2.224612,-2.065194,0.999642,-0.003747,0.019483,-0.017938
577,-0.385256,-0.071073,9.929914,0.288760,-0.378416,0.013757,-0.452311,2.204940,-2.061625,0.999647,-0.003600,0.019308,-0.017911
578,-0.375792,-0.072625,9.931897,0.200288,-0.488297,0.166350,-0.434746,2.186419,-2.058151,0.999651,-0.003450,0.019144,-0.017884
579,-0.379115,-0.076231,9.907504,0.194193,-0.450160,0.100735,-0.425271,2.167488,-2.053474,0.999655,-0.003371,0.018977,-0.017845
580,-0.383328,-0.078730,9.911288,0.218596,-0.210571,-0.228865,-0.422063,2.161681,-2.055665,0.999656,-0.003344,0.018926,-0.017865
581,-0.378831,-0.081043,9.917763,0.334541,-0.259377,-0.271592,-0.420753,2.161090,-2.064241,0.999655,-0.003331,0.018921,-0.017940
582,-0.381959,-0.082196,9.911201,0.442848,-0.244094,-0.347889,-0.418236,2.159777,-2.074890,0.999653,-0.003307,0.018909,-0.018034
583,-0.381217,-0.064912,9.917802,0.480993,-0.076213,-0.474541,-0.404471,2.163063,-2.088609,0.999651,-0.003184,0.018936,-0.018156
584,-0.369474,-0.061507,9.940300,0.404728,-0.051796,-0.386036,-0.380931,2.161528,-2.102595,0.999649,-0.002977,0.018919,-0.018282
585,-0.369970,-0.059370,9.930767,0.345246,-0.140321,-0.224287,-0.359978,2.152017,-2.112422,0.999650,-0.002794,0.018833,-0.018371
586,-0.376268,-0.049114,9.916530,0.249151,-0.085390,-0.175456,-0.338860,2.147506,-2.118636,0.999650,-0.002610,0.018791,-0.018429
587,-0.376398,-0.053331,9.912922,0.140845,-0.123522,0.006130,-0.321783,2.148796,-2.121038,0.999650,-0.002460,0.018799,-0.018453
588,-0.378426,-0.063199,9.922187,0.034026,-0.057886,0.077849,-0.320069,2.152010,-2.119667,0.999650,-0.002445,0.018827,-0.018441
589,-0.378164,-0.067655,9.916538,0.029410,0.088625,0.062589,-0.330322,2.159252,-2.117755,0.999649,-0.002533,0.018892,-0.018422
590,-0.378756,-0.070444,9.918824,-0.060668,0.074911,-0.048806,-0.345575,2.167913,-2.118098,0.999647,-0.002665,0.018970,-0.018422
591,-0.384448,-0.063473,9.915933,-0.111055,0.030686,-0.056436,-0.358281,2.177646,-2.120234,0.999645,-0.002774,0.019057,-0.018439
592,-0.384565,-0.069892,9.913656,-0.060723,0.026141,0.068689,-0.367819,2.188204,-2.120291,0.999643,-0.002855,0.019151,-0.018437
593,-0.379040,-0.062280,9.905184,-0.036320,0.058200,0.012229,-0.373193,2.194317,-2.119097,0.999642,-0.002901,0.019205,-0.018426
594,-0.376656,-0.045930,9.906754,-0.074429,-0.079137,0.137356,-0.363431,2.192605,-2.116158,0.999643,-0.002817,0.019188,-0.018402
595,-0.379651,-0.048067,9.925865,0.066019,-0.254626,0.349463,-0.343906,2.185173,-2.107265,0.999646,-0.002649,0.019120,-0.018328
596,-0.371700,-0.056141,9.931211,0.098099,-0.372136,0.393716,-0.330099,2.170402,-2.094403,0.999651,-0.002534,0.018989,-0.018218
597,-0.363932,-0.050840,9.919047,0.052340,-0.436263,0.347939,-0.321478,2.145904,-2.081744,0.999657,-0.002464,0.018773,-0.018110
598,-0.363522,-0.061838,9.909440,0.113378,-0.558374,0.442545,-0.318185,2.117981,-2.068466,0.999663,-0.002442,0.018529,-0.017995
599,-0.368302,-0.076847,9.906376,0.111798,-0.529393,0.358618,-0.330170,2.096539,-2.055603,0.999669,-0.002552,0.018343,-0.017882
600,-0.361852,-0.069778,9.900932,-0.016447,-0.331020,0.285371,-0.348174,2.083025,-2.045513,0.999672,-0.002713,0.018228,-0.017791
601,-0.362103,-0.069605,9.892975,0.033865,-0.054824,0.154140,-0.360473,2.077601,-2.038613,0.999674,-0.002822,0.018182,-0.017729
602,-0.368953,-0.063946,9.905610,0.071992,0.012339,0.082421,-0.364999,2.083776,-2.034897,0.999673,-0.002861,0.018237,-0.017696
603,-0.367543,-0.056450,9.908630,0.058269,-0.051717,0.154140,-0.359765,2.092741,-2.030841,0.999672,-0.002815,0.018314,-0.017661
604,-0.361971,-0.054812,9.911380,0.108652,-0.031867,0.140407,-0.348654,2.095306,-2.025622,0.999673,-0.002718,0.018335,-0.017617
605,-0.367749,-0.055834,9.914169,0.194127,-0.037962,0.012230,-0.336625,2.096934,-2.022818,0.999673,-0.002614,0.018347,-0.017595
606,-0.370279,-0.050500,9.935320,0.107173,-0.221051,0.056483,-0.324422,2.099261,-2.021384,0.999674,-0.002507,0.018365,-0.017584
607,-0.361929,-0.065869,9.928036,0.139214,-0.227146,0.032068,-0.321291,2.094390,-2.019902,0.999675,-0.002481,0.018322,-0.017572
608,-0.358877,-0.070346,9.911592,0.203255,-0.066935,-0.286851,-0.329843,2.086236,-2.024639,0.999675,-0.002556,0.018253,-0.017612
609,-0.371297,-0.068293,9.906180,0.190999,0.128397,-0.599668,-0.338861,2.091118,-2.039979,0.999672,-0.002631,0.018297,-0.017744
610,-0.373956,-0.057873,9.905746,0.264222,0.250515,-0.547787,-0.338080,2.110425,-2.059376,0.999666,-0.002618,0.018466,-0.017913
611,-0.372910,-0.072979,9.906283,0.415263,0.224613,-0.471491,-0.335374,2.129860,-2.076715,0.999660,-0.002589,0.018635,-0.018064
612,-0.378464,-0.051738,9.913363,0.399988,0.265847,-0.540159,-0.327184,2.148113,-2.093808,0.999654,-0.002512,0.018794,-0.018214
613,-0.386018,-0.043846,9.931163,0.277951,0.310143,-0.439446,-0.305446,2.171047,-2.109782,0.999649,-0.002316,0.018991,-0.018356
615,-0.382023,-0.033329,9.926270,0.165094,0.133173,-0.202925,-0.279742,2.189455,-2.119822,0.999644,-0.002087,0.019147,-0.018448
616,-0.380627,-0.027213,9.931704,-0.069820,-0.071288,-0.105263,-0.254769,2.194287,-2.124066,0.999643,-0.001868,0.019185,-0.018489
617,-0.379772,-0.013047,9.907826,-0.173483,0.008062,-0.053377,-0.228718,2.193834,-2.125551,0.999644,-0.001640,0.019177,-0.018506
618,-0.383037,-0.028584,9.908405,-0.202394,0.162187,-0.035063,-0.210765,2.198746,-2.126107,0.999643,-0.001483,0.019217,-0.018514
619,-0.384033,-0.031127,9.913575,-0.243562,0.163726,-0.038113,-0.208815,2.208138,-2.126986,0.999641,-0.001464,0.019299,-0.018522
620,-0.375791,-0.043960,9.920021,-0.078767,-0.037702,0.132790,-0.215549,2.208339,-2.125470,0.999641,-0.001523,0.019302,-0.018507
621,-0.372237,-0.057340,9.893847,0.176008,-0.225422,0.059543,-0.229964,2.194721,-2.122866,0.999644,-0.001651,0.019185,-0.018483
622,-0.354509,-0.062950,9.891892,-0.077380,-0.397916,-0.503526,-0.253717,2.164701,-2.131187,0.999647,-0.001862,0.018927,-0.018552
623,-0.361942,-0.058061,9.912593,-0.185791,-0.613144,-0.746151,-0.280535,2.126168,-2.152765,0.999649,-0.002099,0.018596,-0.018737
624,-0.368091,-0.055618,9.912717,-0.191936,-0.646739,-0.817872,-0.300070,2.097719,-2.179200,0.999649,-0.002270,0.018351,-0.018965
625,-0.372872,-0.059471,9.924088,-0.292676,-0.452929,-0.981147,-0.317660,2.084667,-2.209415,0.999646,-0.002420,0.018241,-0.019226
626,-0.365063,-0.062105,9.942551,-0.452926,-0.182816,-1.055919,-0.339670,2.081083,-2.243635,0.999640,-0.002608,0.018214,-0.019521
627,-0.382142,-0.068180,9.952739,-0.225594,0.102578,-0.820926,-0.361423,2.093133,-2.275269,0.999632,-0.002790,0.018324,-0.019793
628,-0.380263,-0.063099,9.924805,-0.166101,0.203362,-0.566096,-0.374372,2.119953,-2.298641,0.999624,-0.002895,0.018561,-0.019994
629,-0.374844,-0.063297,9.931772,-0.199669,0.056920,-0.250230,-0.380337,2.138445,-2.312263,0.999618,-0.002941,0.018723,-0.020111
630,-0.371356,-0.057110,9.924711,-0.121827,-0.117020,-0.146466,-0.379956,2.141980,-2.318650,0.999616,-0.002936,0.018754,-0.020167
631,-0.367848,-0.068619,9.916968,-0.179800,-0.298609,-0.114421,-0.381728,2.133687,-2.322828,0.999617,-0.002953,0.018682,-0.020203
632,-0.351528,-0.054735,9.910364,-0.381206,-0.480234,0.074794,-0.386219,2.108703,-2.323220,0.999621,-0.002996,0.018465,-0.020207
633,-0.347097,-0.071350,9.935909,-0.423920,-0.255993,-0.137309,-0.395665,2.075399,-2.324026,0.999626,-0.003084,0.018176,-0.020214
634,-0.358250,-0.083638,9.940073,-0.376653,0.314663,-0.695800,-0.420675,2.064340,-2.338327,0.999624,-0.003302,0.018085,-0.020335
635,-0.367969,-0.102081,9.942229,-0.349271,0.778559,-0.843818,-0.459110,2.086741,-2.365059,0.999615,-0.003629,0.018288,-0.020561
636,-0.391499,-0.112626,9.929656,-0.170857,1.167745,-0.833140,-0.504652,2.141553,-2.394608,0.999599,-0.004012,0.018775,-0.020809
637,-0.409876,-0.117697,9.920298,0.190667,1.660751,-0.773632,-0.541942,2.227967,-2.423208,0.999578,-0.004316,0.019537,-0.021049
638,-0.411353,-0.096324,9.901543,0.453062,1.847039,-0.357055,-0.551037,2.323758,-2.443352,0.999558,-0.004374,0.020375,-0.021219
639,-0.400056,-0.095488,9.907168,0.579708,1.624300,0.154130,-0.535649,2.395518,-2.447343,0.999545,-0.004226,0.020998,-0.021253
640,-0.409590,-0.086103,9.893718,0.414921,1.682273,0.262471,-0.515217,2.447043,-2.440748,0.999537,-0.004039,0.021444,-0.021197
641,-0.410666,-0.055435,9.905316,0.375324,1.702077,0.341822,-0.478472,2.493737,-2.430175,0.999532,-0.003712,0.021844,-0.021110
642,-0.417237,-0.079439,9.902361,0.421172,1.306811,0.605810,-0.443180,2.528603,-2.413863,0.999529,-0.003401,0.022141,-0.020973
643,-0.439946,-0.080017,9.915205,0.259425,1.050433,0.434906,-0.431116,2.561107,-2.396811,0.999526,-0.003293,0.022422,-0.020825
644,-0.453660,-0.070256,9.917344,0.317412,0.960426,0.434906,-0.420255,2.601714,-2.382521,0.999521,-0.003194,0.022773,-0.020701
645,-0.450709,-0.058444,9.934361,0.463937,0.757496,0.431856,-0.395739,2.635832,-2.367771,0.999518,-0.002977,0.023066,-0.020576
646,-0.452369,-0.058948,9.916498,0.363270,0.824628,0.309783,-0.367555,2.659473,-2.354941,0.999516,-0.002729,0.023267,-0.020469
647,-0.466940,-0.044397,9.923671,-0.016629,1.225949,-0.091533,-0.344980,2.694720,-2.350744,0.999510,-0.002527,0.023570,-0.020436
648,-0.468174,-0.046139,9.893767,-0.198152,1.618129,-0.216655,-0.329914,2.746983,-2.355283,0.999499,-0.002385,0.024024,-0.020477
649,-0.482522,-0.055273,9.874730,-0.532300,2.278876,-0.471483,-0.333964,2.818360,-2.366734,0.999482,-0.002405,0.024647,-0.020574
650,-0.504303,-0.064776,9.890264,-0.922948,3.156333,-0.898742,-0.362598,2.923908,-2.390317,0.999454,-0.002630,0.025573,-0.020770
651,-0.518430,-0.075802,9.900034,-1.228172,3.746925,-1.228344,-0.412080,3.056139,-2.427201,0.999416,-0.003029,0.026737,-0.021076
652,-0.531108,-0.086460,9.891635,-1.617337,4.165059,-1.153577,-0.478210,3.196772,-2.468861,0.999373,-0.003570,0.027977,-0.021418
653,-0.532800,-0.120872,9.918676,-1.869218,4.560239,-0.782783,-0.569111,3.331387,-2.504214,0.999330,-0.004328,0.029169,-0.021698
654,-0.567999,-0.148839,9.943649,-1.381091,5.336874,-0.395208,-0.675411,3.477645,-2.528554,0.999283,-0.005220,0.030466,-0.021875
655,-0.608093,-0.165931,9.905124,-0.697666,6.108983,0.302128,-0.767594,3.665622,-2.535893,0.999226,-0.005986,0.032123,-0.021902
656,-0.652082,-0.163417,9.885160,-0.148487,7.296200,1.046772,-0.826816,3.903620,-2.519347,0.999158,-0.006461,0.034208,-0.021725
657,-0.696953,-0.174886,9.865334,0.890547,9.394429,1.335164,-0.848767,4.206818,-2.486052,0.999070,-0.006604,0.036854,-0.021406
658,-0.767844,-0.158702,9.809543,1.159039,12.884289,0.875856,-0.833026,4.599012,-2.455968,0.998945,-0.006402,0.040269,-0.021121
659,-0.867526,-0.111437,9.800876,-0.508788,17.106583,0.054911,-0.818876,5.117205,-2.447374,0.998757,-0.006184,0.044782,-0.021015
660,-0.992306,-0.108837,9.831744,-0.868876,20.193624,0.120529,-0.833227,5.766456,-2.452718,0.998487,-0.006184,0.050443,-0.021009
661,-1.103744,-0.114152,9.842388,-0.713203,22.293402,0.154104,-0.851391,6.506468,-2.457772,0.998140,-0.006199,0.056894,-0.020990
662,-1.223341,-0.102396,9.836454,-1.161790,23.811800,0.102228,-0.872931,7.305184,-2.463970,0.997720,-0.006231,0.063853,-0.020971
663,-1.363152,-0.117630,9.854439,-1.239576,24.584015,0.257877,-0.902729,8.140545,-2.469232,0.997227,-0.006327,0.071131,-0.020932
664,-1.507737,-0.154813,9.824789,0.559506,24.484924,0.970489,-0.908206,8.987360,-2.461017,0.996678,-0.006217,0.078498,-0.020787
665,-1.632396,-0.111357,9.754704,1.530014,25.247980,0.482197,-0.865167,9.843845,-2.448385,0.996071,-0.005687,0.085937,-0.020638
666,-1.807172,-0.081274,9.690247,2.145014,27.596481,0.399807,-0.787533,10.755447,-2.443604,0.995362,-0.004842,0.093844,-0.020585
667,-1.999889,-0.066805,9.655747,2.407536,30.236471,0.999509,-0.690071,11.761122,-2.428931,0.994509,-0.003817,0.102557,-0.020466
668,-2.213983,-0.024925,9.622002,3.353684,32.652187,2.220266,-0.561559,12.863270,-2.381047,0.993491,-0.002541,0.112093,-0.020097
669,-2.381090,0.013571,9.574896,3.271378,34.114216,2.525474,-0.404927,14.034029,-2.302827,0.992312,-0.001052,0.122209,-0.019512
670,-2.582057,0.011169,9.547276,2.624473,36.011124,2.972593,-0.256595,15.258193,-2.208517,0.990967,0.000340,0.132778,-0.018804
671,-2.780172,-0.030003,9.526303,1.286279,37.831730,3.093153,-0.150152,16.541868,-2.104562,0.989435,0.001345,0.143854,-0.017985
672,-2.993698,-0.023815,9.479516,0.637768,39.614178,2.285940,-0.089107,17.882532,-2.013115,0.987698,0.001962,0.155411,-0.017233
673,-3.208972,-0.043115,9.403595,-0.299163,40.192665,1.094189,-0.069254,19.261116,-1.956965,0.985765,0.002261,0.167280,-0.016735
674,-3.407128,-0.037404,9.278640,-0.242729,39.426807,0.958374,-0.074790,20.634480,-1.925147,0.983694,0.002367,0.179084,-0.016411
675,-3.608972,-0.069108,9.189375,-0.489967,38.692978,0.294583,-0.092552,21.979019,-1.909257,0.981528,0.002383,0.190616,-0.016201
676,-3.830757,-0.079845,9.107532,-0.918807,37.373188,-1.080297,-0.141727,23.287563,-1.933323,0.979285,0.002194,0.201818,-0.016274
677,-4.031975,-0.053988,9.026699,-0.821191,34.658703,-1.545723,-0.206986,24.528135,-1.991134,0.977037,0.001926,0.212416,-0.016595
678,-4.184737,-0.074673,8.948059,-0.146765,32.289047,-1.084907,-0.257580,25.676517,-2.049369,0.974852,0.001782,0.222203,-0.016937
679,-4.344218,-0.105017,8.888119,-0.653419,31.381201,-1.347388,-0.310823,26.760006,-2.107784,0.972700,0.001618,0.231417,-0.017266
680,-4.455860,-0.090942,8.774354,-0.857940,31.007391,-1.207026,-0.378894,27.812737,-2.170592,0.970526,0.001343,0.240352,-0.017591
681,-4.567894,-0.074721,8.652143,-0.510055,31.202726,-0.482224,-0.430917,28.853743,-2.215494,0.968297,0.001175,0.249166,-0.017786
682,-4.684783,-0.137740,8.545692,-0.854953,32.431084,0.135754,-0.477015,29.911470,-2.239065,0.965954,0.001021,0.258100,-0.017802
683,-4.837167,-0.131727,8.438920,-1.811766,33.448860,-0.140471,-0.550370,31.003893,-2.261913,0.963448,0.000648,0.267307,-0.017736
684,-5.055179,-0.165017,8.367200,-2.245190,34.727589,-0.161870,-0.653604,32.140881,-2.294701,0.960745,0.000063,0.276869,-0.017662
685,-5.285198,-0.188353,8.303914,-2.489413,35.348679,-0.494568,-0.779879,33.319965,-2.341343,0.957841,-0.000661,0.286758,-0.017622
686,-5.478127,-0.210893,8.236359,-2.608514,35.055756,-1.153817,-0.928707,34.508442,-2.413783,0.954806,-0.001491,0.296699,-0.017711
687,-5.665782,-0.210908,8.163304,-1.747962,33.499363,-1.057731,-1.072484,35.663754,-2.500694,0.951753,-0.002225,0.306333,-0.017906
688,-5.821747,-0.244211,8.086443,-0.826370,31.111315,-0.854829,-1.184766,36.747719,-2.583992,0.948802,-0.002702,0.315340,-0.018139
689,-5.962471,-0.236142,7.992409,-0.591441,28.520296,-1.436253,-1.283176,37.741463,-2.676177,0.946018,-0.003041,0.323573,-0.018475
690,-6.061868,-0.233807,7.880582,0.121117,25.514208,-0.564986,-1.356927,38.635448,-2.759126,0.943453,-0.003207,0.330956,-0.018803
691,-6.135559,-0.195868,7.797456,1.584453,22.299028,1.455317,-1.344399,39.416645,-2.771936,0.941177,-0.002885,0.337377,-0.018814
692,-6.176381,-0.210894,7.689141,2.471001,20.306082,2.720294,-1.240159,40.100601,-2.707121,0.939162,-0.002065,0.342969,-0.018480
693,-6.211281,-0.228373,7.596967,2.197826,19.793243,2.566144,-1.117178,40.733189,-2.621083,0.937273,-0.001178,0.348127,-0.018048
694,-6.248240,-0.226402,7.512422,0.417017,19.603876,1.226332,-1.057381,41.344986,-2.572026,0.935411,-0.000708,0.353116,-0.017741
695,-6.362816,-0.189986,7.456996,-1.023505,19.821930,0.014702,-1.085951,41.955509,-2.577913,0.933518,-0.000793,0.358098,-0.017611
696,-6.490785,-0.202040,7.379750,-1.775827,21.027287,-0.929885,-1.181253,42.598049,-2.631752,0.931488,-0.001261,0.363341,-0.017651
697,-6.621437,-0.192625,7.301200,-2.155820,22.708771,-2.178127,-1.330504,43.299751,-2.738210,0.929230,-0.001974,0.369061,-0.017924
698,-6.723970,-0.117000,7.159742,-2.081048,24.730579,-3.119622,-1.502522,44.075367,-2.886144,0.926688,-0.002701,0.375371,-0.018424
699,-6.816262,-0.085073,6.998809,-0.153751,28.374495,-1.872890,-1.614842,44.959526,-3.015478,0.923745,-0.002957,0.382529,-0.018924
700,-6.924292,-0.113362,6.824115,1.050265,32.935535,-0.803154,-1.637516,45.995258,-3.094161,0.920242,-0.002602,0.390866,-0.019269
701,-7.050685,-0.120026,6.663377,1.741561,37.566807,0.022426,-1.607864,47.196224,-3.138551,0.916096,-0.001891,0.400481,-0.019478
702,-7.217955,-0.146480,6.513993,2.116974,40.954472,1.298141,-1.535441,48.538624,-3.142158,0.911350,-0.000942,0.411170,-0.019487
703,-7.431451,-0.154643,6.394216,2.442015,42.530880,2.962948,-1.406603,49.968048,-3.079202,0.906169,0.000225,0.422480,-0.019169
704,-7.606346,-0.159937,6.262840,3.417084,41.583385,4.853576,-1.186222,51.404781,-2.921726,0.900832,0.001732,0.433770,-0.018482
705,-7.720269,-0.169137,6.138605,4.140358,39.016834,5.770640,-0.875347,52.767185,-2.681540,0.895647,0.003556,0.444404,-0.017567
706,-7.841039,-0.171932,5.983262,3.574203,35.823071,5.369276,-0.547557,54.015953,-2.419686,0.890780,0.005332,0.454098,-0.016642
707,-7.896775,-0.102725,5.810855,2.780685,33.431904,4.351432,-0.257374,55.159050,-2.179966,0.886226,0.006817,0.462932,-0.015821
708,-7.952315,-0.112035,5.660807,2.078723,32.316372,3.860030,-0.014554,56.230793,-1.970410,0.881871,0.007991,0.471181,-0.015105
709,-8.021178,-0.103907,5.477339,0.384893,31.904272,2.437792,0.137405,57.271893,-1.819136,0.877562,0.008660,0.479165,-0.014507
710,-8.137475,-0.136863,5.289973,-1.611085,32.421490,1.519081,0.156112,58.322372,-1.748986,0.873140,0.008626,0.487193,-0.013991
712,-8.306766,-0.085922,5.095666,-3.503299,34.498264,1.055097,0.074416,59.433891,-1.722035,0.868382,0.008013,0.495651,-0.013373
713,-8.469386,-0.104648,4.906222,-4.301410,35.804508,1.601289,-0.040372,60.621307,-1.685978,0.863211,0.007121,0.504638,-0.012523
714,-8.614604,-0.132882,4.673614,-4.342669,36.044197,2.467913,-0.137597,61.853199,-1.612497,0.857749,0.006202,0.513903,-0.011454
715,-8.746293,-0.153047,4.476781,-3.675903,35.571320,3.346731,-0.177577,63.095291,-1.485321,0.852143,0.005461,0.523180,-0.010235
716,-8.847071,-0.075350,4.276545,-3.091522,33.761749,3.139118,-0.145425,64.304558,-1.308104,0.846589,0.005000,0.532148,-0.008989
717,-8.877999,-0.095136,4.091661,-2.127166,30.002041,2.650757,-0.081592,65.418739,-1.131009,0.841385,0.004734,0.540357,-0.007920
718,-8.940643,-0.039087,3.903736,-1.873888,26.697050,2.760572,0.009960,66.412300,-0.949591,0.836676,0.004611,0.547634,-0.006981
719,-8.973927,0.000188,3.750364,-1.211643,25.038527,3.589135,0.197451,67.321808,-0.687482,0.832310,0.004759,0.554257,-0.005949
720,-9.010314,0.035930,3.599595,-0.289980,25.371328,4.318537,0.517104,68.206261,-0.316448,0.828011,0.005285,0.560666,-0.004817
721,-9.035333,0.036064,3.451886,0.947550,27.567286,4.883141,0.962316,69.131027,0.148060,0.823454,0.006182,0.567337,-0.003700
722,-9.091725,0.066507,3.296911,1.515198,31.035866,5.022007,1.513020,70.149300,0.690748,0.818364,0.007342,0.574648,-0.002654
723,-9.174122,0.080500,3.140779,1.821911,35.503929,4.059148,2.106679,71.299812,1.260193,0.812525,0.008529,0.582861,-0.001779
724,-9.275226,0.111940,2.950526,2.305629,39.682083,3.103913,2.704935,72.596344,1.816850,0.805843,0.009637,0.592050,-0.001197
725,-9.400373,0.137119,2.745873,2.238490,42.575417,2.745319,3.354417,74.013611,2.415173,0.798416,0.010688,0.602011,-0.000791
726,-9.506248,0.141409,2.547161,2.221705,43.767330,3.494539,4.157448,75.494095,3.170330,0.790512,0.011747,0.612333,-0.000338
727,-9.582735,0.124227,2.326017,2.612335,43.314281,4.472622,5.233975,76.974884,4.197725,0.782444,0.012947,0.622586,0.000241
728,-9.592238,0.104167,2.092599,2.554336,41.757961,4.115483,6.553737,78.409676,5.464982,0.774467,0.014159,0.632455,0.000791
729,-9.623913,0.131016,1.854210,1.429711,39.513432,2.987733,7.993601,79.773338,6.868918,0.766751,0.015063,0.641766,0.001239
730,-9.637009,0.146604,1.635827,0.640792,37.513035,2.078190,9.541904,81.060661,8.408543,0.759353,0.015569,0.650491,0.001625
731,-9.655047,0.166156,1.415417,-0.099293,36.219135,0.982489,11.259950,82.288734,10.139380,0.752194,0.015727,0.658752,0.001929
732,-9.699676,0.175946,1.203223,-0.480785,35.311287,0.454439,13.319530,83.477425,12.227350,0.745161,0.015623,0.666698,0.002166
733,-9.740830,0.182164,1.003392,-0.380081,34.232536,0.729030,16.165726,84.622467,15.105324,0.738242,0.015476,0.674355,0.002404
734,-9.744671,0.190115,0.833516,-0.262589,33.030170,0.606889,20.401268,85.704536,19.368149,0.731501,0.015384,0.681662,0.002643
735,-9.761872,0.172640,0.642007,-0.164935,31.592796,0.693794,27.005550,86.704674,25.995176,0.724982,0.015304,0.688592,0.002840
736,-9.744416,0.198989,0.448133,-0.183249,30.491123,0.589964,38.412819,87.590919,37.422840,0.718650,0.015242,0.695198,0.003027
737,-9.707134,0.250774,0.259380,-0.418242,29.947950,0.335105,60.099815,88.266182,59.133339,0.712412,0.015192,0.701589,0.003267
738,-9.711023,0.285046,0.092213,-0.544891,30.649933,0.565534,96.069229,88.469795,95.131897,0.706098,0.015182,0.707942,0.003616
739,-9.714458,0.236518,-0.083790,-0.203082,31.760862,0.937864,128.178375,88.029999,127.267044,0.699543,0.015237,0.714417,0.003992
740,-9.693079,0.197997,-0.244304,-0.247332,31.994370,0.505985,145.769897,87.225754,144.880020,0.692802,0.015228,0.720955,0.004248
741,-9.775915,0.187747,-0.404484,-0.270218,29.670416,0.069500,155.028946,86.328430,154.161057,0.686262,0.015071,0.727185,0.004365
742,-9.798720,0.154205,-0.513754,-0.444169,24.744705,0.241838,160.122986,85.503853,159.278564,0.680529,0.014829,0.732558,0.004416
743,-9.788586,0.146441,-0.621523,-0.876001,17.417135,0.302765,162.928726,84.866722,162.114716,0.676176,0.014529,0.736583,0.004493
744,-9.769769,0.193261,-0.702509,-1.431433,10.232964,0.441537,164.319122,84.461723,163.548615,0.673438,0.014203,0.739092,0.004705
745,-9.741686,0.232961,-0.744750,-1.506207,4.608015,1.036573,164.606461,84.334480,163.887558,0.672596,0.013918,0.739862,0.005057
746,-9.678316,0.228577,-0.762870,-1.361252,1.361733,1.533930,164.164093,84.419525,163.493439,0.673196,0.013720,0.739316,0.005453
747,-9.678383,0.270507,-0.791769,-0.770732,0.592117,1.190570,163.372330,84.536072,162.737274,0.674052,0.013737,0.738532,0.005909
748,-9.694842,0.252471,-0.779493,-0.206150,1.716280,1.178361,162.665955,84.615334,162.047684,0.674663,0.013878,0.737969,0.006256
749,-9.725198,0.259075,-0.767166,0.141753,2.413204,0.925005,162.280014,84.664940,161.663223,0.675037,0.013987,0.737624,0.006383
750,-9.769100,0.265189,-0.788341,0.263822,2.098497,0.354257,162.110977,84.696365,161.488373,0.675260,0.014056,0.737418,0.006381
751,-9.762502,0.292070,-0.807203,0.115799,1.371893,-0.083681,161.990738,84.714943,161.363617,0.675396,0.014115,0.737293,0.006383
752,-9.705427,0.272397,-0.814075,-0.348089,0.637738,0.381742,161.809097,84.732658,161.187088,0.675537,0.014145,0.737162,0.006477
753,-9.679933,0.304916,-0.844055,-0.827236,-0.341991,0.535902,161.431854,84.743462,160.829742,0.675671,0.014198,0.737036,0.006775
754,-9.675164,0.313110,-0.850374,-1.027141,-0.900474,0.812204,160.762054,84.743607,160.190979,0.675794,0.014356,0.736915,0.007316
755,-9.679774,0.337266,-0.828101,-1.077510,-1.075968,1.579889,159.739044,84.749878,159.202789,0.676028,0.014663,0.736686,0.008051
756,-9.693766,0.323809,-0.799884,-0.747923,-1.419395,2.100345,158.452499,84.781021,157.945297,0.676476,0.015083,0.736258,0.008830
757,-9.715307,0.322748,-0.775811,-0.212330,-2.180998,1.882162,157.226059,84.855095,156.732178,0.677179,0.015456,0.735597,0.009367
758,-9.722321,0.315653,-0.755798,0.460600,-2.928898,1.570821,156.153946,84.970909,155.652435,0.678100,0.015758,0.734739,0.009574
759,-9.723169,0.305471,-0.727833,1.098440,-3.246498,1.601216,155.233551,85.114807,154.701660,0.679152,0.016030,0.733762,0.009472
760,-9.691150,0.297116,-0.711808,1.464669,-3.571706,0.743469,154.573624,85.274078,153.994354,0.680230,0.016222,0.732763,0.009079
761,-9.709560,0.323616,-0.716422,1.823269,-4.108927,-0.405692,154.196472,85.430908,153.558838,0.681226,0.016342,0.731842,0.008479
762,-9.717192,0.315072,-0.719191,2.412284,-4.261498,-0.887970,154.074509,85.571007,153.363556,0.682066,0.016482,0.731064,0.007714
763,-9.721066,0.302883,-0.670068,3.266809,-3.785384,-1.469443,154.252975,85.714630,153.445312,0.682863,0.016632,0.730326,0.006672
764,-9.728465,0.267878,-0.645779,4.055722,-3.374945,-2.498063,154.974030,85.879250,154.043274,0.683678,0.016681,0.729575,0.005202
765,-9.742374,0.219474,-0.622421,4.885840,-3.220873,-3.204814,156.591568,86.061790,155.511017,0.684453,0.016526,0.728863,0.003199
766,-9.728197,0.195052,-0.591619,5.528272,-2.569375,-3.662881,158.878815,86.247246,157.624451,0.685181,0.016315,0.728190,0.000843
767,-9.757810,0.179987,-0.567660,5.578639,-1.608144,-4.239919,161.514877,86.410568,160.076782,0.685790,0.016154,0.727618,-0.001585
768,-9.778910,0.163289,-0.567762,4.991166,-1.644850,-4.711589,164.374359,86.544411,162.762848,0.686266,0.015970,0.727165,-0.003908
769,-9.769533,0.179925,-0.577874,3.973374,-2.368148,-4.443046,166.816238,86.651047,165.059082,0.686678,0.015858,0.726765,-0.005817
770,-9.761804,0.218362,-0.577944,3.138683,-2.722101,-3.380789,167.802811,86.730377,165.931946,0.687080,0.016123,0.726370,-0.006956
771,-9.751343,0.180518,-0.559229,2.053734,-2.830370,-1.624155,167.531448,86.798996,165.578201,0.687519,0.016640,0.725937,-0.007456
772,-9.711107,0.168936,-0.527503,1.290759,-3.249977,-0.278064,166.573975,86.882843,164.567047,0.688111,0.017171,0.725362,-0.007586
773,-9.695726,0.184931,-0.512078,0.875696,-3.332385,0.578204,164.786758,86.973793,162.744736,0.688821,0.017815,0.724675,-0.007376
774,-9.686812,0.182596,-0.487207,0.767343,-2.892936,1.049932,162.526764,87.052170,160.457733,0.689510,0.018536,0.724005,-0.006989
775,-9.700203,0.159439,-0.466429,0.684937,-2.349740,1.085141,160.646606,87.122673,158.552750,0.690126,0.019104,0.723406,-0.006727
776,-9.712481,0.148886,-0.460722,0.672729,-2.075093,0.854720,159.550537,87.187073,157.432663,0.690626,0.019427,0.722920,-0.006701
777,-9.740711,0.169878,-0.460560,0.655945,-1.801928,0.525100,158.828690,87.234940,156.687439,0.690985,0.019667,0.722570,-0.006750
778,-9.759250,0.158815,-0.443880,0.578125,-1.725600,0.624268,158.202011,87.275520,156.039001,0.691292,0.019879,0.722270,-0.006806
779,-9.784103,0.152930,-0.435159,0.402646,-2.290178,0.712710,157.641251,87.332146,155.460388,0.691685,0.020004,0.721889,-0.006902
780,-9.768014,0.190271,-0.414831,0.247002,-2.816628,0.578423,156.516357,87.404442,154.323441,0.692232,0.020189,0.721359,-0.006866
781,-9.764086,0.207525,-0.387566,0.079145,-2.880764,0.564784,154.541000,87.484558,152.342072,0.692922,0.020505,0.720690,-0.006625
782,-9.753373,0.203953,-0.361455,-0.044460,-2.844228,0.609135,152.261185,87.570618,150.061279,0.693687,0.020801,0.719949,-0.006341
783,-9.760679,0.203869,-0.353273,-0.183324,-2.583371,0.526796,150.172195,87.651978,147.975479,0.694400,0.020998,0.719257,-0.006106
784,-9.758148,0.190735,-0.341026,-0.241309,-2.099690,0.069023,148.793594,87.722992,146.603027,0.694963,0.021021,0.718713,-0.006006
785,-9.775899,0.199013,-0.340162,-0.334390,-1.940991,-0.368937,148.143295,87.785744,145.961670,0.695380,0.020890,0.718313,-0.006028
786,-9.764925,0.197457,-0.326222,-0.299292,-1.983691,-0.266709,147.619476,87.841423,145.447784,0.695743,0.020743,0.717966,-0.006053
787,-9.756854,0.174532,-0.314454,-0.276403,-1.979095,-0.094327,147.191589,87.903236,145.028534,0.696123,0.020558,0.717602,-0.006130
788,-9.737330,0.172021,-0.310841,-0.207733,-1.727288,-0.602546,147.257202,87.967888,145.101288,0.696453,0.020279,0.717288,-0.006321
789,-9.728641,0.189727,-0.315785,-0.097864,-1.270964,-0.668195,147.580460,88.008850,145.429153,0.696630,0.020052,0.717121,-0.006492
790,-9.718596,0.169470,-0.310736,0.163072,-0.451442,-0.245531,148.098175,88.018700,145.945419,0.696621,0.019936,0.717132,-0.006627
791,-9.730083,0.185135,-0.319416,0.306512,-0.095785,-0.411865,148.826721,88.004036,146.665817,0.696458,0.019904,0.717290,-0.006758
792,-9.707610,0.185014,-0.331781,0.472840,-0.124629,-0.117328,149.408463,87.968277,147.234406,0.696198,0.019997,0.717539,-0.006828
793,-9.700464,0.213260,-0.322800,0.619329,-0.274034,0.641150,149.024078,87.919914,146.831711,0.695985,0.020340,0.717737,-0.006710
794,-9.703126,0.233855,-0.316148,0.802436,-0.598977,1.558411,147.103958,87.864296,144.887787,0.695927,0.021042,0.717776,-0.006302
795,-9.716582,0.223789,-0.320948,0.924506,-1.226072,2.120106,144.576675,87.813850,142.330933,0.696005,0.021886,0.717680,-0.005821
796,-9.742421,0.207957,-0.317403,1.054209,-1.146663,2.353611,142.483078,87.779739,140.202789,0.696136,0.022624,0.717532,-0.005510
797,-9.794445,0.225002,-0.300553,0.987070,-0.803302,2.023984,140.822418,87.758682,138.506500,0.696286,0.023238,0.717369,-0.005336
798,-9.816275,0.216213,-0.299362,0.813116,-0.824663,1.720262,139.569778,87.751534,137.222260,0.696448,0.023694,0.717197,-0.005270
799,-9.822551,0.236922,-0.283015,0.607118,-0.685822,0.815311,138.716263,87.761826,136.343826,0.696634,0.023960,0.717007,-0.005312
800,-9.815471,0.235782,-0.265290,0.355340,-0.470732,0.181993,138.091080,87.791939,135.702057,0.696874,0.024048,0.716770,-0.005427
801,-9.768435,0.249194,-0.273506,0.106614,-0.507412,-0.483349,137.829346,87.827682,135.432648,0.697082,0.023990,0.716568,-0.005582
802,-9.740095,0.286812,-0.280671,0.066938,-0.493679,-0.817456,137.541534,87.840424,135.142258,0.697185,0.024001,0.716467,-0.005602
803,-9.715643,0.273233,-0.275375,0.115765,-0.505863,-0.463315,137.045502,87.836258,134.643661,0.697246,0.024118,0.716405,-0.005516
804,-9.713105,0.242871,-0.280440,-0.056665,-0.592807,0.107419,136.797241,87.838974,134.394318,0.697298,0.024155,0.716353,-0.005493
805,-9.725986,0.253864,-0.287689,-0.187893,-0.437100,0.386654,136.717209,87.833908,134.317841,0.697289,0.024168,0.716362,-0.005437
806,-9.759004,0.261183,-0.265650,-0.161951,-0.411125,0.726957,136.162949,87.819679,133.768921,0.697317,0.024288,0.716332,-0.005251
807,-9.761439,0.265258,-0.258594,-0.155849,-0.464558,0.624750,135.156860,87.813133,132.767792,0.697457,0.024451,0.716192,-0.005025
808,-9.770872,0.265349,-0.269852,-0.319125,-0.301292,0.208192,134.501068,87.809830,132.119705,0.697555,0.024525,0.716095,-0.004857
809,-9.760309,0.270167,-0.258585,-0.262665,-0.139540,-0.234315,134.320236,87.811790,131.948502,0.697595,0.024485,0.716058,-0.004778
810,-9.752865,0.298391,-0.253696,-0.270297,-0.333350,-0.606570,133.928986,87.816360,131.566544,0.697682,0.024469,0.715974,-0.004679
811,-9.733837,0.295416,-0.248403,-0.296242,-0.595841,-0.560676,133.163437,87.822014,130.811035,0.697840,0.024501,0.715821,-0.004522
812,-9.729788,0.241930,-0.252423,-0.453413,-1.035326,-0.113579,132.713425,87.852600,130.373520,0.698048,0.024353,0.715623,-0.004518
813,-9.717950,0.262398,-0.236831,-0.407633,-1.172682,0.034370,132.219193,87.897552,129.892883,0.698320,0.024135,0.715364,-0.004568
815,-9.728423,0.261412,-0.232681,-0.384745,-1.116257,0.334961,131.189331,87.928970,128.875809,0.698626,0.024059,0.715068,-0.004487
816,-9.723582,0.253275,-0.227754,-0.381694,-0.907227,0.492103,130.231842,87.950821,127.930275,0.698881,0.024013,0.714822,-0.004384
817,-9.720338,0.250616,-0.234196,-0.334388,-0.540994,0.534778,129.744629,87.963173,127.454346,0.699013,0.023952,0.714695,-0.004307
818,-9.728250,0.291096,-0.232265,-0.207735,-0.038924,0.313539,129.430374,87.946144,127.148720,0.699000,0.024024,0.714706,-0.004128
819,-9.732849,0.281089,-0.236061,-0.120758,0.324296,0.339550,129.278427,87.908653,127.002258,0.698879,0.024193,0.714820,-0.003892
820,-9.743063,0.275995,-0.237681,-0.033780,0.412852,0.186982,129.590652,87.878647,127.316978,0.698706,0.024278,0.714987,-0.003775
821,-9.740545,0.257432,-0.236146,0.021156,0.292340,0.557742,130.048859,87.863564,127.775032,0.698564,0.024285,0.715126,-0.003769
822,-9.749246,0.283944,-0.232268,0.034890,0.179430,0.713356,130.052780,87.847504,127.777840,0.698499,0.024370,0.715187,-0.003700
823,-9.756833,0.269022,-0.231769,0.044046,0.020722,0.959018,129.638672,87.828857,127.362228,0.698500,0.024529,0.715180,-0.003560
824,-9.757461,0.268965,-0.238287,0.004373,-0.371444,1.244313,129.155197,87.817528,126.877098,0.698544,0.024664,0.715133,-0.003444
825,-9.759841,0.308558,-0.245171,-0.181789,-0.594205,1.578499,128.170151,87.784416,125.894096,0.698601,0.024956,0.715070,-0.003126
826,-9.771320,0.324798,-0.237946,-0.288606,-0.520932,1.720503,126.673607,87.724365,124.404732,0.698667,0.025422,0.714990,-0.002572
827,-9.762351,0.316715,-0.236800,-0.349643,-0.548380,1.841115,125.265175,87.667953,123.006126,0.698748,0.025847,0.714898,-0.002026
828,-9.750825,0.329639,-0.234090,-0.390843,-0.406450,1.900648,124.100395,87.617310,121.852615,0.698815,0.026201,0.714821,-0.001532
829,-9.759119,0.349027,-0.234888,-0.450354,-0.209582,1.746565,123.084320,87.559280,120.849670,0.698839,0.026561,0.714785,-0.001010
830,-9.736787,0.339609,-0.227954,-0.248932,-0.060024,1.685537,122.332191,87.508797,120.108322,0.698839,0.026864,0.714774,-0.000572
831,-9.730931,0.342677,-0.221227,-0.056664,-0.140906,1.421506,121.756386,87.479195,119.537010,0.698875,0.027072,0.714731,-0.000310
832,-9.734787,0.365443,-0.217133,0.074565,-0.348459,1.044575,121.057182,87.459785,118.836845,0.698976,0.027279,0.714625,-0.000115
833,-9.753619,0.387342,-0.212706,0.106607,-0.549918,0.782151,120.089256,87.437767,117.865494,0.699138,0.027547,0.714456,0.000113
834,-9.746111,0.372075,-0.202773,0.205790,-0.284458,0.808113,119.159004,87.423668,116.929863,0.699320,0.027781,0.714269,0.000280
835,-9.766288,0.369399,-0.197349,0.245462,-0.032744,0.537987,118.573326,87.425949,116.336617,0.699471,0.027892,0.714117,0.000297
836,-9.766294,0.394368,-0.204999,0.172217,-0.069409,0.269413,118.189499,87.423668,115.945946,0.699559,0.027996,0.714026,0.000315
837,-9.773634,0.392623,-0.218383,-0.052096,0.066409,0.310640,118.069740,87.406708,115.824112,0.699538,0.028118,0.714042,0.000412
838,-9.762688,0.389172,-0.209018,-0.073457,0.286165,0.248084,118.192551,87.390381,115.948837,0.699460,0.028179,0.714116,0.000498
839,-9.766315,0.394262,-0.203432,-0.082612,0.173235,0.064975,118.211029,87.383263,115.970085,0.699434,0.028198,0.714140,0.000551
840,-9.754124,0.415895,-0.205551,-0.145178,0.109123,-0.403435,118.068558,87.376465,115.831886,0.699450,0.028227,0.714123,0.000633
841,-9.751668,0.409498,-0.211757,-0.213847,0.392938,-0.751271,118.148636,87.370728,115.918541,0.699413,0.028207,0.714161,0.000694
842,-9.727859,0.360385,-0.210247,-0.110083,0.508910,-0.588033,118.788734,87.392403,116.564629,0.699317,0.027969,0.714264,0.000528
843,-9.730963,0.364596,-0.215374,-0.145177,0.275446,-0.699538,119.649879,87.433640,117.430077,0.699231,0.027604,0.714362,0.000217
844,-9.735090,0.384135,-0.222846,-0.313027,0.035894,-0.604968,120.212807,87.457085,118.000687,0.699168,0.027356,0.714434,0.000064
845,-9.748096,0.369526,-0.229434,-0.401528,0.048137,-0.076997,120.567558,87.460480,118.367287,0.699094,0.027216,0.714511,0.000070
846,-9.735769,0.350987,-0.217961,-0.290134,0.402172,0.193041,120.964996,87.464645,118.776115,0.699014,0.027068,0.714596,0.000062
847,-9.742108,0.377387,-0.219945,-0.233675,0.586801,-0.072496,121.301453,87.462326,119.121574,0.698926,0.026979,0.714685,0.000084
848,-9.735580,0.374537,-0.229460,-0.187897,0.653948,-0.051106,121.660240,87.445641,119.487724,0.698787,0.026971,0.714821,0.000169
849,-9.731166,0.369718,-0.231658,-0.151275,0.653965,0.049616,122.127632,87.428307,119.961235,0.698619,0.026959,0.714986,0.000232
850,-9.723804,0.366366,-0.231878,-0.081082,0.647869,-0.098404,122.601509,87.417976,120.439293,0.698472,0.026919,0.715131,0.000244
851,-9.747550,0.373028,-0.246303,-0.195526,0.309131,-0.078569,123.033768,87.409424,120.876442,0.698340,0.026871,0.715261,0.000255
852,-9.749427,0.388057,-0.255771,-0.259613,-0.053991,-0.026647,123.245735,87.390305,121.095924,0.698225,0.026892,0.715373,0.000369
853,-9.745345,0.369463,-0.263125,-0.232145,0.060521,0.142763,123.476410,87.369537,121.334564,0.698098,0.026917,0.715496,0.000492
854,-9.742589,0.376740,-0.261887,-0.230617,0.263537,0.174809,123.860039,87.350182,121.725594,0.697940,0.026912,0.715651,0.000578
855,-9.746322,0.366622,-0.250483,-0.296230,0.081980,0.539496,123.992111,87.334648,121.866127,0.697854,0.026918,0.715734,0.000690
856,-9.741453,0.361361,-0.250503,-0.251978,-0.168280,0.458578,123.876572,87.333908,121.759392,0.697879,0.026885,0.715710,0.000765
857,-9.750856,0.380050,-0.248427,-0.255029,0.123157,0.194571,123.725136,87.333542,121.616318,0.697914,0.026859,0.715677,0.000841
858,-9.744191,0.393955,-0.241952,-0.226039,0.374906,0.234283,123.490234,87.318169,121.389717,0.697918,0.026923,0.715671,0.001009
859,-9.737725,0.388879,-0.253391,-0.171107,0.446608,0.222125,123.378456,87.294701,121.285049,0.697864,0.027018,0.715719,0.001191
860,-9.729316,0.371575,-0.271394,-0.096335,0.570247,0.315199,123.802330,87.273369,121.713326,0.697685,0.027035,0.715893,0.001263
861,-9.735268,0.395426,-0.272763,-0.049029,0.710698,0.348765,124.393372,87.242386,122.306618,0.697430,0.027086,0.716140,0.001342
862,-9.751420,0.384703,-0.264114,-0.000198,0.706147,0.664646,124.682220,87.206764,122.596527,0.697233,0.027214,0.716327,0.001482
863,-9.763084,0.371437,-0.265259,0.027269,0.478771,0.560837,124.865723,87.192368,122.779541,0.697135,0.027261,0.716420,0.001524
864,-9.769574,0.371900,-0.264534,0.095937,0.161348,-0.014518,125.075966,87.203827,122.987740,0.697123,0.027180,0.716435,0.001417
865,-9.754595,0.412816,-0.262671,0.097461,0.030079,-0.405151,125.001358,87.213852,122.910278,0.697177,0.027159,0.716383,0.001361
866,-9.737046,0.401279,-0.262928,0.135606,0.153640,-0.328785,124.753922,87.211464,122.659683,0.697231,0.027232,0.716328,0.001395
867,-9.750338,0.394489,-0.265684,0.167649,0.190235,-0.498129,124.758980,87.215897,122.660248,0.697245,0.027237,0.716314,0.001345
868,-9.752407,0.391922,-0.260895,0.120343,0.120013,-0.452338,124.847511,87.227448,122.744530,0.697265,0.027188,0.716296,0.001244
869,-9.758839,0.395305,-0.258730,0.068460,0.177957,-0.516408,124.850830,87.240257,122.745422,0.697310,0.027138,0.716255,0.001163
870,-9.768876,0.385563,-0.259733,0.036414,0.220643,-0.803270,124.974937,87.258331,122.868492,0.697344,0.027032,0.716226,0.001044
871,-9.775294,0.372122,-0.267169,0.008947,-0.008266,-1.026079,125.386940,87.290649,123.280281,0.697361,0.026800,0.716219,0.000810
872,-9.736862,0.374318,-0.274551,-0.055141,-0.107438,-1.119184,125.956009,87.324745,123.850372,0.697349,0.026527,0.716240,0.000549
873,-9.733819,0.375451,-0.287512,-0.039880,0.103194,-1.158848,126.678352,87.342880,124.574570,0.697247,0.026305,0.716348,0.000350
874,-9.724830,0.371691,-0.300716,0.051678,0.255888,-0.932976,127.625870,87.340454,125.522041,0.697020,0.026156,0.716575,0.000200
875,-9.719056,0.368265,-0.307231,0.109667,0.300263,-0.682686,128.606750,87.323944,126.500206,0.696730,0.026085,0.716859,0.000097
876,-9.732865,0.364432,-0.301688,0.120351,0.221011,-0.505639,129.347961,87.306374,127.237686,0.696493,0.026061,0.717090,0.000026
877,-9.739214,0.351074,-0.297073,0.109671,-0.103963,-0.389658,129.775711,87.305138,127.661659,0.696390,0.026015,0.717192,-0.000067
878,-9.735739,0.365590,-0.294513,0.077626,-0.462540,-0.502558,129.821747,87.315109,127.704582,0.696419,0.025978,0.717165,-0.000142
879,-9.741931,0.354068,-0.277367,0.039476,-0.413738,-0.368243,129.513733,87.333321,127.394958,0.696562,0.025956,0.717027,-0.000185
880,-9.746470,0.341549,-0.274408,-0.009356,-0.325292,-0.334684,129.222473,87.363663,127.103271,0.696747,0.025862,0.716850,-0.000282
881,-9.741644,0.348213,-0.283373,-0.038348,-0.175780,-0.476610,129.185242,87.388428,127.067085,0.696854,0.025742,0.716751,-0.000390
882,-9.739165,0.373708,-0.289172,-0.024616,0.010399,-0.407884,129.178604,87.384911,127.061813,0.696841,0.025752,0.716763,-0.000364
883,-9.747066,0.348933,-0.282148,-0.000202,0.228625,-0.098057,129.185989,87.370277,127.069939,0.696782,0.025817,0.716818,-0.000289
884,-9.746674,0.334881,-0.278854,-0.044454,0.097390,-0.047718,129.346817,87.373703,127.231697,0.696759,0.025767,0.716842,-0.000329
885,-9.760333,0.348489,-0.275880,-0.030720,-0.094901,-0.359025,129.401733,87.387909,127.288040,0.696803,0.025680,0.716802,-0.000398
886,-9.749771,0.354059,-0.273894,-0.041404,-0.146815,-0.320852,129.222610,87.399399,127.110397,0.696889,0.025645,0.716720,-0.000414
887,-9.740819,0.337371,-0.271403,0.028788,0.024056,-0.331525,129.129333,87.413208,127.017700,0.696964,0.025591,0.716649,-0.000461
888,-9.748025,0.326780,-0.268376,0.018106,-0.108735,-0.392601,129.260941,87.439369,127.148674,0.697038,0.025446,0.716582,-0.000614
889,-9.740998,0.336991,-0.275382,0.025734,-0.401731,-0.485712,129.348328,87.466728,127.235367,0.697127,0.025304,0.716500,-0.000765
890,-9.729312,0.346084,-0.288687,0.047098,-0.506990,-0.285791,129.319168,87.474541,127.204819,0.697165,0.025278,0.716465,-0.000807
891,-9.732567,0.340195,-0.272947,0.149335,-0.319268,0.048429,129.130234,87.470436,127.012436,0.697189,0.025352,0.716439,-0.000777
892,-9.756893,0.328287,-0.261551,0.094401,-0.546650,0.201025,128.704773,87.478966,126.582764,0.697313,0.025408,0.716316,-0.000772
893,-9.741403,0.364516,-0.265693,0.056251,-0.711475,0.057634,127.939957,87.482231,125.815361,0.697492,0.025533,0.716137,-0.000680
894,-9.744617,0.370282,-0.264560,0.098974,-0.432234,-0.038377,127.076416,87.465340,124.949417,0.697616,0.025773,0.716008,-0.000470
895,-9.746712,0.361948,-0.252167,0.097445,-0.232351,-0.058116,126.431999,87.452164,124.301994,0.697710,0.025960,0.715910,-0.000319
896,-9.735624,0.350859,-0.253747,-0.032261,-0.308670,-0.013825,126.006744,87.452858,123.875748,0.697808,0.026029,0.715811,-0.000262
897,-9.731791,0.357175,-0.259958,-0.010899,-0.253733,-0.125200,125.814529,87.455238,123.684258,0.697860,0.026044,0.715760,-0.000240
898,-9.734736,0.349003,-0.255413,0.037932,0.109453,-0.172494,125.879303,87.455475,123.748428,0.697847,0.026035,0.715774,-0.000254
899,-9.734102,0.349634,-0.249981,0.056243,0.236102,-0.097728,126.052597,87.457550,123.920403,0.697815,0.026006,0.715805,-0.000300
900,-9.740730,0.343399,-0.258280,0.013517,0.077407,-0.033654,126.235779,87.459709,124.102417,0.697782,0.025974,0.715839,-0.000346
901,-9.743206,0.348070,-0.265928,0.042512,0.033182,-0.012305,126.485260,87.457550,124.350861,0.697718,0.025952,0.715902,-0.000382
902,-9.745397,0.353073,-0.260075,0.066927,0.173593,0.039586,126.646996,87.448250,124.510696,0.697648,0.025984,0.715969,-0.000373
903,-9.739285,0.345157,-0.260548,0.111179,0.161394,0.097575,126.748199,87.440590,124.608994,0.697597,0.026024,0.716018,-0.000369
904,-9.747823,0.334952,-0.265379,0.100499,0.124783,0.030400,127.009865,87.442047,124.866905,0.697544,0.025998,0.716070,-0.000440
905,-9.738612,0.324964,-0.253982,0.076085,0.085103,-0.047494,127.337494,87.458473,125.191544,0.697533,0.025883,0.716085,-0.000594
906,-9.730217,0.345060,-0.265927,0.008945,-0.159053,-0.503786,127.569717,87.477570,125.422287,0.697554,0.025759,0.716068,-0.000735
907,-9.724963,0.353202,-0.281154,-0.004787,-0.316176,-0.535801,127.796089,87.480438,125.648483,0.697516,0.025709,0.716108,-0.000787
908,-9.740208,0.343502,-0.278516,-0.116179,-0.465647,-0.050520,127.922958,87.474854,125.777184,0.697466,0.025706,0.716156,-0.000769
909,-9.741005,0.348322,-0.269263,-0.265718,-0.740273,0.231805,127.620255,87.470436,125.480286,0.697516,0.025740,0.716106,-0.000662
910,-9.747996,0.370864,-0.272093,-0.290134,-0.952347,0.186103,126.846672,87.458702,124.715515,0.697642,0.025868,0.715980,-0.000425
911,-9.756945,0.371483,-0.258640,-0.303869,-0.769220,0.543276,125.815979,87.437073,123.694435,0.697794,0.026080,0.715824,-0.000095
912,-9.765461,0.356355,-0.251650,-0.335916,-0.494565,0.611995,124.916145,87.422684,122.804962,0.697947,0.026230,0.715669,0.000183
913,-9.755627,0.363302,-0.250403,-0.348123,-0.468634,0.358701,124.315247,87.417824,122.214996,0.698068,0.026279,0.715549,0.000367
914,-9.751466,0.365941,-0.250575,-0.261145,-0.500674,0.279365,123.851616,87.414566,121.761055,0.698166,0.026305,0.715453,0.000513
915,-9.739348,0.357670,-0.251541,-0.174167,-0.314493,0.190852,123.632568,87.414795,121.548828,0.698218,0.026293,0.715402,0.000585
916,-9.739075,0.356619,-0.252859,-0.085661,-0.061159,0.061115,123.756920,87.418129,121.677055,0.698200,0.026234,0.715422,0.000574
918,-9.730378,0.354556,-0.255468,-0.065822,-0.488377,-0.126613,123.970390,87.426788,121.892387,0.698181,0.026144,0.715444,0.000508
919,-9.708672,0.367677,-0.269324,0.069988,-0.640897,-0.421125,124.174034,87.434860,122.095428,0.698162,0.026077,0.715465,0.000431
920,-9.725549,0.378673,-0.265077,0.329397,-0.434807,-0.689640,124.403488,87.433411,122.317787,0.698104,0.026094,0.715521,0.000361
921,-9.744595,0.359466,-0.229709,0.315665,-0.807126,-0.196732,124.125221,87.447792,122.028549,0.698218,0.026129,0.715408,0.000262
922,-9.762063,0.336060,-0.199966,0.086773,-2.034091,-0.076234,122.794533,87.509666,120.690887,0.698737,0.026044,0.714905,0.000090
923,-9.784265,0.352471,-0.172089,-0.163485,-3.116172,-0.581373,120.218895,87.609924,118.115944,0.699647,0.025850,0.714021,-0.000096
924,-9.808207,0.382577,-0.127887,-0.573970,-4.454673,-1.112349,115.914200,87.719643,113.823166,0.700932,0.025665,0.712766,-0.000134
925,-9.809119,0.332315,-0.106216,-1.140096,-6.238663,-1.011590,110.582726,87.831741,108.518486,0.702388,0.025343,0.711343,-0.000125
926,-9.789881,0.364554,-0.108714,-1.240809,-7.909594,-1.487680,104.456352,87.946335,102.428207,0.703937,0.024837,0.709828,-0.000188
927,-9.782403,0.387621,-0.075373,-1.277431,-9.736142,-0.805560,96.181267,88.028404,94.190239,0.705796,0.024400,0.707995,-0.000167
928,-9.777017,0.378312,0.011387,-1.454440,-12.188334,1.141565,85.283936,88.014069,83.332390,0.708113,0.024234,0.705683,0.000154
929,-9.784383,0.358092,0.120837,-1.590249,-15.646151,2.679729,72.439171,87.847778,70.530861,0.711101,0.024366,0.702667,0.000819
930,-9.786824,0.410091,0.259370,-1.646713,-20.155376,3.042938,59.266842,87.489311,57.402809,0.714976,0.024684,0.698711,0.001686
931,-9.810887,0.420841,0.417007,-1.813043,-25.123957,3.828843,47.579670,86.901680,45.761238,0.719877,0.025122,0.693642,0.002689
932,-9.767348,0.410858,0.587368,-1.958014,-29.105303,4.500285,38.514664,86.091194,36.744686,0.725710,0.025639,0.687513,0.003808
933,-9.724106,0.454473,0.750608,-1.973280,-31.276920,3.752612,31.935223,85.128059,30.214231,0.732129,0.026122,0.680647,0.004903
934,-9.688204,0.446582,0.907931,-1.868000,-31.469404,2.718059,27.126589,84.104752,25.451265,0.738697,0.026428,0.673495,0.005781
935,-9.639054,0.470181,1.071928,-1.629963,-30.341936,1.544635,23.522238,83.089050,21.885551,0.745066,0.026530,0.666432,0.006369
936,-9.624279,0.457223,1.244906,-1.442282,-29.563892,0.502433,20.676405,82.101463,19.070089,0.751159,0.026444,0.659558,0.006667
937,-9.641775,0.451754,1.395109,-0.967730,-30.339214,-1.208145,18.174461,81.121193,16.584688,0.757152,0.026129,0.652683,0.006569
938,-9.628106,0.457455,1.559829,-0.186464,-32.880013,-1.681197,15.909763,80.091026,14.311567,0.763353,0.025744,0.645439,0.006095
939,-9.589484,0.459056,1.752848,0.462047,-36.472176,-0.716818,14.025420,78.947052,12.392900,0.770045,0.025588,0.637452,0.005534
940,-9.550985,0.486665,1.954119,0.515451,-39.684383,0.172813,12.564676,77.672638,10.885617,0.777281,0.025729,0.628606,0.005128
941,-9.492824,0.516091,2.178878,0.320135,-41.131107,0.867157,11.461544,76.306877,9.738180,0.784841,0.026064,0.619129,0.004948
942,-9.453404,0.539173,2.430185,0.216381,-40.870327,1.755315,10.663499,74.907532,8.902421,0.792411,0.026551,0.609389,0.005006
943,-9.400045,0.536842,2.670356,-0.189506,-39.974773,2.002585,10.069258,73.518158,8.281393,0.799777,0.027079,0.599663,0.005244
944,-9.354565,0.523190,2.894022,-0.505367,-39.036491,1.442621,9.537789,72.160110,7.735569,0.806865,0.027450,0.590072,0.005478
945,-9.333073,0.484816,3.126468,-0.812082,-39.013760,1.419745,9.017321,70.822365,7.211456,0.813749,0.027613,0.580533,0.005638
946,-9.260163,0.486434,3.361923,-0.735799,-40.021030,1.030620,8.511749,69.468147,6.705687,0.820610,0.027652,0.570791,0.005720
947,-9.165543,0.492327,3.583543,-1.071518,-41.748547,0.464485,8.006222,68.066727,6.200506,0.827593,0.027573,0.560622,0.005696
948,-9.051557,0.476942,3.787850,-1.372143,-42.858063,0.110449,7.496407,66.619911,5.697955,0.834678,0.027327,0.550031,0.005593
949,-8.928785,0.512044,3.981474,-1.596466,-42.876522,-0.531975,7.005409,65.159416,5.218370,0.841695,0.026961,0.539253,0.005424
950,-8.789631,0.545338,4.171303,-1.416403,-42.292217,-1.049238,6.557876,63.714149,4.776536,0.848498,0.026581,0.528505,0.005174
951,-8.681374,0.553295,4.367378,-1.472844,-42.002399,-1.340641,6.154244,62.289200,4.371654,0.855068,0.026212,0.517830,0.004853
952,-8.579276,0.522032,4.580543,-1.271405,-42.828014,-1.220047,5.783220,60.859192,3.995874,0.861521,0.025836,0.507043,0.004488
953,-8.495046,0.524878,4.811019,-1.083700,-44.872837,-1.215432,5.444345,59.382065,3.645064,0.868038,0.025501,0.495826,0.004085
954,-8.375936,0.544919,5.058597,-0.915824,-47.846962,-0.075514,5.170055,57.816093,3.354184,0.874769,0.025332,0.483862,0.003801
955,-8.222721,0.519979,5.304489,-0.764732,-50.329758,1.560331,4.984908,56.148903,3.157364,0.881731,0.025403,0.471052,0.003827
956,-8.050019,0.513059,5.527435,-0.891365,-51.106575,2.617837,4.866396,54.421375,3.039733,0.888731,0.025626,0.457692,0.004161
957,-7.875676,0.573403,5.745072,-0.959998,-48.828480,2.503449,4.789423,52.719929,2.970238,0.895420,0.025929,0.444443,0.004656
958,-7.695435,0.580443,5.946311,-0.946217,-44.298103,2.654590,4.741962,51.136292,2.931873,0.901462,0.026275,0.432028,0.005209
959,-7.571104,0.564021,6.123455,-1.167435,-38.820087,1.916100,4.692599,49.730648,2.897327,0.906683,0.026511,0.420939,0.005710
960,-7.470960,0.562904,6.291809,-1.170455,-33.317612,0.843413,4.616760,48.524662,2.836037,0.911064,0.026549,0.411365,0.005997
961,-7.372618,0.547593,6.449077,-0.886610,-29.142660,-0.117894,4.519653,47.492401,2.742248,0.914744,0.026454,0.403121,0.006012
962,-7.286106,0.528283,6.599150,-0.940006,-27.590754,-0.546670,4.405426,46.561794,2.623425,0.918007,0.026255,0.395652,0.005825
963,-7.197062,0.482948,6.731737,-0.930860,-27.984400,-0.770995,4.272536,45.653095,2.486370,0.921140,0.025938,0.388327,0.005525
964,-7.077790,0.499844,6.860028,-0.993439,-29.458412,-1.424110,4.123251,44.712135,2.327989,0.924327,0.025542,0.380713,0.005095
965,-6.943116,0.509027,6.974878,-1.362715,-32.183693,-1.874263,3.958883,43.697453,2.149529,0.927694,0.025078,0.372471,0.004547
966,-6.805251,0.521412,7.072668,-1.583961,-34.258934,-1.654517,3.792200,42.601757,1.971792,0.931245,0.024575,0.363543,0.004004
967,-6.654368,0.537883,7.169841,-1.808239,-35.407928,-1.332518,3.641628,41.454067,1.816218,0.934866,0.024107,0.354164,0.003572
968,-6.499311,0.561611,7.295391,-1.905840,-36.138817,-1.356882,3.507607,40.275528,1.679362,0.938481,0.023688,0.344501,0.003217
969,-6.385729,0.526816,7.436954,-1.872209,-37.226757,-1.057750,3.382261,39.069279,1.552588,0.942076,0.023282,0.334577,0.002896
970,-6.229445,0.514550,7.588157,-1.667684,-38.383358,-0.932585,3.264435,37.827259,1.433280,0.945666,0.022891,0.324323,0.002595
971,-6.053614,0.485718,7.763974,-1.594398,-39.623909,-1.152286,3.148441,36.539150,1.310817,0.949270,0.022501,0.313648,0.002247
972,-5.845608,0.471111,7.904914,-1.386840,-40.360935,-1.500174,3.029048,35.209545,1.176301,0.952864,0.022088,0.302586,0.001787
973,-5.648855,0.488647,8.029548,-1.473779,-39.399616,-1.666471,2.915269,33.879021,1.038951,0.956331,0.021692,0.291476,0.001259
974,-5.446833,0.494899,8.140325,-1.249411,-36.442394,-1.243749,2.821767,32.612415,0.919622,0.959508,0.021378,0.280866,0.000787
975,-5.301620,0.492902,8.258647,-1.211195,-31.992802,-0.885112,2.752459,31.472610,0.828030,0.962264,0.021157,0.271292,0.000439
976,-5.176775,0.497562,8.352362,-1.069210,-27.723236,-0.302163,2.705016,30.487402,0.766070,0.964567,0.021015,0.262998,0.000242
977,-5.078022,0.470729,8.440737,-0.994370,-23.859524,-0.274658,2.669942,29.648653,0.722913,0.966471,0.020908,0.255924,0.000136
978,-4.995513,0.468873,8.516950,-0.759317,-21.797897,-0.227324,2.640115,28.919283,0.684871,0.968084,0.020815,0.249761,0.000033
979,-4.900138,0.433490,8.589859,-0.589894,-22.023611,-0.245615,2.613070,28.226583,0.646586,0.969579,0.020737,0.243897,-0.000089
980,-4.773376,0.418765,8.634851,-0.534934,-24.138424,-0.584362,2.578743,27.494452,0.596396,0.971122,0.020621,0.237689,-0.000293
981,-4.632327,0.416207,8.683208,-0.490661,-26.361593,-0.952104,2.537438,26.685715,0.529241,0.972781,0.020478,0.230818,-0.000617
982,-4.483954,0.409044,8.752434,-0.348729,-28.804518,-1.144363,2.493824,25.793081,0.448730,0.974555,0.020338,0.223220,-0.001041
983,-4.329345,0.389574,8.842287,-0.374659,-30.586740,-1.652493,2.443690,24.823414,0.351873,0.976416,0.020165,0.214949,-0.001585
984,-4.173092,0.422571,8.924578,-0.559276,-30.356285,-2.293374,2.386400,23.823578,0.235903,0.978261,0.019950,0.206402,-0.002284
985,-4.020988,0.414086,9.011106,-0.545507,-28.905096,-2.548190,2.328306,22.850489,0.109066,0.979985,0.019726,0.198067,-0.003092
986,-3.895689,0.402987,9.079802,-0.638556,-27.707197,-2.885406,2.267020,21.925240,-0.025213,0.981559,0.019463,0.190127,-0.003978
987,-3.764240,0.411695,9.134585,-1.001689,-26.280390,-2.706861,2.202221,21.049866,-0.158059,0.982988,0.019145,0.182603,-0.004866
988,-3.642951,0.402741,9.170909,-0.942134,-23.829666,-2.055275,2.143508,20.244520,-0.270978,0.984252,0.018829,0.175674,-0.005615
989,-3.522217,0.375492,9.205337,-0.821549,-22.321947,-1.611222,2.094258,19.509996,-0.361755,0.985362,0.018545,0.169349,-0.006207
990,-3.405890,0.384728,9.226707,-0.897809,-20.567011,-1.060354,2.053186,18.832607,-0.432192,0.986349,0.018292,0.163513,-0.006651
991,-3.296225,0.382718,9.272804,-0.842831,-18.198656,-0.117322,2.024880,18.224045,-0.472234,0.987207,0.018099,0.158267,-0.006867
992,-3.216417,0.376274,9.315479,-0.320919,-15.959994,0.702110,2.017011,17.693050,-0.478393,0.987931,0.018033,0.153690,-0.006831
993,-3.145635,0.365977,9.364507,-0.444481,-14.768107,0.549526,2.017797,17.222303,-0.471558,0.988555,0.018025,0.149632,-0.006704
994,-3.078694,0.374912,9.411612,-1.457659,-14.276612,-0.214956,1.994635,16.781826,-0.479850,0.989126,0.017830,0.145831,-0.006682
995,-3.022545,0.344286,9.456082,-2.269425,-14.754077,-1.099990,1.929831,16.344311,-0.517406,0.989684,0.017311,0.142051,-0.006862
996,-2.937699,0.339900,9.479322,-3.125453,-16.551466,-2.314627,1.823836,15.869633,-0.592919,0.990276,0.016477,0.137946,-0.007321
997,-2.832268,0.325979,9.514526,-4.213417,-18.718153,-3.657440,1.675199,15.324186,-0.713111,0.990934,0.015317,0.133224,-0.008116
998,-2.728932,0.288179,9.552279,-5.107594,-21.742428,-4.585201,1.482753,14.686688,-0.873311,0.991674,0.013807,0.127703,-0.009212
999,-2.594179,0.233631,9.589074,-4.738323,-24.809446,-4.351738,1.275008,13.941160,-1.046540,0.992493,0.012152,0.121246,-0.010415
1000,-2.469645,0.234039,9.623869,-4.605566,-28.175564,-4.759161,1.079238,13.083793,-1.221296,0.993377,0.010570,0.113818,-0.011661
