seq,ax,ay,az,wroll,wpitch,wyaw,roll,pitch,yaw,q0,q1,q2,q3
6086,-0.141167,-0.619476,9.897006,0.008833,-0.056680,-0.239102,-3.581600,0.815591,-0.051048,0.999486,-0.031246,0.007128,-0.000223
6087,-0.145922,-0.707739,9.848859,0.449694,-0.265932,0.182680,-3.587183,0.810943,-0.051838,0.999485,-0.031295,0.007087,-0.000231
6088,-0.149960,-0.708412,9.846859,0.438794,-0.050758,0.071286,-3.598718,0.808201,-0.047658,0.999482,-0.031396,0.007062,-0.000194
6089,-0.152073,-0.705467,9.857780,0.714772,0.286499,-0.156078,-3.605075,0.815352,-0.049677,0.999480,-0.031451,0.007125,-0.000209
6090,-0.151624,-0.706020,9.894663,0.917518,0.201075,-0.122509,-3.602216,0.826515,-0.055166,0.999480,-0.031426,0.007224,-0.000254
6091,-0.159597,-0.688107,9.932194,0.891403,-0.007945,-0.221695,-3.593082,0.833174,-0.061393,0.999482,-0.031346,0.007284,-0.000308
6092,-0.159270,-0.677739,9.949648,0.845488,-0.181864,-0.368183,-3.580890,0.833744,-0.071247,0.999485,-0.031239,0.007292,-0.000394
6093,-0.152706,-0.664252,9.912621,0.657630,-0.606035,-0.453636,-3.576257,0.824172,-0.084393,0.999487,-0.031198,0.007212,-0.000512
6094,-0.155203,-0.662751,9.884013,-0.023147,-0.755525,-0.595547,-3.591542,0.806445,-0.100799,0.999484,-0.031330,0.007062,-0.000659
6095,-0.166504,-0.657347,9.838245,-0.557424,-0.529590,-0.764921,-3.626057,0.795362,-0.122436,0.999475,-0.031630,0.006971,-0.000848
6096,-0.166056,-0.667554,9.825143,-0.662918,-0.219689,-0.754234,-3.671331,0.797872,-0.147265,0.999462,-0.032023,0.007000,-0.001061
6097,-0.155281,-0.677917,9.845124,-0.725701,0.146647,-0.653519,-3.721230,0.808859,-0.170981,0.999447,-0.032457,0.007103,-0.001262
6098,-0.159250,-0.707112,9.892478,-1.021996,0.540426,-0.722183,-3.782447,0.829520,-0.195068,0.999428,-0.032989,0.007291,-0.001462
6099,-0.164673,-0.698070,9.885369,-0.874241,0.651915,-0.740492,-3.845638,0.859404,-0.221173,0.999408,-0.033538,0.007560,-0.001677
6100,-0.162252,-0.715026,9.900757,-0.593697,0.748132,-0.647408,-3.897575,0.891099,-0.246239,0.999390,-0.033988,0.007845,-0.001883
6101,-0.168192,-0.707940,9.898344,-0.607629,0.674953,-0.505495,-3.941845,0.921295,-0.267404,0.999374,-0.034372,0.008115,-0.002056
6102,-0.184772,-0.709508,9.902625,-0.706960,0.479727,-0.397150,-3.981503,0.950695,-0.284026,0.999360,-0.034716,0.008377,-0.002189
6103,-0.183088,-0.709421,9.893619,-0.498023,0.287566,0.034691,-4.015512,0.975615,-0.291179,0.999347,-0.035012,0.008598,-0.002241
6104,-0.173054,-0.728574,9.906859,-0.583605,0.099931,0.451271,-4.048931,0.989086,-0.283819,0.999336,-0.035303,0.008713,-0.002170
6105,-0.176800,-0.723025,9.894848,-0.733278,-0.102994,0.481789,-4.086655,0.992852,-0.268579,0.999325,-0.035634,0.008742,-0.002033
6106,-0.175343,-0.726938,9.880424,-0.649458,-0.220468,0.484841,-4.121992,0.991274,-0.252342,0.999314,-0.035943,0.008724,-0.001889
6107,-0.162076,-0.733141,9.872364,-0.641930,-0.127400,0.341401,-4.155587,0.984875,-0.238400,0.999304,-0.036237,0.008664,-0.001767
6108,-0.167320,-0.725279,9.879360,-0.628266,0.226585,-0.047713,-4.185090,0.983355,-0.233781,0.999295,-0.036495,0.008650,-0.001725
6109,-0.171676,-0.721586,9.869994,-0.254432,0.167072,-0.206411,-4.201857,0.989254,-0.238518,0.999289,-0.036640,0.008703,-0.001764
6110,-0.173031,-0.732055,9.874574,0.110249,-0.307482,-0.062972,-4.206050,0.987710,-0.242854,0.999288,-0.036677,0.008691,-0.001801
6111,-0.168997,-0.754382,9.882893,0.017087,-0.309008,-0.186574,-4.213837,0.977207,-0.246418,0.999286,-0.036745,0.008601,-0.001835
6112,-0.175240,-0.742070,9.879738,-0.056259,-0.168612,-0.191153,-4.226617,0.970066,-0.252318,0.999282,-0.036856,0.008541,-0.001888
6113,-0.170279,-0.732173,9.883540,-0.123437,-0.548547,0.101826,-4.234207,0.960555,-0.253000,0.999281,-0.036922,0.008458,-0.001897
6114,-0.167383,-0.743453,9.910612,-0.454590,-0.530227,0.008744,-4.247087,0.943690,-0.249888,0.999278,-0.037035,0.008310,-0.001874
6115,-0.165968,-0.744861,9.888106,-0.720150,-0.244871,-0.218619,-4.272541,0.931524,-0.252514,0.999270,-0.037257,0.008205,-0.001899
6116,-0.163347,-0.733535,9.869329,-0.646921,-0.312000,-0.124011,-4.297354,0.923306,-0.257548,0.999263,-0.037473,0.008136,-0.001944
6117,-0.155090,-0.739439,9.867806,-0.451589,-0.260123,-0.096544,-4.314020,0.912956,-0.260471,0.999258,-0.037619,0.008047,-0.001971
6118,-0.152396,-0.760684,9.868025,-0.256304,-0.115183,-0.259821,-4.330005,0.903461,-0.265987,0.999253,-0.037758,0.007966,-0.002022
6119,-0.162695,-0.746090,9.852620,-0.013723,0.060302,-0.362059,-4.339388,0.902220,-0.276329,0.999250,-0.037839,0.007959,-0.002112
6120,-0.157967,-0.738801,9.867149,0.369310,0.292265,-0.365108,-4.330814,0.909777,-0.288815,0.999252,-0.037763,0.008029,-0.002219
6121,-0.161272,-0.732356,9.882619,0.560113,0.464708,-0.433773,-4.308052,0.923105,-0.302924,0.999258,-0.037563,0.008149,-0.002339
6122,-0.174093,-0.697985,9.856157,0.714376,0.263331,-0.291856,-4.269526,0.939745,-0.315610,0.999269,-0.037226,0.008298,-0.002447
6123,-0.175377,-0.682248,9.863448,1.097621,-0.015845,0.185768,-4.210860,0.951868,-0.317207,0.999287,-0.036714,0.008403,-0.002461
6124,-0.161354,-0.665914,9.864267,1.657838,-0.592617,0.620662,-4.140347,0.946137,-0.302653,0.999311,-0.036100,0.008346,-0.002341
6125,-0.153291,-0.666179,9.887912,1.574045,-0.911551,0.739686,-4.070216,0.920837,-0.277976,0.999335,-0.035491,0.008117,-0.002139
6126,-0.144044,-0.664452,9.876387,1.432240,-1.108427,0.519952,-4.007061,0.885056,-0.254455,0.999357,-0.034943,0.007796,-0.001949
6127,-0.138688,-0.679416,9.885676,1.467397,-1.306832,0.190351,-3.951095,0.841462,-0.239734,0.999377,-0.034457,0.007411,-0.001838
6128,-0.134329,-0.675830,9.870443,1.491835,-1.552537,-0.311681,-3.899018,0.790109,-0.238450,0.999396,-0.034004,0.006962,-0.001845
6129,-0.130962,-0.672880,9.883753,1.293473,-1.227535,-1.041074,-3.851893,0.739947,-0.257802,0.999412,-0.033592,0.006529,-0.002031
6130,-0.120535,-0.680309,9.891431,1.101190,-0.691951,-2.063445,-3.814564,0.702661,-0.307320,0.999424,-0.033265,0.006218,-0.002476
6131,-0.133479,-0.676567,9.913118,0.448058,-0.136509,-3.468824,-3.794160,0.683351,-0.398467,0.999429,-0.033083,0.006075,-0.003278
6132,-0.125266,-0.674534,9.915192,-1.062647,0.496772,-4.547651,-3.810690,0.683120,-0.532245,0.999420,-0.033220,0.006112,-0.004444
6133,-0.136505,-0.683833,9.931036,-2.716797,1.365052,-5.238894,-3.881336,0.706659,-0.697149,0.999390,-0.033826,0.006369,-0.005871
6134,-0.136687,-0.714092,9.931706,-3.821642,1.851861,-5.048151,-4.001534,0.752904,-0.872009,0.999342,-0.034861,0.006832,-0.007375
6135,-0.157508,-0.726469,9.915934,-4.418366,1.641332,-3.928120,-4.151455,0.806186,-1.025533,0.999281,-0.036155,0.007354,-0.008688
6136,-0.140230,-0.737363,9.891569,-4.412325,1.214106,-2.272489,-4.307688,0.849969,-1.132234,0.999220,-0.037507,0.007783,-0.009594
6137,-0.148352,-0.769144,9.895834,-3.214525,0.860093,-1.112787,-4.441902,0.880368,-1.191231,0.999168,-0.038670,0.008079,-0.010089
6138,-0.141797,-0.787497,9.882861,-1.563526,0.649504,-0.291840,-4.528196,0.902248,-1.216634,0.999135,-0.039419,0.008286,-0.010297
6139,-0.151173,-0.780034,9.860139,-0.509134,0.542672,0.219342,-4.565511,0.919768,-1.219451,0.999121,-0.039742,0.008443,-0.010313
6140,-0.149846,-0.777759,9.865821,0.542241,0.348862,0.413134,-4.563236,0.933445,-1.210098,0.999122,-0.039722,0.008559,-0.010227
6141,-0.167647,-0.785061,9.868889,1.813353,0.017733,0.899904,-4.521803,0.940879,-1.188733,0.999138,-0.039361,0.008613,-0.010041
6142,-0.160613,-0.770806,9.891397,2.735028,-0.392736,1.540794,-4.443301,0.938409,-1.147650,0.999168,-0.038680,0.008571,-0.009690
6143,-0.155600,-0.729492,9.894043,3.317993,-0.734554,2.343431,-4.334036,0.923298,-1.081536,0.999211,-0.037734,0.008408,-0.009126
6144,-0.157650,-0.717330,9.908317,3.862835,-1.181661,2.869875,-4.202450,0.896570,-0.992332,0.999262,-0.036595,0.008136,-0.008367
6145,-0.159435,-0.688821,9.878695,3.844609,-1.387659,2.839358,-4.062315,0.861010,-0.894165,0.999315,-0.035382,0.007785,-0.007532
6146,-0.157439,-0.678822,9.888709,3.025260,-1.268622,2.418205,-3.937759,0.824829,-0.803515,0.999361,-0.034304,0.007434,-0.006760
6147,-0.159053,-0.669695,9.883477,2.193672,-0.844385,2.061141,-3.844770,0.798363,-0.726554,0.999394,-0.033500,0.007176,-0.006103
6148,-0.153737,-0.675335,9.894673,1.270488,-0.403353,1.426359,-3.786170,0.786102,-0.667162,0.999415,-0.032993,0.007048,-0.005592
6149,-0.147503,-0.660480,9.888245,0.568542,0.260456,0.710702,-3.757402,0.789980,-0.631491,0.999425,-0.032744,0.007071,-0.005282
6150,-0.156159,-0.662192,9.900263,0.127529,1.270656,-0.104140,-3.748290,0.820562,-0.623109,0.999426,-0.032664,0.007335,-0.005200
6151,-0.126406,-0.714991,9.772470,0.785096,1.200469,-0.212482,-3.745830,0.862070,-0.631249,0.999424,-0.032640,0.007699,-0.005260
6152,-0.096280,-0.735419,9.730648,0.708589,-1.137326,0.744265,-3.746116,0.854245,-0.622845,0.999424,-0.032643,0.007628,-0.005189
6153,-0.088234,-0.721921,9.758719,0.944886,-3.438553,1.820030,-3.744411,0.765077,-0.575609,0.999432,-0.032636,0.006837,-0.004802
6154,-0.081186,-0.682817,9.840577,1.918279,-4.786077,2.705057,-3.713416,0.617416,-0.491692,0.999452,-0.032376,0.005524,-0.004114
6155,-0.077441,-0.649640,9.899011,2.844452,-5.482031,3.495476,-3.640673,0.437409,-0.377706,0.999483,-0.031753,0.003920,-0.003173
6156,-0.097227,-0.541986,10.038665,3.172738,-4.932721,3.838809,-3.514117,0.269119,-0.244711,0.999525,-0.030656,0.002413,-0.002062
6157,-0.100033,-0.478439,10.080642,3.691948,-2.767321,2.834759,-3.351811,0.160964,-0.125703,0.999571,-0.029244,0.001436,-0.001055
6158,-0.099217,-0.474254,10.026902,3.756337,-0.443190,1.409555,-3.191462,0.129169,-0.051868,0.999611,-0.027847,0.001139,-0.000421
6159,-0.083829,-0.505140,9.943866,3.063760,0.559501,0.698484,-3.054519,0.151965,-0.016807,0.999644,-0.026652,0.001330,-0.000111
6160,-0.041663,-0.507276,9.905473,2.265785,0.205578,0.660342,-2.955472,0.176929,0.005184,0.999666,-0.025789,0.001542,0.000085
6161,-0.005793,-0.534408,9.888112,1.614212,0.010248,0.379570,-2.891134,0.180039,0.022314,0.999681,-0.025227,0.001566,0.000234
6162,0.009192,-0.548632,9.859737,1.725514,0.406910,0.536736,-2.846221,0.178328,0.037180,0.999690,-0.024836,0.001548,0.000363
6163,0.026079,-0.521777,9.859379,2.161829,0.031416,1.285959,-2.793262,0.173044,0.067113,0.999702,-0.024374,0.001495,0.000622
6164,0.020525,-0.516140,9.882161,1.890136,-0.310522,1.406501,-2.735094,0.155025,0.112116,0.999714,-0.023867,0.001329,0.001010
6166,-0.002791,-0.483842,9.871058,2.225784,-0.138181,1.540778,-2.673060,0.139106,0.161505,0.999726,-0.023326,0.001181,0.001437
6167,-0.029161,-0.434638,9.906735,2.352453,-0.655493,1.702525,-2.594382,0.125638,0.216107,0.999741,-0.022640,0.001053,0.001910
6168,-0.065248,-0.402895,9.951919,2.120604,-0.923997,1.299684,-2.508802,0.108543,0.267299,0.999757,-0.021894,0.000896,0.002353
6169,-0.077641,-0.391259,9.969139,1.636998,-0.508824,0.590134,-2.432683,0.100716,0.299842,0.999771,-0.021230,0.000823,0.002635
6170,-0.069760,-0.372025,9.934895,1.260209,-0.122632,0.117103,-2.370638,0.106658,0.312103,0.999782,-0.020689,0.000874,0.002742
6171,-0.033632,-0.384308,9.926903,0.541590,-0.508610,-0.148405,-2.329564,0.105839,0.312043,0.999789,-0.020330,0.000868,0.002741
6172,-0.017884,-0.406630,9.903502,0.050269,-0.276651,-0.351352,-2.316413,0.094545,0.304261,0.999792,-0.020215,0.000771,0.002671
6173,0.010084,-0.419180,9.879335,-0.100825,-0.317884,-0.250642,-2.320642,0.080351,0.294632,0.999791,-0.020252,0.000649,0.002585
6174,0.004162,-0.421522,9.893693,-0.447258,-0.787922,-0.288792,-2.335590,0.055136,0.286390,0.999789,-0.020382,0.000430,0.002509
6175,-0.020292,-0.397307,9.911991,-0.406074,-0.705531,-0.507000,-2.351790,0.028664,0.274153,0.999787,-0.020522,0.000201,0.002397
6176,-0.067211,-0.383727,9.901709,0.105174,-0.032435,-0.918993,-2.349190,0.034950,0.250915,0.999787,-0.020500,0.000260,0.002195
6177,-0.076711,-0.373952,9.894043,0.396758,0.167781,-1.472891,-2.325007,0.074025,0.211010,0.999792,-0.020289,0.000608,0.001854
6178,-0.079827,-0.364186,9.901194,0.451860,0.126912,-2.014581,-2.290801,0.116419,0.152775,0.999799,-0.019991,0.000989,0.001353
6179,-0.057168,-0.359943,9.896774,0.723651,0.114956,-2.307548,-2.250054,0.147688,0.080695,0.999806,-0.019635,0.001275,0.000729
6180,-0.019902,-0.393268,9.922834,0.969404,0.072305,-2.789737,-2.212642,0.156572,-0.004286,0.999813,-0.019308,0.001367,-0.000011
6181,0.029530,-0.437834,9.938898,1.037934,0.188126,-3.004899,-2.195895,0.139216,-0.101005,0.999815,-0.019161,0.001232,-0.000858
6182,0.036509,-0.457365,9.922562,1.251249,0.404525,-2.266362,-2.195577,0.111893,-0.189273,0.999815,-0.019157,0.001008,-0.001633
6183,0.029325,-0.417338,9.924386,1.202147,-0.009262,-1.115825,-2.187563,0.084777,-0.245930,0.999815,-0.019087,0.000781,-0.002132
6184,0.015911,-0.407946,9.939666,0.460391,-0.288698,-0.662634,-2.178640,0.055816,-0.275398,0.999816,-0.019010,0.000533,-0.002394
6185,0.037189,-0.379946,9.941312,-0.006615,-0.574232,0.225448,-2.179718,0.018846,-0.282145,0.999816,-0.019020,0.000211,-0.002459
6186,0.018760,-0.353321,9.937902,-0.522322,-0.600338,0.855649,-2.181857,-0.019877,-0.263392,0.999816,-0.019039,-0.000130,-0.002301
6187,-0.017837,-0.333309,9.937312,-0.668642,-0.495051,0.883116,-2.181501,-0.037231,-0.233740,0.999817,-0.019037,-0.000286,-0.002046
6188,-0.037712,-0.351036,9.936390,-0.848527,-0.195813,0.500115,-2.185850,-0.028998,-0.210275,0.999816,-0.019074,-0.000218,-0.001839
6189,-0.027275,-0.336913,9.930160,-0.706449,0.124816,0.344477,-2.191728,-0.007601,-0.196177,0.999816,-0.019125,-0.000034,-0.001713
6190,-0.076209,-0.313790,9.891622,-0.346073,0.592013,0.275821,-2.178398,0.036485,-0.186307,0.999818,-0.019008,0.000349,-0.001619
6191,-0.075303,-0.295946,9.894488,-0.277056,0.314648,-0.110226,-2.146785,0.094097,-0.184089,0.999823,-0.018732,0.000851,-0.001591
6192,-0.001033,-0.332364,9.943399,-0.989421,-0.455797,-1.034930,-2.138858,0.108796,-0.203035,0.999824,-0.018662,0.000982,-0.001754
6193,0.036773,-0.394431,9.968451,-1.361724,-0.335334,-1.683452,-2.175482,0.083708,-0.247807,0.999817,-0.018982,0.000771,-0.002148
6194,0.043889,-0.438935,9.958923,-1.131410,0.125360,-1.611738,-2.228984,0.061701,-0.302557,0.999807,-0.019449,0.000590,-0.002629
6195,0.061559,-0.477577,9.960177,-1.026301,0.198447,-1.596485,-2.286606,0.046202,-0.356206,0.999796,-0.019952,0.000465,-0.003100
6196,0.046726,-0.509431,9.938774,-0.976188,0.486695,-1.396596,-2.349111,0.037329,-0.406518,0.999784,-0.020497,0.000398,-0.003540
6197,0.005736,-0.483168,9.877718,-0.407247,1.272467,-0.740451,-2.399672,0.055502,-0.443325,0.999773,-0.020938,0.000565,-0.003858
6198,-0.013560,-0.459843,9.836946,-0.025916,1.328916,-0.383385,-2.425123,0.096852,-0.463871,0.999768,-0.021158,0.000931,-0.004029
6199,-0.033016,-0.456497,9.819112,0.131146,0.938304,-0.413903,-2.436237,0.137016,-0.478764,0.999765,-0.021253,0.001284,-0.004152
6200,-0.040215,-0.442411,9.839554,-0.081035,0.430211,-0.423056,-2.444812,0.164023,-0.493691,0.999762,-0.021327,0.001523,-0.004277
6201,-0.026233,-0.421663,9.890009,-0.097848,-0.111474,-0.325397,-2.451199,0.170916,-0.506390,0.999761,-0.021382,0.001586,-0.004386
6202,-0.016182,-0.440763,9.944703,-0.407629,-0.387686,-0.427634,-2.461735,0.159818,-0.518578,0.999758,-0.021474,0.001492,-0.004494
6203,-0.021742,-0.428133,9.918182,-0.137562,0.128046,-0.069044,-2.473507,0.151476,-0.526669,0.999756,-0.021577,0.001421,-0.004566
6204,-0.026669,-0.408975,9.925399,-0.247386,-0.082545,0.220882,-2.474717,0.150744,-0.524159,0.999756,-0.021588,0.001414,-0.004545
6205,-0.024593,-0.421263,9.943541,-0.564711,-0.334326,0.260556,-2.480092,0.143808,-0.515821,0.999755,-0.021635,0.001352,-0.004473
6206,-0.035473,-0.416920,9.911520,-0.499046,0.129578,0.356691,-2.491784,0.143441,-0.505380,0.999753,-0.021737,0.001347,-0.004382
6207,-0.052717,-0.390442,9.866560,-0.276137,0.176974,0.576428,-2.489810,0.160397,-0.490027,0.999754,-0.021720,0.001492,-0.004245
6208,-0.051024,-0.391224,9.900454,-0.665059,-0.653006,0.452834,-2.482820,0.168069,-0.472483,0.999756,-0.021659,0.001556,-0.004090
6209,-0.049046,-0.419072,9.890071,-0.794644,-0.445375,0.104928,-2.492951,0.162707,-0.462361,0.999754,-0.021747,0.001507,-0.004003
6210,-0.051468,-0.449337,9.828401,-0.219398,-0.080574,-0.038505,-2.513258,0.166640,-0.460885,0.999750,-0.021925,0.001542,-0.003989
6211,-0.044883,-0.453196,9.824311,-0.132527,-0.773249,0.016432,-2.531754,0.164000,-0.460666,0.999747,-0.022086,0.001520,-0.003987
6212,-0.017119,-0.459521,9.876646,-0.071598,-1.661324,0.021011,-2.548149,0.124994,-0.458284,0.999744,-0.022230,0.001179,-0.003974
6213,-0.001464,-0.496477,9.891718,-0.125196,-1.495073,-0.462711,-2.574300,0.063045,-0.463341,0.999739,-0.022461,0.000641,-0.004030
6214,0.016145,-0.490588,9.903712,0.266722,-1.592846,-0.085814,-2.601285,-0.002423,-0.470191,0.999734,-0.022698,0.000072,-0.004103
6215,0.027611,-0.451048,9.935159,0.257458,-1.832547,0.265143,-2.605534,-0.074968,-0.464626,0.999733,-0.022738,-0.000562,-0.004068
6216,0.032162,-0.456680,9.949715,0.045347,-1.611399,0.008783,-2.601526,-0.145435,-0.457460,0.999733,-0.022706,-0.001178,-0.004020
6217,0.032367,-0.463365,9.924789,-0.034040,-0.996514,0.034721,-2.606046,-0.196385,-0.454750,0.999732,-0.022747,-0.001623,-0.004006
6218,0.035658,-0.432238,9.889590,0.513780,-0.822580,0.658823,-2.596503,-0.228708,-0.441834,0.999734,-0.022664,-0.001908,-0.003900
6219,0.034957,-0.426770,9.874261,0.425370,-0.990425,0.594734,-2.569686,-0.257151,-0.419645,0.999739,-0.022431,-0.002161,-0.003711
6220,0.037211,-0.420415,9.895134,0.152338,-1.291004,0.547431,-2.547230,-0.290890,-0.398984,0.999743,-0.022236,-0.002460,-0.003537
6221,0.051641,-0.443454,9.906536,-0.261138,-1.294041,0.419254,-2.543093,-0.331496,-0.381000,0.999744,-0.022200,-0.002818,-0.003388
6222,0.060537,-0.451503,9.912862,-0.311527,-1.181133,0.376528,-2.556761,-0.373392,-0.365889,0.999741,-0.022320,-0.003186,-0.003265
6223,0.064407,-0.446707,9.922681,-0.551134,-1.202503,0.272765,-2.575508,-0.413403,-0.353273,0.999736,-0.022485,-0.003537,-0.003163
6224,0.079238,-0.476403,9.946397,-0.329953,-0.981261,0.376528,-2.599666,-0.451305,-0.340751,0.999730,-0.022696,-0.003870,-0.003062
6225,0.091575,-0.481481,9.935184,0.394719,-0.470125,1.101341,-2.615872,-0.480284,-0.314912,0.999727,-0.022837,-0.004127,-0.002843
6226,0.087142,-0.434350,9.913183,1.264446,-0.319095,1.916183,-2.594716,-0.495520,-0.264027,0.999731,-0.022651,-0.004271,-0.002401
6227,0.077410,-0.429613,9.901427,1.501011,-0.274838,1.961961,-2.543756,-0.501888,-0.199058,0.999742,-0.022204,-0.004340,-0.001834
6228,0.092313,-0.423279,9.917951,1.704002,-0.297723,2.135917,-2.485687,-0.507998,-0.130450,0.999754,-0.021695,-0.004407,-0.001234
6229,0.090669,-0.380096,9.923243,1.499609,-0.378606,2.001634,-2.423113,-0.517458,-0.061156,0.999766,-0.021146,-0.004503,-0.000629
6230,0.085307,-0.392987,9.908354,0.642132,-0.474738,0.904494,-2.376767,-0.529405,-0.012265,0.999774,-0.020740,-0.004617,-0.000203
6231,0.087141,-0.423484,9.919424,0.164535,-0.416742,0.365842,-2.361427,-0.542097,0.009488,0.999776,-0.020605,-0.004731,-0.000015
6232,0.099347,-0.389663,9.929568,-0.148270,-0.222950,0.277339,-2.360106,-0.552411,0.020628,0.999776,-0.020593,-0.004823,0.000081
6233,0.087931,-0.395472,9.928893,-0.776910,0.384371,-0.648899,-2.370632,-0.549611,0.014283,0.999775,-0.020685,-0.004798,0.000025
6234,0.066314,-0.407020,9.883580,-1.219410,0.773525,-1.153979,-2.401324,-0.526307,-0.016567,0.999770,-0.020954,-0.004589,-0.000241
6235,0.055407,-0.409481,9.894475,-1.234660,0.946033,-1.149398,-2.440776,-0.490014,-0.056150,0.999764,-0.021300,-0.004265,-0.000581
6236,0.055919,-0.412088,9.903287,-1.271263,1.234510,-1.486623,-2.479933,-0.446278,-0.101630,0.999758,-0.021643,-0.003874,-0.000971
6237,0.038836,-0.443995,9.914137,-1.268217,1.017909,-1.726191,-2.522506,-0.401388,-0.156768,0.999751,-0.022016,-0.003472,-0.001445
6238,0.034172,-0.456516,9.900344,-1.079044,0.351169,-1.311135,-2.566325,-0.370193,-0.208327,0.999742,-0.022399,-0.003189,-0.001890
6239,0.039166,-0.451720,9.906931,-0.636560,0.328352,-1.103605,-2.598710,-0.351999,-0.249023,0.999736,-0.022683,-0.003022,-0.002242
6240,0.034633,-0.458867,9.912528,-0.284092,0.438281,-1.227202,-2.616220,-0.333603,-0.288399,0.999732,-0.022836,-0.002853,-0.002583
6241,0.026309,-0.453972,9.902846,0.059230,0.200305,-0.902177,-2.621270,-0.316252,-0.324330,0.999730,-0.022881,-0.002694,-0.002893
6242,0.034551,-0.442533,9.884893,0.698602,0.372797,-0.397092,-2.607285,-0.300254,-0.346404,0.999733,-0.022759,-0.002551,-0.003082
6243,0.044231,-0.451062,9.887017,1.295250,0.479646,-0.275017,-2.572668,-0.282556,-0.358241,0.999740,-0.022456,-0.002395,-0.003181
6244,0.044963,-0.453595,9.922826,1.341017,0.298074,-0.275016,-2.529920,-0.268329,-0.367968,0.999748,-0.022083,-0.002270,-0.003262
6245,0.053576,-0.442441,9.929946,1.342525,0.151572,-0.023240,-2.487349,-0.262504,-0.373252,0.999756,-0.021712,-0.002220,-0.003306
6246,0.067896,-0.431735,9.923794,1.466115,0.134717,-0.021717,-2.441785,-0.266249,-0.374203,0.999765,-0.021314,-0.002253,-0.003314
6247,0.064402,-0.428500,9.913239,1.215847,-0.002714,-0.261291,-2.398914,-0.275988,-0.379009,0.999772,-0.020941,-0.002339,-0.003357
6248,0.046308,-0.409600,9.919374,0.919819,-0.036324,-0.310123,-2.363220,-0.281879,-0.388503,0.999778,-0.020630,-0.002389,-0.003440
6249,0.049525,-0.389303,9.900345,0.820695,-0.240796,-0.061397,-2.326895,-0.286536,-0.394537,0.999785,-0.020313,-0.002430,-0.003493
6250,0.051020,-0.394041,9.901106,0.677324,-0.384239,-0.127012,-2.293952,-0.297720,-0.397294,0.999790,-0.020026,-0.002528,-0.003518
6251,0.041604,-0.395805,9.907567,0.428620,-0.173641,-0.271975,-2.272783,-0.304833,-0.403581,0.999793,-0.019842,-0.002590,-0.003574
6252,0.037404,-0.399523,9.920153,0.294327,-0.182736,-0.322327,-2.262047,-0.303846,-0.413234,0.999795,-0.019748,-0.002580,-0.003658
6253,0.042566,-0.393361,9.921919,0.158503,-0.190303,-0.259762,-2.256539,-0.303080,-0.422671,0.999796,-0.019700,-0.002572,-0.003740
6254,0.054584,-0.395920,9.939375,0.245467,-0.107884,-0.235346,-2.251405,-0.306025,-0.430712,0.999796,-0.019656,-0.002596,-0.003810
6255,0.062748,-0.395426,9.920965,0.584199,-0.043824,-0.101066,-2.240328,-0.312140,-0.436201,0.999798,-0.019559,-0.002649,-0.003859
6256,0.063986,-0.381262,9.912398,0.922957,-0.260552,0.094250,-2.214880,-0.322889,-0.436121,0.999802,-0.019338,-0.002744,-0.003860
6257,0.072796,-0.354480,9.923944,1.710420,-0.259091,0.121714,-2.160673,-0.339133,-0.432257,0.999811,-0.018865,-0.002888,-0.003827
6258,0.072122,-0.341511,9.916189,3.563004,-0.014999,0.019474,-2.059635,-0.350401,-0.429824,0.999827,-0.017984,-0.002990,-0.003805
6259,0.064032,-0.322681,9.901418,5.774149,0.281010,-0.082764,-1.894477,-0.348439,-0.431100,0.999851,-0.016543,-0.002978,-0.003812
6260,0.062490,-0.269372,9.923437,7.953281,0.563300,0.164435,-1.652377,-0.335137,-0.430263,0.999885,-0.014430,-0.002870,-0.003797
6261,0.051884,-0.231112,9.931711,10.195003,0.703690,0.574909,-1.333502,-0.313111,-0.418596,0.999922,-0.011647,-0.002690,-0.003684
6262,0.040647,-0.177132,9.892219,12.332954,0.912766,1.009798,-0.942500,-0.282802,-0.392800,0.999957,-0.008233,-0.002440,-0.003448
6263,0.028314,-0.095938,9.920485,13.471440,1.112702,1.302775,-0.495206,-0.243631,-0.354745,0.999984,-0.004328,-0.002113,-0.003105
6264,0.021374,0.003737,9.947360,14.706103,1.439301,1.505723,-0.003139,-0.194894,-0.308181,0.999995,-0.000032,-0.001701,-0.002689
6265,0.001734,0.104552,9.938454,16.609167,2.115349,1.189856,0.546707,-0.128227,-0.263026,0.999985,0.004768,-0.001130,-0.002290
6266,-0.020264,0.211895,9.971304,18.294054,2.495394,0.793113,1.160277,-0.041166,-0.228845,0.999947,0.010124,-0.000379,-0.001993
6267,-0.053070,0.308868,9.981931,20.601519,2.420746,0.631363,1.840587,0.054851,-0.202873,0.999869,0.016062,0.000450,-0.001778
6269,-0.038805,0.490034,9.970320,22.226961,1.007846,-0.291823,2.594007,0.124552,-0.194798,0.999742,0.022637,0.001048,-0.001724
6270,-0.042343,0.646561,9.945308,22.718746,-0.638568,-0.934240,3.395488,0.138876,-0.214592,0.999558,0.029629,0.001156,-0.001908
6271,-0.040564,0.803920,9.941961,23.035103,-2.362818,-1.028848,4.216761,0.096418,-0.250243,0.999320,0.036792,0.000760,-0.002213
6272,-0.018591,0.974577,9.870142,23.172989,-3.011315,-0.972389,5.053053,0.012456,-0.290433,0.999025,0.044082,-0.000003,-0.002537
6273,0.003918,1.150769,9.857005,22.094790,-2.716816,-0.824373,5.883190,-0.080321,-0.329225,0.998678,0.051316,-0.000847,-0.002833
6274,-0.000873,1.249042,9.843192,21.279037,-1.607459,0.355165,6.679929,-0.149834,-0.344932,0.998296,0.058256,-0.001481,-0.002929
6275,0.004291,1.343225,9.850176,21.291750,-0.469074,1.324121,7.450185,-0.182285,-0.321527,0.997882,0.064965,-0.001770,-0.002697
6276,0.003400,1.452751,9.820502,21.299807,0.658644,1.919224,8.211088,-0.179262,-0.267663,0.997430,0.071590,-0.001728,-0.002218
6277,-0.012676,1.558160,9.843342,21.262022,0.934921,2.103848,8.963928,-0.152602,-0.197477,0.996940,0.078143,-0.001462,-0.001614
6278,-0.015881,1.684537,9.833468,21.508017,0.634416,2.247268,9.715065,-0.126151,-0.121648,0.996407,0.084677,-0.001187,-0.000965
6279,-0.030262,1.798635,9.795224,22.140053,0.729135,2.012257,10.478512,-0.102619,-0.047674,0.995822,0.091314,-0.000930,-0.000333
6280,-0.041348,1.939354,9.777223,22.660690,0.834555,1.771136,11.260815,-0.072921,0.019289,0.995175,0.098111,-0.000617,0.000230
6281,-0.041741,2.068590,9.769081,22.569433,0.424215,1.340800,12.050443,-0.046553,0.074482,0.994475,0.104966,-0.000336,0.000689
6282,-0.019378,2.203062,9.714465,23.488338,0.064193,0.754824,12.853557,-0.034406,0.110514,0.993715,0.111934,-0.000190,0.000992
6283,-0.018077,2.349372,9.696554,24.593418,-0.219569,-0.200418,13.692196,-0.031684,0.119022,0.992869,0.119203,-0.000151,0.001064
6284,-0.020279,2.486380,9.672817,25.390261,-0.898548,-0.586491,14.562455,-0.039461,0.101844,0.991936,0.126740,-0.000229,0.000925
6285,-0.019527,2.634674,9.589580,25.210518,-1.545480,-0.983248,15.443867,-0.064567,0.066155,0.990931,0.134366,-0.000481,0.000648
6286,-0.021774,2.759159,9.521889,24.798836,-1.678167,-0.945118,16.315271,-0.098926,0.020666,0.989881,0.141897,-0.000829,0.000301
6287,-0.037234,2.859367,9.497635,23.115982,-1.504110,-0.546881,17.142773,-0.129952,-0.018281,0.988830,0.149041,-0.001145,0.000011
6288,-0.022408,2.954215,9.456109,20.457954,-1.485684,0.296921,17.885178,-0.161859,-0.037082,0.987844,0.155444,-0.001446,-0.000100
6289,-0.008381,3.070415,9.441512,17.819698,-1.207873,0.789765,18.531513,-0.198379,-0.033752,0.986951,0.161013,-0.001756,-0.000012
6290,-0.005950,3.160142,9.434237,16.699696,-0.992631,1.126966,19.109674,-0.232300,-0.015233,0.986125,0.165991,-0.002021,0.000205
6291,0.001552,3.260293,9.439442,16.417383,-0.925400,1.073529,19.659819,-0.263209,0.008870,0.985316,0.170724,-0.002250,0.000468
6292,0.008247,3.381219,9.438559,17.197132,-0.691846,0.962106,20.219791,-0.289131,0.031676,0.984470,0.175537,-0.002435,0.000715
6293,0.000015,3.473397,9.394211,18.863466,-0.494903,0.753018,20.823704,-0.305051,0.051606,0.983530,0.180723,-0.002537,0.000924
6294,0.002067,3.569421,9.322204,21.158499,-0.427649,0.843005,21.495596,-0.314444,0.070980,0.982453,0.186487,-0.002580,0.001120
6295,0.006385,3.670292,9.271797,22.953033,-0.191019,1.013865,22.236334,-0.321265,0.096004,0.981227,0.192835,-0.002589,0.001363
6296,0.009374,3.799634,9.202020,23.223188,-0.099359,1.254919,23.013237,-0.326643,0.129177,0.979896,0.199483,-0.002568,0.001673
6297,0.012830,3.923212,9.138892,22.968447,-0.228963,1.573795,23.793324,-0.337377,0.170389,0.978515,0.206150,-0.002574,0.002062
6298,0.026929,4.030014,9.094434,22.541254,-0.047294,1.608855,24.559656,-0.352413,0.217021,0.977113,0.212691,-0.002602,0.002505
6299,0.019550,4.144220,9.052582,21.340382,0.100800,1.566092,25.294296,-0.363344,0.265487,0.975728,0.218952,-0.002587,0.002955
6300,0.013241,4.261170,9.034240,20.562159,0.003241,1.508061,25.992237,-0.370766,0.312572,0.974375,0.224892,-0.002539,0.003385
6301,0.015405,4.368819,8.993780,21.700470,-0.237748,1.506484,26.693146,-0.382319,0.356056,0.972979,0.230848,-0.002529,0.003793
6302,0.032469,4.483493,8.935138,22.208578,-0.886176,0.857922,27.421494,-0.404969,0.382822,0.971490,0.237029,-0.002641,0.004083
6303,0.040262,4.613905,8.872193,22.800638,-1.607871,0.055250,28.171867,-0.439621,0.377043,0.969916,0.243386,-0.002920,0.004125
6304,0.046789,4.723288,8.800960,23.076851,-1.862636,-0.652813,28.939352,-0.477084,0.340756,0.968264,0.249876,-0.003288,0.003920
6305,0.046533,4.820495,8.704327,22.240664,-1.874775,-1.339517,29.697319,-0.505667,0.281398,0.966591,0.256274,-0.003636,0.003504
6306,0.049813,4.929359,8.651473,19.707630,-1.621393,-1.875162,30.397457,-0.518612,0.205957,0.965009,0.262172,-0.003896,0.002921
6307,0.038618,4.998460,8.576758,17.751354,-0.801879,-1.737881,31.017685,-0.509750,0.133714,0.963578,0.267389,-0.003974,0.002314
6308,0.016806,5.074331,8.551242,15.262468,0.003937,-1.406830,31.555920,-0.476171,0.082257,0.962313,0.271911,-0.003804,0.001821
6309,0.020045,5.158482,8.543272,13.821835,0.406920,-0.965920,32.021755,-0.430155,0.052556,0.961202,0.275820,-0.003482,0.001476
6310,0.035333,5.246010,8.535995,13.276896,0.522995,-0.462428,32.451481,-0.389604,0.040983,0.960162,0.279422,-0.003165,0.001293
6311,0.028893,5.299733,8.479598,13.940488,0.771801,-0.468581,32.882748,-0.351747,0.039824,0.959105,0.283034,-0.002846,0.001202
6312,0.017704,5.371608,8.452838,14.657486,0.561308,-0.346559,33.337025,-0.313851,0.040810,0.957976,0.286834,-0.002522,0.001127
6313,0.028619,5.453125,8.395968,16.189352,0.135646,0.079129,33.831585,-0.291699,0.043738,0.956730,0.290966,-0.002324,0.001106
6314,0.023516,5.500331,8.302135,18.021856,-0.022998,-0.015512,34.385750,-0.283075,0.045853,0.955312,0.295589,-0.002242,0.001112
6315,0.010349,5.553930,8.212720,18.877771,-0.048872,-0.288698,34.985176,-0.271692,0.041171,0.953753,0.300582,-0.002153,0.001055
6316,0.001791,5.639381,8.155729,18.923416,-0.253263,-0.139214,35.599220,-0.259579,0.032632,0.952129,0.305689,-0.002070,0.000964
6317,0.010638,5.751101,8.113333,18.103870,-0.376784,0.098776,36.201576,-0.256201,0.026137,0.950509,0.310689,-0.002054,0.000911
6318,0.006636,5.839122,8.062203,16.866230,-0.433172,0.121614,36.770523,-0.258828,0.021244,0.948955,0.315405,-0.002085,0.000888
6319,0.012790,5.938219,8.036417,15.749128,-0.614689,0.078839,37.299221,-0.264697,0.013561,0.947489,0.319779,-0.002151,0.000851
6320,0.020087,5.990551,7.993408,14.744909,-0.669567,0.210026,37.788502,-0.276235,0.004508,0.946115,0.323822,-0.002268,0.000818
6321,0.030674,6.046791,7.951172,13.736068,-0.837376,0.992795,38.238529,-0.302124,0.005015,0.944836,0.327535,-0.002477,0.000905
6322,0.046817,6.117275,7.883097,13.888460,-1.069295,1.450557,38.674789,-0.348979,0.017319,0.943581,0.331129,-0.002824,0.001151
6323,0.050492,6.163479,7.805452,14.614632,-0.970094,1.000398,39.129616,-0.398793,0.027909,0.942257,0.334872,-0.003198,0.001395
6324,0.041911,6.228481,7.753570,14.794539,-0.706074,0.644829,39.601402,-0.432407,0.031527,0.940870,0.338748,-0.003457,0.001537
6325,0.045587,6.315895,7.711136,15.500910,-0.673976,0.534921,40.090401,-0.454477,0.032048,0.939415,0.342760,-0.003630,0.001622
6326,0.044305,6.405718,7.643784,16.741402,-0.704435,-0.154847,40.617638,-0.466831,0.022151,0.937827,0.347078,-0.003754,0.001595
6327,0.031854,6.463728,7.601367,18.282509,-0.721143,-0.646259,41.192352,-0.463971,-0.003337,0.936075,0.351776,-0.003800,0.001397
6328,0.036226,6.536024,7.541749,19.936504,-0.847709,-0.522732,41.816559,-0.457159,-0.035023,0.934146,0.356869,-0.003836,0.001138
6329,0.051650,6.592042,7.419950,20.276686,-1.062800,-0.712003,42.475136,-0.456583,-0.071411,0.932080,0.362231,-0.003940,0.000862
6330,0.056658,6.694616,7.361358,19.927168,-1.140576,-1.011125,43.135826,-0.456792,-0.117261,0.929976,0.367597,-0.004083,0.000514
6331,0.065775,6.783786,7.305282,19.988113,-1.262618,-0.757850,43.790276,-0.460370,-0.166061,0.927862,0.372900,-0.004268,0.000154
6332,0.064872,6.852047,7.198462,18.777958,-1.389245,-0.878421,44.425304,-0.468993,-0.216251,0.925781,0.378034,-0.004502,-0.000200
6333,0.066774,6.940281,7.127917,16.951344,-1.541810,-1.377424,45.011482,-0.472994,-0.277214,0.923835,0.382762,-0.004739,-0.000655
6334,0.063137,7.029408,7.118003,16.972591,-2.020922,-1.111940,45.563465,-0.480419,-0.348451,0.921979,0.387205,-0.005043,-0.001180
6335,0.056292,7.090770,7.005910,19.032467,-2.794526,-0.445150,46.149467,-0.510995,-0.423915,0.919986,0.391910,-0.005552,-0.001656
6336,0.073210,7.124886,6.893709,20.796349,-3.468949,-0.606934,46.803509,-0.564042,-0.511482,0.917731,0.397147,-0.006290,-0.002141
6337,0.082239,7.180399,6.800956,22.337437,-3.943486,-1.006752,47.512165,-0.623956,-0.620182,0.915254,0.402805,-0.007164,-0.002760
6338,0.075996,7.275466,6.697471,23.274275,-4.283728,-1.144126,48.263943,-0.682551,-0.745776,0.912587,0.408788,-0.008096,-0.003504
6339,0.099597,7.393989,6.587844,23.289513,-4.416443,-1.179267,49.038952,-0.742033,-0.880084,0.909795,0.414936,-0.009078,-0.004300
6340,0.119259,7.464980,6.516216,24.014299,-4.649887,-1.823232,49.826260,-0.798321,-1.027306,0.906915,0.421160,-0.010094,-0.005196
6341,0.104700,7.513787,6.360029,23.770103,-4.219544,-2.822752,50.619209,-0.827383,-1.190344,0.903971,0.427407,-0.010967,-0.006304
6342,0.112153,7.631640,6.265656,20.756388,-3.319199,-2.928099,51.361580,-0.822873,-1.348234,0.901173,0.433240,-0.011570,-0.007491
6343,0.134382,7.705606,6.213108,17.115479,-3.017035,-1.701290,51.988453,-0.822289,-1.478794,0.898781,0.438150,-0.012105,-0.008454
6344,0.132069,7.761231,6.151118,13.512637,-2.872058,-0.791854,52.484718,-0.846960,-1.581548,0.896867,0.442023,-0.012731,-0.009111
6345,0.142377,7.852046,6.111087,7.073073,-1.846623,-0.341719,52.809818,-0.877530,-1.655208,0.895603,0.444553,-0.013281,-0.009531
6346,0.170189,7.946147,6.178492,1.341477,-1.187429,0.468560,52.924313,-0.911353,-1.693841,0.895155,0.445439,-0.013705,-0.009688
6347,0.185188,7.925272,6.181343,-0.723424,-1.037914,0.631876,52.896095,-0.954247,-1.711746,0.895263,0.445210,-0.014108,-0.009665
6348,0.178574,7.891346,6.174313,-2.489297,-0.773950,0.213812,52.797493,-0.989002,-1.726552,0.895644,0.444432,-0.014428,-0.009658
6349,0.181167,7.862578,6.180814,-3.711959,-0.307027,-0.033365,52.646740,-1.005203,-1.738244,0.896227,0.443249,-0.014587,-0.009706
6350,0.180389,7.824735,6.163295,-3.709290,-0.227684,0.018534,52.477135,-1.012460,-1.744657,0.896882,0.441921,-0.014655,-0.009749
6351,0.167911,7.793412,6.195557,-4.214754,-0.339069,-0.056234,52.299362,-1.017384,-1.751715,0.897565,0.440527,-0.014705,-0.009809
6352,0.157946,7.779650,6.219026,-4.065609,-0.453487,0.100914,52.114056,-1.022193,-1.760866,0.898276,0.439073,-0.014762,-0.009886
6353,0.162273,7.765336,6.224079,-2.878807,-0.418361,0.033745,51.954372,-1.027983,-1.770175,0.898886,0.437819,-0.014829,-0.009957
6354,0.162672,7.730302,6.239471,-2.479365,-0.291681,-0.588857,51.823086,-1.023563,-1.784454,0.899386,0.436787,-0.014838,-0.010103
6355,0.163685,7.727177,6.272876,-2.774235,-0.261136,-0.729267,51.692009,-1.007733,-1.804510,0.899883,0.435758,-0.014778,-0.010338
6356,0.165396,7.701590,6.270678,-1.778168,-0.184818,-0.460722,51.573017,-0.993426,-1.821888,0.900334,0.434824,-0.014721,-0.010544
6357,0.163630,7.703160,6.283897,-2.289690,-0.088666,-0.334084,51.464832,-0.983295,-1.832998,0.900743,0.433974,-0.014673,-0.010683
6358,0.169323,7.707345,6.301102,-2.593664,-0.015410,-0.326460,51.345791,-0.974294,-1.840575,0.901192,0.433038,-0.014620,-0.010792
6359,0.163637,7.690385,6.304773,-1.888983,-0.053548,-0.033486,51.235569,-0.969324,-1.844618,0.901608,0.432171,-0.014586,-0.010857
6360,0.157339,7.671283,6.303017,-1.202594,-0.062689,0.019910,51.150692,-0.968040,-1.845708,0.901928,0.431504,-0.014572,-0.010881
6361,0.153157,7.668711,6.296078,-1.163167,-0.079452,-0.192215,51.081821,-0.963665,-1.848861,0.902187,0.430962,-0.014543,-0.010931
6362,0.154424,7.657607,6.302394,-0.487406,0.025861,-0.326519,51.027561,-0.953621,-1.854542,0.902390,0.430535,-0.014480,-0.011021
6363,0.157509,7.649127,6.313194,-0.333516,-0.065676,-0.190729,50.986496,-0.944455,-1.860024,0.902544,0.430213,-0.014424,-0.011103
6364,0.159852,7.661105,6.322126,-0.751843,-0.119073,-0.205996,50.941544,-0.939604,-1.866137,0.902712,0.429859,-0.014404,-0.011175
6365,0.165203,7.659262,6.327048,-0.816144,-0.033617,-0.378425,50.890114,-0.933415,-1.873837,0.902904,0.429453,-0.014380,-0.011266
6366,0.171471,7.665433,6.326906,-1.115508,-0.148073,-0.143409,50.824253,-0.931657,-1.881122,0.903150,0.428934,-0.014386,-0.011338
6367,0.170921,7.658233,6.330647,-1.222668,-0.413609,0.076362,50.743980,-0.942153,-1.888403,0.903450,0.428298,-0.014488,-0.011366
6368,0.167001,7.648721,6.329153,-1.154315,-0.369373,-0.063995,50.666832,-0.954348,-1.897753,0.903737,0.427687,-0.014612,-0.011404
6369,0.170543,7.666789,6.340382,-0.886006,-0.280879,-0.164688,50.602592,-0.960739,-1.908044,0.903976,0.427178,-0.014694,-0.011470
6370,0.167885,7.659003,6.332639,-0.700029,-0.325138,-0.135682,50.554115,-0.965026,-1.918653,0.904155,0.426793,-0.014763,-0.011544
6372,0.159230,7.652032,6.358407,-0.964208,-0.225940,-0.019722,50.503216,-0.966814,-1.926999,0.904344,0.426390,-0.014803,-0.011609
6373,0.170734,7.649710,6.361031,-1.529020,-0.096225,0.010787,50.435394,-0.968530,-1.930794,0.904595,0.425854,-0.014824,-0.011642
6374,0.180165,7.644650,6.377481,-1.883195,-0.032147,0.125251,50.359341,-0.974165,-1.930672,0.904878,0.425253,-0.014860,-0.011630
6375,0.182894,7.621366,6.385779,-2.142725,-0.151187,0.509808,50.277412,-0.987959,-1.926010,0.905182,0.424604,-0.014943,-0.011552
6376,0.188485,7.612767,6.406024,-2.254258,-0.192409,0.787556,50.187073,-1.012668,-1.916285,0.905517,0.423888,-0.015093,-0.011396
6377,0.203211,7.605483,6.389077,-1.842378,-0.178708,0.712829,50.104179,-1.042247,-1.904748,0.905825,0.423229,-0.015276,-0.011206
6378,0.194672,7.595395,6.401237,-1.265672,-0.085658,0.592320,50.041004,-1.067752,-1.893956,0.906059,0.422727,-0.015432,-0.011035
6379,0.197523,7.593786,6.413223,-1.140640,-0.070417,0.535886,49.989433,-1.087612,-1.883653,0.906249,0.422317,-0.015546,-0.010887
6380,0.196046,7.578229,6.406002,-1.033912,-0.004816,0.314647,49.942505,-1.102145,-1.875292,0.906423,0.421945,-0.015626,-0.010774
6381,0.189304,7.576845,6.409498,-1.297974,0.037906,0.035408,49.894333,-1.107125,-1.870935,0.906600,0.421563,-0.015645,-0.010728
6382,0.181020,7.571609,6.432737,-1.349942,0.019606,-0.213328,49.839817,-1.102423,-1.871913,0.906801,0.421133,-0.015606,-0.010760
6383,0.183997,7.591499,6.439734,-1.319536,-0.055143,-0.280492,49.781956,-1.092757,-1.877420,0.907013,0.420676,-0.015544,-0.010847
6384,0.174505,7.601329,6.457012,-0.915280,-0.193964,-0.230177,49.731091,-1.082247,-1.885830,0.907199,0.420274,-0.015487,-0.010959
6385,0.175864,7.598908,6.456560,-0.799398,-0.346512,0.059698,49.692017,-1.077792,-1.894344,0.907342,0.419964,-0.015479,-0.011048
6386,0.183905,7.591139,6.472269,-0.680471,-0.451773,0.242781,49.656097,-1.085571,-1.901016,0.907472,0.419677,-0.015562,-0.011078
6387,0.192902,7.585123,6.469313,-0.466950,-0.566217,0.407583,49.624084,-1.104883,-1.906682,0.907589,0.419420,-0.015732,-0.011056
6388,0.192750,7.581898,6.457750,-0.441077,-0.663882,0.586125,49.600891,-1.132122,-1.911413,0.907673,0.419231,-0.015963,-0.010997
6389,0.192665,7.563848,6.456345,-0.575413,-0.637936,0.499142,49.577518,-1.159042,-1.916082,0.907757,0.419040,-0.016191,-0.010939
6390,0.205454,7.568790,6.462590,-0.306914,-0.430410,0.139025,49.555252,-1.178754,-1.922584,0.907838,0.418860,-0.016369,-0.010921
6391,0.212176,7.571977,6.467284,-0.093338,-0.380071,0.079536,49.542439,-1.193562,-1.930372,0.907883,0.418755,-0.016513,-0.010931
6392,0.210807,7.577986,6.464835,-0.308520,-0.296161,-0.027260,49.532597,-1.204574,-1.938315,0.907918,0.418674,-0.016629,-0.010955
6393,0.221463,7.582356,6.478394,-0.310068,-0.431992,0.099420,49.519794,-1.217685,-1.946711,0.907964,0.418569,-0.016762,-0.010975
6394,0.223936,7.572598,6.457253,-0.026254,-0.740265,0.534353,49.513466,-1.245347,-1.954695,0.907986,0.418512,-0.017010,-0.010938
6395,0.217922,7.567928,6.454865,-0.197137,-1.021059,0.783104,49.512444,-1.285161,-1.962822,0.907988,0.418496,-0.017355,-0.010857
6396,0.222720,7.574317,6.456744,-0.561805,-0.979861,0.775476,49.503311,-1.326896,-1.971392,0.908019,0.418415,-0.017716,-0.010774
6397,0.230987,7.569449,6.470522,-0.641148,-1.045476,0.923491,49.484119,-1.370283,-1.978680,0.908087,0.418254,-0.018084,-0.010676
6398,0.235297,7.541965,6.455843,-0.679327,-1.028686,0.941799,49.458504,-1.415843,-1.984666,0.908179,0.418042,-0.018465,-0.010561
6399,0.250783,7.542595,6.470703,-0.790774,-0.705194,0.717494,49.427525,-1.456502,-1.988481,0.908290,0.417788,-0.018798,-0.010448
6400,0.258561,7.549860,6.489987,-0.937344,-0.375609,0.555767,49.388973,-1.487382,-1.988104,0.908429,0.417477,-0.019038,-0.010339
6401,0.264713,7.550883,6.486241,-1.028967,-0.320693,0.664129,49.347984,-1.513724,-1.983459,0.908578,0.417148,-0.019226,-0.010213
6402,0.275197,7.558569,6.491715,-1.119021,-0.232217,0.639749,49.309116,-1.541428,-1.976206,0.908719,0.416836,-0.019416,-0.010061
6403,0.282842,7.544569,6.516228,-1.119076,-0.171220,0.459738,49.265022,-1.567310,-1.969164,0.908878,0.416483,-0.019592,-0.009919
6404,0.286070,7.530878,6.496436,-1.163400,-0.343693,0.433850,49.218216,-1.592392,-1.965698,0.909048,0.416107,-0.019774,-0.009808
6405,0.295258,7.529800,6.483470,-1.242746,-0.413937,0.378977,49.178364,-1.620391,-1.966406,0.909191,0.415786,-0.019995,-0.009719
6406,0.306274,7.531404,6.499814,-0.708639,-0.349917,0.354641,49.149811,-1.650597,-1.968147,0.909293,0.415553,-0.020239,-0.009628
6407,0.298742,7.509636,6.503222,0.011591,-0.511724,0.582072,49.137444,-1.682544,-1.968770,0.909336,0.415449,-0.020494,-0.009519
6408,0.294909,7.527825,6.501785,0.188601,-0.610933,0.760633,49.140949,-1.716089,-1.968288,0.909321,0.415470,-0.020758,-0.009393
6409,0.293101,7.545423,6.510387,0.374811,-0.328634,0.519531,49.156071,-1.741681,-1.966349,0.909265,0.415586,-0.020955,-0.009282
6410,0.300115,7.552173,6.507727,0.553411,-0.275214,0.664477,49.179527,-1.760750,-1.961305,0.909179,0.415769,-0.021090,-0.009168
6411,0.301524,7.524184,6.512397,0.529013,-0.418640,0.611056,49.199192,-1.782271,-1.956214,0.909107,0.415922,-0.021244,-0.009046
6412,0.311246,7.541642,6.502531,-0.102732,-0.246206,0.240251,49.205055,-1.799392,-1.955294,0.909085,0.415965,-0.021377,-0.008975
6413,0.314904,7.539484,6.483201,-0.136245,0.005564,-0.083239,49.207855,-1.805119,-1.956832,0.909074,0.415986,-0.021428,-0.008966
6414,0.317573,7.535129,6.502419,-0.337625,0.049805,-0.164103,49.205147,-1.803242,-1.958989,0.909084,0.415965,-0.021421,-0.008991
6415,0.301350,7.525131,6.515283,-0.218639,0.179523,-0.493716,49.191433,-1.790110,-1.963118,0.909134,0.415858,-0.021331,-0.009074
6416,0.301469,7.553278,6.495578,-0.375801,0.377927,-0.556320,49.182793,-1.764497,-1.967562,0.909167,0.415793,-0.021143,-0.009204
6417,0.295470,7.530338,6.493474,0.024058,0.339810,-0.406817,49.184971,-1.738568,-1.969249,0.909160,0.415815,-0.020944,-0.009311
6418,0.296968,7.522998,6.488096,-0.073566,0.295581,-0.493824,49.188461,-1.715847,-1.971176,0.909149,0.415847,-0.020771,-0.009408
6419,0.294014,7.535925,6.497652,-0.024702,0.251342,-0.449588,49.191029,-1.695505,-1.974678,0.909140,0.415870,-0.020622,-0.009509
6420,0.303101,7.535357,6.491312,0.088261,-0.029437,-0.019270,49.197594,-1.688508,-1.977148,0.909117,0.415923,-0.020576,-0.009553
6421,0.299595,7.519353,6.475379,0.089843,-0.302604,0.014328,49.207409,-1.696604,-1.981592,0.909080,0.415999,-0.020657,-0.009557
6422,0.308783,7.518510,6.513385,-0.239775,-0.287377,-0.222151,49.203110,-1.706514,-1.991241,0.909094,0.415961,-0.020771,-0.009598
6423,0.312386,7.525685,6.531268,0.028678,-0.295050,0.203638,49.186481,-1.721148,-1.998395,0.909153,0.415825,-0.020911,-0.009605
6424,0.298102,7.527503,6.513773,0.030115,-0.569738,0.562258,49.176853,-1.744392,-2.000640,0.909187,0.415744,-0.021103,-0.009540
6425,0.296337,7.539243,6.499615,-0.255233,-0.543784,0.293680,49.173306,-1.765067,-2.005363,0.909198,0.415711,-0.021284,-0.009503
6426,0.291323,7.521512,6.524509,-0.270516,-0.194312,0.015922,49.161987,-1.770597,-2.011216,0.909238,0.415619,-0.021348,-0.009532
6427,0.284486,7.542130,6.495537,-0.171334,-0.052340,-0.002459,49.154152,-1.762323,-2.014164,0.909267,0.415558,-0.021292,-0.009587
6428,0.286264,7.548762,6.490252,-0.355863,-0.159090,-0.255843,49.158508,-1.748936,-2.020048,0.909252,0.415594,-0.021208,-0.009681
6429,0.306185,7.525781,6.494764,-0.262697,0.127809,-0.583950,49.158726,-1.733690,-2.029913,0.909251,0.415597,-0.021123,-0.009815
6430,0.311766,7.497477,6.492883,-0.084165,0.278854,-0.641910,49.152981,-1.717902,-2.038146,0.909272,0.415553,-0.021027,-0.009938
6431,0.311976,7.518939,6.516093,-0.256642,-0.053836,-0.383981,49.141678,-1.709757,-2.046320,0.909312,0.415463,-0.020991,-0.010035
6432,0.307936,7.511099,6.504349,-0.116300,-0.230882,-0.148943,49.130795,-1.713317,-2.055575,0.909351,0.415374,-0.021052,-0.010097
6433,0.298408,7.503144,6.507931,0.028622,-0.203435,0.006726,49.124481,-1.719909,-2.062451,0.909373,0.415322,-0.021128,-0.010129
6434,0.295243,7.527495,6.486849,0.179711,-0.214113,0.086070,49.130806,-1.725109,-2.066785,0.909349,0.415370,-0.021186,-0.010144
6435,0.298579,7.545141,6.521813,0.182826,-0.136285,0.173038,49.144505,-1.730779,-2.068605,0.909299,0.415477,-0.021239,-0.010135
6436,0.307605,7.525527,6.487800,0.695587,-0.136295,0.383625,49.165100,-1.742377,-2.066155,0.909224,0.415639,-0.021324,-0.010069
6437,0.309929,7.524682,6.493870,0.610190,-0.227876,0.479783,49.193268,-1.761539,-2.061540,0.909121,0.415859,-0.021461,-0.009958
6438,0.309701,7.537040,6.497693,0.335557,-0.250782,0.440129,49.213032,-1.781592,-2.057687,0.909049,0.416013,-0.021608,-0.009851
6439,0.313557,7.536353,6.505477,0.114310,-0.234009,0.467609,49.221798,-1.800493,-2.053964,0.909016,0.416079,-0.021745,-0.009751
6440,0.315407,7.528618,6.492515,0.120409,-0.310316,0.456940,49.225121,-1.820039,-2.050753,0.909003,0.416102,-0.021889,-0.009654
6441,0.315657,7.542604,6.494776,-0.155762,-0.153150,0.160914,49.226917,-1.833535,-2.049953,0.908996,0.416114,-0.021993,-0.009598
6442,0.325016,7.557168,6.488043,-0.392210,-0.082967,0.167027,49.226265,-1.841835,-2.049635,0.908998,0.416107,-0.022058,-0.009565
6443,0.327931,7.539635,6.485847,-0.138824,-0.060103,0.138058,49.227196,-1.851351,-2.048434,0.908994,0.416113,-0.022129,-0.009521
6444,0.322949,7.527610,6.494220,-0.210519,-0.031126,-0.049614,49.224293,-1.856254,-2.048717,0.909004,0.416089,-0.022169,-0.009506
6445,0.318209,7.534718,6.491707,-0.241031,-0.041804,0.035833,49.217613,-1.856148,-2.049814,0.909028,0.416036,-0.022171,-0.009516
6446,0.303669,7.544979,6.500939,-0.343243,-0.208094,0.186857,49.210991,-1.855009,-2.050644,0.909052,0.415983,-0.022165,-0.009528
6447,0.304530,7.541979,6.502408,-0.355427,-0.124111,0.057086,49.202187,-1.851051,-2.052272,0.909084,0.415914,-0.022138,-0.009557
6448,0.311657,7.535094,6.496890,-0.143301,0.130762,-0.020787,49.196442,-1.843425,-2.051877,0.909106,0.415870,-0.022076,-0.009583
6449,0.321366,7.539903,6.509225,-0.392015,0.107887,-0.062004,49.188885,-1.837161,-2.049814,0.909134,0.415812,-0.022018,-0.009591
6450,0.326302,7.525308,6.522363,-0.701823,0.176543,-0.344285,49.165401,-1.831136,-2.050485,0.909219,0.415627,-0.021971,-0.009623
6451,0.326471,7.502689,6.516033,-0.703451,0.283335,-0.248122,49.129765,-1.823158,-2.050752,0.909349,0.415345,-0.021906,-0.009661
6452,0.321544,7.490753,6.503319,-0.479236,0.181077,-0.184005,49.098354,-1.816843,-2.049239,0.909463,0.415098,-0.021847,-0.009678
6453,0.321334,7.502005,6.515459,-1.149186,0.200897,-0.418974,49.062977,-1.808519,-2.050747,0.909592,0.414818,-0.021784,-0.009726
6454,0.317506,7.491353,6.517102,-0.639593,0.242083,-0.249577,49.025360,-1.798184,-2.052225,0.909728,0.414521,-0.021704,-0.009783
6455,0.320135,7.498573,6.527495,-0.494692,0.095577,-0.080176,48.998951,-1.793801,-2.051344,0.909824,0.414313,-0.021664,-0.009797
6456,0.324769,7.492323,6.519641,-0.349768,0.019247,-0.353277,48.980343,-1.793358,-2.054495,0.909891,0.414164,-0.021670,-0.009827
6457,0.319779,7.467182,6.516114,-0.102617,0.184012,-0.518034,48.967155,-1.786871,-2.061290,0.909939,0.414060,-0.021642,-0.009907
6458,0.315671,7.471974,6.513619,0.106378,0.150418,-0.572936,48.960636,-1.774091,-2.068812,0.909962,0.414009,-0.021567,-0.010014
6459,0.304467,7.488895,6.517594,-0.243075,0.171776,-0.775878,48.956650,-1.754591,-2.079463,0.909977,0.413979,-0.021450,-0.010170
6460,0.288990,7.489302,6.518156,-0.127099,0.354915,-0.782015,48.951569,-1.724002,-2.089922,0.909996,0.413943,-0.021245,-0.010364
6461,0.298154,7.513204,6.532967,-0.003478,0.544156,-0.644712,48.952019,-1.691425,-2.094314,0.909996,0.413952,-0.021002,-0.010517
6462,0.299823,7.542659,6.546666,-0.329971,0.502950,-0.595878,48.953068,-1.665339,-2.094926,0.909993,0.413966,-0.020797,-0.010616
6463,0.292270,7.537892,6.551481,-0.143749,0.393071,-0.254059,48.952286,-1.646799,-2.093176,0.909997,0.413963,-0.020644,-0.010669
6464,0.307621,7.524020,6.539380,0.039405,0.208397,0.248011,48.955551,-1.646723,-2.085830,0.909986,0.413991,-0.020617,-0.010611
6465,0.313438,7.522539,6.527800,0.144755,0.014528,0.574645,48.965611,-1.668450,-2.074232,0.909949,0.414069,-0.020748,-0.010438
6466,0.306663,7.513828,6.515406,0.096009,-0.106092,0.693745,48.979218,-1.698074,-2.061793,0.909900,0.414173,-0.020940,-0.010230
6467,0.312545,7.509833,6.527331,0.291381,-0.249585,0.916591,48.991764,-1.732154,-2.048838,0.909854,0.414268,-0.021165,-0.010001
6469,0.318885,7.496552,6.524585,0.518744,-0.303048,1.009739,49.004742,-1.772763,-2.034718,0.909806,0.414366,-0.021437,-0.009740
6470,0.317681,7.506935,6.531649,0.591964,-0.300040,1.067775,49.019936,-1.813566,-2.019502,0.909750,0.414481,-0.021707,-0.009468
6471,0.319121,7.514128,6.524307,0.524816,-0.322950,1.011341,49.037193,-1.850486,-2.004589,0.909686,0.414614,-0.021948,-0.009213
6472,0.321182,7.514154,6.505547,0.509594,-0.280232,0.964043,49.058533,-1.883120,-1.990743,0.909608,0.414780,-0.022158,-0.008981
6473,0.318342,7.510499,6.506588,0.190725,0.052432,0.707671,49.075481,-1.904266,-1.975536,0.909546,0.414913,-0.022272,-0.008780
6474,0.320091,7.520149,6.500331,0.166361,0.343912,0.594718,49.086929,-1.910936,-1.956518,0.909506,0.415006,-0.022257,-0.008603
6475,0.320886,7.502615,6.487011,0.091653,0.533157,0.362739,49.098015,-1.907537,-1.935258,0.909467,0.415099,-0.022154,-0.008444
6476,0.320491,7.501296,6.499419,-0.073122,0.829218,-0.030987,49.100655,-1.891051,-1.914564,0.909460,0.415127,-0.021949,-0.008339
6477,0.320039,7.508962,6.515299,0.178634,0.902491,-0.038649,49.099079,-1.866012,-1.893411,0.909469,0.415123,-0.021673,-0.008262
6478,0.324760,7.532146,6.505811,0.422796,0.691926,0.121559,49.110146,-1.847443,-1.872463,0.909432,0.415219,-0.021451,-0.008161
6479,0.319091,7.532520,6.524987,0.099331,0.524076,-0.220253,49.121983,-1.832404,-1.858326,0.909391,0.415318,-0.021281,-0.008102
6480,0.315799,7.536934,6.532991,0.207650,0.476781,-0.427788,49.124367,-1.811697,-1.852697,0.909384,0.415342,-0.021096,-0.008132
6481,0.316609,7.544939,6.509971,0.361787,0.260103,-0.113452,49.136078,-1.796296,-1.849384,0.909343,0.415438,-0.020963,-0.008159
6482,0.315060,7.515371,6.513386,-0.028834,0.313502,-0.481192,49.143429,-1.783860,-1.848694,0.909317,0.415499,-0.020862,-0.008197
6483,0.314347,7.492123,6.519332,-0.137267,0.385211,-0.682597,49.129642,-1.763936,-1.852233,0.909368,0.415393,-0.020716,-0.008300
6484,0.325601,7.521586,6.507779,-0.189219,0.115085,-0.232403,49.115902,-1.753954,-1.855648,0.909419,0.415285,-0.020648,-0.008366
6485,0.318372,7.526552,6.505346,-0.340265,-0.127589,-0.050759,49.109688,-1.760027,-1.858972,0.909441,0.415234,-0.020708,-0.008371
6486,0.309626,7.492575,6.513581,-0.247210,-0.075736,-0.238413,49.096825,-1.763869,-1.864590,0.909486,0.415130,-0.020758,-0.008404
6487,0.308762,7.510543,6.505812,-0.328129,-0.181036,-0.061392,49.082035,-1.765006,-1.870933,0.909539,0.415011,-0.020789,-0.008453
6488,0.309065,7.535659,6.501661,-0.311288,-0.194778,0.001179,49.078251,-1.769830,-1.876532,0.909553,0.414979,-0.020847,-0.008481
6489,0.304257,7.503268,6.509603,-0.091510,0.099724,-0.352837,49.077126,-1.766350,-1.881738,0.909556,0.414970,-0.020838,-0.008535
6490,0.308607,7.509057,6.526900,-0.112912,0.241639,-0.418452,49.069019,-1.752653,-1.885714,0.909586,0.414907,-0.020743,-0.008618
6491,0.316291,7.528383,6.506629,-0.022874,0.116491,-0.184962,49.067825,-1.745058,-1.887825,0.909591,0.414899,-0.020691,-0.008662
6492,0.307502,7.527831,6.518401,0.073316,0.134776,-0.238341,49.075588,-1.741567,-1.889493,0.909563,0.414961,-0.020670,-0.008687
6493,0.297858,7.522704,6.527396,-0.006024,0.191236,-0.310062,49.077724,-1.730858,-1.891405,0.909556,0.414980,-0.020592,-0.008740
6494,0.305540,7.523942,6.516928,0.120628,0.049325,0.072945,49.079670,-1.725181,-1.890965,0.909549,0.414996,-0.020545,-0.008757
6495,0.304685,7.503184,6.496235,0.232045,0.053886,0.008876,49.088428,-1.728113,-1.888860,0.909517,0.415066,-0.020562,-0.008728
6496,0.301981,7.488775,6.506945,0.143524,0.185102,-0.250517,49.092621,-1.724892,-1.888426,0.909502,0.415100,-0.020535,-0.008736
6497,0.307839,7.492767,6.512585,0.192285,0.172879,-0.087221,49.089951,-1.720061,-1.887354,0.909512,0.415079,-0.020492,-0.008745
6498,0.316692,7.482483,6.515662,0.253227,0.032452,0.095943,49.085892,-1.725897,-1.884328,0.909527,0.415047,-0.020527,-0.008701
6499,0.307263,7.482631,6.512599,0.276008,0.079715,-0.142050,49.081692,-1.731911,-1.883028,0.909542,0.415012,-0.020570,-0.008669
6500,0.298019,7.504828,6.516837,0.109611,0.134642,-0.174082,49.079533,-1.727278,-1.883520,0.909550,0.414996,-0.020535,-0.008691
6501,0.293893,7.506971,6.535315,-0.046105,0.159071,-0.270231,49.072006,-1.715954,-1.884413,0.909578,0.414938,-0.020448,-0.008740
6502,0.292195,7.505329,6.521309,-0.075172,0.200291,-0.261095,49.061008,-1.701910,-1.885420,0.909618,0.414853,-0.020339,-0.008801
6503,0.293007,7.520095,6.516951,-0.116387,0.246083,-0.291628,49.056210,-1.687679,-1.885788,0.909637,0.414818,-0.020227,-0.008856
6504,0.297496,7.523101,6.518592,-0.262849,0.343739,-0.329774,49.052982,-1.673855,-1.885242,0.909649,0.414795,-0.020115,-0.008903
6505,0.302532,7.504125,6.520535,-0.111785,0.310143,-0.152738,49.046375,-1.665308,-1.882273,0.909674,0.414744,-0.020036,-0.008911
6506,0.295239,7.509525,6.513763,-0.029396,0.160574,0.021252,49.042580,-1.663763,-1.877743,0.909688,0.414715,-0.020007,-0.008881
6507,0.297888,7.517372,6.513551,-0.151443,0.027794,0.024331,49.042728,-1.666653,-1.874967,0.909687,0.414717,-0.020020,-0.008849
6508,0.290292,7.505921,6.511150,-0.191089,0.104074,-0.012273,49.040283,-1.668284,-1.873271,0.909696,0.414697,-0.020027,-0.008830
6509,0.284475,7.505669,6.524422,-0.377262,0.165117,-0.137407,49.029617,-1.662306,-1.871485,0.909735,0.414614,-0.019972,-0.008839
6510,0.280805,7.499797,6.527020,-0.520741,0.160561,-0.343429,49.009586,-1.648982,-1.872496,0.909809,0.414457,-0.019868,-0.008899
6511,0.281764,7.506751,6.520031,-0.604687,0.192625,-0.305303,48.988487,-1.633446,-1.875079,0.909885,0.414292,-0.019753,-0.008979
6512,0.269192,7.516562,6.526167,-0.627551,0.435277,-0.587634,48.971016,-1.609842,-1.877039,0.909950,0.414157,-0.019571,-0.009083
6513,0.275483,7.511741,6.535451,-0.525293,0.558906,-0.750942,48.954376,-1.576665,-1.879262,0.910011,0.414031,-0.019314,-0.009224
6514,0.263708,7.498816,6.533340,-0.387966,0.475003,-0.639576,48.938530,-1.543730,-1.881472,0.910070,0.413910,-0.019059,-0.009363
6515,0.264109,7.516662,6.521014,-0.519153,0.391098,-0.551099,48.928471,-1.515223,-1.883761,0.910107,0.413835,-0.018841,-0.009486
6516,0.272723,7.513944,6.524912,-0.499224,0.407873,-0.613653,48.922562,-1.493398,-1.886772,0.910129,0.413792,-0.018678,-0.009590
6517,0.271207,7.485229,6.533748,-0.346606,0.354431,-0.490015,48.911606,-1.477421,-1.889365,0.910170,0.413707,-0.018559,-0.009670
6518,0.263982,7.493949,6.518775,-0.248934,0.131614,-0.357224,48.903240,-1.467214,-1.892580,0.910200,0.413642,-0.018489,-0.009734
6519,0.269888,7.499536,6.519351,-0.187828,0.088851,-0.248842,48.904339,-1.463864,-1.896663,0.910196,0.413651,-0.018477,-0.009778
6520,0.265207,7.494770,6.533135,-0.103855,0.154423,-0.213699,48.905212,-1.463021,-1.898821,0.910192,0.413657,-0.018478,-0.009798
6521,0.255754,7.508280,6.543898,-0.615024,0.033855,-0.022935,48.895126,-1.461587,-1.899097,0.910229,0.413577,-0.018467,-0.009807
6522,0.254291,7.514101,6.548316,-0.863728,-0.132474,0.233422,48.873180,-1.465703,-1.898098,0.910308,0.413402,-0.018494,-0.009788
6523,0.246307,7.494913,6.555687,-1.634327,-0.005808,0.137274,48.830727,-1.469430,-1.895749,0.910461,0.413065,-0.018512,-0.009763
6524,0.245839,7.489236,6.577623,-2.787973,0.075088,0.035014,48.751434,-1.466978,-1.892849,0.910747,0.412436,-0.018475,-0.009761
6525,0.248394,7.474761,6.598068,-4.480289,0.027798,0.068570,48.622498,-1.464732,-1.890227,0.911211,0.411411,-0.018437,-0.009769
6526,0.255111,7.453736,6.618966,-6.363366,0.265849,-0.299182,48.431374,-1.457646,-1.888845,0.911896,0.409893,-0.018359,-0.009814
6527,0.265768,7.459784,6.656380,-9.560265,0.706835,-1.069764,48.156017,-1.431484,-1.891658,0.912879,0.407704,-0.018137,-0.009974
6528,0.254237,7.397856,6.720302,-12.621391,0.784646,-1.471066,47.772007,-1.385651,-1.901163,0.914241,0.404649,-0.017772,-0.010273
6529,0.246927,7.327324,6.756967,-15.041689,0.567960,-1.229957,47.289761,-1.338698,-1.914394,0.915937,0.400805,-0.017399,-0.010617
6530,0.241785,7.252149,6.806094,-16.518976,0.406204,-0.662297,46.740849,-1.306744,-1.923474,0.917847,0.396417,-0.017124,-0.010884
6531,0.229344,7.170011,6.878361,-18.089365,0.163574,-0.091586,46.138500,-1.292840,-1.924665,0.919918,0.391589,-0.016959,-0.011031
6532,0.216275,7.042910,6.963736,-18.434511,-0.216372,0.350933,45.495579,-1.295902,-1.921533,0.922101,0.386421,-0.016911,-0.011090
6533,0.230449,6.990403,7.023041,-18.042646,-0.368960,0.611870,44.851460,-1.314018,-1.916359,0.924258,0.381230,-0.016977,-0.011083
6534,0.232979,6.934390,7.112630,-17.608009,-0.175172,0.205988,44.227036,-1.331689,-1.912317,0.926321,0.376185,-0.017046,-0.011085
6535,0.232899,6.855832,7.197284,-17.620468,0.088811,-0.950654,43.610218,-1.325108,-1.921535,0.928332,0.371194,-0.016963,-0.011272
6536,0.228367,6.781878,7.270037,-17.066811,0.223095,-1.649522,43.002285,-1.291600,-1.948756,0.930287,0.366265,-0.016718,-0.011690
6537,0.225170,6.738629,7.319245,-16.937307,0.323810,-1.950128,42.412224,-1.244079,-1.986089,0.932158,0.361473,-0.016388,-0.012230
6538,0.218117,6.691562,7.399361,-17.949131,0.746492,-2.325501,41.815289,-1.183383,-2.026617,0.934026,0.356617,-0.015956,-0.012835
6539,0.204793,6.626766,7.474343,-19.490431,1.323294,-2.591011,41.178513,-1.103244,-2.064831,0.935991,0.351430,-0.015347,-0.013481
6540,0.191377,6.530805,7.553132,-20.694508,1.765816,-2.577277,40.494724,-1.007626,-2.096031,0.938070,0.345852,-0.014578,-0.014117
6541,0.170900,6.436609,7.620703,-21.863499,2.112207,-2.786332,39.769909,-0.899828,-2.122425,0.940237,0.339927,-0.013682,-0.014745
6542,0.157321,6.333268,7.709990,-23.030973,2.402138,-2.394170,39.005020,-0.786332,-2.141130,0.942483,0.333661,-0.012705,-0.015321
6543,0.131114,6.206357,7.774640,-23.215771,2.522692,-2.064572,38.215008,-0.675161,-2.147713,0.944760,0.327174,-0.011701,-0.015780
6544,0.111420,6.087873,7.862164,-22.964174,2.368586,-1.675467,37.423656,-0.570955,-2.146718,0.946996,0.320660,-0.010728,-0.016144
6545,0.088166,6.016233,7.934091,-22.282236,2.206855,-1.028486,36.651619,-0.480533,-2.136606,0.949135,0.314288,-0.009842,-0.016380
6546,0.090454,5.914502,8.027156,-21.739113,2.202282,-0.442533,35.904789,-0.406203,-2.112816,0.951165,0.308110,-0.009054,-0.016447
6547,0.095102,5.812080,8.097973,-20.590199,2.061867,-0.198362,35.186474,-0.346688,-2.080077,0.953082,0.302154,-0.008370,-0.016388
6548,0.095350,5.691123,8.176466,-19.593891,1.710846,0.256405,34.501953,-0.304199,-2.043185,0.954874,0.296464,-0.007822,-0.016240
6549,0.089328,5.622538,8.221826,-19.159101,1.518510,0.288499,33.843845,-0.275063,-2.005280,0.956565,0.290983,-0.007389,-0.016042
6550,0.091298,5.589211,8.345574,-20.158619,1.568787,0.346538,33.184193,-0.249388,-1.967906,0.958229,0.285478,-0.006989,-0.015836
6551,0.078890,5.492955,8.412573,-22.694723,1.727406,1.042411,32.467922,-0.226929,-1.918529,0.960001,0.279489,-0.006581,-0.015520
6552,0.053180,5.364425,8.460608,-24.258823,1.878424,0.908162,31.681850,-0.200238,-1.858961,0.961903,0.272904,-0.006109,-0.015129
6553,0.040296,5.274861,8.520593,-25.343758,1.968434,0.476337,30.854706,-0.160090,-1.805896,0.963854,0.265962,-0.005539,-0.014819
6554,0.036677,5.133327,8.596292,-24.812723,1.676968,0.523648,30.020393,-0.118128,-1.760711,0.965769,0.258945,-0.004975,-0.014573
6555,0.031391,4.943378,8.591939,-22.772583,1.441956,0.348179,29.224346,-0.082947,-1.722361,0.967549,0.252236,-0.004492,-0.014361
6556,0.020682,4.843503,8.652590,-18.944057,1.205419,-0.536847,28.526789,-0.045279,-1.703770,0.969068,0.246347,-0.004046,-0.014312
6557,0.025589,4.798988,8.732074,-15.837214,0.636223,-0.507841,27.954134,-0.013422,-1.704539,0.970286,0.241505,-0.003706,-0.014406
6558,0.022559,4.718152,8.764502,-13.357461,0.382880,-0.014945,27.482719,0.000220,-1.704329,0.971271,0.237513,-0.003531,-0.014447
6559,0.021980,4.649416,8.806586,-12.423450,0.808568,-0.001189,27.070282,0.011903,-1.695437,0.972120,0.234018,-0.003362,-0.014408
6560,0.027249,4.618256,8.863994,-12.305787,0.884810,-0.095767,26.678110,0.030432,-1.684059,0.972916,0.230692,-0.003132,-0.014360
6561,0.035732,4.574508,8.892929,-12.571092,0.852690,-0.051478,26.288330,0.047366,-1.673268,0.973696,0.227384,-0.002918,-0.014313
6562,0.024812,4.486923,8.913541,-13.567317,1.423308,-0.107898,25.877075,0.071980,-1.658886,0.974506,0.223891,-0.002629,-0.014249
6563,0.023219,4.424611,8.978728,-15.067137,1.772671,-0.483238,25.419571,0.114389,-1.644602,0.975393,0.220004,-0.002184,-0.014219
6564,0.007034,4.338829,9.005386,-15.982553,1.533032,-0.556451,24.918652,0.162641,-1.636737,0.976345,0.215744,-0.001696,-0.014253
6565,-0.009535,4.240047,9.021343,-16.972763,1.706939,-0.675449,24.383430,0.213726,-1.632785,0.977340,0.211188,-0.001186,-0.014321
6566,-0.017585,4.124952,9.061593,-17.637995,1.743519,-0.159667,23.815321,0.266396,-1.621923,0.978374,0.206346,-0.000646,-0.014328
6567,-0.017012,4.023491,9.097267,-17.554043,1.319259,0.211157,23.232294,0.305814,-1.600696,0.979412,0.201370,-0.000199,-0.014219
6568,-0.021096,3.929388,9.115729,-17.618103,1.114718,0.240178,22.649477,0.331420,-1.577879,0.980425,0.196389,0.000132,-0.014069
6569,-0.025225,3.855824,9.176438,-17.984276,1.137536,0.415691,22.061975,0.352725,-1.553375,0.981421,0.191362,0.000427,-0.013894
6570,-0.025812,3.762530,9.218219,-17.976587,0.656794,0.797203,21.469919,0.363236,-1.523374,0.982400,0.186290,0.000638,-0.013651
6572,-0.033529,3.668724,9.273126,-17.907869,0.623151,0.521040,20.878458,0.365816,-1.495067,0.983351,0.181217,0.000775,-0.013409
6573,-0.041533,3.572622,9.316586,-17.807112,0.822990,0.322692,20.288797,0.376000,-1.473307,0.984273,0.176156,0.000965,-0.013233
6574,-0.042433,3.465429,9.368997,-16.888481,0.842776,0.502771,19.713493,0.390889,-1.450786,0.985147,0.171213,0.001193,-0.013057
6575,-0.032011,3.360562,9.389675,-15.936309,0.981568,0.601980,19.166336,0.404935,-1.423234,0.985956,0.166508,0.001417,-0.012835
6576,-0.035254,3.273294,9.435249,-14.895638,1.486570,0.493667,18.651335,0.427684,-1.392542,0.986696,0.162078,0.001713,-0.012596
6577,-0.041934,3.184206,9.445699,-14.433293,1.671130,0.174776,18.161348,0.464364,-1.365254,0.987381,0.157860,0.002121,-0.012404
6578,-0.055585,3.082455,9.478705,-14.541670,1.841967,-0.124285,17.674379,0.511537,-1.346387,0.988043,0.153667,0.002606,-0.012295
6579,-0.060567,3.007725,9.507469,-14.277740,1.895314,0.086312,17.187580,0.563452,-1.328314,0.988686,0.149473,0.003129,-0.012196
6580,-0.068181,2.923347,9.528496,-13.870371,1.835737,0.020718,16.712383,0.614030,-1.308468,0.989296,0.145376,0.003642,-0.012076
6581,-0.076823,2.823148,9.553276,-13.945220,1.603727,-0.215781,16.239431,0.661331,-1.295356,0.989886,0.141295,0.004116,-0.012005
6582,-0.081729,2.752370,9.581188,-13.203716,1.019225,0.087900,15.775555,0.694854,-1.285410,0.990449,0.137289,0.004467,-0.011943
6583,-0.075734,2.701510,9.598166,-12.306528,0.526260,0.362591,15.343875,0.706367,-1.271285,0.990960,0.133558,0.004628,-0.011817
6584,-0.086721,2.614070,9.606364,-11.947971,0.037870,0.094054,14.935340,0.701775,-1.261465,0.991431,0.130023,0.004641,-0.011710
6585,-0.080671,2.559832,9.622747,-11.880864,-0.575642,-0.047834,14.534183,0.681801,-1.262983,0.991881,0.126550,0.004508,-0.011685
6586,-0.074097,2.492231,9.623868,-11.174373,-0.816837,0.091051,14.148521,0.646838,-1.267985,0.992303,0.123208,0.004239,-0.011676
6587,-0.066074,2.420319,9.637074,-10.901245,-0.743697,-0.375855,13.778827,0.609727,-1.278813,0.992697,0.120003,0.003943,-0.011717
6588,-0.063582,2.358192,9.650158,-10.861590,-0.833830,-0.627607,13.413459,0.575394,-1.301189,0.993074,0.116835,0.003660,-0.011863
6589,-0.055241,2.314741,9.671861,-10.625072,-0.701175,-0.781701,13.055048,0.543371,-1.329835,0.993433,0.113726,0.003392,-0.012068
6590,-0.056697,2.251091,9.677405,-10.379380,-0.531894,-0.697752,12.706855,0.517000,-1.358354,0.993772,0.110705,0.003172,-0.012280
6591,-0.054874,2.199331,9.710576,-10.530426,-0.335134,-0.732829,12.360492,0.497625,-1.384675,0.994101,0.107700,0.003016,-0.012480
6592,-0.051125,2.164076,9.735188,-10.486129,-0.078861,-0.174321,12.015750,0.483945,-1.400794,0.994419,0.104708,0.002920,-0.012599
6593,-0.045616,2.109742,9.756021,-10.119831,0.102637,0.249906,11.681304,0.473410,-1.399338,0.994721,0.101804,0.002867,-0.012568
6594,-0.043521,2.067737,9.751578,-9.636014,0.365005,0.451347,11.364078,0.467568,-1.386165,0.995001,0.099049,0.002862,-0.012441
6595,-0.048130,2.014218,9.783673,-9.172014,0.787603,0.556654,11.064768,0.472770,-1.365771,0.995258,0.096450,0.002957,-0.012260
6596,-0.047895,1.984288,9.797003,-8.735465,0.886708,0.700108,10.782885,0.486453,-1.339723,0.995494,0.094002,0.003128,-0.012038
6597,-0.047704,1.926810,9.798586,-8.729210,0.999543,0.234719,10.510165,0.504193,-1.318399,0.995717,0.091633,0.003327,-0.011859
6598,-0.051438,1.881206,9.794527,-9.226515,1.437398,-0.532805,10.228530,0.534513,-1.315769,0.995938,0.089189,0.003622,-0.011852
6599,-0.061629,1.807557,9.808974,-9.954261,1.650947,-1.034818,9.923057,0.580048,-1.332297,0.996168,0.086539,0.004037,-0.012020
6600,-0.076318,1.739169,9.788503,-10.547769,1.423519,-1.651279,9.590098,0.630126,-1.367596,0.996409,0.083650,0.004482,-0.012352
6601,-0.092501,1.683322,9.801956,-11.747083,1.368537,-2.305893,9.225522,0.680892,-1.424943,0.996660,0.080487,0.004922,-0.012872
6602,-0.100565,1.602215,9.809109,-11.911840,1.420378,-2.328774,8.835505,0.733974,-1.493850,0.996917,0.077103,0.005381,-0.013490
6603,-0.109801,1.530899,9.821519,-11.434213,1.214337,-2.145656,8.447400,0.783534,-1.560926,0.997161,0.073735,0.005815,-0.014087
6604,-0.123759,1.469168,9.853223,-11.289237,1.299753,-2.244836,8.069179,0.831187,-1.627284,0.997388,0.070452,0.006236,-0.014675
6605,-0.138994,1.420164,9.877643,-11.083205,1.827701,-2.490506,7.698884,0.891022,-1.698241,0.997597,0.067240,0.006762,-0.015307
6606,-0.147663,1.341014,9.883213,-10.208820,1.726975,-2.243304,7.346397,0.958191,-1.768630,0.997784,0.064184,0.007355,-0.015937
6607,-0.156415,1.304611,9.877235,-10.027193,1.174569,-2.565270,7.013020,1.013646,-1.842012,0.997951,0.061294,0.007845,-0.016584
6608,-0.162886,1.242358,9.879913,-9.784500,0.727445,-2.614096,6.689652,1.052049,-1.923799,0.998105,0.058488,0.008184,-0.017294
6609,-0.155006,1.183284,9.881882,-9.566233,0.144492,-2.289067,6.372991,1.069880,-2.003199,0.998249,0.055738,0.008349,-0.017971
6610,-0.142019,1.148950,9.879426,-9.764519,-0.374408,-1.921307,6.059491,1.063376,-2.073168,0.998387,0.053011,0.008309,-0.018555
6611,-0.140918,1.084576,9.874293,-10.283237,-0.426393,-2.348553,5.735773,1.044846,-2.145066,0.998523,0.050193,0.008168,-0.019150
6612,-0.144843,0.999705,9.897798,-10.191632,-0.264740,-2.270720,5.399131,1.029326,-2.222639,0.998654,0.047262,0.008057,-0.019796
6613,-0.137870,0.942552,9.894081,-10.000875,-0.212951,-2.192889,5.063116,1.017046,-2.297357,0.998776,0.044337,0.007979,-0.020418
6614,-0.138423,0.903219,9.896212,-10.222093,-0.327489,-2.214243,4.729629,1.003002,-2.371166,0.998889,0.041433,0.007890,-0.021034
6615,-0.131260,0.828527,9.913747,-10.360911,-0.481704,-2.133359,4.390300,0.983669,-2.444327,0.998995,0.038476,0.007759,-0.021641
6616,-0.125147,0.784779,9.932156,-10.255589,-0.213248,-1.205587,4.050118,0.963434,-2.500539,0.999096,0.035510,0.007629,-0.022102
6617,-0.121545,0.758605,9.923967,-10.679700,0.137605,-0.517386,3.711939,0.950904,-2.529007,0.999192,0.032561,0.007577,-0.022324
6618,-0.126600,0.685467,9.930675,-11.865230,0.737193,-0.137421,3.349976,0.953963,-2.538685,0.999287,0.029406,0.007672,-0.022385
6619,-0.137070,0.591949,9.916723,-12.403817,1.565691,0.183029,2.953114,0.982591,-2.535604,0.999382,0.025950,0.008000,-0.022338
6620,-0.152661,0.505254,9.910618,-12.487735,2.075295,0.572143,2.539320,1.035974,-2.520034,0.999468,0.022350,0.008549,-0.022184
6621,-0.171874,0.426303,9.889968,-12.310753,2.005072,0.573670,2.123781,1.099571,-2.498182,0.999541,0.018736,0.009188,-0.021972
6622,-0.185368,0.348868,9.904484,-11.070211,1.812791,0.985670,1.730218,1.160558,-2.470131,0.999599,0.015312,0.009799,-0.021704
6623,-0.194418,0.304571,9.919125,-8.932406,1.361103,1.396144,1.395745,1.210682,-2.429025,0.999643,0.012400,0.010304,-0.021322
6624,-0.192027,0.289709,9.934506,-6.449663,0.726289,1.673864,1.148067,1.240761,-2.376917,0.999674,0.010240,0.010617,-0.020847
6625,-0.190028,0.266593,9.969060,-3.637245,0.341703,1.968372,0.997737,1.251084,-2.315511,0.999696,0.008925,0.010739,-0.020298
6626,-0.185048,0.262148,9.968920,-0.209832,-0.074945,2.261355,0.957466,1.245884,-2.244438,0.999712,0.008566,0.010706,-0.019674
6627,-0.176501,0.274025,9.962902,1.845825,-0.635046,1.786799,1.014346,1.222392,-2.176558,0.999722,0.009052,0.010497,-0.019085
6628,-0.172756,0.296506,9.955326,3.304883,-1.132594,1.162703,1.133949,1.180505,-2.127264,0.999724,0.010084,0.010116,-0.018663
6629,-0.174764,0.320785,9.954390,4.091027,-1.422604,0.503510,1.292837,1.127234,-2.099688,0.999718,0.011460,0.009628,-0.018431
6630,-0.165811,0.367149,9.936007,4.304976,-1.569164,-0.381519,1.471161,1.068655,-2.098113,0.999704,0.013006,0.009088,-0.018426
6631,-0.156732,0.386928,9.926847,3.838373,-1.738612,-1.115480,1.646009,1.005800,-2.123824,0.999684,0.014523,0.008509,-0.018656
6632,-0.163703,0.394084,9.886817,3.698279,-1.720347,-1.469488,1.805792,0.943898,-2.168012,0.999661,0.015910,0.007936,-0.019045
6633,-0.162023,0.444861,9.920952,3.198066,-1.264109,-1.579350,1.954842,0.894169,-2.219851,0.999634,0.017206,0.007470,-0.019500
6634,-0.141118,0.466563,9.938513,3.091562,-1.039816,-1.425225,2.096245,0.855295,-2.270668,0.999606,0.018436,0.007099,-0.019947
6635,-0.137208,0.457236,9.908480,3.058259,-1.114616,-1.127665,2.230071,0.817414,-2.314066,0.999579,0.019599,0.006737,-0.020327
6636,-0.130189,0.493979,9.900929,2.506118,-0.885755,-1.214638,2.351548,0.782470,-2.353988,0.999552,0.020655,0.006404,-0.020676
6637,-0.124150,0.524589,9.935190,1.905313,-0.530255,-1.161223,2.473726,0.755556,-2.393876,0.999524,0.021718,0.006140,-0.021026
6638,-0.116375,0.496250,9.905152,1.681445,-0.547103,-1.023882,2.586288,0.731690,-2.430354,0.999497,0.022698,0.005904,-0.021345
6639,-0.118374,0.498966,9.882575,1.167500,-0.628031,-0.975046,2.668267,0.707172,-2.464091,0.999476,0.023410,0.005667,-0.021639
6640,-0.114762,0.511512,9.902976,0.726755,-0.664691,-0.872804,2.729085,0.682579,-2.495503,0.999459,0.023937,0.005435,-0.021911
6641,-0.108534,0.506837,9.916596,0.604883,-0.788333,-0.665273,2.775233,0.654598,-2.521981,0.999445,0.024336,0.005176,-0.022138
6642,-0.101597,0.493567,9.913982,0.452404,-0.853999,-0.602707,2.806186,0.622061,-2.544266,0.999436,0.024600,0.004882,-0.022327
6643,-0.094406,0.512604,9.920575,0.176306,-0.779289,-0.674421,2.827756,0.588631,-2.566741,0.999429,0.024783,0.004581,-0.022517
6644,-0.090351,0.506680,9.910902,0.303062,-0.574875,-0.691202,2.848034,0.559987,-2.590462,0.999421,0.024955,0.004322,-0.022718
6645,-0.095405,0.508616,9.918880,0.257363,-0.324655,-0.711037,2.866454,0.542348,-2.614461,0.999413,0.025113,0.004160,-0.022924
6646,-0.097032,0.529310,9.937118,0.344452,-0.088134,-0.585910,2.889775,0.536896,-2.636267,0.999404,0.025316,0.004103,-0.023114
6647,-0.092941,0.545042,9.928720,0.767314,0.061413,-0.526398,2.929876,0.538140,-2.654601,0.999391,0.025667,0.004101,-0.023276
6648,-0.098386,0.560105,9.917138,1.191753,0.081262,-0.566070,2.990108,0.542855,-2.672401,0.999374,0.026194,0.004126,-0.023434
6649,-0.106871,0.559297,9.941689,1.611604,-0.033141,-0.540129,3.063280,0.549702,-2.690515,0.999353,0.026834,0.004166,-0.023597
6650,-0.104917,0.587173,9.928163,1.971952,-0.095651,-0.566071,3.150387,0.554896,-2.708769,0.999328,0.027595,0.004189,-0.023760
6651,-0.100744,0.586453,9.913419,1.999651,-0.298565,-0.508085,3.244230,0.553387,-2.726735,0.999301,0.028414,0.004152,-0.023920
6652,-0.100731,0.592515,9.914971,1.687007,-0.484705,-0.460782,3.326054,0.543979,-2.743401,0.999278,0.029126,0.004049,-0.024066
6653,-0.102315,0.585620,9.915200,1.519250,-0.437371,-0.260886,3.390858,0.533034,-2.756193,0.999259,0.029689,0.003937,-0.024177
6654,-0.104752,0.616686,9.920868,0.779269,-0.306092,-0.089984,3.440114,0.526862,-2.762661,0.999245,0.030118,0.003871,-0.024233
6655,-0.092244,0.608236,9.943527,0.123216,-0.270965,0.015303,3.466457,0.521057,-2.764374,0.999238,0.030346,0.003814,-0.024248
6656,-0.089248,0.588296,9.929530,0.060647,-0.138211,0.009199,3.468743,0.514059,-2.764385,0.999238,0.030365,0.003753,-0.024246
6657,-0.082510,0.589393,9.918081,-0.078273,-0.095504,0.131275,3.461284,0.507767,-2.762348,0.999240,0.030298,0.003700,-0.024226
6658,-0.081728,0.597585,9.922414,-0.386544,0.005176,-0.138813,3.449403,0.502524,-2.762601,0.999244,0.030194,0.003657,-0.024227
6659,-0.084068,0.578095,9.937963,-0.346926,0.089079,-0.257834,3.430371,0.501720,-2.769163,0.999247,0.030028,0.003652,-0.024283
6660,-0.098652,0.569764,9.917834,0.182460,-0.074175,-0.073199,3.414448,0.504726,-2.774771,0.999250,0.029890,0.003680,-0.024332
6661,-0.103501,0.589059,9.927823,0.013015,-0.274006,-0.024374,3.409626,0.506969,-2.776811,0.999251,0.029848,0.003700,-0.024350
6662,-0.113288,0.591975,9.938966,0.107615,-0.006870,-0.239535,3.410601,0.514380,-2.781490,0.999249,0.029859,0.003763,-0.024393
6663,-0.102419,0.592315,9.924341,0.431113,-0.084600,0.131259,3.419756,0.524004,-2.783379,0.999246,0.029940,0.003845,-0.024413
6664,-0.086371,0.600312,9.891836,0.331952,-0.424860,0.207554,3.435423,0.517750,-2.778222,0.999243,0.030076,0.003788,-0.024366
6665,-0.077334,0.603352,9.919588,-0.287533,-0.131923,-0.297524,3.441064,0.503750,-2.780230,0.999242,0.030122,0.003664,-0.024380
6666,-0.061572,0.600098,9.927232,-0.168484,-0.017570,-0.343296,3.436545,0.490856,-2.791012,0.999242,0.030080,0.003550,-0.024471
6667,-0.030081,0.582681,9.930255,-0.101369,-0.835660,0.230463,3.429016,0.453443,-2.793765,0.999245,0.030007,0.003225,-0.024485
6668,-0.037143,0.552662,9.917062,-0.469249,-1.508825,0.137394,3.403647,0.386233,-2.790093,0.999255,0.029771,0.002645,-0.024435
6669,-0.056187,0.563504,9.905002,-0.477040,-1.565409,-0.048762,3.368522,0.319952,-2.791775,0.999265,0.029451,0.002074,-0.024432
6670,-0.066232,0.584339,9.899348,-0.290935,-1.464697,0.320511,3.348833,0.269321,-2.790258,0.999272,0.029268,0.001637,-0.024405
6671,-0.082668,0.576925,9.916299,-0.187176,-0.809963,0.335764,3.340428,0.244347,-2.781556,0.999277,0.029190,0.001423,-0.024323
6672,-0.090553,0.584970,9.923367,-0.141393,0.128683,0.093129,3.335683,0.256850,-2.775081,0.999279,0.029151,0.001535,-0.024270
6673,-0.076606,0.593827,9.937096,0.124167,0.868949,0.231978,3.341294,0.296214,-2.768676,0.999278,0.029208,0.001879,-0.024224
6675,-0.056358,0.581329,9.958941,0.069269,1.093348,0.344892,3.348761,0.338878,-2.757149,0.999277,0.029282,0.002252,-0.024134
6676,-0.042469,0.555476,9.934913,0.195859,0.742357,0.363204,3.345803,0.365389,-2.743625,0.999280,0.029261,0.002487,-0.024023
6677,-0.043234,0.575769,9.926296,-0.130762,0.118165,0.256394,3.338223,0.368575,-2.732532,0.999284,0.029196,0.002520,-0.023927
6678,-0.060047,0.582806,9.946942,-0.381019,-0.296944,0.167894,3.329180,0.358212,-2.725648,0.999288,0.029114,0.002433,-0.023864
6679,-0.068534,0.588239,9.948342,-0.660234,-0.544139,0.025983,3.315327,0.344656,-2.723213,0.999293,0.028991,0.002318,-0.023839
6680,-0.077192,0.581671,9.914219,-0.524386,-0.403697,-0.038109,3.300433,0.335721,-2.724296,0.999296,0.028859,0.002243,-0.023846
6681,-0.072267,0.587424,9.924779,-0.626568,-0.125903,-0.064054,3.287698,0.336077,-2.726467,0.999299,0.028748,0.002248,-0.023865
6682,-0.067766,0.562510,9.928052,-0.255752,0.087783,0.177039,3.275101,0.342091,-2.724614,0.999303,0.028639,0.002304,-0.023850
6683,-0.070537,0.556221,9.901265,0.063122,0.464736,0.009184,3.266680,0.357098,-2.721021,0.999305,0.028569,0.002437,-0.023822
6684,-0.065077,0.565137,9.930264,0.304191,0.487659,0.120574,3.269359,0.376983,-2.717978,0.999304,0.028596,0.002611,-0.023801
6685,-0.052648,0.573195,9.950474,0.658212,0.017651,0.378458,3.286360,0.382087,-2.709186,0.999302,0.028746,0.002654,-0.023726
6686,-0.059240,0.580524,9.934551,0.771167,-0.202130,0.251809,3.314522,0.372645,-2.698849,0.999297,0.028989,0.002569,-0.023634
6687,-0.066915,0.572866,9.925392,0.609439,-0.221979,-0.006072,3.339889,0.363949,-2.695156,0.999292,0.029208,0.002488,-0.023600
6688,-0.066603,0.584281,9.925853,0.423283,-0.469165,-0.016754,3.357978,0.354112,-2.696202,0.999287,0.029364,0.002399,-0.023607
6689,-0.077288,0.587899,9.906250,0.202052,-0.134942,-0.343305,3.371722,0.350011,-2.702762,0.999282,0.029483,0.002358,-0.023663
6690,-0.083915,0.562766,9.925468,-0.130636,0.322930,-0.559992,3.368407,0.365309,-2.717633,0.999280,0.029458,0.002489,-0.023797
6691,-0.075926,0.571953,9.919206,-0.139873,0.290972,-0.631716,3.354028,0.386994,-2.736924,0.999279,0.029337,0.002676,-0.023970
6692,-0.060014,0.596313,9.914015,-0.219213,0.330659,-0.643924,3.348890,0.400167,-2.757537,0.999275,0.029296,0.002787,-0.024153
6693,-0.055738,0.584161,9.929063,-0.351925,0.358076,-0.643921,3.344536,0.406886,-2.778257,0.999272,0.029260,0.002841,-0.024336
6694,-0.057427,0.572057,9.950510,-0.155094,-0.209632,-0.393666,3.334161,0.402570,-2.795389,0.999271,0.029169,0.002801,-0.024484
6695,-0.051153,0.597700,9.938875,0.134854,-0.772776,-0.120520,3.336416,0.377473,-2.804879,0.999269,0.029183,0.002579,-0.024560
6696,-0.057707,0.588368,9.936971,0.223423,-0.940692,0.116002,3.350348,0.341292,-2.806567,0.999266,0.029297,0.002260,-0.024566
6697,-0.065637,0.579672,9.929978,0.350093,-1.039881,0.102269,3.362051,0.307699,-2.804854,0.999265,0.029392,0.001965,-0.024543
6698,-0.066959,0.587567,9.930779,0.452336,-0.855196,0.114474,3.376161,0.281693,-2.803099,0.999262,0.029509,0.001736,-0.024521
6699,-0.056628,0.578446,9.912792,0.791086,-0.409575,-0.038121,3.396256,0.266725,-2.803075,0.999257,0.029682,0.001601,-0.024517
6700,-0.057939,0.579399,9.902764,0.928384,0.061983,-0.268540,3.420674,0.266895,-2.808541,0.999250,0.029895,0.001596,-0.024565
6701,-0.048453,0.582059,9.941611,1.096187,0.087957,-0.201401,3.448493,0.273848,-2.816235,0.999241,0.030139,0.001649,-0.024634
6702,-0.035162,0.583361,9.958479,1.129689,-0.179105,-0.366199,3.477250,0.269903,-2.825809,0.999231,0.030389,0.001605,-0.024717
6703,-0.035182,0.583311,9.951368,1.201316,-0.835311,-0.514211,3.505099,0.246941,-2.841539,0.999221,0.030627,0.001395,-0.024849
6704,-0.035330,0.607884,9.937210,0.722123,-1.647149,-0.497424,3.530723,0.201114,-2.860939,0.999211,0.030841,0.000985,-0.025006
6705,-0.029811,0.617174,9.918972,0.322341,-1.874542,-0.677481,3.549322,0.140097,-2.884102,0.999202,0.030990,0.000442,-0.025192
6706,-0.029426,0.622254,9.894987,0.012611,-1.544942,-0.767511,3.558787,0.084742,-2.911660,0.999194,0.031060,-0.000050,-0.025417
6707,-0.033817,0.628563,9.876938,-0.051424,-1.154247,-0.555411,3.564690,0.048261,-2.936447,0.999188,0.031103,-0.000376,-0.025623
6708,-0.023147,0.641769,9.872161,-0.245117,-0.438506,-0.482171,3.571601,0.032685,-2.955345,0.999182,0.031160,-0.000519,-0.025784
6709,-0.014294,0.645067,9.887136,-0.194630,0.423699,-0.434871,3.580063,0.040180,-2.970604,0.999176,0.031235,-0.000459,-0.025919
6710,-0.014800,0.637097,9.914138,-0.121278,1.084463,-0.297540,3.587688,0.070788,-2.981207,0.999171,0.031309,-0.000197,-0.026020
6711,-0.019112,0.632275,9.935761,-0.145630,1.302706,-0.372312,3.590739,0.115414,-2.989852,0.999168,0.031346,0.000189,-0.026107
6712,-0.020570,0.624225,9.953829,-0.014379,0.991435,-0.267024,3.590611,0.156339,-2.998089,0.999165,0.031354,0.000544,-0.026190
6713,-0.020210,0.619262,9.958787,0.086318,0.329167,-0.093068,3.590063,0.176806,-3.002706,0.999164,0.031354,0.000721,-0.026236
6714,-0.024228,0.602801,9.945618,0.234268,-0.174420,-0.025925,3.587699,0.175615,-3.004547,0.999164,0.031333,0.000711,-0.026252
6715,-0.032325,0.599036,9.928489,0.255524,-0.890090,0.076312,3.583034,0.156510,-3.004858,0.999166,0.031288,0.000545,-0.026249
6716,-0.036535,0.612255,9.916211,0.189834,-1.343263,0.039688,3.581213,0.122479,-3.005281,0.999167,0.031264,0.000249,-0.026244
6717,-0.038669,0.634337,9.900817,0.177640,-1.170770,-0.086968,3.589068,0.088461,-3.008685,0.999164,0.031325,-0.000051,-0.026264
6718,-0.030114,0.631530,9.891941,0.220428,-0.798366,-0.105284,3.603124,0.065230,-3.013927,0.999159,0.031442,-0.000258,-0.026303
6719,-0.028508,0.633908,9.894736,0.060258,-0.302363,-0.187688,3.614117,0.056484,-3.019945,0.999155,0.031536,-0.000338,-0.026353
6720,-0.016609,0.658335,9.910561,-0.157846,0.106643,-0.331129,3.624925,0.060716,-3.028767,0.999150,0.031631,-0.000306,-0.026431
6721,-0.005799,0.655582,9.903292,-0.052412,0.269921,-0.270091,3.638848,0.068219,-3.038352,0.999144,0.031754,-0.000247,-0.026517
6722,-0.011919,0.626803,9.898548,-0.169847,0.358414,-0.242624,3.642476,0.077882,-3.046207,0.999141,0.031788,-0.000166,-0.026588
6723,-0.019841,0.628970,9.914186,-0.395695,0.556800,-0.296033,3.631640,0.095533,-3.054201,0.999142,0.031698,-0.000011,-0.026663
6724,-0.016356,0.636142,9.931946,-0.458250,0.521718,-0.303663,3.618428,0.115864,-3.063039,0.999143,0.031587,0.000166,-0.026745
6725,-0.019022,0.605588,9.913531,-0.116480,0.381329,-0.202952,3.604355,0.131041,-3.070528,0.999145,0.031468,0.000300,-0.026815
6726,-0.024985,0.606617,9.927400,-0.110472,0.121925,-0.120553,3.589042,0.140089,-3.075407,0.999148,0.031337,0.000381,-0.026860
6727,-0.015766,0.613792,9.946589,-0.191415,-0.099349,-0.148019,3.575725,0.138916,-3.079870,0.999150,0.031220,0.000373,-0.026898
6728,-0.022857,0.621121,9.931983,0.035926,-0.306899,-0.132757,3.570366,0.129612,-3.084969,0.999151,0.031171,0.000292,-0.026940
6729,-0.027394,0.604728,9.930131,0.046572,-0.425912,-0.164803,3.567593,0.118773,-3.090689,0.999151,0.031145,0.000196,-0.026987
6730,-0.034183,0.612902,9.952885,-0.605053,-0.537261,-0.419635,3.551804,0.108646,-3.101422,0.999152,0.031005,0.000109,-0.027078
6731,-0.029352,0.625689,9.920406,-0.452454,-0.509737,-0.570705,3.534815,0.099158,-3.118976,0.999153,0.030854,0.000025,-0.027229
6732,-0.018377,0.633088,9.899742,0.026762,-0.294553,-0.328085,3.536762,0.090079,-3.134738,0.999149,0.030869,-0.000059,-0.027364
6733,-0.009525,0.612864,9.912844,-0.032696,-0.117557,-0.369284,3.542912,0.082535,-3.146753,0.999144,0.030921,-0.000129,-0.027466
6734,-0.008342,0.622834,9.903925,0.322867,-0.132846,-0.235001,3.550564,0.075517,-3.157060,0.999140,0.030986,-0.000195,-0.027554
6735,-0.000965,0.617453,9.896238,0.930216,-0.099319,0.112914,3.575206,0.066567,-3.159328,0.999133,0.031199,-0.000280,-0.027572
6736,-0.007112,0.595737,9.903407,0.962214,0.103590,0.193790,3.601097,0.061547,-3.154230,0.999127,0.031423,-0.000328,-0.027526
6737,-0.023127,0.616853,9.921384,0.499786,0.066987,0.021359,3.616663,0.066472,-3.150484,0.999124,0.031560,-0.000288,-0.027494
6738,-0.018960,0.619084,9.912658,0.539424,0.036516,0.115963,3.629670,0.073781,-3.148094,0.999121,0.031675,-0.000227,-0.027475
6739,-0.014064,0.627334,9.914173,0.284572,0.086893,0.184628,3.640811,0.078029,-3.142967,0.999119,0.031773,-0.000191,-0.027432
6740,-0.017236,0.633717,9.920247,0.127404,0.178459,0.073236,3.647949,0.083602,-3.138396,0.999118,0.031837,-0.000143,-0.027394
6741,-0.019877,0.628641,9.934189,-0.197623,0.126600,-0.088515,3.646143,0.091298,-3.138328,0.999118,0.031823,-0.000075,-0.027395
6742,-0.013928,0.614385,9.943127,-0.289236,0.035052,-0.044263,3.631155,0.095108,-3.140376,0.999122,0.031693,-0.000039,-0.027414
6743,-0.019983,0.641520,9.928734,-0.280099,0.062523,-0.009167,3.619434,0.097226,-3.141165,0.999125,0.031592,-0.000018,-0.027422
6744,-0.029713,0.633428,9.929781,-0.344148,0.164799,-0.048843,3.613843,0.105760,-3.141883,0.999126,0.031545,0.000058,-0.027430
6745,-0.030424,0.633121,9.920973,-0.417364,0.026000,-0.013751,3.604559,0.116173,-3.142719,0.999128,0.031466,0.000150,-0.027440
6746,-0.025516,0.635415,9.936239,-0.443267,0.039774,0.082380,3.594822,0.122207,-3.141501,0.999131,0.031383,0.000206,-0.027431
6747,-0.029248,0.627086,9.920164,-0.196035,0.128310,0.021341,3.588006,0.128747,-3.139593,0.999133,0.031325,0.000265,-0.027416
6748,-0.027044,0.611675,9.923856,-0.302866,-0.100548,0.021339,3.577757,0.132839,-3.138859,0.999136,0.031237,0.000303,-0.027411
6749,-0.026770,0.608484,9.916036,-0.325807,-0.208869,-0.082426,3.560915,0.130187,-3.140212,0.999140,0.031089,0.000284,-0.027422
6750,-0.027211,0.610711,9.919637,-0.162576,-0.074567,-0.038175,3.547562,0.128009,-3.142524,0.999143,0.030972,0.000267,-0.027442
6751,-0.021513,0.616162,9.901050,0.153280,-0.031831,0.044224,3.546185,0.127379,-3.142536,0.999144,0.030960,0.000262,-0.027442
6752,-0.022488,0.626902,9.908478,-0.142713,-0.050143,0.033543,3.550741,0.125868,-3.141317,0.999143,0.031000,0.000248,-0.027431
6753,-0.024338,0.620650,9.918461,-0.095366,0.050575,-0.004606,3.551970,0.126687,-3.140824,0.999143,0.031010,0.000255,-0.027426
6754,-0.024370,0.618816,9.922562,-0.017525,0.169609,-0.004606,3.552415,0.131770,-3.140744,0.999143,0.031016,0.000299,-0.027427
6755,-0.018404,0.638594,9.938771,-0.186845,0.218434,-0.030547,3.556038,0.137655,-3.140912,0.999141,0.031049,0.000350,-0.027430
6756,-0.024678,0.623640,9.931101,-0.267651,0.316084,-0.155672,3.556515,0.145666,-3.143438,0.999141,0.031055,0.000419,-0.027454
6757,-0.024166,0.606759,9.928740,-0.070817,0.367964,-0.169406,3.549751,0.157279,-3.148143,0.999141,0.030998,0.000521,-0.027499
6758,-0.027819,0.611918,9.927577,-0.137991,0.268778,-0.186190,3.542154,0.168063,-3.153413,0.999142,0.030935,0.000615,-0.027547
6759,-0.037007,0.617676,9.927277,-0.270749,0.320679,-0.285377,3.535100,0.180757,-3.160652,0.999142,0.030876,0.000725,-0.027614
6760,-0.042355,0.593452,9.922777,-0.231114,0.371080,-0.312847,3.521991,0.198303,-3.169909,0.999142,0.030766,0.000879,-0.027699
6761,-0.035085,0.604648,9.923004,-0.212863,0.267345,-0.091590,3.507193,0.212700,-3.176010,0.999145,0.030641,0.001007,-0.027756
6762,-0.032752,0.599984,9.915224,-0.315135,0.314640,-0.109900,3.494412,0.221592,-3.178785,0.999147,0.030532,0.001086,-0.027783
6763,-0.039187,0.604582,9.907866,-0.301421,0.545046,-0.170937,3.481776,0.235219,-3.182593,0.999149,0.030425,0.001207,-0.027819
6764,-0.032964,0.619561,9.936262,-0.420408,0.393963,0.001495,3.473921,0.248966,-3.184445,0.999150,0.030360,0.001329,-0.027839
6765,-0.038772,0.614563,9.919539,-0.260120,0.474808,0.004549,3.470458,0.259866,-3.183434,0.999151,0.030332,0.001425,-0.027833
6766,-0.045495,0.610567,9.915691,-0.325683,0.549568,-0.051910,3.466916,0.275809,-3.183160,0.999152,0.030305,0.001565,-0.027835
6767,-0.049504,0.619013,9.919575,-0.404965,0.593825,-0.030547,3.462589,0.295518,-3.183343,0.999152,0.030272,0.001738,-0.027841
6768,-0.050808,0.605804,9.931753,-0.369815,0.662495,-0.025969,3.456269,0.316806,-3.182988,0.999153,0.030222,0.001925,-0.027844
6769,-0.050995,0.588897,9.893830,-0.113468,0.641122,0.027439,3.447122,0.337244,-3.181662,0.999156,0.030147,0.002106,-0.027837
6770,-0.050698,0.584079,9.903126,-0.276793,0.636516,-0.000027,3.434541,0.355149,-3.179962,0.999159,0.030042,0.002265,-0.027827
6771,-0.066322,0.589003,9.901023,-0.211221,0.754005,-0.138885,3.421310,0.377598,-3.180918,0.999161,0.029932,0.002464,-0.027841
6772,-0.078430,0.588544,9.918639,-0.147155,0.740315,-0.061066,3.412544,0.407789,-3.182778,0.999162,0.029863,0.002729,-0.027865
6773,-0.086271,0.592466,9.935237,-0.173106,0.632042,-0.025974,3.405936,0.438882,-3.182875,0.999162,0.029813,0.003001,-0.027874
6774,-0.099060,0.603244,9.930281,-0.107461,0.571097,-0.051920,3.404784,0.469998,-3.182954,0.999161,0.029810,0.003273,-0.027882
6775,-0.108342,0.612512,9.916112,0.069628,0.809261,0.025896,3.414174,0.507309,-3.181937,0.999157,0.029901,0.003596,-0.027883
6776,-0.098753,0.613157,9.932552,0.072784,0.992462,0.215107,3.429009,0.547846,-3.176025,0.999153,0.030040,0.003948,-0.027843
6778,-0.112903,0.606938,9.930622,-0.006487,1.023048,0.050303,3.439516,0.589291,-3.169511,0.999150,0.030141,0.004308,-0.027797
6779,-0.131064,0.598647,9.926215,-0.052230,1.210848,-0.009215,3.442580,0.639821,-3.166553,0.999147,0.030180,0.004749,-0.027785
6780,-0.131749,0.595323,9.935610,-0.120898,1.374241,-0.091622,3.439614,0.697147,-3.165647,0.999145,0.030168,0.005250,-0.027792
6781,-0.132477,0.583870,9.930683,-0.075157,1.276658,-0.080945,3.431922,0.750639,-3.165924,0.999143,0.030113,0.005718,-0.027807
6782,-0.138718,0.583811,9.888635,-0.198810,1.447610,-0.334253,3.420900,0.802250,-3.170201,0.999142,0.030030,0.006169,-0.027858
6783,-0.129915,0.590945,9.886248,-0.345322,1.826041,-0.149616,3.409096,0.857242,-3.175037,0.999140,0.029940,0.006651,-0.027913
6784,-0.123638,0.603066,9.905131,-0.462787,1.751190,-0.022959,3.399380,0.907221,-3.174310,0.999139,0.029868,0.007089,-0.027919
6785,-0.135610,0.602776,9.946970,-0.644311,1.477936,-0.033632,3.388138,0.947452,-3.171952,0.999139,0.029779,0.007443,-0.027908
6786,-0.143116,0.612034,9.977059,-0.836499,0.960541,0.042671,3.373034,0.975277,-3.169248,0.999141,0.029654,0.007690,-0.027891
6787,-0.161561,0.584515,10.003661,-0.728119,0.081534,0.340231,3.351743,0.983303,-3.161778,0.999148,0.029470,0.007767,-0.027826
6788,-0.158936,0.562838,9.975080,-0.339072,-0.946991,0.508085,3.326615,0.961903,-3.148630,0.999159,0.029245,0.007590,-0.027705
6789,-0.140874,0.546608,9.917363,-0.156083,-1.667320,0.596592,3.303912,0.906278,-3.133016,0.999173,0.029033,0.007114,-0.027553
6790,-0.139437,0.534382,9.878615,-0.189812,-1.771187,0.544715,3.279414,0.835567,-3.117618,0.999188,0.028801,0.006508,-0.027400
6791,-0.139887,0.538520,9.872332,-0.376127,-1.720882,0.303619,3.251901,0.770468,-3.107091,0.999202,0.028546,0.005949,-0.027290
6792,-0.127136,0.558681,9.891555,-0.577622,-1.487442,0.196805,3.227256,0.713600,-3.101911,0.999213,0.028317,0.005460,-0.027230
6793,-0.137520,0.556960,9.907157,-0.820257,-0.777867,-0.119063,3.202506,0.678089,-3.102754,0.999221,0.028093,0.005156,-0.027228
6794,-0.152599,0.547069,9.915341,-0.869109,0.053880,-0.424255,3.171531,0.680680,-3.112502,0.999226,0.027824,0.005184,-0.027312
6795,-0.134045,0.542639,9.947260,-0.768436,0.458372,-0.293033,3.139423,0.704489,-3.124031,0.999230,0.027550,0.005397,-0.027417
6796,-0.124209,0.535077,9.937334,-0.467873,0.536236,-0.097717,3.113430,0.726437,-3.129698,0.999233,0.027329,0.005593,-0.027470
6797,-0.124867,0.522782,9.928313,-0.466412,0.322609,-0.204533,3.089976,0.741189,-3.134053,0.999237,0.027128,0.005726,-0.027510
6798,-0.119152,0.528804,9.925029,-0.475627,0.113532,-0.285406,3.067204,0.745825,-3.141905,0.999240,0.026931,0.005770,-0.027579
6799,-0.120531,0.526149,9.931999,-0.544325,-0.168809,-0.178590,3.046357,0.740024,-3.149724,0.999243,0.026748,0.005723,-0.027644
6800,-0.132579,0.538144,9.915726,-0.648077,-0.351932,-0.222841,3.027660,0.730380,-3.156849,0.999247,0.026583,0.005641,-0.027703
6801,-0.132872,0.514007,9.926743,-0.626715,-0.194736,-0.293035,3.006129,0.724752,-3.165918,0.999250,0.026395,0.005595,-0.027780
6802,-0.131220,0.503242,9.913784,-0.411627,-0.103152,-0.183171,2.980533,0.723612,-3.174208,0.999254,0.026171,0.005590,-0.027851
6803,-0.116324,0.505069,9.901156,-0.361340,-0.238967,-0.245734,2.959531,0.717349,-3.181746,0.999257,0.025987,0.005539,-0.027914
6804,-0.101137,0.527512,9.923913,-0.437626,-0.109342,-0.210634,2.947260,0.702661,-3.189625,0.999259,0.025877,0.005412,-0.027979
6805,-0.110996,0.517108,9.910865,-0.317026,-0.207082,-0.051932,2.940761,0.687812,-3.194189,0.999260,0.025817,0.005283,-0.028015
6806,-0.127838,0.529184,9.902939,-0.294072,-0.280331,-0.067191,2.938424,0.679243,-3.196493,0.999261,0.025795,0.005208,-0.028033
6807,-0.110586,0.536917,9.947097,-0.263441,0.107257,0.036574,2.942589,0.676765,-3.196991,0.999260,0.025830,0.005185,-0.028037
6808,-0.104594,0.523740,9.960491,-0.006995,0.217074,0.280726,2.949077,0.675932,-3.191302,0.999260,0.025886,0.005178,-0.027988
6809,-0.122282,0.514360,9.914884,0.032715,-0.245300,0.166283,2.953992,0.672767,-3.183834,0.999261,0.025928,0.005151,-0.027922
6810,-0.129299,0.529457,9.912793,-0.078626,-0.513820,0.022844,2.959455,0.665129,-3.181265,0.999260,0.025974,0.005083,-0.027898
6811,-0.125435,0.527899,9.912384,0.051159,-0.471039,0.187642,2.968647,0.655172,-3.178498,0.999260,0.026052,0.004995,-0.027872
6812,-0.139209,0.517691,9.904808,0.083250,-0.249694,0.060986,2.976544,0.653351,-3.174916,0.999259,0.026120,0.004978,-0.027841
6813,-0.139515,0.499801,9.910387,0.067963,-0.080190,-0.045836,2.975756,0.662903,-3.174986,0.999258,0.026115,0.005061,-0.027844
6814,-0.120682,0.499921,9.909403,0.177756,0.171665,-0.233529,2.970942,0.673973,-3.179660,0.999258,0.026076,0.005158,-0.027887
6815,-0.102245,0.482250,9.894715,-0.003941,0.478356,-0.566181,2.960271,0.683048,-3.192568,0.999256,0.025986,0.005237,-0.028001
6816,-0.102871,0.486123,9.901202,-0.718211,0.502699,-0.994965,2.931427,0.692157,-3.217906,0.999256,0.025738,0.005318,-0.028223
6817,-0.116173,0.495925,9.908168,-1.137917,0.421783,-1.280311,2.890916,0.704515,-3.255105,0.999255,0.025389,0.005427,-0.028548
6818,-0.134306,0.508774,9.914557,-1.256942,0.395853,-1.274208,2.849997,0.721491,-3.296952,0.999253,0.025039,0.005576,-0.028914
6819,-0.149095,0.496553,9.938539,-1.456827,0.243303,-1.043795,2.805706,0.739224,-3.335001,0.999252,0.024659,0.005734,-0.029248
6820,-0.151652,0.494733,9.951752,-1.350001,0.347123,-0.959872,2.759760,0.757414,-3.367871,0.999252,0.024264,0.005897,-0.029536
6821,-0.148296,0.483700,9.945813,-1.134833,0.489081,-0.793548,2.719584,0.778446,-3.396381,0.999251,0.023921,0.006085,-0.029787
6822,-0.148145,0.481665,9.937144,-1.186697,0.408243,-0.589075,2.682584,0.798733,-3.418672,0.999252,0.023605,0.006267,-0.029983
6823,-0.147782,0.485137,9.933408,-1.237018,0.551706,-0.508202,2.646163,0.818746,-3.436142,0.999254,0.023293,0.006447,-0.030138
6824,-0.147299,0.471795,9.938026,-1.069128,0.737886,-0.236587,2.612195,0.842837,-3.447493,0.999256,0.023004,0.006664,-0.030239
6825,-0.152351,0.467489,9.952165,-0.994327,0.469336,0.057917,2.581499,0.864638,-3.449503,0.999260,0.022742,0.006862,-0.030259
6826,-0.144826,0.459553,9.944969,-0.635704,0.246552,0.207457,2.557943,0.876410,-3.444498,0.999265,0.022539,0.006972,-0.030217
6827,-0.130977,0.448630,9.925845,-0.351856,0.141206,0.352423,2.544734,0.875611,-3.434838,0.999270,0.022423,0.006970,-0.030131
6828,-0.131235,0.434937,9.932379,-0.422051,-0.182390,0.530961,2.531688,0.862248,-3.420162,0.999277,0.022305,0.006860,-0.030000
6829,-0.125450,0.445377,9.928242,-0.464777,-0.577713,0.422624,2.517109,0.835972,-3.404838,0.999286,0.022171,0.006638,-0.029861
6830,-0.123870,0.425110,9.921450,-0.618907,-0.594606,0.230363,2.497852,0.802958,-3.394835,0.999295,0.021994,0.006357,-0.029766
6831,-0.128926,0.423696,9.932929,-0.870735,-0.553482,0.181535,2.467159,0.774479,-3.388884,0.999304,0.021718,0.006117,-0.029707
6832,-0.138097,0.419100,9.916265,-0.704452,-0.825112,0.324972,2.435885,0.749296,-3.381500,0.999313,0.021439,0.005907,-0.029636
6833,-0.128033,0.427905,9.916306,-0.844842,-1.041788,0.146439,2.409544,0.718497,-3.374975,0.999322,0.021201,0.005647,-0.029573
6834,-0.125341,0.421516,9.944447,-0.792938,-0.909036,-0.045827,2.384881,0.685578,-3.374626,0.999328,0.020977,0.005366,-0.029562
6835,-0.123554,0.409071,9.940652,-0.071180,-1.115023,0.140335,2.369940,0.653253,-3.374457,0.999333,0.020839,0.005088,-0.029555
6836,-0.123568,0.426415,9.924223,0.223349,-1.635329,0.131179,2.375604,0.611534,-3.371800,0.999335,0.020877,0.004723,-0.029524
6837,-0.107900,0.430314,9.939922,0.495044,-1.836722,-0.117548,2.397237,0.557171,-3.373878,0.999333,0.021052,0.004243,-0.029533
6838,-0.084642,0.438960,9.931046,1.026165,-1.772657,0.025892,2.434397,0.494157,-3.377821,0.999328,0.021360,0.003683,-0.029557
6839,-0.079619,0.443452,9.910279,0.893518,-1.557546,0.012161,2.479445,0.433496,-3.379454,0.999322,0.021738,0.003142,-0.029562
6840,-0.068609,0.475573,9.913417,0.171921,-1.176094,-0.154162,2.516909,0.384495,-3.383651,0.999315,0.022052,0.002705,-0.029590
6841,-0.063967,0.473020,9.935438,-0.282608,-0.587109,-0.116012,2.538823,0.352662,-3.389276,0.999311,0.022235,0.002420,-0.029633
6842,-0.061289,0.458545,9.938534,-0.728048,-0.078982,-0.018352,2.537545,0.340884,-3.391902,0.999310,0.022221,0.002317,-0.029654
6843,-0.075898,0.440517,9.929996,-1.146107,0.102643,0.036580,2.511580,0.346109,-3.391550,0.999315,0.021996,0.002370,-0.029651
6844,-0.072537,0.437746,9.923918,-1.149152,0.154595,0.212059,2.474186,0.358656,-3.387222,0.999323,0.021673,0.002490,-0.029615
6845,-0.076366,0.412645,9.923062,-1.169022,0.394230,0.260885,2.431661,0.375165,-3.378986,0.999333,0.021306,0.002646,-0.029546
6846,-0.084660,0.398684,9.913064,-1.344596,0.572844,0.105237,2.378737,0.400794,-3.372291,0.999343,0.020851,0.002885,-0.029491
6847,-0.094161,0.417014,9.913934,-1.584207,0.827781,0.074713,2.325020,0.436828,-3.368379,0.999353,0.020391,0.003213,-0.029461
6848,-0.097154,0.409211,9.921489,-1.488047,0.875195,0.204413,2.277196,0.478333,-3.362576,0.999361,0.019985,0.003589,-0.029417
6849,-0.098619,0.369838,9.920349,-1.366016,0.892070,0.286809,2.224442,0.518171,-3.353293,0.999371,0.019534,0.003951,-0.029341
6850,-0.097108,0.372260,9.929770,-1.402730,0.861606,0.329532,2.167421,0.553613,-3.342012,0.999382,0.019046,0.004277,-0.029246
6851,-0.097649,0.357717,9.948833,-1.411962,0.632738,0.349367,2.111347,0.580584,-3.329865,0.999393,0.018563,0.004528,-0.029142
6852,-0.100013,0.341009,9.929068,-1.210645,0.245155,0.251707,2.055118,0.595069,-3.319448,0.999404,0.018076,0.004671,-0.029052
6853,-0.102685,0.335658,9.919873,-1.160398,0.304664,-0.010754,2.002572,0.603778,-3.315245,0.999412,0.017620,0.004760,-0.029014
6854,-0.109758,0.351592,9.938024,-1.056675,0.510674,-0.079421,1.960934,0.618724,-3.316326,0.999418,0.017260,0.004901,-0.029024
6855,-0.111327,0.333708,9.931169,-0.664517,0.626667,-0.137407,1.931576,0.640380,-3.319302,0.999420,0.017010,0.005097,-0.029052
6856,-0.106922,0.330510,9.910892,-0.098423,0.673970,-0.056533,1.915933,0.662181,-3.321836,0.999421,0.016879,0.005291,-0.029076
6857,-0.112779,0.330392,9.926932,0.276942,0.770090,-0.067214,1.917330,0.684591,-3.323109,0.999419,0.016897,0.005486,-0.029091
6858,-0.127841,0.332514,9.938825,0.638582,0.748744,-0.228963,1.931996,0.712072,-3.327198,0.999414,0.017032,0.005721,-0.029131
6859,-0.137918,0.326257,9.920099,1.203153,0.516859,-0.305261,1.960116,0.740253,-3.335409,0.999406,0.017285,0.005958,-0.029208
6860,-0.137814,0.346669,9.926320,2.121748,0.175098,-0.084004,2.014039,0.757572,-3.341504,0.999395,0.017760,0.006095,-0.029267
6861,-0.131224,0.347720,9.925472,3.698036,-0.058357,0.120470,2.111856,0.760849,-3.340811,0.999380,0.018614,0.006098,-0.029267
6862,-0.118335,0.370359,9.932402,5.703105,-0.224700,0.456175,2.269065,0.753786,-3.331381,0.999356,0.019982,0.005998,-0.029192
6863,-0.095774,0.429842,9.939059,8.739745,-0.494847,1.179466,2.515899,0.733645,-3.304585,0.999319,0.022129,0.005765,-0.028967
6864,-0.084113,0.487264,9.947211,11.253047,-0.911518,1.432775,2.862033,0.696896,-3.262083,0.999260,0.025136,0.005366,-0.028606
6865,-0.075653,0.560675,9.953820,13.938812,-1.291581,1.435834,3.298687,0.644863,-3.216192,0.999172,0.028929,0.004815,-0.028213
6866,-0.071676,0.666330,9.939909,17.489826,-1.918838,1.652522,3.845455,0.575876,-3.167998,0.999038,0.033677,0.004093,-0.027795
6867,-0.068150,0.777510,9.918386,19.585167,-2.655946,1.522827,4.493121,0.485578,-3.120557,0.998847,0.039300,0.003165,-0.027374
6868,-0.063460,0.889826,9.889649,20.963345,-3.243491,0.910938,5.201267,0.376596,-3.088234,0.998598,0.045446,0.002059,-0.027068
6869,-0.038333,1.023078,9.869911,22.387318,-3.301533,0.624071,5.957942,0.258642,-3.073194,0.998284,0.052011,0.000860,-0.026896
6870,-0.033037,1.166673,9.886061,23.599215,-3.020808,0.427232,6.761590,0.146372,-3.067348,0.997899,0.058985,-0.000304,-0.026793
6871,-0.030581,1.292973,9.899909,24.110701,-2.793453,0.178508,7.593000,0.047978,-3.069375,0.997447,0.066200,-0.001356,-0.026751
6872,-0.017871,1.402154,9.883738,25.935947,-2.694251,0.131204,8.456077,-0.041224,-3.076978,0.996920,0.073690,-0.002338,-0.026749
6873,-0.005868,1.586796,9.876054,27.808498,-2.286802,-0.062593,9.380600,-0.120175,-3.088692,0.996291,0.081712,-0.003249,-0.026775
6875,0.004065,1.781929,9.826012,30.074823,-2.149434,0.178497,10.384521,-0.189054,-3.099513,0.995535,0.090420,-0.004090,-0.026785
6876,0.011931,1.988249,9.749757,31.143400,-1.897612,0.393644,11.455739,-0.251632,-3.102998,0.994646,0.099708,-0.004886,-0.026721
6877,0.035974,2.207421,9.703650,30.721239,-1.505416,0.396687,12.549238,-0.305700,-3.102080,0.993650,0.109182,-0.005609,-0.026614
6878,0.036227,2.460672,9.669806,30.251896,-1.125432,0.103700,13.642549,-0.346730,-3.104238,0.992562,0.118647,-0.006220,-0.026535
6879,0.030080,2.632621,9.593136,28.952524,-1.030770,-0.128258,14.715000,-0.374704,-3.113855,0.991406,0.127924,-0.006721,-0.026528
6880,0.024622,2.813270,9.578034,26.870333,-0.838423,-0.441097,15.729318,-0.392116,-3.131565,0.990231,0.136689,-0.007127,-0.026599
6881,0.037830,2.958109,9.533230,25.712816,-0.939053,-0.421286,16.684845,-0.406363,-3.153998,0.989052,0.144936,-0.007500,-0.026715
6882,0.017217,3.097688,9.460711,25.786678,-0.728380,-0.277882,17.617098,-0.417428,-3.173656,0.987836,0.152974,-0.007839,-0.026807
6883,0.022887,3.217873,9.422576,25.155502,-0.447493,0.158492,18.533201,-0.420602,-3.181890,0.986579,0.160865,-0.008092,-0.026810
6884,0.030820,3.370818,9.369583,25.400167,-0.253597,0.758143,19.437944,-0.423364,-3.171488,0.985281,0.168649,-0.008312,-0.026652
6885,0.030760,3.504000,9.308177,25.869137,0.089832,1.325751,20.353235,-0.425473,-3.140010,0.983909,0.176515,-0.008494,-0.026311
6886,0.018614,3.653126,9.263384,27.972351,0.949037,1.354700,21.309164,-0.411022,-3.092330,0.982413,0.184724,-0.008512,-0.025854
6887,0.020693,3.804391,9.219206,27.806505,1.191776,1.232578,22.295471,-0.378633,-3.039259,0.980799,0.193184,-0.008368,-0.025380
6888,0.019697,3.936271,9.123322,27.782537,0.926372,1.461421,23.275448,-0.349547,-2.984339,0.979122,0.201576,-0.008240,-0.024890
6889,0.011786,4.052112,9.100616,26.772741,0.761676,1.881003,24.228462,-0.332557,-2.922052,0.977425,0.209720,-0.008187,-0.024320
6890,0.014813,4.183980,9.042642,26.156546,0.270428,2.347890,25.143314,-0.333107,-2.850789,0.975734,0.217522,-0.008251,-0.023646
6891,0.032563,4.271865,8.945031,23.141523,-1.247794,2.942966,25.989077,-0.376029,-2.778200,0.974118,0.224713,-0.008647,-0.022883
6892,0.058312,4.384597,8.867512,21.737820,-1.975626,3.329008,26.754137,-0.466001,-2.708317,0.972611,0.231199,-0.009423,-0.022050
6893,0.071742,4.538004,8.849443,20.048769,-1.871846,3.300007,27.467819,-0.571141,-2.639237,0.971166,0.237236,-0.010308,-0.021188
6894,0.092728,4.646009,8.808481,18.219337,-1.777223,3.116886,28.123280,-0.672540,-2.573119,0.969806,0.242772,-0.011147,-0.020354
6895,0.095849,4.716456,8.754389,16.568398,-1.703949,2.599581,28.715645,-0.764954,-2.517039,0.968547,0.247769,-0.011912,-0.019622
6896,0.108985,4.826422,8.732680,16.045090,-1.418554,2.443909,29.268602,-0.844737,-2.468807,0.967347,0.252429,-0.012573,-0.018981
6897,0.130791,4.928904,8.698614,15.466864,-1.445979,2.256196,29.805145,-0.919028,-2.424305,0.966161,0.256946,-0.013189,-0.018380
6898,0.131435,4.949525,8.666162,15.030490,-1.230778,1.509991,30.317778,-0.982592,-2.392339,0.965005,0.261257,-0.013733,-0.017907
6899,0.125610,4.993254,8.610162,16.142830,-1.088790,0.695103,30.830111,-1.023987,-2.380177,0.963829,0.265563,-0.014133,-0.017647
6900,0.143527,5.092508,8.557595,17.380299,-1.302336,0.183871,31.381931,-1.054258,-2.388017,0.962537,0.270194,-0.014491,-0.017573
6901,0.141143,5.187467,8.512263,17.561861,-1.268687,-0.447909,31.962343,-1.077405,-2.414121,0.961151,0.275058,-0.014836,-0.017663
6902,0.123773,5.266423,8.483205,18.277489,-1.193808,-0.792836,32.556545,-1.085840,-2.453326,0.959705,0.280031,-0.015094,-0.017893
6903,0.133031,5.362693,8.410004,20.070419,-1.562960,-0.646423,33.192448,-1.094196,-2.498170,0.958129,0.285345,-0.015375,-0.018163
6904,0.131537,5.488795,8.338345,21.942755,-1.842090,-0.545786,33.896820,-1.113988,-2.545949,0.956349,0.291218,-0.015773,-0.018417
6905,0.130909,5.617847,8.270309,24.100510,-1.774828,-0.756446,34.676521,-1.133987,-2.597832,0.954337,0.297707,-0.016199,-0.018689
6906,0.132982,5.731833,8.170185,27.028898,-1.541237,-1.197527,35.546432,-1.142104,-2.656348,0.952040,0.304933,-0.016563,-0.019030
6907,0.144681,5.825005,8.045821,29.180605,-1.724234,-1.124367,36.502769,-1.146405,-2.719774,0.949451,0.312857,-0.016930,-0.019405
6908,0.161453,5.958074,7.921216,29.749943,-2.400133,0.081048,37.506077,-1.177802,-2.775178,0.946665,0.321143,-0.017514,-0.019626
6909,0.195729,6.084424,7.820321,27.517685,-3.082180,1.149161,38.481918,-1.255897,-2.815439,0.943888,0.329168,-0.018440,-0.019583
6910,0.219180,6.188628,7.761337,23.855562,-3.178309,1.188829,39.350475,-1.360597,-2.850770,0.941358,0.336282,-0.019551,-0.019425
6911,0.239158,6.295944,7.724576,19.947649,-2.903645,0.494536,40.079475,-1.457084,-2.893880,0.939190,0.342233,-0.020594,-0.019365
6912,0.234077,6.397643,7.685324,16.819405,-2.162027,-0.320319,40.681789,-1.520763,-2.946084,0.937367,0.347140,-0.021374,-0.019490
6913,0.221599,6.445840,7.637629,14.615796,-1.048042,-1.731847,41.186737,-1.529629,-3.006429,0.935818,0.351253,-0.021717,-0.019861
6914,0.206313,6.505684,7.598892,14.398878,0.244516,-3.289894,41.643734,-1.469374,-3.077277,0.934399,0.354985,-0.021524,-0.020539
6915,0.178729,6.561743,7.534876,15.564434,1.321948,-4.054486,42.114624,-1.348430,-3.150136,0.932921,0.358839,-0.020852,-0.021423
6916,0.147801,6.599990,7.462286,18.809822,1.732572,-3.543428,42.658413,-1.201891,-3.208451,0.931197,0.363290,-0.019948,-0.022263
6917,0.143167,6.661831,7.363005,22.387880,1.516028,-2.675295,43.317165,-1.069737,-3.246440,0.929084,0.368665,-0.019127,-0.022882
6918,0.120721,6.747123,7.270817,25.746239,0.879834,-1.447028,44.095325,-0.974674,-3.267715,0.926553,0.374987,-0.018583,-0.023235
6919,0.129383,6.906429,7.125397,28.694235,-0.137866,0.564056,44.991497,-0.940517,-3.268979,0.923591,0.382230,-0.018493,-0.023213
6920,0.153324,7.065941,6.984472,29.425224,-1.035069,2.036531,45.968578,-0.977982,-3.252357,0.920302,0.390084,-0.018934,-0.022793
6921,0.174642,7.206383,6.870174,28.140551,-1.920103,2.210481,46.946205,-1.062450,-3.239441,0.916946,0.397902,-0.019759,-0.022234
6922,0.189728,7.314112,6.771626,25.021692,-2.177993,2.013643,47.848698,-1.161903,-3.242306,0.913785,0.405085,-0.020737,-0.021748
6923,0.216283,7.428087,6.669535,20.991829,-1.886558,1.078266,48.628151,-1.248155,-3.258758,0.911007,0.411265,-0.021629,-0.021428
6924,0.211653,7.448434,6.628794,17.267029,-1.218209,-0.330155,49.264835,-1.292744,-3.289608,0.908703,0.416303,-0.022213,-0.021390
6925,0.194839,7.481821,6.571896,15.640214,-0.919098,-0.638422,49.792709,-1.298518,-3.326746,0.906769,0.420475,-0.022493,-0.021560
6926,0.193377,7.531386,6.472460,14.608476,-0.641327,-0.218845,50.271786,-1.295416,-3.355228,0.904998,0.424258,-0.022664,-0.021702
6927,0.196907,7.603434,6.396198,14.829564,-0.107204,-0.789593,50.742573,-1.281796,-3.375012,0.903243,0.427972,-0.022720,-0.021816
6928,0.189471,7.703912,6.355099,16.184460,0.422341,-1.381708,51.244743,-1.241497,-3.393325,0.901354,0.431934,-0.022567,-0.022012
6929,0.182198,7.743743,6.278114,16.797771,0.359831,-1.120836,51.781265,-1.191004,-3.408722,0.899318,0.436160,-0.022332,-0.022219
6930,0.186998,7.755096,6.189485,18.021427,0.236273,-1.181921,52.345566,-1.146983,-3.424044,0.897154,0.440592,-0.022156,-0.022399
6931,0.179884,7.816008,6.114141,19.245062,0.337014,-1.517659,52.948158,-1.099938,-3.443300,0.894819,0.445313,-0.021981,-0.022615
6932,0.175690,7.905966,6.040589,19.740841,0.013546,-0.924105,53.580513,-1.058920,-3.462567,0.892343,0.450252,-0.021862,-0.022805
6933,0.178151,7.958972,5.923020,20.464012,-0.505253,-0.083338,54.236713,-1.047217,-3.478740,0.889746,0.455354,-0.021965,-0.022851
6934,0.179623,8.039253,5.814287,21.719774,-0.818062,0.082982,54.931339,-1.058987,-3.496492,0.886967,0.460733,-0.022266,-0.022808
6935,0.174965,8.088161,5.729737,21.329063,-1.147654,0.359166,55.640266,-1.082266,-3.519036,0.884096,0.466200,-0.022678,-0.022749
6936,0.187122,8.145576,5.617275,19.693172,-0.909601,0.420195,56.312439,-1.111061,-3.539925,0.881344,0.471366,-0.023118,-0.022657
6937,0.180370,8.196263,5.526416,17.961136,-0.050496,-0.567088,56.926941,-1.116200,-3.554370,0.878801,0.476081,-0.023339,-0.022623
6938,0.162759,8.262269,5.493407,15.775834,0.935282,-1.420121,57.468094,-1.074319,-3.559520,0.876539,0.480236,-0.023147,-0.022727
6939,0.156669,8.311494,5.425098,14.025358,1.765428,-1.662801,57.935883,-0.998171,-3.548364,0.874569,0.483834,-0.022611,-0.022869
6940,0.134159,8.389825,5.370039,13.140079,2.438410,-2.302232,58.359249,-0.895138,-3.523159,0.872773,0.487094,-0.021804,-0.023032
6941,0.110240,8.437887,5.317677,13.255814,2.255356,-2.444227,58.770386,-0.774630,-3.497148,0.871016,0.490259,-0.020859,-0.023272
6942,0.097341,8.446807,5.279706,14.055115,1.289500,-1.981955,59.191483,-0.669065,-3.483952,0.869203,0.493486,-0.020087,-0.023550
6943,0.093100,8.456510,5.179348,15.147374,0.761570,-2.267362,59.641869,-0.582081,-3.489990,0.867247,0.496920,-0.019548,-0.023894
6944,0.070563,8.478677,5.131530,16.468513,0.944716,-2.586334,60.131374,-0.490232,-3.505498,0.865104,0.500640,-0.019024,-0.024329
6945,0.080243,8.533484,5.018788,17.351728,0.805880,-2.288813,60.659687,-0.400180,-3.519881,0.862774,0.504643,-0.018522,-0.024746
6946,0.063601,8.578870,4.963069,17.462849,0.389310,-1.675400,61.207466,-0.331299,-3.534276,0.860341,0.508776,-0.018186,-0.025071
6947,0.043332,8.655638,4.843948,17.337484,-0.088291,-0.347865,61.758770,-0.296444,-3.545729,0.857877,0.512916,-0.018097,-0.025225
6948,0.042874,8.763977,4.741983,16.708675,-0.773418,1.216186,62.310825,-0.312681,-3.551452,0.855397,0.517038,-0.018366,-0.025107
6949,0.056837,8.831362,4.601815,16.931458,-1.682866,2.121052,62.871319,-0.380008,-3.562104,0.852863,0.521198,-0.019038,-0.024790
6950,0.061747,8.831105,4.517071,17.460997,-1.574525,2.339258,63.449757,-0.470637,-3.576963,0.850229,0.525471,-0.019903,-0.024388
6951,0.084485,8.828483,4.377345,17.979856,-0.918377,2.200399,64.045853,-0.556791,-3.580794,0.847493,0.529865,-0.020684,-0.023914
6952,0.108636,8.851911,4.298558,19.057207,0.055154,1.190254,64.668739,-0.616344,-3.569396,0.844609,0.534451,-0.021200,-0.023439
6953,0.109801,8.869743,4.197678,20.818138,0.941707,0.148065,65.334488,-0.632028,-3.545020,0.841496,0.539349,-0.021336,-0.023062
6954,0.098818,8.918461,4.136872,21.617678,1.434584,0.012252,66.035973,-0.617356,-3.507840,0.838184,0.544501,-0.021193,-0.022729
6955,0.087611,9.027153,3.997597,21.570345,1.028703,-0.587469,66.751892,-0.587988,-3.474001,0.834770,0.549740,-0.020958,-0.022491
6956,0.081425,9.150572,3.921280,21.245350,0.920381,-1.153630,67.468513,-0.542947,-3.455348,0.831314,0.554964,-0.020681,-0.022442
6957,0.093837,9.157414,3.798818,21.080561,0.229147,-0.177060,68.175148,-0.512194,-3.445964,0.827875,0.560089,-0.020551,-0.022397
6958,0.110578,9.165549,3.716800,20.195473,-0.640640,0.695794,68.856895,-0.525958,-3.449075,0.824529,0.565001,-0.020799,-0.022229
6959,0.138181,9.210376,3.558494,19.397366,-1.125915,0.102287,69.511215,-0.558983,-3.471847,0.821289,0.569687,-0.021275,-0.022109
6960,0.152987,9.252408,3.486243,19.533144,-1.063397,1.266686,70.156845,-0.608092,-3.498370,0.818067,0.574289,-0.021883,-0.021931
6961,0.168393,9.313174,3.378049,20.639389,-1.608201,2.971281,70.820312,-0.706844,-3.516824,0.814736,0.578987,-0.022804,-0.021436
6962,0.170114,9.403455,3.267128,20.514248,-1.522793,3.201821,71.504570,-0.837004,-3.533095,0.811275,0.583806,-0.023936,-0.020751
6963,0.184716,9.449738,3.119791,20.045839,-1.200858,3.348407,72.186829,-0.967332,-3.542457,0.807796,0.588590,-0.025026,-0.020005
6964,0.194023,9.470679,3.059057,18.280373,-0.944526,3.513281,72.829018,-1.096525,-3.542351,0.804498,0.593074,-0.026044,-0.019194
6965,0.224155,9.474924,2.983436,15.744202,-0.717184,2.739706,73.386147,-1.212917,-3.538448,0.801616,0.596948,-0.026930,-0.018433
6966,0.249237,9.422093,2.880985,12.878368,-0.402867,1.964623,73.845703,-1.304212,-3.533985,0.799224,0.600134,-0.027617,-0.017815
6967,0.272350,9.437103,2.816298,10.644238,-0.087026,1.471853,74.216309,-1.374422,-3.525703,0.797286,0.602698,-0.028119,-0.017299
6968,0.280010,9.489671,2.772813,9.105905,-0.062638,1.000449,74.521095,-1.427968,-3.516516,0.795686,0.604804,-0.028488,-0.016877
6969,0.292306,9.526625,2.713663,8.914970,-0.296128,1.201975,74.798225,-1.477710,-3.512074,0.794225,0.606714,-0.028850,-0.016514
6970,0.288816,9.522170,2.667939,9.273381,-0.622697,1.932987,75.079628,-1.543589,-3.512788,0.792737,0.608644,-0.029349,-0.016098
6971,0.288705,9.570766,2.626974,9.711140,-1.106429,2.209244,75.374352,-1.625645,-3.522506,0.791173,0.610655,-0.030009,-0.015651
6972,0.292030,9.587483,2.544089,11.160630,-1.739694,2.049060,75.706444,-1.710809,-3.550301,0.789402,0.612913,-0.030789,-0.015300
6973,0.309378,9.581699,2.484046,12.091345,-2.191372,2.215415,76.083488,-1.799223,-3.596230,0.787381,0.615468,-0.031693,-0.015039
6974,0.322974,9.556038,2.420968,12.187367,-2.417214,2.004870,76.476494,-1.889698,-3.653804,0.785263,0.618121,-0.032674,-0.014836
6975,0.341767,9.588538,2.373153,12.521402,-2.377544,1.045098,76.873589,-1.961821,-3.719372,0.783113,0.620797,-0.033573,-0.014779
6976,0.362514,9.598228,2.303013,13.572610,-2.220379,0.218095,77.292282,-2.005316,-3.788838,0.780833,0.623620,-0.034301,-0.014893
6978,0.362183,9.612652,2.235251,14.713847,-2.372978,0.396678,77.747559,-2.037814,-3.860843,0.778341,0.626685,-0.034974,-0.015067
6979,0.360382,9.622496,2.131684,16.683687,-2.675113,0.147984,78.258202,-2.068003,-3.940791,0.775533,0.630113,-0.035685,-0.015286
6980,0.362846,9.670585,1.976168,19.264019,-2.983353,0.225825,78.859474,-2.095159,-4.032047,0.772205,0.634135,-0.036452,-0.015563
6981,0.347363,9.681442,1.787396,22.026127,-3.271759,-0.021383,79.573181,-2.117072,-4.134686,0.768229,0.638892,-0.037268,-0.015902
6982,0.325172,9.699859,1.616319,23.668364,-2.859760,-1.240660,80.379730,-2.106692,-4.240507,0.763697,0.644252,-0.037905,-0.016403
6983,0.314817,9.719384,1.488956,23.535997,-2.086112,-2.725491,81.216660,-2.042188,-4.334147,0.758952,0.649804,-0.038128,-0.017112
6984,0.306393,9.709869,1.364346,22.845104,-1.399440,-3.491614,82.034531,-1.934968,-4.408194,0.754272,0.655217,-0.037967,-0.017941
6985,0.295843,9.671633,1.249285,21.649071,-0.337393,-4.440835,82.812325,-1.796457,-4.455442,0.749784,0.660354,-0.037455,-0.018791
6986,0.281764,9.668321,1.128414,19.917381,0.591897,-4.274579,83.533821,-1.643285,-4.469378,0.745589,0.665110,-0.036658,-0.019536
6987,0.287221,9.730980,1.035339,19.154610,0.947435,-2.669326,84.207710,-1.522915,-4.456873,0.741651,0.669527,-0.035921,-0.019943
6988,0.286257,9.764246,0.916911,19.388247,1.270922,-1.305111,84.869781,-1.458100,-4.426887,0.737766,0.673831,-0.035442,-0.019924
6989,0.299185,9.823558,0.790239,18.747559,1.945368,0.449791,85.527985,-1.450127,-4.375301,0.733891,0.678076,-0.035200,-0.019436
6990,0.312228,9.878774,0.693704,17.621632,2.094892,2.013997,86.156944,-1.502064,-4.305845,0.730177,0.682099,-0.035223,-0.018491
6991,0.337823,9.932398,0.652470,15.273345,2.165069,2.781702,86.716614,-1.597336,-4.230448,0.726862,0.685650,-0.035466,-0.017270
6992,0.352179,9.899560,0.542426,11.762240,1.695072,2.969574,87.170998,-1.711569,-4.161363,0.724162,0.688512,-0.035840,-0.016005
6993,0.350096,9.857814,0.519349,9.001833,0.982457,2.676754,87.514549,-1.822416,-4.112471,0.722114,0.690660,-0.036291,-0.014921
6994,0.339863,9.842494,0.452562,6.967704,0.427017,1.570556,87.771500,-1.904005,-4.085878,0.720577,0.692259,-0.036676,-0.014179
6995,0.332697,9.844884,0.380004,5.345618,0.219491,0.484135,87.973091,-1.942414,-4.073769,0.719363,0.693517,-0.036868,-0.013805
6996,0.308782,9.819489,0.341551,5.600460,0.115729,-1.575887,88.156670,-1.921234,-4.068853,0.718250,0.694677,-0.036728,-0.013844
6997,0.295289,9.822729,0.274781,6.252087,0.929047,-4.482847,88.360657,-1.811216,-4.054746,0.717001,0.695995,-0.035979,-0.014359
6998,0.251156,9.934538,0.206359,5.278690,2.169623,-6.790163,88.568687,-1.607924,-4.008684,0.715718,0.697372,-0.034457,-0.015245
6999,0.221956,9.855359,0.197217,7.372412,2.725059,-8.610734,88.795952,-1.332383,-3.933543,0.714307,0.698894,-0.032312,-0.016390
7000,0.168783,9.820634,0.254054,8.281865,3.372055,-9.883494,89.055061,-1.005647,-3.837665,0.712692,0.700622,-0.029732,-0.017719
7001,0.128852,9.839296,0.167970,8.376408,3.509392,-9.740182,89.323326,-0.661903,-3.727378,0.711014,0.702402,-0.026966,-0.019073
7002,0.076700,9.835769,0.206075,8.788291,3.259142,-8.536325,89.594513,-0.344483,-3.617208,0.709315,0.704179,-0.024370,-0.020279
7003,0.083578,9.771088,0.174056,9.378587,1.995679,-6.964638,89.868492,-0.083992,-3.530549,0.707598,0.705943,-0.022276,-0.021290
7004,0.054149,9.877129,0.139896,6.886481,0.416347,-4.396426,90.107231,0.095946,-3.490258,0.706099,0.707458,-0.020963,-0.022106
7005,0.038103,9.937724,0.026552,5.317634,-1.599400,-2.000609,90.287086,0.188967,-3.509627,0.704966,0.708578,-0.020545,-0.022767
7006,0.036268,9.897598,0.035409,4.719315,-2.955948,0.051908,90.435326,0.204033,-3.585417,0.704030,0.709479,-0.020951,-0.023300
7007,0.027992,9.831092,-0.016884,4.404801,-4.361324,1.263653,90.566284,0.164002,-3.707654,0.703202,0.710252,-0.021981,-0.023778
7008,0.026874,9.790284,-0.058382,4.390951,-4.545960,1.477426,90.698502,0.102734,-3.856680,0.702364,0.711022,-0.023309,-0.024286
7009,0.032202,9.796311,-0.076737,4.050570,-4.123279,0.958739,90.827156,0.048750,-4.001758,0.701546,0.711769,-0.024568,-0.024812
7010,0.043597,9.755548,-0.061854,5.861696,-3.703648,0.427841,90.974449,0.012798,-4.132614,0.700610,0.712633,-0.025633,-0.025357
7011,0.028387,9.760798,-0.136372,6.648904,-3.956949,-0.125932,91.162636,-0.006424,-4.260428,0.699414,0.713749,-0.026588,-0.025976
7012,0.028168,9.836894,-0.205842,5.612743,-4.321643,-0.380620,91.360130,-0.011791,-4.398254,0.698153,0.714920,-0.027525,-0.026736
7013,0.023509,9.756395,-0.356487,5.114086,-4.408618,-0.319465,91.577354,-0.010596,-4.543476,0.696761,0.716207,-0.028477,-0.027574
7014,0.009611,9.760057,-0.377715,4.664508,-3.450335,-1.558445,91.808899,0.015976,-4.673532,0.695274,0.717587,-0.029185,-0.028472
7015,-0.005132,9.806645,-0.416170,1.803924,-2.575980,-1.826995,91.979607,0.074109,-4.772084,0.694164,0.718611,-0.029494,-0.029390
7016,0.005968,9.864212,-0.402366,-0.872216,-1.172127,-1.817822,92.034988,0.134978,-4.832384,0.693785,0.718946,-0.029518,-0.030123
7017,0.010041,9.854756,-0.367083,-2.462135,0.330911,-1.141774,91.990746,0.177203,-4.844661,0.694048,0.718686,-0.029327,-0.030473
7018,0.000158,9.943550,-0.222144,-3.939359,1.258677,-0.389416,91.868813,0.192524,-4.817368,0.694815,0.717957,-0.029031,-0.030435
7019,0.004627,9.881316,-0.213121,-4.090706,1.199167,0.893970,91.701515,0.172904,-4.776780,0.695879,0.716948,-0.028852,-0.030108
7020,0.015341,9.864565,-0.208068,-3.573652,1.147288,0.984100,91.545708,0.128476,-4.738649,0.696875,0.715999,-0.028843,-0.029638
7021,0.019834,9.837633,-0.193583,-2.627768,1.005379,0.903332,91.419617,0.083451,-4.703629,0.697683,0.715230,-0.028866,-0.029176
7022,0.013748,9.833520,-0.148737,-1.543037,1.168655,0.242691,91.325859,0.053299,-4.667888,0.698285,0.714661,-0.028802,-0.028793
7023,0.021167,9.856726,-0.162634,-1.477618,1.113724,-0.277579,91.252220,0.044524,-4.629858,0.698756,0.714219,-0.028600,-0.028525
7024,0.015189,9.867182,-0.148668,-1.534237,0.941296,-0.398062,91.182800,0.047328,-4.595380,0.699196,0.713805,-0.028351,-0.028350
7025,0.005591,9.872090,-0.135960,-1.516088,1.186971,-0.547559,91.112442,0.057064,-4.559608,0.699641,0.713387,-0.028052,-0.028209
7026,-0.007551,9.865809,-0.132810,-1.830584,1.388393,-0.668087,91.038322,0.074190,-4.516324,0.700108,0.712949,-0.027660,-0.028069
7027,-0.012687,9.856977,-0.116735,-1.887188,1.107622,-0.652826,90.958908,0.095134,-4.474365,0.700607,0.712478,-0.027251,-0.027962
7028,-0.023088,9.847000,-0.100151,-1.357845,0.877207,-0.745915,90.886490,0.118882,-4.440941,0.701060,0.712049,-0.026880,-0.027923
