seq,ax,ay,az,wroll,wpitch,wyaw,roll,pitch,yaw,q0,q1,q2,q3
60,-0.380289,-9.198348,-0.138554,-22.954113,0.502596,8.498020,-90.863029,2.367218,-110.036530,0.414302,-0.396473,0.591890,-0.566418
61,-1.216242,-7.753992,-6.004651,-96.243042,7.045602,44.190712,-92.857002,3.240668,-110.190918,0.411045,-0.398426,0.605094,-0.553317
62,-1.495001,-7.833527,-6.066038,-85.011299,7.686829,46.254551,-95.900955,4.724094,-110.550972,0.406353,-0.399942,0.625521,-0.532586
63,-1.491213,-7.920238,-6.043715,-75.468468,7.375380,37.307629,-98.613335,6.073167,-110.975761,0.401994,-0.400523,0.643462,-0.513749
64,-1.636768,-8.135528,-5.620360,-82.368202,10.994908,23.617373,-101.296860,7.019576,-111.456421,0.395511,-0.402549,0.659672,-0.496346
65,-1.866574,-8.056460,-5.178855,-48.312096,13.654620,7.127497,-103.538139,7.431195,-111.974762,0.387628,-0.405237,0.672195,-0.483406
66,-1.992251,-8.232866,-4.673650,-29.546530,16.664373,-4.534944,-104.899895,7.350009,-112.480904,0.380231,-0.407195,0.679486,-0.477405
67,-1.956672,-8.486922,-4.433456,-8.599519,15.105196,-18.031286,-105.586601,6.848634,-112.897293,0.373254,-0.409304,0.682539,-0.476753
68,-1.955039,-8.940786,-4.434537,7.505360,14.811717,-23.780413,-105.637489,6.043722,-113.193176,0.367307,-0.411417,0.681735,-0.480687
69,-1.857968,-9.048836,-5.015153,4.006119,17.570862,-16.911465,-105.478912,5.246006,-113.533775,0.361928,-0.412552,0.680208,-0.485927
70,-1.717622,-9.331059,-5.505888,-6.516140,14.786797,-10.782278,-105.555466,4.656879,-113.931282,0.356611,-0.413132,0.680415,-0.489067
71,-1.505529,-9.219924,-5.876218,-22.827618,12.100297,-6.977461,-106.071922,4.249684,-114.282341,0.350916,-0.414495,0.682814,-0.488689
72,-1.186215,-8.717283,-5.952936,-43.696411,15.336562,-3.659431,-107.208359,3.948447,-114.670021,0.343406,-0.416979,0.688259,-0.484252
73,-1.039195,-8.070827,-6.282796,-64.785797,15.823599,0.848944,-109.048386,3.742149,-115.149323,0.333467,-0.420433,0.697188,-0.475358
74,-0.912891,-7.724104,-5.920167,-66.089058,11.216140,4.214147,-111.258255,3.665684,-115.601349,0.323014,-0.424324,0.707718,-0.463408
75,-0.776097,-7.633500,-5.986944,-58.568260,8.088966,5.099703,-113.358025,3.686652,-115.957726,0.313910,-0.427854,0.717473,-0.451257
76,-0.728249,-7.454711,-6.014450,-51.623222,4.967570,6.391800,-115.212029,3.771531,-116.235001,0.306406,-0.430775,0.725918,-0.439991
77,-0.708272,-7.249949,-5.995525,-44.647060,1.810048,7.759351,-116.829956,3.933725,-116.440010,0.300536,-0.433096,0.733190,-0.429579
78,-0.687422,-7.232543,-5.756473,-32.379730,0.661339,8.664282,-118.125046,4.157379,-116.602837,0.296428,-0.434532,0.739094,-0.420775
79,-0.765369,-7.265174,-5.986163,-25.146734,-0.753032,7.677304,-119.093361,4.397280,-116.731918,0.293793,-0.435246,0.743614,-0.413865
80,-0.791277,-7.323397,-6.020358,-19.198915,-1.103113,4.185496,-119.837936,4.584573,-116.802338,0.291895,-0.435961,0.746938,-0.408435
81,-0.695837,-7.724301,-5.925748,-17.649080,0.887259,-2.028060,-120.453278,4.617391,-116.817413,0.289705,-0.437297,0.749244,-0.404322
82,-0.637258,-8.205916,-5.771247,-5.178066,1.524437,-8.890905,-120.829124,4.440270,-116.759346,0.287345,-0.439303,0.749989,-0.402446
83,-0.423250,-8.442614,-5.330594,-1.117902,3.302575,-18.287933,-120.921997,4.010070,-116.595818,0.284820,-0.442243,0.748818,-0.403201
84,-0.121284,-8.746973,-4.768648,5.768519,4.728538,-29.371290,-120.825905,3.259570,-116.302711,0.281442,-0.446757,0.745794,-0.406189
85,0.095973,-8.817575,-4.385079,10.100591,4.723767,-34.748295,-120.541656,2.260088,-115.892738,0.277645,-0.452481,0.741043,-0.411131
86,0.399210,-8.765658,-4.075671,13.627688,4.593929,-36.537735,-120.132278,1.156286,-115.426765,0.273922,-0.458620,0.735266,-0.417156
87,0.483898,-8.769910,-3.981579,15.022904,1.882894,-31.554577,-119.649529,0.118632,-114.955063,0.270992,-0.464338,0.729202,-0.423340
88,0.624039,-8.641832,-3.854976,17.252056,-0.364330,-24.536228,-119.113731,-0.708334,-114.518822,0.269545,-0.468898,0.723456,-0.429059
89,0.707011,-8.568842,-3.998003,14.258121,-2.586995,-14.279733,-118.594513,-1.251289,-114.163925,0.269573,-0.471916,0.718709,-0.433686
90,0.757032,-8.401514,-3.921207,12.192614,-4.016425,-6.543460,-118.159843,-1.504356,-113.902367,0.270762,-0.473464,0.715344,-0.436810
91,0.673377,-8.294741,-3.850673,11.854481,-5.621280,0.846683,-117.763870,-1.512936,-113.716110,0.273056,-0.473717,0.713039,-0.438871
92,0.727416,-8.174660,-4.055067,8.743026,-6.685969,3.908536,-117.424095,-1.347741,-113.571198,0.276052,-0.473187,0.711559,-0.439969
93,0.529085,-8.407166,-4.363115,5.021246,-9.510131,10.060011,-117.197395,-1.017016,-113.438255,0.279567,-0.472221,0.710985,-0.439715
94,0.165915,-8.659208,-4.684833,2.260621,-12.717636,18.752447,-117.077347,-0.420675,-113.327805,0.284204,-0.470359,0.711585,-0.437764
95,-0.210887,-8.870893,-4.955678,1.062250,-15.312686,26.286736,-117.021828,0.460291,-113.253326,0.290191,-0.467330,0.713275,-0.434317
96,-0.621813,-9.011225,-5.079333,0.149022,-17.402798,31.996235,-117.000732,1.573265,-113.208817,0.297335,-0.463276,0.715745,-0.429740
97,-1.234991,-9.070756,-4.958249,1.163464,-19.570854,38.753773,-116.978249,2.903516,-113.194916,0.305673,-0.458134,0.718783,-0.424298
98,-1.916953,-9.024738,-4.782866,3.426302,-21.688892,43.577328,-116.902176,4.438087,-113.203484,0.315345,-0.451829,0.722085,-0.418332
99,-2.257055,-8.721281,-4.625982,3.507360,-21.329672,40.016747,-116.785614,6.004625,-113.192635,0.325373,-0.445310,0.725114,-0.412361
100,-2.539737,-8.576076,-4.523238,1.583659,-19.449848,34.448349,-116.695198,7.418531,-113.143723,0.334443,-0.439629,0.727646,-0.406702
101,-2.925237,-8.312691,-4.516266,-3.259066,-20.784269,37.907780,-116.715126,8.796984,-113.086235,0.342847,-0.434401,0.730362,-0.400403
102,-3.090397,-8.070623,-4.616590,-9.051786,-16.067867,31.118607,-116.915459,10.100598,-113.057144,0.349978,-0.429798,0.733556,-0.393301
103,-2.906055,-7.991917,-4.531849,-7.696004,-5.609023,13.062508,-117.197052,10.920624,-113.071266,0.353758,-0.427160,0.736154,-0.387901
104,-2.899858,-7.928954,-4.447532,-7.342931,-0.248723,7.844689,-117.462044,11.275012,-113.146248,0.354627,-0.426020,0.737995,-0.384850
105,-2.876301,-7.894727,-4.443690,-5.378850,3.940580,4.496941,-117.704071,11.428883,-113.299141,0.354132,-0.425142,0.739660,-0.383076
106,-2.618211,-7.999237,-4.500702,-4.348380,8.001580,-0.012520,-117.908707,11.402199,-113.514366,0.352495,-0.424494,0.741093,-0.382536
107,-2.227470,-8.132529,-4.542346,-3.400984,12.013083,-4.741767,-118.089165,11.175671,-113.776855,0.349593,-0.424287,0.742253,-0.383179
108,-1.918401,-8.209629,-4.782866,-6.165695,15.227706,-7.933022,-118.306755,10.775001,-114.082825,0.345353,-0.424618,0.743381,-0.384468
110,-1.428339,-8.282184,-4.949980,-10.423433,19.727470,-15.284815,-118.643707,10.157058,-114.415955,0.339243,-0.425998,0.744614,-0.385992
111,-0.833517,-8.339211,-4.961227,-15.042002,24.557989,-23.378191,-119.125153,9.236270,-114.755745,0.330685,-0.428937,0.745800,-0.387870
112,-0.333445,-8.411933,-4.842327,-14.633591,28.455626,-29.787689,-119.670334,8.030595,-115.094353,0.320063,-0.433110,0.746655,-0.390490
113,0.126120,-8.431809,-4.947937,-14.532347,31.203850,-34.129684,-120.198662,6.611495,-115.427399,0.308090,-0.437978,0.746996,-0.394022
114,0.585231,-8.323101,-4.851894,-11.617459,32.541138,-36.712456,-120.666817,5.055652,-115.747147,0.295409,-0.443146,0.746761,-0.398376
115,0.844095,-8.293999,-4.842444,-7.048705,30.370247,-33.810844,-121.000114,3.509385,-116.046219,0.283260,-0.447914,0.745929,-0.403394
116,0.859343,-8.441162,-4.960640,-2.469776,25.219595,-27.641764,-121.171860,2.154237,-116.311531,0.272984,-0.451675,0.744721,-0.408484
117,0.877451,-8.328367,-5.160006,-5.037089,19.481495,-22.684212,-121.302658,1.050943,-116.513985,0.264646,-0.454744,0.743602,-0.412585
118,1.013505,-8.354486,-4.834771,-1.296983,15.529887,-20.028307,-121.409462,0.139423,-116.641586,0.257870,-0.457493,0.742479,-0.415846
119,1.005734,-8.437871,-4.888944,-1.684836,11.195090,-16.486580,-121.458817,-0.612068,-116.704460,0.252572,-0.459920,0.741217,-0.418664
120,0.983465,-8.449685,-4.768095,-1.603980,7.728476,-13.821030,-121.513474,-1.207534,-116.709549,0.248464,-0.462149,0.740074,-0.420683
121,1.077735,-8.349896,-4.718296,-1.618894,5.582541,-12.822728,-121.568214,-1.702038,-116.666306,0.245182,-0.464315,0.738954,-0.422190
122,1.087021,-8.482672,-4.674076,0.920096,3.304311,-10.149256,-121.582275,-2.105774,-116.591972,0.242768,-0.466260,0.737758,-0.423532
123,0.927112,-8.463991,-4.897902,-1.518644,-0.333903,-5.740532,-121.595970,-2.357309,-116.495407,0.241429,-0.467801,0.736820,-0.424230
124,0.761455,-8.337681,-4.906142,-1.489243,-3.580964,-1.729519,-121.651108,-2.429097,-116.374428,0.241183,-0.468949,0.736359,-0.423903
125,0.538133,-8.270720,-4.922642,0.022923,-6.678728,4.304863,-121.680573,-2.302798,-116.251289,0.242341,-0.469356,0.736264,-0.422956
126,0.287022,-8.173324,-5.005390,-0.637990,-9.075228,10.377339,-121.694298,-1.956668,-116.156319,0.244888,-0.468773,0.736745,-0.421295
127,0.041623,-8.110819,-5.049994,-0.219758,-10.957501,14.906630,-121.710358,-1.422692,-116.093689,0.248523,-0.467316,0.737799,-0.418933
128,-0.316433,-8.102020,-5.144840,0.974354,-13.071492,18.914680,-121.698578,-0.732674,-116.049194,0.253209,-0.465115,0.739170,-0.416151
129,-0.594520,-8.108010,-5.276881,0.684109,-14.172150,21.125935,-121.671104,0.073653,-116.013268,0.258667,-0.462387,0.740756,-0.413002
130,-0.746071,-8.175157,-5.548556,-2.076315,-14.212394,19.295101,-121.693878,0.895358,-115.964539,0.264053,-0.459778,0.742471,-0.409412
131,-0.998987,-8.200372,-5.618398,-3.293782,-14.554358,17.377745,-121.781517,1.667346,-115.878456,0.268977,-0.457725,0.744122,-0.405490
132,-1.343471,-8.051284,-5.591617,-6.789753,-17.667849,23.571377,-121.946144,2.530439,-115.782654,0.274199,-0.455574,0.746160,-0.400640
133,-1.600663,-8.017469,-5.561537,-6.811345,-17.075144,27.030085,-122.170441,3.552492,-115.739609,0.280005,-0.452630,0.748889,-0.394828
134,-1.698146,-8.058142,-5.501755,-5.126198,-14.360299,26.396484,-122.371521,4.585070,-115.772095,0.285699,-0.449083,0.751779,-0.389267
135,-1.876431,-7.913778,-5.354578,-3.278997,-12.183541,26.620255,-122.520378,5.568044,-115.873100,0.291044,-0.445121,0.754585,-0.384398
136,-1.792338,-7.917005,-5.295926,-1.134555,-7.483804,21.815777,-122.610397,6.424796,-116.032104,0.295617,-0.441080,0.757112,-0.380580
137,-1.625681,-8.032625,-5.309865,0.229510,-1.355518,10.844160,-122.645187,6.962662,-116.202583,0.298338,-0.438006,0.758867,-0.378505
138,-1.370607,-8.041063,-5.231831,-0.666943,1.553832,1.495112,-122.666412,7.134037,-116.317162,0.298968,-0.436652,0.759684,-0.377934
139,-1.230669,-8.054552,-5.212872,-2.108133,3.928487,-5.972640,-122.717171,7.021871,-116.354050,0.297939,-0.436965,0.759790,-0.378170
140,-0.833680,-8.283441,-5.261772,-4.449100,7.197799,-14.482681,-122.822990,6.634824,-116.325249,0.295166,-0.438895,0.759328,-0.379037
141,-0.641334,-8.320969,-5.194689,-5.721321,7.813975,-18.638109,-122.982498,6.035451,-116.234917,0.291029,-0.442155,0.758407,-0.380289
142,-0.305765,-8.366512,-5.100528,-5.048321,8.801385,-22.368816,-123.147942,5.311612,-116.093414,0.286229,-0.446205,0.757052,-0.381897
143,0.061434,-8.369784,-5.107475,-4.371089,9.602584,-23.898035,-123.290672,4.498494,-115.927040,0.281014,-0.450657,0.755319,-0.383970
144,0.299291,-8.310608,-5.083535,-2.901115,9.322187,-22.768431,-123.400177,3.675425,-115.762657,0.275845,-0.455011,0.753419,-0.386309
145,0.344845,-8.162941,-4.993279,0.021090,6.981154,-18.171410,-123.439545,2.956280,-115.613472,0.271561,-0.458686,0.751511,-0.388706
146,0.512030,-8.130969,-5.022614,1.798489,6.185628,-15.547352,-123.403328,2.366351,-115.487106,0.268333,-0.461548,0.749669,-0.391111
147,0.625132,-8.008419,-5.184370,-0.386268,5.710260,-13.795561,-123.375992,1.848908,-115.383530,0.265458,-0.464010,0.748075,-0.393204
148,0.507488,-7.928456,-5.363829,-5.618629,3.565896,-9.953185,-123.473526,1.433424,-115.294411,0.262684,-0.466293,0.747168,-0.394091
149,0.561289,-8.006671,-5.531012,-10.054051,2.713873,-9.399519,-123.732697,1.106894,-115.202873,0.259829,-0.468633,0.746988,-0.393550
150,0.631001,-8.089309,-5.725612,-13.106170,3.068323,-9.068342,-124.117142,0.797736,-115.110909,0.256563,-0.471179,0.747266,-0.392121
151,0.491815,-8.113867,-5.998728,-16.441664,2.113724,-4.368612,-124.608963,0.564166,-115.055740,0.253206,-0.473442,0.748215,-0.389762
152,0.031205,-8.059478,-6.100843,-16.913565,-1.059465,7.757726,-125.165344,0.600531,-115.102234,0.250985,-0.474237,0.750368,-0.386074
153,-0.411418,-8.060911,-5.959568,-10.937245,-2.871903,19.919954,-125.632545,1.014673,-115.315575,0.251046,-0.472449,0.753684,-0.381745
154,-0.939101,-7.958512,-5.866593,-5.328884,-4.748655,29.719206,-125.912849,1.760412,-115.695702,0.253516,-0.468013,0.757695,-0.377612
155,-1.472607,-7.789663,-5.673379,-1.083872,-6.976974,36.466057,-126.039085,2.768070,-116.185402,0.257997,-0.461580,0.762082,-0.373647
156,-2.036484,-7.746669,-5.521152,2.847410,-9.619406,39.426296,-126.040314,3.953631,-116.706383,0.264064,-0.453978,0.766408,-0.369856
157,-2.168986,-7.729797,-5.424302,5.377804,-8.345747,33.253742,-125.940613,5.109688,-117.177025,0.270504,-0.446503,0.770028,-0.366771
158,-2.094608,-7.612080,-5.538187,1.924439,-9.534285,29.319921,-125.855324,6.129224,-117.548584,0.276307,-0.440143,0.772962,-0.363948
159,-2.318072,-7.465233,-5.462690,-0.078458,-5.360615,21.086828,-125.858131,6.955404,-117.841614,0.280758,-0.435177,0.775471,-0.361166
160,-2.392652,-7.434920,-5.619924,-4.262148,-7.004151,23.606045,-125.965042,7.679497,-118.113892,0.284218,-0.430953,0.778005,-0.358061
161,-2.267128,-7.506467,-5.660017,-4.214791,-2.883724,19.519962,-126.147232,8.357456,-118.406776,0.287044,-0.426928,0.780725,-0.354692
162,-2.208284,-7.526382,-5.690113,-1.966808,2.582932,13.318232,-126.298271,8.801932,-118.729797,0.288385,-0.423467,0.783061,-0.352598
163,-2.059783,-7.693009,-5.742702,1.252308,5.461506,8.280263,-126.360321,9.012565,-119.054970,0.288532,-0.420622,0.784760,-0.352105
164,-1.494424,-7.951916,-5.902712,2.303954,10.573369,-4.766652,-126.340309,8.901400,-119.307968,0.287100,-0.419249,0.785463,-0.353344
165,-1.039619,-8.115045,-5.824068,3.001427,13.395646,-16.921021,-126.267990,8.373618,-119.417061,0.283569,-0.420268,0.784859,-0.356315
166,-0.605019,-8.047858,-5.588349,4.953741,16.481308,-27.330990,-126.130417,7.484439,-119.382950,0.278344,-0.423429,0.782949,-0.360865
167,-0.153741,-8.169478,-5.556379,4.886519,18.858778,-34.613911,-125.950363,6.303214,-119.250870,0.271661,-0.428206,0.780005,-0.366651
168,0.152540,-8.201978,-5.464105,3.754706,19.427412,-35.787830,-125.789375,4.978689,-119.079536,0.264085,-0.433779,0.776618,-0.372772
169,0.415907,-8.130626,-5.348390,3.059564,20.077578,-31.581587,-125.666634,3.682918,-118.957939,0.256385,-0.438957,0.773466,-0.378596
170,0.590790,-8.078981,-5.314006,3.348140,19.812601,-23.919962,-125.560204,2.543891,-118.959732,0.249237,-0.442744,0.771019,-0.383912
171,0.786481,-8.084774,-5.329241,1.328200,18.741600,-18.430325,-125.486687,1.596126,-119.072708,0.242841,-0.445155,0.769403,-0.388438
172,0.963173,-8.093321,-5.269258,0.469992,18.079069,-15.788217,-125.460419,0.775568,-119.241425,0.236897,-0.446830,0.768366,-0.392220
173,1.018357,-8.080213,-5.242741,1.471932,16.834785,-13.844001,-125.429482,0.035799,-119.429031,0.231426,-0.448073,0.767516,-0.395717
174,0.964683,-8.117775,-5.292431,2.228685,14.010589,-11.230514,-125.366966,-0.602608,-119.606064,0.226776,-0.448965,0.766694,-0.398977
175,0.981509,-8.177411,-5.312352,4.912033,14.209188,-13.783226,-125.245705,-1.214616,-119.749008,0.222641,-0.449873,0.765566,-0.402435
176,1.004676,-8.114808,-5.445835,2.462822,11.192518,-11.348247,-125.119942,-1.800833,-119.853813,0.218821,-0.450939,0.764302,-0.405727
177,0.948864,-8.120231,-5.520703,-0.377249,7.010854,-7.352496,-125.082741,-2.230285,-119.922775,0.215830,-0.451874,0.763526,-0.407745
178,0.926390,-8.163907,-5.361704,-1.298061,1.755917,-1.999218,-125.109451,-2.441828,-119.952667,0.214191,-0.452445,0.763284,-0.408428
179,0.860596,-8.140027,-5.412601,-1.879519,-1.309693,1.038073,-125.162537,-2.459212,-119.949493,0.213875,-0.452625,0.763423,-0.408134
180,0.726900,-8.001009,-5.421858,-1.541920,-3.977826,3.680772,-125.220688,-2.344151,-119.922775,0.214517,-0.452521,0.763772,-0.407259
181,0.388053,-8.144320,-5.502263,0.040197,-7.530800,9.409019,-125.246895,-2.055301,-119.891914,0.216472,-0.451794,0.764361,-0.405925
182,-0.079751,-8.075094,-5.542363,3.328243,-11.379494,15.021502,-125.191444,-1.540909,-119.869194,0.220236,-0.450084,0.765164,-0.404284
183,-0.460770,-7.918465,-5.755580,4.034621,-14.404656,17.972399,-125.069450,-0.843919,-119.834068,0.225523,-0.447685,0.766050,-0.402351
184,-0.890705,-7.770495,-5.840004,3.922765,-17.990929,21.069099,-124.937370,-0.001247,-119.765060,0.231929,-0.444957,0.767042,-0.399836
185,-1.273346,-7.697312,-5.930505,2.088423,-20.811342,22.564362,-124.836273,0.965114,-119.650581,0.239175,-0.442127,0.768180,-0.396509
186,-1.486437,-7.460780,-5.924198,-0.480133,-22.399759,21.128725,-124.805046,1.974117,-119.475273,0.246615,-0.439663,0.769364,-0.392374
187,-1.677077,-7.353991,-5.909349,-2.872300,-23.033445,19.739445,-124.851059,2.965657,-119.242699,0.253805,-0.437784,0.770509,-0.387612
188,-1.830807,-7.353706,-5.914549,-4.291039,-22.581894,18.959578,-124.955238,3.929585,-118.987991,0.260631,-0.436266,0.771665,-0.382461
189,-1.756665,-7.450456,-5.804406,-3.206578,-19.680174,14.414736,-125.060570,4.789229,-118.729553,0.266746,-0.435141,0.772574,-0.377662
190,-1.791273,-7.643924,-5.680585,0.223761,-17.542212,10.845218,-125.086487,5.490202,-118.462669,0.272121,-0.434454,0.772876,-0.373982
191,-1.617681,-7.738878,-5.551892,3.163651,-14.806857,5.014432,-125.000916,6.016101,-118.171417,0.276830,-0.434292,0.772402,-0.371685
192,-1.381664,-7.885345,-5.471713,4.045250,-12.443395,-1.159853,-124.844650,6.328712,-117.833733,0.280552,-0.435040,0.771152,-0.370614
193,-1.092136,-8.146287,-5.313897,5.429595,-9.723005,-7.702168,-124.643608,6.417886,-117.443489,0.283157,-0.436840,0.769171,-0.370632
194,-0.832208,-8.203492,-5.148297,5.792203,-7.704102,-10.978020,-124.410355,6.325995,-117.025085,0.284810,-0.439405,0.766656,-0.371545
195,-0.469355,-8.255206,-5.147016,4.710945,-5.071926,-13.425078,-124.191269,6.109999,-116.617531,0.285584,-0.442378,0.763993,-0.372906
196,-0.260056,-8.449578,-5.070826,5.678461,-3.186570,-12.881424,-123.980637,5.824049,-116.255814,0.285741,-0.445314,0.761387,-0.374618
197,-0.194450,-8.446914,-5.204001,4.086888,-1.748871,-10.721249,-123.789307,5.543302,-115.966805,0.285631,-0.447787,0.759116,-0.376357
198,-0.296843,-8.223175,-5.436179,-1.673267,-1.069439,-6.976209,-123.729813,5.324190,-115.762917,0.285130,-0.449794,0.757711,-0.377174
199,-0.516516,-8.285070,-5.753447,-8.482508,-1.542190,-1.864772,-123.888153,5.226054,-115.644157,0.284269,-0.451332,0.757580,-0.376249
200,-0.645888,-8.217354,-5.819577,-10.867580,-1.419386,0.052717,-124.205338,5.228755,-115.586014,0.283225,-0.452492,0.758394,-0.373996
201,-0.871745,-7.935680,-6.033645,-14.861835,-1.543343,1.759781,-124.631958,5.281619,-115.562210,0.281956,-0.453510,0.759785,-0.370885
202,-1.059240,-7.837046,-5.927258,-13.945539,-1.793057,3.228442,-125.112251,5.381650,-115.564110,0.280691,-0.454316,0.761524,-0.367274
203,-1.195704,-7.904285,-5.915961,-10.253569,-2.441227,4.940615,-125.517563,5.533562,-115.585258,0.279996,-0.454623,0.763178,-0.363978
204,-1.220548,-7.721583,-5.781875,-6.843542,-2.775666,5.128618,-125.805183,5.720622,-115.612495,0.279977,-0.454476,0.764533,-0.361323
205,-1.255976,-7.667022,-5.635873,-3.423241,-2.163911,4.865733,-125.979439,5.903835,-115.643570,0.280372,-0.454041,0.765530,-0.359447
206,-1.246102,-7.748111,-5.574531,-0.680117,-1.307067,4.696339,-126.052742,6.066769,-115.690704,0.280988,-0.453325,0.766233,-0.358370
207,-1.153021,-7.718815,-5.736191,-2.386125,1.094500,3.680268,-126.112350,6.181696,-115.770485,0.281246,-0.452528,0.766936,-0.357672
208,-1.000392,-7.617258,-5.439271,0.856927,3.128554,1.904314,-126.149948,6.215366,-115.882896,0.280964,-0.451747,0.767555,-0.357551
209,-0.897454,-7.600661,-5.359718,2.464050,4.087394,1.083666,-126.108307,6.184709,-116.010124,0.280532,-0.450902,0.767873,-0.358273
210,-0.902867,-7.469395,-5.481830,1.126617,3.828130,0.668134,-126.061813,6.130614,-116.134659,0.279975,-0.450147,0.768123,-0.359122
211,-0.872644,-7.614928,-5.404785,3.535527,3.369411,-1.557864,-125.993538,6.048059,-116.223457,0.279429,-0.449680,0.768114,-0.360150
213,-0.732300,-7.744359,-5.272517,6.779803,3.462231,-4.890132,-125.824646,5.894261,-116.252815,0.279003,-0.449623,0.767428,-0.362010
214,-0.741851,-7.981707,-5.540013,6.315586,3.817068,-7.990429,-125.603661,5.649172,-116.225876,0.278368,-0.450144,0.766188,-0.364469
215,-0.738347,-8.157063,-5.578945,6.440241,3.752989,-9.093232,-125.385002,5.344128,-116.162933,0.277452,-0.451127,0.764696,-0.367076
216,-0.676597,-8.339627,-5.609694,5.430321,3.854773,-7.462329,-125.182068,5.045664,-116.106812,0.276500,-0.452081,0.763279,-0.369562
217,-0.651109,-8.223138,-5.749285,1.849592,4.824760,-5.234100,-125.060455,4.789351,-116.103378,0.275332,-0.452730,0.762399,-0.371450
218,-0.788222,-8.058493,-5.728780,-2.379519,4.164041,-0.813929,-125.074654,4.620759,-116.168243,0.273973,-0.452936,0.762389,-0.372224
219,-0.780934,-7.952346,-5.697323,-4.913961,4.140130,2.266356,-125.206451,4.560873,-116.295700,0.272650,-0.452616,0.763209,-0.371904
220,-0.730378,-7.905934,-5.519858,-1.892441,4.105650,2.342710,-125.332382,4.544226,-116.452728,0.271535,-0.451928,0.764206,-0.371508
221,-0.638514,-7.686785,-5.470140,-0.476444,4.377270,1.310212,-125.383789,4.512099,-116.603737,0.270634,-0.451157,0.764909,-0.371657
222,-0.664252,-7.505636,-5.373181,2.162592,3.543890,0.578395,-125.365555,4.461350,-116.729996,0.269966,-0.450452,0.765253,-0.372290
223,-0.626542,-7.540724,-5.300234,7.640444,3.042567,-1.568591,-125.208359,4.384494,-116.810310,0.269821,-0.449819,0.764915,-0.373851
224,-0.598799,-7.391684,-5.180781,13.682826,2.671117,-3.374775,-124.855278,4.262419,-116.841095,0.270310,-0.449219,0.763652,-0.376789
225,-0.623679,-7.363355,-5.392298,14.062196,2.327491,-3.045209,-124.393425,4.127083,-116.848900,0.271214,-0.448563,0.761902,-0.380446
226,-0.715343,-7.656684,-5.347607,17.536129,0.899931,-1.864965,-123.866684,4.029170,-116.847519,0.272643,-0.447677,0.759952,-0.384348
227,-0.692869,-8.052518,-5.260719,22.517691,0.484186,-1.961228,-123.198029,3.963293,-116.831573,0.274879,-0.446426,0.757507,-0.389010
228,-0.679888,-8.275143,-5.244058,23.600927,0.121065,-1.931919,-122.427582,3.903313,-116.804863,0.277581,-0.444967,0.754652,-0.394277
229,-0.624881,-8.781869,-5.194039,23.769804,0.197830,-2.896728,-121.635536,3.832286,-116.766624,0.280328,-0.443555,0.751618,-0.399682
230,-0.679558,-9.053659,-5.081728,21.559214,-0.860154,-1.779032,-120.876770,3.771425,-116.716599,0.283047,-0.442247,0.748638,-0.404776
231,-0.725821,-9.163313,-5.108581,13.898854,-2.080495,-0.397282,-120.281830,3.765158,-116.655884,0.285515,-0.441191,0.746279,-0.408532
232,-0.644964,-9.169081,-4.953580,5.898256,-1.930435,-0.613134,-119.947510,3.784181,-116.589554,0.287160,-0.440715,0.744869,-0.410464
233,-0.546750,-9.060027,-4.989047,-2.064812,-0.748457,-1.862187,-119.879707,3.770723,-116.530151,0.287548,-0.440982,0.744369,-0.410810
234,-0.589787,-8.369854,-5.000475,-11.970165,-1.758039,-1.021019,-120.109673,3.750022,-116.469803,0.286747,-0.442030,0.744917,-0.409249
235,-0.580923,-7.588274,-4.557363,-14.378193,-3.436672,-0.857028,-120.542847,3.766755,-116.379028,0.285502,-0.443638,0.746142,-0.406136
236,-0.497575,-6.799227,-4.030854,-6.649817,-4.006174,-1.234910,-120.885071,3.800111,-116.254280,0.284828,-0.445176,0.746936,-0.403458
237,-0.526435,-6.100919,-3.711385,4.257700,-5.854358,0.234103,-120.914909,3.870106,-116.104340,0.285684,-0.445962,0.746602,-0.402601
238,-0.536278,-5.730940,-3.007367,30.021091,-8.543036,1.223260,-120.330215,4.013115,-115.909714,0.289552,-0.445217,0.744079,-0.405324
239,-0.411877,-5.783655,-2.286673,66.240906,-8.415285,-1.744739,-118.708130,4.144504,-115.658707,0.297558,-0.442177,0.737581,-0.414624
240,-0.423691,-6.286692,-1.903962,99.080406,-8.259730,-2.982420,-115.933167,4.201507,-115.374382,0.309601,-0.436415,0.726372,-0.431363
241,-0.593080,-7.567486,-1.587971,124.654091,-9.169840,-2.383845,-112.185127,4.237615,-115.071831,0.325124,-0.427781,0.710836,-0.453884
242,-0.854907,-9.333930,-1.115148,139.690155,-9.523937,-1.438321,-107.761864,4.283704,-114.757088,0.342978,-0.416611,0.691766,-0.479855
243,-1.168341,-11.893501,-1.393347,126.789612,-7.730514,-2.102500,-103.305992,4.303506,-114.464264,0.360319,-0.404587,0.671610,-0.505390
244,-1.666821,-14.405583,-1.850225,87.948051,-5.418323,-0.707014,-99.715515,4.301121,-114.239601,0.373835,-0.394397,0.654669,-0.525459
245,-2.082244,-16.655752,-2.850998,26.617849,-2.041621,-0.575963,-97.798264,4.298894,-114.113449,0.380959,-0.388809,0.645352,-0.535927
246,-2.212373,-18.205872,-3.813040,-50.314056,0.772781,-2.031137,-98.191208,4.258905,-114.086327,0.379534,-0.390463,0.646978,-0.533772
247,-2.348938,-18.460428,-4.655790,-124.177177,2.907304,-1.416835,-101.102455,4.192228,-114.137123,0.368894,-0.400005,0.660319,-0.517584
248,-1.760256,-14.705358,-4.258617,-182.974670,6.647747,-0.995266,-106.225754,4.115893,-114.282127,0.349590,-0.415574,0.683117,-0.488299
249,-0.491400,-10.589259,-4.344609,-228.418793,13.956615,-8.849621,-113.081642,3.847514,-114.550041,0.321453,-0.435192,0.711468,-0.448429
250,-0.635893,-7.318903,-4.243272,-257.020569,12.850334,-0.636889,-121.157112,3.505767,-114.878723,0.286708,-0.455898,0.741867,-0.399486
251,0.171186,-3.640315,-2.223491,-234.571762,24.987644,-13.848422,-129.325500,2.949431,-115.247650,0.248723,-0.474504,0.768953,-0.348847
252,0.827670,-0.055109,-1.635022,-330.686279,68.050026,-52.550095,-138.704788,1.088617,-115.603279,0.195408,-0.495768,0.793603,-0.293639
253,0.408595,0.063123,-2.163954,-314.668182,41.764072,-15.067191,-149.365540,-1.036070,-115.790375,0.133002,-0.514593,0.815685,-0.228392
254,-0.338276,0.438206,-2.375280,-303.203522,-7.863813,10.688211,-159.567368,-1.553702,-115.937744,0.082750,-0.523962,0.832967,-0.157426
255,0.376816,2.274423,-3.235410,-303.313873,18.046570,-9.148526,-169.590775,-1.700248,-115.967781,0.035558,-0.529055,0.843597,-0.084740
256,0.126021,3.074140,-5.506427,-251.259567,1.588235,-2.050920,-178.763367,-2.051864,-115.837494,-0.009439,-0.531169,0.847008,-0.018651
257,0.040313,3.177954,-6.925211,-184.851425,-3.958448,-2.213901,174.009521,-2.005867,-115.758522,-0.042583,-0.530123,0.846129,0.034954
258,0.348885,3.841383,-7.892409,-143.977081,-1.293851,-5.575100,168.544586,-1.899790,-115.640816,-0.067105,-0.528443,0.842923,0.075673
259,0.261672,3.983548,-8.858583,-94.664291,-3.486753,-3.764991,164.571213,-1.788130,-115.508560,-0.084690,-0.526887,0.839129,0.105268
260,0.090087,3.397296,-8.658247,-59.140659,-1.941959,-2.263614,162.008270,-1.672483,-115.437469,-0.095688,-0.525521,0.836167,0.124482
261,-0.198418,3.723368,-8.706900,-49.925865,-4.294186,-6.432975,160.188354,-1.527246,-115.334076,-0.103093,-0.524881,0.833510,0.138322
262,-0.406550,3.860868,-8.510241,-42.936554,-6.129310,-5.168268,158.638062,-1.297160,-115.213562,-0.108678,-0.524640,0.830833,0.150531
263,-0.296627,3.755610,-8.839502,-27.403149,-4.082718,-0.662652,157.465424,-1.102858,-115.186790,-0.112676,-0.523983,0.828964,0.159892
264,-0.221495,3.411716,-9.046167,-14.286924,-6.817825,2.253685,156.772400,-0.945540,-115.281967,-0.114571,-0.522844,0.828278,0.165720
265,-0.262021,3.410611,-8.924953,-14.320706,-9.606627,1.935978,156.298172,-0.721965,-115.454819,-0.114866,-0.521463,0.828170,0.170345
266,-0.148865,2.938301,-9.328493,2.777485,-9.474879,5.824589,156.108368,-0.483143,-115.701408,-0.113635,-0.519860,0.828786,0.173052
267,-0.172657,3.000101,-9.651172,3.128347,-10.016396,3.715979,156.208649,-0.249928,-115.977882,-0.111076,-0.518317,0.829972,0.173656
268,-0.464949,3.167108,-9.347053,-7.852262,-13.723585,1.347721,156.130219,0.077924,-116.214935,-0.108693,-0.517026,0.830613,0.175933
269,-0.472799,3.291963,-8.956456,-7.777013,-7.545964,3.056174,155.868820,0.371713,-116.426422,-0.107412,-0.515697,0.830875,0.179350
270,-0.220133,3.365770,-9.096888,-3.809732,-0.100420,6.267738,155.674438,0.424136,-116.620560,-0.107600,-0.514187,0.831390,0.181177
271,-0.211667,3.795028,-8.945179,-14.711462,1.860991,3.888659,155.364929,0.327341,-116.762550,-0.109464,-0.512713,0.831630,0.183124
272,-0.131701,3.773539,-8.941388,-12.061951,3.072742,5.038538,154.918289,0.190008,-116.862923,-0.112295,-0.511334,0.831497,0.185850
273,-0.031703,3.792357,-8.970467,-9.902064,3.703353,3.660250,154.552078,0.026038,-116.945900,-0.114982,-0.510103,0.831435,0.187859
274,-0.102338,4.142665,-8.774580,-18.150866,1.697137,-0.075029,154.084564,-0.081000,-116.960777,-0.117814,-0.509343,0.830837,0.190789
275,-0.260014,4.318751,-8.590350,-18.131413,-1.694279,-2.090549,153.479843,-0.065189,-116.928192,-0.120441,-0.508977,0.829657,0.195207
276,-0.343110,4.268408,-8.572219,-13.461196,-5.057923,-2.521307,152.953323,0.069894,-116.910118,-0.121833,-0.508784,0.828527,0.199597
277,-0.377860,4.403281,-8.393133,-14.960120,-6.279543,-2.531029,152.479630,0.276464,-116.921730,-0.122422,-0.508556,0.827520,0.203948
278,-0.376318,4.439208,-8.402468,-9.484893,-6.008264,-1.386811,152.071976,0.488140,-116.959190,-0.122634,-0.508224,0.826717,0.207867
279,-0.195609,4.324640,-8.573048,-1.595311,-3.492466,0.570306,151.886719,0.634357,-117.021515,-0.122285,-0.507837,0.826489,0.209916
280,-0.022124,4.330512,-8.708853,-1.043894,-1.048901,1.690744,151.841949,0.683374,-117.090385,-0.122003,-0.507379,0.826656,0.210528
281,0.064748,4.369397,-8.728214,-1.421525,1.439357,1.977224,151.800293,0.648771,-117.141220,-0.122344,-0.506906,0.826844,0.210730
282,0.158234,4.468271,-8.758320,-0.964642,3.839465,1.376309,151.760452,0.544815,-117.148872,-0.123257,-0.506622,0.826924,0.210568
283,0.150193,4.514016,-8.701214,-2.535191,4.087047,0.187473,151.702469,0.416116,-117.109268,-0.124516,-0.506614,0.826789,0.210377
284,0.041399,4.534987,-8.683353,-1.986763,2.652337,-0.852968,151.627518,0.322514,-117.046165,-0.125639,-0.506818,0.826479,0.210436
285,-0.084510,4.556313,-8.684844,-0.509848,0.782451,-2.495178,151.586334,0.298684,-116.969849,-0.126134,-0.507280,0.826093,0.210544
286,-0.103985,4.501825,-8.549265,0.933085,0.383232,-3.071100,151.593887,0.325725,-116.879005,-0.126072,-0.507992,0.825673,0.210509
287,-0.142125,4.407138,-8.520936,3.920879,-0.568052,-3.273026,151.675354,0.378660,-116.787422,-0.125497,-0.508837,0.825356,0.210056
288,-0.134266,4.240064,-8.400262,5.568832,-0.027732,-2.635160,151.834106,0.433987,-116.705368,-0.124543,-0.509700,0.825218,0.209068
289,-0.384495,4.047375,-7.767618,6.247708,-2.750748,-6.053766,152.031952,0.542971,-116.599350,-0.123069,-0.510871,0.824982,0.208013
290,-0.382793,3.524367,-6.688474,12.661772,-2.019335,-5.412131,152.348557,0.702463,-116.467461,-0.120744,-0.512438,0.824783,0.206302
291,-0.386116,2.808962,-5.868775,32.302502,-1.898011,-3.514041,153.099304,0.828599,-116.365059,-0.116653,-0.514170,0.825517,0.201352
292,-0.484539,1.923527,-5.105716,58.554859,-4.930727,-5.499494,154.614822,0.996699,-116.280128,-0.108767,-0.516549,0.827546,0.191089
293,-0.491700,1.195494,-4.503565,84.163109,-7.474639,-5.195380,156.994293,1.258136,-116.202370,-0.096236,-0.519635,0.830724,0.174976
294,-0.210181,0.611532,-4.619767,110.504265,-0.572658,4.621871,160.235855,1.386016,-116.242271,-0.080512,-0.522014,0.835410,0.152017
295,-0.300311,0.194045,-5.455389,121.528099,-6.472107,5.391319,164.094452,1.444975,-116.434425,-0.062251,-0.523076,0.840890,0.124179
296,-0.398672,0.043626,-6.272383,116.576675,-11.153161,5.114250,168.051086,1.687114,-116.676346,-0.042166,-0.523301,0.845642,0.096269
297,-0.206139,0.133558,-7.200222,104.261391,-8.710297,9.874066,171.717300,1.968525,-116.981606,-0.023131,-0.522251,0.849556,0.070514
298,0.093444,0.038211,-8.103995,92.439842,-1.649896,10.278975,174.979874,2.099522,-117.334518,-0.007136,-0.520107,0.852782,0.046919
299,-0.047224,-0.460892,-9.108445,95.090202,-3.480550,3.997211,178.093948,2.170142,-117.575569,0.007576,-0.518314,0.854819,0.024035
300,0.484307,-0.478699,-10.550331,86.685249,12.250113,0.660218,-178.881790,2.024985,-117.652565,0.020168,-0.517382,0.855517,0.000799
301,0.187273,-0.868871,-10.884264,89.761566,26.948864,-2.515543,-175.942871,1.371981,-117.647568,0.028560,-0.516948,0.855201,-0.024089
302,0.029630,-0.793455,-10.345160,79.594109,22.197268,-6.587341,-173.121002,0.543202,-117.571594,0.035138,-0.517057,0.853833,-0.048857
303,0.401358,-0.920084,-11.344074,78.166725,26.991613,-7.076060,-170.492844,-0.299121,-117.463341,0.040790,-0.517445,0.851691,-0.072183
304,0.520049,-1.195958,-11.545528,81.932045,37.593578,-3.046682,-167.825699,-1.387355,-117.499054,0.044716,-0.516915,0.849359,-0.096894
305,0.981571,-2.090348,-10.543817,88.733559,41.375343,-1.164054,-164.975159,-2.683257,-117.738754,0.047704,-0.515033,0.846828,-0.123883
306,1.416983,-2.822476,-11.951317,82.863937,21.657856,-4.907547,-162.106461,-3.718891,-117.939476,0.052659,-0.513275,0.843423,-0.149714
307,1.578376,-3.441135,-12.970493,78.404221,22.944370,-6.499943,-159.415176,-4.480814,-118.008202,0.058970,-0.512290,0.839169,-0.172849
308,1.303011,-3.705511,-12.165940,69.219864,16.094961,-4.581786,-156.950302,-5.152835,-118.078133,0.064910,-0.511273,0.834759,-0.193812
309,1.911487,-4.043856,-12.303052,44.108170,8.189708,-11.126514,-155.069351,-5.628702,-118.003990,0.069934,-0.511346,0.830511,-0.209490
310,1.105301,-3.552048,-12.215315,32.877884,-6.843508,-11.996140,-153.820099,-5.813729,-117.664108,0.074799,-0.513279,0.826404,-0.219104
311,0.838935,-2.945258,-10.819880,34.249817,-12.142754,-5.146421,-152.740845,-5.658584,-117.265747,0.081548,-0.515177,0.822739,-0.225929
312,1.325585,-3.201414,-10.209507,50.507355,-5.431004,-0.124112,-151.348953,-5.441404,-117.050507,0.089819,-0.515334,0.819287,-0.234802
313,1.249948,-3.393517,-9.333776,66.518158,-4.267862,1.727733,-149.404266,-5.288763,-116.993004,0.099779,-0.513877,0.815161,-0.247965
314,0.594956,-3.954885,-7.608635,94.008934,-8.530356,8.811391,-146.726639,-5.015348,-117.029221,0.113637,-0.510621,0.809751,-0.265812
316,0.683492,-5.048174,-7.042818,114.328102,-4.556383,23.013561,-143.231018,-4.533380,-117.340172,0.131805,-0.503696,0.803471,-0.288709
317,0.892002,-6.349637,-6.061377,122.649536,4.819321,25.000317,-139.238571,-4.039440,-117.968529,0.151022,-0.493236,0.796552,-0.315303
318,0.359785,-7.312412,-5.726199,116.710114,-2.887833,29.811001,-135.209030,-3.445415,-118.659447,0.170351,-0.481262,0.789042,-0.341732
319,-0.183876,-8.231774,-5.900093,106.781525,-10.471663,35.995766,-131.458801,-2.495864,-119.252907,0.190662,-0.468559,0.781780,-0.364584
320,-0.002914,-8.273276,-5.837787,95.562210,-11.649810,33.014294,-128.075409,-1.377249,-119.708183,0.210495,-0.456040,0.774782,-0.383969
321,-0.035895,-8.555572,-5.638054,92.002777,-13.776661,22.881660,-124.949219,-0.377086,-119.922134,0.228815,-0.445239,0.766930,-0.401528
322,-0.235832,-8.830420,-5.516200,91.792961,-16.812187,23.482069,-121.889015,0.549403,-119.920815,0.246744,-0.435577,0.757891,-0.418320
323,-0.179597,-8.962559,-5.239162,92.022972,-17.330948,17.645153,-118.825584,1.428103,-119.776756,0.264543,-0.426360,0.747806,-0.434764
324,-0.190593,-9.366658,-4.468048,95.108299,-17.352701,11.663034,-115.700531,2.127116,-119.485680,0.281661,-0.418012,0.736173,-0.451645
325,-0.298968,-9.818977,-4.311101,91.251961,-18.495958,12.009884,-112.581062,2.731401,-119.100456,0.298267,-0.410051,0.723626,-0.468252
326,-0.529363,-10.527592,-3.649781,93.189262,-20.996956,7.580066,-109.483505,3.272169,-118.603363,0.314629,-0.402526,0.710260,-0.484265
327,-0.486797,-10.513270,-3.716162,82.727005,-20.157764,-2.006700,-106.516876,3.572938,-117.978317,0.329457,-0.396667,0.696080,-0.499585
328,-0.820009,-10.670151,-2.554054,83.461090,-21.658121,0.143995,-103.705963,3.725373,-117.294746,0.343042,-0.391820,0.681687,-0.513910
329,-0.959327,-10.505891,-1.923966,84.021446,-21.538464,1.625029,-100.869881,3.907410,-116.597031,0.356881,-0.386393,0.666911,-0.527793
330,-1.096151,-10.125488,-2.345961,69.499413,-18.570133,2.977330,-98.267647,4.093943,-115.949791,0.369646,-0.380957,0.653136,-0.540043
331,-1.031330,-10.030278,-3.386750,36.224243,-13.519130,4.202179,-96.468704,4.281219,-115.433983,0.379062,-0.377062,0.643426,-0.547849
332,-1.287370,-9.909671,-2.467785,21.567141,-10.417523,11.240803,-95.476990,4.579263,-115.063461,0.385685,-0.374316,0.638325,-0.551068
333,-1.249362,-9.892098,-2.793216,1.212026,-5.926089,13.367360,-95.077591,5.012827,-114.829933,0.390407,-0.372052,0.636915,-0.550908
334,-1.056135,-10.339782,-3.408891,-17.249872,-1.425796,13.529532,-95.337311,5.470585,-114.748947,0.392369,-0.371051,0.639233,-0.547494
335,-1.201242,-10.647281,-2.873487,-19.785913,1.667785,15.771331,-95.959671,5.956336,-114.801903,0.392670,-0.370407,0.643764,-0.542380
336,-1.380799,-10.402551,-2.361203,-12.555419,5.269557,21.391392,-96.518555,6.559579,-114.985245,0.393200,-0.368217,0.648697,-0.537590
337,-1.153988,-10.641427,-2.932171,-15.704432,10.292682,16.838200,-97.029366,7.161926,-115.319809,0.393202,-0.365001,0.653824,-0.533555
338,-0.962139,-11.029440,-3.159873,-21.198690,14.960907,8.709259,-97.704971,7.530285,-115.796028,0.390813,-0.362709,0.659470,-0.529913
339,-0.862428,-10.859002,-3.090618,-30.061918,19.711563,-1.064291,-98.637169,7.574231,-116.391800,0.385355,-0.362198,0.665767,-0.526373
340,-1.007157,-10.872254,-3.176842,-41.417877,22.885578,-6.991796,-99.916817,7.327108,-117.077194,0.376818,-0.363692,0.673152,-0.522114
341,-0.867679,-10.773494,-2.674818,-46.556042,24.047729,-14.978598,-101.469482,6.821866,-117.783424,0.365859,-0.367059,0.681166,-0.517135
342,-0.956984,-10.731882,-3.280011,-56.162651,25.242510,-17.905891,-103.258324,6.110488,-118.473358,0.352964,-0.372016,0.689655,-0.511270
343,-1.145033,-10.716002,-3.460598,-61.193062,24.797523,-15.830969,-105.280701,5.359872,-119.145996,0.339026,-0.377635,0.698992,-0.503849
344,-1.190049,-10.571321,-3.806390,-65.982635,22.284285,-12.351085,-107.454056,4.688193,-119.768044,0.325128,-0.383246,0.708937,-0.494796
345,-0.880910,-10.588532,-4.223101,-71.268349,20.627043,-11.514256,-109.782845,4.082839,-120.319252,0.311271,-0.389027,0.719344,-0.484058
346,-0.595892,-10.602858,-4.965132,-78.472923,19.784410,-10.379770,-112.310204,3.500350,-120.817123,0.296956,-0.395152,0.730282,-0.471551
347,-0.331197,-10.490700,-5.130017,-82.676605,19.170155,-11.389648,-115.019608,2.907546,-121.265961,0.281987,-0.401636,0.741539,-0.457484
348,-0.264513,-10.400676,-5.982536,-89.262794,18.446131,-11.428051,-117.901093,2.287905,-121.657799,0.266285,-0.408509,0.752933,-0.441934
349,-0.419703,-10.710337,-6.544845,-94.042412,17.533840,-7.473901,-120.966721,1.719048,-122.024773,0.250153,-0.415211,0.764692,-0.424581
350,-0.209788,-10.750248,-6.889798,-95.935448,17.854759,-9.798882,-124.139137,1.159751,-122.365746,0.233599,-0.421694,0.776350,-0.406063
351,-0.615357,-10.822673,-7.121724,-91.925491,13.092319,-5.279864,-127.271706,0.654895,-122.638077,0.217615,-0.427781,0.787262,-0.387125
352,-0.442861,-10.329391,-7.626216,-91.148895,9.714122,-2.871114,-130.322327,0.311052,-122.847664,0.203092,-0.433075,0.797486,-0.367716
353,0.074574,-10.310405,-7.555537,-86.255508,10.649430,-0.020089,-133.277542,0.048972,-123.067497,0.189346,-0.437418,0.807113,-0.348399
354,-0.189927,-9.863029,-7.378457,-82.879791,5.444954,5.856124,-136.094528,-0.069728,-123.326210,0.176949,-0.440439,0.816245,-0.329313
355,-0.410894,-8.996082,-7.590667,-84.007851,-3.048612,7.957301,-138.874313,0.056569,-123.521179,0.166596,-0.442858,0.824931,-0.309211
356,0.095217,-8.513561,-7.828675,-81.993187,0.234415,5.407250,-141.639709,0.234138,-123.660782,0.156799,-0.445285,0.832934,-0.288713
357,-0.215644,-8.484065,-7.617480,-68.207253,0.375462,3.981080,-144.142136,0.320407,-123.792419,0.147359,-0.447434,0.839662,-0.270288
358,-0.811906,-7.357926,-7.614778,-69.795677,-7.655171,-1.759480,-146.440842,0.441098,-123.753845,0.139329,-0.450314,0.844904,-0.252868
359,-0.332020,-6.546598,-7.758832,-79.051010,-2.809993,-12.216834,-148.918274,0.462399,-123.463280,0.130313,-0.455331,0.849044,-0.234129
360,-0.006052,-6.330268,-7.483617,-77.819145,7.090271,-17.647715,-151.529449,0.152467,-123.068642,0.118340,-0.461709,0.852264,-0.215560
361,-0.172981,-5.643829,-7.000453,-86.682625,6.910738,-25.551323,-154.270920,-0.382999,-122.536514,0.104171,-0.469293,0.854507,-0.196800
362,-0.398989,-4.596685,-6.753458,-114.180580,-0.823021,-28.861038,-157.624435,-0.845946,-121.750687,0.088105,-0.478700,0.856242,-0.173013
363,-0.185590,-3.685464,-6.101480,-141.209747,2.974355,-29.048912,-161.891434,-1.212787,-120.856377,0.068570,-0.488786,0.858031,-0.142021
364,-0.139599,-2.931148,-5.850434,-133.202164,3.075529,-27.596884,-166.478775,-1.564289,-119.977547,0.047137,-0.498037,0.859022,-0.108709
365,-0.174670,-2.124881,-5.350938,-122.875397,1.069113,-26.746576,-170.765228,-1.810269,-119.104706,0.027215,-0.506139,0.858543,-0.077370
366,-0.381528,-1.406844,-5.069450,-114.347733,-7.108290,-21.147207,-174.738449,-1.811563,-118.300613,0.009977,-0.512806,0.857131,-0.047498
367,0.061443,-0.946988,-4.536131,-89.584450,6.695422,-15.927841,-178.152344,-1.842062,-117.681519,-0.005412,-0.517506,0.855377,-0.022111
368,0.181837,-0.592883,-4.741554,-54.584538,9.478003,-12.191973,179.430252,-2.116360,-117.219437,-0.018354,-0.520691,0.853531,-0.005375
369,0.418011,-0.223966,-4.858150,-47.959805,16.076559,-12.092870,177.704849,-2.532459,-116.805153,-0.029309,-0.523338,0.851604,0.005478
370,0.213633,0.118515,-5.732323,-43.462982,5.203223,-9.590284,176.163452,-2.867428,-116.426003,-0.038883,-0.525591,0.849711,0.015272
371,0.608896,0.582177,-6.525645,-38.072601,9.957347,-6.667458,174.789841,-3.097665,-116.134552,-0.046947,-0.527141,0.848133,0.024278
372,0.665994,0.888964,-7.596470,-29.560514,6.288421,-5.279821,173.649979,-3.346826,-115.909454,-0.054090,-0.528178,0.846825,0.031456
373,0.728166,1.091518,-8.539589,-21.659498,2.713579,-3.014230,172.787170,-3.479468,-115.754066,-0.059093,-0.528823,0.845858,0.037137
374,0.726746,1.231651,-9.159806,-14.270530,-0.249463,0.125245,172.185135,-3.513807,-115.700737,-0.062142,-0.528877,0.845408,0.041392
375,0.851949,1.306933,-9.239410,-7.008515,1.014008,1.677368,171.832199,-3.530477,-115.728683,-0.063883,-0.528466,0.845407,0.043933
376,0.718817,1.381059,-9.496620,-0.439728,-0.742310,2.019237,171.711807,-3.543725,-115.789162,-0.064512,-0.527943,0.845641,0.044794
377,0.740167,1.263396,-9.319423,2.377705,-0.162625,1.325329,171.747635,-3.536784,-115.846611,-0.064273,-0.527544,0.845918,0.044594
378,0.598508,0.794134,-9.063023,15.870391,-0.162857,-3.939567,172.049164,-3.525259,-115.804138,-0.062816,-0.528032,0.845836,0.042398
379,0.605868,0.893628,-8.611840,21.649221,1.778398,-9.369209,172.660721,-3.522364,-115.580315,-0.060050,-0.530013,0.845016,0.037780
380,0.436286,0.655721,-8.076680,29.206816,0.374344,-10.151217,173.488113,-3.518589,-115.252357,-0.056284,-0.532852,0.843746,0.031534
381,0.310787,0.539038,-7.755137,34.050255,-1.657447,-11.739283,174.520386,-3.459358,-114.891220,-0.051122,-0.536024,0.842310,0.024048
382,0.331670,0.280879,-7.309502,41.529472,-1.774063,-8.205427,175.760468,-3.374242,-114.564453,-0.044737,-0.538981,0.840992,0.015204
383,0.099361,0.318666,-7.160285,41.094055,-10.014030,-1.420363,177.128891,-3.168737,-114.416260,-0.036799,-0.540630,0.840433,0.006083
384,0.075383,-0.144202,-7.180849,50.220097,-12.963997,6.627661,178.656021,-2.790000,-114.517998,-0.026817,-0.540405,0.840971,-0.003304
385,0.243574,-0.034504,-7.266140,46.306358,-9.935587,5.526038,-179.725998,-2.411174,-114.724350,-0.016428,-0.539248,0.841881,-0.013360
386,0.195706,-0.198946,-7.166247,49.640980,-10.888091,5.275920,-178.120438,-2.060812,-114.897667,-0.006333,-0.538142,0.842503,-0.023497
387,0.260306,-0.183794,-7.308629,51.709927,-8.542871,2.843486,-176.427704,-1.730913,-115.017487,0.004007,-0.537246,0.842715,-0.034397
388,0.580170,-0.286950,-6.934570,51.050583,2.916134,-5.077375,-174.716797,-1.640033,-114.972763,0.012714,-0.537430,0.841927,-0.046545
389,0.450280,-0.691524,-7.052027,62.045017,2.556007,-6.990929,-172.838104,-1.751640,-114.781136,0.020805,-0.538599,0.840106,-0.060828
390,0.447057,-1.886494,-7.088342,90.920097,4.415865,-10.740513,-170.298401,-1.909740,-114.505928,0.031769,-0.540104,0.837176,-0.080094
391,0.374868,-2.131717,-7.565306,93.478378,2.289093,-18.248369,-167.243011,-2.113221,-114.053741,0.045079,-0.542503,0.832476,-0.103159
392,-0.133406,-3.531370,-8.426831,104.066689,-6.649291,-22.317322,-163.978546,-2.209070,-113.381042,0.060564,-0.545946,0.825933,-0.126925
393,0.005279,-3.675450,-9.876996,96.715935,-3.488609,-21.582008,-160.664124,-2.269153,-112.634712,0.076876,-0.549376,0.818299,-0.150543
394,-0.318700,-3.724928,-10.197149,74.363731,-9.803821,-18.227085,-157.843353,-2.296967,-111.935165,0.091217,-0.552314,0.810959,-0.170216
395,-0.606130,-3.688850,-11.225393,55.945320,-18.972504,-9.245229,-155.695480,-2.035979,-111.326591,0.104379,-0.554417,0.804997,-0.183595
396,-0.010578,-4.792561,-11.805970,52.185059,-9.260772,-2.729301,-153.905655,-1.695150,-110.947861,0.116066,-0.554840,0.800619,-0.194138
397,0.534068,-3.653719,-12.093733,33.820667,-1.242034,0.869627,-152.475571,-1.554155,-110.840591,0.124159,-0.553864,0.797796,-0.203324
398,-0.045624,-4.174618,-11.579695,29.150902,-12.040062,10.620561,-151.424561,-1.269349,-110.905144,0.131103,-0.551765,0.796581,-0.209346
399,0.599846,-4.650249,-11.677737,39.222610,-2.902377,4.607946,-150.283157,-0.928545,-111.006706,0.138772,-0.549115,0.795398,-0.215769
400,1.297779,-4.454412,-11.202319,37.783318,11.130478,-3.652463,-148.998428,-1.038693,-111.088600,0.143994,-0.547165,0.793169,-0.225299
401,0.996182,-3.696208,-10.233129,36.737553,8.781716,-1.942101,-147.754517,-1.370168,-111.181702,0.147438,-0.545573,0.790641,-0.235580
402,1.399141,-4.698224,-8.794323,62.759892,16.205528,-6.728140,-146.093567,-1.797945,-111.288147,0.152144,-0.543518,0.786993,-0.249162
403,1.253248,-4.866072,-8.206960,75.849876,19.270718,-7.998465,-143.778992,-2.422471,-111.426689,0.158474,-0.540735,0.781420,-0.268095
404,1.247884,-5.951447,-7.228215,92.431328,19.347647,-2.738915,-140.963837,-3.041062,-111.678101,0.166845,-0.536402,0.774661,-0.290406
405,0.113100,-6.885005,-6.234167,112.827431,6.058219,12.262753,-137.523895,-3.258400,-112.076424,0.180302,-0.529031,0.767014,-0.315131
406,0.169827,-8.172023,-5.607018,127.520912,6.793950,16.575790,-133.495636,-3.074326,-112.574783,0.198533,-0.518572,0.758115,-0.341951
407,-0.710046,-8.671268,-5.881742,115.074799,-4.945096,32.108356,-129.430862,-2.487900,-113.135445,0.218882,-0.505789,0.749300,-0.367174
408,-0.327955,-9.258818,-5.208989,113.172516,-2.029192,28.790813,-125.613449,-1.613951,-113.667282,0.239497,-0.491944,0.740968,-0.389358
409,-0.516120,-9.040756,-5.064092,111.885704,-4.024847,27.084600,-121.857895,-0.784781,-114.098915,0.259256,-0.478172,0.731597,-0.410979
410,-0.094250,-8.909945,-4.950459,102.352730,-1.419575,19.571209,-118.289314,-0.066745,-114.409592,0.277371,-0.465228,0.721474,-0.431397
411,-0.649861,-9.111731,-4.893070,94.014343,-4.344351,25.760618,-115.021027,0.650871,-114.660835,0.293975,-0.452735,0.711683,-0.449574
412,-0.211106,-9.243406,-4.258190,94.128830,-1.552244,16.002167,-111.891441,1.327696,-114.849640,0.309564,-0.440576,0.701618,-0.466686
413,-0.230694,-9.942578,-3.858654,97.769958,-2.222698,13.712371,-108.698776,1.813735,-114.960030,0.324137,-0.429008,0.690049,-0.484478
414,-0.705080,-10.251447,-3.706996,89.393494,-5.928630,19.599813,-105.583321,2.384072,-114.993233,0.338846,-0.417265,0.678302,-0.500979
415,-0.431839,-10.448443,-3.631687,79.273003,-7.257949,16.413231,-102.771439,3.019751,-114.928986,0.352882,-0.406226,0.667351,-0.514876
416,-0.267849,-10.550662,-3.179121,71.103981,-8.770099,10.523776,-100.256996,3.513118,-114.756546,0.365246,-0.396998,0.656702,-0.527002
417,-0.416696,-10.766543,-2.409861,71.622253,-10.730011,8.377554,-97.862030,3.875725,-114.484047,0.376716,-0.389023,0.645677,-0.538375
419,-0.514932,-10.443340,-2.338289,58.599483,-12.346552,9.865832,-95.668259,4.223154,-114.136902,0.387606,-0.381913,0.635132,-0.548189
420,-0.360813,-10.842571,-2.095966,49.158596,-11.437531,4.000804,-93.844345,4.486797,-113.760658,0.396840,-0.376400,0.625894,-0.555965
421,-0.494951,-10.260592,-1.273473,44.808239,-10.253284,5.221433,-92.250519,4.659647,-113.406197,0.404667,-0.371857,0.617488,-0.562739
422,-0.517555,-9.964615,-1.242037,32.833099,-10.005834,2.068489,-90.929108,4.790410,-113.071167,0.411252,-0.368265,0.610295,-0.568148
423,-0.825800,-10.251887,-1.931052,8.697484,-7.971572,5.731843,-90.211731,4.923654,-112.771629,0.415709,-0.366566,0.606193,-0.570390
424,-0.890692,-10.253983,-1.277535,0.869747,-5.273571,4.104448,-90.032921,5.088482,-112.550804,0.418201,-0.366213,0.605123,-0.569931
425,-0.904151,-9.637415,-0.888428,-7.757682,-1.974698,5.416559,-90.136810,5.247437,-112.429817,0.419261,-0.366393,0.605760,-0.568359
426,-1.001015,-10.790189,-1.213336,-11.739269,1.001734,4.165350,-90.460289,5.407315,-112.414459,0.419098,-0.366816,0.607820,-0.566002
427,-0.798808,-10.926644,-0.869773,-15.921155,4.495432,-2.214824,-90.929993,5.438783,-112.506958,0.417293,-0.367873,0.610531,-0.563726
428,-0.923160,-10.614714,-0.199148,-12.051065,7.338203,-3.018206,-91.414604,5.347635,-112.703445,0.414312,-0.369059,0.613258,-0.562188
429,-0.849208,-10.859267,-0.933747,-22.195263,10.487556,-6.329219,-92.012314,5.183182,-112.997040,0.410113,-0.370492,0.616621,-0.560644
430,-1.098436,-11.017268,-1.013094,-29.787952,13.738745,-5.077477,-92.913750,4.975818,-113.393822,0.404194,-0.372627,0.621667,-0.557948
431,-0.868522,-10.695375,-0.943999,-36.401875,15.460090,-7.614778,-94.057053,4.735103,-113.868172,0.396915,-0.375276,0.628030,-0.554260
432,-1.430074,-10.623963,-1.369967,-43.200851,16.917562,2.945211,-95.426956,4.612854,-114.401299,0.389206,-0.377658,0.636011,-0.548984
433,-1.182229,-10.425771,-1.906747,-53.412247,17.682844,2.591637,-97.084419,4.641736,-114.985291,0.381103,-0.379816,0.645913,-0.541569
434,-1.116238,-10.311502,-1.923530,-55.597420,18.287477,5.259630,-98.950684,4.687344,-115.599106,0.372268,-0.382235,0.656832,-0.532809
435,-0.873082,-10.327934,-2.601846,-62.005486,17.926113,1.708687,-100.960632,4.697414,-116.215149,0.362755,-0.385070,0.668183,-0.523126
436,-0.824444,-10.431415,-3.246495,-70.906113,16.245001,-3.409014,-103.219437,4.550041,-116.768135,0.351789,-0.389568,0.679865,-0.512117
437,-0.484722,-10.407592,-3.586107,-78.022774,15.037198,-10.912475,-105.734261,4.187957,-117.214943,0.339104,-0.396174,0.691572,-0.499782
438,-0.355674,-10.599923,-4.224873,-89.447914,13.020818,-15.986282,-108.545082,3.621287,-117.531219,0.324572,-0.404967,0.703356,-0.485742
439,-0.404367,-10.498117,-4.854654,-103.095047,9.968400,-17.514292,-111.761147,2.964718,-117.698990,0.308388,-0.415686,0.715770,-0.468802
440,-0.488413,-10.269367,-5.322696,-113.911461,6.857670,-14.996868,-115.376144,2.355721,-117.738747,0.291159,-0.427437,0.728969,-0.448473
441,-0.422629,-10.049397,-6.011409,-121.581825,6.087386,-9.190989,-119.296539,1.898775,-117.743805,0.273424,-0.438871,0.742915,-0.425099
442,-0.554082,-10.042366,-6.687660,-126.301285,5.255418,0.296037,-123.425072,1.674907,-117.826248,0.255686,-0.448697,0.757613,-0.399148
443,-0.486713,-9.598468,-7.125618,-123.336983,7.522826,4.526656,-127.586128,1.618214,-118.043533,0.238144,-0.456410,0.772363,-0.372065
444,-0.543261,-9.663168,-7.711412,-113.292580,9.733845,10.822072,-131.535416,1.633682,-118.427261,0.221224,-0.461666,0.786302,-0.345909
445,-0.254348,-9.501213,-8.148551,-100.559380,13.891005,13.127519,-135.111435,1.655858,-118.986229,0.205296,-0.464387,0.799023,-0.322120
446,-0.284841,-9.398440,-8.248758,-86.295074,13.290038,14.214505,-138.241043,1.640682,-119.628548,0.190746,-0.465328,0.810120,-0.301318
447,-0.227478,-9.566937,-8.049581,-60.937183,12.292210,15.242986,-140.711746,1.636350,-120.278343,0.179027,-0.464706,0.819070,-0.284820
448,-0.336294,-9.217293,-8.232762,-44.549465,8.516232,14.401792,-142.486572,1.672685,-120.880745,0.170636,-0.462997,0.825875,-0.272850
449,0.080012,-8.578656,-7.977861,-36.732487,13.205958,2.855559,-143.853653,1.555678,-121.327698,0.163229,-0.462045,0.830736,-0.264100
450,-0.103857,-8.253979,-7.674312,-26.227013,11.168168,-4.536480,-144.907623,1.208782,-121.542664,0.155978,-0.462777,0.833582,-0.258164
451,-0.723401,-7.919142,-7.897815,-27.092323,0.159554,0.327597,-145.796936,1.013211,-121.592751,0.150850,-0.464054,0.835532,-0.252554
452,-0.324671,-6.665732,-8.179214,-51.789902,2.071205,-15.459066,-147.108459,0.842736,-121.402328,0.144690,-0.467516,0.837397,-0.243434
453,-0.565130,-6.356375,-7.492615,-58.703861,0.183876,-13.501078,-148.944885,0.554513,-121.013496,0.135852,-0.473219,0.839273,-0.230713
454,-0.841644,-6.109829,-7.478685,-61.550343,-9.428722,-7.756884,-150.944855,0.510755,-120.629295,0.127975,-0.478426,0.841527,-0.215785
455,-0.427079,-5.186814,-7.599241,-81.212341,-5.466034,-17.012230,-153.318619,0.537389,-120.146881,0.119068,-0.484484,0.843809,-0.197696
456,-0.149177,-4.480867,-6.852467,-96.435814,1.468603,-25.804495,-156.273117,0.293483,-119.474663,0.105770,-0.492744,0.845538,-0.176300
457,-0.674689,-4.056626,-6.640423,-103.799576,-10.056509,-15.658815,-159.605194,0.166297,-118.782997,0.091372,-0.500904,0.847201,-0.151645
458,-0.196701,-3.012671,-6.917485,-140.539597,-4.583440,-20.765877,-163.670380,0.208350,-118.127342,0.074555,-0.508652,0.849176,-0.120892
459,0.026898,-1.881002,-6.189318,-175.681915,3.686229,-22.650871,-168.930344,0.052503,-117.424500,0.050480,-0.516877,0.850609,-0.082187
460,-0.414458,-1.488335,-5.894575,-162.288010,-9.912822,-10.169217,-174.548615,0.078187,-116.873001,0.025473,-0.522823,0.851113,-0.040162
461,-0.263920,-0.601097,-5.897889,-151.867386,-6.817253,-6.886877,-179.769806,0.346013,-116.570320,0.003625,-0.525684,0.850673,-0.000121
462,0.183086,-0.239229,-5.493447,-125.771286,10.343600,-5.459835,175.613861,0.295825,-116.364128,-0.017983,-0.526918,0.849050,0.033876
463,0.016320,0.200058,-5.088994,-89.134125,8.028822,-4.159433,172.037842,0.008558,-116.177986,-0.036636,-0.527330,0.846819,0.058974
464,0.000662,0.384359,-5.593408,-46.780052,6.275474,-3.693285,169.774277,-0.206172,-116.011398,-0.048738,-0.527590,0.844810,0.074631
465,0.174084,0.860757,-5.848163,-43.788746,11.770152,-3.415678,168.264206,-0.479183,-115.838226,-0.057823,-0.527966,0.843079,0.084414
466,0.290002,1.370582,-6.497480,-38.160522,12.698008,-2.800041,166.896393,-0.855226,-115.650024,-0.067034,-0.528294,0.841328,0.092627
467,0.283985,1.907162,-7.334283,-33.333118,9.167305,-3.930359,165.701523,-1.182698,-115.454979,-0.075107,-0.528681,0.839586,0.099755
468,0.329137,1.914338,-8.226163,-17.375708,6.793754,-3.343792,164.852341,-1.409232,-115.269890,-0.080847,-0.529232,0.838090,0.104794
469,0.269490,2.225000,-8.866512,-6.581820,2.335813,-4.245375,164.448929,-1.522619,-115.107727,-0.083689,-0.530010,0.837028,0.107100
470,0.251873,2.436867,-9.148216,-0.744313,0.118877,-5.135452,164.322586,-1.520056,-114.946037,-0.084407,-0.531100,0.836159,0.107915
471,0.128143,2.462427,-9.385862,7.062797,-3.281608,-6.221196,164.423615,-1.418377,-114.777878,-0.083356,-0.532508,0.835418,0.107530
472,0.087335,2.466077,-9.266471,9.928327,-5.222652,-5.153992,164.703491,-1.231386,-114.632790,-0.080829,-0.533961,0.834902,0.106261
473,0.025720,2.526989,-9.105896,7.727049,-5.682219,-3.998218,164.995819,-1.016155,-114.533035,-0.077992,-0.535108,0.834588,0.105070
474,-0.079288,2.395447,-8.683567,7.425165,-7.777761,-1.977816,165.247772,-0.773782,-114.494408,-0.075087,-0.535797,0.834503,0.104346
475,-0.171129,2.189456,-7.954508,12.031261,-9.822215,0.110385,165.572571,-0.482116,-114.538223,-0.071406,-0.535965,0.834839,0.103375
476,-0.095780,1.517089,-7.001412,31.738405,-8.308600,2.433491,166.302780,-0.199349,-114.652695,-0.065829,-0.535826,0.835864,0.099444
477,-0.168308,0.781205,-6.107245,60.418629,-9.692887,1.945851,167.838776,0.076753,-114.790443,-0.056517,-0.535869,0.837630,0.089593
478,-0.253277,0.515447,-5.423352,75.714478,-12.940151,0.371273,170.106491,0.439776,-114.900032,-0.043172,-0.536306,0.839598,0.074742
479,-0.377889,0.010145,-5.141013,90.605179,-16.467905,3.170548,172.875473,0.915767,-115.031021,-0.026641,-0.536435,0.841613,0.056694
480,-0.042089,-0.898387,-5.219322,116.825432,-5.617826,6.718743,176.326309,1.265852,-115.229721,-0.007844,-0.535599,0.843792,0.032980
481,-0.229794,-1.039894,-5.812137,116.515961,-10.781525,6.218876,-179.794220,1.531722,-115.449867,0.012260,-0.533916,0.845430,0.005619
482,-0.333380,-1.008916,-6.823658,96.220085,-14.747928,7.300339,-176.259460,1.964282,-115.661690,0.031875,-0.531585,0.846203,-0.018501
483,-0.581235,-1.873440,-7.578676,100.055336,-16.177082,9.080070,-173.000122,2.501969,-115.886879,0.050862,-0.528510,0.846450,-0.040161
484,-0.163614,-2.320871,-8.577817,104.802345,-4.522600,2.325523,-169.595337,2.871021,-116.022820,0.069179,-0.525476,0.845598,-0.063664
485,-0.149790,-2.285856,-9.801952,80.691765,-0.214590,-2.486048,-166.505600,2.948693,-116.000542,0.083907,-0.523507,0.843500,-0.086064
486,-0.073615,-1.999995,-10.161659,46.637810,3.550343,-12.312451,-164.373474,2.833737,-115.774551,0.092993,-0.523644,0.840671,-0.102088
487,0.023744,-2.137053,-10.392263,42.273842,10.463471,-16.411610,-162.873734,2.476598,-115.379478,0.097630,-0.525702,0.837269,-0.114393
488,0.524892,-2.067072,-10.493473,35.806648,18.635147,-23.848047,-161.554428,1.810281,-114.887505,0.099380,-0.528971,0.833226,-0.126681
489,0.547610,-2.002266,-10.153396,33.735035,18.452362,-26.847847,-160.381317,0.951222,-114.289009,0.099298,-0.533384,0.828499,-0.138676
490,0.483115,-2.144419,-9.677405,56.432007,15.606098,-33.051620,-158.872070,0.072077,-113.550705,0.100970,-0.538540,0.822413,-0.153025
491,0.198658,-3.104379,-9.198560,101.519173,13.109947,-28.058144,-156.244644,-0.759074,-112.793953,0.108508,-0.542710,0.814287,-0.175012
492,0.340099,-4.242650,-8.940284,132.627686,14.801744,-25.964525,-152.358017,-1.570731,-112.188644,0.122200,-0.544343,0.804025,-0.205674
493,0.796024,-4.897653,-8.651401,143.300385,20.419712,-27.034412,-147.783173,-2.520390,-111.718445,0.138190,-0.544113,0.791549,-0.241442
494,0.016935,-5.823336,-7.940242,148.082138,9.261571,-16.100019,-142.952164,-3.335110,-111.407417,0.156145,-0.541691,0.777793,-0.277900
495,-0.189743,-7.387784,-7.440741,143.249893,4.412016,-0.235850,-138.109772,-3.683774,-111.348000,0.176686,-0.535857,0.764396,-0.311991
496,0.277001,-8.214258,-7.357080,129.629364,6.581632,6.603490,-133.556946,-3.743795,-111.556839,0.196805,-0.527207,0.752233,-0.342732
497,0.504925,-8.610338,-7.132344,115.673294,5.163363,10.744802,-129.453201,-3.659244,-111.896370,0.215018,-0.517381,0.741211,-0.369718
498,-0.240551,-9.167581,-6.957431,110.121208,-4.737855,26.181053,-125.672119,-3.177065,-112.278679,0.233793,-0.506040,0.731470,-0.392703
499,0.373822,-9.694775,-7.409712,97.804016,-2.199175,25.051254,-122.192314,-2.405302,-112.664581,0.252601,-0.493654,0.722808,-0.412366
500,0.435531,-9.323755,-7.260516,90.517929,-0.704693,20.535343,-119.044044,-1.728186,-113.009880,0.269040,-0.481935,0.714401,-0.430101
501,0.481504,-9.386522,-6.937192,76.196609,-0.491643,17.291208,-116.260681,-1.160995,-113.283951,0.283123,-0.471421,0.706360,-0.445712
502,0.244134,-9.852325,-6.825695,58.895065,-0.994289,19.790743,-114.006798,-0.591344,-113.523903,0.294876,-0.462053,0.699942,-0.457861
503,0.294220,-9.908369,-6.213106,50.685829,0.002739,16.194731,-112.179955,-0.033767,-113.744980,0.304685,-0.453689,0.694928,-0.467342
504,0.237514,-10.104351,-5.716846,50.287464,0.110366,12.016397,-110.498039,0.403297,-113.917618,0.313216,-0.446306,0.689851,-0.476248
505,0.252284,-10.211782,-5.235161,49.479103,-0.242339,9.375189,-108.836830,0.739826,-114.035042,0.321153,-0.439579,0.684247,-0.485218
506,0.135474,-10.631736,-4.715128,49.034920,-2.654955,6.682980,-107.195877,1.009331,-114.071609,0.328839,-0.433540,0.678115,-0.494032
507,-0.020703,-10.002052,-4.086913,50.403427,-5.052750,0.945816,-105.537361,1.167842,-113.983986,0.336384,-0.428541,0.671013,-0.502932
508,0.068210,-10.080991,-3.493088,49.470837,-4.042855,-2.789632,-103.870071,1.177034,-113.828949,0.343329,-0.424457,0.663077,-0.512143
509,-0.270196,-10.075946,-3.105559,44.956383,-3.397866,3.064356,-102.294174,1.209551,-113.708725,0.349864,-0.420234,0.655626,-0.520724
510,-0.264716,-10.176111,-2.404986,44.953941,-2.464978,3.398637,-100.794273,1.334449,-113.635193,0.356373,-0.415448,0.648860,-0.528566
511,-0.198611,-9.752037,-2.067369,46.088585,-0.754428,0.643576,-99.276192,1.410018,-113.594109,0.362455,-0.410560,0.641882,-0.536706
512,-0.229278,-10.150048,-1.557514,48.049820,0.011458,3.153548,-97.707451,1.474283,-113.590874,0.368408,-0.405266,0.634661,-0.545198
513,-0.590514,-10.167417,-1.860463,40.135002,-1.652270,8.044665,-96.237877,1.662696,-113.586655,0.374611,-0.399604,0.628190,-0.552595
514,-0.102973,-9.924070,-1.372224,38.523655,-2.726994,-0.021000,-94.925339,1.802993,-113.527649,0.380199,-0.394907,0.622058,-0.559054
515,-0.421347,-9.811314,-1.691328,27.401175,-3.218158,4.672546,-93.823769,1.888011,-113.433983,0.384888,-0.391310,0.616606,-0.564389
516,-0.682043,-9.891464,-1.655503,17.683327,-2.523245,13.191398,-93.069656,2.191025,-113.356773,0.389423,-0.387643,0.613587,-0.567093
517,-0.618518,-9.715933,-1.438940,12.895646,-1.213260,12.201762,-92.558228,2.616771,-113.315987,0.393565,-0.383943,0.612276,-0.568166
518,-0.554307,-9.687059,-1.294324,8.149837,-0.175987,11.172402,-92.207115,3.006923,-113.309158,0.396791,-0.380767,0.611757,-0.568619
519,-0.814892,-9.901811,-1.318795,2.924340,1.546966,15.246399,-92.024727,3.446055,-113.348412,0.399463,-0.377660,0.612378,-0.568151
520,-0.723804,-10.141685,-0.880124,4.712830,2.656919,13.791962,-91.902992,3.927290,-113.435432,0.401903,-0.374278,0.613580,-0.567371
522,-0.796996,-10.414272,-0.916726,0.604743,3.446942,10.152159,-91.822578,4.322837,-113.550293,0.403621,-0.371324,0.614797,-0.566774
523,-0.718101,-10.497803,-0.979086,-6.221885,5.713007,5.259633,-91.928688,4.574522,-113.711868,0.403767,-0.369519,0.616628,-0.565861
524,-0.707285,-10.643349,-0.681030,-9.938366,6.583242,2.967017,-92.214951,4.704067,-113.922478,0.402470,-0.368715,0.619119,-0.564587
525,-0.834450,-10.543607,-0.919393,-19.391050,7.466245,0.918131,-92.723328,4.758630,-114.160095,0.399946,-0.368924,0.622551,-0.562467
526,-0.787897,-10.478085,-1.116325,-30.054604,8.660151,-0.247886,-93.569733,4.754893,-114.430099,0.395875,-0.370410,0.627552,-0.558801
527,-0.631864,-10.216650,-1.188454,-38.382259,9.244020,-2.639524,-94.734528,4.685158,-114.725281,0.390298,-0.373139,0.633955,-0.553657
528,-0.861509,-10.195313,-1.289193,-43.792648,8.107182,2.405353,-96.127373,4.653762,-115.013863,0.384190,-0.376399,0.641496,-0.546996
529,-0.631488,-10.115559,-1.939895,-55.003723,9.779262,0.489918,-97.798332,4.665352,-115.316025,0.377304,-0.380190,0.650442,-0.538538
530,-0.500709,-10.188173,-2.301752,-63.011292,9.550552,-0.856925,-99.790443,4.609992,-115.634651,0.368865,-0.385127,0.660625,-0.528385
531,-0.624906,-10.007814,-2.824032,-72.531013,7.953573,-3.376870,-102.070358,4.485187,-115.908607,0.359195,-0.391382,0.671607,-0.516472
532,-0.833671,-9.799267,-3.310919,-83.476395,7.060142,-1.873009,-104.686417,4.341712,-116.132576,0.348362,-0.398812,0.683630,-0.502238
533,-0.634330,-9.709688,-3.835552,-97.151604,8.337447,-6.411661,-107.710388,4.137413,-116.340462,0.335637,-0.407521,0.696874,-0.485429
534,-0.627645,-9.810364,-4.193088,-105.118538,7.244881,-9.666705,-111.089554,3.798461,-116.497444,0.320797,-0.417733,0.710646,-0.466445
535,-1.059904,-9.538880,-4.722736,-115.892838,5.819240,-3.453354,-114.776665,3.511951,-116.613274,0.304975,-0.428284,0.725066,-0.444795
536,-0.518418,-9.316209,-5.510916,-125.195488,10.755283,-4.842621,-118.800850,3.264684,-116.795746,0.287518,-0.438513,0.740405,-0.420525
537,-0.472526,-9.474899,-6.425170,-130.767670,12.114683,-1.228299,-123.075966,2.983361,-117.071556,0.268193,-0.448140,0.756092,-0.394420
538,-0.611591,-9.458408,-7.413803,-131.227463,10.378321,5.945267,-127.453705,2.832286,-117.422089,0.248760,-0.456211,0.771725,-0.366647
539,-0.855057,-8.986160,-8.213071,-129.130646,8.121202,16.522692,-131.810181,2.924934,-117.896072,0.230472,-0.461793,0.787176,-0.337616
540,-0.305833,-9.173467,-8.764210,-117.303673,13.261812,19.640669,-135.946823,3.113939,-118.567657,0.213147,-0.464568,0.801869,-0.309438
541,-0.640305,-9.416016,-8.868525,-93.682861,12.860251,22.737621,-139.503937,3.269063,-119.383652,0.197685,-0.464750,0.814625,-0.285156
542,-0.851700,-9.490679,-8.797956,-61.104195,9.337098,22.644226,-142.129608,3.461950,-120.203552,0.186445,-0.462775,0.824512,-0.266941
543,-0.595101,-9.456312,-8.862911,-31.391783,12.942467,13.156659,-143.713333,3.526947,-120.903557,0.178934,-0.460078,0.831022,-0.256346
544,-0.230537,-9.230776,-8.946596,-14.597411,16.411692,-1.148049,-144.505905,3.248855,-121.354065,0.172757,-0.458705,0.834280,-0.252431
545,-0.842216,-8.764012,-8.522926,-7.800332,7.342098,-1.995488,-144.888641,2.895507,-121.541306,0.168264,-0.458764,0.835482,-0.251379
546,-1.031112,-8.235957,-8.484203,-16.393301,-1.840981,2.881516,-145.295044,2.828703,-121.605957,0.166012,-0.459045,0.836555,-0.248784
547,-0.458400,-7.962418,-8.039075,-23.862165,6.530231,-8.733845,-145.964218,2.709060,-121.569183,0.162539,-0.460554,0.837718,-0.244336
548,-0.758316,-6.987812,-8.115597,-41.369804,3.475895,-13.781080,-147.041595,2.362692,-121.348679,0.156140,-0.464456,0.838723,-0.237580
549,-1.019369,-6.412271,-7.741128,-68.204155,-6.886469,-6.981220,-148.854401,2.227090,-121.024612,0.148418,-0.469536,0.840917,-0.224427
550,-0.570076,-5.642000,-7.492202,-82.878029,-4.235571,-14.293804,-151.355621,2.211806,-120.622826,0.138744,-0.475655,0.843938,-0.205599
551,-0.267957,-4.850268,-7.318297,-87.906113,1.796731,-29.459782,-154.176514,1.913903,-119.956909,0.125877,-0.484376,0.845694,-0.185299
552,-0.489237,-3.899496,-7.609638,-101.629799,-4.145594,-24.478151,-157.308060,1.578469,-119.123932,0.111300,-0.494322,0.846621,-0.162761
553,-0.194559,-3.585030,-7.091564,-113.230934,-3.449133,-18.318737,-160.866455,1.443662,-118.411041,0.095751,-0.503001,0.848067,-0.136393
554,0.076827,-3.047214,-6.659026,-113.817970,8.699948,-22.422184,-164.632111,1.161264,-117.788849,0.077671,-0.510791,0.849185,-0.109289
555,0.156206,-2.366512,-6.560241,-125.162979,14.152431,-25.624989,-168.600204,0.605861,-117.102432,0.056305,-0.518701,0.849151,-0.081983
556,-0.096680,-1.534637,-6.419153,-141.726166,7.781447,-19.307285,-173.037735,0.126239,-116.423958,0.032921,-0.525749,0.848469,-0.051033
557,-0.014216,-0.898630,-5.991477,-151.708893,7.512354,-14.987677,-177.919540,-0.169583,-115.872719,0.008384,-0.530796,0.847304,-0.016171
558,-0.201008,-0.001708,-5.714139,-151.886017,2.215511,-13.644740,177.028809,-0.325582,-115.395226,-0.016255,-0.534144,0.844991,0.020395
559,-0.232686,0.394700,-5.641288,-127.545387,-0.514568,-9.457592,172.379211,-0.317593,-115.008278,-0.038034,-0.535894,0.841662,0.054564
560,-0.094202,0.650738,-5.721676,-93.652199,2.643970,-7.622715,168.696915,-0.304945,-114.721413,-0.055344,-0.536504,0.838128,0.081498
561,0.084230,1.018588,-5.985004,-69.240921,7.992518,-6.895618,165.982712,-0.425183,-114.447594,-0.069152,-0.536929,0.834748,0.100598
562,0.055900,1.760933,-6.387558,-60.923092,7.629522,-8.502316,163.811493,-0.610225,-114.133408,-0.080973,-0.537609,0.831339,0.115308
563,0.191739,1.910378,-6.949032,-40.517895,10.092577,-7.677248,162.117157,-0.813990,-113.789101,-0.090766,-0.538606,0.828069,0.126358
564,0.002028,2.379012,-7.526435,-27.571142,5.103613,-11.391148,160.976624,-0.954127,-113.408119,-0.097576,-0.540248,0.825082,0.133610
565,-0.148708,2.802256,-8.144598,-16.673285,0.278789,-11.671109,160.233078,-0.911618,-113.015373,-0.101251,-0.542479,0.822311,0.138816
566,-0.138836,2.802967,-8.677403,0.560360,-0.682591,-10.882704,159.959503,-0.777560,-112.663925,-0.102019,-0.544929,0.820204,0.141103
567,-0.251867,2.801361,-9.205684,17.694485,-3.849094,-12.973300,160.259674,-0.571687,-112.315544,-0.099544,-0.547948,0.818747,0.139635
568,-0.356958,2.983349,-9.459744,21.087492,-6.698387,-13.098969,160.903534,-0.261856,-111.963997,-0.094668,-0.551387,0.817589,0.136229
569,-0.199600,2.994662,-9.673338,23.769176,-5.153273,-9.858350,161.650650,0.047892,-111.665108,-0.089205,-0.554484,0.816777,0.132156
570,-0.187719,3.076078,-9.730551,17.750757,-4.811491,-7.519746,162.343277,0.295140,-111.440804,-0.084339,-0.556884,0.816284,0.128249
571,-0.161582,2.986893,-9.453437,12.330721,-4.599316,-5.343114,162.845749,0.508918,-111.283211,-0.080544,-0.558597,0.815909,0.125596
572,-0.008460,2.920217,-9.099238,8.901459,-1.271858,-3.882797,163.200821,0.647389,-111.164772,-0.077953,-0.559830,0.815611,0.123661
573,-0.044435,2.801545,-8.774137,9.490267,-0.503187,-4.269450,163.508774,0.714671,-111.042999,-0.076098,-0.560971,0.815295,0.121716
574,-0.128333,2.477466,-8.568604,19.004086,-0.260958,-4.961210,163.985535,0.769961,-110.898849,-0.073519,-0.562362,0.815047,0.118500
575,-0.174208,2.112532,-8.554004,39.430435,0.388322,-5.849263,164.961807,0.816068,-110.724632,-0.068566,-0.564250,0.815138,0.111674
576,-0.310200,1.924873,-8.386969,51.061703,-1.438229,-6.759593,166.472778,0.884673,-110.525208,-0.060807,-0.566581,0.815511,0.101148
577,-0.436529,1.483142,-7.943939,62.070118,-4.563578,-3.842677,168.360397,1.020644,-110.374725,-0.050612,-0.568671,0.816244,0.088307
578,-0.467554,1.014040,-7.362707,73.000435,-6.027305,1.789337,170.610886,1.199773,-110.373528,-0.038155,-0.569660,0.817729,0.073149
579,-0.416833,0.322443,-6.497377,79.275467,-6.596609,7.899152,173.143448,1.384192,-110.563057,-0.024145,-0.569078,0.820018,0.056016
580,-0.532614,0.108995,-5.635339,67.100632,-12.752102,9.752651,175.573151,1.674972,-110.887367,-0.009876,-0.567197,0.822546,0.040089
581,-0.398217,0.044874,-5.145440,44.826569,-10.262445,15.372359,177.423370,2.031410,-111.330132,0.001955,-0.564128,0.825191,0.028559
582,-0.279162,-0.335825,-5.190592,42.520229,-6.193633,21.694174,178.855408,2.283962,-111.957001,0.010930,-0.559530,0.828510,0.019427
583,-0.014183,-0.652434,-5.866005,43.779922,2.253570,21.530094,-179.735336,2.343307,-112.677933,0.018299,-0.554122,0.832181,0.009412
584,-0.115152,-0.600159,-6.428174,45.338989,1.157219,16.066244,-178.275269,2.297423,-113.304901,0.025017,-0.549291,0.835255,-0.001551
585,0.281976,-1.147336,-7.523615,65.459000,9.483027,15.199914,-176.449585,2.144948,-113.833961,0.032582,-0.545010,0.837648,-0.015740
586,0.108801,-2.037814,-7.928123,105.660233,7.768499,7.788989,-173.612778,1.892630,-114.239647,0.044088,-0.541194,0.838889,-0.037827
587,0.080838,-2.184781,-8.844708,120.342010,4.099213,0.689086,-169.854675,1.720185,-114.408592,0.060455,-0.538347,0.837939,-0.066219
588,-0.081186,-3.014170,-8.926812,138.746552,1.115918,-7.226573,-165.539536,1.614531,-114.321404,0.079987,-0.536429,0.834393,-0.098154
589,0.042506,-3.467682,-9.621340,139.893936,2.052004,-8.232517,-160.896896,1.492370,-114.090630,0.101033,-0.534576,0.828574,-0.132238
590,0.073334,-4.636332,-9.411514,144.202698,3.148449,-13.427300,-156.163101,1.280187,-113.786453,0.121950,-0.532460,0.820805,-0.167011
591,0.045406,-5.159029,-10.217204,131.403397,1.483369,-16.120958,-151.570053,0.995905,-113.378036,0.141893,-0.530564,0.811255,-0.200581
592,0.096415,-6.209660,-10.214431,123.180939,6.577499,-18.997686,-147.327896,0.584813,-112.942764,0.159441,-0.528851,0.800738,-0.231762
593,-0.071802,-6.162350,-10.635134,97.335464,5.182039,-10.261062,-143.656113,0.147831,-112.650345,0.173945,-0.526489,0.790914,-0.258857
594,0.435296,-6.416041,-10.467362,79.059723,8.602549,-12.950399,-140.719299,-0.271568,-112.486618,0.184912,-0.524000,0.782590,-0.280687
595,-0.154136,-6.095005,-10.209362,62.688156,2.681296,-5.071092,-138.359207,-0.609143,-112.378731,0.193653,-0.521676,0.775562,-0.298089
596,0.019704,-6.320467,-9.309988,58.078400,2.082543,1.548184,-136.347092,-0.707479,-112.390587,0.202088,-0.518378,0.770081,-0.312123
597,0.397125,-6.712335,-8.279764,69.590546,3.764768,3.288882,-134.218445,-0.720621,-112.517113,0.211233,-0.513727,0.764692,-0.326665
598,0.241973,-7.759765,-7.121265,89.903908,1.732166,1.868782,-131.559799,-0.720252,-112.642708,0.222719,-0.507858,0.757466,-0.344560
599,-0.039626,-8.627123,-6.469662,104.727715,2.438068,13.510994,-128.315750,-0.567777,-112.860443,0.237309,-0.499450,0.748687,-0.365653
600,0.258385,-9.590627,-5.637169,116.506325,4.705113,16.771944,-124.629364,-0.234609,-113.257675,0.254052,-0.487879,0.738989,-0.389008
601,0.235141,-10.085230,-5.857319,107.977844,5.986329,15.944104,-120.891922,0.126379,-113.702110,0.270518,-0.475216,0.728615,-0.412445
602,-0.277975,-10.179555,-5.878098,92.350685,2.758881,18.732553,-117.559158,0.558624,-114.110863,0.285378,-0.462944,0.719030,-0.432710
603,0.036354,-10.172808,-6.176317,78.324554,3.892023,17.315622,-114.722275,1.048638,-114.476242,0.298332,-0.451525,0.710775,-0.449358
604,-0.022816,-10.105466,-6.153568,64.888329,0.129034,7.141990,-112.341591,1.394926,-114.700462,0.308843,-0.442426,0.703041,-0.463259
605,-0.162856,-9.702525,-6.386364,48.495777,-1.118242,1.513306,-110.453629,1.536225,-114.736679,0.316788,-0.436459,0.695820,-0.474324
606,-0.103728,-9.890720,-5.891998,44.121315,-2.304736,-1.026391,-108.909035,1.563447,-114.685188,0.323021,-0.432341,0.689242,-0.483409
607,-0.039284,-9.934656,-5.690692,36.981701,-3.881859,-2.331085,-107.554420,1.542790,-114.569489,0.328484,-0.429273,0.682990,-0.491271
608,-0.021609,-9.398249,-4.826054,33.987488,-4.797751,-3.052284,-106.367401,1.499420,-114.404831,0.333376,-0.427014,0.677133,-0.498007
609,-0.201912,-9.570445,-4.250874,31.090681,-5.731031,4.578567,-105.278557,1.571868,-114.242859,0.338550,-0.424451,0.671973,-0.503664
610,-0.011620,-10.170174,-3.344062,33.871460,-5.769015,5.470255,-104.191696,1.782518,-114.100662,0.344401,-0.421090,0.667239,-0.508787
611,-0.197791,-9.767879,-2.562100,37.206207,-6.608867,9.492436,-103.002411,2.073329,-113.958733,0.351042,-0.416969,0.662238,-0.514147
612,-0.281308,-9.957673,-1.853173,42.626747,-6.664966,10.150809,-101.666245,2.440322,-113.812737,0.358602,-0.411963,0.656735,-0.519991
613,-0.398381,-10.397659,-1.976942,38.584854,-5.850943,7.637765,-100.306175,2.770988,-113.664261,0.365981,-0.406945,0.650957,-0.526031
614,-0.493775,-10.452749,-1.684398,38.514046,-5.737506,3.189029,-99.013351,2.981251,-113.503799,0.372445,-0.402678,0.645040,-0.532032
615,-0.654963,-9.667594,-2.024994,30.662556,-4.935416,1.111979,-97.851852,3.078279,-113.337738,0.377813,-0.399335,0.639327,-0.537634
616,-0.685278,-9.916117,-2.083167,22.757658,-3.918976,-0.496862,-96.953781,3.107504,-113.192383,0.381776,-0.397023,0.634680,-0.542035
617,-0.706080,-9.831064,-2.130016,15.057044,-2.670832,-0.551511,-96.317543,3.102866,-113.081017,0.384479,-0.395534,0.631262,-0.545194
618,-0.747706,-9.524303,-1.933019,8.843027,-1.930634,3.508946,-95.915344,3.160052,-113.009895,0.386509,-0.394288,0.629276,-0.546955
619,-0.634814,-9.397707,-1.810764,5.095443,-1.316740,5.373871,-95.680817,3.312805,-112.971085,0.388310,-0.392948,0.628492,-0.547544
620,-0.552555,-9.628945,-1.665334,3.856441,-1.229900,6.576840,-95.530251,3.515172,-112.948334,0.390005,-0.391551,0.628317,-0.547541
621,-0.609552,-9.649930,-1.529188,2.963972,-2.466547,8.238035,-95.414177,3.766832,-112.910515,0.391910,-0.390104,0.628406,-0.547112
622,-0.462810,-9.489190,-1.376272,-1.123694,-2.907862,4.664527,-95.378838,3.989355,-112.841423,0.393531,-0.389246,0.628684,-0.546239
623,-0.420279,-9.856628,-1.243898,-0.455550,-4.152588,1.025340,-95.397552,4.094840,-112.732971,0.394539,-0.389377,0.628728,-0.545368
625,-0.589515,-9.926707,-1.013151,1.843548,-3.965167,-0.515366,-95.364853,4.115984,-112.598732,0.395400,-0.389894,0.628181,-0.545006
626,-0.650110,-9.862797,-0.808702,4.359110,-3.930292,-2.816959,-95.251740,4.072834,-112.462212,0.396208,-0.390467,0.627045,-0.545316
627,-0.573935,-9.948764,-0.828569,3.038504,-2.862199,-6.312766,-95.119621,3.931504,-112.335396,0.396522,-0.391412,0.625547,-0.546129
628,-0.615719,-9.933859,-0.778992,1.817986,-1.512654,-6.415414,-95.032593,3.726658,-112.243744,0.396185,-0.392637,0.624183,-0.547055
629,-0.732667,-9.905746,-0.563311,3.978533,-0.735745,-5.124768,-94.932579,3.538301,-112.189590,0.395801,-0.393529,0.622932,-0.548116
630,-0.783058,-9.746188,-0.592674,5.801472,-0.882728,-1.076632,-94.767418,3.437581,-112.153938,0.396013,-0.393656,0.621704,-0.549266
631,-0.862140,-10.051808,-0.407220,6.953571,-0.286327,1.253607,-94.553673,3.442100,-112.134781,0.396862,-0.392998,0.620627,-0.550342
632,-0.750993,-9.744079,-0.172267,14.838015,1.629472,0.217480,-94.191948,3.464828,-112.159050,0.398102,-0.391498,0.619041,-0.552298
633,-0.954445,-10.047424,-0.257916,12.941372,2.995485,4.095848,-93.733955,3.531179,-112.241020,0.399610,-0.389126,0.617317,-0.554808
634,-0.863722,-10.041540,-0.415828,8.979659,4.855938,2.653281,-93.377251,3.635266,-112.379005,0.400687,-0.386610,0.616383,-0.556825
635,-0.846622,-10.259447,-0.722773,-0.424817,6.976300,2.217267,-93.247574,3.704827,-112.580978,0.400500,-0.384716,0.616652,-0.557973
636,-0.664922,-9.947384,-1.068697,-10.716222,9.231715,-0.907587,-93.450790,3.710676,-112.852524,0.398527,-0.383931,0.618570,-0.557803
637,-0.885896,-10.044167,-1.446038,-22.661936,7.813334,2.950661,-94.025604,3.725956,-113.138878,0.395288,-0.384294,0.622371,-0.555626
638,-0.827749,-9.889298,-1.798657,-36.492764,7.181783,2.624120,-95.028404,3.798559,-113.395737,0.391059,-0.385966,0.628299,-0.550767
639,-0.651799,-9.909842,-2.211391,-47.061020,7.033276,2.039071,-96.437088,3.851911,-113.639832,0.385412,-0.389124,0.636012,-0.543625
640,-0.494794,-9.987660,-2.472262,-54.898190,6.534177,1.424816,-98.151726,3.880250,-113.872017,0.378617,-0.393402,0.644957,-0.534709
641,-0.377220,-10.046022,-3.026352,-66.039841,5.662252,-0.057816,-100.180626,3.870156,-114.076782,0.370601,-0.398923,0.655008,-0.523908
642,-0.133210,-10.403427,-3.618783,-78.018883,7.470871,-5.643001,-102.593674,3.733518,-114.273117,0.360477,-0.406139,0.666211,-0.511145
643,-0.057784,-10.173293,-4.176359,-92.169426,8.344010,-10.393838,-105.440491,3.410461,-114.465248,0.347591,-0.415303,0.678533,-0.496283
644,-0.366179,-9.686028,-4.507363,-107.535637,6.941846,-7.822334,-108.775017,3.045383,-114.620171,0.332566,-0.425903,0.692319,-0.478227
645,-0.560838,-9.198582,-5.229261,-126.347099,5.661551,-4.345652,-112.675323,2.781463,-114.743767,0.315793,-0.437311,0.708016,-0.455793
646,-0.577846,-9.039208,-5.868484,-139.762650,6.741122,0.589725,-117.111855,2.637887,-114.903419,0.297141,-0.448760,0.725422,-0.429051
647,-0.742878,-8.778174,-6.696805,-148.358749,5.919071,9.896345,-121.918098,2.686946,-115.171547,0.277444,-0.458905,0.743955,-0.398701
648,-1.055862,-8.625422,-7.712891,-161.505188,1.583211,21.330656,-127.092056,3.045704,-115.566185,0.257542,-0.467119,0.763494,-0.364073
649,-0.557975,-8.828197,-8.289026,-162.004654,6.895954,21.860825,-132.503952,3.508194,-116.130981,0.236694,-0.473473,0.782950,-0.326785
650,-0.428494,-8.646845,-8.745732,-145.155014,12.169180,20.080566,-137.656601,3.777700,-116.851257,0.215190,-0.477856,0.800257,-0.291437
651,-1.086829,-8.462070,-9.273978,-119.545090,3.637615,22.744919,-142.107986,4.037276,-117.568581,0.196656,-0.480100,0.814316,-0.260232
652,-1.185168,-8.429659,-9.499852,-87.794800,2.822208,24.657475,-145.610733,4.416111,-118.267868,0.183143,-0.479963,0.825239,-0.234679
653,-0.798261,-8.556176,-9.087648,-49.643486,12.304602,18.770370,-147.957993,4.603464,-119.011955,0.173200,-0.477795,0.833171,-0.218035
654,-1.419378,-8.593021,-9.047136,-10.882693,9.201189,17.892059,-149.022995,4.619309,-119.723701,0.167557,-0.474153,0.838137,-0.211258
655,-1.337208,-8.846364,-9.086387,8.960134,6.166983,16.043427,-149.105347,4.692184,-120.342339,0.166605,-0.469581,0.840899,-0.211245
656,-0.931095,-8.664717,-8.678771,15.688848,16.121962,9.800951,-148.740173,4.597247,-120.904716,0.166359,-0.465129,0.842432,-0.215147
657,-1.099237,-8.055508,-8.185206,2.995239,14.480694,3.797667,-148.463913,4.280256,-121.364952,0.164301,-0.462047,0.843493,-0.219176
658,-1.167568,-7.578483,-7.965112,-4.203265,10.885537,1.209629,-148.504883,3.963186,-121.657516,0.161266,-0.460652,0.844466,-0.220614
659,-0.657108,-7.219600,-7.680014,-5.556653,11.785069,-5.698908,-148.676285,3.601560,-121.790680,0.157682,-0.460704,0.845003,-0.221039
660,-0.764551,-6.289313,-7.239358,-18.239664,10.279502,-13.058612,-149.068146,3.125090,-121.713066,0.152771,-0.462838,0.845005,-0.220021
661,-0.709375,-5.729917,-7.027939,-34.372356,4.030713,-15.065030,-149.930374,2.681587,-121.429535,0.146566,-0.466990,0.845077,-0.215137
662,-0.257303,-5.217595,-6.742933,-33.927670,8.674262,-20.506819,-151.050751,2.205371,-121.016754,0.139246,-0.472395,0.845011,-0.208351
663,-0.326578,-4.630507,-6.677234,-36.493870,5.609088,-24.628138,-152.206009,1.638319,-120.468338,0.131272,-0.478895,0.844271,-0.201577
664,-0.583570,-3.733237,-6.898484,-63.337978,-1.977873,-25.709154,-153.851471,1.203650,-119.747849,0.122381,-0.486812,0.843648,-0.190512
665,-0.130115,-3.354325,-6.859327,-75.884109,3.751710,-26.815680,-156.156815,0.808042,-118.965584,0.110838,-0.495577,0.843614,-0.174450
666,0.000487,-3.056940,-6.710397,-74.142952,7.025805,-27.629797,-158.648926,0.294782,-118.197929,0.097304,-0.504258,0.843446,-0.157654
667,-0.149808,-2.589842,-7.028604,-83.298836,0.313680,-28.607746,-161.270538,-0.141065,-117.360558,0.083546,-0.513056,0.842790,-0.139639
668,0.281407,-2.114408,-7.107686,-93.179855,5.928299,-29.697821,-164.214661,-0.528405,-116.462692,0.068413,-0.522036,0.841785,-0.119149
669,0.345875,-1.821885,-7.041765,-91.699257,7.347236,-30.139547,-167.305908,-0.987006,-115.552231,0.051705,-0.530746,0.840247,-0.098084
670,-0.143588,-1.607981,-7.289981,-78.639084,-4.959896,-26.112436,-170.160110,-1.209111,-114.641609,0.037456,-0.538677,0.838070,-0.077860
671,-0.179735,-1.143758,-7.598760,-80.810799,-8.247390,-26.184986,-172.833252,-1.120784,-113.745071,0.025981,-0.545921,0.835446,-0.057674
672,-0.125582,-0.867602,-7.413570,-84.899750,-6.537489,-23.678156,-175.608566,-0.959331,-112.893326,0.014204,-0.552555,0.832553,-0.036552
673,-0.438687,-0.793330,-7.420509,-75.076584,-13.199508,-18.874149,-178.283401,-0.668056,-112.168488,0.003521,-0.557974,0.829703,-0.015683
674,-0.337683,-0.377595,-7.647395,-70.545769,-11.437761,-14.081345,179.286926,-0.262122,-111.614487,-0.005389,-0.561955,0.827141,0.003862
675,-0.225964,0.230962,-7.670405,-80.143784,-8.582458,-10.297574,176.776169,0.085769,-111.220322,-0.015271,-0.564614,0.824875,0.023635
676,-0.155749,0.587854,-7.771186,-75.155045,-6.651927,-3.574322,174.190125,0.357822,-111.010818,-0.026131,-0.565728,0.823027,0.043535
677,-0.001221,0.903546,-8.072423,-53.650387,-3.856545,0.451968,172.044815,0.538961,-110.980591,-0.035432,-0.565444,0.821851,0.059818
678,0.163517,1.191268,-8.509095,-33.534054,-0.414067,2.216222,170.591675,0.603096,-111.035530,-0.042106,-0.564592,0.821269,0.070570
679,0.091656,1.275500,-8.888491,-16.102612,-0.923890,2.313676,169.763687,0.612390,-111.114021,-0.046065,-0.563716,0.821120,0.076580
680,0.127386,1.276216,-9.154275,2.520208,-0.082514,1.578396,169.536621,0.617346,-111.180809,-0.047101,-0.563148,0.821292,0.078259
681,-0.029088,1.365539,-9.523046,16.978832,-1.943094,-1.995147,169.861618,0.651880,-111.180031,-0.045257,-0.563306,0.821491,0.076098
682,-0.110505,1.457334,-9.656447,15.550304,-3.277827,-2.359498,170.404434,0.750118,-111.123444,-0.041919,-0.563976,0.821519,0.072668
683,-0.344101,1.713303,-9.643689,6.417846,-7.670598,-4.873351,170.771896,0.949856,-111.034409,-0.038732,-0.564854,0.821219,0.070985
684,-0.422071,1.717920,-9.601975,5.178143,-9.093224,-2.815635,170.966736,1.246153,-110.952469,-0.035696,-0.565660,0.820799,0.071020
685,-0.552568,1.616294,-9.750517,7.251600,-10.816266,-0.641927,171.174072,1.582872,-110.947098,-0.032261,-0.565928,0.820741,0.071192
686,-0.458228,1.643576,-9.701029,-2.588390,-7.833199,1.953228,171.249771,1.886667,-111.016182,-0.029664,-0.565598,0.820982,0.072163
687,-0.579295,1.729699,-9.719814,-16.916389,-7.459602,2.996270,170.920502,2.125620,-111.137444,-0.029495,-0.564757,0.821246,0.075727
688,-0.546062,1.876473,-9.809690,-29.457491,-6.138622,6.038175,170.140427,2.324283,-111.323654,-0.031779,-0.563313,0.821516,0.082342
689,-0.432794,2.107549,-9.862038,-42.464634,-3.080216,6.406311,168.932220,2.437676,-111.555962,-0.036716,-0.561349,0.821671,0.091627
690,-0.387109,2.382545,-9.601927,-54.893127,-1.382150,5.994629,167.300568,2.467641,-111.774063,-0.044293,-0.559228,0.821328,0.103547
691,-0.420146,2.635218,-9.441401,-53.347401,0.136192,4.218755,165.489716,2.447494,-111.944702,-0.053096,-0.557221,0.820435,0.116495
692,-0.369758,2.594793,-10.043628,-31.746014,2.774251,2.199276,164.068054,2.372363,-112.035370,-0.060444,-0.555804,0.819429,0.126351
693,-0.196589,2.794439,-9.908157,-13.877234,8.316185,0.061498,163.308411,2.184263,-112.019913,-0.065494,-0.555322,0.818659,0.130867
694,-0.278371,1.959936,-10.415010,22.853024,10.003754,3.038026,163.459381,1.876695,-111.982597,-0.067009,-0.555381,0.818904,0.128288
695,-0.356227,1.029985,-11.847871,40.928265,7.789420,7.136547,164.519852,1.544775,-112.064629,-0.064164,-0.555090,0.820708,0.119150
696,0.039948,1.072238,-11.932363,25.119949,11.277406,9.031314,165.616165,1.168109,-112.243660,-0.061386,-0.554074,0.822939,0.109571
697,-0.097139,1.550974,-10.241342,-4.250933,8.607298,10.425811,165.960037,0.766971,-112.475929,-0.062397,-0.552247,0.824648,0.105294
698,-0.438632,1.608047,-9.438859,-26.603804,-0.941943,13.596295,165.441635,0.543748,-112.831551,-0.066166,-0.549199,0.826018,0.108156
699,-0.291300,2.682710,-8.293076,-69.673347,-3.468490,11.958613,163.832947,0.501436,-113.261002,-0.073725,-0.545080,0.826497,0.119816
700,0.026970,3.816246,-6.694252,-99.569778,0.964879,11.827430,161.010117,0.420099,-113.650803,-0.087238,-0.540198,0.825204,0.140051
701,-0.168370,3.696693,-6.680286,-77.230667,-5.407909,13.148122,158.063019,0.342854,-114.066956,-0.101070,-0.534684,0.823349,0.161231
702,0.164400,3.761614,-7.556236,-49.076820,-1.121581,13.217130,155.956604,0.272898,-114.512680,-0.110696,-0.529435,0.822382,0.176445
703,0.545429,3.805491,-7.886832,-30.516663,6.448349,10.010962,154.629745,0.031148,-114.827965,-0.118042,-0.525470,0.821986,0.185168
704,0.492043,3.870070,-8.281632,-12.524579,7.792342,2.983298,153.912903,-0.276826,-114.920868,-0.123379,-0.523543,0.821560,0.188996
705,0.272454,3.925491,-8.074385,-4.296105,8.033648,-4.372170,153.631775,-0.503442,-114.783836,-0.126513,-0.523836,0.820705,0.189823
706,0.018490,4.491258,-7.972824,-8.803773,7.927079,-11.345673,153.410110,-0.624965,-114.430801,-0.128982,-0.525908,0.818847,0.190457
707,-0.114768,4.587710,-7.961971,-8.422013,8.117087,-11.204209,153.117920,-0.694682,-113.974754,-0.131583,-0.528710,0.816335,0.191701
708,-0.463750,4.933167,-7.326108,-11.154967,1.054270,-10.727104,152.786942,-0.664617,-113.579681,-0.133565,-0.531189,0.813919,0.193738
709,-0.537931,4.185617,-8.325036,17.198954,-3.736095,-4.028726,152.885818,-0.512413,-113.381134,-0.132363,-0.532978,0.812999,0.193515
710,-0.473365,4.408941,-8.759761,23.971375,-6.459768,2.736675,153.572510,-0.351469,-113.438141,-0.127930,-0.533627,0.814237,0.189455
711,-0.230271,4.535357,-7.469522,22.246246,-6.581845,8.591043,154.344223,-0.239404,-113.703079,-0.123110,-0.532773,0.816612,0.184776
712,-0.158284,3.703054,-8.590924,51.367611,-10.942100,12.219449,155.572510,-0.121945,-114.140785,-0.115878,-0.531115,0.820463,0.177005
713,0.033023,3.754495,-9.358667,54.523026,-7.769654,11.908385,157.337479,0.003750,-114.633858,-0.106071,-0.529471,0.825261,0.165390
714,0.206324,4.452761,-7.848101,27.842461,2.518155,10.080519,158.710114,-0.051922,-115.005959,-0.099619,-0.527939,0.828950,0.155559
715,0.121084,3.868408,-8.727469,45.084568,1.610094,5.068782,159.926147,-0.205634,-115.216843,-0.094856,-0.527239,0.831650,0.146219
716,0.109572,4.028913,-8.811802,41.697361,3.904165,0.748736,161.372589,-0.323799,-115.278275,-0.088980,-0.527805,0.833800,0.135212
717,0.083814,4.122014,-7.472862,35.312431,4.529132,-1.310151,162.655563,-0.454078,-115.225853,-0.084071,-0.529004,0.835108,0.125228
718,0.483678,3.351396,-6.933960,57.050083,9.518293,1.156671,164.194046,-0.677483,-115.156563,-0.078660,-0.530359,0.836529,0.112922
719,0.094189,3.038366,-6.489860,82.419563,-3.984670,-1.520529,166.517456,-0.765362,-115.127144,-0.068558,-0.531982,0.838554,0.095513
720,0.235939,1.802693,-4.269692,114.315269,-1.735365,4.037176,169.795227,-0.680811,-115.190208,-0.052656,-0.533320,0.841205,0.071914
721,0.057398,-0.696575,-5.071818,224.042511,-14.799331,8.135024,175.428864,-0.435107,-115.425522,-0.024510,-0.533607,0.844783,0.031687
722,-0.474353,-2.380159,-5.862372,277.602173,-32.134651,6.827975,-176.242935,0.341608,-115.682373,0.019970,-0.531897,0.846169,-0.026165
723,-1.011598,-5.707901,-7.927601,308.593353,-43.659710,13.495014,-166.540482,1.634285,-115.834236,0.074237,-0.526016,0.842245,-0.091757
724,-0.458954,-8.716887,-9.655793,299.022766,-39.144714,13.263446,-156.496475,3.068831,-115.825912,0.130365,-0.515265,0.832083,-0.158571
725,-1.154602,-10.188267,-11.084501,255.469193,-38.910603,7.514706,-147.309723,4.366651,-115.518753,0.180944,-0.502475,0.816761,-0.218356
726,-1.149004,-11.276021,-11.310456,204.788696,-30.008261,2.860170,-139.641571,5.389735,-114.977470,0.222413,-0.490240,0.799365,-0.266857
728,-0.876203,-11.611275,-10.100425,152.723740,-17.348450,-3.635423,-133.653687,5.952931,-114.424095,0.252942,-0.479991,0.782877,-0.304520
729,-0.826281,-10.484625,-8.148321,106.058960,-5.230240,-10.244424,-129.305603,6.028511,-113.983917,0.272741,-0.472754,0.769078,-0.332620
730,-1.444576,-9.751544,-6.804753,72.005058,-2.647209,-7.341039,-126.312004,5.877332,-113.695564,0.284916,-0.467911,0.758679,-0.352546
731,-0.893283,-9.353283,-6.001448,47.642673,0.048009,-9.408766,-124.299156,5.674487,-113.497780,0.292437,-0.464866,0.751183,-0.366203
732,-0.864322,-8.956098,-5.578282,25.702423,-1.999649,-8.800107,-123.058029,5.440220,-113.300720,0.296624,-0.463817,0.745915,-0.374831
733,-0.905135,-8.843640,-5.798359,7.961640,-4.221384,-8.223296,-122.474411,5.258199,-113.058708,0.298641,-0.464543,0.742652,-0.378790
734,-0.812279,-8.796948,-5.782323,-2.936110,-4.359740,-11.321005,-122.363922,5.060277,-112.761978,0.298833,-0.466906,0.740677,-0.379598
735,-0.455110,-8.331184,-5.589668,-12.017048,-1.568618,-16.271114,-122.584877,4.725618,-112.430336,0.296931,-0.470851,0.739363,-0.378778
736,-0.402276,-7.786760,-5.213530,-13.066282,0.803288,-18.635986,-122.977501,4.243619,-112.103508,0.293368,-0.475721,0.738308,-0.377527
737,-0.315965,-7.332741,-4.825487,-6.316877,2.256624,-19.608515,-123.279480,3.682025,-111.797211,0.289593,-0.480477,0.736843,-0.377281
738,0.058777,-7.157953,-4.481809,6.446609,5.858605,-22.732370,-123.261353,3.017699,-111.523018,0.286401,-0.484553,0.734206,-0.379638
739,0.160353,-6.475094,-4.198860,14.655495,6.819644,-19.837215,-122.900063,2.307659,-111.313210,0.284172,-0.487504,0.730552,-0.384550
740,0.498247,-6.805876,-4.785553,19.448627,7.283992,-18.427320,-122.326775,1.643646,-111.167885,0.282940,-0.489355,0.726495,-0.390745
741,0.266553,-7.516551,-5.992399,15.522811,5.413455,-12.058198,-121.741837,1.100616,-111.078033,0.282346,-0.490402,0.722844,-0.396589
742,0.105169,-8.318765,-6.676464,12.798917,7.360583,-9.143094,-121.269806,0.688061,-111.075005,0.281795,-0.490723,0.720213,-0.401342
743,-0.054167,-8.629971,-7.198115,2.873051,5.587258,-4.955557,-121.009300,0.375246,-111.138176,0.280732,-0.490800,0.718818,-0.404483
744,-0.121193,-9.266364,-7.623462,-6.090284,4.010676,-2.662756,-121.063301,0.183919,-111.209633,0.279050,-0.491163,0.718853,-0.405142
745,-0.517941,-9.351158,-7.242084,-11.952168,1.218089,2.358797,-121.364227,0.134377,-111.281395,0.277196,-0.491619,0.720103,-0.403640
746,-0.271670,-8.692621,-6.329237,-13.691386,-2.514121,4.833988,-121.791786,0.247791,-111.325630,0.275918,-0.491973,0.722065,-0.400568
747,-0.225673,-8.370603,-5.968009,-13.716325,-6.189971,7.985628,-122.248550,0.505797,-111.315811,0.275615,-0.492229,0.724222,-0.396548
748,-0.240956,-8.420712,-5.512309,-4.448581,-4.145877,10.793677,-122.551567,0.862311,-111.337914,0.276484,-0.491572,0.726192,-0.393138
749,-0.437850,-8.477179,-5.391511,3.402664,-3.162713,13.869854,-122.571129,1.274398,-111.456238,0.278591,-0.489425,0.727715,-0.391510
750,-0.632436,-8.532217,-5.086548,14.209680,-2.080577,18.111147,-122.283165,1.771222,-111.668121,0.282219,-0.485619,0.728765,-0.391699
751,-0.771137,-8.782031,-5.048114,17.919735,3.025495,18.508589,-121.759537,2.280413,-112.004967,0.286469,-0.480355,0.729540,-0.393658
752,-0.867103,-8.604367,-5.025807,18.264891,4.311902,21.315449,-121.176163,2.782576,-112.455925,0.290490,-0.474188,0.730531,-0.396339
753,-0.872199,-8.520931,-5.182145,15.597025,2.539054,20.457077,-120.636093,3.321145,-112.912170,0.294496,-0.467910,0.731727,-0.398633
754,-0.722696,-8.408225,-5.015329,15.689128,1.459618,17.234619,-120.138222,3.829293,-113.288254,0.298376,-0.462314,0.732632,-0.400610
755,-0.740368,-8.252842,-5.065659,14.125221,-0.760402,14.139100,-119.660545,4.276860,-113.559578,0.302129,-0.457628,0.733020,-0.402463
756,-0.732164,-8.423312,-4.932078,19.474819,-3.079431,8.879881,-119.110985,4.642630,-113.692459,0.306117,-0.453914,0.732404,-0.404770
757,-0.944614,-8.466953,-4.595653,27.233858,-7.236190,8.081306,-118.331329,4.973373,-113.677177,0.311292,-0.450624,0.730294,-0.408296
758,-1.116659,-8.464633,-4.203652,33.575119,-9.042165,9.495079,-117.308670,5.359251,-113.573410,0.318037,-0.446951,0.727066,-0.412872
759,-1.168585,-8.651281,-3.869404,39.065067,-8.405088,11.265087,-116.087959,5.798978,-113.468575,0.325829,-0.442415,0.723200,-0.418432
760,-0.931269,-8.610671,-3.481031,39.950733,-4.180441,9.978368,-114.767220,6.208567,-113.430908,0.333505,-0.437172,0.719110,-0.424896
761,-1.098965,-8.362617,-3.330048,33.039478,-1.077285,13.376189,-113.559685,6.599187,-113.510468,0.340117,-0.431490,0.715782,-0.431037
762,-0.692060,-8.346533,-3.238953,25.097946,5.226203,7.254789,-112.614227,6.887930,-113.710632,0.344609,-0.426189,0.713609,-0.436314
763,-0.693354,-8.404301,-3.157021,19.810246,7.753020,4.080758,-111.898628,6.980482,-113.983978,0.346757,-0.421931,0.712092,-0.441202
764,-0.522268,-8.343403,-3.407837,12.300035,10.378358,-4.659501,-111.397049,6.859873,-114.263161,0.346807,-0.419204,0.710899,-0.445664
765,-0.813339,-8.395793,-3.447821,10.335770,9.301972,-8.089389,-111.046432,6.542954,-114.493149,0.345324,-0.418102,0.709636,-0.449843
766,-0.678579,-8.386423,-3.407560,8.944564,10.017580,-15.661334,-110.742630,6.058343,-114.653641,0.342945,-0.418316,0.707890,-0.454195
767,-0.855784,-8.167907,-3.531305,-0.164371,10.057803,-16.579079,-110.608513,5.437527,-114.777344,0.339279,-0.419865,0.706337,-0.457921
768,-0.636760,-8.284878,-3.278100,-2.939318,12.741770,-22.520079,-110.671356,4.693704,-114.903320,0.334137,-0.422510,0.705264,-0.460913
769,-1.072391,-8.251869,-3.157144,-5.017847,11.702607,-15.999072,-110.815521,3.949051,-115.057228,0.328552,-0.425200,0.704602,-0.463460
770,-0.725509,-8.728790,-3.374716,-12.309244,14.123734,-19.247520,-111.116493,3.246505,-115.249168,0.322450,-0.427891,0.704807,-0.464954
771,-0.238739,-9.815975,-2.858564,-2.077113,15.739743,-25.410643,-111.365761,2.372418,-115.443344,0.315464,-0.431111,0.704377,-0.467416
772,0.031501,-10.847326,-2.455646,27.242495,15.466853,-26.782057,-110.951843,1.373666,-115.615242,0.310281,-0.433157,0.700796,-0.474326
773,-0.334544,-11.469407,-2.507712,54.592686,12.225038,-18.184940,-109.590889,0.511298,-115.790611,0.309475,-0.432079,0.693507,-0.486396
774,-0.110263,-12.186744,-2.110096,82.151321,12.141785,-15.098763,-107.313271,-0.142753,-116.002792,0.313179,-0.427448,0.682704,-0.503112
775,-0.191935,-12.037506,-1.472420,111.876671,11.271161,-8.871490,-104.079712,-0.632155,-116.271957,0.321022,-0.419097,0.667822,-0.524706
776,-0.551373,-11.592293,-1.481185,126.606842,8.556581,2.315609,-100.105537,-0.807396,-116.574310,0.332915,-0.406830,0.649778,-0.549040
777,-0.726704,-11.106568,-1.204970,124.681328,6.896642,8.971187,-95.919830,-0.656529,-116.858589,0.346965,-0.392091,0.630737,-0.572757
778,-0.545157,-10.441210,-0.862808,114.498085,4.790116,9.540256,-91.937370,-0.362156,-117.075752,0.360832,-0.377122,0.612113,-0.594052
779,-0.782482,-9.844118,-0.432770,102.616592,2.468992,17.902155,-88.323036,0.094846,-117.197983,0.374264,-0.362482,0.594957,-0.612012
780,-0.333648,-9.962908,-0.050430,87.644753,-1.967821,17.510513,-85.155205,0.684569,-117.175301,0.387230,-0.348873,0.579709,-0.626321
781,0.192079,-9.642816,0.373011,79.394012,-5.870446,12.187675,-82.370621,1.163087,-116.992218,0.398946,-0.337571,0.565400,-0.638131
782,-0.238553,-9.196526,0.447665,70.209740,-7.782769,20.382486,-79.871284,1.664710,-116.682793,0.410337,-0.327403,0.552191,-0.647701
783,-0.436174,-8.953605,0.916485,66.349960,-7.755329,23.525778,-77.582581,2.332237,-116.287453,0.422121,-0.317111,0.540383,-0.655165
784,0.048784,-8.973825,1.316120,60.477634,-11.373906,14.007381,-75.449020,2.866171,-115.832001,0.432963,-0.308138,0.528760,-0.661821
785,-0.270789,-8.528625,1.498954,59.482632,-11.298998,15.301326,-73.424362,3.235549,-115.335083,0.442836,-0.300469,0.517016,-0.668064
786,-1.273047,-7.722058,1.514557,56.641403,-8.467315,39.126495,-71.452446,4.000793,-114.746559,0.454601,-0.290767,0.506751,-0.672306
787,-1.098342,-7.883518,1.818636,46.093117,-10.787765,43.983841,-69.678932,5.200626,-113.984375,0.468384,-0.279659,0.498864,-0.673455
788,-0.422840,-8.285156,1.667223,22.067619,-17.542925,25.475306,-68.458969,6.113979,-113.127312,0.479956,-0.272712,0.493040,-0.672445
789,-0.531095,-8.141038,1.770362,-1.101474,-21.846210,17.826450,-68.013527,6.542222,-112.244736,0.487829,-0.271981,0.489950,-0.669326
790,-0.842377,-8.033905,1.933409,-25.010283,-22.369213,23.081009,-68.338867,6.902678,-111.301262,0.493908,-0.275202,0.490962,-0.662779
791,-1.053595,-9.175452,2.390389,-28.232279,-20.277037,28.961842,-69.102905,7.454462,-110.317070,0.499803,-0.279387,0.495081,-0.653479
792,-1.432494,-9.320962,2.304683,-22.929590,-22.430170,27.122206,-69.819397,8.080172,-109.313301,0.506091,-0.283101,0.499075,-0.643933
793,-2.118281,-9.056183,2.062910,-10.669319,-26.150763,41.365803,-70.207970,8.875574,-108.149635,0.514601,-0.285132,0.501421,-0.634399
794,-1.970593,-9.125998,1.637969,-5.546660,-28.857086,40.118984,-70.259613,9.842074,-106.808815,0.525406,-0.285459,0.502115,-0.624774
795,-1.439004,-9.579922,2.405668,11.135100,-32.147236,20.271027,-69.934486,10.441682,-105.489517,0.535536,-0.286149,0.499412,-0.617986
796,-1.161960,-9.368847,2.695794,17.033304,-38.031513,-0.834116,-69.244957,10.335778,-104.259514,0.543512,-0.288852,0.492192,-0.615553
797,-1.242287,-9.301786,3.243550,33.727028,-38.280613,-5.347742,-68.197311,9.777670,-103.093330,0.550502,-0.292103,0.481319,-0.616406
798,-0.973049,-9.319775,4.464948,58.067303,-33.243031,-17.295685,-66.510612,8.969097,-102.126305,0.557286,-0.292716,0.466331,-0.621518
799,-0.911410,-9.671991,5.047951,80.745949,-28.124744,-23.177155,-64.103043,7.926744,-101.472603,0.563536,-0.289703,0.446970,-0.631441
800,-1.518981,-9.276553,4.397583,98.487328,-20.658669,-13.450080,-61.060867,7.009014,-101.029915,0.570660,-0.281782,0.424814,-0.643801
801,-1.567152,-8.614238,4.242005,103.665794,-13.173051,-12.041250,-57.663361,6.356010,-100.763641,0.578358,-0.269624,0.401871,-0.656738
802,-1.030040,-8.347575,4.446343,92.607063,-12.333828,-24.332218,-54.394188,5.615144,-100.751366,0.583804,-0.257579,0.379404,-0.669984
803,-0.672168,-8.002002,4.658571,81.671158,-12.922643,-30.545643,-51.511444,4.630551,-100.964294,0.586177,-0.248209,0.358091,-0.683051
804,-0.788570,-7.016431,5.783871,93.161545,-5.527110,-28.934572,-48.628769,3.672862,-101.363678,0.587335,-0.238164,0.336881,-0.696295
805,-0.369485,-6.992138,6.458880,89.646584,-4.153641,-36.049229,-45.619823,2.769650,-101.984886,0.587310,-0.226629,0.315182,-0.710187
806,0.419969,-6.533280,7.288659,98.206917,-6.939895,-52.470127,-42.527275,1.610241,-102.914879,0.584605,-0.215707,0.291784,-0.725651
807,1.017477,-5.391286,8.056122,115.036896,-5.769629,-67.838684,-38.997799,0.140588,-104.291473,0.578784,-0.203918,0.264261,-0.744039
808,1.020824,-4.582347,8.651144,115.497238,-0.023907,-71.553047,-35.142612,-1.336031,-106.083542,0.570329,-0.190377,0.234535,-0.763855
809,0.749854,-4.259989,8.842739,100.942505,6.710365,-68.694313,-31.473888,-2.526128,-108.096565,0.560120,-0.176371,0.207047,-0.782490
810,0.396432,-3.050011,9.462647,105.273888,18.399258,-68.072411,-27.931562,-3.293292,-110.284027,0.548730,-0.160763,0.182019,-0.799950
811,0.114640,-2.144928,9.650759,105.051392,26.275354,-61.661011,-24.296495,-3.576394,-112.556641,0.537001,-0.142145,0.158013,-0.816368
812,-0.069264,-2.041631,10.171005,89.701904,28.052759,-47.712975,-20.931866,-3.440878,-114.590744,0.526491,-0.122946,0.136833,-0.830041
813,-0.203407,-2.006465,10.613746,88.825691,27.304937,-32.338028,-17.872339,-3.013563,-116.157944,0.518684,-0.104152,0.118064,-0.840345
814,0.029302,-0.979366,10.124405,109.534889,20.815680,-24.087549,-14.515970,-2.503043,-117.285553,0.513723,-0.084229,0.096584,-0.848331
815,0.507424,-0.735340,9.976822,103.776581,5.903423,-15.452799,-10.934243,-2.210298,-118.024124,0.510845,-0.065503,0.071776,-0.854163
816,0.595642,-0.828964,9.977797,88.504791,-1.839237,-9.760036,-7.716089,-2.209088,-118.446213,0.509328,-0.050947,0.047957,-0.857724
817,0.435337,-0.430290,9.519423,88.108406,-1.732357,-5.493659,-4.765021,-2.294823,-118.690758,0.508603,-0.038403,0.025553,-0.859765
818,0.405388,0.167209,8.942570,86.029663,-2.151071,-1.360199,-1.860284,-2.365103,-118.801125,0.508569,-0.026023,0.003466,-0.860621
819,0.681838,-0.280044,9.561745,57.278152,-6.560095,2.072380,0.526060,-2.509196,-118.787460,0.509095,-0.016508,-0.015098,-0.860420
820,0.583546,-0.269395,10.079784,45.221279,-5.734126,0.260887,2.232186,-2.714300,-118.752396,0.509556,-0.010458,-0.028820,-0.859891
821,0.303568,-0.213883,9.943708,32.258739,-4.056200,-1.774606,3.524853,-2.876164,-118.785759,0.509412,-0.005936,-0.039234,-0.859608
822,0.311701,-0.159013,9.574027,18.534599,-6.095915,-4.486512,4.377266,-3.037970,-118.901672,0.508600,-0.003408,-0.046341,-0.859748
823,0.313963,-0.099891,9.652257,7.590740,-5.573546,-9.498641,4.826173,-3.213419,-119.149704,0.506782,-0.002843,-0.050478,-0.860590
824,-0.253083,0.225208,9.626750,7.977325,6.009170,-13.723851,5.107028,-3.173033,-119.535156,0.503882,-0.001473,-0.052405,-0.862180
825,-0.446689,0.518932,9.383114,9.142451,11.608892,-13.585548,5.414427,-2.838958,-119.962265,0.500587,0.002197,-0.053263,-0.864044
826,-0.252372,0.757729,9.415967,9.215966,11.947285,-12.752266,5.738470,-2.405519,-120.361496,0.497444,0.006697,-0.053844,-0.865797
827,-0.388419,0.717087,9.908377,4.813000,17.473246,-13.632437,5.986712,-1.872821,-120.749107,0.494329,0.011623,-0.053455,-0.867552
828,-0.637642,0.866035,9.920979,6.685497,22.009762,-15.100830,6.188997,-1.167852,-121.155891,0.490977,0.017653,-0.052017,-0.869439
829,-0.573984,0.940517,9.811582,3.831163,18.549448,-15.551353,6.370265,-0.440042,-121.589737,0.487367,0.023764,-0.050370,-0.871419
831,-0.585237,0.942077,9.629777,0.506772,17.403172,-15.588154,6.443599,0.213205,-122.038696,0.483656,0.028855,-0.048264,-0.873450
832,-0.680567,0.831702,9.887987,-2.370201,16.868429,-13.222464,6.408809,0.834415,-122.452087,0.480233,0.033279,-0.045495,-0.875328
833,-0.731341,0.825405,10.027104,-1.459972,13.538849,-10.161715,6.338490,1.381223,-122.783333,0.477468,0.037035,-0.042770,-0.876826
834,-0.561283,0.653941,10.023480,-3.475783,6.923496,-7.992778,6.249004,1.753375,-123.046761,0.475303,0.039415,-0.040621,-0.878000
835,-0.479135,0.616347,9.879612,-2.497155,3.365834,-6.751518,6.142245,1.950334,-123.272766,0.473512,0.040403,-0.039063,-0.878993
836,-0.481729,0.602417,10.044204,-1.044681,1.448168,-5.943772,6.076209,2.052639,-123.474754,0.471936,0.040846,-0.038205,-0.879857
837,-0.522459,0.567061,9.907138,-0.990270,0.333712,-5.994778,6.035251,2.103181,-123.669609,0.470430,0.041001,-0.037751,-0.880676
838,-0.288985,0.426850,9.854824,-5.506290,-3.314370,-7.005208,5.918941,2.076337,-123.890427,0.468786,0.040246,-0.037045,-0.881617
839,-0.321624,0.434225,9.900970,-12.014441,-2.957701,-10.553493,5.616242,2.001679,-124.192299,0.466600,0.038342,-0.035124,-0.882939
840,-0.342346,0.347194,9.961771,-22.833956,-3.004848,-16.370386,5.019707,1.944254,-124.648521,0.463297,0.035347,-0.030903,-0.884959
841,-0.209796,0.217136,9.838795,-35.700474,-6.030007,-22.393137,4.022455,1.844962,-125.304672,0.458544,0.030412,-0.023777,-0.887833
842,-0.016089,0.017968,9.971591,-47.896149,-9.545082,-27.241785,2.603912,1.633482,-126.145866,0.452404,0.022994,-0.013803,-0.891410
843,-0.112926,-0.085371,9.920428,-47.861755,-7.894484,-28.832876,0.983695,1.372052,-127.089264,0.445360,0.014543,-0.002351,-0.895230
844,-0.026457,-0.250844,9.734159,-46.261650,-6.945661,-27.012905,-0.605078,1.128051,-128.020569,0.438229,0.006535,0.009060,-0.898794
845,-0.000650,-0.428775,9.850965,-41.706234,-5.629194,-22.026096,-2.085242,0.899309,-128.832535,0.431874,-0.000780,0.019800,-0.901716
846,0.053298,-0.564375,9.918777,-31.521181,-3.278490,-15.032542,-3.314081,0.721705,-129.442352,0.427001,-0.006655,0.028835,-0.903767
847,0.153257,-0.605996,9.799704,-23.938734,-3.628990,-10.649281,-4.243088,0.578486,-129.861725,0.423585,-0.011116,0.035669,-0.905086
848,0.050191,-0.681182,9.933212,-24.975231,-1.467483,-8.009971,-5.060985,0.468547,-130.164856,0.421063,-0.014897,0.041762,-0.905947
849,0.211534,-0.711972,10.118291,-14.619550,-2.890260,-3.308702,-5.722229,0.378352,-130.345688,0.419506,-0.017966,0.046686,-0.906373
850,0.357527,-0.695456,9.863749,-3.183193,-6.282308,1.038493,-6.019005,0.222316,-130.367798,0.419220,-0.020277,0.048467,-0.906363
851,0.312263,-0.607569,9.823077,12.140366,-7.987535,6.036209,-5.869388,-0.002106,-130.226089,0.420277,-0.021562,0.046436,-0.905951
852,0.421143,-0.597710,9.921673,33.999577,-5.998253,16.877659,-5.101034,-0.197724,-129.823898,0.423520,-0.020430,0.039571,-0.904791
853,0.495895,-0.360184,9.814264,61.853752,-6.645416,27.601576,-3.507049,-0.352234,-129.069458,0.429676,-0.015931,0.026306,-0.902459
854,0.060993,-0.294292,9.773443,67.393623,1.303861,34.688011,-1.360308,-0.397335,-128.029205,0.438072,-0.008318,0.009151,-0.898855
855,-0.011703,-0.093460,10.104242,63.081001,5.609665,34.333084,0.807167,-0.275924,-126.881310,0.447127,0.000996,-0.007377,-0.894439
856,-0.177903,0.181406,10.155896,56.583241,8.390378,30.501751,2.797698,-0.076444,-125.795204,0.455461,0.010528,-0.022035,-0.889921
857,-0.421295,0.515134,10.096597,39.993076,11.069939,21.824947,4.407890,0.192346,-124.905319,0.462081,0.019273,-0.033321,-0.886002
858,-0.373836,0.687283,10.069341,19.004503,9.601836,13.012782,5.394930,0.486043,-124.298210,0.466474,0.025732,-0.039631,-0.883272
859,-0.160510,0.945767,10.068873,8.329423,3.490474,5.759969,5.853979,0.672816,-123.965858,0.468849,0.029162,-0.042324,-0.881782
860,-0.155554,1.038008,9.828104,7.051924,0.950643,3.724692,6.112326,0.729952,-123.800888,0.470026,0.030722,-0.044034,-0.881018
861,-0.041108,1.004189,9.804833,2.746920,-1.398751,3.364309,6.277085,0.709750,-123.684189,0.470887,0.031289,-0.045351,-0.880471
862,-0.078783,0.992686,9.844424,-0.152977,-0.894387,3.324302,6.321572,0.659560,-123.577538,0.471717,0.031129,-0.045871,-0.880006
863,-0.092008,0.977369,9.836990,-1.706651,-0.656745,3.298341,6.291777,0.621762,-123.470650,0.472562,0.030759,-0.045769,-0.879570
864,-0.040702,0.977305,9.888291,-2.323450,-1.713665,3.375239,6.225716,0.570376,-123.364380,0.473418,0.030134,-0.045446,-0.879148
865,-0.042641,1.017388,9.883583,-2.163634,-1.792846,3.508842,6.151930,0.499911,-123.256622,0.474294,0.029331,-0.045144,-0.878719
866,-0.070564,1.045921,9.828784,-2.871671,-1.293700,3.139588,6.068865,0.436965,-123.151917,0.475145,0.028546,-0.044742,-0.878306
867,-0.013892,1.003841,9.864615,-5.815624,-2.137913,2.595936,5.924706,0.370104,-123.062798,0.475891,0.027470,-0.043893,-0.877979
868,0.009784,0.847640,9.897944,-8.383266,-1.986311,1.823616,5.688437,0.294294,-122.996475,0.476484,0.025932,-0.042383,-0.877778
869,-0.063604,0.880985,9.772298,-7.235339,-0.003614,0.892484,5.428325,0.256925,-122.954605,0.476877,0.024579,-0.040536,-0.877691
870,-0.023345,0.882395,9.780738,-8.056828,-0.419432,0.035555,5.173528,0.248486,-122.939819,0.477046,0.023459,-0.038617,-0.877716
871,0.067308,0.898325,9.865130,-8.956138,-1.807968,-1.002645,4.889901,0.212937,-122.959137,0.476967,0.022000,-0.036596,-0.877883
872,0.061522,0.823104,9.960156,-9.711329,-1.297263,-2.998908,4.578544,0.166887,-123.029907,0.476497,0.020330,-0.034415,-0.878267
873,0.004087,0.874780,9.849457,-8.219077,-0.485843,-5.779472,4.279287,0.148596,-123.178047,0.475418,0.018904,-0.032222,-0.878967
874,0.095285,0.688579,9.885045,-11.533980,-2.182391,-8.015175,3.949512,0.120811,-123.410530,0.473694,0.017262,-0.029843,-0.880015
875,0.041973,0.520532,9.983522,-12.213649,-1.392920,-8.926355,3.553245,0.079825,-123.696220,0.471565,0.015241,-0.027007,-0.881286
876,-0.019849,0.442300,9.948963,-9.432480,-0.738055,-9.085653,3.192087,0.062042,-123.997940,0.469292,0.013554,-0.024338,-0.882604
877,-0.041091,0.445890,9.836141,-6.527491,-1.004701,-8.203668,2.925799,0.048479,-124.287224,0.467095,0.012303,-0.022374,-0.883838
878,0.012113,0.368606,9.975020,-6.220490,-2.298451,-6.215000,2.713228,0.005359,-124.529961,0.465252,0.011059,-0.020933,-0.884862
