seq,ax,ay,az,wroll,wpitch,wyaw,roll,pitch,yaw,q0,q1,q2,q3
30,0.291810,-1.616453,9.593766,-23.411913,3.078292,8.651880,-9.563936,-1.718009,0.289421,0.996407,-0.083317,-0.015150,0.001267
31,-0.690033,-4.284892,9.120699,-14.290933,-5.715816,-6.254623,-10.257796,-1.731244,0.338147,0.995882,-0.089342,-0.015311,0.001588
32,-0.385982,-4.524599,9.110747,-7.002416,-13.564440,-14.157861,-10.734017,-2.069349,0.065002,0.995454,-0.093510,-0.018031,-0.001124
33,-0.095405,-4.517896,8.719913,-4.012866,-18.257183,-16.712864,-11.035695,-2.660369,-0.336671,0.995087,-0.096197,-0.022824,-0.005156
34,0.179639,-4.631922,8.856517,-3.681645,-18.003851,-19.301489,-11.275719,-3.352345,-0.803966,0.994692,-0.098400,-0.028419,-0.009852
35,0.242126,-4.794478,8.940935,-4.299650,-15.005701,-20.765396,-11.511556,-4.009456,-1.343840,0.994240,-0.100628,-0.033628,-0.015169
36,0.401139,-4.705635,8.505948,-6.552251,-11.081377,-16.551157,-11.794971,-4.547063,-1.857454,0.993728,-0.103294,-0.037791,-0.020186
37,0.528679,-4.519725,8.327919,-9.862208,-4.532770,-9.698511,-12.178181,-4.881639,-2.222016,0.993182,-0.106780,-0.040284,-0.023779
38,0.590236,-4.670277,8.637150,-8.509964,2.117965,-8.037010,-12.595868,-4.974478,-2.491747,0.992690,-0.110507,-0.040742,-0.026351
39,0.443808,-4.871898,8.613874,-4.659859,5.566179,-5.330095,-12.930720,-4.884364,-2.726378,0.992343,-0.113476,-0.039652,-0.028414
40,0.459687,-4.960206,7.964861,-4.173989,6.832520,-1.123046,-13.212733,-4.690629,-2.865712,0.992100,-0.115932,-0.037763,-0.029525
41,0.296327,-5.048331,8.042960,-8.114102,10.293311,-0.816181,-13.565198,-4.401856,-2.950639,0.991823,-0.118958,-0.035084,-0.030081
42,0.133854,-5.203498,8.202088,-11.469736,11.456700,-1.404942,-14.037306,-4.033482,-3.061286,0.991423,-0.123006,-0.031653,-0.030794
43,0.008691,-5.129401,8.273633,-15.377316,9.628225,-0.997262,-14.626424,-3.672982,-3.176605,0.990862,-0.128060,-0.028248,-0.031556
44,0.118905,-4.990368,8.147336,-20.163059,8.092515,-1.476324,-15.353887,-3.370872,-3.283959,0.990089,-0.134310,-0.025310,-0.032312
45,0.264044,-4.863496,8.439963,-23.409410,8.835726,-4.026419,-16.200266,-3.105448,-3.441685,0.989099,-0.141594,-0.022585,-0.033536
46,0.238313,-4.914979,8.454558,-23.680574,8.968108,-5.980111,-17.090155,-2.854846,-3.680399,0.987964,-0.149256,-0.019851,-0.035445
47,0.157355,-4.911646,8.351860,-23.729992,9.399634,-7.527949,-17.978483,-2.616139,-3.982001,0.986740,-0.156897,-0.017107,-0.037872
48,0.018929,-4.983474,8.242872,-26.689028,10.249591,-8.141858,-18.913113,-2.370107,-4.328695,0.985368,-0.164918,-0.014182,-0.040640
49,-0.017211,-5.078279,8.248463,-30.395502,10.617582,-7.576185,-19.957243,-2.109072,-4.687385,0.983752,-0.173848,-0.011026,-0.043455
50,-0.072828,-5.314903,8.315486,-33.071758,9.873191,-6.081238,-21.108170,-1.848787,-5.016806,0.981883,-0.183658,-0.007830,-0.045972
51,-0.057246,-5.410726,8.181632,-33.899975,8.155151,-4.003446,-22.319517,-1.612739,-5.281103,0.979827,-0.193957,-0.004877,-0.047915
52,0.003414,-5.575565,8.142387,-34.796646,6.923522,-2.833736,-23.560106,-1.410527,-5.481422,0.977624,-0.204482,-0.002275,-0.049316
53,0.027630,-5.722725,7.948920,-33.984207,5.361937,-1.407830,-24.803274,-1.241263,-5.627505,0.975317,-0.215011,-0.000024,-0.050265
54,-0.060040,-5.862684,7.742802,-34.143883,3.789670,0.370564,-26.038340,-1.099468,-5.706557,0.972935,-0.225453,0.001877,-0.050655
55,-0.040252,-6.030740,7.518695,-34.673038,2.075523,2.304616,-27.288523,-0.980291,-5.708786,0.970437,-0.236006,0.003444,-0.050406
56,-0.124671,-6.245011,7.531401,-35.270882,0.529265,3.269731,-28.558752,-0.886134,-5.645471,0.967806,-0.246713,0.004661,-0.049628
57,-0.255254,-6.600944,7.482625,-33.170952,-1.176848,4.363230,-29.805315,-0.816918,-5.527860,0.965127,-0.257204,0.005520,-0.048429
58,-0.131962,-7.023832,7.400170,-27.323891,-1.761475,4.235976,-30.925158,-0.770785,-5.378250,0.962638,-0.266613,0.006032,-0.047009
59,-0.106769,-7.185730,7.058176,-18.709499,-2.204562,3.604990,-31.810907,-0.747223,-5.230907,0.960612,-0.274046,0.006241,-0.045670
60,-0.175366,-7.315336,6.832135,-11.270654,-2.404975,3.173960,-32.434814,-0.739438,-5.092933,0.959161,-0.279277,0.006218,-0.044461
61,-0.197714,-7.405849,6.645282,-3.893276,-1.927713,2.796462,-32.815929,-0.731761,-4.968679,0.958275,-0.282469,0.006124,-0.043382
62,-0.229108,-7.263363,6.466880,1.660477,-1.447291,2.704396,-32.982750,-0.712967,-4.859560,0.957907,-0.283863,0.006074,-0.042415
63,-0.397380,-7.135208,6.429547,2.748118,-1.451693,3.674649,-33.036182,-0.674307,-4.742512,0.957823,-0.284303,0.006127,-0.041338
64,-0.381881,-7.215138,6.592813,0.978091,-1.817444,4.115589,-33.097271,-0.624366,-4.602513,0.957729,-0.284805,0.006218,-0.040041
65,-0.341556,-7.149079,6.744862,1.392236,-1.801866,4.167301,-33.175220,-0.576545,-4.452653,0.957593,-0.285449,0.006272,-0.038665
66,-0.301635,-6.967135,6.775047,0.327008,-2.467036,4.020506,-33.256195,-0.540753,-4.298397,0.957447,-0.286123,0.006213,-0.037283
67,-0.138866,-6.921373,6.935269,-2.165722,-2.899169,3.090613,-33.388748,-0.535030,-4.149281,0.957164,-0.287237,0.005930,-0.036016
68,-0.106398,-6.865548,7.042494,-3.906989,-3.231003,0.968693,-33.584488,-0.572520,-4.035645,0.956702,-0.288888,0.005392,-0.035151
69,-0.115927,-6.804668,7.070737,-3.432054,-2.389436,-0.986924,-33.795193,-0.640653,-3.983138,0.956176,-0.290668,0.004755,-0.034876
70,-0.114095,-6.789394,7.035910,-3.348992,-1.434902,-2.756335,-33.992992,-0.717740,-3.998527,0.955658,-0.292338,0.004211,-0.035192
71,-0.063521,-6.780109,6.976314,-3.668725,-0.372091,-3.800958,-34.193439,-0.793994,-4.071195,0.955112,-0.294028,0.003824,-0.035986
72,-0.140673,-6.762995,6.853287,-4.675221,0.904451,-4.618132,-34.416210,-0.854481,-4.191021,0.954491,-0.295898,0.003699,-0.037132
73,-0.137296,-6.764040,6.827322,-5.568853,2.062160,-4.510445,-34.670582,-0.886353,-4.343197,0.953776,-0.298020,0.003912,-0.038473
74,-0.135810,-6.778946,6.821840,-7.229910,1.898433,-3.864083,-34.966358,-0.897931,-4.494248,0.952950,-0.300479,0.004311,-0.039750
75,-0.078114,-6.888373,6.792776,-9.692125,1.266134,-3.368854,-35.331661,-0.911618,-4.621936,0.951940,-0.303514,0.004662,-0.040833
76,-0.087309,-7.120493,6.793391,-11.027040,1.001478,-3.015591,-35.764080,-0.931314,-4.729179,0.950746,-0.307106,0.004940,-0.041757
77,-0.025871,-7.192531,6.707792,-10.059657,0.478837,-2.000133,-36.206303,-0.950204,-4.809927,0.949521,-0.310775,0.005164,-0.042458
78,-0.002088,-7.147319,6.599184,-9.534819,0.053692,-0.954260,-36.624500,-0.963942,-4.853373,0.948362,-0.314241,0.005324,-0.042836
79,0.018969,-7.211631,6.581400,-9.325748,0.177798,0.004584,-37.029984,-0.962946,-4.866878,0.947239,-0.317594,0.005521,-0.042926
80,-0.011409,-7.266104,6.597123,-7.283902,0.155435,0.964974,-37.396950,-0.941062,-4.855884,0.946225,-0.320619,0.005809,-0.042756
81,-0.000022,-7.275829,6.589881,-4.562789,-0.069847,1.627830,-37.682640,-0.905539,-4.821054,0.945442,-0.322967,0.006110,-0.042354
82,0.010545,-7.277894,6.548023,-2.583116,-0.601900,1.962563,-37.888680,-0.870427,-4.765530,0.944887,-0.324658,0.006319,-0.041786
83,0.042477,-7.354466,6.527934,-1.534293,-1.066915,1.630384,-38.044704,-0.849538,-4.699882,0.944471,-0.325941,0.006361,-0.041177
84,0.068089,-7.345348,6.547296,-0.058169,-1.406933,0.945613,-38.158169,-0.851127,-4.639374,0.944170,-0.326880,0.006216,-0.040677
85,0.115457,-7.264237,6.566885,0.630901,-1.362559,-0.227571,-38.231998,-0.877494,-4.600205,0.943968,-0.327499,0.005913,-0.040425
86,0.110459,-7.177137,6.587559,0.595576,-1.252640,-0.874373,-38.290352,-0.921503,-4.586456,0.943798,-0.327994,0.005532,-0.040435
87,0.125363,-7.204955,6.681042,0.810856,-0.837532,-1.290755,-38.341873,-0.969555,-4.591996,0.943640,-0.328432,0.005170,-0.040615
88,0.093941,-7.192647,6.814804,2.517849,-0.455628,-1.747829,-38.459038,-1.010209,-4.615413,0.943288,-0.329408,0.004944,-0.040919
89,0.061541,-7.136376,6.811795,3.705783,-0.489627,-2.059185,-38.621708,-1.044395,-4.650643,0.942800,-0.330756,0.004823,-0.041300
90,0.001737,-7.121741,6.804651,3.724190,-0.799030,-1.788527,-38.755711,-1.073425,-4.682713,0.942395,-0.331866,0.004725,-0.041642
91,-0.020898,-7.123452,6.804847,3.575274,-1.016181,-1.161754,-38.886936,-1.090973,-4.697459,0.942006,-0.332950,0.004671,-0.041809
92,-0.007579,-7.103325,6.783712,3.565738,-1.345584,0.059220,-38.924576,-1.108694,-4.684145,0.941898,-0.333265,0.004501,-0.041750
93,0.016467,-7.036331,6.677107,3.594599,-1.778332,1.756699,-38.868687,-1.121354,-4.626696,0.942078,-0.332812,0.004209,-0.041316
94,-0.012660,-7.015559,6.681591,3.829422,-2.175967,3.649514,-38.809895,-1.107059,-4.513935,0.942292,-0.332328,0.003979,-0.040350
95,-0.065157,-7.033026,6.741292,4.883738,-2.961028,5.638586,-38.730011,-1.065757,-4.338382,0.942592,-0.331665,0.003782,-0.038789
96,-0.011527,-6.981461,6.745880,6.051085,-4.019246,6.919607,-38.612968,-1.014948,-4.101064,0.943017,-0.330696,0.003476,-0.036694
98,-0.066862,-6.915308,6.923427,4.557653,-4.534250,6.956966,-38.497406,-0.971769,-3.830260,0.943442,-0.329741,0.003015,-0.034344
99,-0.075507,-6.867891,7.055953,3.075533,-4.692088,6.226846,-38.424927,-0.943790,-3.561635,0.943733,-0.329144,0.002452,-0.032053
100,-0.012576,-6.766241,7.175793,1.732879,-4.344959,5.269250,-38.392975,-0.932673,-3.317140,0.943892,-0.328883,0.001833,-0.030008
101,0.091942,-6.664495,7.227943,0.357253,-3.560213,3.618612,-38.399586,-0.938046,-3.118560,0.943923,-0.328941,0.001221,-0.028388
102,0.088668,-6.546865,7.300032,-1.167107,-2.488416,1.115201,-38.491074,-0.959313,-2.992836,0.943688,-0.329700,0.000707,-0.027413
103,0.134925,-6.520895,7.343227,-1.198626,-1.785961,-1.214319,-38.602306,-1.008322,-2.948575,0.943370,-0.330625,0.000202,-0.027189
104,0.168964,-6.553934,7.436588,-1.027128,-1.216751,-3.487863,-38.663452,-1.095494,-2.978156,0.943174,-0.331144,-0.000416,-0.027684
105,0.171519,-6.675504,7.436677,0.383364,-0.819993,-5.140367,-38.697502,-1.211269,-3.068762,0.943035,-0.331447,-0.001098,-0.028764
106,0.211534,-6.689938,7.358990,2.005635,0.310715,-6.646384,-38.682816,-1.340261,-3.216265,0.943017,-0.331353,-0.001737,-0.030350
107,0.201936,-6.785129,7.370003,3.217139,1.661171,-6.583722,-38.622437,-1.451586,-3.408364,0.943119,-0.330882,-0.002115,-0.032251
108,0.288287,-6.752081,7.197247,5.308698,2.964243,-5.349193,-38.510479,-1.515470,-3.611142,0.943370,-0.329978,-0.002089,-0.034102
109,0.283540,-6.570907,6.985979,5.852643,4.613573,-4.331428,-38.357697,-1.518510,-3.815130,0.943747,-0.328724,-0.001574,-0.035788
110,0.228229,-6.432590,6.995378,3.016792,6.726903,-2.915303,-38.241795,-1.445219,-4.026161,0.944026,-0.327753,-0.000403,-0.037316
111,0.134589,-6.378058,7.129599,-0.244312,8.774897,-1.126653,-38.223103,-1.280778,-4.238215,0.944042,-0.327555,0.001552,-0.038594
112,0.145724,-6.291423,7.359155,0.868692,10.732967,-1.446779,-38.232452,-1.047568,-4.472592,0.943980,-0.327559,0.004147,-0.039859
113,0.022870,-6.230588,7.458850,8.188440,12.418002,-2.793802,-38.093231,-0.782298,-4.766240,0.944321,-0.326316,0.007122,-0.041530
114,-0.202551,-6.396074,7.629393,16.784037,13.389415,-3.528544,-37.687809,-0.495520,-5.113153,0.945389,-0.322849,0.010319,-0.043610
115,-0.252699,-6.422960,7.565403,23.696119,13.315914,-4.494966,-37.029686,-0.206469,-5.488999,0.947125,-0.317267,0.013498,-0.045975
116,-0.264302,-6.412555,7.621442,28.717098,13.277450,-5.514870,-36.179340,0.065311,-5.886661,0.949327,-0.310068,0.016485,-0.048633
117,-0.376335,-6.376747,7.419774,29.710388,12.407438,-3.260116,-35.238289,0.343707,-6.254831,0.951715,-0.302080,0.019368,-0.051091
118,-0.464837,-6.263115,7.333552,23.352379,11.252337,-0.382653,-34.396999,0.651898,-6.529707,0.953816,-0.294889,0.022265,-0.052725
119,-0.320334,-6.014310,7.335473,14.912817,10.081711,2.514407,-33.804245,0.981705,-6.699971,0.955278,-0.289751,0.025171,-0.053422
120,-0.359986,-5.812952,7.600353,11.092920,9.475268,4.884703,-33.408077,1.331699,-6.778301,0.956260,-0.286248,0.028102,-0.053285
121,-0.490056,-5.662026,7.670907,9.321613,6.793689,8.013446,-33.094673,1.687980,-6.747787,0.957066,-0.283452,0.030855,-0.052220
122,-0.413249,-5.626794,7.774283,8.438733,4.235580,8.145171,-32.818970,1.998789,-6.622359,0.957805,-0.281019,0.033018,-0.050479
123,-0.410640,-5.568239,7.836855,7.598764,2.633827,5.360575,-32.569420,2.221883,-6.495347,0.958466,-0.278853,0.034464,-0.048941
124,-0.488372,-5.587947,7.911648,6.676452,1.933862,1.953367,-32.350845,2.356175,-6.434052,0.959019,-0.276973,0.035345,-0.048167
125,-0.355364,-5.600892,7.826005,5.288457,1.070391,-1.402130,-32.176788,2.405175,-6.453971,0.959428,-0.275485,0.035730,-0.048268
126,-0.181383,-5.671422,7.697617,3.686193,1.697070,-6.079544,-32.063637,2.371454,-6.585486,0.959645,-0.274514,0.035715,-0.049486
127,-0.335774,-5.525656,7.610244,1.696059,3.477323,-9.743773,-32.018734,2.297788,-6.856410,0.959634,-0.274093,0.035727,-0.051947
128,-0.315147,-5.525036,7.643153,1.083987,4.569709,-9.173343,-32.018158,2.241371,-7.196412,0.959478,-0.274013,0.036068,-0.054930
129,-0.199713,-5.569890,7.603296,2.862921,4.883625,-7.891987,-31.998571,2.218369,-7.522673,0.959365,-0.273759,0.036646,-0.057724
130,-0.356943,-5.633184,7.467436,4.952651,4.774994,-6.700597,-31.918095,2.221902,-7.815947,0.959406,-0.272989,0.037333,-0.060197
131,-0.584281,-5.692611,7.411755,6.924306,4.362033,-4.118581,-31.773542,2.261760,-8.051363,0.959624,-0.271676,0.038149,-0.062120
132,-0.447142,-6.022321,7.504304,8.602180,3.088624,-0.958171,-31.572580,2.330502,-8.190714,0.960023,-0.269902,0.038944,-0.063190
133,-0.481974,-6.344397,7.577086,11.505762,1.937004,1.199467,-31.302847,2.407897,-8.233543,0.960631,-0.267576,0.039543,-0.063458
134,-0.603690,-6.316981,7.552641,14.497175,0.413330,3.074932,-30.938160,2.485047,-8.195634,0.961498,-0.264480,0.039901,-0.063086
135,-0.591153,-6.443930,7.470500,15.981897,-0.783601,4.427077,-30.501783,2.552474,-8.088068,0.962555,-0.260811,0.039981,-0.062178
136,-0.369541,-6.532000,7.536062,17.232409,-1.005987,3.387732,-30.026453,2.594896,-7.964046,0.963695,-0.256832,0.039801,-0.061205
137,-0.504983,-6.290578,7.428566,18.581942,-0.934065,1.486102,-29.511196,2.607270,-7.881210,0.964883,-0.252517,0.039447,-0.060658
138,-0.612012,-6.082705,7.491210,17.468987,-1.606279,-0.522035,-28.990810,2.584285,-7.850121,0.966038,-0.248157,0.038910,-0.060625
139,-0.654431,-6.217938,7.643192,15.638888,-2.432309,-1.701426,-28.520626,2.517069,-7.853788,0.967048,-0.244232,0.038102,-0.060960
140,-0.594596,-6.087568,7.869192,14.285026,-3.314848,-2.584810,-28.102776,2.407998,-7.874709,0.967925,-0.240766,0.037003,-0.061507
141,-0.710804,-5.762971,8.007073,12.944394,-4.430703,-2.026060,-27.719097,2.269084,-7.885088,0.968724,-0.237607,0.035645,-0.062009
142,-0.640785,-5.708988,8.165233,11.447402,-5.537242,-0.875117,-27.372995,2.112648,-7.853514,0.969458,-0.234787,0.034070,-0.062174
143,-0.525872,-5.658120,8.185636,10.852374,-5.087643,-0.977103,-27.059692,1.950937,-7.802155,0.970126,-0.232250,0.032428,-0.062163
144,-0.449942,-5.429741,8.233958,11.215997,-3.409966,-0.891524,-26.747286,1.817231,-7.767797,0.970774,-0.229695,0.031057,-0.062230
145,-0.473399,-4.969522,8.288856,12.487292,-2.498303,-0.354214,-26.395262,1.726804,-7.743759,0.971488,-0.226773,0.030052,-0.062302
146,-0.302522,-4.984674,8.453705,13.910571,-2.151485,0.585854,-25.988840,1.663290,-7.707146,0.972306,-0.223374,0.029221,-0.062223
147,-0.273722,-4.753188,8.560092,16.982323,-1.437318,0.199712,-25.502794,1.615059,-7.670265,0.973264,-0.219286,0.028477,-0.062126
148,-0.236272,-4.528767,8.748955,19.415651,-2.496399,1.806405,-24.915049,1.568708,-7.612693,0.974407,-0.214332,0.027656,-0.061869
149,-0.127757,-4.382867,8.813485,21.568846,-3.891478,1.928256,-24.243420,1.493421,-7.512197,0.975700,-0.208685,0.026469,-0.061313
150,0.173522,-4.689658,8.855095,22.245724,-3.787421,0.526834,-23.532585,1.379225,-7.423576,0.977022,-0.202715,0.024958,-0.060924
151,-0.030609,-4.501774,8.903974,22.392370,-3.227252,-1.614729,-22.816942,1.249214,-7.395136,0.978282,-0.196690,0.023419,-0.061060
152,-0.150726,-4.573453,9.070183,20.770355,-3.259882,-1.012317,-22.127707,1.125816,-7.395061,0.979445,-0.190872,0.021997,-0.061406
153,-0.130563,-4.808303,9.099896,19.110706,-2.340021,-1.303971,-21.503284,1.021574,-7.397085,0.980467,-0.185591,0.020773,-0.061712
154,-0.228286,-4.789852,9.228223,16.415655,-1.691527,-1.883930,-20.960100,0.939054,-7.423227,0.981319,-0.180984,0.019815,-0.062165
155,-0.459247,-4.640389,9.467822,13.476695,-1.590087,-2.686372,-20.508793,0.868409,-7.475864,0.981993,-0.177149,0.019047,-0.062804
156,-0.444782,-4.585478,9.492178,11.542065,-2.150392,-3.950969,-20.136349,0.784455,-7.558536,0.982515,-0.173991,0.018248,-0.063702
157,-0.378860,-4.504760,9.420161,10.100196,-2.472753,-6.923120,-19.821939,0.661949,-7.703075,0.982902,-0.171344,0.017239,-0.065176
158,-0.326503,-4.078107,9.274549,10.950833,-2.299335,-11.624188,-19.512590,0.493286,-7.967800,0.983198,-0.168752,0.016005,-0.067743
159,-0.413107,-3.936414,8.965245,12.212454,-1.329140,-15.951310,-19.163141,0.296916,-8.381692,0.983441,-0.165819,0.014712,-0.071629
160,-0.529660,-3.860772,8.780754,12.217965,0.168157,-16.542732,-18.794317,0.122366,-8.887658,0.983627,-0.162704,0.013701,-0.076268
161,-0.495275,-3.817228,8.755369,10.428754,0.547315,-13.056759,-18.456244,-0.000131,-9.358971,0.983767,-0.159831,0.013082,-0.080526
162,-0.231234,-3.503917,8.818716,9.084149,0.597820,-9.000287,-18.163979,-0.079814,-9.713912,0.983908,-0.157339,0.012679,-0.083716
163,-0.153889,-3.326119,9.004917,9.406955,1.225922,-3.898804,-17.877613,-0.107385,-9.927697,0.984137,-0.154877,0.012522,-0.085621
164,-0.075857,-3.187592,9.198813,10.676658,0.802328,0.354153,-17.556726,-0.086591,-9.994242,0.984519,-0.152098,0.012549,-0.086200
165,0.053076,-3.257240,9.323746,14.606218,-0.198548,2.060182,-17.147631,-0.063495,-9.958812,0.985085,-0.148568,0.012394,-0.085910
166,0.297742,-2.947520,9.020543,18.592358,0.714704,-1.062100,-16.605379,-0.058531,-9.945397,0.985788,-0.143903,0.012013,-0.085846
167,0.232905,-3.102381,8.936340,18.534447,2.425561,-2.852383,-16.001068,-0.039600,-10.022808,0.986477,-0.138680,0.011817,-0.086552
168,0.050588,-3.182705,9.067459,13.630726,1.805390,-4.801179,-15.489422,-0.013168,-10.164838,0.986981,-0.134240,0.011825,-0.087796
169,0.027023,-3.199821,9.064059,7.607913,0.962915,-4.274779,-15.165782,-0.010480,-10.322897,0.987235,-0.131433,0.011781,-0.089188
170,-0.366051,-3.080193,9.003868,0.698381,-0.278358,-2.902748,-15.059246,-0.022104,-10.441333,0.987262,-0.130513,0.011733,-0.090232
171,-0.721517,-3.309982,9.391395,-5.341536,-2.566208,2.676728,-15.170195,-0.042337,-10.432599,0.987140,-0.131485,0.011636,-0.090169
172,-0.508212,-3.379985,9.500989,-8.592348,-5.755593,7.543676,-15.439097,-0.101662,-10.231765,0.986979,-0.133868,0.011102,-0.088481
173,-0.342987,-3.339183,9.542572,-10.210213,-8.437699,9.001485,-15.787798,-0.234621,-9.902630,0.986802,-0.137001,0.009833,-0.085771
174,-0.204027,-3.311061,9.691680,-10.158161,-9.782195,9.853341,-16.158335,-0.425852,-9.517019,0.986612,-0.140361,0.007992,-0.082653
175,0.114815,-3.290772,9.826596,-8.353727,-8.783776,9.766507,-16.493174,-0.626065,-9.116181,0.986453,-0.143408,0.006009,-0.079428
176,0.793175,-3.103230,9.962826,-4.981223,-6.679570,4.933448,-16.732466,-0.819393,-8.807573,0.986332,-0.145610,0.004118,-0.077003
177,-0.082313,-2.877225,9.619249,-1.543615,-4.379447,-3.738667,-16.845465,-1.000216,-8.735212,0.986207,-0.146702,0.002545,-0.076606
178,0.048986,-3.292852,9.352074,-1.309652,0.656901,-4.896586,-16.901241,-1.092953,-8.854824,0.986038,-0.147240,0.001938,-0.077752
179,-0.111078,-3.285880,9.287576,-3.496915,3.546445,-6.004074,-16.999132,-1.068676,-9.048670,0.985784,-0.148062,0.002464,-0.079387
180,0.029183,-3.410771,9.335840,-8.669105,3.320120,-6.685800,-17.221193,-1.010553,-9.284086,0.985340,-0.149927,0.003426,-0.081331
181,-0.350551,-3.713802,9.041295,-15.464401,2.902048,-4.089656,-17.653982,-0.949021,-9.486022,0.984634,-0.153597,0.004532,-0.082971
182,0.260302,-3.740606,9.402983,-22.057152,2.729082,0.073441,-18.315939,-0.870059,-9.578181,0.983677,-0.159223,0.005818,-0.083626
183,0.112517,-3.359615,9.282887,-23.730381,0.418695,1.237721,-19.102505,-0.814884,-9.573920,0.982575,-0.165932,0.006859,-0.083468
184,0.300435,-3.325579,9.140891,-23.607809,-0.504784,2.470581,-19.902554,-0.798780,-9.515112,0.981438,-0.172780,0.007490,-0.082890
185,0.413533,-3.121898,8.744208,-20.351748,-0.811032,4.788086,-20.639502,-0.788797,-9.393901,0.980395,-0.179090,0.007919,-0.081788
186,0.360086,-3.059063,8.671272,-15.423925,-1.242593,5.153839,-21.231932,-0.775064,-9.226803,0.979577,-0.184159,0.008191,-0.080296
187,0.390098,-3.233982,8.605226,-10.303678,-1.727518,6.882239,-21.655790,-0.760837,-9.021972,0.979034,-0.187786,0.008274,-0.078492
188,0.457457,-3.350877,8.783256,-5.920635,-2.159253,7.951344,-21.923664,-0.744678,-8.768329,0.978766,-0.190082,0.008175,-0.076279
189,0.423937,-3.580907,8.985869,-1.995551,-2.331620,7.741702,-22.055056,-0.732039,-8.497752,0.978727,-0.191216,0.007918,-0.073938
190,0.204728,-3.790476,9.193742,0.886858,-2.073068,6.738826,-22.077364,-0.718696,-8.246461,0.978852,-0.191415,0.007627,-0.071768
191,0.252071,-3.869550,9.359150,2.513188,-2.393960,6.639462,-22.026682,-0.708845,-8.011794,0.979083,-0.190991,0.007288,-0.069750
192,0.207027,-3.920991,9.332064,3.873834,-3.026146,6.407345,-21.927952,-0.716141,-7.776268,0.979388,-0.190166,0.006775,-0.067756
193,0.012709,-3.902257,9.279208,4.115771,-3.033709,5.328550,-21.804432,-0.736292,-7.557024,0.979717,-0.189134,0.006168,-0.065922
194,0.079218,-3.982430,9.079724,3.942193,-3.642202,5.653729,-21.684406,-0.768002,-7.345617,0.980029,-0.188136,0.005481,-0.064172
195,-0.050281,-3.895694,9.071750,3.811058,-4.143722,5.896576,-21.572624,-0.812092,-7.118612,0.980330,-0.187213,0.004670,-0.062307
196,-0.015212,-3.784101,8.988979,4.540805,-4.168908,4.531188,-21.448265,-0.869087,-6.905919,0.980638,-0.186186,0.003769,-0.060584
197,-0.009580,-3.733135,8.971972,5.208160,-3.284694,4.294963,-21.298651,-0.923572,-6.723471,0.980966,-0.184938,0.002929,-0.059115
198,0.169786,-3.736043,9.032231,5.362840,-2.440533,3.861744,-21.134762,-0.959786,-6.562033,0.981306,-0.183556,0.002276,-0.057794
199,0.000619,-3.614342,9.141910,5.989325,-1.019556,0.811562,-20.953850,-0.981965,-6.468508,0.981638,-0.182019,0.001846,-0.057032
201,0.194523,-3.644621,9.107902,5.894178,0.526514,-2.049419,-20.760900,-0.993698,-6.484763,0.981933,-0.180371,0.001675,-0.057192
202,0.075028,-3.688049,9.098966,5.359206,1.692472,-3.050352,-20.580740,-0.987472,-6.577203,0.982170,-0.178822,0.001783,-0.057977
203,0.090750,-3.677010,9.103563,4.567645,1.869867,-4.412836,-20.424269,-0.971227,-6.714327,0.982346,-0.177471,0.002055,-0.059130
204,0.005659,-3.746599,9.120980,3.858233,1.293603,-4.964995,-20.294870,-0.970384,-6.878975,0.982460,-0.176358,0.002249,-0.060543
205,0.117041,-3.604977,9.147856,3.159585,0.741690,-3.818826,-20.188364,-0.984113,-7.027851,0.982542,-0.175449,0.002303,-0.061843
206,0.085093,-3.584106,9.242184,2.389593,0.113308,-2.092877,-20.103441,-1.001414,-7.125108,0.982616,-0.174728,0.002257,-0.062704
207,0.174333,-3.541233,9.203816,1.604455,-0.287827,-0.357818,-20.044334,-1.016157,-7.162332,0.982683,-0.174228,0.002155,-0.063047
208,0.191032,-3.514572,9.310943,0.444095,-0.922653,-0.124355,-20.016750,-1.038254,-7.162857,0.982720,-0.174003,0.001951,-0.063085
209,0.262265,-3.429841,9.232265,0.263620,-1.269264,1.433540,-20.009720,-1.067490,-7.129768,0.982744,-0.173958,0.001646,-0.062846
210,0.238224,-3.617641,9.135745,-0.719891,-1.702949,1.982772,-20.026806,-1.097912,-7.059150,0.982752,-0.174122,0.001287,-0.062286
211,0.269444,-3.424798,9.031868,-1.732551,-1.869602,1.936894,-20.078991,-1.134863,-6.977163,0.982710,-0.174589,0.000874,-0.061638
212,0.151774,-3.504375,9.159821,-3.123333,-2.000935,1.997908,-20.168261,-1.173916,-6.893241,0.982612,-0.175375,0.000458,-0.060977
213,-0.026345,-3.444542,9.047394,-3.307082,-1.475404,1.107006,-20.283239,-1.203809,-6.824513,0.982466,-0.176375,0.000157,-0.060433
214,0.031491,-3.337299,9.114711,-4.735557,-1.103687,0.908978,-20.420355,-1.222635,-6.778028,0.982275,-0.177560,-0.000004,-0.060063
215,-0.078618,-3.128864,9.216823,-5.558789,-1.133145,1.124510,-20.585209,-1.234416,-6.733402,0.982040,-0.178979,-0.000088,-0.059699
216,-0.124775,-3.313936,9.104712,-5.002414,-1.778703,0.774062,-20.752851,-1.253421,-6.686896,0.981798,-0.180425,-0.000237,-0.059331
217,-0.034744,-3.241844,8.980614,-6.808489,-2.102382,0.380866,-20.944401,-1.292714,-6.646067,0.981508,-0.182084,-0.000539,-0.059043
218,0.116829,-3.301924,9.080026,-9.070661,-2.086314,0.898443,-21.202316,-1.341593,-6.601273,0.981110,-0.184316,-0.000897,-0.058739
219,-0.105269,-3.392390,8.964140,-11.993734,-2.033428,-0.077776,-21.548309,-1.389840,-6.563673,0.980559,-0.187300,-0.001194,-0.058498
220,0.290125,-3.582119,8.724847,-14.426184,-1.190497,-0.341518,-21.990215,-1.435641,-6.550264,0.979827,-0.191101,-0.001383,-0.058463
221,0.256001,-3.538746,8.729548,-19.269825,0.020893,-1.989586,-22.554615,-1.470438,-6.578716,0.978852,-0.195942,-0.001343,-0.058771
222,0.303210,-3.839334,8.111844,-22.333542,-0.583611,-0.630051,-23.258915,-1.498444,-6.614936,0.977605,-0.201967,-0.001157,-0.059136
223,0.634038,-3.939830,7.489300,-28.560810,-1.793422,-3.622852,-24.135984,-1.576848,-6.663021,0.975988,-0.209481,-0.001285,-0.059695
224,0.511486,-3.853913,7.038848,-35.081795,-1.313127,-3.016254,-25.231979,-1.690222,-6.740731,0.973873,-0.218860,-0.001529,-0.060580
225,0.388252,-4.177554,6.656338,-42.514751,-2.228436,-3.048732,-26.570683,-1.800928,-6.804086,0.971188,-0.230275,-0.001633,-0.061352
226,0.371538,-4.404067,6.444118,-48.658104,-2.064502,-1.237671,-28.149837,-1.906020,-6.832563,0.967880,-0.243686,-0.001615,-0.061831
227,0.438984,-4.258720,6.795905,-53.581013,-0.139658,-3.789298,-29.900166,-1.987950,-6.886044,0.963993,-0.258480,-0.001239,-0.062481
228,-0.067513,-4.677126,7.287053,-56.608196,2.625699,-0.767619,-31.761147,-1.985858,-6.971437,0.959622,-0.274099,-0.000002,-0.063204
229,0.105935,-5.074278,7.422714,-55.644527,3.599016,-1.911204,-33.650780,-1.907265,-7.064237,0.954944,-0.289848,0.001930,-0.063771
230,0.310416,-5.435410,7.480529,-55.963978,4.978872,-0.555841,-35.527245,-1.807331,-7.178846,0.950036,-0.305395,0.004108,-0.064416
231,0.387307,-6.035324,7.525620,-55.020210,5.218226,-1.462304,-37.395672,-1.692827,-7.305920,0.944893,-0.320782,0.006459,-0.065070
232,0.197250,-6.503581,7.369141,-52.590900,3.747190,0.877031,-39.215908,-1.581315,-7.405281,0.939656,-0.335689,0.008697,-0.065449
233,0.623239,-6.674199,6.997807,-48.126507,1.801070,1.567934,-40.928551,-1.491214,-7.432495,0.934546,-0.349649,0.010493,-0.065260
234,0.536061,-6.996489,6.897441,-46.386074,1.032269,1.510548,-42.540615,-1.437627,-7.424344,0.929556,-0.362736,0.011819,-0.064871
235,-0.160396,-6.937473,6.854180,-43.463902,0.248108,2.157821,-44.068840,-1.377116,-7.393603,0.924672,-0.375074,0.013071,-0.064262
236,0.165057,-6.839138,6.439905,-41.590816,-0.945890,3.670832,-45.510693,-1.305608,-7.316196,0.919945,-0.386654,0.014192,-0.063231
237,-0.118429,-6.893184,6.510201,-43.711895,-0.612564,2.707181,-46.949963,-1.237074,-7.223706,0.915088,-0.398158,0.015211,-0.062071
238,-0.523685,-7.065393,6.253931,-45.312180,-0.670249,3.998548,-48.446400,-1.141927,-7.133004,0.909888,-0.410043,0.016452,-0.060808
239,-0.214114,-7.507276,6.293355,-46.859238,-2.801597,5.924847,-49.998123,-1.026256,-6.981611,0.904366,-0.422297,0.017629,-0.058959
240,0.236549,-7.853894,6.322343,-43.483509,-3.109274,4.173742,-51.518147,-0.949908,-6.799076,0.898800,-0.434251,0.018317,-0.057000
241,-0.134801,-7.880940,6.450511,-39.757339,-2.626726,2.163031,-52.909012,-0.919189,-6.659053,0.893541,-0.445138,0.018703,-0.055563
242,0.007011,-8.521221,6.317927,-34.346294,-2.928194,3.492960,-54.144775,-0.887525,-6.528957,0.888760,-0.454756,0.019031,-0.054223
243,0.327481,-8.467187,6.379770,-27.818132,-2.948022,1.074362,-55.180122,-0.882221,-6.405078,0.884674,-0.462786,0.019060,-0.053071
244,-0.093488,-8.570326,6.293684,-20.364426,-0.486576,-0.588731,-55.973034,-0.905766,-6.353578,0.881468,-0.468915,0.019035,-0.052638
245,0.042297,-8.546407,6.297538,-17.817589,0.571399,-0.884066,-56.593178,-0.916667,-6.368738,0.878907,-0.473680,0.019299,-0.052696
246,-0.040330,-9.030317,6.189318,-15.164123,1.057078,-0.173898,-57.128269,-0.909030,-6.401392,0.876673,-0.477770,0.019739,-0.052823
247,0.196278,-8.691019,6.080149,-10.816985,2.297897,-2.657777,-57.547119,-0.914513,-6.474171,0.874886,-0.480961,0.020196,-0.053329
248,-0.089761,-8.976505,6.163833,-8.088438,3.451795,-1.973742,-57.843033,-0.923305,-6.596771,0.873580,-0.483200,0.020783,-0.054249
249,0.265804,-8.785700,6.013307,-6.220459,2.939306,-1.816279,-58.061810,-0.916628,-6.720878,0.872599,-0.484841,0.021463,-0.055126
250,0.029652,-8.874977,5.838598,-4.198621,2.971425,-2.205315,-58.218414,-0.920513,-6.840189,0.871877,-0.486012,0.022015,-0.056021
251,0.154639,-8.583265,5.855369,-1.680737,3.435510,-2.484282,-58.297939,-0.927356,-6.972409,0.871472,-0.486594,0.022563,-0.057040
252,0.268401,-8.822571,5.874139,-1.424044,3.490369,-1.465142,-58.328903,-0.924609,-7.105529,0.871274,-0.486802,0.023165,-0.058034
253,0.694296,-9.501727,5.628467,-3.712547,3.840638,-0.837597,-58.408688,-0.906523,-7.229755,0.870878,-0.487375,0.023871,-0.058886
254,0.428409,-9.385698,6.433751,-16.059580,5.139878,-1.157912,-58.728443,-0.873221,-7.374888,0.869450,-0.489757,0.024908,-0.059778
255,0.438226,-9.723000,6.842255,-35.706135,3.614974,4.421489,-59.561905,-0.762165,-7.472597,0.865851,-0.495995,0.026605,-0.059853
256,0.863432,-10.237862,7.692157,-57.420330,0.939157,8.469708,-61.071423,-0.556420,-7.432337,0.859332,-0.507272,0.028757,-0.058286
257,0.286983,-10.545649,7.675547,-70.089020,-1.765524,9.362498,-63.140800,-0.316552,-7.281291,0.850183,-0.522637,0.030895,-0.055544
258,-0.034076,-10.462922,7.244998,-74.533936,-5.284321,12.992570,-65.488945,-0.033152,-7.014563,0.839506,-0.539895,0.032846,-0.051610
259,0.271288,-11.504199,6.497176,-61.404140,-8.868813,17.472418,-67.699371,0.335377,-6.596521,0.829216,-0.555951,0.034474,-0.046154
260,-0.095166,-11.479911,6.139809,-29.275869,-9.296267,15.444066,-69.160873,0.728545,-6.112330,0.822335,-0.566465,0.035486,-0.040292
261,-0.510884,-11.428800,4.270264,5.079573,-9.282286,18.253981,-69.533287,1.151050,-5.623637,0.820732,-0.569115,0.036213,-0.034575
262,-0.076968,-11.210762,4.189542,30.461679,-5.275069,22.528444,-68.930542,1.703037,-5.154596,0.823923,-0.564721,0.037685,-0.028668
263,-0.413841,-10.888268,4.583830,58.592857,-4.246685,24.910234,-67.423027,2.374943,-4.712194,0.831434,-0.553715,0.040036,-0.022698
264,-0.595645,-9.864571,3.499648,85.337219,-2.598471,23.743347,-65.009644,3.074656,-4.279602,0.842993,-0.535958,0.042667,-0.017071
265,-0.269790,-9.406220,2.600723,90.837540,-0.042419,24.441904,-62.103527,3.770122,-3.883425,0.856321,-0.514282,0.045632,-0.012054
266,-0.371369,-7.819282,3.806710,97.943611,2.861144,17.120893,-58.985764,4.383924,-3.586585,0.869943,-0.490672,0.048670,-0.008398
267,-0.363678,-7.429633,3.464558,108.441734,1.629285,12.549485,-55.565479,4.825333,-3.383493,0.884131,-0.464404,0.050976,-0.006482
268,-0.377782,-6.414616,3.038008,105.986374,3.460024,5.273881,-52.048824,5.099765,-3.280872,0.897908,-0.436996,0.052510,-0.006187
269,-0.384583,-5.510468,3.679379,91.328934,3.737271,-2.279368,-48.824188,5.198817,-3.346277,0.909819,-0.411490,0.053335,-0.007824
270,-0.462433,-4.722642,4.290090,83.447762,3.069793,-10.268566,-45.946838,5.108899,-3.572804,0.919866,-0.388448,0.053169,-0.011286
271,-0.413997,-5.136480,3.954888,72.348999,2.027026,-9.929181,-43.400402,4.921304,-3.874005,0.928281,-0.367850,0.052354,-0.015511
272,-0.494207,-4.131349,4.608912,57.568375,1.593277,-14.698351,-41.285572,4.682147,-4.221034,0.934912,-0.350600,0.051172,-0.020043
273,-0.299190,-4.102014,5.860786,44.766056,1.486996,-19.885496,-39.585129,4.335734,-4.691163,0.939988,-0.336633,0.049411,-0.025683
274,-0.492968,-4.565685,7.073979,41.141273,1.830565,-19.165808,-38.138569,3.956118,-5.229351,0.944092,-0.324688,0.047484,-0.031825
275,-0.443331,-4.634579,7.731537,43.641933,1.136863,-21.294687,-36.705093,3.576895,-5.792093,0.947960,-0.312811,0.045484,-0.038117
276,-0.643908,-4.457995,8.648125,40.549660,1.021869,-23.320982,-35.269802,3.165478,-6.411364,0.951620,-0.300889,0.043216,-0.044918
277,-0.656302,-5.018279,8.882257,35.811859,-0.302591,-21.745729,-33.966446,2.751628,-7.032989,0.954745,-0.290049,0.040830,-0.051644
278,-0.706228,-4.880853,8.645811,33.437222,-0.707975,-17.336710,-32.793499,2.386870,-7.565535,0.957420,-0.280293,0.038557,-0.057410
279,-0.565039,-4.481891,8.254604,25.707491,-0.633990,-15.422517,-31.788792,2.086477,-8.013686,0.959607,-0.271927,0.036601,-0.062219
280,-0.640035,-4.659487,8.361749,13.892087,-0.671211,-8.651266,-31.111366,1.870117,-8.343402,0.961008,-0.266285,0.035186,-0.065707
281,-0.522163,-4.816562,8.158797,10.247986,-1.387347,-7.275708,-30.702251,1.716932,-8.553015,0.961825,-0.262890,0.034147,-0.067946
282,-0.286791,-4.488082,7.952266,9.729928,-1.327360,-6.538372,-30.366720,1.566668,-8.728068,0.962477,-0.260121,0.033083,-0.069860
283,-0.318088,-4.647769,8.122099,6.291264,-0.997605,-5.723411,-30.096102,1.432231,-8.884946,0.962983,-0.257894,0.032142,-0.071561
284,-0.250484,-4.659240,8.381468,6.308720,-1.378935,-3.518340,-29.882116,1.322757,-8.998384,0.963383,-0.256139,0.031342,-0.072821
285,-0.297134,-4.621398,8.310642,5.171143,-1.450471,-3.922583,-29.685020,1.222476,-9.082438,0.963761,-0.254528,0.030560,-0.073806
286,-0.220285,-4.682941,8.286513,-0.608639,-1.996551,-1.494710,-29.605772,1.130251,-9.132386,0.963896,-0.253912,0.029845,-0.074453
287,-0.493841,-4.837740,8.621607,-6.379472,-2.426200,0.335257,-29.719677,1.064263,-9.112619,0.963649,-0.254921,0.029320,-0.074405
288,-0.174804,-4.632044,8.402540,-9.232469,-3.019171,1.071112,-29.973841,1.004324,-9.047013,0.963118,-0.257115,0.028834,-0.073923
289,-0.543133,-5.126000,8.000196,-14.000217,-3.735538,2.701257,-30.366734,0.947954,-8.936224,0.962295,-0.260482,0.028362,-0.073022
290,-0.302317,-4.919676,7.802001,-17.679586,-3.792355,2.332623,-30.911427,0.896078,-8.800491,0.961126,-0.265122,0.027960,-0.071869
291,-0.139345,-4.762032,7.510926,-20.064468,-2.893238,0.527630,-31.552876,0.829444,-8.702239,0.959681,-0.270565,0.027572,-0.071046
292,-0.097284,-4.622899,7.013569,-23.474762,-1.985360,-1.698748,-32.291904,0.749540,-8.676020,0.957922,-0.276807,0.027299,-0.070841
293,-0.367598,-4.758558,6.586620,-28.842163,-2.308250,-2.172964,-33.186451,0.661570,-8.691953,0.955710,-0.284330,0.027157,-0.070978
294,0.433459,-4.562859,6.163877,-35.200497,-1.883207,-5.295514,-34.283020,0.525818,-8.757026,0.952884,-0.293535,0.026873,-0.071605
295,-0.097608,-4.572747,6.269344,-43.741722,-1.501476,-4.701264,-35.620819,0.368941,-8.861166,0.949300,-0.304716,0.026685,-0.072567
296,-0.027133,-4.818774,6.108036,-51.614304,-3.550776,-3.213494,-37.228733,0.222918,-8.917199,0.944867,-0.318087,0.026652,-0.073053
297,0.318889,-5.175681,6.522203,-59.802498,-1.862430,-3.798580,-39.101341,0.068730,-8.953224,0.939487,-0.333575,0.026683,-0.073352
298,0.189216,-5.412142,6.902877,-64.157585,-0.354512,-4.026896,-41.167549,-0.058838,-9.028362,0.933241,-0.350524,0.027192,-0.073861
299,-0.055200,-5.955816,7.150596,-64.412933,0.202154,-2.693470,-43.299568,-0.139568,-9.109063,0.926485,-0.367857,0.028168,-0.074254
300,0.515417,-6.513975,7.224551,-57.224735,1.266499,-4.015641,-45.314869,-0.210602,-9.205772,0.919790,-0.384114,0.029223,-0.074761
301,0.415148,-6.585262,7.240371,-47.585209,5.330042,-6.362475,-47.042477,-0.280235,-9.404305,0.913743,-0.397928,0.030481,-0.076137
302,-0.168171,-6.835964,6.912968,-38.827206,4.374531,-3.518426,-48.458813,-0.296598,-9.634379,0.908596,-0.409138,0.032111,-0.077637
304,0.225800,-6.982155,6.611731,-34.253754,4.740830,-4.823039,-49.657871,-0.301258,-9.840212,0.904124,-0.418566,0.033637,-0.078938
305,-0.122550,-6.977102,6.486824,-34.180172,4.975820,-6.193323,-50.778328,-0.338611,-10.082246,0.899807,-0.427338,0.035016,-0.080646
306,-0.128526,-7.263022,6.423275,-38.391239,3.845687,-5.048202,-51.966091,-0.384207,-10.314360,0.895148,-0.436600,0.036379,-0.082265
307,-0.145554,-7.688830,6.322978,-42.735550,2.289853,-3.919794,-53.301533,-0.431481,-10.486588,0.889857,-0.446979,0.037639,-0.083357
308,-0.073164,-8.089192,6.103742,-45.557781,2.011137,-4.105277,-54.764515,-0.489260,-10.623396,0.883955,-0.458297,0.038802,-0.084156
309,-0.145358,-8.463324,6.072577,-45.174458,-0.290962,1.196507,-56.272804,-0.504144,-10.674721,0.877802,-0.469884,0.040002,-0.084092
310,0.296086,-8.853355,6.059082,-41.258488,-1.850394,5.165503,-57.709312,-0.434330,-10.586872,0.871937,-0.480834,0.041216,-0.082623
311,0.209361,-8.865401,5.682653,-34.528725,-2.636648,6.597723,-58.969032,-0.314531,-10.419948,0.866766,-0.490370,0.042314,-0.080391
312,-0.131103,-9.285948,5.723127,-29.341696,-3.910735,9.536764,-60.030220,-0.137202,-10.189294,0.862419,-0.498344,0.043388,-0.077489
313,0.332368,-9.386128,5.454374,-23.455864,-5.134647,11.269989,-60.906883,0.087357,-9.887048,0.858868,-0.504896,0.044331,-0.073900
314,0.220611,-9.491509,5.485971,-18.895929,-3.948065,7.722704,-61.607121,0.279943,-9.601824,0.856017,-0.510122,0.044950,-0.070640
315,-0.202767,-9.407660,5.485685,-13.824118,-1.732520,5.996721,-62.139645,0.435112,-9.410484,0.853807,-0.514072,0.045575,-0.068308
316,-0.242274,-9.620255,5.448349,-11.588697,-1.181354,5.144324,-62.547340,0.583767,-9.281179,0.852099,-0.517066,0.046339,-0.066513
317,-0.054212,-9.631651,5.333334,-8.782720,-0.036818,3.940566,-62.872589,0.711186,-9.193613,0.850719,-0.519438,0.047076,-0.065152
318,-0.155074,-9.701550,5.603280,-7.779879,0.454469,2.890658,-63.129673,0.814900,-9.147895,0.849610,-0.521300,0.047783,-0.064235
319,-0.009827,-10.197881,5.678771,-18.262377,-1.324914,2.199171,-63.541615,0.881365,-9.096570,0.847780,-0.524331,0.048270,-0.063378
320,0.141360,-10.359941,7.026217,-48.053471,-3.492210,-3.768020,-64.604683,0.813231,-9.035159,0.842892,-0.532241,0.048070,-0.062793
321,-0.302642,-10.357586,6.724250,-69.379555,-1.295138,-5.817638,-66.498024,0.631164,-9.027894,0.833927,-0.546207,0.047742,-0.062806
322,0.271037,-11.109550,6.954402,-72.142418,2.304251,-6.275848,-68.789780,0.446629,-9.119019,0.822721,-0.562846,0.048112,-0.063401
323,0.214147,-11.392891,5.614406,-59.479225,3.286382,-6.417451,-70.927238,0.267379,-9.278103,0.811923,-0.578130,0.048819,-0.064525
324,0.091116,-11.584130,4.802602,-30.556366,5.304854,-2.109046,-72.392784,0.169165,-9.458235,0.804321,-0.588446,0.049876,-0.065664
325,0.051464,-12.008052,3.213204,8.815903,6.372855,7.125425,-72.752388,0.303121,-9.618442,0.802434,-0.590816,0.051845,-0.065938
326,0.637546,-12.272773,3.469798,47.528454,6.883604,10.966283,-71.831459,0.643075,-9.736762,0.807226,-0.584083,0.054310,-0.065451
327,0.400231,-11.371882,2.637829,66.274773,6.579240,11.668962,-69.963715,1.049244,-9.825425,0.816739,-0.570544,0.056570,-0.064933
328,0.286601,-10.714222,3.289646,69.770355,6.990588,13.237112,-67.732094,1.496685,-9.887346,0.827810,-0.554198,0.058822,-0.064299
329,0.510843,-9.530579,4.414760,73.137909,7.822704,11.572749,-65.354851,1.945850,-9.950303,0.839226,-0.536557,0.061055,-0.063854
330,0.276748,-8.327625,3.885932,88.094734,7.731331,10.326096,-62.659443,2.353956,-10.024118,0.851677,-0.516332,0.062896,-0.063971
331,0.223230,-7.483054,3.424238,87.524574,5.138963,11.849168,-59.744789,2.749326,-10.035369,0.864610,-0.494199,0.064273,-0.063918
332,-0.252185,-6.455796,3.909446,86.542648,1.311047,13.014745,-56.846920,3.139035,-9.910594,0.876964,-0.471947,0.065097,-0.062949
333,-0.181934,-5.794548,4.233812,86.568710,2.050488,9.913223,-53.937580,3.475418,-9.739000,0.888796,-0.449366,0.065408,-0.061918
334,-0.447090,-5.353284,3.490859,80.466553,1.148416,10.274453,-51.145065,3.769357,-9.576530,0.899590,-0.427438,0.065575,-0.061109
335,-0.537800,-4.884155,3.758888,64.921722,-0.354085,10.197139,-48.726673,4.046432,-9.367747,0.908529,-0.408261,0.065718,-0.059825
336,-0.857603,-4.429045,4.519866,56.023773,-3.274968,10.676362,-46.678963,4.283768,-9.086923,0.915822,-0.391939,0.065570,-0.057922
337,-0.736839,-4.435134,4.889362,48.297050,-6.752662,12.196624,-44.874985,4.464828,-8.696671,0.922064,-0.377558,0.064817,-0.055202
338,-1.033303,-4.798403,5.520360,39.668327,-12.087354,15.962955,-43.330750,4.590193,-8.136160,0.927320,-0.365319,0.063293,-0.051130
339,-0.822057,-5.425414,6.294219,32.734123,-16.584547,15.167930,-42.040829,4.611033,-7.425883,0.931674,-0.355226,0.060682,-0.046000
340,-0.308813,-5.592378,7.242876,33.417561,-18.249990,11.557322,-40.852760,4.464575,-6.702820,0.935603,-0.346008,0.056827,-0.041172
341,-0.278347,-6.098540,7.392344,31.280577,-16.281853,6.528032,-39.705509,4.197412,-6.097353,0.939269,-0.337064,0.052445,-0.037571
342,-0.132149,-6.600909,7.602468,27.218594,-13.965961,3.711025,-38.698685,3.888351,-5.645634,0.942382,-0.329158,0.048278,-0.035212
343,0.038849,-6.257142,7.986521,23.247871,-10.266490,-0.264486,-37.841179,3.575337,-5.350379,0.944950,-0.322369,0.044605,-0.034026
344,-0.219133,-5.882201,8.088093,21.550529,-6.505696,-1.355608,-37.075630,3.310028,-5.201275,0.947159,-0.316228,0.041774,-0.033829
345,-0.394520,-5.694795,8.224617,16.444998,-2.754619,-2.929610,-36.422993,3.129448,-5.165398,0.948975,-0.310923,0.039990,-0.034263
346,-0.292194,-5.350379,8.538615,13.434090,-1.141122,-1.492687,-35.898174,3.022926,-5.185209,0.950394,-0.306614,0.039003,-0.034897
347,-0.547161,-4.893607,8.684636,14.554043,0.063774,-4.773559,-35.390461,2.941958,-5.257442,0.951729,-0.302412,0.038366,-0.035885
348,-0.350432,-4.907070,8.296002,21.591715,1.592368,-6.975443,-34.750034,2.848934,-5.431343,0.953356,-0.297073,0.037842,-0.037789
349,-0.535464,-4.682554,8.254043,22.053631,2.326063,-6.067458,-33.991798,2.778146,-5.645879,0.955233,-0.290721,0.037546,-0.040008
350,-0.511775,-4.915507,8.346598,23.155901,1.000155,-2.012776,-33.209152,2.752480,-5.787149,0.957148,-0.284156,0.037408,-0.041507
351,-0.695879,-4.819430,8.393403,26.015274,-1.636158,-1.450751,-32.363258,2.719267,-5.828609,0.959207,-0.277086,0.036923,-0.042210
352,-0.385684,-4.713474,8.503018,25.990593,-2.322577,1.377113,-31.467028,2.666560,-5.793192,0.961362,-0.269612,0.036067,-0.042326
353,-0.477937,-4.671485,8.721766,19.874397,-3.661002,4.192479,-30.668879,2.627791,-5.660848,0.963268,-0.262969,0.035142,-0.041553
354,0.167301,-4.743073,8.788468,16.403723,-3.572276,1.422278,-30.034492,2.556774,-5.518039,0.964766,-0.257708,0.033993,-0.040706
355,-0.137132,-4.591105,8.632204,11.060212,-1.724811,-3.875265,-29.558350,2.437541,-5.508957,0.965841,-0.253754,0.032799,-0.041036
356,0.013419,-4.546404,8.553854,4.866451,1.981612,-8.099853,-29.285286,2.325258,-5.684436,0.966387,-0.251453,0.032139,-0.042842
357,-0.257961,-4.454640,8.571370,0.802798,4.264694,-10.755589,-29.189709,2.248625,-6.009207,0.966475,-0.250592,0.032168,-0.045778
358,-0.509550,-4.207495,8.687816,-1.987495,3.903001,-9.731624,-29.202114,2.200704,-6.373091,0.966299,-0.250618,0.032565,-0.048948
359,-0.842806,-4.194858,8.726687,-3.782181,3.957648,-9.163160,-29.282654,2.175928,-6.711010,0.965975,-0.251213,0.033131,-0.051829
360,-0.729430,-3.987163,8.946249,-2.483027,2.639424,-4.442360,-29.360161,2.180990,-6.961370,0.965689,-0.251791,0.033759,-0.053905
361,-0.646306,-3.959489,8.931787,0.535119,0.078658,-0.167340,-29.351562,2.198257,-7.048920,0.965666,-0.251683,0.034093,-0.054607
362,-0.477622,-4.141065,8.950815,1.117586,-0.854488,1.652149,-29.281475,2.208266,-7.019396,0.965834,-0.251095,0.034079,-0.054357
363,-0.400999,-4.134829,8.883143,1.730105,-0.782576,1.693620,-29.194815,2.214713,-6.955943,0.966053,-0.250380,0.033954,-0.053834
364,-0.368782,-4.029302,8.958313,1.694296,-1.174781,3.360078,-29.095575,2.227592,-6.864930,0.966312,-0.249563,0.033817,-0.053068
365,-0.149056,-4.119346,8.776093,0.590186,-0.680960,1.328914,-29.017078,2.232696,-6.780099,0.966521,-0.248923,0.033640,-0.052364
366,-0.313900,-4.151241,8.894642,-3.201486,0.650478,-0.485650,-29.027004,2.231829,-6.766267,0.966506,-0.249011,0.033607,-0.052246
367,-0.237025,-4.061373,8.904142,-5.547873,0.700317,-1.029009,-29.138693,2.234103,-6.797912,0.966249,-0.249943,0.033746,-0.052475
368,-0.326027,-4.140018,8.901867,-8.348906,1.436846,-2.326157,-29.336639,2.233025,-6.862731,0.965786,-0.251593,0.033970,-0.052966
369,-0.354978,-4.285800,8.515230,-10.090202,1.514460,-2.220858,-29.619091,2.236800,-6.951859,0.965121,-0.253944,0.034330,-0.053624
370,-0.337708,-4.535151,8.458284,-12.749734,0.491942,-1.673059,-29.985765,2.232222,-7.024183,0.964270,-0.257012,0.034625,-0.054133
371,-0.262605,-4.530010,8.286593,-12.452564,0.256617,-2.013481,-30.396673,2.208487,-7.083160,0.963314,-0.260463,0.034753,-0.054559
372,-0.282613,-4.852444,7.995728,-13.078003,-0.015403,0.742114,-30.821014,2.196515,-7.103360,0.962334,-0.264029,0.034901,-0.054627
373,0.025552,-4.702405,7.650790,-16.939260,-0.553532,-0.042838,-31.327438,2.182512,-7.088625,0.961165,-0.268292,0.034990,-0.054382
374,0.194997,-4.784426,7.353402,-24.412750,-0.824147,-3.569011,-32.028408,2.107164,-7.128026,0.959488,-0.274197,0.034786,-0.054678
375,-0.215342,-4.707999,7.422177,-30.227396,0.120466,-2.837499,-32.950726,2.022724,-7.211931,0.957209,-0.281933,0.034727,-0.055307
376,0.038885,-4.415950,7.010858,-36.187496,-0.828186,-3.712524,-34.058861,1.940122,-7.296108,0.954396,-0.291198,0.034786,-0.055881
377,-0.396075,-4.602314,6.792642,-46.841221,-0.578456,-6.116175,-35.443619,1.821375,-7.417126,0.950744,-0.302741,0.034794,-0.056776
378,-0.280520,-5.514428,6.771680,-49.961784,-2.604564,-3.080953,-37.075260,1.691602,-7.509953,0.946284,-0.316294,0.034784,-0.057402
379,-0.512387,-5.021795,6.568460,-49.151672,-3.424858,-0.494081,-38.743122,1.583078,-7.495818,0.941579,-0.330100,0.034684,-0.057088
380,-0.077456,-5.748189,6.401147,-50.180080,-5.895035,2.133718,-40.409637,1.483756,-7.376287,0.936730,-0.343851,0.034341,-0.055900
381,-0.219319,-6.381048,6.375829,-46.685898,-6.356182,2.127248,-42.051434,1.371791,-7.189047,0.931786,-0.357355,0.033644,-0.054230
382,0.067654,-6.322547,6.300404,-37.812778,-6.872478,2.946082,-43.486485,1.259406,-6.977978,0.927323,-0.369118,0.032732,-0.052460
383,0.197264,-6.000716,6.486855,-36.606747,-4.204944,0.878730,-44.732655,1.152894,-6.803646,0.923321,-0.379285,0.031866,-0.051050
384,-0.009300,-6.856267,6.768645,-36.512108,-2.262008,-1.434095,-45.949474,1.055703,-6.733076,0.919260,-0.389137,0.031387,-0.050473
385,-0.278832,-6.437376,6.777840,-37.765671,0.791224,-5.661025,-47.180973,0.951419,-6.796330,0.914983,-0.399028,0.031316,-0.051002
386,-0.002881,-6.741062,6.596897,-44.682556,1.116150,-5.070561,-48.540604,0.839434,-6.939707,0.910103,-0.409873,0.031543,-0.052167
387,0.100263,-7.156327,6.917019,-51.738243,2.572734,-8.104811,-50.132694,0.703087,-7.128834,0.904210,-0.422494,0.031886,-0.053720
388,-0.323610,-7.375462,6.539897,-53.137268,1.974477,-7.813408,-51.864929,0.543930,-7.354334,0.897582,-0.436132,0.032306,-0.055605
389,-0.288234,-7.709946,6.559635,-55.546581,0.565102,-5.137717,-53.660778,0.407069,-7.518639,0.890526,-0.450169,0.032756,-0.056907
390,0.294378,-8.071813,6.171103,-51.367218,-0.170634,-4.657380,-55.428974,0.273487,-7.618421,0.883392,-0.463897,0.033004,-0.057705
391,-0.258520,-8.529199,6.386393,-46.682774,0.865217,-3.508664,-57.049248,0.162769,-7.703397,0.876672,-0.476373,0.033323,-0.058343
392,-0.250463,-8.279013,5.902501,-40.328346,-1.256804,0.073506,-58.479286,0.120788,-7.728354,0.870635,-0.487291,0.033836,-0.058291
393,-0.394858,-8.920584,5.852815,-37.549381,-2.638578,1.025307,-59.759075,0.116341,-7.663292,0.865170,-0.497005,0.034169,-0.057438
394,0.011893,-8.627610,5.676348,-30.045912,-2.445918,0.209583,-60.865173,0.099649,-7.579678,0.860369,-0.505367,0.034228,-0.056551
395,-0.372749,-8.996329,5.455976,-26.691288,-1.955747,-0.024771,-61.788960,0.074430,-7.513946,0.856292,-0.512318,0.034200,-0.055895
396,-0.273841,-8.630831,5.223987,-22.563076,-1.541541,-0.302769,-62.588623,0.056634,-7.465106,0.852714,-0.518305,0.034236,-0.055372
397,-0.106212,-9.089922,5.034090,-19.855719,-0.219699,-1.020740,-63.276649,0.032020,-7.449135,0.849588,-0.523432,0.034313,-0.055159
398,0.365455,-8.868259,5.172273,-13.899437,2.178768,-2.989756,-63.818012,-0.019627,-7.508141,0.847061,-0.527447,0.034463,-0.055670
399,-0.030114,-9.107764,5.138903,-9.767460,3.417466,-2.198503,-64.184151,-0.064171,-7.629844,0.845298,-0.530136,0.034875,-0.056664
400,0.115394,-9.536235,5.451871,-7.730406,3.200722,-1.304445,-64.445709,-0.070392,-7.754543,0.844022,-0.532028,0.035537,-0.057532
401,0.791605,-9.704792,5.851828,-7.511314,3.093110,-2.122493,-64.660187,-0.095471,-7.873795,0.842956,-0.533582,0.036016,-0.058459
402,0.289809,-9.998816,7.069400,-9.525229,3.585062,-4.698682,-64.879677,-0.172460,-8.022961,0.841830,-0.535188,0.036258,-0.059845
403,0.215300,-10.114985,7.848090,-14.948169,2.287681,-6.699955,-65.193283,-0.311935,-8.192073,0.840224,-0.537507,0.036192,-0.061640
404,0.486974,-10.511771,8.423680,-23.567827,1.550252,-6.459847,-65.724388,-0.495626,-8.341764,0.837575,-0.541442,0.035842,-0.063433
405,0.361068,-10.555032,7.983470,-25.236843,2.743102,-3.418263,-66.426163,-0.629078,-8.474467,0.834118,-0.546588,0.035891,-0.064814
407,0.308930,-10.682669,7.727357,-11.104020,3.669125,5.710619,-66.927147,-0.559246,-8.558213,0.831700,-0.550167,0.037083,-0.064929
408,0.190422,-10.733319,6.750823,6.398050,1.634980,16.229916,-66.917458,-0.192520,-8.496709,0.831921,-0.549924,0.039445,-0.062727
409,-0.186311,-10.984274,4.748089,33.683964,-3.165421,26.545454,-66.209892,0.454582,-8.189683,0.835681,-0.544538,0.042315,-0.057655
410,0.158585,-10.344145,3.710388,61.927280,-4.050482,31.753361,-64.624649,1.287022,-7.675471,0.843600,-0.532667,0.045245,-0.050573
411,-0.411594,-9.447716,4.101274,84.136169,-6.397364,36.285236,-62.195675,2.220819,-7.011498,0.855136,-0.514423,0.048140,-0.042360
412,-0.911117,-8.762485,3.506297,90.631813,-11.544912,34.329018,-59.278629,3.118187,-6.174705,0.868298,-0.492364,0.050239,-0.033358
413,0.096377,-7.751308,3.354599,90.707161,-10.623183,28.125875,-56.261929,3.799602,-5.307103,0.881166,-0.469371,0.051021,-0.025191
414,0.307762,-6.040907,4.771193,85.157753,-4.939747,21.383932,-53.296280,4.281971,-4.619171,0.893103,-0.446487,0.051425,-0.019251
415,-0.173677,-5.738054,4.843693,78.474487,-4.043305,17.367798,-50.497200,4.658224,-4.101146,0.903760,-0.424606,0.051983,-0.015013
416,0.003077,-5.176393,4.590245,62.349270,-4.030160,9.432131,-48.095772,4.876737,-3.706110,0.912462,-0.405662,0.051997,-0.012175
417,0.214091,-4.728603,4.555433,49.472160,-1.166165,1.031466,-46.200356,4.897694,-3.522801,0.919061,-0.390588,0.051331,-0.011491
418,-0.563391,-4.417001,4.624349,40.098755,-2.056201,-2.696777,-44.687466,4.811894,-3.503029,0.924161,-0.378463,0.050419,-0.012294
419,-0.786984,-4.801642,4.501168,28.952017,-4.219339,-4.099988,-43.536015,4.666708,-3.511121,0.927950,-0.369210,0.049144,-0.013336
420,-0.897633,-4.756410,5.343536,19.668163,-6.870041,-6.317389,-42.726967,4.431915,-3.510989,0.930586,-0.362737,0.047144,-0.014429
421,-0.644808,-4.846980,6.210529,21.218187,-6.054512,-8.709095,-42.020988,4.115449,-3.548223,0.932864,-0.357098,0.044596,-0.016015
422,-1.033034,-5.206267,7.319572,22.312382,-6.905366,-7.766577,-41.252724,3.782833,-3.606474,0.935290,-0.350934,0.041953,-0.017813
423,-0.941389,-5.380200,8.138767,24.492754,-6.095581,-8.349528,-40.416988,3.460947,-3.663846,0.937868,-0.344197,0.039362,-0.019560
424,-1.035705,-5.627439,8.394182,26.769262,-5.908347,-6.576509,-39.506786,3.165136,-3.722164,0.940604,-0.336821,0.036951,-0.021225
425,-0.916814,-5.780251,8.114479,29.776672,-4.727531,-6.547637,-38.523464,2.908572,-3.777847,0.943481,-0.328809,0.034816,-0.022739
426,-1.151004,-5.747844,8.112805,27.574709,-6.756759,-3.172176,-37.538113,2.682102,-3.785685,0.946296,-0.320759,0.032772,-0.023739
427,-1.002275,-5.547480,7.845473,24.747908,-6.049563,-2.826965,-36.641136,2.480858,-3.735092,0.948808,-0.313423,0.030781,-0.024129
428,-1.038396,-5.511747,7.675790,21.410521,-5.731386,-0.768195,-35.855614,2.316497,-3.666230,0.950963,-0.306983,0.029067,-0.024210
429,-1.011469,-5.271926,7.983844,17.388056,-5.107847,-0.752567,-35.191643,2.186111,-3.580902,0.952754,-0.301530,0.027618,-0.024013
430,-0.952272,-4.899035,8.361220,15.245600,-4.078542,-0.915540,-34.615330,2.074426,-3.514545,0.954281,-0.296784,0.026396,-0.023889
431,-0.652357,-4.899985,8.354374,16.886669,-2.242679,-1.385690,-34.041267,1.987492,-3.485155,0.955768,-0.292032,0.025476,-0.023998
432,-0.735546,-4.885144,8.475741,20.697300,-1.658433,-1.196937,-33.380367,1.926529,-3.483523,0.957441,-0.286534,0.024824,-0.024284
433,-0.556851,-4.570973,8.495242,21.120741,-1.179609,-2.465541,-32.646122,1.869009,-3.507493,0.959256,-0.280405,0.024245,-0.024785
434,-0.370640,-4.607635,8.383747,18.296919,-0.550389,-3.551500,-31.954185,1.798210,-3.575507,0.960920,-0.274615,0.023664,-0.025671
435,-0.285397,-4.556717,8.510859,13.131786,0.003556,-3.504052,-31.401505,1.729666,-3.669763,0.962216,-0.269978,0.023187,-0.026739
436,-0.185302,-4.356184,8.403033,7.772925,1.388793,-5.643469,-31.024902,1.667515,-3.811244,0.963067,-0.266805,0.022906,-0.028149
437,-0.129545,-4.274907,8.524961,-1.267743,3.126238,-7.270338,-30.887953,1.615006,-4.033579,0.963331,-0.265627,0.022946,-0.030168
438,-0.314610,-4.470836,8.387699,-7.885729,3.655476,-7.589311,-31.018002,1.581882,-4.303322,0.962956,-0.266676,0.023330,-0.032486
439,-0.385506,-4.415989,8.267831,-12.256643,4.643092,-9.569678,-31.338484,1.556439,-4.619041,0.962114,-0.269312,0.023949,-0.035131
440,-0.395457,-4.489480,7.949334,-17.844112,5.118233,-10.558064,-31.830193,1.526368,-4.989640,0.960831,-0.273371,0.024732,-0.038208
441,-0.281671,-4.770411,7.940003,-22.506212,5.672533,-11.453508,-32.502060,1.487939,-5.395803,0.959071,-0.278926,0.025623,-0.041556
442,-0.530494,-4.624186,8.029260,-25.971704,5.335989,-10.047651,-33.306141,1.455579,-5.796138,0.956939,-0.285571,0.026642,-0.044799
443,-0.541552,-4.849417,8.275048,-28.796957,4.586450,-9.817906,-34.205280,1.423808,-6.162965,0.954520,-0.292998,0.027666,-0.047726
444,-0.297891,-4.946482,8.392847,-29.891340,4.088167,-10.258357,-35.164448,1.360968,-6.519976,0.951879,-0.300920,0.028480,-0.050625
445,-0.096630,-5.003684,8.485081,-28.427568,4.426718,-9.486282,-36.109737,1.282636,-6.869403,0.949201,-0.308714,0.029190,-0.053495
446,-0.570140,-4.964650,8.335290,-27.623838,3.867079,-6.456923,-37.008934,1.240804,-7.164235,0.946606,-0.316098,0.030076,-0.055816
447,-0.173711,-5.421356,7.975172,-29.178431,3.032986,-6.760061,-37.927021,1.205761,-7.408382,0.943919,-0.323626,0.030924,-0.057683
448,0.085868,-5.456481,7.443607,-28.920208,3.465685,-7.422778,-38.881706,1.135648,-7.660541,0.941053,-0.331450,0.031557,-0.059698
449,-0.163761,-5.683627,6.822395,-28.474316,3.252981,-5.666898,-39.839622,1.076362,-7.900031,0.938116,-0.339272,0.032279,-0.061569
450,-0.516778,-5.734460,6.352054,-32.638351,0.298015,-5.673932,-40.874531,1.008550,-8.082633,0.934906,-0.347719,0.032835,-0.062972
451,-0.045994,-5.764696,5.944571,-36.864391,-0.760406,-8.792507,-42.058422,0.849966,-8.258965,0.931140,-0.357404,0.032745,-0.064558
452,-0.322664,-5.783312,5.715822,-40.019665,-1.016509,-7.391531,-43.369114,0.648397,-8.437728,0.926853,-0.368102,0.032426,-0.066274
453,-0.154539,-5.716061,5.652318,-44.279175,-1.403497,-6.646375,-44.797005,0.464345,-8.578066,0.922075,-0.379696,0.032233,-0.067605
454,0.027804,-5.998054,5.653393,-48.701385,-1.214328,-6.881441,-46.363232,0.271837,-8.704819,0.916679,-0.392345,0.032049,-0.068832
455,0.017490,-6.207553,6.052195,-49.849407,0.149547,-7.409725,-48.011097,0.080738,-8.853523,0.910803,-0.405562,0.032042,-0.070223
456,0.132711,-6.517971,6.303124,-48.082790,0.452836,-5.817059,-49.631756,-0.083812,-9.005960,0.904835,-0.418460,0.032290,-0.071567
457,0.004158,-6.837260,6.533865,-45.471218,0.386981,-6.932777,-51.167835,-0.242236,-9.151890,0.899004,-0.430607,0.032551,-0.072868
458,-0.073524,-7.223922,6.692661,-40.867504,0.461950,-6.163480,-52.575283,-0.402029,-9.298002,0.893501,-0.441673,0.032760,-0.074217
459,0.010242,-6.983284,6.640238,-34.088192,1.299963,-6.273033,-53.781055,-0.546126,-9.446051,0.888656,-0.451096,0.033004,-0.075583
460,0.044727,-7.232304,6.313196,-29.452419,1.878473,-4.435637,-54.792526,-0.657403,-9.593713,0.884500,-0.458949,0.033402,-0.076874
461,-0.144905,-7.461205,6.081936,-26.723421,0.853515,-3.110545,-55.690464,-0.727288,-9.703187,0.880776,-0.465877,0.033911,-0.077735
462,0.440069,-7.639965,5.861602,-24.268276,-0.590061,-1.259752,-56.509865,-0.786932,-9.747861,0.877368,-0.472187,0.034193,-0.078078
463,0.255226,-7.718745,5.513916,-23.316971,-0.485365,-1.883258,-57.280910,-0.851747,-9.761571,0.874135,-0.478115,0.034280,-0.078220
464,0.184442,-8.246042,5.596164,-26.956375,-2.388397,3.476971,-58.105030,-0.858887,-9.707039,0.870708,-0.484411,0.034557,-0.077587
465,0.415618,-8.420319,5.690539,-27.255482,-4.294633,3.895991,-58.995831,-0.819475,-9.547830,0.867039,-0.491189,0.034775,-0.075943
466,0.127172,-8.545009,5.707046,-24.428959,-5.472926,5.482452,-59.839886,-0.773583,-9.328369,0.863559,-0.497602,0.034727,-0.073832
467,-0.009195,-8.683959,5.681157,-19.741968,-4.917264,4.693868,-60.555031,-0.708756,-9.094082,0.860612,-0.503016,0.034646,-0.071571
468,-0.116656,-8.753857,6.071003,-16.248709,-3.856261,6.824818,-61.122707,-0.603421,-8.873358,0.858286,-0.507281,0.034812,-0.069280
469,-0.088613,-9.025127,6.079857,-10.700702,-2.432042,4.722941,-61.530327,-0.474923,-8.689508,0.856634,-0.510316,0.035200,-0.067210
470,-0.217007,-9.262799,5.841656,-5.362380,-0.023567,3.825133,-61.761929,-0.357842,-8.586223,0.855703,-0.512014,0.035749,-0.065844
471,-0.040604,-9.216900,5.662671,-2.147351,1.612677,3.432233,-61.857693,-0.229629,-8.552628,0.855340,-0.512669,0.036611,-0.064991
472,0.087652,-9.119103,5.616207,-1.648589,1.792815,4.634778,-61.892616,-0.082910,-8.539424,0.855241,-0.512853,0.037667,-0.064224
473,0.253870,-9.189400,5.340423,0.158888,-1.062485,5.244585,-61.894386,0.061707,-8.472649,0.855319,-0.512809,0.038448,-0.063078
474,0.111191,-8.822050,5.135015,2.315224,-3.103034,4.421386,-61.835625,0.162813,-8.335453,0.855689,-0.512360,0.038557,-0.061621
475,0.146453,-8.618287,5.338347,2.992059,-4.563679,6.160327,-61.722710,0.250790,-8.139400,0.856324,-0.511534,0.038279,-0.059801
476,0.248348,-8.783137,5.521093,4.786613,-4.890751,6.693449,-61.560642,0.353586,-7.898890,0.857200,-0.510347,0.037892,-0.057598
477,-0.083782,-9.725091,5.586673,5.115373,-5.101644,7.318515,-61.371632,0.472728,-7.640930,0.858200,-0.508955,0.037543,-0.055200
478,0.019717,-9.808142,5.948444,-8.253102,-6.757382,5.841245,-61.404545,0.568567,-7.362262,0.858210,-0.509243,0.037038,-0.052676
479,0.025874,-10.052015,7.445162,-37.541912,-8.602513,5.289948,-62.120819,0.605936,-7.048595,0.855160,-0.514680,0.036236,-0.049934
480,0.057815,-10.566735,8.274793,-61.190823,-9.237665,4.906416,-63.687428,0.616016,-6.705785,0.848190,-0.526426,0.035416,-0.046851
481,-0.171058,-11.267114,8.657399,-76.519028,-7.736388,6.201692,-65.889549,0.660399,-6.370083,0.838059,-0.542713,0.035044,-0.043496
482,0.078662,-10.934161,8.807323,-76.541870,-6.843979,7.393157,-68.328270,0.771465,-6.056708,0.826458,-0.560474,0.035230,-0.039937
483,-0.472928,-11.372890,8.381641,-52.172916,-5.045035,11.614013,-70.346573,0.998845,-5.757760,0.816603,-0.574945,0.036047,-0.036038
484,-0.451987,-11.736973,6.762113,-12.689958,-4.996040,15.594500,-71.317558,1.380459,-5.448323,0.811860,-0.581791,0.037481,-0.031599
485,-0.658008,-11.370103,5.732888,30.197685,-6.189119,18.212503,-70.939362,1.862861,-5.086700,0.813932,-0.579036,0.038972,-0.026712
486,-0.739529,-10.794422,4.428882,72.888618,-8.674516,19.645185,-69.157776,2.384212,-4.635400,0.822971,-0.566261,0.040062,-0.021491
487,-0.762345,-10.356169,2.727880,94.944702,-7.276220,20.143974,-66.350548,2.910433,-4.136611,0.836687,-0.545902,0.040985,-0.016311
488,-0.414122,-9.160181,3.087373,98.478714,-4.294189,14.960814,-63.152096,3.361260,-3.713513,0.851630,-0.522320,0.041932,-0.012243
489,-0.581313,-8.836316,3.006704,107.924873,0.424215,11.527270,-59.752789,3.715815,-3.447867,0.866740,-0.496798,0.043077,-0.009929
490,-0.123672,-8.042429,1.912246,101.363831,4.828075,5.927452,-56.365364,3.997081,-3.374616,0.881013,-0.470887,0.044624,-0.009475
491,0.023981,-6.571246,3.447056,78.631889,7.550858,-2.399206,-53.471798,4.133856,-3.517003,0.892586,-0.448386,0.045992,-0.011170
492,-0.098993,-5.706668,4.427916,74.084213,5.586843,-8.038608,-50.967594,4.097723,-3.799181,0.902144,-0.428675,0.046509,-0.014530
493,0.073891,-6.120122,4.022790,70.708557,3.604242,-12.806784,-48.597847,3.897749,-4.142755,0.910794,-0.409870,0.045840,-0.018938
494,-0.161895,-4.438284,4.796771,58.592754,3.141524,-16.843601,-46.470501,3.579297,-4.560447,0.918208,-0.392861,0.044363,-0.024231
495,-0.451956,-3.856536,5.139247,49.518341,2.153411,-14.536742,-44.630951,3.258931,-4.986048,0.924328,-0.378049,0.042791,-0.029437
496,-0.426440,-4.670406,4.525479,45.609303,1.529437,-12.854729,-43.031807,2.991205,-5.356066,0.929430,-0.365100,0.041385,-0.033891
497,-0.458902,-4.514497,5.894518,35.601017,1.526641,-11.835041,-41.677631,2.756047,-5.693755,0.933586,-0.354082,0.040111,-0.037860
498,-0.659303,-4.147722,6.120910,36.056602,1.283216,-5.562472,-40.440701,2.612926,-5.940412,0.937275,-0.343969,0.039271,-0.040741
499,-0.135975,-4.786396,6.109360,31.533291,0.709565,-5.595676,-39.280594,2.522804,-6.102792,0.940652,-0.334452,0.038591,-0.042734
500,-0.259515,-5.519196,8.421630,35.023525,-0.695228,-9.095210,-38.144573,2.358813,-6.292670,0.943852,-0.325131,0.037355,-0.045147
501,-0.581491,-4.883144,8.609158,45.553894,-2.001577,-7.431757,-36.748589,2.155525,-6.481453,0.947668,-0.313654,0.035639,-0.047720
502,-0.498812,-5.189684,8.245768,45.356396,-2.486355,-7.330416,-35.184696,1.958387,-6.634542,0.951794,-0.300749,0.033749,-0.049994
503,-0.667561,-4.827603,8.851965,41.402767,-2.416896,-10.386072,-33.699062,1.734954,-6.829952,0.955522,-0.288448,0.031728,-0.052623
504,-0.733147,-4.753113,9.119442,42.024525,-3.758365,-8.111317,-32.261688,1.497943,-7.030248,0.958963,-0.276516,0.029566,-0.055268
505,-0.848248,-4.222707,8.297303,41.904152,-3.670863,-4.615466,-30.818394,1.307003,-7.144384,0.962306,-0.264492,0.027528,-0.057038
506,-0.483488,-4.261755,8.696248,33.642357,-2.849629,-6.034858,-29.520090,1.146091,-7.241801,0.965184,-0.253639,0.025741,-0.058525
507,-0.465159,-3.796327,8.732368,32.920479,-1.449247,-3.688756,-28.368273,1.018122,-7.347571,0.967622,-0.243974,0.024297,-0.059947
508,-0.357701,-3.673529,8.622327,28.713625,-1.355178,-1.692196,-27.295109,0.946805,-7.404113,0.969830,-0.234930,0.023247,-0.060798
510,-0.369587,-3.354140,8.660770,27.410652,-0.548603,0.333267,-26.312422,0.918830,-7.409071,0.971805,-0.226619,0.022497,-0.061092
511,-0.315975,-3.424280,8.686609,21.657877,-0.613374,1.816976,-25.448608,0.926971,-7.367579,0.973508,-0.219291,0.022026,-0.060892
512,-0.351463,-3.282830,8.758058,18.477303,-0.430973,4.298598,-24.737734,0.963905,-7.267144,0.974905,-0.213246,0.021775,-0.060104
513,-0.485789,-3.209624,8.962232,11.121894,-1.087472,4.680703,-24.200588,1.016271,-7.119697,0.975973,-0.208672,0.021670,-0.058854
514,-0.420600,-3.379617,9.006830,6.843751,-1.328811,6.054688,-23.861860,1.066824,-6.939133,0.976678,-0.205793,0.021602,-0.057287
515,-0.533414,-3.342325,9.192078,2.732980,-1.351900,4.450068,-23.667618,1.111353,-6.760257,0.977115,-0.204148,0.021566,-0.055719
516,-0.445784,-3.301710,9.185259,2.183828,-0.834803,3.345953,-23.550694,1.144872,-6.625923,0.977388,-0.203158,0.021557,-0.054535
517,-0.450126,-3.141511,9.256385,-0.899503,-1.833167,3.393823,-23.490671,1.161429,-6.504424,0.977552,-0.202661,0.021455,-0.053481
518,-0.500704,-3.180158,9.243386,-1.261856,-2.164601,3.676735,-23.485266,1.160937,-6.368976,0.977624,-0.202640,0.021209,-0.052327
519,-0.490156,-3.127253,9.173202,-2.330771,-2.959822,4.437298,-23.503851,1.151161,-6.210103,0.977663,-0.202833,0.020852,-0.050986
520,-0.388678,-3.196628,9.025059,-4.283407,-3.860559,5.298471,-23.574215,1.123903,-6.015188,0.977623,-0.203481,0.020305,-0.049359
521,-0.383730,-3.117658,9.071237,-6.678583,-4.059587,5.437787,-23.716934,1.084555,-5.797598,0.977461,-0.204754,0.019642,-0.047548
522,-0.267501,-3.339618,8.982282,-8.045567,-3.160199,4.398971,-23.925648,1.047755,-5.598369,0.977167,-0.206584,0.019056,-0.045880
523,-0.202948,-3.325535,8.972333,-9.716628,-1.702701,0.166218,-24.191078,1.007669,-5.495308,0.976726,-0.208881,0.018633,-0.045031
524,-0.122762,-3.246158,8.987099,-10.927969,-0.492704,-3.300648,-24.502750,0.952484,-5.527240,0.976141,-0.211555,0.018344,-0.045354
525,-0.178378,-3.397155,8.677715,-11.739710,0.892767,-5.311789,-24.851667,0.898184,-5.659936,0.975438,-0.214529,0.018268,-0.046530
526,-0.093125,-3.456889,8.335126,-16.245024,1.484750,-7.530479,-25.298588,0.842749,-5.870231,0.974505,-0.218322,0.018379,-0.048353
527,-0.031820,-3.633662,7.997436,-22.403858,1.485912,-7.194924,-25.932873,0.777373,-6.112717,0.973174,-0.223703,0.018565,-0.050438
528,-0.043602,-3.740050,7.791171,-30.109303,0.756095,-4.916913,-26.805813,0.716389,-6.310008,0.971350,-0.231107,0.018829,-0.052090
529,-0.208464,-3.958059,7.535030,-38.265629,0.356377,-2.483026,-27.949297,0.676709,-6.427992,0.968939,-0.240787,0.019261,-0.052981
530,-0.180671,-4.117966,7.441193,-49.337013,-1.198082,-0.624221,-29.417582,0.644397,-6.466787,0.965754,-0.253191,0.019751,-0.053129
531,-0.117204,-4.520232,7.731042,-57.419109,-2.116447,0.624104,-31.204115,0.599118,-6.439124,0.961699,-0.268243,0.020133,-0.052688
532,-0.285129,-4.746107,7.777687,-58.512123,-2.323507,0.824275,-33.139656,0.554572,-6.379459,0.957053,-0.284480,0.020500,-0.051953
533,-0.294547,-5.067169,8.028668,-55.974216,-2.252465,0.428072,-35.043728,0.513151,-6.319719,0.952217,-0.300374,0.020859,-0.051218
534,-0.130111,-5.468009,8.126941,-52.353897,-1.034270,-0.894561,-36.840168,0.470410,-6.294090,0.947398,-0.315289,0.021236,-0.050790
535,-0.169676,-6.194461,8.440018,-38.580196,0.890156,-1.744323,-38.348660,0.444850,-6.327499,0.943147,-0.327738,0.021788,-0.050855
536,-0.048203,-6.194218,8.138194,-22.600025,2.457373,-4.855610,-39.362274,0.420710,-6.448071,0.940154,-0.336056,0.022392,-0.051720
537,-0.383879,-6.093663,8.021971,-13.845978,3.503136,-6.364322,-39.957745,0.384845,-6.655447,0.938295,-0.340912,0.022984,-0.053408
538,-0.438489,-6.023302,7.845003,-14.019554,3.040502,-7.315448,-40.404629,0.337593,-6.900021,0.936835,-0.344542,0.023541,-0.055460
539,-0.216870,-5.991762,7.584929,-12.960197,3.036905,-9.032799,-40.836788,0.250021,-7.172806,0.935380,-0.348061,0.023864,-0.057864
540,-0.279633,-5.474411,7.223005,-23.059422,1.885603,-9.959882,-41.413963,0.113963,-7.465216,0.933439,-0.352778,0.023947,-0.060544
541,-0.487663,-5.526309,7.176212,-33.823227,0.916513,-8.126006,-42.330944,-0.033974,-7.720900,0.930418,-0.360262,0.024033,-0.062892
542,-0.201851,-5.878298,7.203789,-41.709381,0.260158,-5.774904,-43.560558,-0.160099,-7.904015,0.926369,-0.370255,0.024279,-0.064518
543,-0.011110,-6.059778,6.702165,-41.501484,1.035793,-4.425564,-44.927719,-0.257245,-8.040920,0.921784,-0.381305,0.024721,-0.065648
544,-0.233953,-6.330614,6.709839,-42.385258,0.783066,-1.536421,-46.312534,-0.299013,-8.132109,0.917046,-0.392419,0.025490,-0.066217
545,0.052685,-6.432633,6.546575,-35.457657,1.691493,-0.783650,-47.595234,-0.292349,-8.188718,0.912565,-0.402643,0.026482,-0.066355
546,0.074095,-6.783791,6.177840,-31.695532,2.155320,-0.145877,-48.706814,-0.261910,-8.246758,0.908591,-0.411445,0.027574,-0.066446
547,0.191944,-6.638760,6.022505,-30.642294,2.917971,-2.578558,-49.741772,-0.245795,-8.340328,0.904788,-0.419602,0.028643,-0.066874
548,0.156287,-6.875604,6.221962,-30.772356,3.625545,-2.998722,-50.752934,-0.254368,-8.483636,0.900964,-0.427537,0.029699,-0.067778
549,-0.072725,-6.801974,6.006516,-30.473103,3.883427,-3.691495,-51.755852,-0.262972,-8.651026,0.897085,-0.435367,0.030860,-0.068858
550,-0.151030,-7.336061,6.306753,-33.603893,3.691654,-2.000167,-52.803669,-0.252925,-8.809126,0.892975,-0.443501,0.032178,-0.069767
551,0.061870,-7.486040,6.363504,-33.145306,2.761119,-1.650394,-53.892178,-0.233297,-8.931849,0.888653,-0.451916,0.033476,-0.070332
552,-0.068130,-8.149441,6.889770,-32.963745,2.057797,0.901111,-54.963329,-0.194767,-9.004615,0.884358,-0.460158,0.034721,-0.070423
553,0.122964,-8.314001,6.917721,-27.111193,2.088364,1.685474,-55.927666,-0.119645,-9.037112,0.880460,-0.467529,0.036023,-0.070072
554,0.248572,-9.131395,7.323299,-21.293514,3.784837,1.068460,-56.695232,-0.033657,-9.093066,0.877303,-0.473346,0.037381,-0.069902
555,0.198393,-9.191270,7.217933,-12.536856,6.376917,-2.869136,-57.219528,0.025168,-9.251298,0.875050,-0.477266,0.038808,-0.070694
556,-0.023063,-9.279651,7.301726,-7.054516,10.440261,-4.546424,-57.503582,0.068974,-9.553969,0.873690,-0.479301,0.040584,-0.072722
557,-0.156832,-8.875575,6.962758,1.182441,13.025358,-5.714996,-57.556324,0.138256,-9.975663,0.873221,-0.479504,0.042910,-0.075627
558,-0.310096,-8.831470,6.880342,7.762269,13.891037,-4.736107,-57.362659,0.242053,-10.447388,0.873749,-0.477775,0.045541,-0.078864
559,-0.252779,-8.373137,6.639911,12.877273,12.016236,-2.998696,-56.974266,0.378730,-10.879851,0.875110,-0.474535,0.048108,-0.081754
560,-0.227496,-8.110060,6.256558,14.598265,9.250168,0.395678,-56.475712,0.545524,-11.199642,0.876997,-0.470460,0.050342,-0.083724
561,-0.275976,-8.171515,6.390303,14.078670,5.626499,3.379532,-55.961811,0.743672,-11.370398,0.879043,-0.466292,0.052180,-0.084451
562,-0.079024,-8.888271,5.916671,8.739641,2.055970,5.119326,-55.564854,0.935726,-11.396381,0.880701,-0.463079,0.053467,-0.084053
563,-0.058335,-8.500542,6.426229,-15.504843,-2.419802,1.981709,-55.667004,1.026154,-11.324444,0.880371,-0.463826,0.053945,-0.083085
564,0.096049,-8.787194,7.620142,-46.556629,-5.745347,-0.359750,-56.660648,0.964143,-11.195780,0.876387,-0.471552,0.053660,-0.081886
565,-0.075539,-9.335838,8.465561,-65.685318,-7.227602,0.896949,-58.463921,0.847190,-11.007316,0.868949,-0.485463,0.053258,-0.080099
566,-0.151329,-9.730548,8.548976,-72.316895,-6.982207,4.435364,-60.682343,0.800730,-10.756590,0.859543,-0.502346,0.053351,-0.077377
567,-0.229746,-9.692451,9.245896,-62.740906,-6.480294,10.514738,-62.828026,0.914112,-10.439121,0.850236,-0.518421,0.054195,-0.073495
568,-0.901294,-11.021930,9.107754,-27.891481,-8.262161,19.463926,-64.219284,1.263326,-9.994032,0.844272,-0.528675,0.055599,-0.067938
569,-0.636904,-11.161210,7.109644,29.813187,-9.996478,23.811392,-64.092308,1.795647,-9.402736,0.845347,-0.527663,0.056721,-0.061178
570,-0.194396,-10.936878,5.890435,70.072411,-9.376927,27.092400,-62.365170,2.407637,-8.728885,0.853680,-0.514784,0.057315,-0.054245
571,-0.486339,-10.268798,5.051150,92.735847,-12.477772,27.382000,-59.612785,3.019127,-7.968411,0.866222,-0.494109,0.057329,-0.047206
572,-0.312378,-9.647386,4.322010,100.141022,-14.632510,22.603786,-56.386002,3.479760,-7.143847,0.880137,-0.469641,0.056128,-0.040568
573,0.344115,-8.472579,3.656489,98.805107,-10.147511,15.334720,-53.097946,3.728384,-6.444613,0.893483,-0.444384,0.054165,-0.035739
574,-0.614261,-7.274757,4.071561,79.029327,-6.072535,14.494967,-50.176327,3.927801,-5.929043,0.904665,-0.421591,0.052911,-0.032299
575,-0.663054,-6.663492,4.566323,61.597855,-5.431025,11.414326,-47.857975,4.133498,-5.504727,0.913103,-0.403290,0.052390,-0.029253
576,-0.404316,-6.087614,5.203879,62.138176,-2.501232,4.642004,-45.805279,4.236470,-5.226478,0.920237,-0.386944,0.051744,-0.027602
577,-0.639527,-5.279175,5.458613,61.833042,-1.434792,0.988733,-43.730854,4.252200,-5.113086,0.927115,-0.370265,0.050997,-0.027565
578,-0.547352,-4.808871,5.643197,52.465958,-1.785702,0.006315,-41.801849,4.225828,-5.062487,0.933233,-0.354642,0.050154,-0.028090
579,-0.160951,-4.736277,6.155787,45.790100,-0.195265,-3.670316,-40.135147,4.148075,-5.084723,0.938300,-0.341058,0.049171,-0.029232
580,-0.406964,-4.421728,6.225542,43.532406,-0.704862,-6.977921,-38.618473,4.006256,-5.210287,0.942721,-0.328624,0.047974,-0.031323
581,-0.419410,-4.409935,6.502323,32.781506,0.290743,-7.657282,-37.321297,3.842019,-5.395985,0.946353,-0.317933,0.046777,-0.033858
582,-0.319104,-4.806471,7.116617,26.264446,0.704787,-12.079915,-36.322895,3.646844,-5.667688,0.949030,-0.309662,0.045600,-0.037047
583,-0.612559,-4.718279,7.386556,30.829884,2.080613,-15.745379,-35.366917,3.406857,-6.069505,0.951471,-0.301699,0.044356,-0.041401
584,-0.500411,-4.492161,7.563997,29.685879,0.600412,-18.755800,-34.351799,3.115638,-6.565499,0.953942,-0.293225,0.042835,-0.046674
585,-0.887934,-4.727476,8.387415,29.854656,1.402091,-18.587288,-33.347252,2.804954,-7.099047,0.956265,-0.284832,0.041160,-0.052281
586,-0.598755,-4.609939,8.479510,31.383102,-0.534943,-18.523870,-32.310669,2.493926,-7.624856,0.958561,-0.276171,0.039352,-0.057808
587,-0.790818,-4.504982,8.384199,31.119747,0.436511,-12.912221,-31.250412,2.229301,-8.067683,0.960845,-0.267308,0.037631,-0.062507
588,-0.592972,-4.393041,8.711558,28.811516,-1.977863,-10.652953,-30.228245,2.021443,-8.390854,0.963008,-0.258757,0.036056,-0.066030
589,-0.759102,-4.468616,8.743787,31.549147,-1.709575,-5.737070,-29.197441,1.848086,-8.596191,0.965172,-0.250137,0.034450,-0.068463
590,-0.530489,-3.921725,8.499990,32.391560,-2.372031,-4.173642,-28.103823,1.725375,-8.707429,0.967445,-0.240964,0.032993,-0.069988
591,-0.677947,-3.844109,8.755611,29.250290,-2.015177,-0.425127,-27.040846,1.640776,-8.740132,0.969616,-0.232028,0.031693,-0.070741
592,-0.588719,-3.400180,8.954662,28.535999,-2.523338,0.129715,-26.032764,1.588706,-8.709260,0.971637,-0.223532,0.030568,-0.070858
593,-0.799655,-3.343518,8.996976,24.033348,-2.191910,4.012732,-25.104660,1.568748,-8.611305,0.973475,-0.215694,0.029640,-0.070309
594,-0.650870,-3.263591,9.239409,20.810701,-2.743842,3.774255,-24.306229,1.571071,-8.457453,0.975048,-0.208944,0.028888,-0.069200
595,-0.665394,-3.264546,9.310003,17.795307,-3.376962,3.862132,-23.614382,1.548433,-8.298169,0.976387,-0.203107,0.027995,-0.068057
596,-0.829629,-3.257948,9.355088,14.809917,-3.385578,3.846378,-23.027613,1.518893,-8.134189,0.977511,-0.198163,0.027111,-0.066852
597,-0.565850,-3.347004,9.295613,11.515563,-4.013906,2.400707,-22.553391,1.466401,-7.989313,0.978406,-0.194182,0.026140,-0.065817
598,-0.421747,-3.363578,9.294291,9.357299,-4.295176,1.000410,-22.178446,1.371314,-7.883362,0.979096,-0.191061,0.024936,-0.065157
599,-0.358588,-3.507501,9.192622,7.919996,-4.408982,1.142628,-21.872046,1.257271,-7.795326,0.979651,-0.188530,0.023642,-0.064660
600,-0.106006,-3.406416,9.329401,5.017454,-3.786389,-1.790160,-21.642633,1.126723,-7.754382,0.980047,-0.186655,0.022330,-0.064571
601,-0.086245,-3.542082,9.296456,5.044476,-3.524432,-4.659076,-21.465149,0.968554,-7.809348,0.980299,-0.185221,0.020966,-0.065333
602,-0.140244,-3.460611,9.244073,4.234929,-3.156992,-6.244620,-21.305305,0.795295,-7.937841,0.980474,-0.183935,0.019599,-0.066741
603,-0.326084,-3.501040,9.432274,3.294218,-2.428779,-6.822799,-21.174107,0.633376,-8.106990,0.980575,-0.182883,0.018407,-0.068470
604,-0.328933,-3.225929,9.742356,2.070479,-3.544883,-6.396706,-21.070549,0.470523,-8.276433,0.980625,-0.182071,0.017221,-0.070197
605,-0.414174,-3.322627,9.524612,3.740268,-4.521811,-3.852507,-20.954899,0.296613,-8.387457,0.980725,-0.181175,0.015837,-0.071440
606,-0.253111,-2.764870,9.914252,3.288543,-5.530816,-0.928370,-20.807768,0.124181,-8.401995,0.980930,-0.180022,0.014292,-0.071856
607,-0.160103,-2.994376,10.146152,6.614534,-6.578408,3.283474,-20.602091,-0.042957,-8.293748,0.981301,-0.178379,0.012563,-0.071215
608,0.270095,-2.699198,10.005052,13.599750,-7.343174,4.662810,-20.224543,-0.217123,-8.088719,0.981989,-0.175272,0.010523,-0.069765
609,0.127819,-2.764053,9.719320,18.474602,-5.859210,2.990102,-19.650011,-0.388701,-7.894024,0.982951,-0.170464,0.008411,-0.068401
610,0.275067,-2.587452,9.419239,19.528036,-4.024194,3.501024,-18.981949,-0.515732,-7.737801,0.984004,-0.164814,0.006697,-0.067290
611,0.198556,-2.795473,9.016220,16.750315,-2.364734,4.799305,-18.353729,-0.580321,-7.573040,0.984980,-0.159463,0.005543,-0.065999
613,0.166319,-2.639601,8.705218,9.254793,-0.772120,4.477167,-17.908453,-0.586637,-7.410095,0.985684,-0.155645,0.005011,-0.064627
614,-0.067009,-2.460684,8.648391,-0.405904,0.381701,3.248852,-17.747564,-0.551070,-7.285720,0.985976,-0.154247,0.005059,-0.063516
615,0.012479,-2.354624,8.754303,-8.119017,0.513525,5.867511,-17.871241,-0.484138,-7.145846,0.985894,-0.155281,0.005514,-0.062217
616,-0.124202,-2.398558,9.209834,-12.164812,0.468430,5.902803,-18.185854,-0.400715,-6.964643,0.985570,-0.157953,0.006153,-0.060529
617,-0.089880,-2.474547,9.420068,-12.129961,0.420463,5.088217,-18.563755,-0.319865,-6.795763,0.985141,-0.161171,0.006810,-0.058943
618,-0.235763,-2.459445,9.635013,-9.747833,0.465751,4.411030,-18.896996,-0.244164,-6.650836,0.984750,-0.164006,0.007424,-0.057569
619,-0.124798,-2.762238,9.720517,-8.717856,0.240956,6.742980,-19.175062,-0.161458,-6.479151,0.984442,-0.166366,0.008025,-0.055956
620,0.041944,-2.893388,9.699024,-7.653481,0.474770,5.085935,-19.424997,-0.081449,-6.297125,0.984172,-0.168488,0.008567,-0.054258
621,0.026191,-2.888291,9.654743,-8.713304,0.280923,4.904326,-19.675684,-0.014444,-6.144485,0.983878,-0.170621,0.009033,-0.052828
622,0.255247,-2.854762,9.409381,-10.224701,0.722837,2.592331,-19.968109,0.037258,-6.032629,0.983495,-0.173117,0.009443,-0.051767
623,0.317433,-2.844044,9.221416,-10.336804,2.866958,-1.073422,-20.287369,0.088068,-6.029393,0.983014,-0.175834,0.010018,-0.051635
624,0.435760,-2.835799,9.127022,-8.283525,5.326468,-4.933146,-20.573637,0.161943,-6.170740,0.982513,-0.178242,0.011000,-0.052707
625,0.143036,-2.857156,8.832072,-6.244052,8.039627,-6.725121,-20.793144,0.286247,-6.431039,0.982056,-0.180038,0.012575,-0.054721
626,0.215261,-3.154400,8.512335,-3.654788,9.538562,-10.442667,-20.947582,0.446934,-6.802645,0.981641,-0.181237,0.014614,-0.057633
627,-0.031493,-3.407068,8.283831,-3.858132,10.143620,-14.271497,-21.081280,0.597667,-7.304784,0.981176,-0.182232,0.016770,-0.061675
628,-0.070820,-3.597829,8.425152,-8.676917,9.696372,-16.546724,-21.311388,0.718593,-7.903390,0.980480,-0.184039,0.018891,-0.066569
629,-0.366864,-3.902389,8.335657,-14.573987,9.904457,-18.959026,-21.731991,0.811096,-8.574136,0.979398,-0.187461,0.021023,-0.072081
630,-0.171916,-3.893540,8.657300,-22.111612,9.165092,-21.171377,-22.380211,0.861725,-9.313890,0.977841,-0.192820,0.023108,-0.078189
631,-0.387285,-3.862664,8.972893,-32.599182,8.671329,-21.862383,-23.317709,0.863674,-10.090653,0.975680,-0.200646,0.025124,-0.084610
632,-0.159284,-4.200956,9.646005,-40.297951,8.969431,-19.783852,-24.548489,0.856170,-10.844562,0.972892,-0.210944,0.027356,-0.090752
633,-0.248254,-4.337708,9.503601,-40.523869,9.103908,-18.991812,-25.906818,0.854766,-11.557455,0.969742,-0.222281,0.029802,-0.096458
634,-0.103017,-4.323302,9.637792,-39.554173,8.313553,-18.202866,-27.244009,0.837858,-12.241555,0.966488,-0.233409,0.032177,-0.101910
635,-0.130037,-4.678185,9.656927,-37.662243,6.535677,-16.744143,-28.526527,0.782347,-12.871874,0.963232,-0.244078,0.034191,-0.106963
636,0.010061,-4.965136,9.359243,-33.210293,6.455965,-14.705692,-29.706621,0.712277,-13.435019,0.960118,-0.253878,0.035952,-0.111481
637,-0.107852,-5.064002,8.849658,-28.169952,6.097026,-15.978496,-30.733820,0.631762,-13.982005,0.957243,-0.262378,0.037530,-0.115910
638,-0.025059,-4.960289,8.842121,-25.965946,5.646660,-15.478114,-31.635826,0.525526,-14.531841,0.954555,-0.269831,0.038851,-0.120444
639,-0.342151,-5.302785,8.676296,-22.650949,5.288386,-13.947404,-32.443420,0.423712,-15.044177,0.952054,-0.276484,0.040089,-0.124672
640,-0.280341,-5.265193,8.471029,-16.050995,5.837106,-12.733720,-33.088375,0.349779,-15.518520,0.949937,-0.281751,0.041344,-0.128560
641,-0.365760,-5.222859,8.433351,-8.423629,5.177410,-11.719835,-33.490871,0.292015,-15.959985,0.948420,-0.284990,0.042415,-0.132213
642,-0.351506,-4.931710,8.354604,-0.577075,4.223410,-9.266854,-33.624939,0.244217,-16.338072,0.947629,-0.286015,0.043119,-0.135410
643,-0.256376,-5.247937,8.121606,3.524623,3.310438,-5.823657,-33.561584,0.222595,-16.617008,0.947447,-0.285411,0.043560,-0.137794
644,0.146447,-5.345728,8.165534,5.443172,2.353748,-4.705107,-33.408268,0.205404,-16.815430,0.947582,-0.284089,0.043725,-0.139536
645,0.022120,-5.552160,8.041571,5.693064,2.026708,-4.417034,-33.226810,0.177039,-16.982607,0.947816,-0.282560,0.043682,-0.141058
646,0.250465,-5.719640,8.048996,5.818306,2.230500,-4.486154,-33.049515,0.147154,-17.145710,0.948039,-0.281068,0.043616,-0.142549
647,0.302123,-5.927703,7.977274,3.873415,3.236388,-5.365893,-32.912304,0.119542,-17.333149,0.948131,-0.279896,0.043675,-0.144219
648,0.247925,-6.066616,8.066871,3.427734,3.796740,-5.992303,-32.822678,0.100994,-17.555866,0.948060,-0.279093,0.043951,-0.146142
649,0.008979,-5.986246,7.877617,1.974592,3.805311,-5.470821,-32.768177,0.097009,-17.785173,0.947897,-0.278559,0.044406,-0.148069
650,0.042079,-5.919788,8.006037,1.113642,2.593557,-2.861606,-32.750828,0.109475,-17.959724,0.947717,-0.278331,0.044911,-0.149490
651,-0.174757,-5.685500,8.170259,5.128989,0.849623,-0.075143,-32.671078,0.133628,-18.031963,0.947825,-0.277611,0.045182,-0.150060
652,-0.221127,-5.328658,7.929269,14.202288,-0.683199,0.807309,-32.362675,0.151272,-18.023159,0.948587,-0.275040,0.044903,-0.150065
653,0.061583,-5.318828,7.591787,16.666565,-1.232299,0.868493,-31.864269,0.141860,-17.982504,0.949824,-0.270939,0.044075,-0.149945
654,0.044688,-5.635335,7.747546,13.695803,-0.686345,0.434914,-31.386557,0.122111,-17.947317,0.950984,-0.267017,0.043204,-0.149881
655,-0.033230,-5.643754,7.687708,9.388920,0.468667,-2.542246,-31.039591,0.099417,-17.975586,0.951743,-0.264155,0.042627,-0.150298
656,-0.015159,-5.764887,7.572757,-1.420790,1.129423,-5.146993,-30.953297,0.056456,-18.099224,0.951764,-0.263449,0.042441,-0.151456
657,0.049392,-6.022066,7.938204,-15.917690,0.631851,-3.477711,-31.294210,0.005720,-18.237471,0.950774,-0.266295,0.042792,-0.152595
658,-0.267264,-5.761178,8.388916,-24.765871,-0.564061,-0.884915,-32.011410,-0.026835,-18.299942,0.948993,-0.272260,0.043625,-0.152918
659,-0.261221,-5.350292,8.262263,-27.930824,-2.870181,2.614698,-32.906750,-0.047153,-18.245020,0.946902,-0.279715,0.044516,-0.152169
660,-0.058011,-5.364017,8.240315,-31.022789,-5.162965,7.484355,-33.893879,-0.058483,-18.030975,0.944734,-0.287961,0.045194,-0.150044
661,0.057513,-5.325742,8.272568,-32.447605,-7.265651,10.858199,-34.947964,-0.056434,-17.661732,0.942524,-0.296785,0.045633,-0.146580
662,-0.126607,-5.335538,8.290459,-34.252922,-9.586409,13.395937,-36.046207,-0.048503,-17.169600,0.940258,-0.305994,0.045787,-0.142078
663,-0.030325,-5.537048,8.201335,-34.023811,-11.748297,14.792401,-37.167019,-0.049775,-16.580635,0.937935,-0.315416,0.045544,-0.136808
664,0.137894,-5.572136,8.148796,-33.019268,-12.894439,15.050147,-38.264904,-0.072801,-15.936121,0.935613,-0.324672,0.044839,-0.131170
665,0.095195,-5.572886,8.006192,-32.935799,-13.689854,14.790422,-39.339214,-0.111721,-15.270988,0.933256,-0.333733,0.043814,-0.125443
666,0.034359,-5.689145,7.905463,-33.036640,-13.835002,15.681410,-40.410927,-0.140621,-14.587261,0.930812,-0.342739,0.042706,-0.119562
667,0.174690,-5.719363,7.657193,-32.162315,-13.827684,16.351017,-41.468967,-0.143276,-13.881943,0.928323,-0.351584,0.041624,-0.113459
668,0.173976,-5.710318,7.451461,-31.930239,-13.896920,16.654173,-42.506851,-0.126429,-13.163977,0.925797,-0.360222,0.040529,-0.107226
669,0.202561,-5.908101,7.347845,-31.910242,-13.879230,16.833662,-43.540012,-0.092530,-12.440103,0.923180,-0.368780,0.039439,-0.100918
670,0.169538,-6.037015,7.174385,-30.546135,-13.995821,16.643860,-44.551884,-0.047097,-11.716052,0.920521,-0.377127,0.038311,-0.094602
671,0.276583,-6.099555,6.921731,-29.742270,-13.938615,16.424891,-45.529285,0.002962,-10.997145,0.917860,-0.385164,0.037101,-0.088347
672,0.293702,-6.408541,6.807562,-30.742542,-13.294169,15.882163,-46.514309,0.060772,-10.296517,0.915054,-0.393222,0.035917,-0.082233
673,0.275671,-6.638325,6.461928,-30.277411,-11.840995,13.671556,-47.517677,0.120741,-9.654062,0.912038,-0.401378,0.034863,-0.076593
674,0.296507,-6.842581,6.284921,-31.433718,-9.302909,11.381534,-48.541237,0.180228,-9.112667,0.908783,-0.409634,0.034082,-0.071773
675,0.225458,-7.189553,6.341198,-34.352795,-6.400043,10.214651,-49.635696,0.266662,-8.678948,0.905116,-0.418371,0.033866,-0.067704
676,0.148117,-7.551291,6.501871,-36.133419,-4.179018,9.260118,-50.806976,0.392591,-8.335509,0.901022,-0.427628,0.034264,-0.064184
677,0.114648,-7.622526,6.694715,-34.031189,-2.815423,8.502572,-51.963688,0.542390,-8.059400,0.896846,-0.436699,0.035030,-0.061102
678,0.033828,-7.748564,7.173142,-30.303553,-2.379488,9.551850,-53.004482,0.721053,-7.807044,0.893014,-0.444805,0.035995,-0.058120
679,-0.175007,-7.755050,7.402541,-22.569990,-2.549039,10.085793,-53.834320,0.932708,-7.545274,0.889943,-0.451228,0.037027,-0.054990
680,-0.070049,-7.498105,7.361068,-13.286142,-2.656004,7.899086,-54.365246,1.123123,-7.298146,0.887994,-0.455325,0.037774,-0.052145
681,-0.186081,-7.360389,7.367197,-4.361291,-2.192384,3.266244,-54.582359,1.224888,-7.122808,0.887225,-0.457011,0.037961,-0.050309
682,-0.224608,-7.284472,7.225936,1.725767,-0.784094,-1.782963,-54.547394,1.216041,-7.066437,0.887388,-0.456764,0.037653,-0.049919
683,-0.167853,-7.052032,6.902874,3.871172,1.057522,-6.751345,-54.380009,1.102150,-7.151215,0.887998,-0.455499,0.037035,-0.051085
684,0.000161,-6.885047,6.636090,2.729312,2.866832,-10.745053,-54.202271,0.898005,-7.373098,0.888564,-0.454157,0.036253,-0.053674
685,0.009222,-7.105512,6.605318,0.967176,4.775178,-12.257869,-54.080982,0.653337,-7.699773,0.888835,-0.453246,0.035591,-0.057216
686,0.095205,-7.280417,6.335191,-0.318676,5.986177,-10.692959,-54.022926,0.439888,-8.068808,0.888824,-0.452799,0.035365,-0.060941
687,0.024579,-7.330428,6.079646,-0.810937,6.217649,-8.728153,-54.007423,0.289923,-8.423207,0.888653,-0.452655,0.035593,-0.064288
688,0.048247,-7.502056,6.103491,-0.057336,5.054594,-6.430491,-53.994740,0.191090,-8.723506,0.888503,-0.452521,0.036006,-0.067011
689,0.005601,-7.747581,6.109435,2.807545,1.994909,-4.379910,-53.926983,0.111212,-8.924423,0.888628,-0.451981,0.036139,-0.068905
690,0.216012,-7.692173,5.983222,7.112344,-1.432715,-4.388078,-53.744823,-0.007864,-9.018202,0.889252,-0.450611,0.035474,-0.070159
691,0.430033,-7.439456,5.785518,10.334998,-3.975889,-7.891416,-53.439648,-0.242614,-9.067176,0.890344,-0.448370,0.033655,-0.071552
692,0.721407,-7.284622,5.811893,9.793282,-4.957209,-12.468415,-53.088390,-0.631856,-9.150957,0.891529,-0.445851,0.030732,-0.073819
693,0.832175,-7.381914,6.045976,6.453344,-4.208568,-18.430012,-52.796295,-1.170454,-9.339612,0.892336,-0.443852,0.027076,-0.077446
694,0.816392,-7.419035,6.242557,5.323298,-2.828057,-24.054199,-52.569382,-1.838073,-9.675987,0.892696,-0.442410,0.023013,-0.082686
695,0.606577,-7.302954,6.358741,2.806690,-1.971790,-26.737082,-52.389610,-2.580721,-10.129134,0.892691,-0.441373,0.018831,-0.089094
696,0.461898,-7.376363,6.730567,0.063506,-0.601862,-26.243368,-52.280956,-3.313587,-10.636633,0.892298,-0.440899,0.014976,-0.095857
697,0.335973,-7.510421,7.014547,3.040200,0.494268,-23.809206,-52.154854,-3.968429,-11.149348,0.891938,-0.440265,0.011725,-0.102350
698,0.337339,-7.425344,7.027991,11.617374,0.362631,-18.292015,-51.832375,-4.497840,-11.596861,0.892411,-0.438051,0.009007,-0.107862
699,0.594552,-7.210126,7.095781,18.737719,0.575835,-13.301426,-51.248753,-4.886838,-11.941733,0.894024,-0.433731,0.006714,-0.112044
700,0.765941,-7.130675,7.257046,26.833601,1.707323,-10.415638,-50.410049,-5.161985,-12.226701,0.896689,-0.427346,0.004794,-0.115327
701,0.927832,-7.035267,7.395687,37.390980,1.858897,-7.867499,-49.260933,-5.354182,-12.474882,0.900532,-0.418458,0.003026,-0.118006
702,1.008460,-6.870206,7.514616,45.352787,1.006191,-6.772348,-47.806477,-5.506637,-12.678617,0.905443,-0.407100,0.001041,-0.120174
703,1.081973,-6.569620,7.577066,49.235809,-0.078626,-8.060905,-46.155724,-5.680686,-12.864985,0.910882,-0.394143,-0.001440,-0.122242
704,1.101371,-6.186463,7.662563,50.698868,-1.302412,-8.180753,-44.414261,-5.894959,-13.045650,0.916406,-0.380421,-0.004420,-0.124342
705,1.135961,-5.878589,7.894320,51.870831,-2.568923,-6.413085,-42.629116,-6.115066,-13.184632,0.921896,-0.366275,-0.007691,-0.126059
706,1.160722,-5.627023,8.071682,51.646774,-3.299806,-4.453160,-40.832340,-6.313924,-13.262030,0.927283,-0.351937,-0.011046,-0.127139
707,1.222230,-5.332033,8.098380,51.788822,-3.052650,-2.069085,-39.043957,-6.470995,-13.284605,0.932513,-0.337549,-0.014247,-0.127581
708,1.218384,-5.040524,8.172824,52.441891,-1.209449,0.491956,-37.248230,-6.549865,-13.268554,0.937644,-0.322956,-0.016938,-0.127425
709,1.163387,-5.078278,8.200474,53.654175,1.766095,2.458098,-35.430874,-6.517805,-13.240860,0.942703,-0.308015,-0.018766,-0.126829
710,0.944693,-4.971273,8.138535,52.977509,4.343818,3.400874,-33.617176,-6.376419,-13.222979,0.947587,-0.292937,-0.019643,-0.126023
711,0.984121,-4.809922,7.951373,49.130257,6.105307,4.508728,-31.890717,-6.153789,-13.209487,0.952070,-0.278440,-0.019716,-0.125083
712,0.800259,-4.710204,7.917558,42.384094,7.631855,5.020113,-30.352707,-5.869399,-13.193605,0.955938,-0.265393,-0.019050,-0.124044
713,0.655692,-4.725374,7.924129,35.526867,9.314510,6.285720,-29.053917,-5.518308,-13.170158,0.959144,-0.254236,-0.017559,-0.122878
714,0.462692,-4.553967,8.084713,27.878605,10.103490,7.434162,-28.004923,-5.106171,-13.123363,0.961741,-0.245079,-0.015316,-0.121475
716,0.404148,-4.509100,8.222003,21.675272,10.114566,9.599016,-27.191751,-4.653919,-13.027116,0.963825,-0.237839,-0.012565,-0.119651
717,0.176015,-4.419948,8.568439,19.088484,10.173319,10.608881,-26.527327,-4.173968,-12.878647,0.965605,-0.231809,-0.009508,-0.117389
718,0.155998,-4.180872,8.797195,20.891022,9.483110,12.471774,-25.870613,-3.681567,-12.677751,0.967371,-0.225824,-0.006413,-0.114698
719,0.133957,-3.935716,9.018791,22.996687,7.648237,14.433637,-25.142040,-3.205108,-12.396053,0.969285,-0.219240,-0.003647,-0.111387
720,0.177352,-3.654347,9.196543,26.067720,5.462027,15.996968,-24.319723,-2.773275,-12.027316,0.971365,-0.211898,-0.001465,-0.107454
721,0.298960,-3.368691,9.340518,28.735294,3.226306,15.795952,-23.392691,-2.413116,-11.602155,0.973574,-0.203726,-0.000028,-0.103201
722,0.316510,-3.119168,9.393275,30.399452,0.935052,14.955277,-22.385431,-2.143208,-11.158079,0.975809,-0.194940,0.000608,-0.098966
723,0.381172,-2.977923,9.495100,30.577564,-0.801191,13.481166,-21.343487,-1.962543,-10.720200,0.977967,-0.185917,0.000540,-0.094943
724,0.360870,-2.828194,9.509686,31.611616,-2.069252,11.164649,-20.279985,-1.862143,-10.320354,0.980004,-0.176756,-0.000099,-0.091373
725,0.259725,-2.676570,9.483156,32.505096,-2.922112,8.973330,-19.183912,-1.826365,-9.977339,0.981929,-0.167345,-0.001167,-0.088378
726,0.174290,-2.509279,9.423254,32.038769,-2.904838,7.508490,-18.081022,-1.826004,-9.686892,0.983715,-0.157880,-0.002415,-0.085869
727,0.110637,-2.394551,9.444366,30.380421,-2.528649,6.571730,-17.014999,-1.833474,-9.436654,0.985324,-0.148720,-0.003602,-0.083701
728,0.015366,-2.313379,9.463054,28.765907,-2.155137,5.773944,-16.006649,-1.837742,-9.217867,0.986752,-0.140039,-0.004643,-0.081787
729,-0.010604,-2.174031,9.456352,25.649551,-2.162815,5.359242,-15.079764,-1.842223,-9.020349,0.987990,-0.132046,-0.005570,-0.080049
730,0.070980,-2.110325,9.506849,21.379301,-2.115685,4.851409,-14.278475,-1.854218,-8.838095,0.989013,-0.125132,-0.006433,-0.078448
731,0.123670,-2.072654,9.558208,18.544523,-1.951368,3.524064,-13.598858,-1.875714,-8.686668,0.989836,-0.119269,-0.007241,-0.077122
732,0.177951,-2.013936,9.534835,16.008457,-1.385971,1.667161,-13.010717,-1.901805,-8.590013,0.990494,-0.114197,-0.007959,-0.076274
733,0.188751,-1.909527,9.625285,11.609128,-1.019078,-0.453766,-12.536971,-1.929704,-8.561821,0.990970,-0.110117,-0.008542,-0.076023
734,0.271335,-1.820333,9.723941,7.577657,-0.830909,-3.563544,-12.199683,-1.969406,-8.621116,0.991242,-0.107229,-0.009054,-0.076547
735,0.286817,-1.746187,9.716336,2.954219,-0.537650,-6.789346,-12.002006,-2.025213,-8.785668,0.991302,-0.105569,-0.009518,-0.078005
736,0.347003,-1.734070,9.686432,-3.912362,0.002665,-9.909891,-11.992171,-2.090600,-9.056762,0.991109,-0.105550,-0.009840,-0.080408
737,0.312187,-1.705740,9.857931,-10.905529,-0.053656,-12.557403,-12.208756,-2.168787,-9.423541,0.990627,-0.107507,-0.010021,-0.083669
738,0.345286,-1.736274,9.793773,-14.781104,-0.573787,-14.231368,-12.601994,-2.273055,-9.858316,0.989901,-0.111018,-0.010214,-0.087557
739,0.375223,-1.787421,9.719483,-18.055460,-1.078741,-13.964375,-13.112708,-2.403405,-10.311398,0.989008,-0.115566,-0.010492,-0.091640
740,0.512976,-1.853180,9.809982,-18.100855,-1.312370,-12.601842,-13.677910,-2.546717,-10.734026,0.988040,-0.120592,-0.010832,-0.095481
741,0.460743,-1.912038,9.824234,-14.709661,-0.941805,-10.456539,-14.186957,-2.678408,-11.099227,0.987146,-0.125119,-0.011145,-0.098814
742,0.525121,-1.858700,9.633679,-10.835925,-0.896195,-7.529973,-14.574526,-2.784529,-11.383427,0.986435,-0.128572,-0.011406,-0.101412
743,0.524860,-2.033403,9.699997,-7.644248,-0.823180,-4.287562,-14.848486,-2.864935,-11.568053,0.985934,-0.131015,-0.011645,-0.103117
744,0.465289,-1.963678,9.748882,2.273789,-0.455427,-0.700242,-14.908412,-2.907190,-11.644288,0.985783,-0.131574,-0.011867,-0.103825
745,0.405142,-1.880230,9.628661,16.785330,-0.058358,5.024958,-14.563912,-2.894106,-11.573859,0.986242,-0.128592,-0.012146,-0.103169
746,0.448513,-1.779465,9.708141,31.045387,-0.805689,11.117902,-13.746525,-2.838778,-11.310826,0.987386,-0.121478,-0.012683,-0.100757
747,0.440225,-1.805039,9.786257,42.631786,-0.843562,15.091321,-12.508698,-2.763782,-10.880212,0.989034,-0.110693,-0.013539,-0.096829
748,0.400244,-1.486340,9.751770,50.680962,0.029598,16.453901,-10.948565,-2.667113,-10.363604,0.990902,-0.097076,-0.014458,-0.092091
749,0.366664,-1.491477,9.758041,48.415974,1.058494,15.561197,-9.295691,-2.551601,-9.842299,0.992636,-0.082616,-0.015161,-0.087279
750,0.258674,-1.326507,9.795704,37.792553,1.187337,10.870544,-7.861917,-2.442285,-9.412706,0.993938,-0.070052,-0.015566,-0.083293
751,0.216078,-1.150790,9.809585,25.491688,1.234046,6.356946,-6.807562,-2.356427,-9.133235,0.994759,-0.060805,-0.015735,-0.080678
752,0.195326,-0.953924,9.825860,15.697783,1.102291,3.463877,-6.117387,-2.289364,-8.975178,0.995232,-0.054746,-0.015713,-0.079179
753,0.208590,-0.886841,9.829680,8.633677,0.737026,1.712185,-5.705863,-2.240432,-8.892769,0.995489,-0.051127,-0.015609,-0.078385
754,0.232552,-0.752528,9.849082,5.312694,0.116795,1.104915,-5.465607,-2.213501,-8.847728,0.995630,-0.049016,-0.015559,-0.077950
755,0.260421,-0.717004,9.843360,3.943509,-0.180096,1.835855,-5.302238,-2.203314,-8.799191,0.995734,-0.047583,-0.015602,-0.077502
756,0.251166,-0.776693,9.888038,2.923543,-0.072675,1.501701,-5.181136,-2.196355,-8.743695,0.995822,-0.046518,-0.015646,-0.077001
757,0.224768,-0.768166,9.881272,3.742083,0.127908,1.126361,-5.065259,-2.184652,-8.700355,0.995900,-0.045498,-0.015639,-0.076604
