seq,ax,ay,az,wroll,wpitch,wyaw,roll,pitch,yaw,q0,q1,q2,q3
34,9.835690,-0.049873,-0.004511,0.028305,0.119026,-0.071432,-95.171928,-89.709259,95.171928,-0.706942,0.001792,0.707267,-0.001793
36,9.841990,-0.049008,0.009841,0.214812,0.141500,-0.064520,-94.006676,-89.711288,94.010750,-0.706980,0.001753,0.707229,-0.001803
37,9.840743,-0.056811,0.012608,0.243804,0.196470,-0.052305,-92.158966,-89.713326,92.171242,-0.707038,0.001698,0.707171,-0.001843
38,9.842628,-0.057220,0.015415,0.237700,0.240763,-0.037027,-89.890366,-89.713326,89.910797,-0.707108,0.001651,0.707101,-0.001895
39,9.840512,-0.051096,0.014760,0.220915,0.243853,-0.020230,-87.503662,-89.713326,87.531555,-0.707182,0.001605,0.707028,-0.001944
40,9.839227,-0.050444,0.011723,0.234649,0.227098,-0.006493,-85.354210,-89.713326,85.389603,-0.707248,0.001558,0.706961,-0.001990
41,9.837783,-0.054227,0.007366,0.181241,0.190492,-0.012590,-83.672142,-89.711967,83.714279,-0.707301,0.001518,0.706908,-0.002035
43,9.837156,-0.054341,0.009404,0.170559,0.147789,-0.000353,-82.181969,-89.707245,82.229767,-0.707350,0.001499,0.706859,-0.002088
44,9.842755,-0.047400,0.004911,0.169034,0.108124,-0.009496,-81.198463,-89.705917,81.251472,-0.707382,0.001470,0.706827,-0.002129
45,9.848220,-0.057386,0.009973,0.170559,0.097444,-0.017103,-80.571053,-89.703926,80.630386,-0.707404,0.001447,0.706805,-0.002175
46,9.845667,-0.054065,0.009196,0.178189,0.083725,-0.015524,-79.874084,-89.698685,79.938400,-0.707432,0.001440,0.706777,-0.002240
47,9.843518,-0.055265,0.009762,0.187345,0.085258,-0.013961,-79.327438,-89.692894,79.398201,-0.707453,0.001422,0.706755,-0.002298
48,9.845956,-0.049285,0.009432,0.158352,0.086786,-0.024635,-78.775032,-89.692894,78.851608,-0.707472,0.001387,0.706736,-0.002334
50,9.838048,-0.056139,0.016052,0.136991,0.092915,-0.020048,-77.748344,-89.690987,77.830055,-0.707507,0.001358,0.706701,-0.002365
51,9.832522,-0.051152,0.011843,0.100367,0.102102,-0.026134,-76.643539,-89.688469,76.729477,-0.707546,0.001340,0.706662,-0.002396
52,9.830812,-0.050128,0.013136,0.056116,0.111264,-0.035301,-75.785950,-89.691620,75.873856,-0.707572,0.001311,0.706636,-0.002399
53,9.831141,-0.050568,0.015794,-0.024759,0.114333,-0.044471,-74.675461,-89.690987,74.764145,-0.707606,0.001291,0.706602,-0.002385
54,9.829686,-0.048277,0.014557,-0.096478,0.105194,-0.058222,-73.555557,-89.693535,73.642006,-0.707639,0.001281,0.706569,-0.002351
55,9.836985,-0.044896,0.012151,-0.113263,0.099079,-0.073522,-72.793930,-89.698685,72.876839,-0.707653,0.001264,0.706555,-0.002290
57,9.838060,-0.043719,0.011204,-0.087321,0.068528,-0.070525,-72.442245,-89.706581,72.522530,-0.707650,0.001236,0.706559,-0.002221
58,9.837931,-0.044641,0.012771,-0.015604,0.062392,-0.056837,-72.238365,-89.713326,72.316345,-0.707644,0.001206,0.706565,-0.002170
59,9.841136,-0.042716,0.013066,0.072900,0.063897,-0.041615,-71.912178,-89.718147,71.991005,-0.707644,0.001167,0.706565,-0.002142
60,9.842614,-0.055134,0.014205,0.124782,0.069987,-0.024807,-71.819778,-89.716759,71.901878,-0.707649,0.001154,0.706560,-0.002170
61,9.838609,-0.056747,0.010882,0.111049,0.059280,-0.030816,-72.405556,-89.709930,72.491470,-0.707647,0.001183,0.706562,-0.002247
62,9.833945,-0.059036,0.012369,0.066797,0.065350,-0.039865,-73.191391,-89.701294,73.280579,-0.707638,0.001223,0.706570,-0.002324
64,9.835555,-0.056891,0.015045,0.043907,0.083648,-0.045877,-73.390533,-89.692261,73.481377,-0.707646,0.001260,0.706562,-0.002383
65,9.830573,-0.053831,0.016755,0.025597,0.065346,-0.044298,-72.994751,-89.687843,73.086449,-0.707666,0.001276,0.706542,-0.002413
66,9.827072,-0.049146,0.013789,0.016440,0.045508,-0.053448,-72.630020,-89.688469,72.722694,-0.707677,0.001265,0.706531,-0.002410
67,9.827809,-0.044227,0.016081,0.005760,0.048550,-0.055018,-72.160316,-89.693535,72.253578,-0.707682,0.001224,0.706527,-0.002375
68,9.835593,-0.044654,0.017067,0.017967,0.051607,-0.053551,-71.308365,-89.700638,71.402092,-0.707695,0.001174,0.706513,-0.002329
69,9.842133,-0.045836,0.013573,-0.000344,0.039391,-0.065799,-70.827148,-89.706581,70.921463,-0.707699,0.001135,0.706510,-0.002294
71,9.843313,-0.043031,0.012021,0.013389,0.051562,-0.071939,-70.833382,-89.712646,70.927650,-0.707686,0.001097,0.706523,-0.002258
72,9.843608,-0.039757,0.013345,0.040855,0.059155,-0.071996,-70.635506,-89.722343,70.730446,-0.707675,0.001042,0.706534,-0.002214
73,9.837390,-0.048725,0.012770,0.072899,0.063704,-0.055228,-70.543121,-89.726601,70.640182,-0.707670,0.001007,0.706539,-0.002202
74,9.832171,-0.048791,0.017376,0.059167,0.069800,-0.062820,-70.371193,-89.723045,70.469917,-0.707679,0.001004,0.706530,-0.002226
75,9.827915,-0.052830,0.017187,0.053062,0.056080,-0.047502,-69.986107,-89.718147,70.086975,-0.707700,0.001017,0.706509,-0.002263
76,9.831174,-0.053242,0.016042,0.021019,0.040824,-0.052004,-70.031204,-89.712646,70.133446,-0.707712,0.001046,0.706497,-0.002307
78,9.831901,-0.046584,0.017366,0.001182,0.039297,-0.036708,-69.945686,-89.710609,70.047874,-0.707720,0.001058,0.706489,-0.002323
79,9.841153,-0.040814,0.018485,-0.011026,0.034728,-0.038264,-69.264832,-89.712646,69.367149,-0.707733,0.001032,0.706476,-0.002295
80,9.844104,-0.043800,0.016255,0.016440,0.030150,-0.033729,-68.667900,-89.716759,68.770767,-0.707739,0.000998,0.706469,-0.002262
81,9.843759,-0.045663,0.017097,0.036278,0.037771,-0.039844,-68.456047,-89.718147,68.559174,-0.707741,0.000979,0.706468,-0.002254
82,9.844502,-0.049129,0.018805,0.066795,0.048455,-0.038296,-68.207886,-89.716759,68.312889,-0.707751,0.000973,0.706458,-0.002269
83,9.846035,-0.054117,0.017157,0.101891,0.043878,-0.048914,-68.269234,-89.711967,68.376740,-0.707761,0.000986,0.706448,-0.002317
85,9.840643,-0.060752,0.015145,0.115625,0.046910,-0.044221,-69.060204,-89.703262,69.171570,-0.707758,0.001026,0.706450,-0.002401
86,9.839572,-0.058812,0.012591,0.123255,0.051445,-0.034939,-70.269989,-89.694176,70.385750,-0.707741,0.001071,0.706467,-0.002495
87,9.839047,-0.055216,0.012212,0.112573,0.054442,-0.027229,-71.342232,-89.689095,71.461258,-0.707718,0.001090,0.706489,-0.002563
88,9.835090,-0.061013,0.009622,0.088158,0.055904,-0.024100,-72.507034,-89.683479,72.629196,-0.707690,0.001112,0.706517,-0.002625
89,9.833371,-0.058945,0.010430,0.054586,0.071098,-0.033172,-73.646729,-89.677963,73.771622,-0.707663,0.001143,0.706544,-0.002685
90,9.834101,-0.051826,0.011030,0.040853,0.060366,-0.042301,-74.213715,-89.676750,74.339928,-0.707645,0.001143,0.706562,-0.002704
92,9.832432,-0.047410,0.014485,0.010334,0.064918,-0.042337,-74.044312,-89.682251,74.171913,-0.707642,0.001106,0.706565,-0.002678
93,9.830454,-0.048864,0.011680,0.004231,0.069477,-0.056117,-73.669312,-89.689095,73.797035,-0.707644,0.001065,0.706563,-0.002640
94,9.832202,-0.048459,0.014844,-0.004924,0.072510,-0.062254,-73.284065,-89.694176,73.411446,-0.707648,0.001033,0.706559,-0.002607
95,9.830174,-0.049774,0.015413,0.017964,0.057251,-0.059221,-72.684471,-89.695457,72.812195,-0.707662,0.001008,0.706546,-0.002585
96,9.828572,-0.055621,0.015879,0.022542,0.057254,-0.059197,-72.318268,-89.694176,72.446510,-0.707675,0.001006,0.706533,-0.002591
97,9.831274,-0.056759,0.012436,0.030172,0.048083,-0.066767,-72.503815,-89.691620,72.633583,-0.707676,0.001025,0.706531,-0.002621
99,9.835361,-0.051542,0.014909,0.050009,0.049586,-0.060626,-72.693924,-89.690353,72.824989,-0.707673,0.001027,0.706535,-0.002639
100,9.833671,-0.047985,0.012219,0.068320,0.052615,-0.056058,-72.632683,-89.692894,72.765739,-0.707669,0.000996,0.706539,-0.002633
101,9.838302,-0.046720,0.014108,0.056112,0.057167,-0.049987,-72.484138,-89.698685,72.618866,-0.707664,0.000952,0.706543,-0.002614
102,9.836662,-0.040584,0.013703,0.051534,0.061728,-0.039368,-71.992943,-89.704590,72.129280,-0.707666,0.000894,0.706542,-0.002578
103,9.837998,-0.041955,0.013851,0.057638,0.060183,-0.039442,-71.415398,-89.713326,71.553932,-0.707667,0.000829,0.706541,-0.002535
104,9.835238,-0.042698,0.014887,0.048483,0.055592,-0.028810,-70.892036,-89.718147,71.032318,-0.707671,0.000780,0.706537,-0.002508
106,9.839053,-0.041114,0.014712,0.045431,0.035746,-0.021224,-70.437813,-89.722343,70.579338,-0.707675,0.000739,0.706533,-0.002486
107,9.837477,-0.049054,0.015424,0.039327,0.034212,-0.012070,-70.312355,-89.723045,70.455070,-0.707677,0.000725,0.706531,-0.002490
108,9.839540,-0.050184,0.014740,0.039327,0.040307,-0.010497,-70.535179,-89.719536,70.679260,-0.707680,0.000744,0.706529,-0.002525
109,9.836597,-0.049743,0.019025,0.033223,0.044893,-0.004346,-70.409660,-89.714691,70.554970,-0.707693,0.000764,0.706515,-0.002560
110,9.836879,-0.050568,0.016862,0.027119,0.049487,-0.002778,-70.082451,-89.709930,70.228493,-0.707713,0.000783,0.706495,-0.002591
111,9.835819,-0.053140,0.018054,0.025594,0.064754,-0.013408,-69.925461,-89.704590,70.073082,-0.707729,0.000808,0.706479,-0.002627
113,9.834914,-0.044572,0.014162,0.034749,0.061691,-0.024075,-69.796959,-89.703926,69.945534,-0.707735,0.000807,0.706472,-0.002638
114,9.834531,-0.045260,0.016567,0.048482,0.063196,-0.028680,-69.551445,-89.707916,69.701317,-0.707735,0.000776,0.706473,-0.002624
115,9.841959,-0.044194,0.015735,0.045430,0.064707,-0.042442,-69.146461,-89.709930,69.297813,-0.707740,0.000742,0.706468,-0.002609
116,9.842731,-0.040448,0.016705,0.040853,0.057063,-0.054694,-68.594963,-89.715378,68.747612,-0.707743,0.000695,0.706465,-0.002580
117,9.840010,-0.039300,0.021595,0.037801,0.060128,-0.050177,-67.388145,-89.721634,67.542320,-0.707764,0.000639,0.706445,-0.002540
118,9.841405,-0.046825,0.023685,0.025594,0.063224,-0.060876,-65.878006,-89.721634,66.033546,-0.707803,0.000610,0.706405,-0.002524
120,9.841884,-0.045082,0.022003,0.016438,0.058683,-0.068485,-64.782913,-89.720238,64.938660,-0.707839,0.000605,0.706369,-0.002528
121,9.836759,-0.051032,0.017343,0.030172,0.054102,-0.054709,-64.696945,-89.717453,64.853554,-0.707848,0.000614,0.706359,-0.002547
122,9.839444,-0.054473,0.017399,0.045431,0.057122,-0.057673,-65.515167,-89.711288,65.672928,-0.707840,0.000649,0.706368,-0.002597
123,9.848066,-0.051533,0.015019,0.046956,0.043346,-0.059117,-66.490433,-89.707245,66.650246,-0.707824,0.000678,0.706384,-0.002644
124,9.845006,-0.049016,0.017006,0.042378,0.044830,-0.042288,-67.188560,-89.705917,67.349068,-0.707807,0.000686,0.706401,-0.002670
125,9.844020,-0.046709,0.016622,0.036274,0.046326,-0.034644,-67.452568,-89.705917,67.615074,-0.707798,0.000678,0.706410,-0.002679
127,9.843304,-0.050307,0.019991,0.022541,0.050891,-0.037679,-67.412331,-89.705246,67.575310,-0.707801,0.000676,0.706407,-0.002688
128,9.842880,-0.055081,0.020838,0.019489,0.040220,-0.040673,-67.302162,-89.699989,67.466011,-0.707816,0.000699,0.706392,-0.002720
129,9.835787,-0.053933,0.021188,0.033222,0.050915,-0.045180,-67.226974,-89.692894,67.391678,-0.707833,0.000729,0.706374,-0.002761
130,9.837955,-0.053782,0.020263,0.051533,0.057024,-0.049701,-67.111855,-89.688469,67.277672,-0.707848,0.000745,0.706359,-0.002794
131,9.839647,-0.062255,0.019228,0.060689,0.060068,-0.057242,-67.417023,-89.682251,67.584808,-0.707855,0.000778,0.706352,-0.002850
132,9.839952,-0.054940,0.015843,0.066791,0.063087,-0.051053,-68.065338,-89.676147,68.235245,-0.707847,0.000806,0.706359,-0.002904
134,9.841200,-0.050721,0.016580,0.069843,0.073723,-0.049509,-68.437553,-89.676147,68.609985,-0.707833,0.000792,0.706373,-0.002918
135,9.841642,-0.054915,0.014910,0.074420,0.073676,-0.049498,-68.774673,-89.677963,68.949356,-0.707819,0.000775,0.706387,-0.002930
136,9.842993,-0.055367,0.013128,0.080524,0.065987,-0.044886,-69.502815,-89.677963,69.679703,-0.707797,0.000771,0.706410,-0.002957
137,9.843174,-0.053139,0.015054,0.075946,0.059829,-0.038757,-70.125641,-89.678574,70.305695,-0.707776,0.000761,0.706430,-0.002980
138,9.837798,-0.053365,0.013993,0.092730,0.062836,-0.044847,-70.517738,-89.679184,70.699890,-0.707761,0.000743,0.706445,-0.002996
139,9.837438,-0.059441,0.011590,0.085100,0.061254,-0.041754,-71.278412,-89.677361,71.463951,-0.707739,0.000742,0.706467,-0.003032
141,9.835499,-0.050392,0.012498,0.045426,0.058143,-0.044779,-71.995285,-89.678574,72.183289,-0.707715,0.000736,0.706491,-0.003052
142,9.834016,-0.050282,0.015605,0.019485,0.062688,-0.053956,-72.002472,-89.682861,72.190964,-0.707708,0.000706,0.706499,-0.003035
143,9.837767,-0.046470,0.017834,0.045426,0.070315,-0.050943,-71.348572,-89.686592,71.537994,-0.707720,0.000665,0.706487,-0.003007
144,9.841117,-0.047444,0.019222,0.017960,0.068803,-0.049461,-70.329842,-89.691620,70.520538,-0.707743,0.000621,0.706464,-0.002976
145,9.838008,-0.040743,0.020477,0.011856,0.074929,-0.043421,-69.012283,-89.697388,69.203407,-0.707771,0.000569,0.706435,-0.002931
146,9.841090,-0.057430,0.022618,0.045425,0.084116,-0.040371,-67.875412,-89.696739,68.067642,-0.707807,0.000553,0.706399,-0.002927
147,9.842202,-0.055231,0.018054,0.050004,0.085654,-0.047926,-67.620697,-89.689095,67.814911,-0.707832,0.000581,0.706375,-0.002974
148,9.837717,-0.050667,0.016998,0.028641,0.082577,-0.047887,-67.715729,-89.686592,67.910530,-0.707834,0.000588,0.706372,-0.002996
149,9.839369,-0.050392,0.018595,0.046952,0.071870,-0.049403,-67.651344,-89.687210,67.847916,-0.707834,0.000575,0.706372,-0.002999
150,9.839816,-0.061583,0.015132,0.050003,0.067258,-0.060025,-68.130280,-89.683479,68.328087,-0.707827,0.000591,0.706379,-0.003035
151,9.839411,-0.049488,0.014737,0.039322,0.059576,-0.053868,-68.880905,-89.682861,69.080368,-0.707808,0.000603,0.706398,-0.003065
152,9.837472,-0.048127,0.014819,0.039321,0.048844,-0.040153,-69.205833,-89.686592,69.406914,-0.707788,0.000574,0.706418,-0.003052
153,9.838134,-0.052075,0.014358,0.031691,0.044220,-0.040159,-69.618607,-89.689728,69.820999,-0.707769,0.000555,0.706438,-0.003047
154,9.835684,-0.055045,0.012512,0.027112,0.054848,-0.035549,-70.369057,-89.689728,70.571548,-0.707746,0.000561,0.706460,-0.003065
155,9.837735,-0.043335,0.016862,0.030166,0.059391,-0.038611,-70.505974,-89.691620,70.709969,-0.707736,0.000541,0.706470,-0.003057
156,9.836094,-0.043038,0.013939,0.022535,0.068523,-0.052412,-70.017654,-89.699333,70.222183,-0.707735,0.000484,0.706471,-0.003011
157,9.835328,-0.049677,0.015386,0.033216,0.068494,-0.060071,-69.823280,-89.704590,70.028503,-0.707731,0.000450,0.706475,-0.002987
158,9.836916,-0.048968,0.012641,0.051527,0.077614,-0.061586,-69.952393,-89.705246,70.159630,-0.707725,0.000435,0.706482,-0.002990
160,9.836339,-0.046734,0.017326,0.050003,0.074538,-0.067688,-69.795250,-89.708588,70.004013,-0.707726,0.000413,0.706481,-0.002988
161,9.830209,-0.045916,0.017695,0.056106,0.069961,-0.055491,-69.113716,-89.709930,69.324173,-0.707741,0.000382,0.706465,-0.002980
162,9.827879,-0.045934,0.021389,0.078994,0.056247,-0.037190,-68.196281,-89.711288,68.409393,-0.707766,0.000353,0.706441,-0.002978
163,9.828002,-0.043621,0.018855,0.092729,0.068473,-0.023474,-67.265289,-89.711967,67.481247,-0.707791,0.000319,0.706416,-0.002979
164,9.827318,-0.049083,0.021868,0.101883,0.062385,-0.021944,-66.564049,-89.710609,66.782661,-0.707813,0.000296,0.706393,-0.002996
165,9.827738,-0.051186,0.019711,0.118669,0.056293,-0.015798,-66.265900,-89.705917,66.488106,-0.707833,0.000296,0.706373,-0.003041
166,9.830818,-0.056833,0.019418,0.118669,0.048658,-0.017246,-66.597763,-89.699333,66.824654,-0.707840,0.000316,0.706366,-0.003110
167,9.832175,-0.064631,0.015964,0.095779,0.054735,-0.026269,-67.679581,-89.687843,67.909500,-0.707834,0.000372,0.706372,-0.003210
168,9.834098,-0.067024,0.018053,0.089674,0.048598,-0.024576,-68.998711,-89.673744,69.231499,-0.707823,0.000450,0.706382,-0.003326
169,9.836568,-0.059674,0.013984,0.072889,0.037874,-0.022932,-70.099014,-89.663696,70.334755,-0.707806,0.000502,0.706398,-0.003411
170,9.834340,-0.067484,0.018300,0.056104,0.036311,-0.024358,-70.989128,-89.655083,71.226753,-0.707791,0.000545,0.706413,-0.003480
171,9.836380,-0.065597,0.016284,0.048475,0.033238,-0.025774,-71.674431,-89.646675,71.914116,-0.707784,0.000597,0.706419,-0.003554
172,9.839893,-0.066298,0.022857,0.062208,0.039346,-0.027211,-71.833862,-89.639008,72.074883,-0.707794,0.000635,0.706410,-0.003614
173,9.841014,-0.060574,0.022744,0.050000,0.034802,-0.033267,-71.326904,-89.634163,71.570244,-0.707823,0.000647,0.706381,-0.003650
174,9.838341,-0.059913,0.024622,0.048475,0.042470,-0.039363,-70.558304,-89.632561,70.803070,-0.707854,0.000635,0.706349,-0.003657
175,9.842241,-0.051837,0.020457,0.048475,0.048593,-0.033296,-69.799530,-89.635231,70.046097,-0.707875,0.000594,0.706328,-0.003637
176,9.839479,-0.052580,0.021493,0.021008,0.059270,-0.030313,-69.146790,-89.642273,69.394493,-0.707884,0.000538,0.706320,-0.003595
177,9.838037,-0.051973,0.012668,0.019481,0.050069,-0.028844,-69.174103,-89.650017,69.422661,-0.707867,0.000493,0.706336,-0.003558
178,9.832575,-0.057072,0.014027,0.011851,0.045411,-0.036496,-69.976891,-89.654518,70.226196,-0.707828,0.000469,0.706376,-0.003540
179,9.835760,-0.061900,0.013975,-0.003409,0.051447,-0.037989,-70.884583,-89.655083,71.133522,-0.707796,0.000481,0.706407,-0.003554
180,9.836513,-0.057682,0.015907,-0.000357,0.054451,-0.041003,-71.487915,-89.652824,71.736786,-0.707778,0.000497,0.706426,-0.003568
181,9.838573,-0.055283,0.020398,0.037791,0.049864,-0.034897,-71.313889,-89.653954,71.563568,-0.707782,0.000487,0.706422,-0.003566
182,9.840678,-0.049030,0.026449,0.037791,0.051432,-0.024258,-70.091217,-89.656792,70.341873,-0.707819,0.000447,0.706385,-0.003542
183,9.845184,-0.043374,0.024228,0.042370,0.056066,-0.025878,-68.312454,-89.663696,68.564453,-0.707865,0.000375,0.706339,-0.003487
184,9.846250,-0.046351,0.028231,0.056104,0.048490,-0.029025,-66.502266,-89.670753,66.755798,-0.707909,0.000301,0.706295,-0.003433
185,9.843746,-0.048370,0.029275,0.068311,0.043978,-0.029078,-64.758896,-89.673141,65.015038,-0.707959,0.000250,0.706245,-0.003407
186,9.844451,-0.048641,0.022057,0.057630,0.039423,-0.041313,-63.867477,-89.674942,64.125214,-0.707982,0.000212,0.706222,-0.003396
187,9.841920,-0.052210,0.018042,0.050001,0.036330,-0.056573,-64.186607,-89.677963,64.446465,-0.707965,0.000191,0.706240,-0.003396
188,9.840929,-0.052674,0.020797,0.065259,0.040860,-0.051972,-64.790352,-89.679184,65.051811,-0.707943,0.000182,0.706261,-0.003411
189,9.835907,-0.049424,0.016601,0.068311,0.048440,-0.045857,-65.312553,-89.681023,65.576454,-0.707922,0.000165,0.706283,-0.003422
190,9.836851,-0.052811,0.012528,0.043895,0.046831,-0.059578,-66.387749,-89.684723,66.653526,-0.707880,0.000150,0.706325,-0.003429
191,9.833214,-0.058236,0.012354,0.043895,0.057416,-0.057997,-67.952187,-89.684097,68.219383,-0.707831,0.000164,0.706373,-0.003460
192,9.834163,-0.059831,0.014664,0.053050,0.061920,-0.053332,-69.297066,-89.679794,69.565956,-0.707798,0.000196,0.706406,-0.003512
193,9.833723,-0.059512,0.011522,0.046946,0.054224,-0.054773,-70.486130,-89.675545,70.756248,-0.707769,0.000227,0.706435,-0.003564
194,9.836085,-0.065982,0.012061,0.045419,0.049575,-0.043988,-71.852669,-89.668976,72.124626,-0.707736,0.000272,0.706468,-0.003626
195,9.842569,-0.065056,0.010369,0.036264,0.047981,-0.040819,-73.219597,-89.659653,73.492615,-0.707703,0.000327,0.706500,-0.003698
196,9.848252,-0.058788,0.009133,0.036263,0.049433,-0.048382,-74.379356,-89.657356,74.654030,-0.707668,0.000351,0.706535,-0.003737
197,9.845804,-0.055573,0.009443,0.027106,0.038684,-0.043798,-75.218315,-89.659653,75.493713,-0.707634,0.000339,0.706569,-0.003738
198,9.846961,-0.057033,0.013927,0.010321,0.046277,-0.037699,-75.501045,-89.661957,75.776825,-0.707621,0.000324,0.706583,-0.003730
199,9.843958,-0.047664,0.013490,0.004218,0.037111,-0.054525,-75.200768,-89.667206,75.477097,-0.707623,0.000288,0.706580,-0.003697
200,9.837652,-0.042084,0.013001,0.033211,0.053883,-0.047003,-74.603966,-89.679794,74.881233,-0.707625,0.000208,0.706579,-0.003624
201,9.835439,-0.040133,0.015006,0.036263,0.040143,-0.031872,-73.737709,-89.692894,74.015701,-0.707631,0.000113,0.706574,-0.003544
202,9.834406,-0.041331,0.012941,0.062203,0.046240,-0.042663,-72.947838,-89.705246,73.227463,-0.707635,0.000028,0.706569,-0.003479
203,9.836327,-0.045864,0.008767,0.083566,0.058408,-0.042723,-72.924171,-89.710609,73.206352,-0.707622,-0.000033,0.706583,-0.003448
204,9.836542,-0.045963,0.010579,0.091195,0.072091,-0.033589,-73.253586,-89.716072,73.538574,-0.707605,-0.000072,0.706600,-0.003445
205,9.840225,-0.039229,0.014729,0.069833,0.062920,-0.029055,-72.807137,-89.720238,73.094360,-0.707609,-0.000123,0.706596,-0.003427
206,9.843096,-0.040905,0.016833,0.060678,0.062935,-0.032169,-71.628792,-89.726601,71.918633,-0.707632,-0.000180,0.706573,-0.003396
207,9.845054,-0.036552,0.018185,0.039315,0.064490,-0.024604,-70.122353,-89.731659,70.413689,-0.707663,-0.000236,0.706542,-0.003361
208,9.841681,-0.035914,0.018604,0.049997,0.044683,-0.027731,-68.498672,-89.737556,68.791351,-0.707693,-0.000298,0.706512,-0.003318
209,9.845945,-0.041416,0.019297,0.069834,0.032503,-0.032349,-67.270790,-89.740555,67.565430,-0.707718,-0.000341,0.706487,-0.003300
210,9.843169,-0.046951,0.017692,0.092724,0.015733,-0.052161,-66.886688,-89.739052,67.184715,-0.707732,-0.000350,0.706473,-0.003324
211,9.837473,-0.044715,0.019873,0.094248,0.017272,-0.053642,-66.743027,-89.735329,67.044167,-0.707744,-0.000353,0.706461,-0.003359
212,9.838347,-0.047952,0.020619,0.075938,0.015770,-0.059700,-66.399467,-89.732391,66.702904,-0.707762,-0.000353,0.706443,-0.003394
213,9.839776,-0.048036,0.021369,0.057626,0.024953,-0.061168,-66.065681,-89.728760,66.371521,-0.707783,-0.000344,0.706422,-0.003431
214,9.833896,-0.045138,0.018966,0.019478,0.034122,-0.071810,-65.758331,-89.725174,66.065277,-0.707797,-0.000341,0.706407,-0.003449
215,9.839296,-0.054924,0.019808,0.007272,0.049383,-0.068690,-65.844635,-89.720932,66.152306,-0.707806,-0.000316,0.706398,-0.003479
216,9.840817,-0.057595,0.016588,0.002692,0.050895,-0.068567,-66.596306,-89.710609,66.904152,-0.707808,-0.000256,0.706396,-0.003542
217,9.841104,-0.060503,0.016238,0.027106,0.046285,-0.063852,-67.759903,-89.701950,68.068283,-0.707798,-0.000187,0.706406,-0.003617
218,9.842986,-0.057560,0.015783,0.028632,0.040146,-0.066783,-68.804733,-89.691620,69.113564,-0.707785,-0.000132,0.706419,-0.003683
219,9.844902,-0.059719,0.018113,0.045416,0.040123,-0.052952,-69.480331,-89.684723,69.790871,-0.707778,-0.000091,0.706425,-0.003738
220,9.836644,-0.047917,0.013839,0.051520,0.043145,-0.039182,-69.886002,-89.683479,70.198250,-0.707768,-0.000088,0.706435,-0.003761
221,9.838882,-0.045890,0.014599,0.054574,0.041575,-0.034643,-70.093521,-89.689728,70.406631,-0.707750,-0.000130,0.706453,-0.003741
222,9.840255,-0.046354,0.011250,0.027106,0.049151,-0.037739,-70.414307,-89.696739,70.729347,-0.707726,-0.000173,0.706477,-0.003714
223,9.834754,-0.048544,0.012481,0.019476,0.058248,-0.022501,-70.931091,-89.701294,71.246925,-0.707702,-0.000198,0.706502,-0.003699
224,9.833933,-0.047760,0.010415,-0.001888,0.059718,-0.028613,-71.481842,-89.703262,71.798080,-0.707680,-0.000209,0.706524,-0.003691
225,9.840057,-0.055107,0.008494,-0.052244,0.059650,-0.043843,-72.471680,-89.703926,72.786850,-0.707649,-0.000194,0.706554,-0.003695
226,9.834586,-0.059277,0.009609,-0.041563,0.068740,-0.046811,-73.661133,-89.698685,73.974266,-0.707622,-0.000141,0.706581,-0.003728
227,9.836122,-0.058890,0.010841,0.001163,0.073271,-0.037560,-74.486427,-89.691620,74.799500,-0.707608,-0.000087,0.706595,-0.003774
228,9.837708,-0.053613,0.012063,0.028629,0.068664,-0.060394,-74.767319,-89.687210,75.080879,-0.707605,-0.000066,0.706598,-0.003801
229,9.837621,-0.048601,0.013256,0.065251,0.062547,-0.060398,-74.520378,-89.689728,74.835251,-0.707609,-0.000091,0.706594,-0.003795
230,9.833692,-0.048512,0.019813,0.130867,0.054939,-0.045170,-73.519958,-89.692894,73.837975,-0.707635,-0.000141,0.706568,-0.003786
231,9.838306,-0.049033,0.016041,0.120184,0.048868,-0.058925,-72.415512,-89.694809,72.737839,-0.707666,-0.000191,0.706537,-0.003787
232,9.839297,-0.044116,0.017374,0.107978,0.045829,-0.074221,-71.560555,-89.700638,71.886749,-0.707683,-0.000250,0.706520,-0.003774
233,9.838318,-0.053260,0.010989,0.072881,0.051913,-0.074229,-71.400253,-89.703926,71.729515,-0.707682,-0.000289,0.706521,-0.003773
234,9.839127,-0.057566,0.008964,0.048465,0.053378,-0.069585,-72.444756,-89.701294,72.775497,-0.707655,-0.000276,0.706548,-0.003810
235,9.842115,-0.061149,0.004567,0.033206,0.059393,-0.075587,-74.138405,-89.695457,74.470955,-0.707611,-0.000236,0.706591,-0.003867
236,9.841465,-0.059633,0.006722,0.045412,0.066932,-0.052595,-75.770317,-89.689728,76.104301,-0.707568,-0.000194,0.706634,-0.003925
237,9.835114,-0.060101,0.006969,0.028628,0.065340,-0.035726,-76.864929,-89.683479,77.199661,-0.707541,-0.000158,0.706662,-0.003975
238,9.840502,-0.055197,0.011033,0.033205,0.059199,-0.021942,-77.303787,-89.679794,77.639786,-0.707531,-0.000140,0.706671,-0.004006
239,9.839218,-0.052927,0.006305,0.053042,0.066794,-0.014306,-77.543655,-89.680405,77.880905,-0.707522,-0.000148,0.706680,-0.004015
240,9.839641,-0.045665,0.011599,0.049991,0.059134,-0.014349,-77.504974,-89.685341,77.844299,-0.707517,-0.000189,0.706685,-0.003996
241,9.838119,-0.041375,0.013249,0.053042,0.049984,-0.028179,-76.646461,-89.694809,76.987602,-0.707532,-0.000262,0.706670,-0.003943
242,9.837996,-0.039180,0.011193,0.077456,0.051513,-0.031345,-75.715065,-89.706581,76.058037,-0.707545,-0.000352,0.706658,-0.003880
243,9.833946,-0.041928,0.012090,0.097293,0.054559,-0.031438,-74.983200,-89.715378,75.329063,-0.707552,-0.000434,0.706651,-0.003834
244,9.834532,-0.045723,0.016930,0.077456,0.053051,-0.045213,-73.970329,-89.720932,74.318855,-0.707575,-0.000486,0.706628,-0.003819
245,9.830240,-0.050731,0.011681,0.075931,0.059168,-0.043673,-73.347031,-89.720238,73.698509,-0.707594,-0.000502,0.706609,-0.003834
246,9.835204,-0.055978,0.013470,0.068301,0.060685,-0.040552,-73.459183,-89.713326,73.812943,-0.707600,-0.000483,0.706602,-0.003882
247,9.835458,-0.058061,0.014563,0.053042,0.051529,-0.041979,-73.569016,-89.704590,73.924515,-0.707612,-0.000442,0.706590,-0.003948
248,9.837739,-0.051371,0.016157,0.034730,0.043911,-0.041913,-73.348427,-89.698036,73.705704,-0.707629,-0.000420,0.706573,-0.003988
249,9.840224,-0.046339,0.013419,0.043887,0.053068,-0.035812,-72.930855,-89.699989,73.289429,-0.707640,-0.000438,0.706562,-0.003987
250,9.841831,-0.038469,0.019095,0.057619,0.057659,-0.031303,-71.901176,-89.707245,72.261574,-0.707659,-0.000497,0.706543,-0.003948
251,9.837949,-0.042046,0.017466,0.075931,0.056160,-0.031385,-70.438454,-89.713326,70.800972,-0.707688,-0.000568,0.706514,-0.003905
252,9.844266,-0.039251,0.017213,0.062198,0.056173,-0.032974,-69.335220,-89.720238,69.699791,-0.707707,-0.000628,0.706495,-0.003874
253,9.844329,-0.035060,0.017084,0.049991,0.062281,-0.051369,-68.145500,-89.728760,68.512451,-0.707722,-0.000699,0.706480,-0.003825
254,9.843541,-0.032960,0.019837,0.045413,0.042455,-0.052995,-66.598030,-89.739052,66.966560,-0.707741,-0.000782,0.706462,-0.003762
255,9.841661,-0.037352,0.012943,0.027101,0.036339,-0.066799,-65.773933,-89.746666,66.143425,-0.707741,-0.000845,0.706461,-0.003714
256,9.840466,-0.030151,0.013990,0.019472,0.043926,-0.056184,-65.572945,-89.755302,65.943672,-0.707723,-0.000904,0.706480,-0.003665
257,9.831265,-0.030162,0.020452,0.030154,0.046972,-0.056271,-64.277061,-89.765930,64.647934,-0.707730,-0.000974,0.706473,-0.003605
258,9.830058,-0.036482,0.018877,0.056095,0.036312,-0.038000,-62.908741,-89.769302,63.281052,-0.707752,-0.001017,0.706451,-0.003579
259,9.827908,-0.041380,0.023308,0.037783,0.042447,-0.042550,-62.112076,-89.764267,62.485584,-0.707779,-0.001018,0.706424,-0.003598
260,9.828699,-0.037180,0.022469,0.030154,0.039437,-0.030307,-61.194443,-89.759338,61.570080,-0.707813,-0.001010,0.706390,-0.003619
261,9.831223,-0.033554,0.018289,0.019472,0.027238,-0.028788,-60.585167,-89.760155,60.961052,-0.707826,-0.001025,0.706377,-0.003615
263,9.834393,-0.037280,0.009798,0.022524,0.028706,-0.033371,-61.426727,-89.764267,61.803680,-0.707795,-0.001040,0.706408,-0.003608
264,9.834512,-0.040629,0.013182,0.019472,0.045411,-0.037919,-63.115810,-89.765099,63.493229,-0.707753,-0.001033,0.706450,-0.003624
265,9.839685,-0.038345,0.009535,0.056094,0.045338,-0.034831,-64.624893,-89.765930,65.003685,-0.707717,-0.001026,0.706485,-0.003646
266,9.842976,-0.047787,0.015280,0.066775,0.054441,-0.030187,-65.966080,-89.762611,66.346893,-0.707695,-0.001004,0.706507,-0.003693
267,9.843365,-0.054613,0.020002,0.060671,0.071233,-0.045307,-66.565941,-89.749771,66.948097,-0.707712,-0.000939,0.706490,-0.003784
268,9.843724,-0.055068,0.020491,0.059145,0.078895,-0.040571,-66.667969,-89.734589,67.052956,-0.707747,-0.000862,0.706455,-0.003885
269,9.844810,-0.050660,0.015560,0.054567,0.075847,-0.029772,-66.966393,-89.723045,67.353111,-0.707765,-0.000809,0.706437,-0.003962
270,9.840034,-0.050065,0.013664,0.036256,0.075810,-0.032752,-67.665916,-89.718147,68.054008,-0.707758,-0.000780,0.706444,-0.004009
271,9.835823,-0.045861,0.010445,0.049989,0.074222,-0.040347,-68.550537,-89.718147,68.940399,-0.707734,-0.000774,0.706467,-0.004032
272,9.833934,-0.045218,0.007758,0.062196,0.066504,-0.049497,-69.689415,-89.720238,70.080872,-0.707695,-0.000792,0.706506,-0.004037
273,9.834656,-0.043934,0.006323,0.065247,0.049620,-0.051028,-71.079666,-89.725891,71.473053,-0.707646,-0.000819,0.706555,-0.004036
274,9.832913,-0.040583,0.007489,0.068299,0.040377,-0.048002,-72.265671,-89.732391,72.660973,-0.707601,-0.000859,0.706601,-0.004024
275,9.831992,-0.045127,0.009410,0.068298,0.035738,-0.041912,-73.057388,-89.736069,73.454948,-0.707571,-0.000891,0.706630,-0.004019
276,9.835913,-0.042608,0.009355,0.063721,0.032645,-0.043437,-73.599960,-89.736816,74.000275,-0.707553,-0.000912,0.706648,-0.004025
277,9.837873,-0.052015,0.007242,0.065246,0.035651,-0.028139,-74.470268,-89.736069,74.872612,-0.707532,-0.000909,0.706670,-0.004054
278,9.838123,-0.053171,0.007731,0.074402,0.046285,-0.031103,-75.613373,-89.728760,76.017876,-0.707510,-0.000875,0.706691,-0.004117
279,9.841564,-0.060198,0.008773,0.066771,0.049301,-0.046243,-76.528503,-89.720238,76.935188,-0.707498,-0.000824,0.706703,-0.004197
280,9.845775,-0.054750,0.010766,0.071348,0.055389,-0.056813,-76.927536,-89.711967,77.337250,-0.707499,-0.000780,0.706702,-0.004269
281,9.842340,-0.058071,0.011193,0.054563,0.049283,-0.056729,-76.932732,-89.705246,77.344040,-0.707507,-0.000753,0.706692,-0.004322
282,9.843393,-0.050466,0.013847,0.043882,0.040139,-0.068887,-76.576576,-89.699989,76.989120,-0.707523,-0.000745,0.706676,-0.004351
283,9.842203,-0.050724,0.013464,0.031675,0.037105,-0.052095,-75.931137,-89.699989,76.345535,-0.707543,-0.000761,0.706657,-0.004350
284,9.838777,-0.045553,0.013270,0.046933,0.038642,-0.041431,-75.330894,-89.703926,75.746117,-0.707557,-0.000789,0.706642,-0.004337
285,9.833574,-0.050310,0.012945,0.053037,0.041698,-0.039922,-74.855850,-89.706581,75.273300,-0.707568,-0.000818,0.706631,-0.004329
286,9.835214,-0.045059,0.010433,0.053037,0.047789,-0.030779,-74.694229,-89.708588,75.113297,-0.707569,-0.000844,0.706630,-0.004325
287,9.835877,-0.042476,0.011765,0.054563,0.053871,-0.017092,-74.474815,-89.712646,74.895142,-0.707567,-0.000889,0.706632,-0.004302
288,9.838394,-0.047282,0.016642,0.053037,0.058459,-0.021700,-73.727821,-89.716072,74.150055,-0.707585,-0.000922,0.706615,-0.004291
289,9.837000,-0.045828,0.012034,0.016415,0.066098,-0.035438,-73.065849,-89.716759,73.488983,-0.707603,-0.000939,0.706596,-0.004289
290,9.835962,-0.045637,0.008881,-0.004948,0.072167,-0.024766,-73.156471,-89.719536,73.580406,-0.707597,-0.000952,0.706603,-0.004278
291,9.832299,-0.045673,0.013635,0.011838,0.062985,-0.018669,-73.168930,-89.722343,73.592934,-0.707594,-0.000961,0.706606,-0.004270
292,9.825263,-0.042703,0.008077,0.011838,0.062955,-0.021740,-73.197800,-89.724464,73.622131,-0.707588,-0.000979,0.706612,-0.004257
293,9.822877,-0.039056,0.003567,0.010311,0.053721,-0.037046,-74.032562,-89.731659,74.457161,-0.707553,-0.001016,0.706647,-0.004224
294,9.828753,-0.044031,0.008505,0.027095,0.033814,-0.034027,-74.914894,-89.736816,75.340202,-0.707519,-0.001048,0.706682,-0.004199
295,9.830800,-0.045731,0.009510,0.036252,0.020049,-0.034020,-75.368645,-89.738304,75.794693,-0.707505,-0.001057,0.706696,-0.004203
296,9.836157,-0.055033,0.013003,0.034725,0.023098,-0.046164,-75.564491,-89.733124,75.991943,-0.707507,-0.001033,0.706693,-0.004242
297,9.841314,-0.058750,0.016599,0.037777,0.023130,-0.044514,-75.318413,-89.721634,75.746811,-0.707531,-0.000973,0.706668,-0.004316
298,9.844155,-0.059718,0.020148,0.028621,0.027771,-0.038277,-74.546684,-89.707916,74.976395,-0.707575,-0.000907,0.706624,-0.004397
299,9.838553,-0.052615,0.019187,0.034726,0.035467,-0.029037,-73.503586,-89.699989,73.934586,-0.707622,-0.000868,0.706577,-0.004448
300,9.839458,-0.049450,0.019920,0.045407,0.029417,-0.027493,-72.397163,-89.696098,72.829483,-0.707662,-0.000871,0.706537,-0.004462
301,9.841910,-0.047583,0.014055,0.049986,0.044693,-0.021403,-71.757607,-89.697388,72.191078,-0.707679,-0.000894,0.706519,-0.004459
302,9.839988,-0.048310,0.015106,0.062194,0.050781,-0.019894,-71.586876,-89.699989,72.022614,-0.707680,-0.000920,0.706518,-0.004456
303,9.842154,-0.047580,0.013818,0.071348,0.049238,-0.022960,-71.488770,-89.701294,71.926369,-0.707679,-0.000947,0.706519,-0.004457
304,9.844213,-0.053969,0.010134,0.071348,0.056825,-0.033624,-71.983810,-89.701294,72.423645,-0.707664,-0.000956,0.706534,-0.004476
305,9.845851,-0.055134,0.005707,0.065243,0.067427,-0.028990,-73.307076,-89.698685,73.749588,-0.707628,-0.000943,0.706571,-0.004517
306,9.843746,-0.048899,0.004209,0.039303,0.061222,-0.044224,-74.839958,-89.700638,75.283798,-0.707578,-0.000945,0.706620,-0.004536
307,9.844760,-0.048038,0.007961,0.028621,0.064195,-0.045764,-75.775818,-89.703262,76.220634,-0.707542,-0.000969,0.706656,-0.004525
308,9.841851,-0.043916,0.006091,0.016413,0.067188,-0.044273,-76.222519,-89.709930,76.668457,-0.707520,-0.001005,0.706678,-0.004498
309,9.843837,-0.039284,0.013710,0.025569,0.061062,-0.033664,-75.834366,-89.717453,76.281242,-0.707520,-0.001062,0.706679,-0.004450
310,9.840968,-0.043850,0.017645,0.027095,0.061099,-0.041354,-74.320114,-89.723045,74.767540,-0.707555,-0.001113,0.706643,-0.004411
311,9.839130,-0.042940,0.019538,0.045407,0.050477,-0.024599,-72.509613,-89.724464,72.958694,-0.707604,-0.001145,0.706595,-0.004393
312,9.837349,-0.039746,0.015160,0.025571,0.035255,-0.030742,-71.169090,-89.728035,71.619164,-0.707636,-0.001183,0.706563,-0.004370
313,9.836485,-0.045126,0.013830,0.053036,0.041357,-0.015505,-70.739922,-89.730202,71.191383,-0.707643,-0.001209,0.706556,-0.004360
314,9.830597,-0.053380,0.014585,0.060667,0.038296,-0.016980,-70.978615,-89.725891,71.431274,-0.707645,-0.001193,0.706554,-0.004399
315,9.836045,-0.050817,0.016727,0.057614,0.033721,-0.016903,-71.158348,-89.718842,71.613464,-0.707654,-0.001161,0.706544,-0.004456
316,9.838238,-0.056225,0.019671,0.049985,0.029169,-0.022926,-70.944359,-89.709930,71.400711,-0.707676,-0.001126,0.706521,-0.004513
317,9.841909,-0.053591,0.020214,0.074400,0.029208,-0.001481,-70.551804,-89.701294,71.010689,-0.707706,-0.001090,0.706491,-0.004574
318,9.842972,-0.051136,0.018902,0.068296,0.015503,-0.013643,-70.186523,-89.697388,70.648155,-0.707728,-0.001079,0.706470,-0.004615
319,9.844515,-0.050814,0.011096,0.045408,0.021584,-0.018200,-70.589020,-89.696098,71.052231,-0.707717,-0.001081,0.706480,-0.004636
320,9.837766,-0.054565,0.008933,0.051510,0.018458,-0.013589,-71.937119,-89.694809,72.401985,-0.707676,-0.001074,0.706521,-0.004663
321,9.835401,-0.056707,0.008775,0.051509,0.030589,-0.010478,-73.471352,-89.691620,73.937675,-0.707633,-0.001051,0.706564,-0.004707
322,9.835401,-0.060465,0.004083,0.039302,0.032024,-0.036339,-75.234901,-89.686592,75.702423,-0.707584,-0.001015,0.706613,-0.004760
323,9.837935,-0.060712,0.011601,0.031673,0.041117,-0.040828,-76.473106,-89.680405,76.942390,-0.707552,-0.000976,0.706645,-0.004814
324,9.836049,-0.056311,0.013486,0.042354,0.047213,-0.036194,-76.521248,-89.676750,76.991501,-0.707556,-0.000956,0.706640,-0.004849
325,9.837568,-0.053490,0.013387,0.042354,0.057900,-0.036183,-76.127396,-89.676147,76.599564,-0.707570,-0.000965,0.706626,-0.004857
326,9.839868,-0.049875,0.008238,0.049984,0.056351,-0.031628,-76.043510,-89.679794,76.517189,-0.707568,-0.000996,0.706628,-0.004845
327,9.836907,-0.051105,0.006861,0.065241,0.062399,-0.022505,-76.500343,-89.684723,76.975319,-0.707546,-0.001033,0.706650,-0.004831
328,9.831803,-0.052960,0.005085,0.065241,0.062331,-0.016412,-77.265709,-89.687843,77.742737,-0.707517,-0.001057,0.706680,-0.004834
329,9.835523,-0.047977,0.008396,0.054560,0.062277,-0.025588,-77.741837,-89.689728,78.220695,-0.707496,-0.001087,0.706700,-0.004829
330,9.840462,-0.043560,0.010765,0.051507,0.056153,-0.030229,-77.445259,-89.698036,77.926529,-0.707497,-0.001142,0.706699,-0.004795
331,9.839599,-0.044719,0.013645,0.062190,0.057688,-0.050136,-76.566322,-89.705246,77.049370,-0.707514,-0.001206,0.706682,-0.004755
332,9.842492,-0.042995,0.019237,0.053034,0.053158,-0.056300,-74.935577,-89.711288,75.420189,-0.707555,-0.001266,0.706641,-0.004719
333,9.844475,-0.038769,0.018902,0.051508,0.048646,-0.056376,-72.829247,-89.718147,73.315559,-0.707606,-0.001335,0.706590,-0.004672
334,9.843976,-0.045417,0.018426,0.060665,0.045643,-0.042693,-71.156059,-89.723045,71.644150,-0.707646,-0.001387,0.706550,-0.004643
335,9.839381,-0.041554,0.017370,0.054561,0.045672,-0.050344,-70.025322,-89.723755,70.515953,-0.707674,-0.001422,0.706523,-0.004631
336,9.836880,-0.037503,0.020690,0.045405,0.045703,-0.033612,-68.627510,-89.728035,69.119400,-0.707703,-0.001473,0.706494,-0.004601
337,9.831463,-0.040599,0.025419,0.031673,0.045766,-0.019927,-66.640274,-89.730934,67.133858,-0.707751,-0.001516,0.706446,-0.004574
338,9.833413,-0.043120,0.025701,0.039303,0.056523,-0.024515,-64.673653,-89.728760,65.168350,-0.707809,-0.001534,0.706388,-0.004570
339,9.832273,-0.042940,0.021341,0.037777,0.055040,-0.036715,-63.489235,-89.726601,63.985271,-0.707846,-0.001544,0.706350,-0.004577
340,9.833952,-0.042332,0.020647,0.042355,0.064201,-0.038236,-62.952538,-89.726601,63.450024,-0.707862,-0.001557,0.706334,-0.004580
341,9.832784,-0.052368,0.020046,0.045407,0.065718,-0.053443,-63.048721,-89.723045,63.547581,-0.707870,-0.001543,0.706326,-0.004612
342,9.828864,-0.044371,0.009472,0.062192,0.070230,-0.068643,-64.196465,-89.722343,64.696991,-0.707843,-0.001530,0.706353,-0.004647
343,9.826266,-0.045133,0.007378,0.062191,0.065527,-0.060996,-66.075645,-89.724464,66.578461,-0.707780,-0.001545,0.706416,-0.004657
344,9.829544,-0.046187,0.014068,0.071346,0.066963,-0.062498,-67.413940,-89.728035,67.918556,-0.707738,-0.001557,0.706458,-0.004672
345,9.830109,-0.049224,0.011072,0.057612,0.059275,-0.059402,-68.320168,-89.727318,68.827065,-0.707715,-0.001555,0.706481,-0.004700
346,9.832585,-0.047192,0.011956,0.051508,0.057690,-0.048674,-69.315903,-89.725174,69.824165,-0.707690,-0.001549,0.706506,-0.004728
347,9.840194,-0.056555,0.017297,0.051507,0.059193,-0.039442,-69.837379,-89.719536,70.347626,-0.707687,-0.001521,0.706508,-0.004777
348,9.842275,-0.049427,0.015632,0.053033,0.057665,-0.040887,-69.965141,-89.713326,70.477203,-0.707698,-0.001490,0.706497,-0.004829
349,9.840090,-0.047952,0.016071,0.039300,0.053078,-0.030177,-69.893074,-89.710609,70.407089,-0.707704,-0.001490,0.706491,-0.004849
350,9.843365,-0.055075,0.020485,0.039300,0.056142,-0.025552,-69.593735,-89.705917,70.108353,-0.707722,-0.001474,0.706472,-0.004881
351,9.842155,-0.051279,0.017442,0.054560,0.059210,-0.028543,-69.307083,-89.700638,69.823486,-0.707744,-0.001452,0.706451,-0.004922
352,9.841515,-0.048843,0.017907,0.045405,0.057682,-0.039203,-69.072708,-89.699333,69.590607,-0.707754,-0.001455,0.706440,-0.004939
353,9.841645,-0.051273,0.019602,0.017938,0.053108,-0.043763,-68.699219,-89.698036,69.217941,-0.707768,-0.001460,0.706426,-0.004947
354,9.847635,-0.054686,0.014777,0.005731,0.062249,-0.046771,-68.817429,-89.696098,69.336998,-0.707771,-0.001444,0.706424,-0.004968
355,9.841095,-0.051655,0.016459,0.014885,0.060691,-0.045202,-69.207047,-89.692261,69.726410,-0.707763,-0.001429,0.706431,-0.004987
356,9.843197,-0.055461,0.015783,0.005730,0.060664,-0.046686,-69.494675,-89.690353,70.015160,-0.707759,-0.001415,0.706435,-0.005005
357,9.842106,-0.051716,0.021419,0.004204,0.063715,-0.035967,-69.313667,-89.686592,69.833893,-0.707771,-0.001401,0.706423,-0.005021
358,9.841347,-0.052811,0.016828,0.027092,0.075925,-0.034420,-68.928230,-89.685341,69.448822,-0.707787,-0.001398,0.706406,-0.005030
359,9.835980,-0.044661,0.015146,0.043878,0.077419,-0.039014,-68.840538,-89.689095,69.362747,-0.707784,-0.001423,0.706410,-0.005020
360,9.837923,-0.044752,0.013494,0.062189,0.075844,-0.031437,-68.811127,-89.695457,69.334991,-0.707769,-0.001474,0.706424,-0.004991
361,9.837100,-0.037435,0.013463,0.049982,0.068159,-0.039148,-68.720520,-89.704590,69.246353,-0.707751,-0.001542,0.706443,-0.004945
362,9.837218,-0.043155,0.010826,0.046929,0.060467,-0.039223,-68.859177,-89.714691,69.386360,-0.707725,-0.001607,0.706469,-0.004900
363,9.834182,-0.046890,0.017408,0.053033,0.057377,-0.042289,-69.004272,-89.718842,69.532661,-0.707714,-0.001634,0.706480,-0.004893
364,9.833799,-0.045499,0.017639,0.066767,0.046695,-0.033127,-68.632248,-89.718842,69.163170,-0.707725,-0.001650,0.706470,-0.004902
366,9.833995,-0.041891,0.017152,0.051506,0.045168,-0.036193,-68.166039,-89.720932,68.699211,-0.707733,-0.001678,0.706461,-0.004898
367,9.834450,-0.047016,0.015485,0.056086,0.051257,-0.025517,-68.017944,-89.721634,68.552704,-0.707735,-0.001698,0.706459,-0.004900
368,9.836264,-0.051210,0.010104,0.063714,0.049681,-0.030050,-68.905434,-89.720932,69.442101,-0.707714,-0.001689,0.706480,-0.004933
369,9.838574,-0.057370,0.005339,0.045403,0.045008,-0.023854,-71.010712,-89.714012,71.548973,-0.707664,-0.001649,0.706530,-0.004996
370,9.839087,-0.062693,0.008373,0.031669,0.051015,-0.032871,-73.275475,-89.704590,73.815521,-0.707614,-0.001577,0.706579,-0.005083
371,9.838294,-0.063078,0.005467,0.039297,0.049408,-0.040352,-75.160416,-89.693535,75.700851,-0.707574,-0.001501,0.706619,-0.005174
372,9.836223,-0.058647,0.011927,0.051504,0.032571,-0.037194,-76.271088,-89.684097,76.813499,-0.707550,-0.001452,0.706643,-0.005241
373,9.839171,-0.054115,0.019322,0.063712,0.043276,-0.032572,-75.776138,-89.680405,76.320435,-0.707572,-0.001444,0.706620,-0.005273
374,9.839107,-0.051425,0.021243,0.083549,0.040293,-0.032573,-74.282898,-89.679794,74.829933,-0.707623,-0.001466,0.706569,-0.005280
375,9.838900,-0.051214,0.018708,0.083550,0.032719,-0.034117,-72.966537,-89.681023,73.516068,-0.707665,-0.001501,0.706527,-0.005280
376,9.837632,-0.052420,0.016278,0.077446,0.046472,-0.038704,-72.292435,-89.681633,72.844498,-0.707685,-0.001531,0.706507,-0.005284
377,9.835779,-0.053181,0.012389,0.068290,0.058660,-0.046329,-72.276146,-89.682861,72.830582,-0.707684,-0.001551,0.706508,-0.005293
378,9.832028,-0.050868,0.004001,0.045400,0.054000,-0.053958,-73.276726,-89.686592,73.833023,-0.707645,-0.001573,0.706547,-0.005294
379,9.831545,-0.047694,0.009649,0.043875,0.050858,-0.057035,-74.331177,-89.693535,74.888985,-0.707601,-0.001609,0.706591,-0.005276
380,9.829541,-0.043529,0.011532,0.060660,0.046239,-0.057090,-74.417992,-89.699989,74.977898,-0.707585,-0.001666,0.706607,-0.005241
381,9.828620,-0.037087,0.019455,0.045401,0.037097,-0.057186,-73.273514,-89.710609,73.834923,-0.707603,-0.001748,0.706589,-0.005180
382,9.832141,-0.034325,0.022043,0.039297,0.034110,-0.069519,-70.889954,-89.722343,71.452850,-0.707651,-0.001847,0.706542,-0.005099
383,9.830509,-0.038424,0.022866,0.034720,0.026553,-0.077246,-68.382904,-89.730934,68.947266,-0.707702,-0.001930,0.706490,-0.005032
384,9.832320,-0.034929,0.018432,0.025565,0.028120,-0.078844,-66.562561,-89.737556,67.127220,-0.707734,-0.001996,0.706459,-0.004978
385,9.835894,-0.040458,0.017063,0.007255,0.028123,-0.080414,-65.695808,-89.745125,66.261482,-0.707741,-0.002043,0.706451,-0.004938
386,9.838156,-0.043011,0.012169,0.002675,0.035719,-0.080405,-65.998650,-89.747437,66.564423,-0.707728,-0.002055,0.706465,-0.004928
387,9.837508,-0.047336,0.011444,0.017935,0.046342,-0.054414,-67.192802,-89.746666,67.758705,-0.707699,-0.002040,0.706494,-0.004946
388,9.837747,-0.046752,0.010965,0.059134,0.056963,-0.045191,-68.500626,-89.743591,69.067696,-0.707673,-0.002017,0.706520,-0.004985
389,9.832686,-0.041750,0.007728,0.060660,0.067574,-0.045157,-69.677216,-89.743591,70.246407,-0.707642,-0.002018,0.706551,-0.005009
390,9.830885,-0.040511,0.006729,0.063712,0.079698,-0.052789,-70.770599,-89.746666,71.341805,-0.707606,-0.002042,0.706587,-0.005010
391,9.836182,-0.043774,0.008399,0.091177,0.073523,-0.048204,-71.675606,-89.748993,72.249840,-0.707578,-0.002064,0.706615,-0.005020
392,9.836325,-0.046325,0.009371,0.083548,0.064318,-0.055796,-72.391266,-89.748215,72.967957,-0.707561,-0.002069,0.706631,-0.005050
393,9.835492,-0.041892,0.012961,0.057607,0.064296,-0.058819,-72.447655,-89.747437,73.027054,-0.707561,-0.002078,0.706631,-0.005070
394,9.837129,-0.054497,0.020129,0.071340,0.053648,-0.052651,-71.648048,-89.741310,72.229187,-0.707593,-0.002062,0.706599,-0.005112
395,9.841585,-0.055349,0.019489,0.066763,0.059813,-0.049473,-70.786842,-89.728760,71.370682,-0.707642,-0.002009,0.706550,-0.005194
396,9.837528,-0.059887,0.014123,0.053029,0.052203,-0.047808,-70.860298,-89.714691,71.445862,-0.707665,-0.001946,0.706526,-0.005282
397,9.841172,-0.060651,0.011539,0.046925,0.053700,-0.052241,-71.865334,-89.702606,72.452614,-0.707658,-0.001876,0.706533,-0.005371
398,9.843493,-0.061439,0.009173,0.059132,0.039913,-0.036850,-73.234589,-89.692894,73.823219,-0.707633,-0.001815,0.706557,-0.005454
399,9.844413,-0.053251,0.012305,0.036243,0.047495,-0.053560,-74.120689,-89.688469,74.711197,-0.707613,-0.001788,0.706577,-0.005501
400,9.841490,-0.050047,0.012365,0.039295,0.048995,-0.039821,-74.234283,-89.689728,74.826149,-0.707607,-0.001802,0.706583,-0.005502
401,9.841011,-0.044564,0.015357,0.062184,0.061196,-0.038336,-73.756653,-89.694176,74.350052,-0.707614,-0.001845,0.706576,-0.005479
402,9.835795,-0.038622,0.013683,0.060658,0.061195,-0.035375,-72.837936,-89.703926,73.433556,-0.707626,-0.001922,0.706563,-0.005429
403,9.837601,-0.036512,0.011060,0.039295,0.071852,-0.041596,-72.107155,-89.716759,72.704536,-0.707626,-0.002012,0.706564,-0.005359
404,9.838583,-0.034078,0.006974,0.024036,0.071793,-0.029507,-71.945961,-89.730202,72.544235,-0.707605,-0.002099,0.706585,-0.005284
405,9.836506,-0.038087,0.005258,0.011827,0.067133,-0.032650,-72.523300,-89.742073,73.122200,-0.707568,-0.002165,0.706622,-0.005226
406,9.832494,-0.037964,0.000606,-0.000380,0.057870,-0.034227,-73.955925,-89.751343,74.555130,-0.707516,-0.002205,0.706675,-0.005187
407,9.834939,-0.046439,-0.002826,-0.003433,0.060789,-0.040329,-76.426659,-89.753708,77.025284,-0.707446,-0.002211,0.706745,-0.005180
408,9.833135,-0.055429,-0.001875,0.016403,0.060660,-0.043288,-79.247871,-89.748993,79.847183,-0.707378,-0.002164,0.706813,-0.005230
409,9.837379,-0.061329,-0.007931,0.043869,0.057473,-0.037024,-82.289299,-89.735329,82.889626,-0.707306,-0.002080,0.706884,-0.005326
410,9.837159,-0.062268,-0.008415,0.051497,0.057324,-0.036850,-85.352989,-89.721634,85.954445,-0.707226,-0.001990,0.706964,-0.005435
411,9.840856,-0.063921,-0.005331,0.048445,0.055683,-0.027533,-87.458817,-89.705917,88.062294,-0.707166,-0.001908,0.707024,-0.005537
412,9.839115,-0.060802,-0.004044,0.069808,0.060186,-0.013673,-88.602905,-89.694809,89.208199,-0.707131,-0.001845,0.707058,-0.005623
413,9.836823,-0.051994,-0.003262,0.077437,0.058607,-0.012099,-89.224052,-89.690987,89.831703,-0.707110,-0.001834,0.707078,-0.005665
414,9.830013,-0.054330,-0.002657,0.072859,0.063147,-0.022779,-89.556381,-89.690987,90.166595,-0.707099,-0.001851,0.707090,-0.005678
415,9.829113,-0.057783,0.005168,0.095748,0.052472,-0.024277,-89.079536,-89.688469,89.692146,-0.707115,-0.001856,0.707073,-0.005708
416,9.829059,-0.063364,0.006143,0.111009,0.049468,-0.036414,-87.909676,-89.682251,88.526054,-0.707155,-0.001841,0.707033,-0.005766
417,9.832172,-0.065153,0.008132,0.092697,0.041895,-0.046996,-86.722359,-89.673141,87.341759,-0.707198,-0.001809,0.706989,-0.005840
418,9.837633,-0.069822,0.008121,0.056076,0.043474,-0.060612,-85.667198,-89.662537,86.289597,-0.707239,-0.001762,0.706947,-0.005917
419,9.836935,-0.067820,0.013165,0.048446,0.038963,-0.051341,-84.467789,-89.651695,85.091927,-0.707288,-0.001713,0.706898,-0.005988
420,9.836338,-0.064366,0.009531,0.027083,0.051231,-0.051268,-83.330238,-89.646675,83.955582,-0.707335,-0.001686,0.706851,-0.006031
421,9.834892,-0.055314,0.009485,-0.011064,0.060417,-0.052795,-82.511024,-89.647232,83.136757,-0.707365,-0.001699,0.706821,-0.006021
422,9.840484,-0.053223,0.010426,0.004195,0.065018,-0.042172,-81.615013,-89.653954,82.240486,-0.707393,-0.001744,0.706793,-0.005975
423,9.834106,-0.050211,0.009098,0.025559,0.071136,-0.028513,-80.779976,-89.662537,81.405869,-0.707416,-0.001800,0.706770,-0.005925
424,9.836223,-0.045296,0.007077,0.019455,0.081809,-0.031665,-80.181419,-89.673141,80.808044,-0.707427,-0.001873,0.706759,-0.005861
425,9.837010,-0.042713,0.008170,0.014877,0.075688,-0.039415,-79.619301,-89.686592,80.246101,-0.707433,-0.001958,0.706754,-0.005783
426,9.839975,-0.049174,0.008359,0.042344,0.074148,-0.028815,-79.096664,-89.696098,79.725159,-0.707441,-0.002021,0.706747,-0.005732
427,9.831683,-0.046314,0.006997,0.027083,0.066497,-0.034964,-78.849655,-89.701294,79.478729,-0.707442,-0.002062,0.706745,-0.005705
428,9.834339,-0.049279,0.008618,0.016402,0.048165,-0.030417,-78.721260,-89.705246,79.351501,-0.707442,-0.002093,0.706746,-0.005683
429,9.835027,-0.055204,0.008282,0.002669,0.038996,-0.034976,-78.756371,-89.703926,79.386803,-0.707441,-0.002089,0.706746,-0.005690
430,9.839169,-0.060361,0.008730,-0.004960,0.035930,-0.024218,-79.028366,-89.698036,79.658630,-0.707440,-0.002048,0.706747,-0.005731
431,9.836763,-0.060518,0.009410,0.002669,0.028291,-0.034805,-79.284966,-89.688469,79.914879,-0.707441,-0.001995,0.706746,-0.005783
