seq,ax,ay,az,wroll,wpitch,wyaw,roll,pitch,yaw
1,0.036256,-9.619252,0.215448,0.089685,0.065187,-0.005008,-88.716934,-0.215899,0.211117
2,0.034089,-9.627211,0.206990,0.048724,0.065237,0.001531,-88.714622,-0.215908,0.208943
3,0.036496,-9.623120,0.216465,0.068374,0.062635,-0.005666,-88.712662,-0.215929,0.206811
4,0.029350,-9.624508,0.210965,0.041393,0.065591,0.025170,-88.710831,-0.215556,0.204681
5,0.028780,-9.629778,0.212081,0.037708,0.065635,0.032478,-88.709496,-0.214546,0.202516
6,0.027352,-9.630387,0.211936,0.018244,0.067243,0.034731,-88.708565,-0.213376,0.200328
8,0.032350,-9.626747,0.219370,0.052325,0.071553,0.020800,-88.707375,-0.212399,0.198036
9,0.030881,-9.628323,0.214647,0.042159,0.068536,0.030816,-88.705788,-0.211486,0.195721
10,0.036766,-9.624343,0.218361,0.069464,0.062065,0.006716,-88.703911,-0.210812,0.193559
11,0.044021,-9.619324,0.217397,0.069050,0.063080,-0.016819,-88.701599,-0.210933,0.191470
12,0.044320,-9.625936,0.219827,0.083833,0.069186,-0.008437,-88.699036,-0.211304,0.189256
13,0.041463,-9.623689,0.216155,0.051944,0.063232,0.003240,-88.696770,-0.211340,0.187048
15,0.039841,-9.621838,0.218772,0.055664,0.069469,0.006515,-88.694977,-0.211127,0.184841
16,0.039669,-9.629272,0.221437,0.056085,0.075607,0.000891,-88.693100,-0.210949,0.182426
17,0.034136,-9.628673,0.222179,0.063510,0.082089,0.005035,-88.691093,-0.210790,0.179801
18,0.036812,-9.624998,0.224268,0.068988,0.078873,-0.006095,-88.688881,-0.210746,0.177118
19,0.033999,-9.635429,0.221709,0.058036,0.079031,0.000835,-88.686752,-0.210774,0.174485
20,0.033133,-9.634276,0.222414,0.059151,0.065362,0.003418,-88.684784,-0.210648,0.172081
22,0.031732,-9.636287,0.221791,0.053132,0.059342,0.002973,-88.682907,-0.210493,0.170006
23,0.031380,-9.641151,0.226133,0.066293,0.068565,0.005529,-88.680916,-0.210303,0.167878
24,0.028133,-9.635891,0.221604,0.047634,0.070259,0.008951,-88.679001,-0.210008,0.165570
25,0.035528,-9.628969,0.225820,0.067327,0.078947,-0.013232,-88.677071,-0.210022,0.163082
26,0.040644,-9.634461,0.225564,0.054553,0.095375,-0.036010,-88.675034,-0.210776,0.160159
27,0.040258,-9.629139,0.222050,0.046510,0.110627,-0.019313,-88.673340,-0.211618,0.156705
29,0.040307,-9.621937,0.219866,0.019815,0.086190,-0.008465,-88.672218,-0.212005,0.153415
30,0.038644,-9.624171,0.221046,0.019553,0.089371,-0.009415,-88.671555,-0.212235,0.150483
31,0.031068,-9.624071,0.222595,0.014671,0.079230,0.001034,-88.670967,-0.212309,0.147670
32,0.025440,-9.623140,0.221286,0.025807,0.082657,0.033096,-88.670296,-0.211678,0.144986
33,0.024924,-9.623478,0.224170,0.037069,0.070510,0.023678,-88.669228,-0.210673,0.142456
34,0.025670,-9.625095,0.223946,0.047973,0.078073,0.013380,-88.667809,-0.209998,0.139994
36,0.029032,-9.623071,0.221471,0.050713,0.074752,0.007633,-88.666161,-0.209588,0.137456
37,0.032773,-9.624746,0.221422,0.058774,0.071434,0.005487,-88.664330,-0.209313,0.135026
38,0.032080,-9.626738,0.221535,0.041259,0.060796,-0.006291,-88.662651,-0.209275,0.132822
39,0.032916,-9.626489,0.221549,0.023684,0.060735,-0.004211,-88.661552,-0.209403,0.130793
40,0.038837,-9.630446,0.222148,0.032267,0.072537,-0.021713,-88.660614,-0.209783,0.128562
41,0.038935,-9.637659,0.222407,0.022904,0.060328,-0.020216,-88.659691,-0.210430,0.126332
43,0.038030,-9.642442,0.223365,0.018841,0.071089,-0.014108,-88.658981,-0.210950,0.124129
44,0.042890,-9.646891,0.223222,0.028433,0.072279,-0.025189,-88.658195,-0.211549,0.121725
45,0.044222,-9.644153,0.228061,0.048692,0.084451,-0.027385,-88.656898,-0.212364,0.119093
46,0.037985,-9.642073,0.226256,0.048942,0.078768,-0.013085,-88.655258,-0.212975,0.116357
47,0.032239,-9.636000,0.228066,0.055452,0.077666,-0.000353,-88.653503,-0.213137,0.113746
48,0.033281,-9.623997,0.227215,0.052896,0.089792,-0.008056,-88.651680,-0.213212,0.110952
50,0.030153,-9.621623,0.225586,0.035098,0.097620,-0.004823,-88.650215,-0.213353,0.107824
51,0.031850,-9.629058,0.223223,0.020703,0.086793,-0.005132,-88.649269,-0.213446,0.104748
52,0.029918,-9.628278,0.223427,0.010195,0.076249,0.009828,-88.648743,-0.213304,0.102033
53,0.030833,-9.626505,0.224766,0.018607,0.091458,0.014670,-88.648247,-0.212830,0.099248
54,0.029045,-9.628624,0.226184,0.022424,0.073281,0.018267,-88.647552,-0.212216,0.096516
55,0.033082,-9.620840,0.229615,0.040463,0.073028,0.007421,-88.646507,-0.211731,0.094089
57,0.031929,-9.620192,0.225736,0.031490,0.074585,0.009090,-88.645294,-0.211397,0.091636
58,0.033515,-9.614337,0.226354,0.034656,0.069896,-0.003477,-88.644180,-0.211247,0.089230
59,0.036101,-9.617558,0.224721,0.032058,0.059011,-0.015792,-88.643059,-0.211517,0.087075
60,0.033333,-9.625586,0.216494,0.009491,0.066747,0.003351,-88.642365,-0.211675,0.084975
61,0.030600,-9.621605,0.210771,-0.006156,0.076033,0.013062,-88.642303,-0.211345,0.082602
62,0.028065,-9.618985,0.209393,-0.001033,0.077719,0.011288,-88.642410,-0.210878,0.080050
64,0.029378,-9.628494,0.210884,-0.003332,0.083742,0.010311,-88.642479,-0.210455,0.077368
65,0.028891,-9.631797,0.206183,-0.019096,0.088299,0.020757,-88.642845,-0.209869,0.074514
66,0.030374,-9.630228,0.209942,-0.007721,0.091282,-0.000721,-88.643272,-0.209464,0.071530
67,0.032173,-9.643260,0.205906,0.002481,0.080426,0.013710,-88.643349,-0.209180,0.068674
68,0.030016,-9.642261,0.204900,-0.002023,0.080564,0.024558,-88.643333,-0.208479,0.066006
69,0.030126,-9.638208,0.201519,-0.005816,0.078986,0.040648,-88.643463,-0.207330,0.063374
71,0.031458,-9.632813,0.203701,-0.006662,0.078904,0.029977,-88.643661,-0.206091,0.060771
72,0.031337,-9.631775,0.202732,-0.012532,0.069734,0.037350,-88.643967,-0.204910,0.058321
73,0.030810,-9.623610,0.206440,-0.020760,0.059117,0.015374,-88.644516,-0.203981,0.056195
74,0.033952,-9.618765,0.208294,-0.023895,0.060432,0.000939,-88.645248,-0.203662,0.054209
75,0.032708,-9.615183,0.207902,-0.029117,0.071194,-0.013861,-88.646126,-0.203825,0.052011
76,0.032850,-9.618544,0.209720,-0.023557,0.066629,-0.017214,-88.647003,-0.204289,0.049702
78,0.034839,-9.614552,0.209145,-0.020070,0.066490,-0.024470,-88.647728,-0.204931,0.047468
79,0.035765,-9.622668,0.211108,-0.017510,0.074083,-0.026821,-88.648346,-0.205730,0.045105
80,0.033116,-9.625948,0.215285,-0.009624,0.059064,-0.024610,-88.648788,-0.206535,0.042867
81,0.031090,-9.624258,0.212714,-0.024619,0.060714,-0.018187,-88.649345,-0.207201,0.040854
82,0.028445,-9.622686,0.211698,-0.019688,0.067002,-0.006927,-88.650078,-0.207569,0.038716
83,0.025282,-9.629024,0.212860,-0.019392,0.070292,0.010380,-88.650719,-0.207458,0.036430
85,0.024066,-9.624008,0.217527,0.004255,0.067377,0.023098,-88.650963,-0.206846,0.034149
86,0.028647,-9.628502,0.211715,-0.004101,0.079195,0.016867,-88.650948,-0.206123,0.031723
87,0.031415,-9.641807,0.215771,0.020752,0.063777,0.008421,-88.650665,-0.205645,0.029350
88,0.032114,-9.643632,0.219042,0.030160,0.063758,0.000032,-88.649811,-0.205454,0.027229
89,0.030408,-9.632727,0.218625,0.023095,0.048610,-0.001190,-88.648918,-0.205429,0.025356
90,0.031827,-9.628760,0.215991,0.015045,0.051533,-0.016128,-88.648277,-0.205679,0.023680
92,0.033231,-9.620566,0.218770,0.011297,0.039258,-0.018728,-88.647835,-0.206224,0.022154
93,0.033056,-9.617768,0.219845,0.011381,0.054547,-0.013380,-88.647453,-0.206722,0.020578
94,0.030017,-9.619713,0.216300,0.001997,0.056253,-0.005579,-88.647217,-0.206994,0.018725
95,0.035797,-9.624472,0.219187,0.022323,0.063511,-0.025639,-88.646805,-0.207467,0.016717
96,0.030718,-9.628534,0.217899,0.016447,0.060807,-0.005670,-88.646149,-0.207940,0.014633
97,0.025779,-9.633876,0.216495,0.016129,0.074876,0.003218,-88.645599,-0.207927,0.012371
99,0.026095,-9.631884,0.217581,0.006965,0.059606,-0.000759,-88.645210,-0.207833,0.010132
100,0.032263,-9.630232,0.220582,0.014241,0.060730,-0.014557,-88.644852,-0.208041,0.008121
101,0.028747,-9.632651,0.217269,-0.005144,0.070099,-0.005487,-88.644691,-0.208324,0.005933
102,0.034123,-9.632887,0.218814,-0.000685,0.078896,-0.013678,-88.644783,-0.208584,0.003443
103,0.036630,-9.633412,0.220066,0.013695,0.075685,-0.010313,-88.644554,-0.208923,0.000858
104,0.034192,-9.629508,0.219049,0.013840,0.088056,-0.001414,-88.644089,-0.209054,-0.001875
106,0.031349,-9.628539,0.215620,-0.005722,0.079064,0.007105,-88.643944,-0.208893,-0.004658
107,0.037004,-9.633065,0.218746,0.012308,0.081750,-0.006685,-88.643822,-0.208823,-0.007337
108,0.034757,-9.635203,0.218710,0.002804,0.078854,-0.010703,-88.643562,-0.209049,-0.010020
109,0.034707,-9.632406,0.219426,-0.001149,0.078868,-0.019625,-88.643532,-0.209492,-0.012660
110,0.034751,-9.633930,0.217863,0.003203,0.075800,-0.016464,-88.643486,-0.210032,-0.015251
111,0.039270,-9.630706,0.217215,0.006007,0.078533,-0.038827,-88.643318,-0.210893,-0.017845
113,0.035511,-9.627404,0.216898,0.000585,0.077277,-0.031842,-88.643204,-0.212009,-0.020469
114,0.035969,-9.626345,0.217386,0.005058,0.072684,-0.023504,-88.643097,-0.212872,-0.022989
115,0.035669,-9.633430,0.220289,0.017697,0.072747,-0.014473,-88.642715,-0.213447,-0.025427
116,0.037525,-9.631052,0.222246,0.018879,0.077222,-0.027362,-88.642090,-0.214085,-0.027943
117,0.030924,-9.633599,0.225386,0.029233,0.080780,-0.008914,-88.641273,-0.214627,-0.030589
118,0.033318,-9.632397,0.224462,0.021573,0.077554,-0.020333,-88.640419,-0.215052,-0.033239
120,0.033062,-9.624821,0.226490,0.030745,0.085229,-0.030107,-88.639542,-0.215828,-0.035971
121,0.035476,-9.616518,0.225551,0.021976,0.091158,-0.023250,-88.638657,-0.216647,-0.038932
122,0.034713,-9.621078,0.224704,0.023257,0.085108,-0.015937,-88.637886,-0.217230,-0.041884
123,0.039670,-9.620659,0.221298,0.014271,0.083198,-0.018198,-88.637253,-0.217732,-0.044702
124,0.035992,-9.621788,0.219667,0.021196,0.080392,0.002162,-88.636650,-0.217934,-0.047434
125,0.036753,-9.622951,0.217875,0.007816,0.078793,0.001539,-88.636154,-0.217810,-0.050085
127,0.035921,-9.629271,0.215223,0.003785,0.072715,-0.009710,-88.635956,-0.217886,-0.052613
128,0.036776,-9.619263,0.212565,-0.003622,0.077203,-0.001646,-88.635941,-0.218015,-0.055115
129,0.033837,-9.621714,0.219386,0.019507,0.077490,0.019406,-88.635674,-0.217658,-0.057685
130,0.034336,-9.623101,0.219399,0.016222,0.077450,0.014715,-88.635063,-0.217028,-0.060254
131,0.034123,-9.632541,0.218451,0.010894,0.071343,0.021247,-88.634598,-0.216370,-0.062718
132,0.036309,-9.626444,0.218839,0.003030,0.075761,0.025037,-88.634361,-0.215540,-0.065151
134,0.037793,-9.632333,0.221530,0.005898,0.069573,0.005015,-88.634201,-0.214982,-0.067561
135,0.040901,-9.629612,0.219411,-0.003386,0.081529,-0.010653,-88.634148,-0.215016,-0.070081
136,0.041170,-9.632742,0.220508,-0.004979,0.083048,-0.000735,-88.634277,-0.215140,-0.072827
137,0.043489,-9.626186,0.219451,-0.003071,0.096606,-0.004626,-88.634392,-0.215158,-0.075823
138,0.040021,-9.619493,0.220699,0.016378,0.089235,-0.005089,-88.634155,-0.215246,-0.078923
139,0.035628,-9.612718,0.219399,0.003661,0.095636,0.007949,-88.633812,-0.215125,-0.082003
141,0.033236,-9.616871,0.214665,-0.013990,0.091174,0.013538,-88.633972,-0.214693,-0.085107
142,0.031984,-9.608024,0.218117,-0.004612,0.094349,0.020027,-88.634270,-0.214060,-0.088185
143,0.026246,-9.612300,0.221277,0.006148,0.078001,0.026190,-88.634239,-0.213221,-0.091038
144,0.025722,-9.615353,0.218984,0.002109,0.087158,0.028922,-88.634087,-0.212237,-0.093768
145,0.027303,-9.623601,0.217103,0.003464,0.087014,0.023828,-88.633987,-0.211289,-0.096649
146,0.028066,-9.621698,0.220607,0.013929,0.082411,0.011944,-88.633682,-0.210626,-0.099458
147,0.029836,-9.629053,0.212943,-0.000408,0.080667,-0.007295,-88.633453,-0.210484,-0.102173
148,0.030242,-9.623692,0.212818,0.002443,0.095895,-0.004024,-88.633408,-0.210602,-0.105119
149,0.025644,-9.630058,0.213712,0.000017,0.088603,0.006743,-88.633362,-0.210483,-0.108192
150,0.023318,-9.629499,0.216561,0.016071,0.082695,0.021268,-88.633080,-0.209949,-0.111035
151,0.022082,-9.621932,0.220137,0.023980,0.082817,0.029252,-88.632401,-0.209041,-0.113773
152,0.019888,-9.617155,0.226474,0.032129,0.084558,0.050613,-88.631454,-0.207644,-0.116530
153,0.015104,-9.617251,0.225785,0.034160,0.075719,0.061175,-88.630341,-0.205717,-0.119156
154,0.021679,-9.615731,0.225540,0.028385,0.076752,0.052899,-88.629288,-0.203756,-0.121651
155,0.027897,-9.616530,0.227462,0.031987,0.086988,0.038026,-88.628273,-0.202175,-0.124343
156,0.029807,-9.621867,0.224857,0.026385,0.074598,0.030094,-88.627289,-0.200976,-0.127008
157,0.030028,-9.618155,0.222443,0.028094,0.077593,0.025766,-88.626366,-0.199984,-0.129522
158,0.038228,-9.620685,0.221512,0.026181,0.070882,0.005466,-88.625465,-0.199405,-0.131983
159,0.033079,-9.628010,0.219989,0.023709,0.074277,0.006834,-88.624619,-0.199142,-0.134397
160,0.028914,-9.626255,0.216053,0.004019,0.073003,0.003824,-88.624153,-0.198905,-0.136847
161,0.027435,-9.628287,0.212415,-0.004184,0.088327,0.011194,-88.624146,-0.198591,-0.139529
162,0.028710,-9.629744,0.217021,0.003243,0.086755,-0.004928,-88.624161,-0.198416,-0.142443
163,0.029140,-9.631042,0.213296,-0.014084,0.082106,-0.006264,-88.624313,-0.198535,-0.145261
164,0.036128,-9.625899,0.214135,-0.020391,0.080091,-0.030086,-88.624878,-0.199076,-0.147979
165,0.035519,-9.625674,0.214605,-0.014184,0.077094,-0.024964,-88.625450,-0.199930,-0.150620
166,0.035726,-9.626925,0.218227,-0.003268,0.067972,-0.022095,-88.625732,-0.200656,-0.153055
167,0.034831,-9.633044,0.211235,-0.028965,0.061867,-0.006804,-88.626266,-0.201086,-0.155230
168,0.032203,-9.629339,0.215397,-0.016151,0.069733,-0.004917,-88.627014,-0.201229,-0.157428
169,0.029869,-9.626003,0.216070,-0.012087,0.072962,0.008178,-88.627480,-0.201117,-0.159804
170,0.029541,-9.627874,0.215707,-0.017695,0.069929,0.018287,-88.627960,-0.200619,-0.162174
171,0.030145,-9.619369,0.215337,-0.013469,0.082085,0.020756,-88.628479,-0.199908,-0.164692
172,0.030732,-9.613859,0.219192,0.006215,0.086654,0.015561,-88.628593,-0.199236,-0.167489
173,0.028984,-9.615304,0.217115,-0.006164,0.091328,0.037244,-88.628578,-0.198285,-0.170433
174,0.027371,-9.617387,0.223116,0.013044,0.089968,0.041610,-88.628456,-0.196899,-0.173422
175,0.033849,-9.611545,0.225390,0.018611,0.087987,0.015477,-88.627922,-0.195877,-0.176365
176,0.032881,-9.615664,0.221646,0.003827,0.074272,-0.001948,-88.627541,-0.195586,-0.179063
177,0.033408,-9.616949,0.219609,-0.011710,0.065054,-0.011279,-88.627663,-0.195751,-0.181390
178,0.037636,-9.618504,0.218846,-0.012547,0.066272,-0.043614,-88.628059,-0.196613,-0.183600
179,0.039720,-9.625020,0.213595,-0.025410,0.063028,-0.060011,-88.628693,-0.198288,-0.185795
180,0.034586,-9.628825,0.215921,-0.021546,0.058859,-0.045403,-88.629463,-0.199996,-0.187868
181,0.034825,-9.627257,0.222911,0.004269,0.058935,-0.033074,-88.629745,-0.201257,-0.189862
182,0.034346,-9.626804,0.222420,0.006001,0.074238,-0.034079,-88.629562,-0.202323,-0.192108
183,0.035115,-9.623404,0.223993,-0.001410,0.074211,-0.026719,-88.629478,-0.203276,-0.194606
184,0.031172,-9.623137,0.222836,0.002725,0.077543,-0.009931,-88.629448,-0.203827,-0.197149
185,0.029438,-9.617594,0.221226,0.012000,0.088338,0.000046,-88.629189,-0.203925,-0.199917
186,0.028707,-9.619627,0.215553,-0.000620,0.100538,-0.005320,-88.628990,-0.203938,-0.203066
187,0.033789,-9.624640,0.217223,0.008435,0.086461,-0.014272,-88.628853,-0.204190,-0.206189
188,0.032551,-9.629096,0.216005,0.015071,0.081960,-0.004310,-88.628456,-0.204432,-0.209003
189,0.035641,-9.628447,0.217265,0.000293,0.078704,-0.008806,-88.628181,-0.204586,-0.211685
190,0.037339,-9.630620,0.218023,-0.002360,0.074014,-0.025968,-88.628212,-0.205105,-0.214244
191,0.037975,-9.631552,0.216350,-0.015065,0.063275,-0.023023,-88.628494,-0.205866,-0.216551
192,0.033221,-9.632933,0.214820,-0.024201,0.055976,-0.002397,-88.629143,-0.206242,-0.218548
193,0.031942,-9.630489,0.218046,-0.008077,0.057633,-0.004527,-88.629677,-0.206313,-0.220444
194,0.033741,-9.625426,0.221441,0.013270,0.068224,-0.000731,-88.629578,-0.206350,-0.222543
195,0.032696,-9.627196,0.220824,0.018860,0.071344,0.011576,-88.629036,-0.206114,-0.224864
196,0.034035,-9.624347,0.225060,0.025249,0.069765,0.002873,-88.628288,-0.205817,-0.227209
197,0.034655,-9.618160,0.225901,0.033897,0.091088,0.000814,-88.627296,-0.205691,-0.229888
198,0.038195,-9.620954,0.232721,0.041289,0.077171,-0.003656,-88.626045,-0.205671,-0.232693
199,0.037157,-9.621919,0.230776,0.033281,0.068066,-0.009735,-88.624794,-0.205836,-0.235118
200,0.038196,-9.627486,0.230686,0.010627,0.081723,-0.015742,-88.624046,-0.206201,-0.237624
201,0.037409,-9.637643,0.228646,0.006518,0.089390,-0.005485,-88.623749,-0.206486,-0.240483
202,0.034879,-9.632715,0.224612,-0.011396,0.072745,-0.013144,-88.623817,-0.206731,-0.243192
203,0.034104,-9.631491,0.218810,-0.016356,0.086474,-0.012256,-88.624268,-0.207091,-0.245855
204,0.029982,-9.634957,0.217056,-0.018578,0.083703,-0.005883,-88.624847,-0.207325,-0.248698
205,0.033328,-9.631422,0.214216,-0.014349,0.055970,-0.011155,-88.625389,-0.207553,-0.251032
206,0.032156,-9.625041,0.214422,-0.016164,0.045378,-0.021345,-88.625893,-0.208054,-0.252734
207,0.033324,-9.630435,0.222048,0.007877,0.059117,-0.018402,-88.626015,-0.208675,-0.254491
208,0.031425,-9.629556,0.219842,-0.000121,0.059236,-0.021599,-88.625885,-0.209294,-0.256479
209,0.035875,-9.622947,0.220631,-0.008116,0.049778,-0.026959,-88.626015,-0.210059,-0.258315
210,0.033760,-9.625204,0.219875,-0.012022,0.054508,-0.017207,-88.626335,-0.210753,-0.260070
211,0.032689,-9.622163,0.224790,0.004468,0.057698,0.006141,-88.626457,-0.210893,-0.261944
212,0.029411,-9.622496,0.219549,-0.012652,0.056351,0.020563,-88.626595,-0.210403,-0.263833
213,0.030306,-9.620366,0.221971,-0.008326,0.056309,0.020709,-88.626930,-0.209670,-0.265694
214,0.023292,-9.624573,0.221973,0.005263,0.065957,0.024496,-88.626976,-0.208868,-0.267713
215,0.023359,-9.617318,0.227020,0.019258,0.078207,0.025416,-88.626556,-0.207979,-0.270095
216,0.029938,-9.622680,0.224861,0.007651,0.085334,0.002417,-88.626106,-0.207449,-0.272809
217,0.034510,-9.620231,0.229760,0.023686,0.082001,-0.016045,-88.625565,-0.207610,-0.275603
218,0.030805,-9.619612,0.228365,0.020832,0.089882,-0.015617,-88.624809,-0.208068,-0.278479
219,0.035209,-9.616740,0.227716,0.021764,0.095668,-0.011734,-88.624092,-0.208450,-0.281582
220,0.035642,-9.627346,0.224614,0.023621,0.089503,-0.020347,-88.623322,-0.208910,-0.284680
221,0.033230,-9.619119,0.225877,0.039751,0.085115,-0.023708,-88.622253,-0.209574,-0.287607
222,0.030408,-9.618737,0.221607,0.034131,0.079173,-0.019543,-88.621010,-0.210229,-0.290362
223,0.031840,-9.621887,0.216699,0.017117,0.083601,-0.017327,-88.620140,-0.210778,-0.293089
224,0.032807,-9.618522,0.212732,-0.007175,0.083493,-0.027582,-88.619972,-0.211459,-0.295891
225,0.031996,-9.615140,0.215844,-0.003945,0.088170,-0.026375,-88.620148,-0.212290,-0.298773
226,0.028800,-9.621868,0.211221,-0.030344,0.097513,-0.016362,-88.620705,-0.212927,-0.301884
227,0.032830,-9.623040,0.215635,-0.018608,0.091178,-0.031056,-88.621506,-0.213641,-0.305047
228,0.030027,-9.623648,0.219563,-0.008141,0.082276,-0.022336,-88.621941,-0.214462,-0.307958
229,0.027740,-9.618772,0.223849,0.020384,0.082498,-0.012084,-88.621727,-0.214969,-0.310718
230,0.028840,-9.616566,0.220128,0.010840,0.074754,-0.010516,-88.621201,-0.215283,-0.313347
232,0.030178,-9.617244,0.219430,0.012983,0.070077,-0.008207,-88.620789,-0.215536,-0.315767
233,0.029635,-9.620288,0.218463,0.005066,0.077737,-0.004884,-88.620476,-0.215695,-0.318236
234,0.033211,-9.618823,0.218404,0.001731,0.069852,-0.009340,-88.620354,-0.215873,-0.320700
235,0.038489,-9.628725,0.219607,-0.013781,0.060333,-0.027894,-88.620544,-0.216441,-0.322885
236,0.038080,-9.629054,0.223457,-0.008407,0.068042,-0.024872,-88.620903,-0.217269,-0.325045
237,0.040853,-9.626060,0.227839,-0.001112,0.063325,-0.032753,-88.621063,-0.218176,-0.327257
238,0.041079,-9.626049,0.228807,-0.014956,0.061804,-0.034515,-88.621323,-0.219247,-0.329369
239,0.040537,-9.627475,0.226149,-0.019798,0.057248,-0.030840,-88.621895,-0.220288,-0.331378
240,0.038032,-9.626372,0.224173,-0.028386,0.057418,-0.009158,-88.622688,-0.220909,-0.333305
241,0.035378,-9.630057,0.220517,-0.051359,0.052996,-0.003965,-88.624008,-0.221083,-0.335150
242,0.034431,-9.630775,0.220381,-0.042041,0.065275,-0.002572,-88.625549,-0.221145,-0.337123
243,0.034853,-9.628949,0.214118,-0.038460,0.071279,0.002299,-88.626884,-0.221095,-0.339399
244,0.034942,-9.631590,0.218946,-0.026725,0.074382,-0.008635,-88.627968,-0.221142,-0.341828
245,0.032726,-9.627904,0.219380,-0.014012,0.077599,-0.011203,-88.628632,-0.221412,-0.344368
246,0.034521,-9.626713,0.218446,-0.005739,0.077465,-0.019457,-88.628952,-0.221861,-0.346964
247,0.032859,-9.620798,0.219849,-0.010205,0.065399,-0.015861,-88.629211,-0.222392,-0.349359
248,0.025904,-9.621506,0.220688,-0.022926,0.061333,0.003614,-88.629761,-0.222546,-0.351475
249,0.026211,-9.619278,0.222255,-0.023973,0.065911,0.007380,-88.630531,-0.222312,-0.353591
250,0.025260,-9.625370,0.219239,-0.045222,0.062890,0.007136,-88.631683,-0.222019,-0.355731
251,0.025346,-9.625351,0.221651,-0.029882,0.059859,0.003729,-88.632912,-0.221789,-0.357772
252,0.024024,-9.629249,0.217297,-0.036412,0.059903,0.015256,-88.634010,-0.221425,-0.359760
253,0.026272,-9.632026,0.213608,-0.034863,0.070381,0.016091,-88.635193,-0.220851,-0.361918
254,0.032490,-9.627278,0.209974,-0.035685,0.066843,0.015614,-88.636360,-0.220268,-0.364192
255,0.035833,-9.615360,0.207478,-0.026585,0.080306,0.009838,-88.637383,-0.219786,-0.366634
256,0.037019,-9.612557,0.205565,-0.037782,0.081722,0.009087,-88.638451,-0.219406,-0.369326
257,0.042764,-9.617414,0.211103,-0.021151,0.082902,-0.009689,-88.639412,-0.219351,-0.372069
258,0.040144,-9.616256,0.217199,-0.000970,0.069425,-0.003475,-88.639771,-0.219510,-0.374613
259,0.033869,-9.623693,0.219150,0.007525,0.075996,0.004683,-88.639656,-0.219433,-0.377035
260,0.028133,-9.630513,0.224725,0.025077,0.064257,0.015689,-88.639099,-0.219038,-0.379364
261,0.023266,-9.635021,0.225852,0.024774,0.066135,0.022408,-88.638268,-0.218351,-0.381522
262,0.016745,-9.629457,0.223673,0.015194,0.065038,0.029274,-88.637589,-0.217438,-0.383687
263,0.018703,-9.628862,0.220212,0.004580,0.064851,0.010860,-88.637253,-0.216718,-0.385835
264,0.018901,-9.626642,0.220934,-0.004005,0.060260,0.002339,-88.637238,-0.216449,-0.387914
265,0.021098,-9.629972,0.221463,0.001877,0.060109,0.003386,-88.637268,-0.216305,-0.389918
266,0.022850,-9.621881,0.225213,0.025790,0.060027,0.011837,-88.636803,-0.216004,-0.391913
267,0.026387,-9.617624,0.225147,0.027167,0.059773,0.001173,-88.635910,-0.215740,-0.393904
268,0.029742,-9.613224,0.229296,0.043958,0.058053,-0.008955,-88.634720,-0.215823,-0.395871
269,0.029315,-9.603490,0.224326,0.044486,0.053449,-0.007703,-88.633240,-0.216056,-0.397735
270,0.031691,-9.603087,0.225453,0.031860,0.057872,-0.020755,-88.631958,-0.216486,-0.399601
271,0.030026,-9.603880,0.216747,-0.000925,0.053318,-0.021651,-88.631432,-0.217148,-0.401471
272,0.031786,-9.609666,0.216792,-0.006069,0.066934,-0.018858,-88.631554,-0.217775,-0.403491
273,0.031517,-9.614456,0.215110,-0.014451,0.069993,-0.002417,-88.631889,-0.218075,-0.405781
274,0.032236,-9.620281,0.212485,-0.030178,0.083649,0.001772,-88.632614,-0.218025,-0.408341
275,0.036244,-9.623699,0.212204,-0.021784,0.078784,0.005125,-88.633469,-0.217845,-0.411045
276,0.035512,-9.628560,0.217986,0.003089,0.085005,0.008795,-88.633766,-0.217548,-0.413768
277,0.035859,-9.635888,0.217767,0.006627,0.078871,0.003122,-88.633591,-0.217285,-0.416494
278,0.033025,-9.631858,0.219153,0.001732,0.082136,0.015956,-88.633446,-0.216903,-0.419169
279,0.032228,-9.631949,0.224803,0.027571,0.079200,0.015098,-88.632942,-0.216321,-0.421845
280,0.026940,-9.629499,0.223255,0.009133,0.078025,0.010697,-88.632332,-0.215829,-0.424454
281,0.027748,-9.624384,0.220366,-0.004029,0.074878,-0.001115,-88.632240,-0.215609,-0.426998
282,0.026057,-9.616143,0.221523,-0.001628,0.071958,0.014457,-88.632317,-0.215328,-0.429440
283,0.019865,-9.616628,0.219001,-0.006116,0.075419,0.035861,-88.632446,-0.214431,-0.431875
284,0.019387,-9.618139,0.220442,-0.015640,0.055623,0.033858,-88.632790,-0.213217,-0.434031
285,0.019832,-9.615456,0.220203,-0.006875,0.058629,0.039605,-88.633163,-0.211948,-0.435905
286,0.017910,-9.621213,0.217771,-0.020463,0.057200,0.050895,-88.633606,-0.210394,-0.437799
287,0.018915,-9.624106,0.217434,-0.007754,0.054056,0.042634,-88.634071,-0.208791,-0.439616
288,0.026075,-9.622569,0.218163,-0.008347,0.050488,0.006837,-88.634338,-0.207925,-0.441338
289,0.025642,-9.625605,0.217921,-0.003082,0.062715,0.010805,-88.634521,-0.207586,-0.443217
290,0.029793,-9.624002,0.219439,-0.001457,0.056330,-0.006276,-88.634590,-0.207464,-0.445199
291,0.035469,-9.622006,0.223032,-0.002837,0.051387,-0.020185,-88.634659,-0.207862,-0.447004
292,0.032424,-9.623256,0.219123,-0.031339,0.060722,-0.018538,-88.635231,-0.208463,-0.448888
293,0.032232,-9.626982,0.219489,-0.018052,0.065325,-0.017619,-88.636040,-0.209015,-0.451002
294,0.029882,-9.617629,0.215208,-0.032853,0.066979,-0.010424,-88.636887,-0.209430,-0.453218
295,0.026842,-9.623503,0.215648,-0.039195,0.071783,-0.005669,-88.638077,-0.209643,-0.455536
296,0.028086,-9.628010,0.217006,-0.021181,0.079344,-0.004616,-88.639069,-0.209754,-0.458058
297,0.029458,-9.626217,0.219919,-0.002782,0.070127,0.003576,-88.639458,-0.209713,-0.460549
298,0.028537,-9.626715,0.217734,-0.009161,0.065590,0.003272,-88.639648,-0.209545,-0.462808
299,0.029290,-9.638335,0.218497,0.000008,0.059440,-0.000447,-88.639793,-0.209448,-0.464890
300,0.029280,-9.635788,0.216683,-0.009760,0.060947,0.011743,-88.639954,-0.209212,-0.466892
301,0.026107,-9.639693,0.216032,-0.019556,0.062687,0.021115,-88.640434,-0.208616,-0.468939
302,0.027167,-9.636312,0.213995,-0.031300,0.062585,0.014621,-88.641273,-0.207971,-0.471012
303,0.027061,-9.638865,0.215565,-0.034070,0.058026,0.016193,-88.642357,-0.207410,-0.473009
304,0.030369,-9.632652,0.212719,-0.050787,0.069965,0.004526,-88.643761,-0.207014,-0.475134
305,0.032170,-9.635393,0.215289,-0.028949,0.074442,-0.008613,-88.645088,-0.207025,-0.477541
306,0.035183,-9.634305,0.213051,-0.034918,0.075735,-0.016043,-88.646141,-0.207377,-0.480053
307,0.036230,-9.640108,0.212601,-0.037693,0.077188,-0.021969,-88.647339,-0.207950,-0.482616
308,0.038357,-9.639821,0.214567,-0.022137,0.086224,-0.009701,-88.648331,-0.208414,-0.485352
309,0.035686,-9.642805,0.211392,-0.029799,0.081806,-0.003037,-88.649185,-0.208560,-0.488156
310,0.032738,-9.636353,0.209998,-0.031634,0.082000,0.010305,-88.650192,-0.208374,-0.490883
311,0.027348,-9.631888,0.213747,-0.019755,0.073262,0.012477,-88.651039,-0.207934,-0.493461
312,0.022391,-9.629187,0.214013,-0.010785,0.073609,0.025488,-88.651543,-0.207244,-0.495893
313,0.025638,-9.622599,0.215142,-0.012890,0.061181,0.004797,-88.651932,-0.206686,-0.498127
314,0.029606,-9.623162,0.223410,0.020994,0.073194,-0.011834,-88.651787,-0.206751,-0.500369
315,0.030856,-9.625360,0.221992,0.018064,0.077670,-0.006326,-88.651123,-0.206994,-0.502890
316,0.031317,-9.619796,0.217649,0.014316,0.097430,0.000016,-88.650581,-0.207031,-0.505810
317,0.036185,-9.617947,0.219180,0.004960,0.101683,-0.017524,-88.650238,-0.207244,-0.509134
318,0.034625,-9.622774,0.215546,-0.012489,0.110909,-0.023405,-88.650352,-0.207843,-0.512693
319,0.032808,-9.618524,0.212612,-0.030090,0.098805,-0.014687,-88.651047,-0.208395,-0.516202
320,0.039123,-9.612375,0.209218,-0.039509,0.101384,-0.040917,-88.652199,-0.209243,-0.519559
321,0.041807,-9.614313,0.207825,-0.050908,0.076777,-0.060692,-88.653694,-0.210866,-0.522568
322,0.038008,-9.614750,0.205587,-0.052353,0.073986,-0.045529,-88.655403,-0.212577,-0.525121
323,0.036843,-9.617101,0.205571,-0.054829,0.077141,-0.038133,-88.657181,-0.213912,-0.527672
324,0.038910,-9.618925,0.205372,-0.045572,0.078538,-0.040554,-88.658852,-0.215162,-0.530297
325,0.035406,-9.630016,0.209913,-0.033536,0.078849,-0.021752,-88.660149,-0.216139,-0.532943
326,0.033434,-9.631182,0.214941,-0.011959,0.086686,-0.001647,-88.660904,-0.216464,-0.535711
327,0.034408,-9.637296,0.220034,0.021424,0.100413,-0.001254,-88.660728,-0.216440,-0.538829
328,0.033870,-9.631206,0.226639,0.055114,0.102051,0.001803,-88.659439,-0.216352,-0.542203
329,0.033498,-9.629127,0.225422,0.050998,0.105112,0.001329,-88.657661,-0.216219,-0.545653
330,0.035739,-9.627679,0.226544,0.059648,0.103438,-0.009988,-88.655815,-0.216282,-0.549132
331,0.036229,-9.621203,0.219308,0.036104,0.104846,-0.009959,-88.654198,-0.216533,-0.552610
332,0.034498,-9.621155,0.214456,0.008620,0.085075,-0.004679,-88.653442,-0.216702,-0.555780
333,0.037266,-9.621571,0.214145,0.001139,0.077248,-0.015877,-88.653267,-0.216981,-0.558493
335,0.035725,-9.617041,0.216879,0.004871,0.071286,-0.009676,-88.653160,-0.217349,-0.560978
336,0.030685,-9.613203,0.213405,-0.011420,0.067026,-0.000615,-88.653267,-0.217466,-0.563286
337,0.031062,-9.615108,0.222575,0.009677,0.067105,-0.009268,-88.653290,-0.217578,-0.565525
338,0.030058,-9.612100,0.222791,0.013577,0.067180,-0.004701,-88.652893,-0.217758,-0.567768
339,0.027318,-9.613839,0.214791,-0.013648,0.070335,0.014279,-88.652878,-0.217545,-0.570055
340,0.028754,-9.621499,0.214111,-0.010127,0.064121,0.023731,-88.653275,-0.216859,-0.572281
341,0.027640,-9.625608,0.212172,-0.026707,0.056540,0.023719,-88.653885,-0.216021,-0.574273
342,0.031933,-9.637078,0.208298,-0.020417,0.053137,0.018299,-88.654663,-0.215278,-0.576084
343,0.036421,-9.635573,0.211510,-0.002822,0.062009,0.003059,-88.655037,-0.214877,-0.577994
344,0.037644,-9.637643,0.211898,0.004432,0.052769,-0.000755,-88.655006,-0.214794,-0.579905
345,0.042221,-9.632537,0.213778,0.001130,0.061624,-0.022105,-88.654900,-0.215130,-0.581820
346,0.046504,-9.631862,0.215421,0.018171,0.065923,-0.034710,-88.654572,-0.216026,-0.583968
347,0.040900,-9.628802,0.218687,0.017202,0.066360,-0.016145,-88.653976,-0.216822,-0.586192
348,0.038020,-9.628738,0.218875,-0.002400,0.061992,-0.016352,-88.653717,-0.217313,-0.588343
349,0.035731,-9.632589,0.223542,0.004961,0.071365,-0.010785,-88.653671,-0.217713,-0.590576
350,0.034177,-9.634531,0.216649,-0.009604,0.065297,-0.004413,-88.653740,-0.217913,-0.592859
351,0.034092,-9.636053,0.215687,-0.017147,0.062243,0.003595,-88.654182,-0.217877,-0.594984
352,0.034481,-9.635136,0.212679,-0.015174,0.078967,-0.006735,-88.654709,-0.217874,-0.597338
353,0.028815,-9.641644,0.212952,-0.000846,0.076314,0.023912,-88.654968,-0.217527,-0.599919
354,0.031190,-9.639853,0.212750,0.003327,0.077669,0.013643,-88.654915,-0.216841,-0.602470
355,0.031341,-9.639228,0.218416,0.015553,0.091448,0.000658,-88.654587,-0.216536,-0.605282
356,0.029809,-9.634009,0.219823,0.018370,0.102250,-0.004123,-88.654015,-0.216518,-0.608511
357,0.032379,-9.636067,0.218187,-0.003737,0.092896,-0.008677,-88.653763,-0.216655,-0.611768
358,0.032945,-9.630377,0.214810,-0.025766,0.095871,-0.017962,-88.654236,-0.217025,-0.614923
359,0.027028,-9.631160,0.218681,-0.015636,0.097859,0.001371,-88.654915,-0.217226,-0.618158
360,0.020124,-9.636053,0.220133,-0.023547,0.095310,0.034286,-88.655556,-0.216556,-0.621363
361,0.017552,-9.643877,0.223358,-0.003521,0.081785,0.049335,-88.655991,-0.215093,-0.624281
362,0.019785,-9.637110,0.219768,-0.013518,0.070895,0.042003,-88.656265,-0.213512,-0.626789
363,0.030145,-9.640408,0.219481,0.006882,0.067101,0.013559,-88.656364,-0.212532,-0.629066
364,0.036041,-9.636147,0.213553,-0.013489,0.054406,0.000100,-88.656471,-0.212257,-0.631086
365,0.034703,-9.633042,0.211835,-0.006179,0.045322,-0.003724,-88.656784,-0.212278,-0.632749
366,0.029206,-9.626044,0.212081,-0.009465,0.051812,0.004948,-88.657043,-0.212220,-0.634367
367,0.023689,-9.627765,0.214033,-0.000644,0.058322,0.024431,-88.657204,-0.211688,-0.636190
368,0.017263,-9.623572,0.214992,-0.006632,0.055725,0.047891,-88.657318,-0.210438,-0.638062
369,0.016375,-9.620329,0.215210,-0.004223,0.066459,0.045387,-88.657494,-0.208836,-0.640062
370,0.012870,-9.625757,0.214194,0.004642,0.059046,0.052070,-88.657478,-0.207163,-0.642115
371,0.018017,-9.627159,0.216098,0.022371,0.054113,0.034483,-88.657021,-0.205677,-0.643967
372,0.020711,-9.626151,0.219640,0.046451,0.060051,0.028833,-88.655869,-0.204577,-0.645844
373,0.023386,-9.626236,0.217037,0.038099,0.061350,0.017325,-88.654457,-0.203761,-0.647849
374,0.027277,-9.627809,0.214701,0.030298,0.068673,0.002341,-88.653313,-0.203382,-0.650008
375,0.035396,-9.627986,0.217139,0.024715,0.068125,-0.020455,-88.652390,-0.203630,-0.652294
376,0.041557,-9.629281,0.215084,0.002751,0.073776,-0.031023,-88.651924,-0.204432,-0.654679
377,0.042561,-9.629978,0.212573,-0.023353,0.066057,-0.045837,-88.652267,-0.205658,-0.657039
378,0.041501,-9.633244,0.214489,-0.033017,0.070742,-0.043585,-88.653191,-0.207095,-0.659353
379,0.039121,-9.627227,0.215758,-0.028424,0.066363,-0.041992,-88.654205,-0.208467,-0.661671
380,0.039731,-9.626065,0.213839,-0.038169,0.075471,-0.027894,-88.655312,-0.209576,-0.664062
381,0.032808,-9.624477,0.210094,-0.042608,0.074402,-0.006768,-88.656647,-0.210095,-0.666572
382,0.031400,-9.625152,0.217180,-0.010270,0.068482,0.011433,-88.657516,-0.209961,-0.668951
383,0.030983,-9.624437,0.220546,0.010883,0.074652,0.012616,-88.657494,-0.209505,-0.671327
384,0.032521,-9.634050,0.223126,0.022448,0.065412,0.014026,-88.656937,-0.209006,-0.673650
385,0.027953,-9.632628,0.222557,0.022088,0.065718,0.016679,-88.656181,-0.208443,-0.675823
386,0.030108,-9.632817,0.222959,0.010676,0.064039,0.016121,-88.655632,-0.207846,-0.677972
387,0.027837,-9.632401,0.222073,-0.001376,0.077914,0.021067,-88.655472,-0.207171,-0.680323
388,0.031171,-9.626664,0.217903,0.001772,0.066948,0.004683,-88.655464,-0.206685,-0.682727
389,0.025883,-9.625716,0.217925,-0.004243,0.081045,0.030866,-88.655495,-0.206035,-0.685179
390,0.029272,-9.623875,0.222321,0.015057,0.082375,0.023523,-88.655312,-0.205065,-0.687881
391,0.025107,-9.627090,0.223337,0.034537,0.079614,0.035484,-88.654472,-0.204018,-0.690557
392,0.022784,-9.627748,0.218717,0.026418,0.075137,0.046494,-88.653450,-0.202592,-0.693103
393,0.018348,-9.629104,0.220085,0.022225,0.070867,0.066664,-88.652634,-0.200649,-0.695491
394,0.017248,-9.631832,0.215853,0.009017,0.055619,0.061414,-88.652100,-0.198465,-0.697549
395,0.018333,-9.640311,0.215410,0.002249,0.058566,0.066362,-88.651909,-0.196292,-0.699401
396,0.019956,-9.642162,0.212671,-0.012256,0.070609,0.060523,-88.652061,-0.194127,-0.701504
397,0.022540,-9.643243,0.217541,0.000639,0.061299,0.039613,-88.652245,-0.192407,-0.703662
398,0.024626,-9.645655,0.216500,-0.014766,0.079435,0.028035,-88.652473,-0.191224,-0.705981
399,0.026331,-9.641068,0.218570,-0.005185,0.085428,0.020847,-88.652794,-0.190345,-0.708708
400,0.026096,-9.633618,0.219272,-0.011620,0.090021,0.014965,-88.653069,-0.189680,-0.711618
401,0.026535,-9.625670,0.222637,-0.013164,0.079335,0.008707,-88.653473,-0.189219,-0.714430
402,0.027897,-9.626360,0.220253,-0.010965,0.086841,0.010553,-88.653870,-0.188833,-0.717192
403,0.030134,-9.626298,0.223065,-0.000892,0.071450,0.014399,-88.654053,-0.188355,-0.719819
404,0.032469,-9.628363,0.221063,-0.005384,0.065158,0.013340,-88.654152,-0.187840,-0.722085
405,0.031634,-9.628959,0.221411,0.010898,0.056058,0.012518,-88.654060,-0.187361,-0.724094
406,0.033944,-9.629278,0.219405,0.027728,0.060449,-0.006799,-88.653412,-0.187220,-0.726033
407,0.036644,-9.625731,0.219928,0.029172,0.064840,-0.021056,-88.652443,-0.187635,-0.728132
408,0.037960,-9.625243,0.219589,0.035321,0.061695,-0.032422,-88.651367,-0.188477,-0.730261
409,0.038664,-9.625915,0.221411,0.038606,0.064722,-0.034114,-88.650131,-0.189536,-0.732393
410,0.038650,-9.627240,0.215147,0.013129,0.061619,-0.036607,-88.649269,-0.190665,-0.734526
411,0.043001,-9.629719,0.215111,0.003217,0.062849,-0.045933,-88.648979,-0.191991,-0.736633
412,0.035430,-9.634189,0.212453,-0.005173,0.054211,-0.022738,-88.649002,-0.193089,-0.738610
413,0.031981,-9.636579,0.212878,-0.007162,0.062099,-0.008868,-88.649200,-0.193570,-0.740561
414,0.026853,-9.630965,0.213857,0.002262,0.062474,0.005049,-88.649277,-0.193585,-0.742638
415,0.025774,-9.629136,0.212025,0.001496,0.068636,-0.006985,-88.649208,-0.193565,-0.744823
416,0.023679,-9.629494,0.216447,0.013010,0.062724,0.016053,-88.648956,-0.193363,-0.747008
417,0.029031,-9.628216,0.218229,0.002972,0.062364,-0.003001,-88.648682,-0.193096,-0.749087
418,0.030000,-9.624851,0.214142,-0.010664,0.057674,-0.018242,-88.648804,-0.193403,-0.751096
419,0.034356,-9.629066,0.215435,-0.004035,0.063489,-0.037105,-88.649040,-0.194277,-0.753136
420,0.033565,-9.627658,0.219154,0.019406,0.062066,-0.025180,-88.648773,-0.195266,-0.755253
421,0.032778,-9.629433,0.217215,0.025562,0.072794,-0.020804,-88.648018,-0.195979,-0.757518
422,0.032747,-9.623639,0.213586,0.029987,0.074292,-0.008205,-88.647079,-0.196405,-0.759980
423,0.031856,-9.624091,0.217789,0.051105,0.080503,0.009924,-88.645721,-0.196315,-0.762558
424,0.032670,-9.624525,0.219974,0.052285,0.081991,0.012043,-88.643997,-0.195885,-0.765257
425,0.030787,-9.619432,0.220892,0.033108,0.080599,0.021964,-88.642563,-0.195254,-0.767953
426,0.030765,-9.619537,0.222580,0.012967,0.074504,0.007990,-88.641785,-0.194694,-0.770526
427,0.030285,-9.621511,0.224624,0.010876,0.074551,0.003061,-88.641373,-0.194451,-0.773005
428,0.026989,-9.622182,0.220950,-0.007957,0.062537,0.000563,-88.641312,-0.194336,-0.775287
429,0.025620,-9.625016,0.218883,-0.008258,0.056507,0.003101,-88.641586,-0.194228,-0.777269
430,0.031153,-9.633881,0.217918,0.000577,0.059159,0.003475,-88.641708,-0.194073,-0.779194
