seq,ax,ay,az,wroll,wpitch,wyaw,roll,pitch,yaw,q0,q1,q2,q3
60,0.177568,-3.473113,8.886163,-10.906132,-2.451065,3.141451,-21.347799,-1.066235,0.416701,0.982655,-0.185176,-0.009817,0.001850
61,-0.197714,-7.405849,6.645282,-3.518224,-1.974828,2.763122,-21.977278,-1.015826,0.489989,0.981625,-0.190568,-0.009517,0.002508
62,-0.229108,-7.263363,6.466880,2.041969,-1.495219,2.670352,-22.642302,-0.979926,0.606636,0.980502,-0.196254,-0.009424,0.003512
63,-0.397380,-7.135208,6.429547,3.133842,-1.500528,3.639797,-23.389894,-0.892657,0.736480,0.979201,-0.202642,-0.008931,0.004714
64,-0.381881,-7.215138,6.592813,1.367985,-1.867360,4.079795,-24.116241,-0.787062,0.888646,0.977895,-0.208841,-0.008337,0.006149
65,-0.341556,-7.149079,6.744862,1.786149,-1.852791,4.130639,-24.822626,-0.690597,1.048739,0.976583,-0.214861,-0.007852,0.007643
66,-0.301635,-6.967135,6.775047,0.724657,-2.518879,3.983063,-25.490236,-0.613349,1.210203,0.975305,-0.220544,-0.007550,0.009120
67,-0.138866,-6.921373,6.935269,-1.764619,-2.951699,3.052585,-26.168785,-0.580720,1.362106,0.973970,-0.226308,-0.007627,0.010430
68,-0.106398,-6.865548,7.042494,-3.501207,-3.284074,0.930209,-26.723993,-0.611172,1.472207,0.972851,-0.231014,-0.008158,0.011267
69,-0.115927,-6.804668,7.070737,-3.020384,-2.443121,-1.025910,-27.122532,-0.676701,1.516748,0.972036,-0.234384,-0.008844,0.011482
70,-0.114095,-6.789394,7.035910,-2.931622,-1.489241,-2.795857,-27.500868,-0.742608,1.493210,0.971258,-0.237586,-0.009391,0.011116
71,-0.063521,-6.780109,6.976314,-3.245666,-0.427035,-3.840994,-27.878227,-0.802199,1.413372,0.970475,-0.240783,-0.009765,0.010284
72,-0.140673,-6.762995,6.853287,-4.246366,0.848820,-4.658755,-28.275867,-0.840189,1.288635,0.969643,-0.244155,-0.009856,0.009114
73,-0.137296,-6.764040,6.827322,-5.134130,2.005690,-4.551778,-28.702700,-0.844633,1.134755,0.968738,-0.247778,-0.009595,0.007766
74,-0.135810,-6.778946,6.821840,-6.789385,1.841109,-3.906147,-29.166979,-0.829653,0.984115,0.967736,-0.251714,-0.009169,0.006488
75,-0.078114,-6.888373,6.792776,-9.245731,1.208041,-3.411597,-29.698359,-0.821337,0.856581,0.966566,-0.256210,-0.008844,0.005388
76,-0.087309,-7.120493,6.793391,-10.574464,0.942697,-3.058970,-30.297365,-0.822942,0.748920,0.965218,-0.261267,-0.008640,0.004432
77,-0.025871,-7.192531,6.707792,-9.600611,0.419446,-2.044103,-30.906387,-0.828073,0.667870,0.963818,-0.266399,-0.008518,0.003692
78,-0.002088,-7.147319,6.599184,-9.069255,-0.006181,-0.998736,-31.488712,-0.833909,0.624673,0.962453,-0.271296,-0.008483,0.003272
79,0.018969,-7.211631,6.581400,-8.853720,0.117505,-0.040357,-32.054462,-0.828987,0.612723,0.961102,-0.276046,-0.008429,0.003142
80,-0.011409,-7.266104,6.597123,-6.805495,0.094707,0.919550,-32.577507,-0.805207,0.626925,0.959833,-0.280430,-0.008279,0.003280
81,-0.000022,-7.275829,6.589881,-4.078162,-0.131034,1.581906,-33.014301,-0.769458,0.665845,0.958758,-0.284086,-0.008089,0.003663
82,0.010545,-7.277894,6.548023,-2.093610,-0.663460,1.916223,-33.490822,-0.730726,0.726840,0.957567,-0.288069,-0.007934,0.004237
83,0.042477,-7.354466,6.527934,-1.041075,-1.128743,1.583729,-34.036980,-0.704080,0.798195,0.956182,-0.292627,-0.007914,0.004862
84,0.068089,-7.345348,6.547296,0.438842,-1.468956,0.898707,-34.528641,-0.704090,0.862639,0.954914,-0.296722,-0.008101,0.005365
85,0.115457,-7.264237,6.566885,1.131634,-1.424694,-0.274655,-34.958618,-0.732817,0.904182,0.953791,-0.300298,-0.008469,0.005605
86,0.110459,-7.177137,6.587559,1.099895,-1.314847,-0.921597,-35.348774,-0.780306,0.919487,0.952761,-0.303538,-0.008924,0.005578
87,0.125363,-7.204955,6.681042,1.318660,-0.899813,-1.338121,-35.710396,-0.830536,0.915568,0.951797,-0.306539,-0.009348,0.005383
88,0.093941,-7.192647,6.814804,3.039207,-0.518321,-1.795827,-36.012337,-0.875154,0.892326,0.950985,-0.309044,-0.009670,0.005045
89,0.061541,-7.136376,6.811795,4.250339,-0.553344,-2.108524,-36.240807,-0.914969,0.855454,0.950367,-0.310940,-0.009910,0.004611
90,0.001737,-7.121741,6.804651,4.291210,-0.864475,-1.839781,-36.435802,-0.949730,0.821644,0.949836,-0.312556,-0.010114,0.004220
91,-0.020898,-7.123452,6.804847,4.164305,-1.083979,-1.215441,-36.625187,-0.973657,0.805333,0.949318,-0.314125,-0.010274,0.004002
92,-0.007579,-7.103325,6.783712,4.167163,-1.414861,0.004021,-36.811073,-0.984752,0.819389,0.948806,-0.315663,-0.010411,0.004071
93,0.016467,-7.036331,6.677107,4.199045,-1.848006,1.701081,-36.994137,-0.979885,0.880172,0.948298,-0.317173,-0.010546,0.004571
94,-0.012660,-7.015559,6.681591,4.436975,-2.246050,3.593464,-37.168858,-0.949204,0.997070,0.947810,-0.318610,-0.010624,0.005607
95,-0.065157,-7.033026,6.741292,5.494432,-3.031619,5.582023,-37.312290,-0.887331,1.177133,0.947403,-0.319786,-0.010622,0.007255
96,-0.011527,-6.981461,6.745880,6.664928,-4.090339,6.862540,-37.407261,-0.818087,1.418690,0.947122,-0.320557,-0.010731,0.009437
98,-0.066862,-6.915308,6.923427,5.174456,-4.605841,6.899411,-37.483276,-0.757941,1.692915,0.946884,-0.321167,-0.011009,0.011864
99,-0.075507,-6.867891,7.055953,3.694982,-4.764241,6.168762,-37.576641,-0.709191,1.964010,0.946592,-0.321919,-0.011378,0.014232
100,-0.012576,-6.766241,7.175793,2.354670,-4.417612,5.210702,-37.686436,-0.681718,2.210260,0.946250,-0.322805,-0.011858,0.016332
101,0.091942,-6.664495,7.227943,0.981078,-3.633177,3.559762,-37.811810,-0.682940,2.410121,0.945867,-0.323819,-0.012451,0.017965
102,0.088668,-6.546865,7.300032,-0.537201,-2.561949,1.055764,-37.956879,-0.712056,2.536024,0.945436,-0.324996,-0.013071,0.018906
103,0.134925,-6.520895,7.343227,-0.562902,-1.860021,-1.274303,-38.104404,-0.770871,2.580113,0.945010,-0.326196,-0.013706,0.019085
104,0.168964,-6.553934,7.436588,-0.390102,-1.290898,-3.547950,-38.235363,-0.866524,2.550864,0.944642,-0.327260,-0.014433,0.018554
105,0.171519,-6.675504,7.436677,1.022051,-0.894199,-5.200544,-38.308704,-0.989842,2.460135,0.944446,-0.327851,-0.015201,0.017444
106,0.211534,-6.689938,7.358990,2.646526,0.236483,-6.706643,-38.308449,-1.124348,2.312188,0.944466,-0.327842,-0.015886,0.015840
107,0.201936,-6.785129,7.370003,3.860473,1.586901,-6.644083,-38.265045,-1.240552,2.119925,0.944612,-0.327490,-0.016289,0.013928
108,0.288287,-6.752081,7.197247,5.954392,2.889967,-5.409638,-38.214626,-1.313851,1.918363,0.944776,-0.327090,-0.016311,0.012064
109,0.283540,-6.570907,6.985979,6.500546,4.539362,-4.391901,-38.167740,-1.331245,1.717035,0.944928,-0.326729,-0.015876,0.010361
110,0.228229,-6.432590,6.995378,3.667223,6.652698,-2.975862,-38.114136,-1.267187,1.507961,0.945102,-0.326324,-0.014747,0.008827
111,0.134589,-6.378058,7.129599,0.408695,8.700506,-1.187445,-38.109570,-1.105265,1.296917,0.945138,-0.326333,-0.012811,0.007548
112,0.145724,-6.291423,7.359155,1.523636,10.658308,-1.507845,-38.124329,-0.873359,1.063417,0.945120,-0.326503,-0.010234,0.006282
113,0.022870,-6.230588,7.458850,8.844680,12.342990,-2.855181,-37.982441,-0.608117,0.770489,0.945545,-0.325378,-0.007206,0.004631
114,-0.202551,-6.396074,7.629393,17.441431,13.313642,-3.590545,-37.572693,-0.314888,0.424251,0.946719,-0.322027,-0.003794,0.002620
115,-0.252699,-6.422960,7.565403,24.355003,13.239103,-4.557799,-36.914585,-0.015073,0.049061,0.948560,-0.316598,-0.000260,0.000364
116,-0.264302,-6.412555,7.621442,29.377857,13.199648,-5.578475,-36.069221,0.266391,-0.348101,0.950865,-0.309582,0.003151,-0.002169
117,-0.376335,-6.376747,7.419774,30.373642,12.328579,-3.324513,-35.140694,0.554922,-0.716024,0.953326,-0.301838,0.006503,-0.004495
118,-0.464837,-6.263115,7.333552,24.018858,11.172212,-0.447948,-34.320568,0.875666,-0.990986,0.955439,-0.294963,0.009853,-0.006008
119,-0.320334,-6.014310,7.335473,15.582680,10.000530,2.448406,-33.750126,1.214025,-1.161758,0.956868,-0.290152,0.013080,-0.006626
120,-0.359986,-5.812952,7.600353,11.765618,9.393357,4.818251,-33.368584,1.567059,-1.240884,0.957798,-0.286912,0.016207,-0.006446
121,-0.490056,-5.662026,7.670907,9.996510,6.710948,7.946493,-33.060974,1.927534,-1.211248,0.958530,-0.284299,0.019131,-0.005346
122,-0.413249,-5.626794,7.774283,9.115326,4.152156,8.077817,-32.810680,2.245278,-1.087666,0.959113,-0.282186,0.021474,-0.003570
123,-0.410640,-5.568239,7.836855,8.276691,2.550056,5.293042,-32.605907,2.472132,-0.963633,0.959585,-0.280467,0.023064,-0.002014
124,-0.488372,-5.587947,7.911648,7.355910,1.849728,1.885665,-32.407566,2.605118,-0.904650,0.960047,-0.278801,0.024031,-0.001236
125,-0.355364,-5.600892,7.826005,5.969622,0.986033,-1.469897,-32.261276,2.644098,-0.927405,0.960396,-0.277566,0.024411,-0.001363
126,-0.181383,-5.671422,7.697617,4.369581,1.613032,-6.147005,-32.182285,2.592007,-1.062040,0.960593,-0.276882,0.024299,-0.002634
127,-0.335774,-5.525656,7.610244,2.382167,3.393656,-9.810869,-32.147736,2.503596,-1.334895,0.960681,-0.276547,0.024215,-0.005143
128,-0.315147,-5.525036,7.643153,1.772698,4.486154,-9.240247,-32.155735,2.436382,-1.676695,0.960652,-0.276552,0.024477,-0.008169
129,-0.199713,-5.569890,7.603296,3.554332,4.800382,-7.958573,-32.145554,2.399865,-2.004826,0.960655,-0.276403,0.024962,-0.011010
130,-0.356943,-5.633184,7.467436,5.647157,4.691958,-6.766916,-32.078976,2.391595,-2.300212,0.960784,-0.275781,0.025597,-0.013521
131,-0.584281,-5.692611,7.411755,7.622372,4.278522,-4.185036,-31.953632,2.429894,-2.538042,0.961051,-0.274668,0.026474,-0.015452
132,-0.447142,-6.022321,7.504304,9.303886,3.004528,-1.024827,-31.835733,2.501239,-2.682679,0.961303,-0.273627,0.027402,-0.016521
133,-0.481974,-6.344397,7.577086,12.211356,1.852591,1.132791,-31.726536,2.580419,-2.734485,0.961546,-0.272679,0.028173,-0.016793
134,-0.603690,-6.316981,7.552641,15.207779,0.328350,3.008148,-31.470247,2.660813,-2.703589,0.962147,-0.270515,0.028738,-0.016406
135,-0.591153,-6.443930,7.470500,16.698687,-0.869342,4.360138,-31.078417,2.731572,-2.600338,0.963071,-0.267232,0.029035,-0.015471
136,-0.369541,-6.532000,7.536062,17.955992,-1.092071,3.320929,-30.653589,2.771230,-2.480941,0.964064,-0.263680,0.029036,-0.014482
137,-0.504983,-6.290578,7.428566,19.312454,-1.020337,1.419545,-30.189581,2.778136,-2.402626,0.965133,-0.259792,0.028858,-0.013925
138,-0.612012,-6.082705,7.491210,18.206156,-1.693152,-0.588590,-29.715956,2.755208,-2.375357,0.966205,-0.255813,0.028546,-0.013865
139,-0.654431,-6.217938,7.643192,16.382689,-2.520025,-1.768111,-29.291159,2.691143,-2.382115,0.967156,-0.252243,0.027969,-0.014169
140,-0.594596,-6.087568,7.869192,15.035344,-3.403367,-2.651608,-28.916269,2.584419,-2.405347,0.967989,-0.249096,0.027071,-0.014690
141,-0.710804,-5.762971,8.007073,13.700421,-4.520149,-2.093077,-28.564236,2.449908,-2.416886,0.968767,-0.246148,0.025914,-0.015161
142,-0.640785,-5.708988,8.165233,12.208497,-5.627743,-0.942459,-28.240705,2.300460,-2.385574,0.969482,-0.243452,0.024541,-0.015287
143,-0.525872,-5.658120,8.185636,11.618426,-5.178954,-1.044656,-27.947830,2.142574,-2.334212,0.970127,-0.241018,0.023057,-0.015248
144,-0.449942,-5.429741,8.233958,11.986715,-3.501855,-0.959190,-27.651690,2.009184,-2.300026,0.970766,-0.238545,0.021817,-0.015297
145,-0.473399,-4.969522,8.288856,13.261662,-2.590770,-0.422038,-27.302759,1.919121,-2.276225,0.971500,-0.235611,0.020958,-0.015347
146,-0.302522,-4.984674,8.453705,14.687860,-2.244329,0.517940,-26.889931,1.853521,-2.239922,0.972354,-0.232129,0.020272,-0.015248
147,-0.273722,-4.753188,8.560092,17.762152,-1.530218,0.131853,-26.392668,1.798832,-2.203532,0.973362,-0.227924,0.019669,-0.015135
148,-0.236272,-4.528767,8.748955,20.197269,-2.589258,1.738620,-25.784292,1.745228,-2.146227,0.974572,-0.222773,0.019021,-0.014857
149,-0.127757,-4.382867,8.813485,22.351740,-3.984058,1.860638,-25.085752,1.660253,-2.045489,0.975932,-0.216860,0.018016,-0.014276
150,0.173522,-4.689658,8.855095,23.030489,-3.879041,0.459701,-24.355892,1.526995,-1.956607,0.977316,-0.210677,0.016625,-0.013878
151,-0.030609,-4.501774,8.903974,23.179588,-3.317797,-1.681324,-23.629059,1.375765,-1.928075,0.978648,-0.204503,0.015194,-0.014010
152,-0.150726,-4.573453,9.070183,21.560114,-3.349981,-1.078658,-22.930025,1.239801,-1.927841,0.979886,-0.198551,0.013945,-0.014336
153,-0.130563,-4.808303,9.099896,19.903818,-2.429920,-1.370158,-22.306038,1.126633,-1.930093,0.980960,-0.193231,0.012902,-0.014622
154,-0.228286,-4.789852,9.228223,17.212774,-1.781423,-1.950037,-21.771530,1.037694,-1.956850,0.981851,-0.188664,0.012116,-0.015058
155,-0.459247,-4.640389,9.467822,14.277632,-1.680583,-2.752638,-21.326353,0.968508,-2.010004,0.982573,-0.184854,0.011550,-0.015673
156,-0.444782,-4.585478,9.492178,12.346604,-2.241894,-4.017553,-20.957130,0.891057,-2.092787,0.983155,-0.181692,0.010966,-0.016543
157,-0.378860,-4.504760,9.420161,10.908430,-2.565181,-6.989988,-20.646976,0.772977,-2.236893,0.983625,-0.179038,0.010133,-0.017994
158,-0.326503,-4.078107,9.274549,11.762308,-2.392572,-11.691305,-20.336287,0.605373,-2.500427,0.984066,-0.176380,0.009050,-0.020543
159,-0.413107,-3.936414,8.965245,13.026763,-1.423381,-16.018753,-19.980558,0.410493,-2.912565,0.984529,-0.173334,0.007936,-0.024407
160,-0.529660,-3.860772,8.780754,13.035326,0.072384,-16.610685,-19.608374,0.243079,-3.416936,0.984966,-0.170143,0.007166,-0.029017
161,-0.495275,-3.817228,8.755369,11.249353,0.449719,-13.125321,-19.269297,0.131942,-3.887291,0.985334,-0.167230,0.006811,-0.033245
162,-0.231234,-3.503917,8.818716,9.907537,0.498862,-9.069303,-18.970125,0.058974,-4.241951,0.985656,-0.164659,0.006606,-0.036419
163,-0.153889,-3.326119,9.004917,10.232141,1.126253,-3.968053,-18.676336,0.039428,-4.456315,0.986004,-0.162125,0.006648,-0.038308
164,-0.075857,-3.187592,9.198813,11.502947,0.702245,0.284770,-18.343157,0.070047,-4.524147,0.986450,-0.159243,0.006894,-0.038868
165,0.053076,-3.257240,9.323746,15.433583,-0.298728,1.990766,-17.909060,0.091983,-4.490163,0.987059,-0.155500,0.006890,-0.038572
166,0.297742,-2.947520,9.020543,19.420732,0.615123,-1.131335,-17.337317,0.082508,-4.478199,0.987826,-0.150577,0.006600,-0.038515
167,0.232905,-3.102381,8.936340,19.364107,2.326942,-2.921332,-16.707642,0.081305,-4.557442,0.988611,-0.145143,0.006478,-0.039236
168,0.050588,-3.182705,9.067459,14.462465,1.707267,-4.869985,-16.181108,0.093299,-4.701338,0.989218,-0.140586,0.006578,-0.040493
169,0.027023,-3.199821,9.064059,8.441926,0.864886,-4.343563,-15.875909,0.084555,-4.860912,0.989531,-0.137945,0.006587,-0.041899
170,-0.366051,-3.080193,9.003868,1.534795,-0.377088,-2.971722,-15.789193,0.072450,-4.980543,0.989591,-0.137194,0.006594,-0.042951
171,-0.721517,-3.309982,9.391395,-4.502317,-2.667006,2.607202,-15.893810,0.073504,-4.972633,0.989468,-0.138098,0.006632,-0.042876
172,-0.508212,-3.379985,9.500989,-7.750095,-5.858690,7.473534,-16.158617,0.040600,-4.772192,0.989218,-0.140407,0.006202,-0.041170
173,-0.342987,-3.339183,9.542572,-9.365090,-8.542416,8.930900,-16.500700,-0.073651,-4.442655,0.988903,-0.143415,0.004926,-0.038451
174,-0.204027,-3.311061,9.691680,-9.310615,-9.888033,9.782440,-16.858803,-0.252426,-4.055953,0.988564,-0.146576,0.003010,-0.035328
175,0.114815,-3.290772,9.826596,-7.504254,-8.890012,9.695482,-17.174999,-0.449790,-3.653985,0.988260,-0.149366,0.000881,-0.032110
176,0.793175,-3.103230,9.962826,-4.130581,-6.784574,4.862772,-17.386761,-0.662851,-3.344564,0.988048,-0.151247,-0.001305,-0.029721
177,-0.082313,-2.877225,9.619249,-0.692621,-4.483698,-3.809130,-17.463150,-0.859803,-3.271574,0.987947,-0.151951,-0.003080,-0.029353
178,0.048986,-3.292852,9.352074,-0.457728,0.551991,-4.967263,-17.490536,-0.951968,-3.391318,0.987870,-0.152213,-0.003708,-0.030508
179,-0.111078,-3.285880,9.287576,-2.643180,3.440739,-6.075026,-17.571789,-0.925842,-3.586360,0.987711,-0.152913,-0.003201,-0.032157
180,0.029183,-3.410771,9.335840,-7.813389,3.213561,-6.757050,-17.779802,-0.865512,-3.823262,0.987370,-0.154695,-0.002303,-0.034123
181,-0.350551,-3.713802,9.041295,-14.605870,2.794219,-4.161349,-18.209152,-0.795976,-4.026551,0.986729,-0.158376,-0.001296,-0.035786
182,0.260302,-3.740606,9.402983,-21.195484,2.620439,0.001441,-18.871483,-0.714015,-4.120290,0.985777,-0.164053,-0.000249,-0.036482
183,0.112517,-3.359615,9.282887,-22.866751,0.310137,1.165711,-19.643414,-0.666868,-4.117488,0.984655,-0.170676,0.000397,-0.036389
184,0.300435,-3.325579,9.140891,-22.743263,-0.613129,2.398630,-20.415655,-0.660046,-4.059833,0.983501,-0.177306,0.000612,-0.035880
185,0.413533,-3.121898,8.744208,-19.486904,-0.918548,4.716425,-21.117367,-0.666887,-3.939718,0.982434,-0.183328,0.000581,-0.034857
186,0.360086,-3.059063,8.671272,-14.559486,-1.349128,5.082542,-21.666298,-0.671538,-3.773762,0.981593,-0.188034,0.000436,-0.033440
187,0.390098,-3.233982,8.605226,-9.439776,-1.833105,6.811313,-22.045742,-0.674835,-3.570081,0.981023,-0.191285,0.000178,-0.031700
188,0.457457,-3.350877,8.783256,-5.057133,-2.263715,7.880865,-22.271742,-0.678076,-3.317583,0.980711,-0.193220,-0.000213,-0.029544
189,0.423937,-3.580907,8.985869,-1.132265,-2.435062,7.671628,-22.359400,-0.700308,-3.048154,0.980627,-0.193974,-0.000837,-0.027276
190,0.204728,-3.790476,9.193742,1.750290,-2.176011,6.668949,-22.343931,-0.719071,-2.797927,0.980709,-0.193843,-0.001424,-0.025166
191,0.252071,-3.869550,9.359150,3.376910,-2.496584,6.569710,-22.263157,-0.721301,-2.564212,0.980894,-0.193149,-0.001855,-0.023169
192,0.207027,-3.920991,9.332064,4.737981,-3.128406,6.337734,-22.136284,-0.736489,-2.329545,0.981152,-0.192061,-0.002404,-0.021183
193,0.012709,-3.902257,9.279208,4.980503,-3.136020,5.258913,-21.987162,-0.758894,-2.111061,0.981437,-0.190782,-0.002987,-0.019346
194,0.079218,-3.982430,9.079724,4.807735,-3.744768,5.583978,-21.860718,-0.787273,-1.900109,0.981679,-0.189697,-0.003601,-0.017582
195,-0.050281,-3.895694,9.071750,4.677519,-4.246587,5.826693,-21.757048,-0.817257,-1.673310,0.981880,-0.188805,-0.004247,-0.015685
196,-0.015212,-3.784101,8.988979,5.408029,-4.272222,4.461118,-21.632904,-0.852710,-1.460850,0.982109,-0.187736,-0.004916,-0.013917
197,-0.009580,-3.733135,8.971972,6.076046,-3.388431,4.224716,-21.478134,-0.888042,-1.278711,0.982379,-0.186404,-0.005534,-0.012407
198,0.169786,-3.736043,9.032231,6.231365,-2.544473,3.791407,-21.308079,-0.918032,-1.117682,0.982669,-0.184940,-0.006070,-0.011066
199,0.000619,-3.614342,9.141910,6.858311,-1.123712,0.741134,-21.112375,-0.934256,-1.024778,0.982990,-0.183258,-0.006376,-0.010285
201,0.194523,-3.644621,9.107902,6.763543,0.422159,-2.119930,-20.901070,-0.941591,-1.041727,0.983325,-0.181446,-0.006431,-0.010430
202,0.075028,-3.688049,9.098966,6.229159,1.588012,-3.120914,-20.713991,-0.936324,-1.134777,0.983611,-0.179846,-0.006257,-0.011210
203,0.090750,-3.677010,9.103563,5.438323,1.765158,-4.483505,-20.558027,-0.913550,-1.272403,0.983843,-0.178512,-0.005862,-0.012348
204,0.005659,-3.746599,9.120980,4.729785,1.188556,-5.035807,-20.436819,-0.901574,-1.437408,0.984013,-0.177479,-0.005517,-0.013740
205,0.117041,-3.604977,9.147856,4.031963,0.636340,-3.889766,-20.335833,-0.906576,-1.586663,0.984150,-0.176619,-0.005342,-0.015024
206,0.085093,-3.584106,9.242184,3.262575,0.007756,-2.163902,-20.244875,-0.920919,-1.684503,0.984276,-0.175844,-0.005327,-0.015883
207,0.174333,-3.541233,9.203816,2.477972,-0.393513,-0.428903,-20.176249,-0.936496,-1.722385,0.984374,-0.175258,-0.005412,-0.016229
208,0.191032,-3.514572,9.310943,1.318052,-1.028339,-0.195448,-20.134676,-0.966574,-1.723639,0.984434,-0.174904,-0.005675,-0.016283
209,0.262265,-3.429841,9.232265,1.137868,-1.374838,1.362483,-20.106781,-1.009524,-1.691387,0.984477,-0.174668,-0.006097,-0.016070
210,0.238224,-3.617641,9.135745,0.154882,-1.808349,1.911766,-20.115503,-1.056216,-1.621385,0.984469,-0.174744,-0.006604,-0.015540
211,0.269444,-3.424798,9.031868,-0.857165,-1.974821,1.865942,-20.164509,-1.109079,-1.539895,0.984400,-0.175166,-0.007176,-0.014924
212,0.151774,-3.504375,9.159821,-2.247519,-2.106102,1.926965,-20.241598,-1.156399,-1.456604,0.984287,-0.175827,-0.007700,-0.014286
213,-0.026345,-3.444542,9.047394,-2.430860,-1.580946,1.035917,-20.343822,-1.171325,-1.388530,0.984137,-0.176702,-0.007920,-0.013731
214,0.031491,-3.337299,9.114711,-3.859206,-1.209864,0.837653,-20.457655,-1.173947,-1.342936,0.983966,-0.177677,-0.008000,-0.013351
215,-0.078618,-3.128864,9.216823,-4.683044,-1.240177,1.052881,-20.584753,-1.179295,-1.299479,0.983773,-0.178765,-0.008099,-0.012995
216,-0.124775,-3.313936,9.104712,-4.127417,-1.886890,0.702018,-20.713449,-1.188148,-1.254173,0.983575,-0.179867,-0.008231,-0.012629
217,-0.034744,-3.241844,8.980614,-5.933991,-2.211653,0.308425,-20.869898,-1.218421,-1.214501,0.983330,-0.181209,-0.008537,-0.012348
218,0.116829,-3.301924,9.080026,-8.196794,-2.196243,0.825767,-21.091770,-1.264225,-1.170910,0.982977,-0.183113,-0.008975,-0.012064
219,-0.105269,-3.392390,8.964140,-11.120362,-2.144173,-0.150755,-21.404131,-1.307417,-1.134491,0.982473,-0.185792,-0.009372,-0.011846
220,0.290125,-3.582119,8.724847,-13.552732,-1.301750,-0.414696,-21.820246,-1.352267,-1.122100,0.981788,-0.189360,-0.009733,-0.011848
221,0.256001,-3.538746,8.729548,-18.396116,-0.090218,-2.062714,-22.361708,-1.394762,-1.151371,0.980874,-0.194002,-0.009992,-0.012216
222,0.303210,-3.839334,8.111844,-21.458916,-0.694544,-0.703131,-23.051775,-1.430769,-1.188115,0.979680,-0.199911,-0.010162,-0.012653
223,0.634038,-3.939830,7.489300,-27.683804,-1.903344,-3.695567,-23.933180,-1.528095,-1.236255,0.978095,-0.207452,-0.010808,-0.013317
224,0.511486,-3.853913,7.038848,-34.201817,-1.421540,-3.088396,-25.040928,-1.666730,-1.313582,0.976015,-0.216914,-0.011713,-0.014342
225,0.388252,-4.177554,6.656338,-41.631004,-2.335832,-3.120528,-26.401041,-1.795520,-1.376068,0.973344,-0.228498,-0.012511,-0.015267
226,0.371538,-4.404067,6.444118,-47.769520,-2.171208,-1.309296,-28.014484,-1.913706,-1.403092,0.970008,-0.242191,-0.013239,-0.015920
227,0.438984,-4.258720,6.795905,-52.688572,-0.245665,-3.860699,-29.786222,-2.008750,-1.455196,0.966123,-0.257172,-0.013675,-0.016775
228,-0.067513,-4.677126,7.287053,-55.713539,2.519390,-0.839295,-31.647419,-2.005460,-1.539747,0.961807,-0.272838,-0.013172,-0.017697
229,0.105935,-5.074278,7.422714,-54.748096,3.491668,-1.983565,-33.531536,-1.915033,-1.632135,0.957193,-0.288618,-0.011891,-0.018455
230,0.310416,-5.435410,7.480529,-55.065918,4.871189,-0.628474,-35.400623,-1.813552,-1.746041,0.952357,-0.304195,-0.010443,-0.019324
231,0.387307,-6.035324,7.525620,-54.120323,5.110716,-1.534885,-37.264236,-1.705077,-1.871872,0.947280,-0.319643,-0.008879,-0.020230
232,0.197250,-6.503581,7.369141,-51.688625,3.639717,0.804378,-39.086712,-1.597287,-1.969636,0.942078,-0.334664,-0.007385,-0.020858
233,0.623239,-6.674199,6.997807,-47.221439,1.694050,1.495556,-40.806591,-1.517701,-1.995061,0.936957,-0.348759,-0.006342,-0.020932
234,0.536061,-6.996489,6.897441,-45.478069,0.926259,1.438915,-42.427570,-1.483600,-1.984736,0.931938,-0.361973,-0.005801,-0.020828
235,-0.160396,-6.937473,6.854180,-42.553493,0.141970,2.085968,-43.957806,-1.423640,-1.952194,0.927036,-0.374378,-0.005143,-0.020445
236,0.165057,-6.839138,6.439905,-40.678604,-1.052664,3.598330,-45.393951,-1.344277,-1.873552,0.922298,-0.385956,-0.004513,-0.019608
237,-0.118429,-6.893184,6.510201,-42.798447,-0.719872,2.634097,-46.820526,-1.269492,-1.779834,0.917448,-0.397398,-0.003995,-0.018653
238,-0.523685,-7.065393,6.253931,-44.397861,-0.779013,3.923900,-48.299679,-1.151437,-1.688186,0.912273,-0.409194,-0.003141,-0.017552
239,-0.214114,-7.507276,6.293355,-45.943909,-2.911875,5.848515,-49.836197,-1.011788,-1.535920,0.906744,-0.421375,-0.002360,-0.015875
240,0.236549,-7.853894,6.322343,-42.567287,-3.220000,4.096884,-51.339703,-0.931695,-1.352133,0.901171,-0.433227,-0.002216,-0.014156
241,-0.134801,-7.880940,6.450511,-38.841034,-2.737738,2.085804,-52.704311,-0.900227,-1.210714,0.895968,-0.443923,-0.002349,-0.012954
242,0.007011,-8.521221,6.317927,-33.430115,-3.039741,3.415052,-53.911530,-0.862884,-1.079295,0.891260,-0.453333,-0.002442,-0.011808
243,0.327481,-8.467187,6.379770,-26.902189,-3.059579,0.996456,-54.917446,-0.862754,-0.953948,0.887258,-0.461136,-0.002842,-0.010858
244,-0.093488,-8.570326,6.293684,-19.449394,-0.598238,-0.666772,-55.673111,-0.889083,-0.901068,0.884201,-0.466976,-0.003189,-0.010576
245,0.042297,-8.546407,6.297538,-16.903879,0.459329,-0.962665,-56.251541,-0.895868,-0.914957,0.881831,-0.471434,-0.003131,-0.010727
246,-0.040330,-9.030317,6.189318,-14.251592,0.944658,-0.252990,-56.747513,-0.885081,-0.946131,0.879780,-0.475247,-0.002872,-0.010935
247,0.196278,-8.691019,6.080149,-9.905556,2.185281,-2.737134,-57.129009,-0.890625,-1.017421,0.878185,-0.478175,-0.002581,-0.011514
248,-0.089761,-8.976505,6.163833,-7.178450,3.338938,-2.053438,-57.384109,-0.898001,-1.138561,0.877105,-0.480132,-0.002104,-0.012478
249,0.265804,-8.785700,6.013307,-5.311962,2.826268,-1.896212,-57.562244,-0.891305,-1.261071,0.876345,-0.481496,-0.001519,-0.013390
250,0.029652,-8.874977,5.838598,-3.291415,2.858324,-2.285311,-57.681499,-0.897762,-1.378769,0.875828,-0.482410,-0.001058,-0.014318
251,0.154639,-8.583265,5.855369,-0.774923,3.322244,-2.564503,-57.723186,-0.904566,-1.509435,0.875635,-0.482730,-0.000555,-0.015345
252,0.268401,-8.822571,5.874139,-0.519814,3.377158,-1.545223,-57.714691,-0.906992,-1.640875,0.875652,-0.482665,-0.000021,-0.016360
253,0.694296,-9.501727,5.628467,-2.808723,3.727977,-0.916769,-57.770432,-0.905456,-1.762885,0.875400,-0.483091,0.000513,-0.017286
254,0.428409,-9.385698,6.433751,-15.156462,5.027890,-1.235966,-58.062965,-0.891219,-1.905573,0.874143,-0.485321,0.001270,-0.018312
255,0.438226,-9.723000,6.842255,-34.805359,3.503387,4.344166,-58.849331,-0.793374,-2.000151,0.870789,-0.491297,0.002545,-0.018603
256,0.863432,-10.237862,7.692157,-56.523106,0.828263,8.393660,-60.297451,-0.609891,-1.955276,0.864541,-0.502245,0.003968,-0.017427
257,0.286983,-10.545649,7.675547,-69.196434,-1.875825,9.287580,-62.293095,-0.391283,-1.798633,0.855709,-0.517208,0.005196,-0.015199
258,-0.034076,-10.462922,7.244998,-73.646454,-5.394607,12.917747,-64.563301,-0.115839,-1.525657,0.845350,-0.534045,0.006256,-0.011795
259,0.271288,-11.504199,6.497176,-60.521053,-8.979017,17.397821,-66.706482,0.240371,-1.099430,0.835268,-0.549756,0.007027,-0.006861
260,-0.095166,-11.479911,6.139809,-28.396534,-9.406310,15.369800,-68.110527,0.618266,-0.605736,0.828490,-0.559953,0.007430,-0.001358
261,-0.510884,-11.428800,4.270264,5.956912,-9.392517,18.179178,-68.448631,1.036935,-0.107015,0.826813,-0.562404,0.008007,0.004317
262,-0.076968,-11.210762,4.189542,31.338951,-5.385398,22.453382,-67.836449,1.581842,0.374512,0.829726,-0.557990,0.009631,0.010414
263,-0.413841,-10.888268,4.583830,59.469349,-4.356931,24.835333,-66.310928,2.241340,0.831967,0.836930,-0.546912,0.012403,0.016773
264,-0.595645,-9.864571,3.499648,86.213959,-2.708874,23.668104,-63.892315,2.935782,1.279540,0.848063,-0.529158,0.015829,0.023025
265,-0.269790,-9.406220,2.600723,91.718269,-0.152910,24.366934,-61.027664,3.619738,1.687971,0.860747,-0.507839,0.019731,0.028718
266,-0.371369,-7.819282,3.806710,98.827950,2.750886,17.046860,-57.946201,4.215137,1.994308,0.873813,-0.484558,0.023744,0.033026
267,-0.363678,-7.429633,3.464558,109.328537,1.519395,12.476480,-54.547001,4.638549,2.203273,0.887580,-0.458470,0.027160,0.035615
268,-0.377782,-6.414616,3.038008,106.877998,3.350451,5.202113,-51.080345,4.895686,2.305613,0.900907,-0.431439,0.029862,0.036547
269,-0.384583,-5.510468,3.679379,92.224800,3.628098,-2.349957,-47.897198,4.980862,2.236965,0.912529,-0.406231,0.031788,0.035457
270,-0.462433,-4.722642,4.290090,84.344513,2.961168,-10.338351,-45.018013,4.882455,2.007375,0.922554,-0.383112,0.032644,0.032472
271,-0.413997,-5.136480,3.954888,73.247383,1.918880,-9.998228,-42.478485,4.689081,1.700827,0.930973,-0.362486,0.032753,0.028640
272,-0.494207,-4.131349,4.608912,58.468231,1.485474,-14.766854,-40.368393,4.447842,1.347733,0.937659,-0.345184,0.032364,0.024419
273,-0.299190,-4.102014,5.860786,45.663166,1.380023,-19.953566,-38.619160,4.097992,0.873853,0.943025,-0.330708,0.031222,0.019015
274,-0.492968,-4.565685,7.073979,42.033909,1.724662,-19.233421,-37.102318,3.714062,0.332231,0.947508,-0.318072,0.029800,0.013057
275,-0.443331,-4.634579,7.731537,44.529789,1.031745,-21.362118,-35.595856,3.336510,-0.234524,0.951753,-0.305474,0.028344,0.006951
276,-0.643908,-4.457995,8.648125,41.431831,0.917232,-23.388506,-34.077667,2.933736,-0.858792,0.955822,-0.292732,0.026670,0.000338
277,-0.656302,-5.018279,8.882257,36.688805,-0.407221,-21.813644,-32.698822,2.536239,-1.486734,0.959328,-0.281126,0.024886,-0.006217
278,-0.706228,-4.880853,8.645811,34.310539,-0.812974,-17.405113,-31.472664,2.190785,-2.026371,0.962285,-0.270794,0.023192,-0.011833
279,-0.565039,-4.481891,8.254604,26.577667,-0.739544,-15.491463,-30.422586,1.910127,-2.481014,0.964699,-0.261933,0.021760,-0.016515
280,-0.640035,-4.659487,8.361749,14.759729,-0.777472,-8.720783,-29.708826,1.712344,-2.815972,0.966275,-0.255903,0.020737,-0.019918
281,-0.522163,-4.816562,8.158797,11.114331,-1.494416,-7.345783,-29.280043,1.575526,-3.030043,0.967195,-0.252281,0.019979,-0.022105
282,-0.286791,-4.488082,7.952266,10.595433,-1.434783,-6.608695,-28.931288,1.433600,-3.209623,0.967930,-0.249343,0.019104,-0.023992
283,-0.318088,-4.647769,8.122099,7.155913,-1.105128,-5.793823,-28.647661,1.303106,-3.370618,0.968514,-0.246955,0.018289,-0.025682
284,-0.250484,-4.659240,8.381468,7.172557,-1.486542,-3.588827,-28.425507,1.197923,-3.487672,0.968967,-0.245088,0.017600,-0.026932
285,-0.297134,-4.621398,8.310642,6.034092,-1.558187,-3.993160,-28.219597,1.101488,-3.575110,0.969387,-0.243360,0.016922,-0.027909
286,-0.220285,-4.682941,8.286513,0.253728,-2.104407,-1.565384,-28.131645,1.010728,-3.628242,0.969561,-0.242634,0.016245,-0.028564
287,-0.493841,-4.837740,8.621607,-5.517523,-2.534564,0.264279,-28.239197,0.949608,-3.611182,0.969337,-0.243564,0.015719,-0.028535
288,-0.174804,-4.632044,8.402540,-8.371153,-3.128005,0.999849,-28.484585,0.892753,-3.548088,0.968829,-0.245664,0.015164,-0.028090
289,-0.543133,-5.126000,8.000196,-13.138542,-3.845006,2.629630,-28.881279,0.840446,-3.439938,0.967999,-0.249045,0.014584,-0.027237
290,-0.302317,-4.919676,7.802001,-16.816647,-3.902737,2.260484,-29.441124,0.795880,-3.306998,0.966802,-0.253799,0.014047,-0.026143
291,-0.139345,-4.762032,7.510926,-19.200666,-3.003880,0.455354,-30.092476,0.727975,-3.211467,0.965364,-0.259319,0.013407,-0.025412
292,-0.097284,-4.622899,7.013569,-22.610104,-2.095948,-1.770976,-30.840918,0.644031,-3.187988,0.963654,-0.265643,0.012812,-0.025321
293,-0.367598,-4.758558,6.586620,-27.975952,-2.419305,-2.245465,-31.753269,0.560792,-3.207034,0.961502,-0.273325,0.012360,-0.025577
294,0.433459,-4.562859,6.163877,-34.332237,-1.993697,-5.367599,-32.873375,0.415452,-3.275842,0.958764,-0.282739,0.011564,-0.026389
295,-0.097608,-4.572747,6.269344,-42.871983,-1.610933,-4.772645,-34.227043,0.243158,-3.383373,0.955323,-0.294077,0.010714,-0.027590
296,-0.027133,-4.818774,6.108036,-50.743309,-3.660231,-3.284859,-35.847801,0.096264,-3.442943,0.951044,-0.307591,0.010044,-0.028324
297,0.318889,-5.175681,6.522203,-58.930450,-1.971188,-3.869403,-37.730400,-0.070011,-3.482083,0.945839,-0.323211,0.009246,-0.028948
298,0.189216,-5.412142,6.902877,-63.285694,-0.462280,-4.096938,-39.791092,-0.213289,-3.559014,0.939840,-0.340196,0.008818,-0.029833
299,-0.055200,-5.955816,7.150596,-63.542072,0.094642,-2.763308,-41.906841,-0.297594,-3.640748,0.933367,-0.357504,0.008936,-0.030594
300,0.515417,-6.513975,7.224551,-56.354980,1.159603,-4.084883,-43.904942,-0.378215,-3.738060,0.926956,-0.373736,0.009133,-0.031483
301,0.415148,-6.585262,7.240371,-46.717113,5.224377,-6.430501,-45.608467,-0.465587,-3.936374,0.921229,-0.387480,0.009568,-0.033234
302,-0.168171,-6.835964,6.912968,-37.961140,4.269111,-3.586209,-46.996422,-0.481191,-4.165534,0.916398,-0.398593,0.010642,-0.035002
304,0.225800,-6.982155,6.611731,-33.389355,4.635369,-4.890842,-48.172386,-0.480585,-4.370502,0.912195,-0.407956,0.011735,-0.036521
305,-0.122550,-6.977102,6.486824,-33.317509,4.870380,-6.261101,-49.269238,-0.512634,-4.612312,0.908164,-0.416652,0.012710,-0.038440
306,-0.128526,-7.263022,6.423275,-37.530434,3.739808,-5.116502,-50.432411,-0.544216,-4.844777,0.903802,-0.425831,0.013714,-0.040259
307,-0.145554,-7.688830,6.322978,-41.876217,2.183507,-3.988674,-51.748810,-0.578393,-5.017379,0.898783,-0.436175,0.014564,-0.041583
308,-0.073164,-8.089192,6.103742,-44.699291,1.904386,-4.174683,-53.201298,-0.625261,-5.154655,0.893122,-0.447529,0.015261,-0.042648
309,-0.145358,-8.463324,6.072577,-44.316479,-0.398115,1.126543,-54.703659,-0.631474,-5.205144,0.887157,-0.459195,0.015973,-0.042860
310,0.296086,-8.853355,6.059082,-40.401127,-1.957587,5.095507,-56.133396,-0.564972,-5.113790,0.881408,-0.470219,0.016643,-0.041682
311,0.209361,-8.865401,5.682653,-33.671970,-2.743512,6.528247,-57.386925,-0.458984,-4.941412,0.876296,-0.479825,0.017187,-0.039736
312,-0.131103,-9.285948,5.723127,-28.485533,-4.017636,9.467220,-58.442413,-0.288416,-4.703987,0.871953,-0.487860,0.017839,-0.037044
313,0.332368,-9.386128,5.454374,-22.600235,-5.241442,11.200649,-59.314419,-0.076246,-4.393625,0.868350,-0.494468,0.018389,-0.033640
314,0.220611,-9.491509,5.485971,-18.040939,-4.054382,7.654219,-60.008831,0.095273,-4.100761,0.865447,-0.499721,0.018611,-0.030568
315,-0.202767,-9.407660,5.485685,-12.970324,-1.838743,5.928390,-60.528461,0.242296,-3.903142,0.863244,-0.503633,0.018988,-0.028348
316,-0.242274,-9.620255,5.448349,-10.736343,-1.287803,5.075541,-60.920200,0.393347,-3.768047,0.861569,-0.506564,0.019623,-0.026600
317,-0.054212,-9.631651,5.333334,-7.931697,-0.143322,3.871652,-61.231014,0.519847,-3.675118,0.860227,-0.508882,0.020232,-0.025287
318,-0.155074,-9.701550,5.603280,-6.930595,0.348032,2.821827,-61.468754,0.620749,-3.624532,0.859191,-0.510648,0.020816,-0.024415
319,-0.009827,-10.197881,5.678771,-17.415075,-1.431210,2.130561,-61.858715,0.682347,-3.569313,0.857466,-0.513563,0.021112,-0.023655
320,0.141360,-10.359941,7.026217,-47.209747,-3.598105,-3.835943,-62.880302,0.602493,-3.507513,0.852858,-0.521219,0.020447,-0.023369
321,-0.302642,-10.357586,6.724250,-68.541199,-1.400804,-5.885293,-64.710426,0.416239,-3.503276,0.844406,-0.534819,0.019425,-0.023878
322,0.271037,-11.109550,6.954402,-71.309708,2.198820,-6.343128,-66.936081,0.229651,-3.597710,0.833815,-0.551146,0.018982,-0.025081
323,0.214147,-11.392891,5.614406,-58.651321,3.181416,-6.483723,-69.019135,0.042495,-3.759491,0.823595,-0.566229,0.018889,-0.026820
324,0.091116,-11.584130,4.802602,-29.731596,5.200161,-2.174636,-70.452515,-0.057944,-3.939907,0.816388,-0.576480,0.019415,-0.028372
325,0.051464,-12.008052,3.213204,9.640079,6.268290,7.060214,-70.812622,0.077356,-4.092732,0.814558,-0.578982,0.021238,-0.028714
326,0.637546,-12.272773,3.469798,48.353668,6.779389,10.902249,-69.912941,0.406760,-4.196529,0.819107,-0.572460,0.023885,-0.027975
327,0.400231,-11.371882,2.637829,67.101852,6.475585,11.606808,-68.076439,0.792237,-4.269032,0.828214,-0.559131,0.026573,-0.026996
328,0.286601,-10.714222,3.289646,70.599808,6.887456,13.176624,-65.881744,1.221024,-4.314436,0.838808,-0.543020,0.029403,-0.025798
329,0.510843,-9.530579,4.414760,73.967178,7.720408,11.514410,-63.508785,1.644898,-4.360981,0.849896,-0.525379,0.032218,-0.024800
330,0.276748,-8.327625,3.885932,88.922722,7.630120,10.270225,-60.803364,2.023619,-4.420139,0.862068,-0.505016,0.034731,-0.024326
331,0.223230,-7.483054,3.424238,88.353043,5.038843,11.795630,-57.901211,2.389648,-4.418270,0.874586,-0.482887,0.036888,-0.023637
332,-0.252185,-6.455796,3.909446,87.371414,1.211672,12.962663,-55.014206,2.757968,-4.281073,0.886493,-0.460605,0.038576,-0.022012
333,-0.181934,-5.794548,4.233812,87.395851,1.951661,9.861861,-52.092003,3.081049,-4.097838,0.897965,-0.437790,0.039831,-0.020313
334,-0.447090,-5.353284,3.490859,81.293373,1.049838,10.223466,-49.302860,3.367933,-3.926142,0.908356,-0.415757,0.040974,-0.018870
335,-0.537800,-4.884155,3.758888,65.749641,-0.453035,10.145784,-46.905910,3.648836,-3.709760,0.916852,-0.396640,0.042067,-0.017015
336,-0.857603,-4.429045,4.519866,56.850391,-3.374860,10.623748,-44.849800,3.900701,-3.421424,0.923821,-0.380142,0.042827,-0.014603
337,-0.736839,-4.435134,4.889362,49.120476,-6.853612,12.142457,-43.014278,4.095993,-3.024206,0.929799,-0.365378,0.042905,-0.011438
338,-1.033303,-4.798403,5.520360,40.488697,-12.189406,15.907305,-41.441895,4.229161,-2.459117,0.934743,-0.352754,0.042090,-0.007004
339,-0.822057,-5.425414,6.294219,33.552063,-16.687513,15.111084,-40.133465,4.248177,-1.748470,0.938733,-0.342308,0.040041,-0.001606
340,-0.308813,-5.592378,7.242876,34.232887,-18.352371,11.500714,-38.925976,4.073195,-1.030304,0.942330,-0.332673,0.036500,0.003369
341,-0.278347,-6.098540,7.392344,32.093693,-16.382711,6.472548,-37.764774,3.765453,-0.434120,0.945708,-0.323332,0.032311,0.007050
342,-0.132149,-6.600909,7.602468,28.031364,-14.065172,3.656921,-36.767002,3.418501,0.005619,0.948544,-0.315237,0.028290,0.009453
343,0.038849,-6.257142,7.986521,24.060534,-10.363704,-0.316943,-35.920441,3.068199,0.289065,0.950906,-0.308309,0.024690,0.010654
344,-0.219133,-5.882201,8.088093,22.362062,-6.601133,-1.406729,-35.151573,2.775807,0.428798,0.953005,-0.301963,0.021961,0.010880
345,-0.394520,-5.694795,8.224617,17.254816,-2.849041,-2.980071,-34.487095,2.585201,0.458393,0.954776,-0.296442,0.020359,0.010506
346,-0.292194,-5.350379,8.538615,14.241352,-1.234717,-1.542708,-33.939384,2.474385,0.435217,0.956205,-0.291874,0.019543,0.009934
347,-0.547161,-4.893607,8.684636,15.357383,-0.029267,-4.823438,-33.391457,2.395971,0.360913,0.957611,-0.287288,0.019121,0.009023
348,-0.350432,-4.907070,8.296002,22.390982,1.499722,-7.025311,-32.708729,2.311697,0.184537,0.959333,-0.281551,0.018902,0.007225
349,-0.535464,-4.682554,8.254043,22.849251,2.233724,-6.117341,-31.914101,2.252209,-0.031999,0.961284,-0.274858,0.018972,0.005134
350,-0.511775,-4.915507,8.346598,23.948296,0.907806,-2.062869,-31.101875,2.239722,-0.174076,0.963215,-0.268015,0.019236,0.003776
351,-0.695879,-4.819430,8.393403,26.805050,-1.728810,-1.501206,-30.235636,2.219935,-0.217146,0.965218,-0.260720,0.019195,0.003223
352,-0.385684,-4.713474,8.503018,26.777790,-2.415343,1.326424,-29.320824,2.174691,-0.184096,0.967275,-0.253014,0.018765,0.003249
353,-0.477937,-4.671485,8.721766,20.659027,-3.753537,4.141789,-28.505545,2.134295,-0.053711,0.969053,-0.246149,0.018166,0.004131
354,0.167301,-4.743073,8.788468,17.186129,-3.663694,1.372139,-27.858921,2.048125,0.086118,0.970434,-0.240702,0.017166,0.005032
355,-0.137132,-4.591105,8.632204,11.840812,-1.814590,-3.924519,-27.375027,1.911290,0.090479,0.971462,-0.236606,0.016018,0.004714
356,0.013419,-4.546404,8.553854,5.645491,1.893171,-8.148408,-27.095825,1.793223,-0.089438,0.972058,-0.234218,0.015396,0.002907
357,-0.257961,-4.454640,8.571370,1.580344,4.177316,-10.803606,-26.993675,1.720739,-0.417250,0.972279,-0.233311,0.015451,-0.000036
358,-0.509550,-4.207495,8.687816,-1.212034,3.815748,-9.779669,-26.991955,1.692265,-0.783360,0.972281,-0.233248,0.015954,-0.003200
359,-0.842806,-4.194858,8.726687,-3.009369,3.869493,-9.211846,-27.051861,1.700695,-1.123076,0.972144,-0.233707,0.016720,-0.006057
360,-0.729430,-3.987163,8.946249,-1.713498,2.549996,-4.491928,-27.102043,1.740628,-1.374227,0.972022,-0.234090,0.017575,-0.008098
361,-0.646306,-3.959489,8.931787,1.300987,-0.011550,-0.217538,-27.033401,1.798047,-1.461031,0.972150,-0.233487,0.018234,-0.008728
362,-0.477622,-4.141065,8.950815,1.880211,-0.944980,1.601619,-26.889668,1.844716,-1.430341,0.972439,-0.232265,0.018557,-0.008396
363,-0.400999,-4.134829,8.883143,2.489743,-0.873052,1.642950,-26.745966,1.866682,-1.366110,0.972732,-0.231053,0.018603,-0.007829
364,-0.368782,-4.029302,8.958313,2.450811,-1.265109,3.309342,-26.586426,1.884956,-1.273859,0.973056,-0.229711,0.018563,-0.007035
365,-0.149056,-4.119346,8.776093,1.343650,-0.770826,1.278301,-26.454281,1.876773,-1.188087,0.973327,-0.228604,0.018314,-0.006344
366,-0.313900,-4.151241,8.894642,-2.450848,0.561144,-0.536088,-26.424381,1.861678,-1.173899,0.973389,-0.228354,0.018156,-0.006259
367,-0.237025,-4.061373,8.904142,-4.800375,0.611451,-1.079328,-26.506502,1.862488,-1.205425,0.973223,-0.229046,0.018230,-0.006512
368,-0.326027,-4.140018,8.901867,-7.604737,1.348437,-2.376371,-26.686480,1.862301,-1.270635,0.972858,-0.230564,0.018370,-0.007037
369,-0.354978,-4.285800,8.515230,-9.348741,1.426280,-2.271067,-26.959187,1.871214,-1.360261,0.972300,-0.232863,0.018644,-0.007736
370,-0.337708,-4.535151,8.458284,-12.010059,0.403942,-1.723247,-27.328136,1.871424,-1.433820,0.971540,-0.235980,0.018822,-0.008299
371,-0.262605,-4.530010,8.286593,-11.714245,0.168943,-2.063540,-27.746962,1.849551,-1.494952,0.970669,-0.239523,0.018795,-0.008794
372,-0.282613,-4.852444,7.995728,-12.340280,-0.102694,0.692255,-28.188856,1.836528,-1.516960,0.969738,-0.243262,0.018765,-0.008935
373,0.025552,-4.702405,7.650790,-16.201441,-0.639967,-0.092170,-28.721498,1.812719,-1.503981,0.968600,-0.247773,0.018577,-0.008790
374,0.194997,-4.784426,7.353402,-23.674543,-0.908891,-3.617278,-29.451605,1.717815,-1.547160,0.967008,-0.253946,0.017928,-0.009246
375,-0.215342,-4.707999,7.422177,-29.488924,0.036944,-2.884986,-30.400637,1.623007,-1.635254,0.964873,-0.261946,0.017407,-0.010056
376,0.038885,-4.415950,7.010858,-35.449581,-0.910809,-3.759444,-31.524765,1.535134,-1.723468,0.962256,-0.271399,0.016976,-0.010834
377,-0.396075,-4.602314,6.792642,-46.103954,-0.660600,-6.162811,-32.923687,1.419278,-1.850185,0.958867,-0.283126,0.016451,-0.011973
378,-0.280520,-5.514428,6.771680,-49.223682,-2.686902,-3.127689,-34.587940,1.300781,-1.950097,0.954650,-0.297028,0.015895,-0.012873
379,-0.512387,-5.021795,6.568460,-48.412640,-3.507656,-0.541134,-36.289764,1.202990,-1.942290,0.950139,-0.311190,0.015252,-0.012836
380,-0.077456,-5.748189,6.401147,-49.440296,-5.978011,2.086569,-37.988163,1.105203,-1.828365,0.945438,-0.325268,0.014311,-0.011947
381,-0.219319,-6.381048,6.375829,-45.943924,-6.438854,2.080431,-39.679478,0.983883,-1.646607,0.940556,-0.339227,0.012952,-0.010602
382,0.067654,-6.322547,6.300404,-37.068653,-6.954676,2.899777,-41.162918,0.858348,-1.440558,0.936106,-0.351413,0.011431,-0.009135
383,0.197264,-6.000716,6.486855,-35.862232,-4.286052,0.833474,-42.434345,0.730317,-1.269822,0.932165,-0.361809,0.009951,-0.008023
384,-0.009300,-6.856267,6.768645,-35.768005,-2.342195,-1.478461,-43.665085,0.619114,-1.202149,0.928231,-0.371817,0.008916,-0.007729
385,-0.278832,-6.437376,6.777840,-37.022545,0.711208,-5.705252,-44.902058,0.519804,-1.269045,0.924159,-0.381820,0.008421,-0.008503
386,-0.002881,-6.741062,6.596897,-43.941139,1.036266,-5.114686,-46.257324,0.416761,-1.416345,0.919567,-0.392723,0.008199,-0.009938
387,0.100263,-7.156327,6.917019,-50.998581,2.493438,-8.148315,-47.844170,0.282508,-1.609707,0.914019,-0.405421,0.007949,-0.011841
388,-0.323610,-7.375462,6.539897,-52.399410,1.895308,-7.856824,-49.570492,0.135697,-1.840602,0.907776,-0.419147,0.007808,-0.014086
389,-0.288234,-7.709946,6.559635,-54.810421,0.485523,-5.181684,-51.362358,0.019045,-2.010144,0.901082,-0.433294,0.007751,-0.015736
390,0.294378,-8.071813,6.171103,-50.632545,-0.249979,-4.701032,-53.129807,-0.110668,-2.114256,0.894268,-0.447151,0.007387,-0.016933
391,-0.258520,-8.529199,6.386393,-45.949585,0.786111,-3.552019,-54.749546,-0.218139,-2.202215,0.887836,-0.459756,0.007146,-0.017940
392,-0.250463,-8.279013,5.902501,-39.597137,-1.336297,0.029539,-56.173355,-0.245559,-2.228296,0.882048,-0.470753,0.007264,-0.018163
393,-0.394858,-8.920584,5.852815,-36.819984,-2.718596,0.980465,-57.449722,-0.235574,-2.163046,0.876761,-0.480551,0.007269,-0.017540
394,0.011893,-8.627610,5.676348,-29.318514,-2.526213,0.164271,-58.550289,-0.244776,-2.079420,0.872117,-0.488956,0.007010,-0.016872
395,-0.372749,-8.996329,5.455976,-25.966007,-2.036285,-0.070549,-59.467113,-0.262242,-2.013784,0.868185,-0.495924,0.006729,-0.016394
396,-0.273841,-8.630831,5.223987,-21.839872,-1.622583,-0.349502,-60.260387,-0.264812,-1.965050,0.864738,-0.501926,0.006609,-0.015990
397,-0.106212,-9.089922,5.034090,-19.134415,-0.301020,-1.068021,-60.944244,-0.278897,-1.949070,0.861728,-0.507080,0.006528,-0.015893
398,0.365455,-8.868259,5.172273,-13.180217,2.097699,-3.036530,-61.478886,-0.331935,-2.008351,0.859339,-0.511098,0.006468,-0.016543
399,-0.030114,-9.107764,5.138903,-9.050887,3.336700,-2.244668,-61.831081,-0.376773,-2.129879,0.857741,-0.513735,0.006728,-0.017634
400,0.115394,-9.536235,5.451871,-7.016621,3.120030,-1.350457,-62.077255,-0.376742,-2.253141,0.856616,-0.515569,0.007321,-0.018541
401,0.791605,-9.704792,5.851828,-6.801070,3.013069,-2.167111,-62.267212,-0.412881,-2.371102,0.855737,-0.516985,0.007614,-0.019573
402,0.289809,-9.998816,7.069400,-8.820507,3.505770,-4.741685,-62.437515,-0.502482,-2.521284,0.854930,-0.518259,0.007654,-0.021087
403,0.215300,-10.114985,7.848090,-14.251326,2.208689,-6.742283,-62.672859,-0.640220,-2.695185,0.853810,-0.520023,0.007460,-0.022992
404,0.486974,-10.511771,8.423680,-22.880169,1.471610,-6.501337,-63.110634,-0.824742,-2.852091,0.851756,-0.523299,0.006892,-0.024971
405,0.361068,-10.555032,7.983470,-24.558426,2.664820,-3.458815,-63.720325,-0.960752,-2.990035,0.848905,-0.527835,0.006653,-0.026582
407,0.308930,-10.682669,7.727357,-10.434344,3.591037,5.670700,-64.138054,-0.891422,-3.069765,0.846969,-0.530911,0.007631,-0.026826
408,0.190422,-10.733319,6.750823,7.060186,1.556984,16.190392,-64.063309,-0.529292,-2.989587,0.847394,-0.530304,0.009921,-0.024563
409,-0.186311,-10.984274,4.748089,34.342518,-3.243519,26.505753,-63.343536,0.108187,-2.649323,0.850854,-0.524893,0.012941,-0.019179
410,0.158585,-10.344145,3.710388,62.586613,-4.128539,31.713776,-61.802357,0.916641,-2.092463,0.857959,-0.513332,0.016239,-0.011560
411,-0.411594,-9.447716,4.101274,84.797012,-6.475388,36.245804,-59.426796,1.819397,-1.382525,0.868438,-0.495397,0.019767,-0.002608
412,-0.911117,-8.762485,3.506297,91.294807,-11.623621,34.288391,-56.570904,2.697744,-0.504310,0.880394,-0.473637,0.022814,0.007280
413,0.096377,-7.751308,3.354599,91.374130,-10.701906,28.085508,-53.637211,3.340812,0.392403,0.892010,-0.451062,0.024470,0.016206
414,0.307762,-6.040907,4.771193,85.825195,-5.016712,21.346397,-50.709442,3.755479,1.100652,0.903012,-0.428256,0.025498,0.022706
415,-0.173677,-5.738054,4.843693,79.138824,-4.118359,17.332689,-47.901993,4.075900,1.635148,0.913016,-0.406121,0.026707,0.027467
416,0.003077,-5.176393,4.590245,63.011341,-4.103459,9.398993,-45.502018,4.251326,2.039203,0.921158,-0.387009,0.027323,0.030741
417,0.214091,-4.728603,4.555433,50.132446,-1.236826,1.001205,-43.612724,4.224094,2.222974,0.927374,-0.371812,0.027009,0.031685
418,-0.563391,-4.417001,4.624349,40.757103,-2.125219,-2.725424,-42.102570,4.118498,2.238059,0.932227,-0.359558,0.026518,0.031119
419,-0.786984,-4.801642,4.501168,29.609821,-4.288746,-4.129097,-40.970943,3.991927,2.221026,0.935781,-0.350324,0.025842,0.030331
420,-0.897633,-4.756410,5.343536,20.325644,-6.940416,-6.347493,-40.184559,3.785216,2.207931,0.938235,-0.343880,0.024395,0.029428
421,-0.644808,-4.846980,6.210529,21.873056,-6.125321,-8.739917,-39.472023,3.490730,2.155869,0.940462,-0.338010,0.022314,0.027982
422,-1.033034,-5.206267,7.319572,22.963085,-6.976552,-7.798183,-38.677296,3.180452,2.083026,0.942892,-0.331445,0.020164,0.026333
423,-0.941389,-5.380200,8.138767,25.138292,-6.167490,-8.382295,-37.802887,2.886686,2.011745,0.945488,-0.324207,0.018142,0.024761
424,-1.035705,-5.627439,8.394182,27.409630,-5.981005,-6.610390,-36.854717,2.618345,1.940412,0.948219,-0.316341,0.016322,0.023281
425,-0.916814,-5.780251,8.114479,30.413095,-4.801106,-6.582622,-35.849689,2.390090,1.872642,0.951022,-0.307985,0.014813,0.021963
426,-1.151004,-5.747844,8.112805,28.208292,-6.831657,-3.208458,-34.857616,2.194565,1.853223,0.953697,-0.299722,0.013426,0.021162
427,-1.002275,-5.547480,7.845473,25.379234,-6.126138,-2.864740,-33.962006,2.025864,1.892926,0.956037,-0.292248,0.012082,0.020958
428,-1.038396,-5.511747,7.675790,22.040335,-5.809717,-0.807421,-33.187286,1.892946,1.952291,0.958004,-0.285771,0.010964,0.021041
429,-1.011469,-5.271926,7.983844,18.016306,-5.188081,-0.793307,-32.533501,1.794448,2.029625,0.959622,-0.280298,0.010069,0.021385
430,-0.952272,-4.899035,8.361220,15.871013,-4.160579,-0.957743,-31.951023,1.713381,2.089318,0.961037,-0.275412,0.009354,0.021640
431,-0.652357,-4.899985,8.354374,17.508640,-2.326002,-1.428980,-31.363089,1.650080,2.113714,0.962443,-0.270472,0.008876,0.021648
432,-0.735546,-4.885144,8.475741,21.316072,-1.742763,-1.241076,-30.691473,1.608873,2.111647,0.964019,-0.264821,0.008661,0.021483
433,-0.556851,-4.570973,8.495242,21.736017,-1.264842,-2.510451,-29.943029,1.570231,2.084307,0.965739,-0.258513,0.008537,0.021108
434,-0.370640,-4.607635,8.383747,18.908773,-0.635997,-3.596804,-29.237986,1.511876,2.012580,0.967334,-0.252553,0.008332,0.020321
435,-0.285397,-4.556717,8.510859,13.740649,-0.082029,-3.549461,-28.677866,1.450571,1.914770,0.968582,-0.247808,0.008125,0.019321
436,-0.185302,-4.356184,8.403033,8.378743,1.303498,-5.688811,-28.293253,1.393755,1.770216,0.969440,-0.244539,0.008017,0.017950
437,-0.129545,-4.274907,8.524961,-0.665172,3.041455,-7.315479,-28.145620,1.347088,1.545535,0.969794,-0.243270,0.008122,0.015939
438,-0.314610,-4.470836,8.387699,-7.286017,3.570946,-7.634398,-28.269924,1.325711,1.274161,0.969567,-0.244300,0.008503,0.013607
439,-0.385506,-4.415989,8.267831,-11.659299,4.558334,-9.614985,-28.590948,1.320997,0.956780,0.968913,-0.246991,0.009109,0.010937
440,-0.395457,-4.489480,7.949334,-17.248821,5.033058,-10.603700,-29.087172,1.316676,0.584142,0.967866,-0.251153,0.009842,0.007819
441,-0.281671,-4.770411,7.940003,-21.912281,5.587088,-11.499359,-29.772280,1.302908,0.175544,0.966370,-0.256899,0.010595,0.004401
442,-0.530494,-4.624186,8.029260,-25.379358,5.250034,-10.093885,-30.586847,1.298010,-0.227028,0.964530,-0.263723,0.011448,0.001077
443,-0.541552,-4.849417,8.275048,-28.206892,4.499560,-9.864833,-31.487883,1.298123,-0.596302,0.962425,-0.271261,0.012315,-0.001934
444,-0.297891,-4.946482,8.392847,-29.303930,4.000752,-10.305722,-32.444454,1.260115,-0.956789,0.960120,-0.279249,0.012891,-0.004945
445,-0.096630,-5.003684,8.485081,-27.843384,4.339488,-9.533610,-33.380276,1.195111,-1.309556,0.957792,-0.287047,0.013271,-0.007951
446,-0.570140,-4.964650,8.335290,-27.043423,3.779570,-6.504574,-34.263531,1.171039,-1.606178,0.955528,-0.294389,0.013893,-0.010384
447,-0.173711,-5.421356,7.975172,-28.601170,2.945029,-6.808136,-35.173824,1.153559,-1.852200,0.953136,-0.301942,0.014478,-0.012365
448,0.085868,-5.456481,7.443607,-28.344900,3.378268,-7.470476,-36.136238,1.085202,-2.107174,0.950539,-0.309916,0.014704,-0.014543
449,-0.163761,-5.683627,6.822395,-27.899723,3.166053,-5.714225,-37.117393,1.027414,-2.349071,0.947819,-0.318022,0.015022,-0.016578
450,-0.516778,-5.734460,6.352054,-32.063164,0.210502,-5.721744,-38.191628,0.975436,-2.535731,0.944769,-0.326879,0.015280,-0.018124
451,-0.045994,-5.764696,5.944571,-36.287830,-0.848361,-8.840659,-39.424046,0.829648,-2.720379,0.941168,-0.337027,0.014820,-0.019905
452,-0.322664,-5.783312,5.715822,-39.441372,-1.104657,-7.439829,-40.786831,0.636662,-2.908782,0.937055,-0.348215,0.014050,-0.021855
453,-0.154539,-5.716061,5.652318,-43.699574,-1.492112,-6.695085,-42.260578,0.463865,-3.057844,0.932462,-0.360258,0.013393,-0.023429
454,0.027804,-5.998054,5.653393,-48.120930,-1.302903,-6.930093,-43.866119,0.273091,-3.192695,0.927283,-0.373315,0.012615,-0.024952
455,0.017490,-6.207553,6.052195,-49.268948,0.061212,-7.458126,-45.541786,0.081024,-3.348636,0.921674,-0.386863,0.011961,-0.026667
456,0.132711,-6.517971,6.303124,-47.503643,0.364795,-5.865137,-47.173286,-0.085456,-3.506730,0.916018,-0.399969,0.011560,-0.028339
457,0.004158,-6.837260,6.533865,-44.894272,0.299130,-6.980640,-48.708694,-0.244189,-3.657933,0.910518,-0.412230,0.011221,-0.029954
458,-0.073524,-7.223922,6.692661,-40.293407,0.373942,-6.211527,-50.107418,-0.397605,-3.809719,0.905356,-0.423336,0.010934,-0.031581
459,0.010242,-6.983284,6.640238,-33.517868,1.211732,-6.321333,-51.292984,-0.534084,-3.962901,0.900863,-0.432699,0.010766,-0.033185
460,0.044727,-7.232304,6.313196,-28.886179,1.790092,-4.484083,-52.280804,-0.639461,-4.114159,0.897036,-0.440461,0.010808,-0.034680
461,-0.144905,-7.461205,6.081936,-26.160553,0.764763,-3.159464,-53.164597,-0.700310,-4.225577,0.893567,-0.447372,0.011035,-0.035702
462,0.440069,-7.639965,5.861602,-23.708212,-0.678780,-1.308547,-53.977406,-0.762915,-4.271264,0.890345,-0.453711,0.010983,-0.036225
463,0.255226,-7.718745,5.513916,-22.759069,-0.573625,-1.931305,-54.750122,-0.841537,-4.285468,0.887245,-0.459723,0.010675,-0.036576
464,0.184442,-8.246042,5.596164,-26.400061,-2.476504,3.429205,-55.583305,-0.858360,-4.229138,0.883893,-0.466172,0.010581,-0.036131
465,0.415618,-8.420319,5.690539,-26.700788,-4.382466,3.848719,-56.482750,-0.836073,-4.066008,0.880262,-0.473105,0.010362,-0.034702
466,0.127172,-8.545009,5.707046,-23.876312,-5.560545,5.435587,-57.330082,-0.808339,-3.842469,0.876811,-0.479614,0.009895,-0.032798
467,-0.009195,-8.683959,5.681157,-19.191660,-5.005064,4.646753,-58.044861,-0.752400,-3.603868,0.873878,-0.485082,0.009516,-0.030679
468,-0.116656,-8.753857,6.071003,-15.701591,-3.944442,6.777101,-58.601589,-0.650091,-3.377466,0.871588,-0.489320,0.009477,-0.028474
469,-0.088613,-9.025127,6.079857,-10.157460,-2.520640,4.674549,-58.989868,-0.521971,-3.187005,0.869991,-0.492261,0.009728,-0.026446
470,-0.217007,-9.262799,5.841656,-4.822509,-0.112608,3.775975,-59.208786,-0.400566,-3.077440,0.869092,-0.493909,0.010227,-0.025073
471,-0.040604,-9.216900,5.662671,-1.610268,1.523284,3.382448,-59.299530,-0.267070,-3.036806,0.868728,-0.494576,0.011084,-0.024181
472,0.087652,-9.119103,5.616207,-1.114201,1.703361,4.584907,-59.330811,-0.121981,-3.015351,0.868615,-0.494787,0.012097,-0.023389
473,0.253870,-9.189400,5.340423,0.691004,-1.151707,5.195173,-59.334431,0.010843,-2.940139,0.868630,-0.494797,0.012780,-0.022245
474,0.111191,-8.822050,5.135015,2.845530,-3.191949,4.372564,-59.283474,0.095336,-2.796482,0.868886,-0.494410,0.012791,-0.020797
475,0.146453,-8.618287,5.338347,3.520038,-4.652326,6.112007,-59.171989,0.165587,-2.594733,0.869408,-0.493574,0.012435,-0.018976
476,0.248348,-8.783137,5.521093,5.311674,-4.978980,6.645905,-59.004044,0.245052,-2.347774,0.870175,-0.492312,0.011950,-0.016777
477,-0.083782,-9.725091,5.586673,5.638238,-5.189615,7.271438,-58.818485,0.344871,-2.082917,0.871014,-0.490913,0.011546,-0.014356
478,0.019717,-9.808142,5.948444,-7.732009,-6.845254,5.794324,-58.860321,0.425280,-1.798648,0.870871,-0.491248,0.010944,-0.011847
479,0.025874,-10.052015,7.445162,-37.024746,-8.690144,5.243396,-59.558643,0.442822,-1.481747,0.867891,-0.496572,0.009776,-0.009304
480,0.057815,-10.566735,8.274793,-60.680096,-9.324987,4.860305,-61.076149,0.430769,-1.136649,0.861262,-0.508050,0.008277,-0.006633
481,-0.171058,-11.267114,8.657399,-76.015816,-7.823504,6.155790,-63.216377,0.456601,-0.797114,0.851639,-0.524067,0.007039,-0.003836
482,0.078662,-10.934161,8.807323,-76.047661,-6.930869,7.347507,-65.575562,0.549584,-0.476602,0.840676,-0.541501,0.006284,-0.000899
483,-0.472928,-11.372890,8.381641,-51.688862,-5.131799,11.568271,-67.501312,0.763838,-0.164699,0.831449,-0.555559,0.006341,0.002508
484,-0.451987,-11.736973,6.762113,-12.214616,-5.082901,15.548084,-68.399734,1.139354,0.165134,0.827032,-0.562065,0.007413,0.006780
485,-0.658008,-11.370103,5.732888,30.666462,-6.276098,18.165281,-67.978134,1.614488,0.552633,0.829014,-0.559029,0.008986,0.011874
486,-0.739529,-10.794422,4.428882,73.353157,-8.761720,19.596901,-66.183815,2.127272,1.031623,0.837526,-0.546007,0.010637,0.017676
487,-0.762345,-10.356169,2.727880,95.409676,-7.363819,20.094650,-63.423103,2.643269,1.556599,0.850236,-0.525721,0.012481,0.023675
488,-0.414122,-9.160181,3.087373,98.946892,-4.382048,14.911192,-60.304699,3.079395,2.000282,0.864013,-0.502449,0.014466,0.028582
489,-0.581313,-8.836316,3.006704,108.396912,0.336199,11.477849,-56.991779,3.421734,2.279991,0.878002,-0.477311,0.016746,0.031719
490,-0.123672,-8.042429,1.912246,101.843620,4.740056,5.879027,-53.735783,3.691405,2.360396,0.891099,-0.452196,0.019421,0.032917
491,0.023981,-6.571246,3.447056,79.118752,7.463654,-2.445399,-50.962410,3.808494,2.218137,0.901782,-0.430477,0.021669,0.031756
492,-0.098993,-5.706668,4.427916,74.572189,5.501010,-8.082651,-48.502396,3.755975,1.932291,0.910907,-0.410963,0.022953,0.028824
493,0.073891,-6.120122,4.022790,71.197601,3.520001,-12.848613,-46.174503,3.540295,1.578261,0.919216,-0.392299,0.023015,0.024775
494,-0.161895,-4.438284,4.796771,59.081352,3.058834,-16.883572,-44.069004,3.213032,1.146264,0.926442,-0.375259,0.022235,0.019786
495,-0.451956,-3.856536,5.139247,50.001446,2.071452,-14.576415,-42.187248,2.905792,0.709416,0.932619,-0.359917,0.021428,0.014899
496,-0.426440,-4.670406,4.525479,46.089264,1.447438,-12.894737,-40.576080,2.661243,0.328816,0.937681,-0.346707,0.020786,0.010743
497,-0.458902,-4.514497,5.894518,36.079144,1.444497,-11.875327,-39.227238,2.447820,-0.018974,0.941764,-0.335596,0.020176,0.007014
498,-0.659303,-4.147722,6.120910,36.529972,1.200557,-5.603562,-37.959534,2.329904,-0.270787,0.945451,-0.325121,0.019994,0.004378
499,-0.135975,-4.786396,6.109360,32.002968,0.626882,-5.637047,-36.782837,2.251932,-0.436328,0.948757,-0.315373,0.019848,0.002587
500,-0.259515,-5.519196,8.421630,35.489994,-0.777114,-9.136091,-35.636974,2.086922,-0.632657,0.951889,-0.305851,0.019026,0.000317
501,-0.581491,-4.883144,8.609158,46.015099,-2.083289,-7.472784,-34.205673,1.893553,-0.829323,0.955658,-0.293925,0.017921,-0.002057
502,-0.498812,-5.189684,8.245768,45.812820,-2.568388,-7.371943,-32.613365,1.712338,-0.990529,0.959666,-0.280613,0.016768,-0.004100
503,-0.667561,-4.827603,8.851965,41.855076,-2.499512,-10.428216,-31.108232,1.509986,-1.195731,0.963278,-0.267978,0.015491,-0.006518
504,-0.733147,-4.753113,9.119442,42.472176,-3.842007,-8.154367,-29.645254,1.300577,-1.406617,0.966623,-0.255657,0.014111,-0.008962
505,-0.848248,-4.222707,8.297303,42.347569,-3.756095,-4.659716,-28.182558,1.140680,-1.529841,0.969807,-0.243305,0.012904,-0.010524
506,-0.483488,-4.261755,8.696248,34.082027,-2.936267,-6.080117,-26.871489,1.006185,-1.635054,0.972524,-0.232200,0.011854,-0.011837
507,-0.465159,-3.796327,8.732368,33.356140,-1.536739,-3.734627,-25.704210,0.895910,-1.747058,0.974831,-0.222286,0.011012,-0.013124
508,-0.357701,-3.673529,8.622327,29.145084,-1.443431,-1.738595,-24.613619,0.837970,-1.807320,0.976897,-0.213002,0.010505,-0.013850
510,-0.369587,-3.354140,8.660770,27.837872,-0.637540,0.286412,-23.613567,0.819303,-1.814109,0.978719,-0.204470,0.010237,-0.014032
511,-0.315975,-3.424280,8.686609,22.081017,-0.702962,1.769704,-22.734928,0.833690,-1.772885,0.980262,-0.196961,0.010181,-0.013733
512,-0.351463,-3.282830,8.758058,18.896767,-0.521192,4.250944,-22.014809,0.873435,-1.671566,0.981491,-0.190801,0.010266,-0.012863
513,-0.485789,-3.209624,8.962232,11.537602,-1.178608,4.632536,-21.467813,0.930151,-1.522774,0.982404,-0.186120,0.010449,-0.011544
514,-0.420600,-3.379617,9.006830,7.256199,-1.420830,6.006034,-21.117325,0.997554,-1.341007,0.982982,-0.183123,0.010701,-0.009909
515,-0.533414,-3.342325,9.192078,3.142643,-1.444673,4.400990,-20.906872,1.076872,-1.161135,0.983326,-0.181325,0.011079,-0.008259
516,-0.445784,-3.301710,9.185259,2.590636,-0.928343,3.296446,-20.770897,1.146604,-1.026277,0.983545,-0.180165,0.011456,-0.007005
517,-0.450126,-3.141511,9.256385,-0.495786,-1.927356,3.343938,-20.680916,1.191725,-0.904765,0.983689,-0.179401,0.011647,-0.005900
518,-0.500704,-3.180158,9.243386,-0.861389,-2.259508,3.626437,-20.638815,1.221294,-0.770095,0.983759,-0.179051,0.011689,-0.004702
519,-0.490156,-3.127253,9.173202,-1.933530,-3.055513,4.386559,-20.623621,1.242374,-0.612603,0.983787,-0.178935,0.011623,-0.003319
520,-0.388678,-3.196628,9.025059,-3.889371,-3.956992,5.247320,-20.677032,1.226573,-0.420258,0.983709,-0.179413,0.011188,-0.001687
521,-0.383730,-3.117658,9.071237,-6.287891,-4.156723,5.386248,-20.818621,1.180832,-0.206101,0.983492,-0.180651,0.010460,0.000093
522,-0.267501,-3.339618,8.982282,-7.657994,-3.257838,4.347138,-21.029335,1.135730,-0.010066,0.983160,-0.182477,0.009761,0.001722
523,-0.202948,-3.325535,8.972333,-9.331841,-1.800543,0.114238,-21.301266,1.088154,0.089905,0.982726,-0.184819,0.009187,0.002526
524,-0.122762,-3.246158,8.987099,-10.546300,-0.590506,-3.352669,-21.615456,1.029153,0.054588,0.982221,-0.187510,0.008732,0.002152
525,-0.178378,-3.397155,8.677715,-11.361004,0.795011,-5.363845,-21.968996,0.976100,-0.081308,0.981644,-0.190531,0.008497,0.000927
526,-0.093125,-3.456889,8.335126,-15.868613,1.387045,-7.582551,-22.429052,0.925651,-0.294866,0.980875,-0.194456,0.008424,-0.000953
527,-0.031820,-3.633662,7.997436,-22.028990,1.388488,-7.246885,-23.085848,0.863515,-0.540968,0.979743,-0.200059,0.008328,-0.003117
528,-0.043602,-3.740050,7.791171,-29.735294,0.658999,-4.968725,-23.989466,0.802596,-0.741665,0.978132,-0.207768,0.008196,-0.004875
529,-0.208464,-3.958059,7.535030,-37.891888,0.259212,-2.534880,-25.170416,0.764453,-0.862377,0.975935,-0.217831,0.008150,-0.005891
530,-0.180671,-4.117966,7.441193,-48.963100,-1.295622,-0.676273,-26.680872,0.734027,-0.903889,0.972978,-0.230675,0.008052,-0.006197
531,-0.117204,-4.520232,7.731042,-57.045021,-2.214190,0.571943,-28.508755,0.685001,-0.879345,0.969178,-0.246171,0.007683,-0.005965
532,-0.285129,-4.746107,7.777687,-58.138130,-2.421631,0.771877,-30.481482,0.637956,-0.822689,0.964800,-0.262826,0.007258,-0.005463
533,-0.294547,-5.067169,8.028668,-55.600895,-2.351274,0.375225,-32.414688,0.598745,-0.765907,0.960233,-0.279071,0.006883,-0.004960
534,-0.130111,-5.468009,8.126941,-51.981678,-1.133490,-0.947699,-34.234409,0.555850,-0.742797,0.955683,-0.294288,0.006544,-0.004767
535,-0.169676,-6.194461,8.440018,-38.208969,0.790741,-1.797618,-35.767197,0.529610,-0.777439,0.951660,-0.307044,0.006482,-0.005037
536,-0.048203,-6.194218,8.138194,-22.229778,2.357876,-4.908976,-36.805023,0.506937,-0.898856,0.948835,-0.315645,0.006674,-0.006046
537,-0.383879,-6.093663,8.021971,-13.477229,3.403229,-6.418046,-37.417934,0.481800,-1.107605,0.947121,-0.320705,0.007082,-0.007806
538,-0.438489,-6.023302,7.845003,-13.652755,2.939597,-7.370038,-37.876411,0.456456,-1.354421,0.945811,-0.324478,0.007603,-0.009887
539,-0.216870,-5.991762,7.584929,-12.595332,2.935210,-9.088083,-38.320305,0.388318,-1.630990,0.944520,-0.328129,0.007872,-0.012332
540,-0.279633,-5.474411,7.223005,-22.696898,1.783281,-10.015732,-38.904099,0.269534,-1.929022,0.942797,-0.332932,0.007823,-0.015089
541,-0.487663,-5.526309,7.176212,-33.463619,0.813064,-8.182875,-39.820461,0.145347,-2.191204,0.940063,-0.340462,0.007704,-0.017546
542,-0.201851,-5.878298,7.203789,-41.352493,0.155642,-5.832745,-41.051674,0.038376,-2.379930,0.936315,-0.350548,0.007595,-0.019331
543,-0.011110,-6.059778,6.702165,-41.146534,0.930884,-4.483766,-42.430279,-0.053465,-2.520474,0.931999,-0.361793,0.007524,-0.020672
544,-0.233953,-6.330614,6.709839,-42.031738,0.677675,-1.595103,-43.832664,-0.090396,-2.612782,0.927482,-0.373172,0.007778,-0.021446
545,0.052685,-6.432633,6.546575,-35.105690,1.585679,-0.842751,-45.131073,-0.081628,-2.668338,0.923184,-0.383651,0.008277,-0.021774
546,0.074095,-6.783791,6.177840,-31.344549,2.049523,-0.204950,-46.265110,-0.056936,-2.723718,0.919334,-0.392760,0.008880,-0.022051
547,0.191944,-6.638760,6.022505,-30.292000,2.812396,-2.637367,-47.326069,-0.048910,-2.814916,0.915641,-0.401245,0.009467,-0.022668
548,0.156287,-6.875604,6.221962,-30.423403,3.520306,-3.057124,-48.354847,-0.065623,-2.956618,0.911972,-0.409441,0.010044,-0.023770
549,-0.072725,-6.801974,6.006516,-30.125910,3.778165,-3.749917,-49.369801,-0.074239,-3.122659,0.908273,-0.417488,0.010791,-0.025028
550,-0.151030,-7.336061,6.306753,-33.258648,3.585981,-2.059099,-50.427135,-0.056738,-3.279053,0.904350,-0.425832,0.011740,-0.026096
551,0.061870,-7.486040,6.363504,-32.802322,2.655202,-1.709620,-51.520893,-0.034631,-3.399502,0.900219,-0.434426,0.012619,-0.026845
552,-0.068130,-8.149441,6.889770,-32.623581,1.951755,0.841733,-52.590145,0.001905,-3.468986,0.896114,-0.442791,0.013423,-0.027129
553,0.122964,-8.314001,6.917721,-26.774368,1.982261,1.626042,-53.546017,0.071905,-3.496578,0.892391,-0.450230,0.014303,-0.026956
554,0.248572,-9.131395,7.323299,-20.960207,3.678993,1.009440,-54.303097,0.146766,-3.546708,0.889394,-0.456091,0.015261,-0.026952
555,0.198393,-9.191270,7.217933,-12.207106,6.271421,-2.927609,-54.816994,0.196937,-3.700007,0.887309,-0.460042,0.016386,-0.027868
556,-0.023063,-9.279651,7.301726,-6.728577,10.334901,-4.604682,-55.088219,0.243331,-3.998466,0.886148,-0.462083,0.018014,-0.029951
557,-0.156832,-8.875575,6.962758,1.504307,12.919839,-5.773508,-55.125603,0.327287,-4.415063,0.885894,-0.462278,0.020354,-0.032827
558,-0.310096,-8.831470,6.880342,8.080040,13.785123,-4.795264,-54.917019,0.453480,-4.880395,0.886611,-0.460535,0.023141,-0.035957
559,-0.252779,-8.373137,6.639911,13.190894,11.909862,-3.058612,-54.513409,0.612231,-5.305088,0.888112,-0.457261,0.025939,-0.038696
560,-0.227496,-8.110060,6.256558,14.908019,9.143431,0.335155,-54.003212,0.793605,-5.615834,0.890057,-0.453157,0.028404,-0.040506
561,-0.275976,-8.171515,6.390303,14.384975,5.519422,3.318435,-53.482693,0.999003,-5.776390,0.892076,-0.448983,0.030447,-0.041079
562,-0.079024,-8.888271,5.916671,9.044167,1.948765,5.058000,-53.099579,1.186800,-5.792868,0.893589,-0.445912,0.031837,-0.040576
563,-0.058335,-8.500542,6.426229,-15.201485,-2.526842,1.920600,-53.222916,1.262152,-5.715875,0.893144,-0.446863,0.032168,-0.039648
564,0.096049,-8.787194,7.620142,-46.256756,-5.851971,-0.420339,-54.208363,1.178080,-5.587665,0.889303,-0.454598,0.031347,-0.038709
565,-0.075539,-9.335838,8.465561,-65.390984,-7.333786,0.836863,-55.977444,1.036938,-5.401170,0.882223,-0.468381,0.030092,-0.037362
566,-0.151329,-9.730548,8.548976,-72.029152,-7.088188,4.375415,-58.148872,0.969386,-5.149407,0.873260,-0.485105,0.029215,-0.035153
567,-0.229746,-9.692451,9.245896,-62.461536,-6.586195,10.454694,-60.225636,1.062143,-4.823684,0.864432,-0.500901,0.029123,-0.031755
568,-0.901294,-11.021930,9.107754,-27.621349,-8.368397,19.402925,-61.537891,1.396549,-4.359966,0.858789,-0.510771,0.029922,-0.026452
569,-0.636904,-11.161210,7.109644,30.076563,-10.103234,23.749056,-61.364372,1.912143,-3.742124,0.859711,-0.509464,0.031001,-0.019566
570,-0.194396,-10.936878,5.890435,70.332306,-9.483702,27.029827,-59.633274,2.488296,-3.038056,0.867398,-0.496435,0.032010,-0.012202
571,-0.486339,-10.268798,5.051150,92.994972,-12.584410,27.319666,-56.911522,3.054326,-2.249181,0.878953,-0.475759,0.032775,-0.004553
572,-0.312378,-9.647386,4.322010,100.402260,-14.739034,22.541866,-53.751640,3.466463,-1.406147,0.891681,-0.451486,0.032522,0.002732
573,0.344115,-8.472579,3.656489,99.071373,-10.253059,15.274887,-50.566902,3.651468,-0.701074,0.903813,-0.426696,0.031419,0.008078
574,-0.614261,-7.274757,4.071561,79.301109,-6.177457,14.436753,-47.753269,3.805210,-0.183762,0.913935,-0.404496,0.031008,0.011973
575,-0.663054,-6.663492,4.566323,61.873547,-5.536411,11.355944,-45.521076,3.996922,0.243656,0.921538,-0.386713,0.031335,0.015451
576,-0.404316,-6.087614,5.203879,62.415802,-2.606598,4.583833,-43.528114,4.085331,0.522528,0.928059,-0.370697,0.031413,0.017448
577,-0.639527,-5.279175,5.458613,62.110241,-1.539977,0.930726,-41.482452,4.092501,0.634760,0.934509,-0.354102,0.031431,0.017822
578,-0.547352,-4.808871,5.643197,52.741104,-1.890890,-0.051918,-39.561012,4.065212,0.683894,0.940316,-0.338398,0.031356,0.017615
579,-0.160951,-4.736277,6.155787,46.062382,-0.299539,-3.728004,-37.891308,3.974389,0.659203,0.945178,-0.324659,0.030930,0.016696
580,-0.406964,-4.421728,6.225542,43.801334,-0.807933,-7.034863,-36.365471,3.819278,0.528891,0.949480,-0.312018,0.030220,0.014781
581,-0.419410,-4.409935,6.502323,33.047001,0.188368,-7.713962,-35.058174,3.653099,0.337440,0.953047,-0.301125,0.029507,0.012407
582,-0.319104,-4.806471,7.116617,26.526993,0.603255,-12.136191,-34.055779,3.456987,0.058530,0.955723,-0.292719,0.028692,0.009321
583,-0.612559,-4.718279,7.386556,31.089718,1.979566,-15.801502,-33.098721,3.226712,-0.352590,0.958215,-0.284644,0.027864,0.005071
584,-0.500411,-4.492161,7.563997,29.942547,0.499447,-18.812111,-32.076824,2.955467,-0.859702,0.960783,-0.275996,0.026856,-0.000083
585,-0.887934,-4.727476,8.387415,30.107765,1.300712,-18.644136,-31.060812,2.673611,-1.405192,0.963230,-0.267381,0.025758,-0.005565
586,-0.598755,-4.609939,8.479510,31.632599,-0.636998,-18.581413,-30.012667,2.394513,-1.943083,0.965639,-0.258490,0.024568,-0.010965
587,-0.790818,-4.504982,8.384199,31.365913,0.333715,-12.970436,-28.945082,2.158418,-2.396539,0.967982,-0.249436,0.023458,-0.015539
588,-0.592972,-4.393041,8.711558,29.054466,-2.081565,-10.711905,-27.917452,1.975838,-2.728332,0.970150,-0.240720,0.022470,-0.018943
589,-0.759102,-4.468616,8.743787,31.789177,-1.814256,-5.796742,-26.885281,1.823118,-2.941258,0.972255,-0.231969,0.021434,-0.021261
590,-0.530489,-3.921725,8.499990,32.628681,-2.477753,-4.234039,-25.790724,1.717397,-3.058158,0.974412,-0.222677,0.020558,-0.022665
591,-0.677947,-3.844109,8.755611,29.484098,-2.121935,-0.486218,-24.721739,1.645960,-3.094985,0.976445,-0.213589,0.019806,-0.023303
592,-0.588719,-3.400180,8.954662,28.765886,-2.631283,0.067857,-23.700205,1.606177,-3.066877,0.978319,-0.204891,0.019207,-0.023310
593,-0.799655,-3.343518,8.996976,24.258905,-2.301307,3.949998,-22.753708,1.598991,-2.970520,0.979998,-0.196821,0.018787,-0.022656
594,-0.650870,-3.263591,9.239409,21.032124,-2.854815,3.710618,-21.939707,1.612964,-2.817585,0.981399,-0.189876,0.018492,-0.021456
595,-0.665394,-3.264546,9.310003,18.012810,-3.489261,3.797749,-21.235449,1.597780,-2.660340,0.982578,-0.183870,0.017977,-0.020246
596,-0.829629,-3.257948,9.355088,15.023907,-3.499525,3.781140,-20.641769,1.579466,-2.499105,0.983546,-0.178806,0.017463,-0.018983
597,-0.565850,-3.347004,9.295613,11.726689,-4.129223,2.334768,-20.161222,1.550735,-2.357850,0.984313,-0.174706,0.016922,-0.017887
598,-0.421747,-3.363578,9.294291,9.566164,-4.411117,0.934124,-19.785301,1.478739,-2.257066,0.984902,-0.171505,0.016093,-0.017184
599,-0.358588,-3.507501,9.192622,8.127078,-4.525324,1.076117,-19.502277,1.374736,-2.175555,0.985343,-0.169102,0.015036,-0.016677
600,-0.106006,-3.406416,9.329401,5.222966,-3.902769,-1.856726,-19.306581,1.235376,-2.141770,0.985645,-0.167448,0.013760,-0.016616
601,-0.086245,-3.542082,9.296456,5.248684,-3.640487,-4.725533,-19.155529,1.061631,-2.204475,0.985866,-0.166172,0.012334,-0.017426
602,-0.140244,-3.460611,9.244073,4.438175,-3.272814,-6.311001,-19.020760,0.884349,-2.341153,0.986047,-0.165031,0.010985,-0.018873
603,-0.326084,-3.501040,9.432274,3.496453,-2.544889,-6.889312,-18.913607,0.727163,-2.518089,0.986175,-0.164123,0.009868,-0.020631
604,-0.328933,-3.225929,9.742356,2.271073,-3.661702,-6.463523,-18.825766,0.574627,-2.695311,0.986269,-0.163384,0.008792,-0.022382
605,-0.414174,-3.322627,9.524612,3.938925,-4.639594,-3.919728,-18.721710,0.411981,-2.814561,0.986394,-0.162515,0.007541,-0.023647
606,-0.253111,-2.764870,9.914252,3.484426,-5.649538,-0.995979,-18.575329,0.246446,-2.837160,0.986594,-0.161289,0.006117,-0.024085
607,-0.160103,-2.994376,10.146152,6.806805,-6.697721,3.215621,-18.359583,0.076493,-2.736584,0.986913,-0.159472,0.004468,-0.023467
608,0.270095,-2.699198,10.005052,13.788363,-7.462285,4.595034,-17.971422,-0.115015,-2.539252,0.987481,-0.156172,0.002470,-0.022042
609,0.127819,-2.764053,9.719320,18.659563,-5.977733,2.922563,-17.386709,-0.308602,-2.352102,0.988291,-0.151168,0.000441,-0.020696
610,0.275067,-2.587452,9.419239,19.709743,-4.142195,3.433699,-16.713913,-0.454880,-2.201761,0.989180,-0.145387,-0.001134,-0.019585
611,0.198556,-2.795473,9.016220,16.929634,-2.482152,4.732211,-16.092054,-0.539486,-2.040391,0.989976,-0.140028,-0.002169,-0.018288
613,0.166319,-2.639601,8.705218,9.432654,-0.889187,4.410211,-15.664958,-0.562241,-1.878544,0.990515,-0.136337,-0.002626,-0.016908
614,-0.067009,-2.460684,8.648391,-0.229588,0.264451,3.181853,-15.521029,-0.534181,-1.753847,0.990705,-0.135086,-0.002552,-0.015794
615,0.012479,-2.354624,8.754303,-7.944645,0.395796,5.800373,-15.656408,-0.471245,-1.612649,0.990567,-0.136246,-0.002157,-0.014501
616,-0.124202,-2.398558,9.209834,-11.992799,0.350154,5.835506,-15.977373,-0.392424,-1.429631,0.990207,-0.139008,-0.001657,-0.012830
617,-0.089880,-2.474547,9.420068,-11.960562,0.301496,5.020709,-16.358326,-0.313733,-1.259148,0.989760,-0.142290,-0.001147,-0.011266
618,-0.235763,-2.459445,9.635013,-9.581370,0.345956,4.343257,-16.690590,-0.237378,-1.112887,0.989360,-0.145151,-0.000640,-0.009909
619,-0.124798,-2.762238,9.720517,-8.554183,0.120328,6.674932,-16.969561,-0.154983,-0.939601,0.989019,-0.147553,-0.000128,-0.008309
620,0.041944,-2.893388,9.699024,-7.492040,0.353863,5.017797,-17.227507,-0.082998,-0.755748,0.988698,-0.149774,0.000272,-0.006629
621,0.026191,-2.888291,9.654743,-8.554007,0.160059,4.836208,-17.487326,-0.027044,-0.601569,0.988365,-0.152013,0.000565,-0.005225
622,0.255247,-2.854762,9.409381,-10.067625,0.602456,2.524392,-17.787857,0.009536,-0.488493,0.987967,-0.154604,0.000741,-0.004199
623,0.317433,-2.844044,9.221416,-10.181965,2.747641,-1.140966,-18.114876,0.041881,-0.483651,0.987522,-0.157422,0.001025,-0.004110
624,0.435760,-2.835799,9.127022,-8.130997,5.208598,-5.000147,-18.407743,0.097961,-0.622190,0.987111,-0.159941,0.001712,-0.005223
625,0.143036,-2.857156,8.832072,-6.093774,7.922933,-6.791678,-18.634378,0.212904,-0.877852,0.986779,-0.161881,0.003074,-0.007259
626,0.215261,-3.154400,8.512335,-3.505906,9.422715,-10.508901,-18.806408,0.372972,-1.243645,0.986506,-0.163336,0.004984,-0.010175
627,-0.031493,-3.407068,8.283831,-3.709291,10.028372,-14.337495,-18.974251,0.531198,-1.740579,0.986210,-0.164736,0.007075,-0.014217
628,-0.070820,-3.597829,8.425152,-8.527279,9.581256,-16.612663,-19.248499,0.668977,-2.335521,0.985724,-0.167031,0.009162,-0.019117
629,-0.366864,-3.902389,8.335657,-14.422758,9.788906,-19.025118,-19.722492,0.787753,-3.004184,0.984894,-0.171022,0.011260,-0.024649
630,-0.171916,-3.893540,8.657300,-21.958637,9.048983,-21.237667,-20.425409,0.867629,-3.743585,0.983647,-0.176960,0.013239,-0.030803
631,-0.387285,-3.862664,8.972893,-32.445408,8.554715,-21.928873,-21.405165,0.898360,-4.521526,0.981867,-0.185257,0.015023,-0.037305
632,-0.159284,-4.200956,9.646005,-40.144119,8.852379,-19.850527,-22.668365,0.916928,-5.276783,0.979499,-0.195955,0.016884,-0.043562
633,-0.248254,-4.337708,9.503601,-40.370289,8.986695,-19.058565,-24.054852,0.935595,-5.990469,0.976768,-0.207671,0.018862,-0.049405
634,-0.103017,-4.323302,9.637792,-39.401489,8.196272,-18.269661,-25.411768,0.935893,-6.675584,0.973929,-0.219102,0.020759,-0.055002
635,-0.130037,-4.678185,9.656927,-37.510910,6.418522,-16.810898,-26.707975,0.892696,-7.307796,0.971069,-0.230007,0.022283,-0.060209
636,0.010061,-4.965136,9.359243,-33.059929,6.339087,-14.772308,-27.906376,0.830130,-7.873188,0.968298,-0.240071,0.023568,-0.064882
637,-0.107852,-5.064002,8.849658,-28.020058,5.980410,-16.044975,-28.957783,0.756405,-8.422695,0.965726,-0.248873,0.024734,-0.069456
638,-0.025059,-4.960289,8.842121,-25.816805,5.530200,-15.544509,-29.880165,0.658180,-8.975749,0.963333,-0.256580,0.025705,-0.074126
639,-0.342151,-5.302785,8.676296,-22.502653,5.171656,-14.013982,-30.706633,0.569222,-9.491262,0.961103,-0.263463,0.026678,-0.078468
640,-0.280341,-5.265193,8.471029,-15.903250,5.719630,-12.800775,-31.373798,0.513567,-9.968207,0.959209,-0.268980,0.027789,-0.082435
641,-0.365760,-5.222859,8.433351,-8.276804,5.059094,-11.787449,-31.793571,0.474158,-10.411683,0.957884,-0.272412,0.028815,-0.086135
642,-0.351506,-4.931710,8.354604,-0.431951,4.104091,-9.335146,-31.934742,0.444894,-10.791391,0.957252,-0.273518,0.029584,-0.089342
643,-0.256376,-5.247937,8.121606,3.668157,3.190328,-5.892494,-31.888229,0.445386,-11.071168,0.957142,-0.273056,0.030218,-0.091690
644,0.146447,-5.345728,8.165534,5.585870,2.233541,-4.774013,-31.773159,0.424643,-11.270177,0.957251,-0.272059,0.030425,-0.093432
645,0.022120,-5.552160,8.041571,5.835427,1.906733,-4.485780,-31.653442,0.371277,-11.438317,0.957385,-0.271059,0.030280,-0.094995
646,0.250465,-5.719640,8.048996,5.960981,2.110873,-4.554662,-31.567629,0.309700,-11.602541,0.957437,-0.270351,0.030081,-0.096535
647,0.302123,-5.927703,7.977274,4.017014,3.117439,-5.433940,-31.548521,0.232273,-11.790907,0.957305,-0.270209,0.029863,-0.098297
648,0.247925,-6.066616,8.066871,3.573207,3.678576,-6.059826,-31.551691,0.180712,-12.014049,0.957092,-0.270223,0.029961,-0.100282
649,0.008979,-5.986246,7.877617,2.122657,3.687600,-5.538043,-31.549629,0.168639,-12.243350,0.956892,-0.270156,0.030399,-0.102226
650,0.042079,-5.919788,8.006037,1.263795,2.475942,-2.928761,-31.623043,0.173439,-12.417747,0.956563,-0.270718,0.030917,-0.103651
651,-0.174757,-5.685500,8.170259,5.280200,0.731873,-0.142387,-31.649748,0.199098,-12.489767,0.956441,-0.270898,0.031325,-0.104184
652,-0.221127,-5.328658,7.929269,14.354156,-0.801483,0.739718,-31.394711,0.226606,-12.480842,0.957056,-0.268745,0.031302,-0.104115
653,0.061583,-5.318828,7.591787,16.819561,-1.350779,0.800776,-30.923912,0.213552,-12.440393,0.958186,-0.264834,0.030671,-0.103934
654,0.044688,-5.635335,7.747546,13.850911,-0.804573,0.367363,-30.485285,0.183559,-12.405623,0.959217,-0.261201,0.029943,-0.103828
655,-0.033230,-5.643754,7.687708,9.546894,0.350520,-2.609739,-30.186140,0.154285,-12.434411,0.959863,-0.258715,0.029492,-0.104213
656,-0.015159,-5.764887,7.572757,-1.259255,1.011244,-5.214498,-30.155508,0.107917,-12.558854,0.959807,-0.258469,0.029356,-0.105368
657,0.049392,-6.022066,7.938204,-15.752144,0.513761,-3.545157,-30.556631,0.052183,-12.697893,0.958754,-0.261843,0.029576,-0.106556
658,-0.267264,-5.761178,8.388916,-24.597319,-0.682487,-0.952566,-31.320223,0.019878,-12.760850,0.956921,-0.268240,0.030163,-0.106958
659,-0.261221,-5.350292,8.262263,-27.761023,-2.989475,2.546507,-32.238819,0.006255,-12.706343,0.954787,-0.275929,0.030775,-0.106291
660,-0.058011,-5.364017,8.240315,-30.852749,-5.282811,7.415815,-33.235867,-0.004935,-12.492473,0.952543,-0.284295,0.031075,-0.104270
661,0.057513,-5.325742,8.272568,-32.277992,-7.385536,10.789635,-34.291000,-0.012161,-12.122952,0.950214,-0.293162,0.031029,-0.100934
662,-0.126607,-5.335538,8.290459,-34.084522,-9.706439,13.327270,-35.380463,-0.013175,-11.630366,0.947807,-0.302318,0.030679,-0.096564
663,-0.030325,-5.537048,8.201335,-33.856922,-11.868611,14.723536,-36.488853,-0.022380,-11.041067,0.945319,-0.311637,0.029934,-0.091427
664,0.137894,-5.572136,8.148796,-32.854095,-13.014620,14.981387,-37.572090,-0.060408,-10.396254,0.942819,-0.320756,0.028679,-0.085943
665,0.095195,-5.572886,8.006192,-32.772816,-13.809712,14.721915,-38.626389,-0.117535,-9.730822,0.940295,-0.329622,0.027087,-0.080380
666,0.034359,-5.689145,7.905463,-32.876114,-13.954714,15.613026,-39.675327,-0.162074,-9.046689,0.937689,-0.338404,0.025437,-0.074664
667,0.174690,-5.719363,7.657193,-32.004326,-13.947145,16.282852,-40.710285,-0.182366,-8.340578,0.935031,-0.347025,0.023807,-0.068732
668,0.173976,-5.710318,7.451461,-31.774923,-14.015923,16.586416,-41.724140,-0.186759,-7.621396,0.932335,-0.355433,0.022148,-0.062682
669,0.202561,-5.908101,7.347845,-31.757626,-13.997732,16.766371,-42.733810,-0.174947,-6.895970,0.929546,-0.363764,0.020493,-0.056564
670,0.169538,-6.037015,7.174385,-30.396038,-14.113818,16.577045,-43.725216,-0.151575,-6.170106,0.926707,-0.371908,0.018815,-0.050439
671,0.276583,-6.099555,6.921731,-29.594511,-14.055980,16.358698,-44.685123,-0.125687,-5.449185,0.923862,-0.379762,0.017057,-0.044383
672,0.293702,-6.408541,6.807562,-30.596733,-13.410706,15.816807,-45.658337,-0.095098,-4.746216,0.920862,-0.387684,0.015301,-0.038485
673,0.275671,-6.638325,6.461928,-30.132740,-11.956692,13.607073,-46.660427,-0.061456,-4.101231,0.917642,-0.395794,0.013679,-0.033069
674,0.296507,-6.842581,6.284921,-31.289463,-9.417747,11.317982,-47.691830,-0.026848,-3.557189,0.914192,-0.404090,0.012334,-0.028483
675,0.225458,-7.189553,6.341198,-34.208698,-6.514086,10.151986,-48.797195,0.037857,-3.120353,0.910360,-0.412921,0.011548,-0.024659
676,0.148117,-7.551291,6.501871,-35.989571,-4.292460,9.198146,-49.977821,0.147348,-2.773261,0.906137,-0.422291,0.011388,-0.021391
677,0.114648,-7.622526,6.694715,-33.888302,-2.928376,8.441181,-51.134571,0.284113,-2.493204,0.901886,-0.431419,0.011625,-0.018555
678,0.033828,-7.748564,7.173142,-30.163084,-2.492030,9.490938,-52.157036,0.451967,-2.236460,0.898048,-0.439446,0.012121,-0.015795
679,-0.175007,-7.755050,7.402541,-22.433462,-2.661412,10.025017,-52.949844,0.658009,-1.969743,0.895027,-0.445644,0.012802,-0.012826
680,-0.070049,-7.498105,7.361068,-13.154734,-2.768223,7.838386,-53.429527,0.843751,-1.717691,0.893181,-0.449388,0.013315,-0.010079
681,-0.186081,-7.360389,7.367197,-4.235907,-2.304360,3.205682,-53.584732,0.940635,-1.538414,0.892585,-0.450604,0.013378,-0.008283
682,-0.224608,-7.284472,7.225936,1.844775,-0.895924,-1.843557,-53.484119,0.931376,-1.479817,0.892985,-0.449829,0.013068,-0.007875
683,-0.167853,-7.052032,6.902874,3.983943,0.945869,-6.811932,-53.253563,0.819172,-1.564337,0.893882,-0.448037,0.012508,-0.008999
684,0.000161,-6.885047,6.636090,2.836174,2.755564,-10.805319,-53.017521,0.614850,-1.787917,0.894782,-0.446199,0.011764,-0.011567
685,0.009222,-7.105512,6.605318,1.068717,4.664412,-12.317602,-52.846149,0.369464,-2.117491,0.895402,-0.444864,0.011109,-0.015113
686,0.095205,-7.280417,6.335191,-0.221400,5.875909,-10.752104,-52.752205,0.155999,-2.489133,0.895698,-0.444130,0.010869,-0.018854
687,0.024579,-7.330428,6.079646,-0.716801,6.107786,-8.786792,-52.715950,0.007401,-2.844994,0.895762,-0.443840,0.011079,-0.022215
688,0.048247,-7.502056,6.103491,0.034310,4.945000,-6.488788,-52.691570,-0.088512,-3.145739,0.895785,-0.443639,0.011489,-0.024940
689,0.005601,-7.747581,6.109435,2.897258,1.885511,-4.437957,-52.611057,-0.165716,-3.346748,0.896042,-0.443006,0.011645,-0.026818
690,0.216012,-7.692173,5.983222,7.200607,-1.541823,-4.445725,-52.418407,-0.297121,-3.441490,0.896746,-0.441519,0.010937,-0.028085
691,0.430033,-7.439456,5.785518,10.421942,-4.084244,-7.948023,-52.113712,-0.555493,-3.493938,0.897866,-0.439186,0.009038,-0.029515
692,0.721407,-7.284622,5.811893,9.878794,-5.064203,-12.523154,-51.765942,-0.969638,-3.584514,0.899100,-0.436543,0.006043,-0.031829
693,0.832175,-7.381914,6.045976,6.537166,-4.313851,-18.482412,-51.473236,-1.537473,-3.783311,0.900035,-0.434358,0.002254,-0.035555
694,0.816392,-7.419035,6.242557,5.405148,-2.931735,-24.104399,-51.240959,-2.228081,-4.132969,0.900618,-0.432677,-0.001930,-0.040909
695,0.606577,-7.302954,6.358741,2.886164,-2.074398,-26.785759,-51.049744,-2.979581,-4.601709,0.900916,-0.431352,-0.006149,-0.047410
696,0.461898,-7.376363,6.730567,0.139972,-0.704153,-26.291439,-50.921402,-3.704727,-5.125608,0.900885,-0.430542,-0.009943,-0.054233
697,0.335973,-7.510421,7.014547,3.113090,0.391602,-23.857471,-50.768818,-4.338278,-5.654070,0.900906,-0.429547,-0.013025,-0.060733
698,0.337339,-7.425344,7.027991,11.686416,0.259108,-18.341009,-50.417633,-4.839140,-6.115176,0.901709,-0.426970,-0.015444,-0.066172
699,0.594552,-7.210126,7.095781,18.802565,0.471464,-13.351020,-49.802525,-5.203721,-6.470840,0.903577,-0.422275,-0.017370,-0.070223
700,0.765941,-7.130675,7.257046,26.893869,1.602357,-10.465395,-48.928795,-5.462564,-6.764352,0.906437,-0.415496,-0.018894,-0.073338
701,0.927832,-7.035267,7.395687,37.446526,1.753547,-7.917081,-47.743858,-5.644514,-7.019293,0.910410,-0.406201,-0.020197,-0.075801
702,1.008460,-6.870206,7.514616,45.403580,0.900630,-6.821510,-46.254391,-5.791693,-7.228940,0.915383,-0.394421,-0.021638,-0.077706
703,1.081973,-6.569620,7.577066,49.281834,-0.184263,-8.109476,-44.569244,-5.963540,-7.422016,0.920844,-0.381016,-0.023521,-0.079493
704,1.101371,-6.186463,7.662563,50.739994,-1.408039,-8.228615,-42.792294,-6.177400,-7.610942,0.926373,-0.366811,-0.025881,-0.081319
705,1.135961,-5.878589,7.894320,51.906769,-2.674540,-6.460192,-40.968994,-6.398390,-7.759052,0.931842,-0.352145,-0.028518,-0.082767
706,1.160722,-5.627023,8.071682,51.677357,-3.405433,-4.499506,-39.133049,-6.599497,-7.845500,0.937168,-0.337273,-0.031236,-0.083586
707,1.222230,-5.332033,8.098380,51.814137,-3.158225,-2.114621,-37.307831,-6.761161,-7.876002,0.942291,-0.322378,-0.033810,-0.083772
708,1.218384,-5.040524,8.172824,52.462063,-1.314913,0.447264,-35.478035,-6.846377,-7.865526,0.947268,-0.307323,-0.035878,-0.083358
709,1.163387,-5.078278,8.200474,53.669842,1.660659,2.414081,-33.636112,-6.818680,-7.839082,0.952123,-0.292037,-0.037050,-0.082482
710,0.944693,-4.971273,8.138535,52.989758,4.238058,3.357105,-31.812796,-6.674523,-7.817372,0.956759,-0.276782,-0.037204,-0.081363
711,0.984121,-4.809922,7.951373,49.140087,5.999115,4.464984,-30.089998,-6.446285,-7.795906,0.960972,-0.262259,-0.036554,-0.080107
712,0.800259,-4.710204,7.917558,42.392445,7.525193,4.976259,-28.567917,-6.155138,-7.768889,0.964567,-0.249331,-0.035218,-0.078771
713,0.655692,-4.725374,7.924129,35.534695,9.207009,6.241420,-27.297215,-5.791585,-7.731256,0.967509,-0.238439,-0.033094,-0.077323
714,0.462692,-4.553967,8.084713,27.886400,9.994740,7.389143,-26.282303,-5.361786,-7.668330,0.969859,-0.229639,-0.030260,-0.075657
716,0.404148,-4.509100,8.222003,21.683136,10.004311,9.553157,-25.504032,-4.890143,-7.555346,0.971709,-0.222793,-0.026989,-0.073598
717,0.176015,-4.419948,8.568439,19.096340,10.061262,10.562066,-24.872997,-4.388692,-7.390229,0.973259,-0.217162,-0.023444,-0.071118
718,0.155998,-4.180872,8.797195,20.898266,9.369035,12.423968,-24.241413,-3.874022,-7.173645,0.974791,-0.211508,-0.019854,-0.068215
719,0.133957,-3.935716,9.018791,23.002525,7.532318,14.385011,-23.527563,-3.380857,-6.877847,0.976448,-0.205154,-0.016604,-0.064702
720,0.177352,-3.654347,9.196543,26.071371,5.344561,15.947731,-22.709854,-2.939573,-6.497108,0.978243,-0.197930,-0.013954,-0.060582
721,0.298960,-3.368691,9.340518,28.736032,3.107835,15.746406,-21.778152,-2.579508,-6.062445,0.980147,-0.189765,-0.012085,-0.056161
722,0.316510,-3.119168,9.393275,30.396761,0.816055,14.905660,-20.759790,-2.317016,-5.611665,0.982076,-0.180895,-0.011046,-0.051779
723,0.381172,-2.977923,9.495100,30.571280,-0.920372,13.431620,-19.704905,-2.148173,-5.169628,0.983932,-0.171740,-0.010735,-0.047630
724,0.360870,-2.828194,9.509686,31.601814,-2.188394,11.115252,-18.629658,-2.061321,-4.767845,0.985679,-0.162431,-0.011003,-0.043949
725,0.259725,-2.676570,9.483156,32.491932,-3.041332,8.924021,-17.523853,-2.035598,-4.424742,0.987333,-0.152869,-0.011663,-0.040851
726,0.174290,-2.509279,9.423254,32.022404,-3.024418,7.459157,-16.413443,-2.039754,-4.135245,0.988867,-0.143265,-0.012456,-0.038243
727,0.110637,-2.394551,9.444366,30.361071,-2.648846,6.522283,-15.342767,-2.047049,-3.886174,0.990241,-0.133993,-0.013167,-0.035981
728,0.015366,-2.313379,9.463054,28.743908,-2.276249,5.724289,-14.333985,-2.046295,-3.668423,0.991449,-0.125245,-0.013715,-0.033979
729,-0.010604,-2.174031,9.456352,25.625164,-2.285074,5.309315,-13.410001,-2.042174,-3.471924,0.992484,-0.117221,-0.014154,-0.032161
730,0.070980,-2.110325,9.506849,21.352762,-2.238993,4.801250,-12.614553,-2.046572,-3.290840,0.993322,-0.110307,-0.014589,-0.030497
731,0.123670,-2.072654,9.558208,18.516174,-2.075480,3.473747,-11.944880,-2.062919,-3.140724,0.993986,-0.104485,-0.015046,-0.029124
732,0.177951,-2.013936,9.534835,15.978592,-1.510696,1.616737,-11.370128,-2.084854,-3.045372,0.994518,-0.099490,-0.015465,-0.028239
733,0.188751,-1.909527,9.625285,11.577849,-1.144231,-0.504251,-10.909214,-2.099896,-3.018522,0.994914,-0.095489,-0.015731,-0.027956
734,0.271335,-1.820333,9.723941,7.544905,-0.956295,-3.614041,-10.580681,-2.121957,-3.079554,0.995164,-0.092649,-0.015954,-0.028459
735,0.286817,-1.746187,9.716336,2.919909,-0.663192,-6.839826,-10.391668,-2.167670,-3.246290,0.995265,-0.091041,-0.016265,-0.029916
736,0.347003,-1.734070,9.686432,-3.948227,-0.122964,-9.960337,-10.393048,-2.226118,-3.519696,0.995178,-0.091106,-0.016555,-0.032337
737,0.312187,-1.705740,9.857931,-10.943003,-0.179375,-12.607810,-10.619863,-2.294905,-3.889134,0.994873,-0.093148,-0.016788,-0.035632
738,0.345286,-1.736274,9.793773,-14.820284,-0.699654,-14.281743,-11.021835,-2.387359,-4.327312,0.994377,-0.096729,-0.017096,-0.039570
739,0.375223,-1.787421,9.719483,-18.096346,-1.204692,-14.014702,-11.541175,-2.506493,-4.784432,0.993736,-0.101342,-0.017546,-0.043716
740,0.512976,-1.853180,9.809982,-18.143530,-1.438176,-12.652059,-12.113935,-2.642676,-5.211336,0.993015,-0.106423,-0.018111,-0.047627
741,0.460743,-1.912038,9.824234,-14.754289,-1.067409,-10.506622,-12.628595,-2.769791,-5.580488,0.992336,-0.110989,-0.018641,-0.051025
742,0.525121,-1.858700,9.633679,-10.882782,-1.021652,-7.579914,-13.018373,-2.873038,-5.868117,0.991794,-0.114453,-0.019074,-0.053679
743,0.524860,-2.033403,9.699997,-7.693359,-0.948443,-4.337341,-13.294445,-2.954005,-6.055457,0.991404,-0.116908,-0.019455,-0.055426
744,0.465289,-1.963678,9.748882,2.222519,-0.580659,-0.749905,-13.340043,-2.995129,-6.134321,0.991308,-0.117334,-0.019708,-0.056157
745,0.405142,-1.880230,9.628661,16.731525,-0.183816,4.975364,-12.977011,-2.981652,-6.065384,0.991712,-0.114175,-0.019837,-0.055485
746,0.448513,-1.779465,9.708141,30.988651,-0.931434,11.068382,-12.154712,-2.933148,-5.802063,0.992643,-0.106989,-0.020061,-0.053016
747,0.440225,-1.805039,9.786257,42.572304,-0.969515,15.041887,-10.914975,-2.870586,-5.370550,0.993950,-0.096141,-0.020453,-0.049002
748,0.400244,-1.486340,9.751770,50.618839,-0.096605,16.404539,-9.354767,-2.787958,-4.852477,0.995398,-0.082474,-0.020773,-0.044162
749,0.366664,-1.491477,9.758041,48.351559,0.931970,15.511878,-7.706392,-2.685402,-4.329065,0.996694,-0.068017,-0.020825,-0.039247
750,0.258674,-1.326507,9.795704,37.726597,1.060300,10.821203,-6.286417,-2.583616,-3.897208,0.997623,-0.055552,-0.020633,-0.035179
751,0.216078,-1.150790,9.809585,25.424549,1.106286,6.307544,-5.249908,-2.498190,-3.616053,0.998185,-0.046451,-0.020321,-0.032508
752,0.195326,-0.953924,9.825860,15.629576,0.973754,3.414414,-4.578365,-2.427414,-3.456915,0.998498,-0.040554,-0.019951,-0.030978
753,0.208590,-0.886841,9.829680,8.564421,0.607846,1.662683,-4.190669,-2.363052,-3.373767,0.998664,-0.037145,-0.019521,-0.030165
754,0.232552,-0.752528,9.849082,5.242371,-0.012918,1.055392,-3.973486,-2.321218,-3.328626,0.998752,-0.035234,-0.019228,-0.029722
755,0.260421,-0.717004,9.843360,3.872058,-0.310323,1.786322,-3.826605,-2.308172,-3.280778,0.998811,-0.033943,-0.019166,-0.029277
756,0.251166,-0.776693,9.888038,2.851088,-0.203298,1.452164,-3.729432,-2.292109,-3.225763,0.998856,-0.033083,-0.019067,-0.028776
757,0.224768,-0.768166,9.881272,3.668813,-0.003178,1.076808,-3.639500,-2.270269,-3.182724,0.998897,-0.032287,-0.018911,-0.028380
