seq,ax,ay,az,wroll,wpitch,wyaw,roll,pitch,yaw,q0,q1,q2,q3
60,0.177568,-3.473113,8.886163,-10.906132,-2.451065,3.141451,-21.347799,-1.066235,0.416701,0.982655,-0.185176,-0.009817,0.001850
61,-0.197714,-7.405849,6.645282,-3.518224,-1.974828,2.763122,-22.084715,-1.007037,0.491885,0.981446,-0.191488,-0.009447,0.002530
62,-0.229108,-7.263363,6.466880,2.037765,-1.494900,2.670561,-23.699545,-0.886051,0.623650,0.978654,-0.205296,-0.008685,0.003738
63,-0.397380,-7.135208,6.429547,3.121673,-1.499444,3.640479,-26.057253,-0.614105,0.771880,0.974230,-0.225394,-0.006739,0.005354
64,-0.381881,-7.215138,6.592813,1.348961,-1.865463,4.080961,-28.209993,-0.305515,0.929854,0.969821,-0.243670,-0.004563,0.007220
65,-0.341556,-7.149079,6.744862,1.761650,-1.850267,4.132182,-30.114511,-0.038324,1.086017,0.965624,-0.259769,-0.002785,0.009065
66,-0.301635,-6.967135,6.775047,0.696031,-2.515921,3.984862,-31.753510,0.173422,1.238014,0.961791,-0.273568,-0.001500,0.010805
67,-0.138866,-6.921373,6.935269,-1.796167,-2.948574,3.054456,-33.198761,0.282245,1.380119,0.958245,-0.285685,-0.001080,0.012245
68,-0.106398,-6.865548,7.042494,-3.533366,-3.281009,0.932006,-34.078075,0.268956,1.488767,0.956013,-0.293027,-0.001563,0.013109
69,-0.115927,-6.804668,7.070737,-3.051381,-2.440167,-1.024202,-34.447350,0.198563,1.539605,0.955062,-0.296098,-0.002323,0.013346
70,-0.114095,-6.789394,7.035910,-2.961429,-1.486399,-2.794239,-34.788383,0.119653,1.523342,0.954182,-0.298931,-0.002978,0.012997
71,-0.063521,-6.780109,6.976314,-3.274288,-0.424303,-3.839466,-35.127899,0.039360,1.450252,0.953303,-0.301750,-0.003492,0.012169
72,-0.140673,-6.762995,6.853287,-4.273809,0.851444,-4.657315,-35.488728,-0.023468,1.330193,0.952362,-0.304748,-0.003733,0.010993
73,-0.137296,-6.764040,6.827322,-5.160401,2.008207,-4.550421,-35.879005,-0.053748,1.177608,0.951333,-0.307992,-0.003611,0.009632
74,-0.135810,-6.778946,6.821840,-6.814487,1.843521,-3.904870,-36.304779,-0.063582,1.025951,0.950195,-0.311528,-0.003316,0.008335
75,-0.078114,-6.888373,6.792776,-9.269671,1.210355,-3.410401,-36.797184,-0.077993,0.897784,0.948856,-0.315611,-0.003119,0.007219
76,-0.087309,-7.120493,6.793391,-10.597248,0.944917,-3.057855,-37.360138,-0.100499,0.790272,0.947301,-0.320270,-0.003040,0.006252
77,-0.025871,-7.192531,6.707792,-9.622247,0.421579,-2.043072,-37.935677,-0.123985,0.709303,0.945685,-0.325025,-0.003035,0.005502
78,-0.002088,-7.147319,6.599184,-9.089746,-0.004130,-0.997791,-38.483646,-0.145098,0.665583,0.944122,-0.329543,-0.003110,0.005067
79,0.018969,-7.211631,6.581400,-8.873073,0.119479,-0.039498,-39.012966,-0.152373,0.651419,0.942590,-0.333901,-0.003152,0.004914
80,-0.011409,-7.266104,6.597123,-6.823715,0.096603,0.920324,-39.497219,-0.137201,0.661092,0.941170,-0.337882,-0.003076,0.005025
81,-0.000022,-7.275829,6.589881,-4.095252,-0.129213,1.582598,-39.892033,-0.106587,0.694066,0.939999,-0.341123,-0.002941,0.005376
82,0.010545,-7.277894,6.548023,-2.110364,-0.661745,1.916798,-40.504486,-0.075143,0.748103,0.938159,-0.346142,-0.002875,0.005898
83,0.042477,-7.354466,6.527934,-1.058225,-1.127190,1.584124,-41.356350,-0.065854,0.812966,0.935556,-0.353106,-0.003043,0.006434
84,0.068089,-7.345348,6.547296,0.421570,-1.467603,0.898877,-42.106602,-0.095783,0.873766,0.933221,-0.359220,-0.003519,0.006816
85,0.115457,-7.264237,6.566885,1.114690,-1.423581,-0.274757,-42.715271,-0.169898,0.915207,0.931299,-0.364165,-0.004289,0.006898
86,0.110459,-7.177137,6.587559,1.083723,-1.313981,-0.921983,-43.203754,-0.269863,0.933332,0.929738,-0.368124,-0.005188,0.006706
87,0.125363,-7.204955,6.681042,1.303612,-0.899166,-1.338765,-43.598225,-0.369623,0.933274,0.928466,-0.371315,-0.006019,0.006364
88,0.093941,-7.192647,6.814804,3.025609,-0.517848,-1.796679,-43.870872,-0.454575,0.913941,0.927580,-0.373517,-0.006659,0.005916
89,0.061541,-7.136376,6.811795,4.238443,-0.552973,-2.109503,-44.019871,-0.516444,0.881411,0.927095,-0.374720,-0.007061,0.005442
90,0.001737,-7.121741,6.804651,4.281113,-0.864125,-1.840791,-44.114861,-0.549059,0.852492,0.926785,-0.375488,-0.007234,0.005095
91,-0.020898,-7.123452,6.804847,4.156020,-1.083587,-1.216404,-44.198078,-0.549037,0.840553,0.926513,-0.376162,-0.007199,0.004994
92,-0.007579,-7.103325,6.783712,4.160686,-1.414420,0.003113,-44.275349,-0.529821,0.857091,0.926258,-0.376787,-0.007101,0.005186
93,0.016467,-7.036331,6.677107,4.194334,-1.847548,1.700190,-44.353859,-0.497642,0.917357,0.925997,-0.377420,-0.007043,0.005774
94,-0.012660,-7.015559,6.681591,4.434008,-2.245584,3.592581,-44.424309,-0.434472,1.029976,0.925759,-0.377988,-0.006908,0.006888
95,-0.065157,-7.033026,6.741292,5.493249,-3.031112,5.581193,-44.451538,-0.320750,1.202247,0.925657,-0.378208,-0.006559,0.008653
96,-0.011527,-6.981461,6.745880,6.665579,-4.089822,6.861731,-44.415943,-0.200034,1.434543,0.925752,-0.377919,-0.006348,0.010930
98,-0.066862,-6.915308,6.923427,5.177108,-4.605353,6.898584,-44.323376,-0.094277,1.700420,0.926025,-0.377169,-0.006359,0.013432
99,-0.075507,-6.867891,7.055953,3.699861,-4.763783,6.167929,-44.198296,0.002112,1.965571,0.926398,-0.376155,-0.006436,0.015899
100,-0.012576,-6.766241,7.175793,2.361951,-4.417253,5.209788,-44.048260,0.054505,2.208326,0.926850,-0.374936,-0.006785,0.018042
101,0.091942,-6.664495,7.227943,0.990895,-3.633053,3.558618,-43.879684,0.033388,2.406717,0.927370,-0.373556,-0.007576,0.019589
102,0.088668,-6.546865,7.300032,-0.524754,-2.562128,1.054310,-43.703812,-0.045050,2.533650,0.927925,-0.372110,-0.008594,0.020374
103,0.134925,-6.520895,7.343227,-0.547805,-1.860513,-1.276076,-43.517296,-0.165681,2.581610,0.928529,-0.370573,-0.009693,0.020386
104,0.168964,-6.553934,7.436588,-0.372443,-1.291716,-3.550065,-43.321346,-0.336807,2.558673,0.929175,-0.368954,-0.010972,0.019665
105,0.171519,-6.675504,7.436677,1.041390,-0.895208,-5.202867,-43.185692,-0.511972,2.476805,0.929632,-0.367829,-0.012107,0.018452
106,0.211534,-6.689938,7.358990,2.666694,0.235421,-6.709033,-43.093487,-0.672698,2.339252,0.929952,-0.367066,-0.012956,0.016830
107,0.201936,-6.785129,7.370003,3.881446,1.585794,-6.646539,-42.964848,-0.817258,2.155595,0.930391,-0.366017,-0.013524,0.014891
108,0.288287,-6.752081,7.197247,5.976510,2.888695,-5.412288,-42.802139,-0.948204,1.957535,0.930933,-0.364697,-0.013936,0.012885
109,0.283540,-6.570907,6.985979,6.524101,4.537827,-4.394855,-42.622795,-1.048174,1.753709,0.931522,-0.363248,-0.014082,0.010932
110,0.228229,-6.432590,6.995378,3.691837,6.651030,-2.978982,-42.470543,-1.035254,1.537199,0.932023,-0.362038,-0.013278,0.009231
111,0.134589,-6.378058,7.129599,0.434043,8.698815,-1.190604,-42.389599,-0.894569,1.313055,0.932299,-0.361422,-0.011420,0.007861
112,0.145724,-6.291423,7.359155,1.549703,10.656597,-1.511036,-42.321678,-0.683304,1.061869,0.932534,-0.360914,-0.008906,0.006489
113,0.022870,-6.230588,7.458850,8.871452,12.341256,-2.858399,-42.091057,-0.441032,0.749727,0.933277,-0.359076,-0.005941,0.004724
114,-0.202551,-6.396074,7.629393,17.468897,13.311882,-3.593777,-41.593060,-0.167186,0.384110,0.934843,-0.355043,-0.002554,0.002616
115,-0.252699,-6.422960,7.565403,24.383146,13.237314,-4.561035,-40.853176,0.116622,-0.009374,0.937120,-0.349007,0.000982,0.000279
116,-0.264302,-6.412555,7.621442,29.406660,13.197829,-5.581714,-39.933029,0.380607,-0.422893,0.939885,-0.341455,0.004382,-0.002334
117,-0.376335,-6.376747,7.419774,30.403093,12.326731,-3.327748,-38.939304,0.655207,-0.807040,0.942793,-0.333256,0.007738,-0.004734
118,-0.464837,-6.263115,7.333552,24.048948,11.170334,-0.451173,-38.064835,0.971673,-1.099718,0.945283,-0.325999,0.011145,-0.006307
119,-0.320334,-6.014310,7.335473,15.613397,9.998625,2.445191,-37.443207,1.309328,-1.289599,0.947009,-0.320807,0.014432,-0.006990
120,-0.359986,-5.812952,7.600353,11.796954,9.391426,4.815043,-37.004639,1.662470,-1.389016,0.948197,-0.317120,0.017603,-0.006890
121,-0.490056,-5.662026,7.670907,10.028456,6.708990,7.943299,-36.633072,2.031323,-1.379314,0.949184,-0.313992,0.020608,-0.005855
122,-0.413249,-5.626794,7.774283,9.148291,4.150208,8.074688,-36.265442,2.373336,-1.270319,0.950148,-0.310915,0.023129,-0.004088
123,-0.410640,-5.568239,7.836855,8.311093,2.548110,5.289991,-35.889114,2.620111,-1.152528,0.951129,-0.307782,0.024847,-0.002522
124,-0.488372,-5.587947,7.911648,7.391304,1.847739,1.882638,-35.573120,2.756315,-1.095891,0.951952,-0.305151,0.025821,-0.001757
125,-0.355364,-5.600892,7.826005,6.005812,0.983908,-1.472981,-35.343544,2.769923,-1.117410,0.952559,-0.303236,0.025987,-0.001952
126,-0.181383,-5.671422,7.697617,4.406551,1.610778,-6.150151,-35.189987,2.678725,-1.247050,0.952977,-0.301944,0.025568,-0.003305
127,-0.335774,-5.525656,7.610244,2.419643,3.391379,-9.814015,-35.111290,2.564688,-1.514008,0.953192,-0.301248,0.025319,-0.005844
128,-0.315147,-5.525036,7.643153,1.810670,4.483859,-9.243385,-35.074883,2.473366,-1.850560,0.953279,-0.300887,0.025442,-0.008892
129,-0.199713,-5.569890,7.603296,3.592793,4.798072,-7.961705,-35.022430,2.411457,-2.175501,0.953395,-0.300391,0.025774,-0.011770
130,-0.356943,-5.633184,7.467436,5.686100,4.689638,-6.770038,-34.919483,2.381804,-2.469301,0.953635,-0.299474,0.026285,-0.014315
131,-0.584281,-5.692611,7.411755,7.661790,4.276187,-4.188138,-34.764523,2.412315,-2.707183,0.954004,-0.298121,0.027138,-0.016252
132,-0.447142,-6.022321,7.504304,9.343344,3.002228,-1.027896,-34.718662,2.490200,-2.857575,0.954092,-0.297683,0.028171,-0.017312
133,-0.481974,-6.344397,7.577086,12.250227,1.850384,1.129763,-34.820393,2.585835,-2.922110,0.953806,-0.298488,0.029150,-0.017574
134,-0.603690,-6.316981,7.552641,15.246513,0.326187,3.005152,-34.684620,2.682174,-2.900315,0.954150,-0.297337,0.029875,-0.017176
135,-0.591153,-6.443930,7.470500,16.737942,-0.871524,4.357167,-34.285984,2.765376,-2.800118,0.955183,-0.294020,0.030251,-0.016230
136,-0.369541,-6.532000,7.536062,17.995773,-1.094271,3.317977,-33.859810,2.811714,-2.683120,0.956279,-0.290485,0.030280,-0.015249
137,-0.504983,-6.290578,7.428566,19.352764,-1.022554,1.416609,-33.395718,2.820451,-2.605705,0.957456,-0.286627,0.030098,-0.014702
138,-0.612012,-6.082705,7.491210,18.246992,-1.695390,-0.591504,-32.917912,2.802521,-2.576690,0.958650,-0.282645,0.029815,-0.014629
139,-0.654431,-6.217938,7.643192,16.424053,-2.522287,-1.771001,-32.488071,2.745061,-2.578896,0.959711,-0.279060,0.029284,-0.014900
140,-0.594596,-6.087568,7.869192,15.077237,-3.405653,-2.654474,-32.106232,2.643425,-2.595164,0.960648,-0.275882,0.028421,-0.015380
141,-0.710804,-5.762971,8.007073,13.742842,-4.522460,-2.095919,-31.736464,2.516557,-2.597525,0.961550,-0.272811,0.027313,-0.015794
142,-0.640785,-5.708988,8.165233,12.251445,-5.630081,-0.945276,-31.386866,2.379030,-2.555741,0.962401,-0.269919,0.026012,-0.015851
143,-0.525872,-5.658120,8.185636,11.661897,-5.181318,-1.047453,-31.066692,2.230507,-2.493954,0.963178,-0.267277,0.024575,-0.015752
144,-0.449942,-5.429741,8.233958,12.030704,-3.504243,-0.961972,-30.740046,2.102028,-2.451048,0.963956,-0.264568,0.023350,-0.015759
145,-0.473399,-4.969522,8.288856,13.306168,-2.593183,-0.424807,-30.348358,2.016319,-2.420484,0.964867,-0.261297,0.022505,-0.015777
146,-0.302522,-4.984674,8.453705,14.732876,-2.246765,0.515181,-29.884363,1.952941,-2.378826,0.965929,-0.257409,0.021813,-0.015660
147,-0.273722,-4.753188,8.560092,17.807673,-1.532676,0.129099,-29.332357,1.895974,-2.338136,0.967169,-0.252773,0.021167,-0.015547
148,-0.236272,-4.528767,8.748955,20.243280,-2.591736,1.735870,-28.661139,1.839968,-2.276562,0.968647,-0.247126,0.020470,-0.015271
149,-0.127757,-4.382867,8.813485,22.398237,-3.986554,1.857889,-27.894876,1.751656,-2.170333,0.970300,-0.240679,0.019396,-0.014694
150,0.173522,-4.689658,8.855095,23.077457,-3.881551,0.456943,-27.106613,1.605202,-2.075077,0.971957,-0.234042,0.017858,-0.014319
151,-0.030609,-4.501774,8.903974,23.227020,-3.320318,-1.684091,-26.330568,1.436587,-2.039986,0.973537,-0.227490,0.016259,-0.014477
152,-0.150726,-4.573453,9.070183,21.608002,-3.352514,-1.081427,-25.584999,1.291113,-2.033223,0.975007,-0.221177,0.014914,-0.014806
153,-0.130563,-4.808303,9.099896,19.952150,-2.432464,-1.372925,-24.925943,1.172133,-2.030056,0.976270,-0.215587,0.013809,-0.015089
154,-0.228286,-4.789852,9.228223,17.261545,-1.783977,-1.952801,-24.365791,1.079177,-2.052531,0.977314,-0.210825,0.012983,-0.015520
155,-0.459247,-4.640389,9.467822,14.326837,-1.683149,-2.755393,-23.893299,1.013112,-2.101506,0.978172,-0.206799,0.012444,-0.016110
156,-0.444782,-4.585478,9.492178,12.396237,-2.244474,-4.020294,-23.494640,0.942992,-2.179194,0.978877,-0.203399,0.011927,-0.016942
157,-0.378860,-4.504760,9.420161,10.958487,-2.567774,-6.992717,-23.156893,0.828367,-2.316585,0.979454,-0.200520,0.011137,-0.018352
158,-0.326503,-4.078107,9.274549,11.812786,-2.395179,-11.694024,-22.813667,0.657436,-2.571332,0.980010,-0.197595,0.010060,-0.020859
159,-0.413107,-3.936414,8.965245,13.077656,-1.426002,-16.021461,-22.421124,0.455630,-2.973267,0.980602,-0.194247,0.008943,-0.024676
160,-0.529660,-3.860772,8.780754,13.086627,0.069749,-16.613379,-22.015835,0.284719,-3.468159,0.981163,-0.190783,0.008216,-0.029230
161,-0.495275,-3.817228,8.755369,11.301058,0.447069,-13.127996,-21.646946,0.175674,-3.931311,0.981641,-0.187621,0.007946,-0.033402
162,-0.231234,-3.503917,8.818716,9.959640,0.496200,-9.071966,-21.313002,0.103623,-4.281127,0.982074,-0.184758,0.007795,-0.036540
163,-0.153889,-3.326119,9.004917,10.285006,1.123703,-3.970661,-20.924244,0.106564,-4.493264,0.982625,-0.181410,0.008032,-0.038381
164,-0.075857,-3.187592,9.198813,11.557052,0.699854,0.282234,-20.417856,0.171211,-4.560824,0.983398,-0.177039,0.008522,-0.038896
165,0.053076,-3.257240,9.323746,15.488538,-0.301086,1.988247,-19.861925,0.201652,-4.527139,0.984258,-0.172258,0.008544,-0.038601
166,0.297742,-2.947520,9.020543,19.476025,0.612750,-1.133866,-19.242590,0.180425,-4.515494,0.985178,-0.166944,0.008135,-0.038578
167,0.232905,-3.102381,8.936340,19.419720,2.324556,-2.923877,-18.571304,0.159817,-4.595734,0.986111,-0.161172,0.007845,-0.039344
168,0.050588,-3.182705,9.067459,14.518391,1.704868,-4.872540,-18.014509,0.157032,-4.740629,0.986831,-0.156369,0.007827,-0.040634
169,0.027023,-3.199821,9.064059,8.498074,0.862422,-4.346141,-17.712399,0.128833,-4.900309,0.987181,-0.153767,0.007691,-0.042068
170,-0.366051,-3.080193,9.003868,1.591162,-0.379618,-2.974317,-17.630608,0.109386,-5.019260,0.987246,-0.153061,0.007653,-0.043124
171,-0.721517,-3.309982,9.391395,-4.445644,-2.669547,2.604620,-17.715069,0.135391,-5.009803,0.987137,-0.153780,0.007896,-0.043002
172,-0.508212,-3.379985,9.500989,-7.693118,-5.861245,7.470968,-17.962473,0.136210,-4.806756,0.986878,-0.155924,0.007719,-0.041235
173,-0.342987,-3.339183,9.542572,-9.307812,-8.544986,8.928342,-18.285164,0.049929,-4.472758,0.986547,-0.158754,0.006630,-0.038457
174,-0.204027,-3.311061,9.691680,-9.253036,-9.890622,9.779882,-18.618500,-0.106646,-4.080079,0.986198,-0.161693,0.004841,-0.035279
175,0.114815,-3.290772,9.826596,-7.446381,-8.892623,9.692919,-18.904182,-0.291689,-3.672246,0.985900,-0.164218,0.002752,-0.032024
176,0.793175,-3.103230,9.962826,-4.072418,-6.787206,4.860190,-19.077118,-0.517172,-3.357878,0.985719,-0.165769,0.000406,-0.029641
177,-0.082313,-2.877225,9.619249,-0.634173,-4.486351,-3.811728,-19.106264,-0.727368,-3.280219,0.985678,-0.166070,-0.001507,-0.029277
178,0.048986,-3.292852,9.352074,-0.399003,0.549316,-4.969868,-19.095360,-0.819387,-3.397347,0.985654,-0.166000,-0.002132,-0.030417
179,-0.111078,-3.285880,9.287576,-2.584184,3.438043,-6.077637,-19.150864,-0.793067,-3.592987,0.985523,-0.166474,-0.001606,-0.032063
180,0.029183,-3.410771,9.335840,-7.754129,3.210844,-6.759668,-19.336361,-0.732859,-3.831353,0.985190,-0.168055,-0.000687,-0.034027
181,-0.350551,-3.713802,9.041295,-14.546349,2.791480,-4.163971,-19.754398,-0.656963,-4.035985,0.984516,-0.171627,0.000396,-0.035674
182,0.260302,-3.740606,9.402983,-21.135706,2.617679,-0.001188,-20.409710,-0.571730,-4.131760,0.983497,-0.177228,0.001479,-0.036361
183,0.112517,-3.359615,9.282887,-22.806715,0.307356,1.163069,-21.159874,-0.530735,-4.130652,0.982320,-0.183650,0.002067,-0.036276
184,0.300435,-3.325579,9.140891,-22.682974,-0.615930,2.395975,-21.897524,-0.530353,-4.073728,0.981135,-0.189971,0.002209,-0.035774
185,0.413533,-3.121898,8.744208,-19.426363,-0.921367,4.713754,-22.557775,-0.550056,-3.954373,0.980059,-0.195629,0.002043,-0.034773
186,0.360086,-3.059063,8.671272,-14.498703,-1.351962,5.079855,-23.057676,-0.568266,-3.789366,0.979244,-0.199910,0.001751,-0.033386
187,0.390098,-3.233982,8.605226,-9.378757,-1.835953,6.808609,-23.387918,-0.583489,-3.586694,0.978720,-0.202738,0.001359,-0.031676
188,0.457457,-3.350877,8.783256,-4.995887,-2.266573,7.878146,-23.568098,-0.599600,-3.335340,0.978465,-0.204283,0.000823,-0.029557
189,0.423937,-3.580907,8.985869,-1.070385,-2.438225,7.668758,-23.549026,-0.691031,-3.067688,0.978557,-0.204142,-0.000439,-0.027434
190,0.204728,-3.790476,9.193742,1.813082,-2.179546,6.665896,-23.390867,-0.786535,-2.819763,0.978885,-0.202808,-0.001732,-0.025484
191,0.252071,-3.869550,9.359150,3.440176,-2.500187,6.566618,-23.237736,-0.803316,-2.587353,0.979203,-0.201499,-0.002318,-0.023525
192,0.207027,-3.920991,9.332064,4.801416,-3.131995,6.334644,-23.086489,-0.817620,-2.353001,0.979513,-0.200204,-0.002881,-0.021544
193,0.012709,-3.902257,9.279208,5.044098,-3.139596,5.255826,-22.916498,-0.833658,-2.134449,0.979847,-0.198747,-0.003429,-0.019699
194,0.079218,-3.982430,9.079724,4.871437,-3.748269,5.580924,-22.789148,-0.841210,-1.922847,0.980101,-0.197652,-0.003880,-0.017898
195,-0.050281,-3.895694,9.071750,4.741327,-4.249838,5.823748,-22.693077,-0.815191,-1.694999,0.980302,-0.196819,-0.004064,-0.015901
196,-0.015212,-3.784101,8.988979,5.472050,-4.275153,4.458309,-22.555170,-0.778559,-1.481508,0.980569,-0.195628,-0.004134,-0.014007
197,-0.009580,-3.733135,8.971972,6.140348,-3.391106,4.222014,-22.372746,-0.754419,-1.298590,0.980903,-0.194058,-0.004260,-0.012394
198,0.169786,-3.736043,9.032231,6.295947,-2.547088,3.788728,-22.174377,-0.765706,-1.137245,0.981253,-0.192354,-0.004649,-0.011024
199,0.000619,-3.614342,9.141910,6.923271,-1.126289,0.738467,-21.930151,-0.768066,-1.044604,0.981669,-0.190258,-0.004846,-0.010224
201,0.194523,-3.644621,9.107902,6.828904,0.419595,-2.122596,-21.664532,-0.767938,-1.061984,0.982106,-0.187983,-0.004840,-0.010361
202,0.075028,-3.688049,9.098966,6.294736,1.585390,-3.123607,-21.458477,-0.770948,-1.155435,0.982433,-0.186221,-0.004733,-0.011159
203,0.090750,-3.677010,9.103563,5.503996,1.762573,-4.486184,-21.306797,-0.736696,-1.293207,0.982667,-0.184923,-0.004231,-0.012279
204,0.005659,-3.746599,9.120980,4.795447,1.186064,-5.038447,-21.211061,-0.701232,-1.457885,0.982805,-0.184104,-0.003673,-0.013631
205,0.117041,-3.604977,9.147856,4.097659,0.633901,-3.892385,-21.127125,-0.690582,-1.606737,0.982922,-0.183388,-0.003353,-0.014888
206,0.085093,-3.584106,9.242184,3.328470,0.005288,-2.166536,-21.020456,-0.706029,-1.704554,0.983078,-0.182478,-0.003344,-0.015748
207,0.174333,-3.541233,9.203816,2.544113,-0.396064,-0.431571,-20.926767,-0.732995,-1.742592,0.983220,-0.181678,-0.003528,-0.016115
208,0.191032,-3.514572,9.310943,1.384484,-1.031059,-0.198186,-20.850124,-0.792620,-1.744098,0.983336,-0.181028,-0.004048,-0.016219
209,0.262265,-3.429841,9.232265,1.204663,-1.377785,1.359650,-20.771608,-0.878239,-1.712276,0.983457,-0.180363,-0.004844,-0.016078
210,0.238224,-3.617641,9.135745,0.221847,-1.811536,1.908838,-20.767033,-0.970787,-1.642222,0.983465,-0.180331,-0.005749,-0.015622
211,0.269444,-3.424798,9.031868,-0.790119,-1.978218,1.862929,-20.819460,-1.064379,-1.560325,0.983384,-0.180786,-0.006674,-0.015069
212,0.151774,-3.504375,9.159821,-2.180274,-2.109587,1.923914,-20.876345,-1.128059,-1.476946,0.983299,-0.181275,-0.007345,-0.014458
213,-0.026345,-3.444542,9.047394,-2.363414,-1.584214,1.032948,-20.957531,-1.094879,-1.408889,0.983182,-0.181965,-0.007158,-0.013827
214,0.031491,-3.337299,9.114711,-3.791597,-1.212943,0.834756,-21.048679,-1.051686,-1.363477,0.983046,-0.182740,-0.006849,-0.013374
215,-0.078618,-3.128864,9.216823,-4.615335,-1.243272,1.049979,-21.150299,-1.048288,-1.320223,0.982889,-0.183609,-0.006878,-0.013003
216,-0.124775,-3.313936,9.104712,-4.059611,-1.890006,0.699110,-21.252628,-1.045198,-1.275008,0.982730,-0.184483,-0.006912,-0.012617
217,-0.034744,-3.241844,8.980614,-5.866095,-2.214790,0.305510,-21.386879,-1.064855,-1.235201,0.982516,-0.185634,-0.007131,-0.012315
218,0.116829,-3.301924,9.080026,-8.128809,-2.199403,0.822843,-21.585880,-1.106106,-1.191472,0.982193,-0.187340,-0.007534,-0.012020
219,-0.105269,-3.392390,8.964140,-11.052292,-2.147357,-0.153688,-21.878038,-1.142942,-1.154897,0.981712,-0.189844,-0.007880,-0.011787
220,0.290125,-3.582119,8.724847,-13.484582,-1.304959,-0.417639,-22.282063,-1.185863,-1.142321,0.981033,-0.193306,-0.008227,-0.011780
221,0.256001,-3.538746,8.729548,-18.327890,-0.093452,-2.065670,-22.814491,-1.235612,-1.171469,0.980116,-0.197868,-0.008547,-0.012153
222,0.303210,-3.839334,8.111844,-21.390614,-0.697802,-0.706100,-23.504343,-1.279225,-1.207977,0.978898,-0.203770,-0.008782,-0.012593
223,0.634038,-3.939830,7.489300,-27.615423,-1.906623,-3.698551,-24.404173,-1.395111,-1.255123,0.977249,-0.211462,-0.009584,-0.013278
224,0.511486,-3.853913,7.038848,-34.133358,-1.424838,-3.091396,-25.537645,-1.558817,-1.330767,0.975079,-0.221137,-0.010699,-0.014331
225,0.388252,-4.177554,6.656338,-41.562466,-2.339145,-3.123542,-26.932770,-1.705015,-1.391153,0.972285,-0.233008,-0.011642,-0.015269
226,0.371538,-4.404067,6.444118,-47.700901,-2.174533,-1.312323,-28.593601,-1.834854,-1.415664,0.968783,-0.247086,-0.012464,-0.015923
227,0.438984,-4.258720,6.795905,-52.619862,-0.249000,-3.863738,-30.399197,-1.941683,-1.465697,0.964744,-0.262332,-0.012997,-0.016783
228,-0.067513,-4.677126,7.287053,-55.644730,2.516046,-0.842342,-32.272324,-1.936115,-1.549678,0.960316,-0.278075,-0.012470,-0.017684
229,0.105935,-5.074278,7.422714,-54.679180,3.488314,-1.986619,-34.162167,-1.832786,-1.642927,0.955602,-0.293876,-0.011076,-0.018400
230,0.310416,-5.435410,7.480529,-54.996899,4.867827,-0.631538,-36.034977,-1.729110,-1.757954,0.950670,-0.309456,-0.009603,-0.019253
231,0.387307,-6.035324,7.525620,-54.051201,5.107346,-1.537960,-37.904789,-1.626340,-1.884797,0.945490,-0.324927,-0.008080,-0.020163
232,0.197250,-6.503581,7.369141,-51.619392,3.636337,0.801292,-39.740341,-1.521571,-1.983305,0.940163,-0.340025,-0.006604,-0.020787
233,0.623239,-6.674199,6.997807,-47.152103,1.690664,1.492458,-41.478058,-1.450777,-2.009227,0.934906,-0.354237,-0.005630,-0.020878
234,0.536061,-6.996489,6.897441,-45.408623,0.922868,1.435803,-43.118263,-1.433903,-1.998751,0.929744,-0.367580,-0.005227,-0.020817
235,-0.160396,-6.937473,6.854180,-42.483936,0.138574,2.082848,-44.660427,-1.371751,-1.966354,0.924729,-0.380051,-0.004552,-0.020418
236,0.165057,-6.839138,6.439905,-40.608929,-1.056066,3.595203,-46.100418,-1.281010,-1.888561,0.919908,-0.391630,-0.003833,-0.019540
237,-0.118429,-6.893184,6.510201,-42.728657,-0.723280,2.630963,-47.523624,-1.196356,-1.795744,0.915000,-0.403014,-0.003240,-0.018547
238,-0.523685,-7.065393,6.253931,-44.327953,-0.782432,3.920760,-48.994789,-1.051961,-1.705492,0.909784,-0.414713,-0.002182,-0.017348
239,-0.214114,-7.507276,6.293355,-45.873882,-2.915307,5.845368,-50.525307,-0.884272,-1.555067,0.904206,-0.426811,-0.001187,-0.015565
240,0.236549,-7.853894,6.322343,-42.497147,-3.223444,4.093721,-52.021503,-0.796354,-1.372521,0.898589,-0.438573,-0.000993,-0.013811
241,-0.134801,-7.880940,6.450511,-38.770779,-2.741195,2.082625,-53.369179,-0.761015,-1.231562,0.893389,-0.449107,-0.001107,-0.012585
242,0.007011,-8.521221,6.317927,-33.359741,-3.043212,3.411855,-54.557316,-0.715133,-1.100677,0.888702,-0.458342,-0.001144,-0.011397
243,0.327481,-8.467187,6.379770,-26.831713,-3.063063,0.993239,-55.543503,-0.717535,-0.975548,0.884737,-0.465972,-0.001574,-0.010450
244,-0.093488,-8.570326,6.293684,-19.378811,-0.601736,-0.670009,-56.271976,-0.745208,-0.922502,0.881759,-0.471587,-0.001938,-0.010165
245,0.042297,-8.546407,6.297538,-16.833195,0.455817,-0.965921,-56.819176,-0.747466,-0.936448,0.879496,-0.475792,-0.001849,-0.010291
246,-0.040330,-9.030317,6.189318,-14.180809,0.941132,-0.256266,-57.286892,-0.733430,-0.967846,0.877545,-0.479378,-0.001568,-0.010480
247,0.196278,-8.691019,6.080149,-9.834682,2.181741,-2.740431,-57.642387,-0.739656,-1.039237,0.876046,-0.482099,-0.001283,-0.011057
248,-0.089761,-8.976505,6.163833,-7.107488,3.335384,-2.056756,-57.868431,-0.747083,-1.160440,0.875080,-0.483828,-0.000806,-0.012016
249,0.265804,-8.785700,6.013307,-5.240917,2.822701,-1.899551,-58.017986,-0.741866,-1.283173,0.874435,-0.484970,-0.000231,-0.012932
250,0.029652,-8.874977,5.838598,-3.220291,2.854743,-2.288672,-58.112286,-0.752317,-1.400989,0.874021,-0.485690,0.000199,-0.013875
251,0.154639,-8.583265,5.855369,-0.703725,3.318650,-2.567884,-58.128834,-0.760689,-1.531744,0.873934,-0.485816,0.000691,-0.014908
252,0.268401,-8.822571,5.874139,-0.448547,3.373552,-1.548625,-58.093838,-0.769880,-1.663400,0.874063,-0.485549,0.001175,-0.015951
253,0.694296,-9.501727,5.628467,-2.737391,3.724361,-0.920192,-58.138767,-0.786294,-1.785668,0.873853,-0.485891,0.001574,-0.016953
254,0.428409,-9.385698,6.433751,-15.085070,5.024266,-1.239408,-58.417530,-0.792747,-1.928704,0.872646,-0.488014,0.002175,-0.018065
255,0.438226,-9.723000,6.842255,-34.733906,3.499753,4.340707,-59.170177,-0.708636,-2.024153,0.869417,-0.493724,0.003344,-0.018413
256,0.863432,-10.237862,7.692157,-56.451595,0.824623,8.390187,-60.570202,-0.545225,-1.980523,0.863346,-0.504293,0.004607,-0.017323
257,0.286983,-10.545649,7.675547,-69.124870,-1.879471,9.284097,-62.505650,-0.343464,-1.824803,0.854749,-0.518788,0.005699,-0.015168
258,-0.034076,-10.462922,7.244998,-73.574852,-5.398257,12.914254,-64.711838,-0.069172,-1.552752,0.844658,-0.535135,0.006742,-0.011769
259,0.271288,-11.504199,6.497176,-60.449425,-8.982672,17.394321,-66.802071,0.284475,-1.127315,0.834808,-0.550447,0.007488,-0.006846
260,-0.095166,-11.479911,6.139809,-28.324883,-9.409967,15.366294,-68.163483,0.658106,-0.633764,0.828230,-0.560331,0.007856,-0.001362
261,-0.510884,-11.428800,4.270264,6.028574,-9.396178,18.175667,-68.482643,1.084112,-0.135193,0.826644,-0.562645,0.008485,0.004348
262,-0.076968,-11.210762,4.189542,31.410622,-5.389061,22.449863,-67.876816,1.632778,0.345871,0.829526,-0.558278,0.010136,0.010459
263,-0.413841,-10.888268,4.583830,59.541023,-4.360598,24.831806,-66.349258,2.290193,0.802941,0.836742,-0.547187,0.012893,0.016799
264,-0.595645,-9.864571,3.499648,86.285637,-2.712544,23.664572,-63.941402,2.989591,1.249585,0.847829,-0.529515,0.016356,0.023059
265,-0.269790,-9.406220,2.600723,91.789955,-0.156583,24.363392,-61.134357,3.671647,1.654125,0.860267,-0.508632,0.020244,0.028712
266,-0.371369,-7.819282,3.806710,98.899651,2.747210,17.043312,-58.105122,4.256260,1.955473,0.873137,-0.485760,0.024176,0.032937
267,-0.363678,-7.429633,3.464558,109.400261,1.515714,12.472925,-54.742107,4.667439,2.159688,0.886801,-0.459970,0.027498,0.035440
268,-0.377782,-6.414616,3.038008,106.949760,3.346766,5.198553,-51.340012,4.911093,2.254759,0.899937,-0.433466,0.030093,0.036273
269,-0.384583,-5.510468,3.679379,92.296593,3.624411,-2.353520,-48.212425,4.982781,2.179960,0.911424,-0.408724,0.031909,0.035098
270,-0.462433,-4.722642,4.290090,84.416351,2.957477,-10.341913,-45.344604,4.872948,1.949035,0.921478,-0.385723,0.032671,0.032063
271,-0.413997,-5.136480,3.954888,73.319267,1.915187,-10.001787,-42.824654,4.669362,1.641276,0.929896,-0.365280,0.032697,0.028193
272,-0.494207,-4.131349,4.608912,58.540184,1.481780,-14.770410,-40.731712,4.420735,1.287673,0.936582,-0.348139,0.032248,0.023948
273,-0.299190,-4.102014,5.860786,45.735168,1.376330,-19.957113,-38.945900,4.059520,0.818205,0.942099,-0.333383,0.031013,0.018534
274,-0.492968,-4.565685,7.073979,42.105972,1.720971,-19.236963,-37.371075,3.661903,0.282130,0.946779,-0.320284,0.029478,0.012567
275,-0.443331,-4.634579,7.731537,44.601902,1.028059,-21.365654,-35.804543,3.276209,-0.279522,0.951212,-0.307201,0.027952,0.006467
276,-0.643908,-4.457995,8.648125,41.503986,0.913553,-23.392038,-34.217167,2.871055,-0.898785,0.955477,-0.293894,0.026249,-0.000124
277,-0.656302,-5.018279,8.882257,36.760986,-0.410892,-21.817169,-32.777248,2.478835,-1.522766,0.959142,-0.281784,0.024498,-0.006643
278,-0.706228,-4.880853,8.645811,34.382736,-0.816638,-17.408632,-31.512781,2.143626,-2.060179,0.962192,-0.271133,0.022881,-0.012220
279,-0.565039,-4.481891,8.254604,26.649876,-0.743200,-15.494977,-30.432617,1.875504,-2.513376,0.964675,-0.262019,0.021544,-0.016865
280,-0.640035,-4.659487,8.361749,14.831941,-0.781122,-8.724294,-29.697916,1.691773,-2.847525,0.966295,-0.255810,0.020632,-0.020232
281,-0.522163,-4.816562,8.158797,11.186543,-1.498062,-7.349292,-29.264843,1.569513,-3.061458,0.967223,-0.252149,0.019995,-0.022386
282,-0.286791,-4.488082,7.952266,10.667643,-1.438427,-6.612202,-28.918180,1.434732,-3.241174,0.967951,-0.249226,0.019180,-0.024258
283,-0.318088,-4.647769,8.122099,7.228121,-1.108772,-5.797330,-28.636702,1.307243,-3.402337,0.968530,-0.246856,0.018390,-0.025943
284,-0.250484,-4.659240,8.381468,7.244689,-1.490158,-3.592321,-28.430475,1.210260,-3.519845,0.968948,-0.245121,0.017774,-0.027177
285,-0.297134,-4.621398,8.310642,6.106152,-1.561777,-3.996641,-28.239452,1.122184,-3.607661,0.969336,-0.243517,0.017171,-0.028137
286,-0.220285,-4.682941,8.286513,0.325789,-2.107999,-1.568867,-28.156740,1.034238,-3.660953,0.969500,-0.242835,0.016519,-0.028787
287,-0.493841,-4.837740,8.621607,-5.445458,-2.538159,0.260795,-28.271397,0.981051,-3.644095,0.969261,-0.243823,0.016063,-0.028742
288,-0.174804,-4.632044,8.402540,-8.299083,-3.131604,0.996363,-28.521093,0.931481,-3.581161,0.968743,-0.245957,0.015571,-0.028281
289,-0.543133,-5.126000,8.000196,-13.066467,-3.848610,2.626141,-28.934366,0.888531,-3.473382,0.967876,-0.249476,0.015076,-0.027408
290,-0.302317,-4.919676,7.802001,-16.744564,-3.906347,2.256991,-29.521837,0.857119,-3.341057,0.966615,-0.254460,0.014657,-0.026284
291,-0.139345,-4.762032,7.510926,-19.128572,-3.007497,0.451856,-30.195187,0.792587,-3.245950,0.965124,-0.260164,0.014052,-0.025543
292,-0.097284,-4.622899,7.013569,-22.537994,-2.099575,-1.774479,-30.964863,0.707117,-3.222740,0.963359,-0.266665,0.013451,-0.025453
293,-0.367598,-4.758558,6.586620,-27.903822,-2.422941,-2.248974,-31.906542,0.629927,-3.242113,0.961130,-0.274590,0.013058,-0.025689
294,0.433459,-4.562859,6.163877,-34.260082,-1.997342,-5.371114,-33.061455,0.474885,-3.311091,0.958293,-0.284294,0.012191,-0.026518
295,-0.097608,-4.572747,6.269344,-42.799805,-1.614586,-4.776167,-34.441761,0.285927,-3.418084,0.954765,-0.295852,0.011212,-0.027749
296,-0.027133,-4.818774,6.108036,-50.671093,-3.663891,-3.288386,-36.085415,0.138454,-3.477205,0.950399,-0.309548,0.010545,-0.028474
297,0.318889,-5.175681,6.522203,-58.858196,-1.974853,-3.872935,-37.987572,-0.038936,-3.515667,0.945105,-0.325322,0.009663,-0.029116
298,0.189216,-5.412142,6.902877,-63.213398,-0.465949,-4.100475,-40.051994,-0.198025,-3.591591,0.939056,-0.342329,0.009109,-0.030034
299,-0.055200,-5.955816,7.150596,-63.469742,0.090970,-2.766848,-42.160416,-0.285982,-3.672704,0.932567,-0.359563,0.009198,-0.030797
300,0.515417,-6.513975,7.224551,-56.282600,1.155931,-4.088425,-44.150249,-0.376615,-3.769619,0.926145,-0.375717,0.009317,-0.031713
301,0.415148,-6.585262,7.240371,-46.644691,5.220705,-6.434045,-45.838936,-0.485074,-3.967244,0.920436,-0.389335,0.009583,-0.033528
302,-0.168171,-6.835964,6.912968,-37.888683,4.265440,-3.589752,-47.207867,-0.503978,-4.196202,0.915648,-0.400287,0.010632,-0.035307
304,0.225800,-6.982155,6.611731,-33.316860,4.631701,-4.894382,-48.370148,-0.501278,-4.401338,0.911476,-0.409533,0.011744,-0.036820
305,-0.122550,-6.977102,6.486824,-33.244972,4.866715,-6.264639,-49.453041,-0.532291,-4.643121,0.907481,-0.418111,0.012728,-0.038735
306,-0.128526,-7.263022,6.423275,-37.457870,3.736144,-5.120037,-50.601292,-0.553883,-4.875690,0.903161,-0.427162,0.013812,-0.040519
307,-0.145554,-7.688830,6.322978,-41.803623,2.179844,-3.992208,-51.908249,-0.577305,-5.048414,0.898164,-0.437421,0.014749,-0.041802
308,-0.073164,-8.089192,6.103742,-44.626667,1.900724,-4.178216,-53.359863,-0.614731,-5.185724,0.892492,-0.448757,0.015524,-0.042828
309,-0.145358,-8.463324,6.072577,-44.243832,-0.401778,1.123010,-54.865658,-0.611336,-5.236300,0.886500,-0.460437,0.016315,-0.042998
310,0.296086,-8.853355,6.059082,-40.328453,-1.961251,5.091971,-56.297447,-0.543148,-5.145205,0.880727,-0.471469,0.017000,-0.041810
311,0.209361,-8.865401,5.682653,-33.599274,-2.747177,6.524709,-57.553253,-0.443702,-4.972974,0.875591,-0.481087,0.017494,-0.039888
312,-0.131103,-9.285948,5.723127,-28.412806,-4.021303,9.463680,-58.611172,-0.270677,-4.735910,0.871227,-0.489133,0.018165,-0.037184
313,0.332368,-9.386128,5.454374,-22.527479,-5.245110,11.197105,-59.486313,-0.059486,-4.426155,0.867601,-0.495760,0.018707,-0.033786
314,0.220611,-9.491509,5.485971,-17.968157,-4.058051,7.650672,-60.182549,0.101732,-4.133693,0.864681,-0.501025,0.018850,-0.030760
315,-0.202767,-9.407660,5.485685,-12.897511,-1.842414,5.924841,-60.697075,0.248451,-3.936399,0.862494,-0.504895,0.019223,-0.028544
316,-0.242274,-9.620255,5.448349,-10.663503,-1.291474,5.071992,-61.080807,0.407833,-3.801666,0.860852,-0.507761,0.019919,-0.026760
317,-0.054212,-9.631651,5.333334,-7.858827,-0.146994,3.868102,-61.385265,0.537924,-3.709026,0.859536,-0.510029,0.020553,-0.025433
318,-0.155074,-9.701550,5.603280,-6.857700,0.344358,2.818275,-61.611897,0.639064,-3.658569,0.858547,-0.511710,0.021135,-0.024563
319,-0.009827,-10.197881,5.678771,-17.342155,-1.434885,2.127006,-61.988110,0.698928,-3.603326,0.856880,-0.514521,0.021415,-0.023811
320,0.141360,-10.359941,7.026217,-47.136806,-3.601781,-3.839500,-62.976460,0.610698,-3.540878,0.852414,-0.521926,0.020679,-0.023563
321,-0.302642,-10.357586,6.724250,-68.468231,-1.404482,-5.888852,-64.751976,0.421818,-3.535607,0.844206,-0.535119,0.019626,-0.024083
322,0.271037,-11.109550,6.954402,-71.236732,2.195142,-6.346688,-66.921066,0.231581,-3.629400,0.833881,-0.551031,0.019145,-0.025305
323,0.214147,-11.392891,5.614406,-58.578350,3.177737,-6.487284,-68.960106,0.032651,-3.790606,0.823878,-0.565802,0.018958,-0.027102
324,0.091116,-11.584130,4.802602,-29.658630,5.196482,-2.178196,-70.372368,-0.074517,-3.970732,0.816780,-0.575908,0.019432,-0.028689
325,0.051464,-12.008052,3.213204,9.713036,6.264611,7.056656,-70.744331,0.058494,-4.123209,0.814892,-0.578495,0.021241,-0.029038
326,0.637546,-12.272773,3.469798,48.426613,6.775711,10.898694,-69.877174,0.375275,-4.226672,0.819274,-0.572206,0.023802,-0.028356
327,0.400231,-11.371882,2.637829,67.174782,6.471908,11.603258,-68.082787,0.739156,-4.299628,0.828168,-0.559186,0.026340,-0.027475
328,0.286601,-10.714222,3.289646,70.672745,6.883781,13.173079,-65.935341,1.149601,-4.346269,0.838539,-0.543428,0.029044,-0.026357
329,0.510843,-9.530579,4.414760,74.040123,7.716737,11.510876,-63.576241,1.548804,-4.394209,0.849572,-0.525904,0.031673,-0.025469
330,0.276748,-8.327625,3.885932,88.995667,7.626456,10.266703,-60.869888,1.898742,-4.455096,0.861761,-0.505552,0.033961,-0.025121
331,0.223230,-7.483054,3.424238,88.426003,5.035186,11.792125,-57.989021,2.238555,-4.455728,0.874206,-0.483603,0.035912,-0.024534
332,-0.252185,-6.455796,3.909446,87.444382,1.208026,12.959178,-55.120995,2.593632,-4.320794,0.886061,-0.461481,0.037487,-0.022947
333,-0.181934,-5.794548,4.233812,87.468842,1.948029,9.858397,-52.193356,2.913418,-4.138234,0.897581,-0.438634,0.038692,-0.021238
334,-0.447090,-5.353284,3.490859,81.366371,1.046221,10.220026,-49.414803,3.203043,-3.967723,0.907959,-0.416692,0.039839,-0.019762
335,-0.537800,-4.884155,3.758888,65.822662,-0.456637,10.142367,-47.046230,3.499105,-3.752892,0.916379,-0.397802,0.041041,-0.017830
336,-0.857603,-4.429045,4.519866,56.923435,-3.378446,10.620353,-44.987858,3.779130,-3.464160,0.923377,-0.381282,0.042008,-0.015302
337,-0.736839,-4.435134,4.889362,49.193539,-6.857185,12.139078,-43.125904,4.005647,-3.064718,0.929457,-0.366298,0.042313,-0.012015
338,-1.033303,-4.798403,5.520360,40.561787,-12.192966,15.903939,-41.529415,4.168939,-2.497531,0.934485,-0.353471,0.041723,-0.007472
339,-0.822057,-5.425414,6.294219,33.625168,-16.691067,15.107729,-40.205441,4.212979,-1.785240,0.938526,-0.342893,0.039864,-0.001988
340,-0.308813,-5.592378,7.242876,34.306004,-18.355917,11.497366,-38.980896,4.036107,-1.065665,0.942181,-0.333120,0.036296,0.002988
341,-0.278347,-6.098540,7.392344,32.166821,-16.386255,6.469204,-37.808430,3.709913,-0.468932,0.945601,-0.323689,0.031948,0.006618
342,-0.132149,-6.600909,7.602468,28.104500,-14.068709,3.653581,-36.823357,3.341820,-0.030258,0.948411,-0.315701,0.027750,0.008959
343,0.038849,-6.257142,7.986521,24.133677,-10.367232,-0.320275,-35.992382,2.965701,0.252065,0.950739,-0.308904,0.023932,0.010086
344,-0.219133,-5.882201,8.088093,22.435217,-6.604650,-1.410053,-35.225674,2.652877,0.391508,0.952838,-0.302576,0.021030,0.010260
345,-0.394520,-5.694795,8.224617,17.327984,-2.852542,-2.983383,-34.555546,2.455258,0.421280,0.954627,-0.297009,0.019366,0.009873
346,-0.292194,-5.350379,8.538615,14.314531,-1.238201,-1.546009,-33.991608,2.341417,0.398689,0.956100,-0.292307,0.018522,0.009299
347,-0.547161,-4.893607,8.684636,15.430572,-0.032732,-4.826727,-33.410618,2.265044,0.325530,0.957589,-0.287446,0.018114,0.008402
348,-0.350432,-4.907070,8.296002,22.464176,1.496275,-7.028589,-32.693680,2.185399,0.150330,0.959393,-0.281424,0.017930,0.006626
349,-0.535464,-4.682554,8.254043,22.922447,2.230296,-6.120608,-31.871422,2.131593,-0.065338,0.961407,-0.274501,0.018042,0.004559
350,-0.511775,-4.915507,8.346598,24.021486,0.904396,-2.066126,-31.038198,2.129214,-0.206717,0.963382,-0.267481,0.018385,0.003233
351,-0.695879,-4.819430,8.393403,26.878233,-1.732203,-1.504454,-30.159718,2.123230,-0.249371,0.965407,-0.260081,0.018456,0.002719
352,-0.385684,-4.713474,8.503018,26.850960,-2.418720,1.323184,-29.233974,2.088393,-0.215950,0.967481,-0.252281,0.018109,0.002776
353,-0.477937,-4.671485,8.721766,20.732183,-3.756901,4.138555,-28.408567,2.052601,-0.085337,0.969275,-0.245327,0.017546,0.003673
354,0.167301,-4.743073,8.788468,17.259270,-3.667045,1.368912,-27.756615,1.957715,0.054418,0.970664,-0.239833,0.016471,0.004559
355,-0.137132,-4.591105,8.632204,11.913937,-1.817929,-3.927739,-27.272799,1.804805,0.058314,0.971689,-0.235738,0.015185,0.004208
356,0.013419,-4.546404,8.553854,5.718599,1.889847,-8.151620,-26.996559,1.675892,-0.122041,0.972276,-0.233376,0.014469,0.002378
357,-0.257961,-4.454640,8.571370,1.653435,4.174009,-10.806810,-26.897905,1.597225,-0.450182,0.972488,-0.232501,0.014469,-0.000579
358,-0.509550,-4.207495,8.687816,-1.138959,3.812458,-9.782865,-26.892159,1.576565,-0.816373,0.972495,-0.232407,0.015037,-0.003729
359,-0.842806,-4.194858,8.726687,-2.936310,3.866222,-9.215034,-26.941187,1.607562,-1.156003,0.972377,-0.232774,0.015991,-0.006542
360,-0.729430,-3.987163,8.946249,-1.640457,2.546741,-4.495111,-26.973162,1.674819,-1.406849,0.972289,-0.233001,0.017074,-0.008529
361,-0.646306,-3.959489,8.931787,1.374507,-0.014480,-0.220541,-26.791010,1.815703,-1.490368,0.972637,-0.231422,0.018425,-0.008980
362,-0.477622,-4.141065,8.950815,1.954505,-0.947456,1.598870,-26.483631,1.965250,-1.454256,0.973240,-0.228797,0.019598,-0.008423
363,-0.400999,-4.134829,8.883143,2.564509,-0.875356,1.640304,-26.231939,2.028860,-1.386186,0.973737,-0.226662,0.019986,-0.007762
364,-0.368782,-4.029302,8.958313,2.526013,-1.267388,3.306726,-25.967072,2.058111,-1.290031,0.974261,-0.224424,0.020028,-0.006933
365,-0.149056,-4.119346,8.776093,1.419135,-0.773319,1.275596,-25.756517,2.008091,-1.201435,0.974684,-0.222655,0.019418,-0.006314
366,-0.313900,-4.151241,8.894642,-2.375322,0.558401,-0.538910,-25.694046,1.942523,-1.186213,0.974814,-0.222134,0.018827,-0.006322
367,-0.237025,-4.061373,8.904142,-4.724903,0.608656,-1.082175,-25.761925,1.932565,-1.217221,0.974682,-0.222707,0.018806,-0.006594
368,-0.326027,-4.140018,8.901867,-7.529388,1.345631,-2.379226,-25.943445,1.929403,-1.282512,0.974324,-0.224241,0.018918,-0.007126
369,-0.354978,-4.285800,8.515230,-9.273517,1.423466,-2.273932,-26.225943,1.938922,-1.372486,0.973761,-0.226626,0.019194,-0.007825
370,-0.337708,-4.535151,8.458284,-11.934958,0.401121,-1.726121,-26.616222,1.939976,-1.446943,0.972979,-0.229928,0.019379,-0.008389
371,-0.262605,-4.530010,8.286593,-11.639263,0.166113,-2.066423,-27.061417,1.916461,-1.509360,0.972076,-0.233699,0.019339,-0.008892
372,-0.282613,-4.852444,7.995728,-12.265414,-0.105532,0.689363,-27.538456,1.900240,-1.532808,0.971095,-0.237742,0.019287,-0.009043
373,0.025552,-4.702405,7.650790,-16.126686,-0.642813,-0.095069,-28.113962,1.865728,-1.521439,0.969893,-0.242623,0.019016,-0.008923
374,0.194997,-4.784426,7.353402,-23.599892,-0.911747,-3.620181,-28.889446,1.748541,-1.566578,0.968238,-0.249192,0.018184,-0.009431
375,-0.215342,-4.707999,7.422177,-29.414371,0.034082,-2.887893,-29.880859,1.639271,-1.656464,0.966048,-0.257562,0.017546,-0.010277
376,0.038885,-4.415950,7.010858,-35.375118,-0.913673,-3.762353,-31.035799,1.542276,-1.746132,0.963403,-0.267287,0.017043,-0.011080
377,-0.396075,-4.602314,6.792642,-46.029579,-0.663465,-6.165723,-32.463184,1.424293,-1.874479,0.959994,-0.279266,0.016504,-0.012230
378,-0.280520,-5.514428,6.771680,-49.149384,-2.689766,-3.130604,-34.173515,1.313169,-1.976824,0.955714,-0.293567,0.016020,-0.013121
379,-0.512387,-5.021795,6.568460,-48.338413,-3.510519,-0.544053,-35.921337,1.226064,-1.971295,0.951130,-0.308126,0.015480,-0.013064
380,-0.077456,-5.748189,6.401147,-49.366131,-5.980875,2.083647,-37.662079,1.133487,-1.859406,0.946355,-0.322568,0.014598,-0.012164
381,-0.219319,-6.381048,6.375829,-45.869820,-6.441720,2.077504,-39.412117,1.008813,-1.679546,0.941341,-0.337024,0.013229,-0.010829
382,0.067654,-6.322547,6.300404,-36.994598,-6.957545,2.896847,-40.952141,0.876943,-1.475081,0.936748,-0.349685,0.011671,-0.009382
383,0.197264,-6.000716,6.486855,-35.788212,-4.288924,0.830542,-42.256275,0.732845,-1.305011,0.932723,-0.360356,0.010070,-0.008317
384,-0.009300,-6.856267,6.768645,-35.694019,-2.345069,-1.481394,-43.508320,0.609332,-1.237611,0.928737,-0.370545,0.008941,-0.008060
385,-0.278832,-6.437376,6.777840,-36.948589,0.708335,-5.708185,-44.758633,0.511888,-1.304898,0.924634,-0.380661,0.008466,-0.008829
386,-0.002881,-6.741062,6.596897,-43.867207,1.033395,-5.117619,-46.117561,0.411744,-1.452621,0.920042,-0.391599,0.008271,-0.010256
387,0.100263,-7.156327,6.917019,-50.924675,2.490567,-8.151246,-47.707264,0.271748,-1.646226,0.914498,-0.404328,0.007978,-0.012180
388,-0.323610,-7.375462,6.539897,-52.325523,1.892438,-7.859755,-49.435829,0.128067,-1.877438,0.908263,-0.418078,0.007866,-0.014415
389,-0.288234,-7.709946,6.559635,-54.736561,0.482655,-5.184614,-51.231251,0.024775,-2.047648,0.901572,-0.432259,0.007920,-0.016019
390,0.294378,-8.071813,6.171103,-50.558704,-0.252848,-4.703962,-53.004890,-0.105589,-2.152233,0.894749,-0.446173,0.007556,-0.017218
391,-0.258520,-8.529199,6.386393,-45.875767,0.783242,-3.554949,-54.630699,-0.213885,-2.240267,0.888306,-0.458832,0.007313,-0.018225
392,-0.250463,-8.279013,5.902501,-39.523338,-1.339166,0.026608,-56.054321,-0.228466,-2.266675,0.882532,-0.469832,0.007534,-0.018396
393,-0.394858,-8.920584,5.852815,-36.746204,-2.721467,0.977532,-57.332520,-0.202385,-2.201773,0.877249,-0.479647,0.007667,-0.017705
394,0.011893,-8.627610,5.676348,-29.244755,-2.529085,0.161334,-58.432545,-0.201970,-2.118461,0.872617,-0.488052,0.007485,-0.016994
395,-0.372749,-8.996329,5.455976,-25.892269,-2.039160,-0.073491,-59.347382,-0.210482,-2.052986,0.868702,-0.495008,0.007273,-0.016475
396,-0.273841,-8.630831,5.223987,-21.766151,-1.625462,-0.352451,-60.139294,-0.197430,-2.004503,0.865268,-0.501001,0.007273,-0.016001
397,-0.106212,-9.089922,5.034090,-19.060715,-0.303903,-1.070979,-60.824135,-0.202061,-1.988710,0.862260,-0.506165,0.007264,-0.015859
398,0.365455,-8.868259,5.172273,-13.106536,2.094810,-3.039499,-61.357582,-0.260698,-2.048057,0.859881,-0.510177,0.007162,-0.016531
399,-0.030114,-9.107764,5.138903,-8.977226,3.333804,-2.247647,-61.701710,-0.312512,-2.169555,0.858322,-0.512756,0.007367,-0.017651
400,0.115394,-9.536235,5.451871,-6.942981,3.117129,-1.353445,-61.938301,-0.312888,-2.292791,0.857242,-0.514518,0.007954,-0.018560
401,0.791605,-9.704792,5.851828,-6.727452,3.010161,-2.170109,-62.109482,-0.366462,-2.410743,0.856446,-0.515798,0.008113,-0.019670
402,0.289809,-9.998816,7.069400,-8.746914,3.502856,-4.744690,-62.236660,-0.476108,-2.561179,0.855833,-0.516753,0.007994,-0.021279
403,0.215300,-10.114985,7.848090,-14.177763,2.205771,-6.745293,-62.400330,-0.620049,-2.735984,0.855039,-0.517985,0.007740,-0.023223
404,0.486974,-10.511771,8.423680,-22.806644,1.468689,-6.504349,-62.751961,-0.812365,-2.894485,0.853382,-0.520625,0.007099,-0.025252
405,0.361068,-10.555032,7.983470,-24.484951,2.661896,-3.461828,-63.277576,-0.957076,-3.034118,0.850928,-0.524548,0.006779,-0.026919
407,0.308930,-10.682669,7.727357,-10.360937,3.588110,5.667686,-63.620625,-0.892187,-3.114211,0.849347,-0.527078,0.007709,-0.027193
408,0.190422,-10.733319,6.750823,7.133514,1.554056,16.187378,-63.489334,-0.532522,-3.031442,0.850030,-0.526050,0.009966,-0.024938
409,-0.186311,-10.984274,4.748089,34.415752,-3.246447,26.502739,-62.765202,0.107483,-2.685029,0.853486,-0.520588,0.013001,-0.019513
410,0.158585,-10.344145,3.710388,62.659756,-4.131467,31.710764,-61.275284,0.912534,-2.120306,0.860308,-0.509377,0.016279,-0.011861
411,-0.411594,-9.447716,4.101274,84.870064,-6.478314,36.242790,-58.959335,1.810924,-1.403065,0.870452,-0.491848,0.019780,-0.002881
412,-0.911117,-8.762485,3.506297,91.367783,-11.626543,34.285378,-56.168854,2.703838,-0.519527,0.882051,-0.470542,0.022949,0.007108
413,0.096377,-7.751308,3.354599,91.447029,-10.704825,28.082493,-53.320801,3.343072,0.378308,0.893253,-0.448594,0.024588,0.016038
414,0.307762,-6.040907,4.771193,85.898033,-5.019632,21.343382,-50.433182,3.716888,1.085890,0.904056,-0.426076,0.025303,0.022385
415,-0.173677,-5.738054,4.843693,79.211609,-4.121277,17.329676,-47.619530,4.001431,1.620723,0.914042,-0.403866,0.026231,0.027024
416,0.003077,-5.176393,4.590245,63.084087,-4.106370,9.395987,-45.223278,4.149021,2.024301,0.922137,-0.384761,0.026624,0.030212
417,0.214091,-4.728603,4.555433,50.205143,-1.239728,0.998210,-43.343655,4.080528,2.206269,0.928300,-0.369624,0.025974,0.031025
418,-0.563391,-4.417001,4.624349,40.829754,-2.128106,-2.728405,-41.840771,3.955774,2.219451,0.933107,-0.357415,0.025321,0.030401
419,-0.786984,-4.801642,4.501168,29.682430,-4.291612,-4.132064,-40.733273,3.847678,2.200129,0.936559,-0.348370,0.024789,0.029670
420,-0.897633,-4.756410,5.343536,20.398211,-6.943260,-6.350447,-39.973251,3.669210,2.184546,0.938912,-0.342137,0.023569,0.028846
421,-0.644808,-4.846980,6.210529,21.945585,-6.128146,-8.742860,-39.257530,3.394935,2.131530,0.941128,-0.336238,0.021650,0.027461
422,-1.033034,-5.206267,7.319572,23.035578,-6.979362,-7.801118,-38.439663,3.103996,2.058713,0.943604,-0.329479,0.019659,0.025872
423,-0.941389,-5.380200,8.138767,25.210749,-6.170285,-8.385223,-37.530067,2.835119,1.988019,0.946276,-0.321947,0.017841,0.024378
424,-1.035705,-5.627439,8.394182,27.482044,-5.983788,-6.613317,-36.547779,2.590702,1.917064,0.949074,-0.313795,0.016219,0.022968
425,-0.916814,-5.780251,8.114479,30.485462,-4.803881,-6.585548,-35.525379,2.387029,1.848912,0.951895,-0.305289,0.014913,0.021715
426,-1.151004,-5.747844,8.112805,28.280609,-6.834427,-3.211387,-34.530811,2.220394,1.828517,0.954548,-0.297000,0.013765,0.020984
427,-1.002275,-5.547480,7.845473,25.451496,-6.128906,-2.867675,-33.640369,2.084256,1.867088,0.956846,-0.289566,0.012693,0.020855
428,-1.038396,-5.511747,7.675790,22.112541,-5.812488,-0.810365,-32.880070,1.983175,1.925131,0.958755,-0.283208,0.011842,0.021007
429,-1.011469,-5.271926,7.983844,18.088463,-5.190859,-0.796262,-32.239727,1.917219,2.001344,0.960321,-0.277847,0.011222,0.021420
430,-0.952272,-4.899035,8.361220,15.943119,-4.163369,-0.960712,-31.654243,1.866204,2.060614,0.961726,-0.272937,0.010762,0.021738
431,-0.652357,-4.899985,8.354374,17.580698,-2.328810,-1.431964,-31.055738,1.824015,2.084988,0.963141,-0.267908,0.010463,0.021788
432,-0.735546,-4.885144,8.475741,21.388077,-1.745592,-1.244076,-30.376945,1.798560,2.082861,0.964716,-0.262195,0.010383,0.021650
433,-0.556851,-4.570973,8.495242,21.807974,-1.267696,-2.513469,-29.618101,1.773499,2.055617,0.966441,-0.255795,0.010375,0.021295
434,-0.370640,-4.607635,8.383747,18.980675,-0.638879,-3.599840,-28.904099,1.720278,1.983821,0.968038,-0.249756,0.010215,0.020507
435,-0.285397,-4.556717,8.510859,13.812495,-0.084939,-3.552515,-28.340927,1.657724,1.885669,0.969281,-0.244980,0.009996,0.019493
436,-0.185302,-4.356184,8.403033,8.450533,1.300557,-5.691882,-27.953043,1.595822,1.740810,0.970138,-0.241678,0.009843,0.018103
437,-0.129545,-4.274907,8.524961,-0.593438,3.038484,-7.318566,-27.800028,1.541317,1.515995,0.970501,-0.240358,0.009877,0.016071
438,-0.314610,-4.470836,8.387699,-7.214341,3.567946,-7.637501,-27.924139,1.516213,1.244451,0.970279,-0.241384,0.010219,0.013730
439,-0.385506,-4.415989,8.267831,-11.587680,4.555307,-9.618106,-28.251453,1.515017,0.926702,0.969620,-0.244125,0.010847,0.011068
440,-0.395457,-4.489480,7.949334,-17.177259,5.030005,-10.606838,-28.758068,1.517045,0.553511,0.968562,-0.248373,0.011624,0.007966
441,-0.281671,-4.770411,7.940003,-21.840775,5.584006,-11.502516,-29.462156,1.507084,0.144048,0.967041,-0.254276,0.012399,0.004560
442,-0.530494,-4.624186,8.029260,-25.307905,5.246925,-10.097061,-30.292429,1.509096,-0.259266,0.965184,-0.261231,0.013303,0.001257
443,-0.541552,-4.849417,8.275048,-28.135489,4.496422,-9.868030,-31.199841,1.522036,-0.629116,0.963083,-0.268820,0.014269,-0.001716
444,-0.297891,-4.946482,8.392847,-29.232580,3.997585,-10.308938,-32.157795,1.490196,-0.990111,0.960795,-0.276819,0.014888,-0.004700
445,-0.096630,-5.003684,8.485081,-27.772078,4.336288,-9.536846,-33.087788,1.420144,-1.342994,0.958504,-0.284569,0.015216,-0.007705
446,-0.570140,-4.964650,8.335290,-26.972162,3.776339,-6.507831,-33.958248,1.397929,-1.639349,0.956293,-0.291805,0.015843,-0.010119
447,-0.173711,-5.421356,7.975172,-28.529961,2.941766,-6.811414,-34.863575,1.384441,-1.885494,0.953935,-0.299318,0.016453,-0.012078
448,0.085868,-5.456481,7.443607,-28.273745,3.374974,-7.473777,-35.836521,1.303953,-2.140987,0.951334,-0.307384,0.016573,-0.014275
449,-0.163761,-5.683627,6.822395,-27.828617,3.162730,-5.717549,-36.843521,1.234468,-2.383666,0.948567,-0.315710,0.016791,-0.016329
450,-0.516778,-5.734460,6.352054,-31.992105,0.207154,-5.725092,-37.959049,1.187849,-2.571854,0.945422,-0.324911,0.017098,-0.017850
451,-0.045994,-5.764696,5.944571,-36.216812,-0.851734,-8.844032,-39.241356,1.044736,-2.758676,0.941698,-0.335474,0.016668,-0.019613
452,-0.322664,-5.783312,5.715822,-39.370388,-1.108055,-7.443228,-40.656837,0.850081,-2.949011,0.937447,-0.347097,0.015893,-0.021553
453,-0.154539,-5.716061,5.652318,-43.628616,-1.495535,-6.698510,-42.176113,0.680011,-3.099634,0.932729,-0.359515,0.015266,-0.023100
454,0.027804,-5.998054,5.653393,-48.049992,-1.306350,-6.933544,-43.819748,0.483069,-3.235451,0.927438,-0.372885,0.014444,-0.024619
455,0.017490,-6.207553,6.052195,-49.198021,0.057741,-7.461602,-45.521420,0.281254,-3.391729,0.921750,-0.386646,0.013712,-0.026340
456,0.132711,-6.517971,6.303124,-47.432720,0.361299,-5.868639,-47.161411,0.104090,-3.549732,0.916069,-0.399823,0.013222,-0.028023
457,0.004158,-6.837260,6.533865,-44.823353,0.295612,-6.984165,-48.693447,-0.063213,-3.700680,0.910585,-0.412059,0.012809,-0.029645
458,-0.073524,-7.223922,6.692661,-40.222488,0.370402,-6.215075,-50.080647,-0.218310,-3.852348,0.905469,-0.423074,0.012501,-0.031258
459,0.010242,-6.983284,6.640238,-33.446953,1.208172,-6.324902,-51.243256,-0.355149,-4.005530,0.901067,-0.432258,0.012319,-0.032851
460,0.044727,-7.232304,6.313196,-28.815271,1.786512,-4.487674,-52.204845,-0.462484,-4.156822,0.897347,-0.439816,0.012335,-0.034343
461,-0.144905,-7.461205,6.081936,-26.089657,0.761164,-3.163078,-53.072037,-0.520416,-4.268327,0.893948,-0.446597,0.012577,-0.035344
462,0.440069,-7.639965,5.861602,-23.637329,-0.682398,-1.312184,-53.875870,-0.589298,-4.314083,0.890767,-0.452871,0.012470,-0.035882
463,0.255226,-7.718745,5.513916,-22.688204,-0.577260,-1.934965,-54.647942,-0.683703,-4.328137,0.887672,-0.458886,0.012036,-0.036284
464,0.184442,-8.246042,5.596164,-26.329212,-2.480155,3.425522,-55.487698,-0.709089,-4.271578,0.884299,-0.465391,0.011876,-0.035861
465,0.415618,-8.420319,5.690539,-26.629955,-4.386133,3.845015,-56.392906,-0.698165,-4.108150,0.880647,-0.472376,0.011569,-0.034466
466,0.127172,-8.545009,5.707046,-23.805494,-5.564226,5.431864,-57.240265,-0.680191,-3.884312,0.877199,-0.478893,0.011026,-0.032591
467,-0.009195,-8.683959,5.681157,-19.120857,-5.008756,4.643011,-57.951298,-0.624023,-3.645565,0.874286,-0.484337,0.010647,-0.030463
468,-0.116656,-8.753857,6.071003,-15.630803,-3.948146,6.773341,-58.493649,-0.516165,-3.419089,0.872060,-0.488468,0.010647,-0.028229
469,-0.088613,-9.025127,6.079857,-10.086690,-2.524356,4.670771,-58.859322,-0.381503,-3.228509,0.870563,-0.491239,0.010943,-0.026170
470,-0.217007,-9.262799,5.841656,-4.751758,-0.116337,3.772178,-59.062786,-0.252413,-3.118726,0.869732,-0.492769,0.011497,-0.024763
471,-0.040604,-9.216900,5.662671,-1.539540,1.519543,3.378630,-59.146172,-0.113334,-3.077756,0.869400,-0.493378,0.012394,-0.023845
472,0.087652,-9.119103,5.616207,-1.043498,1.699607,4.581068,-59.171692,0.029473,-3.055847,0.869311,-0.493546,0.013388,-0.023061
473,0.253870,-9.189400,5.340423,0.761681,-1.155475,5.191312,-59.174908,0.152065,-2.980185,0.869325,-0.493554,0.013993,-0.021958
474,0.111191,-8.822050,5.135015,2.916180,-3.195729,4.368683,-59.129276,0.224496,-2.836252,0.869556,-0.493211,0.013914,-0.020560
475,0.146453,-8.618287,5.338347,3.590663,-4.656118,6.108107,-59.016430,0.284155,-2.634241,0.870081,-0.492367,0.013479,-0.018783
476,0.248348,-8.783137,5.521093,5.382272,-4.982783,6.641988,-58.839603,0.349403,-2.386924,0.870882,-0.491041,0.012886,-0.016645
477,-0.083782,-9.725091,5.586673,5.708811,-5.193428,7.267504,-58.654373,0.439857,-2.121763,0.871716,-0.489647,0.012414,-0.014262
478,0.019717,-9.808142,5.948444,-7.661465,-6.849076,5.790376,-58.701946,0.515724,-1.837300,0.871548,-0.490027,0.011781,-0.011769
479,0.025874,-10.052015,7.445162,-36.954227,-8.693974,5.239436,-59.378822,0.525728,-1.519993,0.868668,-0.495196,0.010555,-0.009251
480,0.057815,-10.566735,8.274793,-60.609600,-9.328826,4.856332,-60.843632,0.504970,-1.174095,0.862290,-0.506292,0.008988,-0.006604
481,-0.171058,-11.267114,8.657399,-75.945358,-7.827351,6.151808,-62.918812,0.525368,-0.833452,0.852996,-0.521847,0.007706,-0.003811
482,0.078662,-10.934161,8.807323,-75.977249,-6.934723,7.343515,-65.196198,0.612452,-0.511275,0.842463,-0.538710,0.006906,-0.000879
483,-0.472928,-11.372890,8.381641,-51.618504,-5.135659,11.564269,-67.028244,0.825169,-0.196516,0.833734,-0.552117,0.006951,0.002546
484,-0.451987,-11.736973,6.762113,-12.144328,-5.086764,15.544075,-67.854027,1.206613,0.137392,0.829696,-0.558116,0.008068,0.006872
485,-0.658008,-11.370103,5.732888,30.736662,-6.279963,18.161261,-67.389786,1.688554,0.530173,0.831867,-0.554761,0.009693,0.012023
486,-0.739529,-10.794422,4.428882,73.423256,-8.765585,19.592867,-65.583786,2.210400,1.014683,0.840361,-0.541611,0.011419,0.017888
487,-0.762345,-10.356169,2.727880,95.479691,-7.367682,20.090599,-62.870747,2.735673,1.543132,0.852741,-0.521615,0.013345,0.023935
488,-0.414122,-9.160181,3.087373,99.016800,-4.385910,14.907126,-59.833714,3.173305,1.987221,0.866048,-0.498893,0.015350,0.028832
489,-0.581313,-8.836316,3.006704,108.466743,0.332336,11.473766,-56.608475,3.512956,2.264563,0.879570,-0.474371,0.017616,0.031921
490,-0.123672,-8.042429,1.912246,101.913383,4.736191,5.874928,-53.485477,3.772687,2.337935,0.892064,-0.450248,0.020215,0.033018
491,0.023981,-6.571246,3.447056,79.188461,7.459785,-2.449511,-50.833397,3.862777,2.187109,0.902257,-0.429457,0.022248,0.031690
492,-0.098993,-5.706668,4.427916,74.641876,5.497134,-8.086772,-48.416775,3.780730,1.896897,0.911215,-0.410275,0.023298,0.028614
493,0.073891,-6.120122,4.022790,71.267265,3.516122,-12.852740,-46.128521,3.534012,1.538670,0.919383,-0.391923,0.023110,0.024427
494,-0.161895,-4.438284,4.796771,59.151005,3.054954,-16.887699,-44.042088,3.180021,1.103888,0.926546,-0.375033,0.022111,0.019330
495,-0.451956,-3.856536,5.139247,50.071095,2.067575,-14.580543,-42.114738,2.868207,0.668677,0.932860,-0.359320,0.021260,0.014436
496,-0.426440,-4.670406,4.525479,46.158905,1.443566,-12.898860,-40.487965,2.631902,0.288632,0.937957,-0.345980,0.020676,0.010309
497,-0.458902,-4.514497,5.894518,36.148769,1.440629,-11.879447,-39.141090,2.426798,-0.059536,0.942022,-0.334882,0.020127,0.006604
498,-0.659303,-4.147722,6.120910,36.599586,1.196693,-5.607681,-37.838993,2.324526,-0.310020,0.945795,-0.324120,0.020065,0.004018
499,-0.135975,-4.786396,6.109360,32.072567,0.623021,-5.641165,-36.641884,2.252608,-0.474759,0.949145,-0.314199,0.019962,0.002246
500,-0.259515,-5.519196,8.421630,35.559566,-0.780975,-9.140209,-35.482708,2.079216,-0.671185,0.952301,-0.304564,0.019065,-0.000049
501,-0.581491,-4.883144,8.609158,46.084648,-2.087149,-7.476902,-34.012787,1.888480,-0.867196,0.956151,-0.292311,0.017971,-0.002416
502,-0.498812,-5.189684,8.245768,45.882343,-2.572246,-7.376062,-32.388889,1.717495,-1.027913,0.960212,-0.278726,0.016894,-0.004433
503,-0.667561,-4.827603,8.851965,41.924561,-2.503369,-10.432337,-30.861656,1.528759,-1.233161,0.963849,-0.265897,0.015722,-0.006823
504,-0.733147,-4.753113,9.119442,42.541622,-3.845864,-8.158491,-29.370838,1.339178,-1.444028,0.967227,-0.253332,0.014498,-0.009226
505,-0.848248,-4.222707,8.297303,42.416977,-3.759955,-4.663846,-27.886499,1.205953,-1.567235,0.970425,-0.240785,0.013508,-0.010737
506,-0.483488,-4.261755,8.696248,34.151382,-2.940133,-6.084253,-26.560675,1.093949,-1.672511,0.973142,-0.229545,0.012643,-0.012011
507,-0.465159,-3.796327,8.732368,33.425446,-1.540615,-3.738770,-25.376171,0.996821,-1.784670,0.975455,-0.219476,0.011906,-0.013282
508,-0.357701,-3.673529,8.622327,29.214336,-1.447320,-1.742747,-24.266384,0.949544,-1.844865,0.977529,-0.210020,0.011484,-0.013997
510,-0.369587,-3.354140,8.660770,27.907068,-0.641445,0.282252,-23.247202,0.939472,-1.851435,0.979358,-0.201319,0.011284,-0.014173
511,-0.315975,-3.424280,8.686609,22.150154,-0.706884,1.765535,-22.352011,0.961189,-1.809863,0.980905,-0.193663,0.011289,-0.013868
512,-0.351463,-3.282830,8.758058,18.965841,-0.525133,4.246766,-21.620869,1.007136,-1.708173,0.982131,-0.187403,0.011428,-0.012993
513,-0.485789,-3.209624,8.962232,11.606611,-1.182568,4.628348,-21.062185,1.073405,-1.558918,0.983045,-0.182619,0.011695,-0.011662
514,-0.420600,-3.379617,9.006830,7.325190,-1.424599,6.001916,-20.694431,1.191464,-1.376476,0.983636,-0.179467,0.012385,-0.009948
515,-0.533414,-3.342325,9.192078,3.211696,-1.447971,4.397049,-20.454454,1.375623,-1.195452,0.984009,-0.177407,0.013665,-0.008134
516,-0.445784,-3.301710,9.185259,2.659776,-0.931223,3.292661,-20.283419,1.541530,-1.059321,0.984266,-0.175937,0.014869,-0.006730
517,-0.450126,-3.141511,9.256385,-0.426433,-1.929980,3.340253,-20.131929,1.651692,-0.935819,0.984493,-0.174642,0.015618,-0.005521
518,-0.500704,-3.180158,9.243386,-0.791762,-2.261898,3.622847,-20.014254,1.744716,-0.798786,0.984667,-0.173642,0.016204,-0.004218
519,-0.490156,-3.127253,9.173202,-1.863709,-3.057677,4.383056,-19.936966,1.828567,-0.639359,0.984778,-0.172994,0.016681,-0.002732
520,-0.388678,-3.196628,9.025059,-3.819514,-3.959105,5.243836,-19.960768,1.837139,-0.446496,0.984744,-0.173226,0.016464,-0.001059
521,-0.383730,-3.117658,9.071237,-6.218151,-4.158927,5.382727,-20.103561,1.782641,-0.233107,0.984535,-0.174485,0.015672,0.000712
522,-0.267501,-3.339618,8.982282,-7.588373,-3.260137,4.343580,-20.318935,1.726018,-0.037905,0.984210,-0.176364,0.014884,0.002331
523,-0.202948,-3.325535,8.972333,-9.262338,-1.802933,0.110643,-20.600718,1.664277,0.061108,0.983779,-0.178797,0.014194,0.003121
524,-0.122762,-3.246158,8.987099,-10.476915,-0.592987,-3.356300,-20.921721,1.589880,0.025009,0.983284,-0.181549,0.013604,0.002734
525,-0.178378,-3.397155,8.677715,-11.291735,0.792442,-5.367511,-21.284719,1.522952,-0.111658,0.982714,-0.184649,0.013241,0.001497
526,-0.093125,-3.456889,8.335126,-15.799459,1.384392,-7.586253,-21.763058,1.459730,-0.326304,0.981943,-0.188727,0.013047,-0.000391
527,-0.031820,-3.633662,7.997436,-21.959948,1.385752,-7.250624,-22.447380,1.382172,-0.573849,0.980803,-0.194564,0.012805,-0.002564
528,-0.043602,-3.740050,7.791171,-29.666361,0.656183,-4.972501,-23.385794,1.304766,-0.776132,0.979178,-0.202573,0.012522,-0.004324
529,-0.208464,-3.958059,7.535030,-37.823055,0.256321,-2.538696,-24.607134,1.255081,-0.898463,0.976962,-0.212988,0.012371,-0.005326
530,-0.180671,-4.117966,7.441193,-48.894367,-1.298585,-0.680131,-26.161472,1.216897,-0.941767,0.973984,-0.226218,0.012203,-0.005601
531,-0.117204,-4.520232,7.731042,-56.976376,-2.217223,0.568044,-28.031246,1.157298,-0.918956,0.970169,-0.242088,0.011740,-0.005334
532,-0.285129,-4.746107,7.777687,-58.069569,-2.424731,0.767936,-30.040770,1.102387,-0.863777,0.965780,-0.259073,0.011244,-0.004787
533,-0.294547,-5.067169,8.028668,-55.532410,-2.354439,0.371240,-32.002075,1.060235,-0.808294,0.961210,-0.275573,0.010838,-0.004230
534,-0.130111,-5.468009,8.126941,-51.913261,-1.136719,-0.951727,-33.843700,1.010853,-0.786167,0.956661,-0.290991,0.010436,-0.003996
535,-0.169676,-6.194461,8.440018,-38.140625,0.787450,-1.801690,-35.399338,0.975451,-0.821497,0.952623,-0.303951,0.010289,-0.004241
536,-0.048203,-6.194218,8.138194,-22.161493,2.354525,-4.913094,-36.460087,0.942579,-0.943559,0.949765,-0.312747,0.010388,-0.005247
537,-0.383879,-6.093663,8.021971,-13.409004,3.399821,-6.422210,-37.089230,0.913385,-1.152869,0.948024,-0.317941,0.010756,-0.007003
538,-0.438489,-6.023302,7.845003,-13.584586,2.936132,-7.374246,-37.557880,0.893976,-1.400291,0.946699,-0.321794,0.011319,-0.009058
539,-0.216870,-5.991762,7.584929,-12.527219,2.931689,-9.092338,-38.011921,0.828334,-1.677652,0.945393,-0.325523,0.011601,-0.011487
540,-0.279633,-5.474411,7.223005,-22.628838,1.779703,-10.020032,-38.600521,0.709192,-1.976490,0.943676,-0.330362,0.011541,-0.014232
541,-0.487663,-5.526309,7.176212,-33.395607,0.809429,-8.187221,-39.514038,0.592698,-2.239425,0.940977,-0.337868,0.011472,-0.016643
542,-0.201851,-5.878298,7.203789,-41.284534,0.151951,-5.837139,-40.744156,0.491760,-2.428944,0.937264,-0.347949,0.011400,-0.018375
543,-0.011110,-6.059778,6.702165,-41.078629,0.927137,-4.488210,-42.131191,0.393922,-2.570110,0.932957,-0.359272,0.011268,-0.019692
544,-0.233953,-6.330614,6.709839,-41.963882,0.673873,-1.599598,-43.547806,0.352416,-2.662778,0.928426,-0.370777,0.011474,-0.020437
545,0.052685,-6.432633,6.546575,-35.037880,1.581824,-0.847297,-44.858212,0.355409,-2.718468,0.924116,-0.381363,0.011917,-0.020743
546,0.074095,-6.783791,6.177840,-31.276787,2.045616,-0.209549,-46.010738,0.366584,-2.773812,0.920224,-0.390630,0.012403,-0.021029
547,0.191944,-6.638760,6.022505,-30.224281,2.808441,-2.642019,-47.093616,0.357583,-2.865033,0.916474,-0.399300,0.012847,-0.021672
548,0.156287,-6.875604,6.221962,-30.355726,3.516304,-3.061826,-48.135742,0.322169,-3.006607,0.912775,-0.407609,0.013265,-0.022808
549,-0.072725,-6.801974,6.006516,-30.058271,3.774118,-3.754669,-49.158230,0.302418,-3.172495,0.909067,-0.415722,0.013913,-0.024076
550,-0.151030,-7.336061,6.306753,-33.191044,3.581893,-2.063899,-50.220322,0.316951,-3.328807,0.905142,-0.424107,0.014829,-0.025127
551,0.061870,-7.486040,6.363504,-32.734753,2.651073,-1.714468,-51.314301,0.332673,-3.449070,0.901027,-0.432708,0.015646,-0.025870
552,-0.068130,-8.149441,6.889770,-32.556046,1.947586,0.836839,-52.376373,0.360399,-3.518079,0.896965,-0.441024,0.016368,-0.026158
553,0.122964,-8.314001,6.917721,-26.706867,1.978054,1.621101,-53.318401,0.420178,-3.544944,0.893308,-0.448364,0.017153,-0.025998
554,0.248572,-9.131395,7.323299,-20.892742,3.674748,1.004454,-54.059757,0.478121,-3.594152,0.890383,-0.454111,0.017966,-0.026039
555,0.198393,-9.191270,7.217933,-12.139681,6.267140,-2.932639,-54.558487,0.510231,-3.746603,0.888366,-0.457949,0.018938,-0.027014
556,-0.023063,-9.279651,7.301726,-6.661194,10.330587,-4.609754,-54.812592,0.544728,-4.044296,0.887279,-0.459857,0.020459,-0.029138
557,-0.156832,-8.875575,6.962758,1.571646,12.915493,-5.778621,-54.830688,0.624812,-4.460013,0.887104,-0.459894,0.022752,-0.032032
558,-0.310096,-8.831470,6.880342,8.147332,13.780747,-4.800416,-54.603386,0.753324,-4.924287,0.887894,-0.457992,0.025540,-0.035160
559,-0.252779,-8.373137,6.639911,13.258136,11.905457,-3.063804,-54.180798,0.915790,-5.347668,0.889461,-0.454553,0.028351,-0.037895
560,-0.227496,-8.110060,6.256558,14.975206,9.138995,0.329922,-53.655178,1.097757,-5.656963,0.891454,-0.450315,0.030807,-0.039715
561,-0.275976,-8.171515,6.390303,14.452106,5.514957,3.313162,-53.124287,1.302112,-5.815998,0.893498,-0.446048,0.032835,-0.040300
562,-0.079024,-8.888271,5.916671,9.111238,1.944271,5.052685,-52.751312,1.482852,-5.831676,0.894958,-0.443053,0.034175,-0.039829
563,-0.058335,-8.500542,6.426229,-15.134472,-2.531365,1.915243,-52.891991,1.544002,-5.754752,0.894446,-0.444147,0.034403,-0.038949
564,0.096049,-8.787194,7.620142,-46.189800,-5.856524,-0.425733,-53.864986,1.440872,-5.626249,0.890675,-0.451809,0.033424,-0.038064
565,-0.075539,-9.335838,8.465561,-65.324089,-7.338369,0.831435,-55.595478,1.280903,-5.438691,0.883795,-0.465328,0.032001,-0.036759
566,-0.151329,-9.730548,8.548976,-71.962311,-7.092798,4.369956,-57.715767,1.200153,-5.185211,0.875104,-0.481703,0.030994,-0.034565
567,-0.229746,-9.692451,9.245896,-62.394764,-6.590832,10.449205,-59.720028,1.282870,-4.856216,0.866648,-0.496993,0.030792,-0.031170
568,-0.901294,-11.021930,9.107754,-27.554655,-8.373055,19.397408,-60.950397,1.617910,-4.387014,0.861405,-0.506278,0.031569,-0.025828
569,-0.636904,-11.161210,7.109644,30.143167,-10.107910,23.743505,-60.728294,2.137562,-3.762542,0.862525,-0.504605,0.032677,-0.018897
570,-0.194396,-10.936878,5.890435,70.398811,-9.488393,27.024240,-58.991894,2.701536,-3.051994,0.870149,-0.491504,0.033619,-0.011570
571,-0.486339,-10.268798,5.051150,93.061378,-12.589115,27.314047,-56.299526,3.248897,-2.258799,0.881455,-0.471004,0.034285,-0.004001
572,-0.312378,-9.647386,4.322010,100.468552,-14.743752,22.536215,-53.204521,3.641766,-1.415940,0.893793,-0.447183,0.033939,0.003185
573,0.344115,-8.472579,3.656489,99.137573,-10.257790,15.269208,-50.120247,3.787940,-0.716786,0.905439,-0.423142,0.032586,0.008336
574,-0.614261,-7.274757,4.071561,79.367226,-6.182198,14.431050,-47.410957,3.914331,-0.207128,0.915113,-0.401744,0.031997,0.012076
575,-0.663054,-6.663492,4.566323,61.939602,-5.541159,11.350220,-45.259960,4.107283,0.215185,0.922389,-0.384593,0.032354,0.015521
576,-0.404316,-6.087614,5.203879,62.481808,-2.611354,4.578092,-43.320629,4.191040,0.490349,0.928701,-0.368998,0.032405,0.017471
577,-0.639527,-5.279175,5.458613,62.176212,-1.544744,0.924970,-41.297031,4.193457,0.600565,0.935054,-0.352573,0.032389,0.017802
578,-0.547352,-4.808871,5.643197,52.807041,-1.895668,-0.057688,-39.375988,4.166787,0.649369,0.940834,-0.336864,0.032320,0.017579
579,-0.160951,-4.736277,6.155787,46.128284,-0.304328,-3.733785,-37.696156,4.061828,0.624813,0.945707,-0.323035,0.031778,0.016606
580,-0.406964,-4.421728,6.225542,43.867207,-0.812735,-7.040655,-36.154404,3.888746,0.494512,0.950038,-0.310256,0.030916,0.014628
581,-0.419410,-4.409935,6.502323,33.112843,0.183557,-7.719763,-34.830578,3.714071,0.303176,0.953630,-0.299219,0.030129,0.012222
582,-0.319104,-4.806471,7.116617,26.592794,0.598435,-12.141999,-33.818295,3.507681,0.023841,0.956317,-0.290725,0.029222,0.009101
583,-0.612559,-4.718279,7.386556,31.155483,1.974740,-15.807318,-32.854813,3.273389,-0.388143,0.958809,-0.282591,0.028353,0.004830
584,-0.500411,-4.492161,7.563997,30.008270,0.494616,-18.817932,-31.821096,3.005280,-0.895939,0.961387,-0.273836,0.027360,-0.000328
585,-0.887934,-4.727476,8.387415,30.173449,1.295875,-18.649961,-30.788675,2.734265,-1.441996,0.963851,-0.265075,0.026340,-0.005795
586,-0.598755,-4.609939,8.479510,31.698236,-0.641841,-18.587250,-29.724031,2.469479,-1.980460,0.966273,-0.256034,0.025256,-0.011174
587,-0.790818,-4.504982,8.384199,31.431507,0.328863,-12.976279,-28.644096,2.247249,-2.434634,0.968619,-0.246865,0.024250,-0.015731
588,-0.592972,-4.393041,8.711558,29.120010,-2.086427,-10.717756,-27.605829,2.079469,-2.766997,0.970784,-0.238049,0.023376,-0.019115
589,-0.759102,-4.468616,8.743787,31.854670,-1.819131,-5.802605,-26.566944,1.940969,-2.980587,0.972878,-0.229230,0.022453,-0.021418
590,-0.530489,-3.921725,8.499990,32.694122,-2.482642,-4.239912,-25.466011,1.849004,-3.097895,0.975021,-0.219874,0.021689,-0.022808
591,-0.677947,-3.844109,8.755611,29.549486,-2.126842,-0.492104,-24.385489,1.790095,-3.134808,0.977048,-0.210679,0.021039,-0.023435
592,-0.588719,-3.400180,8.954662,28.831221,-2.636209,0.061960,-23.344944,1.764018,-3.106345,0.978929,-0.201810,0.020553,-0.023428
593,-0.799655,-3.343518,8.996976,24.324181,-2.306256,3.944088,-22.374510,1.773170,-3.009310,0.980622,-0.193527,0.020268,-0.022755
594,-0.650870,-3.263591,9.239409,21.097336,-2.859787,3.704694,-21.539522,1.804063,-2.855661,0.982033,-0.186396,0.020116,-0.021535
595,-0.665394,-3.264546,9.310003,18.077957,-3.494261,3.791811,-20.817684,1.801503,-2.698067,0.983216,-0.180235,0.019710,-0.020313
596,-0.829629,-3.257948,9.355088,15.088986,-3.504554,3.775187,-20.212116,1.799488,-2.536808,0.984183,-0.175064,0.019339,-0.019035
597,-0.565850,-3.347004,9.295613,11.791734,-4.134069,2.328877,-19.719055,1.825819,-2.395532,0.984947,-0.170846,0.019273,-0.017864
598,-0.421747,-3.363578,9.294291,9.631101,-4.415710,0.928319,-19.347147,1.814443,-2.295384,0.985513,-0.167667,0.018970,-0.017082
599,-0.358588,-3.507501,9.192622,8.191583,-4.529868,1.070313,-19.133274,1.729198,-2.217104,0.985845,-0.165857,0.018092,-0.016568
600,-0.106006,-3.406416,9.329401,5.286927,-3.907548,-1.862631,-19.030798,1.549832,-2.187362,0.986014,-0.165013,0.016491,-0.016587
601,-0.086245,-3.542082,9.296456,5.312407,-3.645520,-4.731534,-18.924885,1.326013,-2.252503,0.986174,-0.164134,0.014643,-0.017485
602,-0.140244,-3.460611,9.244073,4.501855,-3.277892,-6.317019,-18.807135,1.137720,-2.390633,0.986333,-0.163139,0.013201,-0.018958
603,-0.326084,-3.501040,9.432274,3.560097,-2.550008,-6.895346,-18.715500,0.977501,-2.568781,0.986440,-0.162363,0.012059,-0.020729
604,-0.328933,-3.225929,9.742356,2.334682,-3.666860,-6.469573,-18.634604,0.827719,-2.746920,0.986526,-0.161680,0.011006,-0.022483
605,-0.414174,-3.322627,9.524612,4.002501,-4.644791,-3.925792,-18.533056,0.670977,-2.866984,0.986648,-0.160830,0.009805,-0.023747
606,-0.253111,-2.764870,9.914252,3.547971,-5.654776,-1.002056,-18.378023,0.510448,-2.890167,0.986861,-0.159529,0.008423,-0.024184
607,-0.160103,-2.994376,10.146152,6.870318,-6.703001,3.209531,-18.142570,0.340116,-2.790009,0.987207,-0.157544,0.006768,-0.023573
608,0.270095,-2.699198,10.005052,13.851843,-7.467607,4.588932,-17.734123,0.137064,-2.593251,0.987799,-0.154076,0.004670,-0.022174
609,0.127819,-2.764053,9.719320,18.723005,-5.983097,2.916450,-17.129868,-0.073080,-2.406873,0.988627,-0.148911,0.002497,-0.020863
610,0.275067,-2.587452,9.419239,19.773144,-4.147598,3.427576,-16.443359,-0.234345,-2.257288,0.989522,-0.143015,0.000793,-0.019787
611,0.198556,-2.795473,9.016220,16.992990,-2.487592,4.726078,-15.819072,-0.334204,-2.096496,0.990309,-0.137639,-0.000371,-0.018522
613,0.166319,-2.639601,8.705218,9.495965,-0.894661,4.404068,-15.401452,-0.368503,-1.934938,0.990828,-0.134033,-0.000924,-0.017163
614,-0.067009,-2.460684,8.648391,-0.166322,0.258945,3.175702,-15.265843,-0.344219,-1.810282,0.991005,-0.132856,-0.000879,-0.016056
615,0.012479,-2.354624,8.754303,-7.881423,0.390260,5.794213,-15.404093,-0.280919,-1.668971,0.990866,-0.134042,-0.000477,-0.014761
616,-0.124202,-2.398558,9.209834,-11.929618,0.344587,5.829337,-15.722328,-0.200922,-1.485781,0.990514,-0.136784,0.000037,-0.013083
617,-0.089880,-2.474547,9.420068,-11.897424,0.295898,5.014532,-16.097284,-0.119093,-1.315147,0.990082,-0.140016,0.000578,-0.011509
618,-0.235763,-2.459445,9.635013,-9.518274,0.340327,4.337071,-16.419653,-0.037677,-1.168731,0.989700,-0.142795,0.001131,-0.010141
619,-0.124798,-2.762238,9.720517,-8.491132,0.114668,6.668736,-16.690619,0.049618,-0.995260,0.989375,-0.145129,0.001689,-0.008530
620,0.041944,-2.893388,9.699024,-7.429036,0.348171,5.011592,-16.947742,0.119010,-0.811211,0.989059,-0.147347,0.002070,-0.006849
621,0.026191,-2.888291,9.654743,-8.491048,0.154334,4.829994,-17.208035,0.168270,-0.656853,0.988730,-0.149594,0.002309,-0.005448
622,0.255247,-2.854762,9.409381,-10.004713,0.596699,2.518168,-17.508150,0.192731,-0.543605,0.988339,-0.152184,0.002384,-0.004433
623,0.317433,-2.844044,9.221416,-10.119100,2.741853,-1.147197,-17.834816,0.206106,-0.538488,0.987902,-0.155000,0.002505,-0.004364
624,0.435760,-2.835799,9.127022,-8.068177,5.202782,-5.006385,-18.126703,0.239342,-0.676554,0.987497,-0.157511,0.002993,-0.005501
625,0.143036,-2.857156,8.832072,-6.031003,7.917092,-6.797923,-18.353285,0.336338,-0.931520,0.987168,-0.159449,0.004194,-0.007557
626,0.215261,-3.154400,8.512335,-3.443181,9.416854,-10.515151,-18.536072,0.483972,-1.296614,0.986881,-0.160994,0.005990,-0.010487
627,-0.031493,-3.407068,8.283831,-3.646613,10.022491,-14.343752,-18.731487,0.633975,-1.793177,0.986548,-0.162628,0.008004,-0.014539
628,-0.070820,-3.597829,8.425152,-8.464643,9.575359,-16.618929,-19.043171,0.770076,-2.388189,0.986010,-0.165241,0.010073,-0.019440
629,-0.366864,-3.902389,8.335657,-14.360160,9.782994,-19.031389,-19.563412,0.894557,-3.057407,0.985117,-0.169624,0.012222,-0.024963
630,-0.171916,-3.893540,8.657300,-21.896069,9.043056,-21.243948,-20.313181,0.981106,-3.797729,0.983803,-0.175956,0.014266,-0.031106
631,-0.387285,-3.862664,8.972893,-32.382862,8.548772,-21.935160,-21.326414,1.017041,-4.576519,0.981975,-0.184533,0.016103,-0.037595
632,-0.159284,-4.200956,9.646005,-40.081589,8.846417,-19.856823,-22.612305,1.039071,-5.332499,0.979575,-0.195418,0.018001,-0.043838
633,-0.248254,-4.337708,9.503601,-40.307770,8.980717,-19.064869,-24.016516,1.056777,-6.046690,0.976816,-0.207278,0.019980,-0.049671
634,-0.103017,-4.323302,9.637792,-39.338982,8.190274,-18.275972,-25.382168,1.054451,-6.732103,0.973963,-0.218779,0.021860,-0.055260
635,-0.130037,-4.678185,9.656927,-37.448410,6.412506,-16.817219,-26.680660,1.005746,-7.364408,0.971101,-0.229701,0.023340,-0.060466
636,0.010061,-4.965136,9.359243,-32.997429,6.333054,-14.778640,-27.885736,0.935292,-7.929953,0.968317,-0.239822,0.024563,-0.065145
637,-0.107852,-5.064002,8.849658,-27.957561,5.974361,-16.051315,-28.949583,0.853814,-8.479689,0.965719,-0.248730,0.025674,-0.069726
638,-0.025059,-4.960289,8.842121,-25.754311,5.524137,-15.550856,-29.880358,0.749317,-9.032929,0.963307,-0.256507,0.026599,-0.074401
639,-0.342151,-5.302785,8.676296,-22.440159,5.165579,-14.020336,-30.713512,0.660431,-9.548609,0.961061,-0.263443,0.027580,-0.078737
640,-0.280341,-5.265193,8.471029,-15.840755,5.713541,-12.807138,-31.390593,0.611726,-10.025875,0.959144,-0.269034,0.028758,-0.082683
641,-0.365760,-5.222859,8.433351,-8.214308,5.052990,-11.793819,-31.815243,0.580514,-10.469573,0.957808,-0.272496,0.029858,-0.086359
642,-0.351506,-4.931710,8.354604,-0.369451,4.097973,-9.341526,-31.951078,0.561617,-10.849334,0.957190,-0.273546,0.030709,-0.089542
643,-0.256376,-5.247937,8.121606,3.730508,3.184322,-5.898806,-31.928032,0.597003,-11.129433,0.957030,-0.273248,0.031655,-0.091803
644,0.146447,-5.345728,8.165534,5.647863,2.227429,-4.780396,-31.883854,0.554556,-11.329323,0.956965,-0.272859,0.031741,-0.093586
645,0.022120,-5.552160,8.041571,5.896775,1.900282,-4.492384,-31.893810,0.424345,-11.498910,0.956775,-0.273006,0.031066,-0.095310
646,0.250465,-5.719640,8.048996,6.021348,2.104041,-4.561517,-32.008099,0.273073,-11.664713,0.956330,-0.274045,0.030295,-0.097026
647,0.302123,-5.927703,7.977274,4.076144,3.110060,-5.441150,-32.245342,0.063522,-11.853918,0.955550,-0.276155,0.029205,-0.099046
648,0.247925,-6.066616,8.066871,3.631701,3.670933,-6.067207,-32.405544,-0.062620,-12.076926,0.954936,-0.277544,0.028832,-0.101169
649,0.008979,-5.986246,7.877617,2.181280,3.679985,-5.545404,-32.427372,-0.081027,-12.305964,0.954674,-0.277685,0.029253,-0.103117
650,0.042079,-5.919788,8.006037,1.321959,2.468354,-2.936100,-32.631466,-0.078605,-12.479875,0.954021,-0.279337,0.029881,-0.104507
651,-0.174757,-5.685500,8.170259,5.337636,0.724480,-0.149591,-32.832901,-0.015659,-12.551527,0.953480,-0.280938,0.030764,-0.104896
652,-0.221127,-5.328658,7.929269,14.411491,-0.808678,0.732651,-32.627186,0.059400,-12.542404,0.954011,-0.279159,0.031178,-0.104692
653,0.061583,-5.318828,7.591787,16.877100,-1.357948,0.793729,-32.148876,0.053815,-12.501369,0.955204,-0.275191,0.030596,-0.104493
654,0.044688,-5.635335,7.747546,13.908653,-0.811720,0.360330,-31.714100,0.023796,-12.466020,0.956266,-0.271601,0.029865,-0.104384
655,-0.033230,-5.643754,7.687708,9.604839,0.343395,-2.616756,-31.427765,-0.004366,-12.494081,0.956909,-0.269229,0.029434,-0.104759
656,-0.015159,-5.764887,7.572757,-1.201105,1.004141,-5.221499,-31.417738,-0.049989,-12.617258,0.956807,-0.269156,0.029334,-0.105897
657,0.049392,-6.022066,7.938204,-15.693785,0.506679,-3.552142,-31.844128,-0.107078,-12.754852,0.955656,-0.272732,0.029579,-0.107071
658,-0.267264,-5.761178,8.388916,-24.538750,-0.689549,-0.959534,-32.619400,-0.132743,-12.816733,0.953724,-0.279198,0.030240,-0.107446
659,-0.261221,-5.350292,8.262263,-27.702238,-2.996520,2.539558,-33.526909,-0.129247,-12.761556,0.951535,-0.286754,0.030981,-0.106736
660,-0.058011,-5.364017,8.240315,-30.793745,-5.289836,7.408883,-34.500256,-0.124751,-12.547428,0.949264,-0.294881,0.031372,-0.104684
661,0.057513,-5.325742,8.272568,-32.218784,-7.392544,10.782715,-35.523773,-0.121044,-12.178050,0.946925,-0.303447,0.031359,-0.101338
662,-0.126607,-5.335538,8.290459,-34.025101,-9.713431,13.320359,-36.572659,-0.107362,-11.685699,0.944537,-0.312226,0.031056,-0.096952
663,-0.030325,-5.537048,8.201335,-33.797302,-11.875590,14.716636,-37.637653,-0.098412,-11.096457,0.942082,-0.321144,0.030379,-0.091791
664,0.137894,-5.572136,8.148796,-32.794281,-13.021586,14.974494,-38.675976,-0.124405,-10.451308,0.939627,-0.329857,0.029140,-0.086298
665,0.095195,-5.572886,8.006192,-32.712811,-13.816669,14.715029,-39.680645,-0.172899,-9.785238,0.937170,-0.338284,0.027533,-0.080736
666,0.034359,-5.689145,7.905463,-32.815929,-13.961659,15.606143,-40.677864,-0.206432,-9.100668,0.934646,-0.346611,0.025891,-0.075013
667,0.174690,-5.719363,7.657193,-31.943970,-13.954084,16.275974,-41.661491,-0.217811,-8.394650,0.932077,-0.354784,0.024256,-0.069081
668,0.173976,-5.710318,7.451461,-31.714403,-14.022854,16.579540,-42.623726,-0.217278,-7.675877,0.929479,-0.362747,0.022564,-0.063045
669,0.202561,-5.908101,7.347845,-31.696953,-14.004657,16.759493,-43.582977,-0.201926,-6.951076,0.926792,-0.370646,0.020872,-0.056943
670,0.169538,-6.037015,7.174385,-30.335218,-14.120737,16.570171,-44.527649,-0.175643,-6.225931,0.924051,-0.378389,0.019158,-0.050836
671,0.276583,-6.099555,6.921731,-29.533556,-14.062894,16.351824,-45.444439,-0.149734,-5.505736,0.921299,-0.385876,0.017348,-0.044805
672,0.293702,-6.408541,6.807562,-30.535643,-13.417614,15.809932,-46.380833,-0.123280,-4.803495,0.918375,-0.393483,0.015514,-0.038943
673,0.275671,-6.638325,6.461928,-30.071531,-11.963593,13.600200,-47.357315,-0.094995,-4.159160,0.915197,-0.401370,0.013815,-0.033565
674,0.296507,-6.842581,6.284921,-31.228138,-9.424643,11.311109,-48.372990,-0.067453,-3.615697,0.911755,-0.409521,0.012389,-0.029019
675,0.225458,-7.189553,6.341198,-34.147255,-6.520976,10.145115,-49.466381,-0.009863,-3.179709,0.907915,-0.418234,0.011530,-0.025236
676,0.148117,-7.551291,6.501871,-35.928017,-4.299344,9.191280,-50.634087,0.095207,-2.833905,0.903687,-0.427477,0.011325,-0.021998
677,0.114648,-7.622526,6.694715,-33.826641,-2.935253,8.434320,-51.769176,0.229021,-2.555387,0.899469,-0.436410,0.011532,-0.019189
678,0.033828,-7.748564,7.173142,-30.101311,-2.498900,9.484083,-52.752110,0.395370,-2.300368,0.895742,-0.444107,0.012008,-0.016451
679,-0.175007,-7.755050,7.402541,-22.371588,-2.668276,10.018169,-53.487259,0.605181,-2.035398,0.892918,-0.449838,0.012708,-0.013485
680,-0.070049,-7.498105,7.361068,-13.092767,-2.775082,7.831546,-53.896008,0.795062,-1.784431,0.891338,-0.453020,0.013241,-0.010736
681,-0.186081,-7.360389,7.367197,-4.173857,-2.311214,3.198848,-53.970955,0.893873,-1.604978,0.891057,-0.453609,0.013306,-0.008941
682,-0.224608,-7.284472,7.225936,1.906895,-0.902773,-1.850385,-53.787983,0.887949,-1.545155,0.891784,-0.452193,0.013009,-0.008520
683,-0.167853,-7.052032,6.902874,4.046120,0.939024,-6.818753,-53.479382,0.777693,-1.627977,0.892993,-0.449796,0.012452,-0.009634
684,0.000161,-6.885047,6.636090,2.898394,2.748723,-10.812134,-53.171917,0.570163,-1.849917,0.894172,-0.447404,0.011673,-0.012209
685,0.009222,-7.105512,6.605318,1.130969,4.657576,-12.324412,-52.938892,0.318629,-2.178331,0.895030,-0.445591,0.010961,-0.015777
686,0.095205,-7.280417,6.335191,-0.159128,5.869080,-10.758908,-52.798676,0.098898,-2.549410,0.895504,-0.444497,0.010664,-0.019542
687,0.024579,-7.330428,6.079646,-0.654517,6.100962,-8.793591,-52.731991,-0.054036,-2.905099,0.895682,-0.443971,0.010835,-0.022921
688,0.048247,-7.502056,6.103491,0.096599,4.938182,-6.495579,-52.686657,-0.151311,-3.205822,0.895783,-0.443608,0.011230,-0.025653
689,0.005601,-7.747581,6.109435,2.959705,1.878715,-4.444719,-52.564560,-0.224191,-3.406945,0.896200,-0.442649,0.011409,-0.027520
690,0.216012,-7.692173,5.983222,7.263278,-1.548700,-4.452595,-52.324360,-0.384639,-3.502013,0.897080,-0.440797,0.010461,-0.028905
691,0.430033,-7.439456,5.785518,10.484670,-4.091216,-7.955017,-52.003487,-0.685667,-3.555107,0.898251,-0.438346,0.008223,-0.030501
692,0.721407,-7.284622,5.811893,9.941505,-5.071166,-12.530135,-51.651836,-1.123008,-3.646538,0.899487,-0.435677,0.005043,-0.032905
693,0.832175,-7.381914,6.045976,6.599858,-4.320799,-18.489372,-51.351826,-1.720054,-3.846625,0.900432,-0.433441,0.001020,-0.036744
694,0.816392,-7.419035,6.242557,5.467821,-2.938667,-24.111336,-51.108192,-2.436373,-4.198096,0.901033,-0.431679,-0.003371,-0.042201
695,0.606577,-7.302954,6.358741,2.948815,-2.081309,-26.792671,-50.900272,-3.201459,-4.669324,0.901369,-0.430229,-0.007704,-0.048763
696,0.461898,-7.376363,6.730567,0.202600,-0.711042,-26.298325,-50.747398,-3.924368,-5.196570,0.901409,-0.429231,-0.011490,-0.055593
697,0.335973,-7.510421,7.014547,3.175691,0.384737,-23.864330,-50.563843,-4.542018,-5.729196,0.901532,-0.427995,-0.014459,-0.062056
698,0.337339,-7.425344,7.027991,11.748985,0.252266,-18.347839,-50.179550,-5.018374,-6.194779,0.902451,-0.425155,-0.016701,-0.067425
699,0.594552,-7.210126,7.095781,18.865097,0.464643,-13.357826,-49.528530,-5.360650,-6.555047,0.904442,-0.420171,-0.018471,-0.071414
700,0.765941,-7.130675,7.257046,26.956362,1.595554,-10.472178,-48.615395,-5.604325,-6.853350,0.907428,-0.413073,-0.019899,-0.074495
701,0.927832,-7.035267,7.395687,37.508965,1.746758,-7.923845,-47.390575,-5.776632,-7.113022,0.911515,-0.403451,-0.021155,-0.076942
702,1.008460,-6.870206,7.514616,45.465969,0.893854,-6.828256,-45.862366,-5.918372,-7.327327,0.916581,-0.391349,-0.022584,-0.078844
703,1.081973,-6.569620,7.577066,49.344158,-0.191028,-8.116204,-44.139633,-6.087575,-7.525339,0.922115,-0.377627,-0.024480,-0.080638
704,1.101371,-6.186463,7.662563,50.802250,-1.414793,-8.235323,-42.324608,-6.300496,-7.719840,0.927705,-0.363098,-0.026867,-0.082477
705,1.135961,-5.878589,7.894320,51.968952,-2.681282,-6.466882,-40.460934,-6.520989,-7.874132,0.933229,-0.348087,-0.029537,-0.083942
706,1.160722,-5.627023,8.071682,51.739464,-3.412166,-4.506176,-38.583923,-6.721717,-7.966975,0.938602,-0.332861,-0.032287,-0.084777
707,1.222230,-5.332033,8.098380,51.876156,-3.164948,-2.121272,-36.720245,-6.884240,-8.003449,0.943754,-0.317630,-0.034903,-0.084980
708,1.218384,-5.040524,8.172824,52.523987,-1.321625,0.440633,-34.855015,-6.971303,-7.998031,0.948743,-0.302262,-0.037018,-0.084580
709,1.163387,-5.078278,8.200474,53.731663,1.653957,2.407471,-32.987312,-6.943244,-7.974331,0.953580,-0.286740,-0.038217,-0.083700
710,0.944693,-4.971273,8.138535,53.051479,4.231367,3.350516,-31.153385,-6.791821,-7.952159,0.958163,-0.271368,-0.038335,-0.082544
711,0.984121,-4.809922,7.951373,49.201702,5.992436,4.458415,-29.433321,-6.553678,-7.927511,0.962299,-0.256839,-0.037621,-0.081235
712,0.800259,-4.710204,7.917558,42.453949,7.518524,4.969708,-27.926159,-6.251605,-7.895267,0.965803,-0.244009,-0.036204,-0.079837
713,0.655692,-4.725374,7.924129,35.596092,9.200351,6.234885,-26.682243,-5.871463,-7.850508,0.968648,-0.233316,-0.033942,-0.078310
714,0.462692,-4.553967,8.084713,27.947695,9.988091,7.382621,-25.699631,-5.419627,-7.779602,0.970910,-0.224763,-0.030917,-0.076555
716,0.404148,-4.509100,8.222003,21.744329,9.997670,9.546645,-24.953827,-4.923521,-7.658783,0.972684,-0.218166,-0.027429,-0.074407
717,0.176015,-4.419948,8.568439,19.157442,10.054626,10.555560,-24.353067,-4.394812,-7.486402,0.974172,-0.212767,-0.023640,-0.071839
718,0.155998,-4.180872,8.797195,20.959276,9.362402,12.417465,-23.742844,-3.851466,-7.263674,0.975657,-0.207270,-0.019796,-0.068854
719,0.133957,-3.935716,9.018791,23.063454,7.525683,14.378509,-23.039293,-3.334043,-6.962991,0.977281,-0.200982,-0.016330,-0.065277
720,0.177352,-3.654347,9.196543,26.132215,5.337920,15.941227,-22.221210,-2.874496,-6.578539,0.979055,-0.193738,-0.013518,-0.061109
721,0.298960,-3.368691,9.340518,28.796797,3.101185,15.739901,-21.279587,-2.505023,-6.141268,0.980946,-0.185476,-0.011564,-0.056664
722,0.316510,-3.119168,9.393275,30.457445,0.809393,14.899154,-20.244846,-2.240398,-5.688891,0.982863,-0.176457,-0.010502,-0.052274
723,0.381172,-2.977923,9.495100,30.631878,-0.927047,13.425112,-19.171934,-2.074161,-5.246040,0.984705,-0.167142,-0.010208,-0.048129
724,0.360870,-2.828194,9.509686,31.662327,-2.195083,11.108744,-18.080257,-1.992494,-4.844080,0.986432,-0.157688,-0.010516,-0.044458
725,0.259725,-2.676570,9.483156,32.552357,-3.048033,8.917512,-16.960520,-1.969604,-4.501297,0.988058,-0.148001,-0.011196,-0.041369
726,0.174290,-2.509279,9.423254,32.082733,-3.031130,7.452647,-15.838818,-1.972087,-4.212329,0.989560,-0.138293,-0.011970,-0.038765
727,0.110637,-2.394551,9.444366,30.421307,-2.655569,6.515772,-14.760039,-1.973841,-3.963722,0.990899,-0.128945,-0.012630,-0.036503
728,0.015366,-2.313379,9.463054,28.804043,-2.282984,5.717775,-13.747606,-1.963399,-3.746238,0.992069,-0.120157,-0.013089,-0.034496
729,-0.010604,-2.174031,9.456352,25.685204,-2.291822,5.302799,-12.823446,-1.946570,-3.549878,0.993066,-0.112125,-0.013413,-0.032671
730,0.070980,-2.110325,9.506849,21.412703,-2.245756,4.794732,-12.030827,-1.939761,-3.368925,0.993869,-0.105231,-0.013746,-0.031002
731,0.123670,-2.072654,9.558208,18.576017,-2.082259,3.467226,-11.368177,-1.948146,-3.218940,0.994500,-0.099465,-0.014128,-0.029628
732,0.177951,-2.013936,9.534835,16.038338,-1.517493,1.610213,-10.804072,-1.964321,-3.123659,0.994999,-0.094560,-0.014493,-0.028744
733,0.188751,-1.909527,9.625285,11.637385,-1.150917,-0.510750,-10.371569,-1.950350,-3.096188,0.995358,-0.090797,-0.014502,-0.028439
734,0.271335,-1.820333,9.723941,7.604148,-0.962823,-3.620501,-10.081238,-1.935234,-3.156202,0.995572,-0.088279,-0.014396,-0.028912
735,0.286817,-1.746187,9.716336,2.978983,-0.669699,-6.846277,-9.912067,-1.970044,-3.322771,0.995652,-0.086839,-0.014615,-0.030364
736,0.347003,-1.734070,9.686432,-3.889235,-0.129503,-9.966791,-9.921984,-2.028743,-3.596491,0.995559,-0.086975,-0.014915,-0.032788
737,0.312187,-1.705740,9.857931,-10.884089,-0.185946,-12.614266,-10.156552,-2.097263,-3.966318,0.995255,-0.089080,-0.015156,-0.036083
738,0.345286,-1.736274,9.793773,-14.761449,-0.706258,-14.288203,-10.564968,-2.188280,-4.405097,0.994768,-0.092712,-0.015462,-0.040019
739,0.375223,-1.787421,9.719483,-18.037588,-1.211329,-14.021166,-11.090531,-2.306842,-4.862984,0.994140,-0.097376,-0.015919,-0.044161
740,0.512976,-1.853180,9.809982,-18.084848,-1.444847,-12.658525,-11.668083,-2.445852,-5.290736,0.993434,-0.102496,-0.016519,-0.048072
741,0.460743,-1.912038,9.824234,-14.695681,-1.074113,-10.513091,-12.185096,-2.577099,-5.660695,0.992770,-0.107083,-0.017094,-0.051471
742,0.525121,-1.858700,9.633679,-10.824248,-1.028389,-7.586385,-12.573253,-2.684446,-5.949119,0.992242,-0.110533,-0.017571,-0.054128
743,0.524860,-2.033403,9.699997,-7.634900,-0.955212,-4.343816,-12.847023,-2.770871,-6.137113,0.991862,-0.112970,-0.018005,-0.055880
744,0.465289,-1.963678,9.748882,2.281111,-0.587456,-0.756391,-12.850386,-2.814651,-6.218295,0.991808,-0.113031,-0.018302,-0.056626
745,0.405142,-1.880230,9.628661,16.790245,-0.190642,4.968865,-12.440584,-2.801673,-6.151502,0.992242,-0.109467,-0.018456,-0.055969
746,0.448513,-1.779465,9.708141,31.047285,-0.938290,11.061883,-11.608006,-2.756198,-5.888265,0.993148,-0.102192,-0.018703,-0.053513
747,0.440225,-1.805039,9.786257,42.630848,-0.976401,15.035387,-10.360664,-2.699259,-5.456586,0.994409,-0.091280,-0.019134,-0.049516
748,0.400244,-1.486340,9.751770,50.677292,-0.103521,16.398037,-8.794294,-2.622334,-4.938105,0.995795,-0.077561,-0.019492,-0.044694
749,0.366664,-1.491477,9.758041,48.409920,0.925025,15.505376,-7.144306,-2.524351,-4.413903,0.997022,-0.063091,-0.019569,-0.039796
750,0.258674,-1.326507,9.795704,37.784863,1.053329,10.814699,-5.732491,-2.423409,-3.980890,0.997886,-0.050697,-0.019371,-0.035738
751,0.216078,-1.150790,9.809585,25.482723,1.099288,6.301038,-4.708924,-2.334456,-3.698586,0.998401,-0.041708,-0.019017,-0.033073
752,0.195326,-0.953924,9.825860,15.687658,0.966728,3.407907,-4.051600,-2.258239,-3.538458,0.998683,-0.035934,-0.018593,-0.031545
753,0.208590,-0.886841,9.829680,8.622187,0.600953,1.656195,-3.715293,-2.159139,-3.453027,0.998825,-0.032963,-0.017846,-0.030718
754,0.232552,-0.752528,9.849082,5.299827,-0.019684,1.048922,-3.548278,-2.084132,-3.405848,0.998897,-0.031481,-0.017250,-0.030261
755,0.260421,-0.717004,9.843360,3.929438,-0.317125,1.779852,-3.412089,-2.069596,-3.357741,0.998949,-0.030283,-0.017172,-0.029817
756,0.251166,-0.776693,9.888038,2.908184,-0.210057,1.445705,-3.361775,-2.037093,-3.301256,0.998982,-0.029828,-0.016916,-0.029309
757,0.224768,-0.768166,9.881272,3.725631,-0.009895,1.070359,-3.320208,-1.998146,-3.256695,0.999010,-0.029449,-0.016599,-0.028905
