seq,ax,ay,az,wroll,wpitch,wyaw,roll,pitch,yaw,q0,q1,q2,q3
30,0.165687,-2.165070,9.605264,-1.948785,-9.466918,46.712170,-12.702444,-0.964049,0.217290,0.993827,-0.110603,-0.008571,0.000954
31,-0.635393,-3.012054,9.506017,-3.078135,-32.940578,82.680313,-12.888085,-1.118164,2.477817,0.993426,-0.111992,-0.012120,0.020389
32,-0.429884,-3.139882,9.605843,-5.127453,-31.863277,75.955551,-13.215700,-1.470887,5.298225,0.992282,-0.114351,-0.018055,0.044433
33,-0.253649,-3.117895,9.368948,-7.535363,-31.889219,70.257751,-13.632849,-1.856850,7.917043,0.990565,-0.117279,-0.024243,0.066619
34,0.165700,-3.203171,9.375912,-10.907658,-30.476210,66.214050,-14.159206,-2.270993,10.378136,0.988336,-0.120940,-0.030730,0.087303
35,0.370366,-3.252429,9.226341,-14.171614,-27.985899,59.167324,-14.806256,-2.678554,12.650647,0.985690,-0.125477,-0.037229,0.106232
36,0.532655,-3.155773,9.173268,-14.621760,-25.761101,52.634842,-15.505863,-3.059707,14.690198,0.982838,-0.130365,-0.043477,0.123059
37,0.753777,-3.268776,8.948831,-13.425436,-24.161932,47.648117,-16.186375,-3.427664,16.533207,0.979921,-0.135001,-0.049535,0.138117
38,0.982347,-3.476987,9.006846,-14.482902,-21.221474,42.147156,-16.873585,-3.775079,18.193064,0.976972,-0.139643,-0.055355,0.151531
39,0.919749,-3.408629,9.136055,-14.635493,-19.730642,36.118225,-17.564436,-4.090495,19.651440,0.974089,-0.144325,-0.060791,0.163175
40,1.080317,-3.376638,9.381465,-13.730621,-20.620258,35.623825,-18.209696,-4.409413,21.004761,0.971250,-0.148552,-0.066171,0.173861
41,1.306899,-3.495620,9.422968,-13.715361,-22.150761,37.052090,-18.831997,-4.764383,22.388468,0.968241,-0.152390,-0.071958,0.184684
42,1.280228,-3.426342,9.383039,-13.539880,-22.935085,37.255039,-19.450989,-5.137411,23.813906,0.965015,-0.156013,-0.078042,0.195745
43,1.239506,-3.401120,9.457555,-12.920354,-23.177710,38.156860,-20.045567,-5.491503,25.264704,0.961622,-0.159315,-0.084049,0.206974
44,1.393782,-3.431264,9.214960,-10.797791,-22.642111,38.748920,-20.594830,-5.818486,26.740082,0.958091,-0.162142,-0.089866,0.218395
45,1.446503,-3.560359,9.030766,-9.082652,-19.045504,36.510387,-21.090292,-6.087102,28.169107,0.954576,-0.164555,-0.095102,0.229481
46,1.377841,-3.659639,8.983719,-5.394489,-12.969268,32.376656,-21.492506,-6.225557,29.442841,0.951382,-0.166516,-0.098911,0.239502
47,1.349298,-3.758543,8.947642,-1.819246,-7.189062,28.940271,-21.758812,-6.207549,30.526390,0.948688,-0.167820,-0.100910,0.248284
48,1.299020,-3.821605,8.903738,0.764144,-2.441909,26.103575,-21.908375,-6.054579,31.446779,0.946443,-0.168607,-0.101333,0.256025
49,0.987981,-4.009977,8.979752,2.250396,2.434949,24.479990,-21.983984,-5.753717,32.237831,0.944531,-0.169267,-0.100202,0.263001
50,0.642788,-4.072449,8.791917,1.667492,6.316902,23.843679,-22.048063,-5.288339,32.939434,0.942773,-0.170342,-0.097579,0.269521
51,0.269411,-4.066504,8.561838,-3.670195,8.376902,27.194613,-22.219736,-4.670958,33.645016,0.940760,-0.172719,-0.093996,0.276232
52,0.213205,-4.407006,8.536307,-13.550562,9.506087,35.779469,-22.676458,-3.906606,34.511902,0.937795,-0.177728,-0.090201,0.284283
53,0.063531,-4.856282,8.421487,-21.763090,11.544724,45.533184,-23.486279,-2.966110,35.632816,0.933415,-0.185946,-0.086375,0.294449
54,0.272008,-4.890610,8.147713,-29.449179,14.802575,52.186218,-24.578915,-1.841520,36.951679,0.927688,-0.196878,-0.082337,0.306359
55,-0.362863,-4.787449,8.429135,-35.067638,18.089417,55.991875,-25.838373,-0.511576,38.354610,0.920916,-0.209738,-0.077552,0.319231
56,-0.390615,-4.892136,8.649756,-36.407398,19.442913,59.055931,-27.130859,0.987235,39.791759,0.913359,-0.223397,-0.071944,0.332706
57,-0.588037,-4.726656,8.806780,-31.321491,20.448498,53.159760,-28.277428,2.508743,41.137276,0.905794,-0.236102,-0.065924,0.345611
58,-0.938104,-4.401998,8.943431,-23.269180,19.139254,40.824177,-29.115198,3.904483,42.196072,0.899407,-0.246237,-0.059663,0.356195
59,-1.465532,-4.414191,9.295637,-12.837953,15.249670,31.039944,-29.584538,5.079133,42.965267,0.894662,-0.253034,-0.053545,0.364261
60,-1.045223,-4.765252,9.219971,-2.197676,8.740072,24.728716,-29.701790,5.946870,43.583939,0.891377,-0.256282,-0.048465,0.370699
61,-1.281408,-4.759032,9.139272,8.529579,3.403912,15.707445,-29.488119,6.478029,44.078648,0.889577,-0.256031,-0.044699,0.375636
62,-1.610258,-4.624605,8.818722,16.789413,-1.137243,9.739552,-28.975403,6.765818,44.438820,0.889161,-0.252796,-0.041549,0.379158
63,-1.427139,-4.666428,8.642472,19.635265,-3.943419,7.041716,-28.303955,6.877835,44.731316,0.889513,-0.247828,-0.039078,0.381866
64,-1.705788,-4.617430,8.452452,19.432316,-6.493241,2.283880,-27.623158,6.855287,44.952911,0.890257,-0.242397,-0.037455,0.383775
65,-1.770035,-4.430014,8.417109,19.117975,-7.251624,-2.980563,-26.975243,6.731865,45.048733,0.891446,-0.236943,-0.036455,0.384518
66,-1.590431,-4.364494,8.374545,16.743635,-7.361491,-8.772975,-26.393641,6.507476,44.982712,0.893131,-0.231731,-0.036137,0.383813
67,-1.258362,-4.460313,8.512382,13.345400,-7.601061,-15.511461,-25.942806,6.152217,44.726040,0.895312,-0.227180,-0.036920,0.381370
68,-1.823850,-4.247872,8.668522,12.550393,-8.811120,-23.324200,-25.577089,5.693013,44.258083,0.898103,-0.223038,-0.038418,0.377079
69,-1.511777,-4.178161,8.714993,13.296571,-9.867061,-27.299232,-25.208532,5.146532,43.627052,0.901470,-0.218668,-0.040327,0.371362
70,-1.390868,-4.194742,8.743374,11.697400,-12.032350,-30.290051,-24.857861,4.487291,42.909424,0.905116,-0.214145,-0.043081,0.364762
71,-1.323422,-4.228811,8.746605,9.162838,-14.429578,-32.162354,-24.581711,3.729851,42.145714,0.908763,-0.209966,-0.046829,0.357592
72,-1.370369,-4.142342,8.690602,5.871417,-16.335461,-32.205086,-24.398251,2.913874,41.379730,0.912188,-0.206398,-0.051385,0.350246
73,-0.610715,-4.338242,8.707734,1.032707,-16.700157,-28.587116,-24.350477,2.057217,40.681847,0.915087,-0.203819,-0.056845,0.343282
74,-0.296016,-4.451510,8.742870,-3.368061,-15.937192,-26.185308,-24.465174,1.188869,40.073029,0.917342,-0.202520,-0.063065,0.336887
75,-0.194918,-4.380083,8.795872,-4.782594,-12.903653,-24.213816,-24.666695,0.397585,39.507545,0.919177,-0.202174,-0.069001,0.330874
76,0.039557,-4.311070,8.888535,-4.381275,-9.178868,-22.098881,-24.860313,-0.268420,38.960350,0.920824,-0.202164,-0.073938,0.325187
77,0.208029,-4.211891,9.032829,-1.636136,-5.863034,-20.179266,-24.972521,-0.812009,38.426872,0.922446,-0.201881,-0.077682,0.319850
78,0.261767,-4.070798,8.956716,1.821611,-3.152990,-17.968201,-24.955486,-1.236913,37.913677,0.924129,-0.200906,-0.080152,0.314959
79,0.349840,-4.045123,8.993079,2.613566,-0.917509,-16.376661,-24.853851,-1.558174,37.422489,0.925810,-0.199542,-0.081605,0.310483
80,0.579737,-4.012833,9.021878,2.865344,0.062135,-15.334454,-24.728489,-1.825147,36.947872,0.927432,-0.198136,-0.082598,0.306250
81,0.648297,-3.962752,8.989144,3.352114,0.695394,-13.517077,-24.587233,-2.061166,36.504566,0.928959,-0.196672,-0.083366,0.302333
82,0.642561,-4.007489,8.947571,-0.119366,0.564164,-12.191048,-24.500856,-2.265504,36.105129,0.930241,-0.195714,-0.084109,0.298786
83,0.541446,-4.162699,9.082387,-3.180372,0.094179,-11.583730,-24.536592,-2.451624,35.739635,0.931203,-0.195778,-0.085084,0.295453
84,0.539913,-4.110560,8.951371,-0.986092,1.263038,-10.305005,-24.594118,-2.601838,35.398308,0.932039,-0.196103,-0.085866,0.292361
85,0.342436,-4.167054,8.951535,0.738204,2.778283,-8.719567,-24.589926,-2.673373,35.081905,0.932876,-0.196118,-0.085894,0.289658
86,0.093898,-4.194117,8.972997,1.644604,4.378979,-7.500353,-24.546953,-2.642936,34.786621,0.933682,-0.196068,-0.085033,0.287341
87,-0.115603,-4.232498,9.000255,4.580484,6.660237,-5.505969,-24.444767,-2.497415,34.513508,0.934486,-0.195810,-0.083128,0.285455
88,-0.185335,-4.035904,8.825609,8.102320,9.214636,-3.670280,-24.232838,-2.233121,34.265594,0.935364,-0.194934,-0.080029,0.284062
89,-0.229290,-4.009184,8.906932,6.217802,10.192754,-2.386977,-23.987816,-1.889493,34.041634,0.936200,-0.193957,-0.076243,0.283014
90,-0.075569,-4.046575,8.813526,4.704084,8.895717,-1.514148,-23.834019,-1.463581,33.854614,0.936748,-0.193894,-0.072073,0.282337
91,0.090194,-4.025157,8.776598,5.256469,6.136844,-1.193704,-23.738794,-1.089400,33.714676,0.937092,-0.194137,-0.068546,0.281905
92,0.054763,-4.071217,8.878972,8.122158,3.426801,1.334755,-23.599598,-0.857655,33.654938,0.937371,-0.193610,-0.066210,0.281900
93,-0.025076,-4.020708,8.998993,10.969534,0.678609,4.977139,-23.350830,-0.664383,33.725727,0.937526,-0.192015,-0.064136,0.282952
94,0.050940,-3.687120,9.131665,13.807756,-3.088901,6.353524,-22.946714,-0.572264,33.915802,0.937684,-0.188834,-0.062697,0.284887
95,-0.212021,-3.412378,9.569100,14.943045,-4.924589,10.880944,-22.412258,-0.558054,34.232086,0.937757,-0.184324,-0.061760,0.287789
96,-0.218223,-3.273681,9.700373,14.073266,-5.499863,15.899714,-21.844624,-0.506428,34.710510,0.937424,-0.179555,-0.060662,0.292090
97,0.123847,-3.138281,9.721447,9.597727,-4.814723,18.252689,-21.358597,-0.436632,35.302376,0.936623,-0.175450,-0.059758,0.297294
98,0.344223,-3.162679,9.606084,3.114070,-3.912901,16.798485,-21.062498,-0.381906,35.898773,0.935487,-0.172865,-0.059443,0.302404
99,0.093001,-3.491293,9.481910,-3.015572,-1.141820,15.870719,-21.014261,-0.285532,36.436710,0.934084,-0.172450,-0.059339,0.306964
100,0.192877,-3.531925,8.881305,-8.069438,1.614001,11.283788,-21.198179,-0.127622,36.856007,0.932599,-0.174158,-0.059183,0.310525
101,-0.044998,-3.683630,8.738403,-14.176190,4.200445,6.683124,-21.598137,0.066225,37.099525,0.931223,-0.177812,-0.059068,0.312597
102,-0.190856,-3.839005,8.500054,-15.436604,4.977140,2.253362,-22.145893,0.282745,37.180599,0.930023,-0.182809,-0.058933,0.313312
103,-0.280358,-3.919786,8.526937,-14.707211,5.285378,-0.507037,-22.714041,0.483812,37.141697,0.929096,-0.187985,-0.058791,0.313026
104,-0.270056,-4.050486,8.616240,-12.909672,3.596178,-1.999392,-23.237749,0.636013,37.044704,0.928401,-0.192692,-0.058824,0.312220
105,-0.126724,-4.345423,8.975371,-9.433615,2.544816,-3.168251,-23.674736,0.711079,36.924065,0.927941,-0.196496,-0.059199,0.311143
106,-0.005701,-4.398460,9.117595,-4.527764,1.652149,-4.685020,-23.967659,0.714931,36.775345,0.927836,-0.198956,-0.059705,0.309793
107,-0.021476,-4.372408,9.429349,-2.373157,1.314920,-6.212472,-24.122248,0.670228,36.588875,0.928097,-0.200186,-0.060159,0.308126
108,-0.110286,-4.309592,9.603887,-1.935217,2.064149,-6.873198,-24.208487,0.624054,36.366680,0.928571,-0.200878,-0.060376,0.306201
110,0.021304,-4.095391,9.399233,-3.323809,1.621631,-6.963228,-24.290874,0.575211,36.131287,0.929083,-0.201541,-0.060578,0.304165
111,-0.028198,-3.851947,8.991795,-3.635097,-1.645375,-6.477983,-24.386616,0.468097,35.927574,0.929518,-0.202144,-0.061342,0.302276
112,-0.096411,-3.736925,8.594800,-1.381307,-5.228249,-5.080235,-24.446144,0.280535,35.799740,0.929861,-0.202205,-0.062796,0.300879
113,-0.202182,-3.713495,8.403517,-0.058329,-7.860469,-2.412918,-24.451487,0.044040,35.776428,0.930050,-0.201642,-0.064688,0.300272
114,0.126895,-3.953850,8.703471,1.266174,-11.637135,-0.732874,-24.423645,-0.271303,35.863148,0.930048,-0.200539,-0.067326,0.300437
115,0.144630,-4.027469,8.982807,6.168973,-12.354320,1.894769,-24.297464,-0.644754,36.045673,0.929988,-0.198419,-0.070342,0.301336
116,0.284465,-4.000784,9.275814,8.331209,-9.943358,3.699939,-24.043541,-0.964892,36.282570,0.929963,-0.195359,-0.072675,0.302855
117,0.444221,-3.887050,9.411482,5.348025,-6.851833,3.144502,-23.787533,-1.205832,36.499649,0.929939,-0.192496,-0.074317,0.304361
118,0.624275,-3.863287,9.455664,0.597819,-4.910856,0.086548,-23.651823,-1.411451,36.626953,0.929924,-0.190756,-0.075835,0.305127
119,0.460918,-3.911387,9.143362,-1.887914,-2.542620,-3.644340,-23.647606,-1.593188,36.621914,0.930027,-0.190234,-0.077288,0.304774
120,0.375137,-3.950167,8.752192,-4.263779,-1.259317,-7.280619,-23.747980,-1.747972,36.480721,0.930304,-0.190726,-0.078573,0.303290
121,0.260389,-4.279160,8.718221,-7.591823,-1.269998,-9.421493,-23.976021,-1.904553,36.244278,0.930614,-0.192320,-0.080048,0.300937
122,0.418813,-4.737317,8.909545,-6.432120,-1.428694,-10.694115,-24.279938,-2.086009,35.959160,0.930923,-0.194505,-0.081831,0.298084
123,0.341079,-4.719470,8.793134,-0.377247,-1.436324,-10.056278,-24.481686,-2.276638,35.667145,0.931414,-0.195848,-0.083401,0.295222
124,0.268660,-4.487820,8.629445,2.935537,-1.291361,-8.029848,-24.515253,-2.432686,35.414677,0.932066,-0.195894,-0.084321,0.292861
125,0.377752,-4.461694,8.892854,3.336855,-1.123509,-7.478990,-24.465233,-2.564545,35.198505,0.932753,-0.195301,-0.084894,0.290899
126,0.303332,-4.223091,8.984095,5.631847,-0.908354,-5.930176,-24.342585,-2.674319,35.010315,0.933479,-0.194155,-0.085155,0.289258
127,0.168458,-3.916669,9.069502,6.365818,-0.902250,-4.289805,-24.095543,-2.676641,34.865490,0.934261,-0.192243,-0.084307,0.288256
128,0.260263,-3.883759,9.182797,6.268158,-0.297984,-3.302533,-23.772242,-2.602297,34.753479,0.935055,-0.189880,-0.082703,0.287711
129,0.421818,-3.818427,9.247635,8.100795,-0.095036,-2.187081,-23.403757,-2.576460,34.666965,0.935869,-0.187001,-0.081426,0.287314
130,0.504530,-3.769576,9.318069,10.543800,0.091127,-1.930725,-23.006136,-2.597843,34.600189,0.936687,-0.183744,-0.080496,0.287012
131,0.611597,-3.807255,9.363119,12.109401,0.461927,-3.056858,-22.596725,-2.636080,34.518578,0.937554,-0.180354,-0.079653,0.286566
132,0.593898,-3.737279,9.298286,14.682111,0.843409,-3.380354,-22.125492,-2.677055,34.409908,0.938572,-0.176466,-0.078642,0.285933
133,0.574368,-3.557977,9.211114,15.545785,0.132327,-3.047703,-21.595432,-2.719440,34.303154,0.939657,-0.172086,-0.077504,0.285350
134,0.482462,-3.555344,9.274030,15.789933,-0.449050,-1.775081,-21.049366,-2.762468,34.229053,0.940663,-0.167546,-0.076388,0.285040
135,0.347966,-3.513742,9.283181,17.503548,-1.323405,1.791007,-20.483282,-2.781271,34.239246,0.941458,-0.162842,-0.075147,0.285468
136,0.360520,-3.402991,9.191207,19.874836,-2.267953,6.010190,-19.861197,-2.774602,34.381950,0.941970,-0.157654,-0.073738,0.287055
137,0.462305,-3.334543,9.198317,21.516733,-3.384930,9.622056,-19.183506,-2.766862,34.659370,0.942185,-0.151926,-0.072344,0.289779
138,0.533207,-3.305832,9.165434,23.576729,-3.754204,12.719683,-18.459806,-2.762901,35.051079,0.942127,-0.145741,-0.070978,0.293458
139,0.607887,-3.287829,9.138910,24.124537,-3.447494,13.627609,-17.711416,-2.755383,35.507282,0.941880,-0.139329,-0.069554,0.297678
140,0.642028,-3.294627,9.104720,23.706434,-2.702842,11.793447,-16.978981,-2.750136,35.944546,0.941606,-0.133061,-0.068115,0.301718
141,0.603471,-3.168059,9.102401,21.756302,-1.947509,9.260411,-16.293352,-2.747478,36.305672,0.941428,-0.127222,-0.066688,0.305092
142,0.538880,-3.014350,9.074239,17.048820,-1.012117,7.324011,-15.713609,-2.735231,36.587624,0.941303,-0.122331,-0.065344,0.307757
143,0.470008,-3.063234,9.298684,11.996481,0.146061,5.216709,-15.391203,-2.699924,36.800220,0.941064,-0.119659,-0.064410,0.309728
144,0.422444,-2.955886,9.538696,11.685193,0.669453,4.406443,-15.220765,-2.631390,36.961765,0.940791,-0.118359,-0.063555,0.311229
145,0.379627,-2.690828,9.632016,12.101770,1.284401,3.695362,-14.940487,-2.528193,37.089111,0.940713,-0.116274,-0.062077,0.312547
146,0.393750,-2.536575,9.785673,12.120081,1.758964,2.918665,-14.555117,-2.424562,37.183773,0.940822,-0.113347,-0.060270,0.313646
147,0.320188,-2.446026,10.007419,13.682629,1.978698,2.000058,-14.112379,-2.332175,37.247280,0.941063,-0.109936,-0.058361,0.314497
148,0.234932,-2.158250,10.086660,16.446081,2.526505,0.867822,-13.575677,-2.226991,37.274437,0.941476,-0.105807,-0.056049,0.315099
149,0.167246,-1.822272,10.018734,14.987295,4.217230,-1.250163,-12.984313,-2.090251,37.240036,0.942082,-0.101345,-0.053270,0.315236
150,0.116942,-1.746144,10.092717,9.359683,6.849451,-2.544147,-12.494530,-1.890438,37.134838,0.942764,-0.097920,-0.050191,0.314785
151,-0.271693,-1.844703,10.345578,2.105434,12.988250,-7.398117,-12.227070,-1.543036,36.899803,0.943574,-0.096779,-0.046402,0.313287
152,-0.408926,-1.566442,10.285923,-0.142254,19.424601,-14.205271,-12.109621,-1.001658,36.431644,0.944839,-0.097473,-0.041228,0.309966
153,-0.313696,-0.950461,9.628633,11.294558,18.193180,-16.430067,-11.790635,-0.411143,35.799923,0.946669,-0.096642,-0.034965,0.305378
154,-0.478836,-1.055856,9.637450,-5.951452,16.946497,-15.946349,-11.550108,0.129890,35.152138,0.948443,-0.096266,-0.029310,0.300548
155,-0.455599,-1.553106,10.036569,-27.863739,14.266973,-11.394514,-12.013864,0.616162,34.598637,0.949341,-0.101504,-0.026013,0.296264
156,-0.016890,-2.148771,10.083274,-28.173506,7.359110,-4.498857,-12.918241,0.933691,34.260918,0.949269,-0.109885,-0.025397,0.293545
157,-0.064150,-2.376001,9.699508,-5.484520,0.817468,3.249791,-13.490847,1.047394,34.208988,0.948799,-0.114928,-0.025869,0.293093
158,-0.094862,-2.495202,9.138411,-14.653805,1.424786,10.385018,-13.855360,1.124142,34.420521,0.947856,-0.118092,-0.026384,0.294835
159,0.157330,-2.494854,9.148288,-18.209209,-1.503465,17.274572,-14.433723,1.203647,34.867390,0.946058,-0.122970,-0.027694,0.298471
160,0.077744,-2.011560,7.808020,11.981223,-5.771478,19.737415,-14.542158,1.192496,35.494934,0.944298,-0.123681,-0.028746,0.303609
161,-0.025875,-1.268172,7.140438,15.446600,-9.569506,23.655991,-14.014308,1.087370,36.259972,0.942852,-0.118862,-0.029009,0.309936
162,0.050941,-1.397586,7.468575,-11.452414,-13.800896,26.523205,-13.833780,0.879680,37.167343,0.940638,-0.116575,-0.031155,0.317237
163,0.187745,-2.351513,9.074758,-25.660303,-17.820185,23.993221,-14.406838,0.532181,38.113693,0.937535,-0.120023,-0.036586,0.324476
164,0.266169,-3.249552,9.933600,-13.979344,-16.897001,15.707447,-15.118483,0.092372,38.901085,0.934699,-0.124310,-0.043052,0.330199
165,0.316503,-3.700772,10.857771,-23.060127,-13.707816,10.359077,-15.829766,-0.329160,39.455547,0.932470,-0.128659,-0.049159,0.333962
166,0.210088,-3.910268,11.202653,-28.483265,-9.864009,4.966456,-16.780788,-0.663271,39.812012,0.930461,-0.135247,-0.055065,0.336034
167,0.286056,-4.231066,11.305760,-28.779297,-4.910856,-1.179970,-17.826260,-0.896257,39.946899,0.928887,-0.142974,-0.060184,0.336311
168,0.053747,-4.204755,10.937447,-24.773743,-0.391065,-6.418473,-18.803961,-1.020132,39.855976,0.927952,-0.150579,-0.063934,0.334880
169,-0.217134,-3.768710,10.044015,-23.058601,0.933438,-5.122962,-19.659914,-1.039316,39.672199,0.927344,-0.157556,-0.066336,0.332879
170,-0.218229,-3.924599,9.971575,-25.965490,1.679616,-4.541584,-20.518826,-0.998954,39.506111,0.926600,-0.164720,-0.068265,0.331089
171,-0.103592,-4.134155,9.761577,-23.437031,2.100771,-4.846768,-21.392488,-0.949096,39.337658,0.925778,-0.172028,-0.070132,0.329276
172,-0.060972,-4.083004,9.398314,-23.440083,1.124179,-2.060429,-22.228193,-0.906321,39.211205,0.924840,-0.178978,-0.071989,0.327804
173,-0.046846,-4.200659,8.903580,-22.152201,0.066713,1.563644,-23.051754,-0.860525,39.196499,0.923548,-0.185762,-0.073951,0.327236
174,0.092536,-4.285640,8.513469,-17.975744,-0.413954,4.313361,-23.805550,-0.808603,39.289658,0.922012,-0.191921,-0.075840,0.327581
175,0.272585,-3.999460,8.097684,-11.324236,-1.311198,5.872857,-24.372971,-0.773449,39.457512,0.920550,-0.196472,-0.077467,0.328612
176,0.449918,-3.841467,7.918936,-6.242904,-2.443435,7.391152,-24.718599,-0.777112,39.685509,0.919300,-0.199080,-0.078884,0.330200
177,0.651012,-3.978754,7.975685,-3.760223,-2.338146,6.008664,-24.929802,-0.825211,39.922497,0.918275,-0.200469,-0.080292,0.331868
178,0.732442,-3.913288,8.248622,-2.290758,-0.973968,2.825584,-25.061028,-0.902517,40.079899,0.917634,-0.201183,-0.081567,0.332897
179,0.623277,-3.789367,8.564840,-2.226668,1.202001,-1.883422,-25.127260,-0.975694,40.092487,0.917524,-0.201489,-0.082367,0.332819
180,0.430903,-4.040887,8.927058,-3.656461,5.169407,-6.624472,-25.197802,-0.995422,39.918652,0.917915,-0.202121,-0.082423,0.331340
181,0.186910,-4.254572,9.264995,-1.608668,10.116457,-9.839598,-25.263369,-0.901883,39.561550,0.918773,-0.203174,-0.081232,0.328601
182,-0.224952,-4.181302,9.505104,2.154263,14.033508,-8.570026,-25.222664,-0.642507,39.111977,0.919976,-0.203907,-0.078238,0.325493
183,-0.547175,-4.265837,9.598749,5.346499,17.816277,-4.161629,-25.060108,-0.179932,38.694077,0.921168,-0.204192,-0.073320,0.323077
184,-0.413478,-4.296047,9.319270,9.472601,20.985624,0.590103,-24.794567,0.457885,38.367695,0.922157,-0.204048,-0.066860,0.321746
185,-0.214382,-4.012730,9.009759,10.069238,21.113802,3.155184,-24.458717,1.162756,38.132458,0.922944,-0.203434,-0.059819,0.321263
186,-0.062392,-4.059042,8.707272,5.206114,19.687061,4.406443,-24.205416,1.834289,37.967110,0.923384,-0.203327,-0.053395,0.321199
187,0.268418,-4.108595,8.350557,0.834338,17.579758,2.744710,-24.141787,2.396264,37.820145,0.923492,-0.204419,-0.048414,0.320986
188,0.548304,-4.076186,8.054906,-3.007943,12.156619,-0.969393,-24.244469,2.743620,37.641510,0.923539,-0.206264,-0.045573,0.320083
189,0.318595,-4.134439,8.294771,-9.519065,3.997497,-5.002413,-24.524734,2.815637,37.437000,0.923545,-0.208799,-0.045401,0.318445
190,0.044454,-4.375892,8.571011,-10.930548,-3.194190,-7.187538,-24.934145,2.645443,37.244194,0.923462,-0.211719,-0.047558,0.316435
191,-0.054849,-4.422302,8.766097,-5.811067,-10.898586,-8.489152,-25.273415,2.254345,37.104836,0.923520,-0.213467,-0.051395,0.314485
192,-0.472924,-4.484819,8.723229,-0.644284,-20.412733,-5.545642,-25.427589,1.659901,37.114754,0.923650,-0.213113,-0.056639,0.313441
193,-0.678951,-4.290217,8.823512,0.754990,-26.356211,-1.219644,-25.450602,0.942574,37.346371,0.923479,-0.211243,-0.062923,0.314011
194,-0.602031,-4.238530,8.595110,0.904530,-27.894344,3.515302,-25.434637,0.204374,37.768879,0.922833,-0.208854,-0.069605,0.316091
195,-0.579748,-4.330580,8.466791,-1.488121,-28.162907,9.425212,-25.476063,-0.472298,38.364891,0.921523,-0.206929,-0.076246,0.319629
196,-0.554431,-4.229035,8.354465,-4.898564,-25.962524,15.452616,-25.629797,-1.017905,39.128162,0.919421,-0.206088,-0.082431,0.324651
197,-0.124520,-4.140607,8.544138,-8.751526,-19.820671,17.285254,-25.894123,-1.397476,39.951412,0.916810,-0.206495,-0.087705,0.330344
198,0.211752,-4.473543,8.629824,-7.993141,-13.964171,17.326452,-26.214794,-1.625772,40.717690,0.914134,-0.207782,-0.091842,0.335784
199,0.448217,-4.589408,8.775373,-4.329394,-8.893520,15.071135,-26.475407,-1.737681,41.371937,0.911794,-0.208990,-0.094690,0.340571
200,0.564506,-4.495426,8.816547,-1.109692,-2.956146,10.298039,-26.604364,-1.756700,41.839451,0.910173,-0.209568,-0.096080,0.344144
201,0.587916,-4.527355,8.948635,-1.175306,3.597704,4.395761,-26.658428,-1.676503,42.054035,0.909380,-0.210063,-0.096001,0.345957
202,0.379031,-4.570175,9.090150,-0.636655,8.968962,-1.714044,-26.690342,-1.494949,42.000072,0.909373,-0.210919,-0.094561,0.345851
203,0.211280,-4.280670,9.024132,1.429448,14.175419,-5.789791,-26.654316,-1.208553,41.714680,0.910119,-0.211740,-0.091657,0.344163
204,0.054899,-4.263958,8.994865,1.446233,18.405283,-8.936250,-26.565607,-0.818261,41.251270,0.911419,-0.212577,-0.087437,0.341292
205,-0.099343,-4.195065,8.982748,1.839922,20.283697,-10.196663,-26.469637,-0.355140,40.677444,0.912992,-0.213619,-0.082402,0.337671
206,-0.162705,-4.173475,8.812243,1.351627,19.810661,-10.057804,-26.382013,0.126821,40.077480,0.914586,-0.214752,-0.077181,0.333851
207,-0.195177,-3.991771,8.602881,1.482856,18.524305,-8.876738,-26.305588,0.588833,39.511143,0.916047,-0.215844,-0.072203,0.330237
208,-0.278198,-3.988350,8.484840,2.026085,15.164218,-8.980500,-26.221479,0.987699,38.996006,0.917395,-0.216620,-0.067795,0.326905
209,-0.384986,-3.995478,8.405196,1.093745,10.002013,-8.113774,-26.154026,1.269509,38.555561,0.918566,-0.217123,-0.064509,0.323933
210,-0.392932,-4.253253,8.513382,1.298219,4.704000,-7.678887,-26.117069,1.404530,38.211296,0.919505,-0.217392,-0.062667,0.321440
211,-0.548681,-4.256529,8.689631,5.325136,-0.920561,-6.688560,-26.017176,1.392634,37.968369,0.920383,-0.216690,-0.062023,0.319522
213,-0.467860,-4.410065,8.765443,9.243712,-6.833521,-3.124000,-25.784756,1.244769,37.877632,0.921180,-0.214466,-0.062396,0.318650
214,-0.247378,-4.475473,8.880096,10.188260,-11.219032,1.275244,-25.479475,0.979268,37.979713,0.921651,-0.211226,-0.063874,0.319160
215,0.143477,-4.360234,8.998506,12.310822,-12.818201,3.612961,-25.117653,0.631760,38.224239,0.921865,-0.207215,-0.066109,0.320712
216,0.528930,-4.073809,8.842875,12.341340,-12.772423,5.076324,-24.704290,0.236726,38.534805,0.921989,-0.202603,-0.068683,0.322755
217,0.878242,-4.026956,8.812953,9.435978,-11.325846,5.526472,-24.334532,-0.169646,38.861614,0.921963,-0.198280,-0.071480,0.324901
218,1.066609,-4.027215,8.844208,5.717299,-8.379283,2.708088,-24.083635,-0.556447,39.120808,0.921883,-0.194993,-0.074322,0.326475
219,1.145816,-4.019853,8.949862,1.885700,-4.657552,-1.331037,-23.965590,-1.126234,39.229660,0.922086,-0.192333,-0.078749,0.326443
220,0.975219,-3.898939,8.965885,-0.189559,-1.492783,-3.549733,-23.918886,-1.785841,39.195923,0.922593,-0.190078,-0.083859,0.325056
221,0.840849,-3.751798,9.107346,-0.659544,1.342387,-3.890014,-23.829977,-2.221204,39.080162,0.923269,-0.188190,-0.086914,0.323427
222,0.532013,-3.670993,9.310505,-0.102581,4.208075,-3.697748,-23.644894,-2.383201,38.919506,0.924094,-0.186353,-0.087432,0.321990
223,0.269372,-3.695619,9.488599,1.380619,7.240089,-3.433762,-23.471119,-2.286113,38.728104,0.924872,-0.185375,-0.085853,0.320746
224,0.012138,-3.685194,9.468483,2.386203,9.730399,-2.600607,-23.343571,-2.028041,38.520950,0.925545,-0.185235,-0.083084,0.319612
225,-0.155646,-3.802373,9.395700,4.661358,10.331614,-0.107245,-23.176598,-1.674644,38.345806,0.926144,-0.185014,-0.079487,0.318919
226,-0.281316,-3.895593,9.355921,4.693403,9.495407,1.775747,-22.994570,-1.282600,38.241245,0.926545,-0.184721,-0.075648,0.318857
227,-0.203574,-3.964839,9.224820,3.611521,7.777213,2.892725,-22.851606,-0.915807,38.200848,0.926708,-0.184623,-0.072223,0.319234
228,-0.219552,-3.822724,9.169611,2.235137,3.770133,5.985776,-22.747244,-0.541432,38.262753,0.926511,-0.184794,-0.069007,0.320415
229,-0.446774,-3.659358,8.983992,1.968100,-1.501939,10.934351,-22.638479,-0.129830,38.508308,0.925775,-0.184930,-0.065772,0.323135
230,-0.566936,-3.713160,9.109790,-0.317737,-4.904752,12.817343,-22.576181,0.125466,38.914932,0.924577,-0.184921,-0.064191,0.326865
231,-0.580680,-3.804932,9.054083,-0.207870,-7.507982,15.142853,-22.580793,0.197020,39.424644,0.923065,-0.184877,-0.064449,0.331087
232,-0.639295,-3.725435,8.862922,0.033226,-9.696157,17.070097,-22.587000,0.224234,40.030441,0.921275,-0.184663,-0.065225,0.336002
233,-0.522076,-3.830246,8.730692,-0.087321,-9.796867,16.586380,-22.601908,0.221213,40.673054,0.919354,-0.184405,-0.066328,0.341149
234,-0.180290,-4.044999,8.876695,0.356722,-8.367077,13.784781,-22.632820,0.183300,41.256550,0.917579,-0.184198,-0.067663,0.345748
235,0.089462,-4.070470,8.857186,1.244811,-6.856411,12.004025,-22.654205,0.116233,41.750729,0.916087,-0.183872,-0.069059,0.349581
236,0.134913,-4.087527,8.941319,1.665966,-4.216560,7.311803,-22.726536,0.016150,42.118675,0.914906,-0.183919,-0.070670,0.352317
237,0.169587,-4.117565,9.063243,1.391300,-0.600117,1.499555,-22.856716,-0.095561,42.285130,0.914253,-0.184510,-0.072230,0.353384
238,0.138069,-4.044301,9.142513,0.489478,2.618060,-2.683007,-22.960938,-0.156588,42.254120,0.914218,-0.185173,-0.072988,0.352972
239,0.114171,-3.949257,9.152342,-0.740418,5.462385,-6.764857,-23.019686,-0.135100,42.056759,0.914716,-0.185833,-0.072678,0.351395
240,0.007857,-3.810385,9.062845,0.063745,7.864192,-10.926056,-23.032457,-0.051103,41.698547,0.915738,-0.186417,-0.071464,0.348662
241,-0.026452,-3.721508,8.949587,-1.266862,9.217688,-13.050144,-23.044170,0.058250,41.219414,0.917102,-0.187137,-0.069844,0.345002
242,0.005740,-3.822531,8.944140,-2.145795,9.429792,-13.393476,-23.097647,0.172879,40.692135,0.918521,-0.188226,-0.068222,0.340933
243,-0.140311,-3.730844,8.974535,-2.103069,8.900296,-12.833463,-23.165211,0.289080,40.170158,0.919882,-0.189418,-0.066630,0.336897
244,-0.319967,-3.701327,8.993500,-0.958625,8.152592,-11.669182,-23.202774,0.417702,39.682930,0.921164,-0.190374,-0.064899,0.333172
245,-0.327066,-3.780622,9.075136,-0.978461,6.828088,-7.921510,-23.221216,0.557056,39.284534,0.922199,-0.191146,-0.063167,0.330186
246,-0.345976,-3.819190,9.205628,0.906056,4.398815,-3.598563,-23.183552,0.743529,39.034737,0.922861,-0.191511,-0.061139,0.328500
247,-0.208709,-3.774452,9.287909,2.758529,1.609423,0.721332,-23.036003,0.910894,38.952560,0.923236,-0.190841,-0.059230,0.328188
248,0.095509,-3.792826,9.273829,3.957907,-1.517198,4.002072,-22.829983,0.892674,39.025848,0.923379,-0.189092,-0.058908,0.328856
249,0.335643,-3.849889,9.295309,4.215788,-5.690604,6.724323,-22.647011,0.743171,39.237545,0.923165,-0.187081,-0.059935,0.330417
250,0.369654,-3.904708,9.318708,2.520485,-9.238380,7.206515,-22.528204,0.532208,39.547390,0.922592,-0.185353,-0.061795,0.332639
251,0.405776,-3.738867,9.285598,0.077478,-11.257179,5.590561,-22.476427,0.227195,39.875183,0.921906,-0.183871,-0.064628,0.334820
252,0.209978,-3.491286,9.073721,-2.615779,-11.983520,4.990872,-22.493179,-0.117167,40.186424,0.921169,-0.182817,-0.067945,0.336764
253,-0.002600,-3.361751,8.869529,-4.337023,-11.069490,3.902887,-22.570854,-0.431844,40.470665,0.920386,-0.182339,-0.071154,0.338495
254,-0.077070,-3.531341,8.734936,-4.936712,-8.731773,2.985806,-22.699003,-0.679302,40.703587,0.919630,-0.182484,-0.073889,0.339883
255,-0.019387,-3.484491,8.634892,-0.838077,-5.725701,0.728962,-22.781227,-0.856318,40.853676,0.919150,-0.182516,-0.075792,0.340744
256,-0.016894,-3.543379,8.678818,2.273285,-2.391553,-0.201852,-22.742098,-0.955723,40.913872,0.919087,-0.181864,-0.076567,0.341090
257,-0.032529,-3.776606,8.891523,5.497566,0.513809,-2.364089,-22.618526,-0.931685,40.886646,0.919351,-0.180963,-0.075964,0.340993
258,-0.045935,-3.805881,8.919546,8.148098,3.364238,-4.157051,-22.427214,-0.796063,40.762383,0.919949,-0.179915,-0.074112,0.340341
259,-0.173514,-3.519022,8.983200,7.986350,5.825555,-4.477496,-22.128742,-0.557466,40.571407,0.920853,-0.178351,-0.071014,0.339377
260,-0.478345,-3.304613,9.022840,4.350070,6.089540,-2.133674,-21.769804,-0.152882,40.394566,0.921710,-0.176773,-0.066426,0.338805
261,-0.787762,-3.097162,8.926606,1.296693,4.034119,1.882562,-21.542543,0.234086,40.328705,0.922035,-0.176125,-0.062539,0.338998
262,-0.641107,-2.843632,8.932652,-2.655454,1.939023,6.695331,-21.483461,0.486527,40.425533,0.921691,-0.176344,-0.060481,0.340193
263,-0.309948,-2.916769,9.240449,-5.472312,0.046876,8.808737,-21.518808,0.674860,40.654419,0.920841,-0.177066,-0.059424,0.342299
264,-0.106617,-2.831017,9.399989,-5.272415,-2.307627,7.310278,-21.585772,0.754747,40.919205,0.919894,-0.177705,-0.059393,0.344512
265,0.201294,-2.737012,9.436687,-5.577601,-3.487168,5.254857,-21.636774,0.717388,41.151077,0.919140,-0.177881,-0.060206,0.346289
266,0.548736,-2.875502,9.470305,-4.187483,-2.676901,0.805258,-21.671371,0.586553,41.284531,0.918764,-0.177694,-0.061568,0.347142
267,0.532907,-3.095541,9.367743,0.295685,-1.733879,-4.230295,-21.635113,0.402665,41.259750,0.919007,-0.176862,-0.062895,0.346684
268,0.242453,-3.126216,9.031525,3.924336,-1.448531,-6.830472,-21.491676,0.216453,41.108288,0.919796,-0.175234,-0.063724,0.345265
269,0.082163,-3.308652,8.875040,4.308869,-1.778131,-4.732325,-21.310068,0.063963,40.948612,0.920640,-0.173407,-0.064160,0.343853
270,0.101804,-3.540544,8.913293,4.997062,-1.210487,-2.588399,-21.159573,-0.069162,40.852856,0.921229,-0.171853,-0.064635,0.342967
271,0.076012,-3.686024,9.018363,3.979269,-0.847317,-0.758815,-21.081131,-0.173741,40.813107,0.921522,-0.170931,-0.065181,0.342535
272,0.075651,-3.675098,9.169562,1.188353,-0.565021,0.831199,-21.086571,-0.227416,40.822872,0.921514,-0.170809,-0.065644,0.342530
273,0.195848,-3.896678,9.412180,-1.834507,-0.113346,1.885614,-21.153030,-0.245824,40.869392,0.921286,-0.171261,-0.066060,0.342838
274,0.311557,-3.861727,9.417572,-2.972847,1.522446,0.002622,-21.265059,-0.242308,40.890411,0.921053,-0.172160,-0.066398,0.342948
275,0.273766,-3.884151,9.561783,-4.391957,2.515823,-2.771511,-21.412336,-0.231193,40.823124,0.921026,-0.173416,-0.066648,0.342338
276,0.279121,-3.887281,9.345826,-3.806001,3.500045,-5.083288,-21.573517,-0.218658,40.664764,0.921247,-0.174842,-0.066787,0.340991
277,0.216120,-4.047283,9.033678,-3.616786,4.122622,-6.099553,-21.743053,-0.199092,40.444939,0.921628,-0.176391,-0.066796,0.339154
278,0.079452,-3.973301,8.917392,-2.609676,3.846430,-7.408798,-21.906370,-0.175737,40.186836,0.922124,-0.177924,-0.066691,0.337019
279,-0.146261,-4.129585,8.988493,-1.773469,3.294045,-5.997316,-22.041725,-0.139504,39.935310,0.922631,-0.179266,-0.066404,0.334973
280,-0.294766,-4.227317,8.897697,-1.655972,2.499038,-4.176888,-22.175228,-0.077934,39.742020,0.922950,-0.180633,-0.065994,0.333436
281,-0.339573,-4.227181,9.143191,-2.307542,1.003631,-1.108251,-22.316248,-0.009009,39.638424,0.922989,-0.182029,-0.065685,0.332630
282,-0.370368,-4.166678,9.226481,-1.987099,-1.190650,2.817955,-22.445597,0.050322,39.665894,0.922669,-0.183227,-0.065627,0.332871
283,-0.349655,-4.274237,9.165772,-2.275498,-2.953094,8.547804,-22.573118,0.109412,39.867191,0.921844,-0.184310,-0.065845,0.334513
284,-0.110155,-4.148787,9.074388,-1.311114,-3.766412,9.791433,-22.689022,0.154271,40.192238,0.920677,-0.185185,-0.066348,0.337131
285,0.001156,-4.216984,9.086929,0.707685,-4.100589,9.850944,-22.750650,0.164253,40.544704,0.919530,-0.185504,-0.067020,0.339942
286,0.051148,-4.214314,8.930333,3.927388,-3.751153,9.631211,-22.825624,0.144270,40.894333,0.918380,-0.185840,-0.067970,0.342669
287,0.202364,-4.163264,9.011646,5.674573,-2.318309,7.575789,-22.889114,0.073884,41.197353,0.917411,-0.185956,-0.069216,0.344945
288,0.235220,-4.049709,9.101510,6.970083,-0.923613,4.388132,-22.831713,-0.035415,41.401741,0.916954,-0.185043,-0.070249,0.346439
289,0.142641,-4.151259,9.112359,7.012809,-0.203376,2.946132,-22.674435,-0.086608,41.521465,0.916875,-0.183556,-0.070375,0.347411
290,0.076328,-4.006294,9.002245,7.290528,0.323068,2.708088,-22.473333,-0.062851,41.607647,0.916920,-0.181966,-0.069712,0.348261
291,-0.024767,-3.979293,9.046259,5.685254,0.695394,2.848473,-22.289446,-0.013788,41.686825,0.916941,-0.180596,-0.068885,0.349084
292,-0.140705,-4.012977,9.124248,4.908558,0.876979,2.518873,-22.146866,0.057169,41.759762,0.916900,-0.179628,-0.067997,0.349864
293,-0.194809,-3.933768,9.098619,5.262573,0.965483,1.998532,-22.010805,0.137565,41.818020,0.916886,-0.178751,-0.067029,0.350535
294,-0.269452,-3.810714,9.091556,5.039788,0.381054,2.935451,-21.863430,0.220304,41.885952,0.916857,-0.177785,-0.066021,0.351292
295,-0.211320,-3.831632,9.019273,4.424840,-0.217109,3.959347,-21.728758,0.296059,41.991646,0.916695,-0.176879,-0.065165,0.352331
296,-0.175053,-3.849468,9.049617,4.264618,-0.786279,3.915095,-21.614071,0.350736,42.119701,0.916444,-0.176057,-0.064572,0.353504
297,-0.145867,-3.811262,9.007158,4.455358,-1.604176,4.240117,-21.550285,0.397927,42.260300,0.916078,-0.175614,-0.064213,0.354735
298,-0.140503,-3.746996,8.961797,3.747329,-2.496842,5.149568,-21.535349,0.438580,42.430183,0.915549,-0.175525,-0.064102,0.356163
299,0.011046,-3.723268,8.978590,2.648663,-2.705894,5.323524,-21.533680,0.418358,42.623623,0.914962,-0.175340,-0.064554,0.357678
300,0.080353,-3.763391,9.128520,2.012352,-2.354931,4.375924,-21.547781,0.329858,42.804276,0.914430,-0.175074,-0.065581,0.358979
301,0.190389,-3.746852,9.095411,2.895863,-1.730828,2.787436,-21.550991,0.194227,42.939789,0.914084,-0.174597,-0.066880,0.359853
302,0.153220,-3.527872,9.174360,1.812455,-0.923613,0.365792,-21.488605,0.046056,43.004669,0.914064,-0.173596,-0.067965,0.360183
303,0.210942,-3.525585,9.295664,0.674115,0.109439,-2.077215,-21.385403,-0.094458,42.982994,0.914371,-0.172344,-0.068729,0.359859
304,0.120409,-3.610973,9.349410,1.601878,0.924283,-4.257761,-21.297935,-0.209620,42.878216,0.914898,-0.171348,-0.069217,0.358902
305,-0.044967,-3.401806,9.254823,2.520485,1.243201,-5.980531,-21.201233,-0.261621,42.705936,0.915611,-0.170516,-0.069073,0.357506
306,-0.166174,-3.340986,9.279956,0.754989,0.863246,-6.104131,-21.114256,-0.280357,42.505302,0.916375,-0.169883,-0.068654,0.355927
307,-0.172977,-3.527466,9.175310,0.625285,0.117068,-4.662131,-21.068697,-0.249955,42.331963,0.916963,-0.169717,-0.068012,0.354613
308,-0.185935,-3.574062,9.103485,-0.094952,-0.484146,-4.077703,-21.073477,-0.176673,42.198338,0.917328,-0.170061,-0.067243,0.353650
309,-0.178219,-3.581164,9.064839,-2.705810,-1.160131,-3.168251,-21.144217,-0.163500,42.095573,0.917532,-0.170728,-0.067203,0.352805
310,-0.107670,-3.541939,9.106277,-6.323779,-1.451583,-2.272533,-21.301870,-0.211686,42.026745,0.917535,-0.171882,-0.067970,0.352089
311,-0.061086,-3.545712,9.121952,-8.162518,-0.703880,-2.086370,-21.543694,-0.254639,41.972183,0.917362,-0.173719,-0.068974,0.351442
312,-0.010003,-3.487532,9.164678,-9.059762,0.759483,-3.995303,-21.820660,-0.280202,41.877571,0.917244,-0.175915,-0.069883,0.350477
313,-0.045401,-3.393979,9.209608,-8.428029,1.722342,-5.417465,-22.082581,-0.289711,41.716438,0.917336,-0.178081,-0.070509,0.349012
314,-0.129606,-3.220256,9.286122,-7.544519,2.644001,-6.345227,-22.290936,-0.276439,41.507076,0.917639,-0.179919,-0.070709,0.347229
316,-0.071721,-3.347390,9.389414,-5.232742,2.439527,-7.376753,-22.432453,-0.263384,41.262932,0.918146,-0.181242,-0.070647,0.345206
317,-0.009667,-3.290539,9.343652,-3.361957,2.148075,-6.358961,-22.503330,-0.267580,41.021790,0.918761,-0.181946,-0.070512,0.343223
318,0.079683,-3.329502,9.217631,-2.841617,1.839838,-5.161109,-22.534851,-0.278180,40.818645,0.919324,-0.182292,-0.070368,0.341558
319,0.131138,-3.478978,9.220842,-4.117290,1.983275,-3.836606,-22.593714,-0.285418,40.655449,0.919720,-0.182843,-0.070341,0.340200
320,0.192206,-3.663949,9.113087,-3.941809,1.951231,-3.226235,-22.695440,-0.286747,40.521420,0.919955,-0.183738,-0.070439,0.339060
321,0.204483,-3.706686,9.041589,-4.691038,2.476149,-1.173867,-22.825174,-0.268931,40.425228,0.920020,-0.184892,-0.070525,0.338237
322,0.204469,-3.772788,9.160318,-4.953497,2.177068,-1.150978,-22.975086,-0.235407,40.359367,0.919952,-0.186235,-0.070591,0.337670
323,0.119888,-3.684762,9.418020,-4.129499,2.358653,-0.197274,-23.100695,-0.191603,40.309044,0.919870,-0.187404,-0.070527,0.337261
324,0.056348,-3.659147,9.443920,-1.703277,1.791009,0.011777,-23.153730,-0.136355,40.278908,0.919839,-0.188011,-0.070191,0.337077
325,0.063706,-3.517020,9.562296,0.170559,1.446149,0.622148,-23.118252,-0.086953,40.267258,0.919902,-0.187878,-0.069671,0.337087
326,-0.084351,-3.410192,9.515378,2.857714,1.232520,-0.079778,-22.988304,-0.038042,40.257965,0.920113,-0.186985,-0.068880,0.337171
327,-0.215546,-3.416243,9.456977,4.841417,1.131809,-0.940400,-22.778433,0.014531,40.226952,0.920514,-0.185472,-0.067790,0.337132
328,-0.251997,-3.478027,9.340536,6.754928,0.538224,-2.446488,-22.428484,0.106027,40.164474,0.921206,-0.182966,-0.065925,0.336981
329,-0.194510,-3.329833,9.203741,8.520424,0.115542,-2.333570,-21.929552,0.209343,40.087814,0.922160,-0.179299,-0.063506,0.336809
330,-0.032839,-3.369224,9.203512,9.390202,-0.284250,-3.915955,-21.413399,0.219040,39.993382,0.923230,-0.175223,-0.061766,0.336346
331,0.264058,-3.415761,9.226962,11.772170,-0.293405,-6.395583,-20.956284,0.125080,39.837063,0.924432,-0.171347,-0.060948,0.335189
332,0.352125,-3.288486,9.161626,13.011223,-0.337657,-7.434738,-20.514566,-0.015872,39.625023,0.925779,-0.167482,-0.060483,0.333503
333,0.086800,-3.403145,9.049591,11.613474,-0.903776,-4.388992,-20.089979,-0.137343,39.447090,0.926972,-0.163790,-0.059975,0.332112
334,0.024483,-3.380566,9.307246,10.185209,-0.500931,-1.392074,-19.721203,-0.198542,39.364349,0.927764,-0.160671,-0.059285,0.331547
335,0.208402,-3.378938,9.337452,11.082453,0.411572,-0.221689,-19.368864,-0.259277,39.339321,0.928355,-0.157654,-0.058723,0.331441
336,0.278859,-3.403945,9.279381,11.529549,0.205572,-0.648948,-19.039284,-0.372333,39.321835,0.928908,-0.154665,-0.058662,0.331312
337,0.169619,-3.568588,9.114623,10.945118,0.950224,-0.874785,-18.820316,-0.461231,39.291969,0.929328,-0.152647,-0.058709,0.331061
338,0.470003,-3.466462,9.320592,12.492409,3.109408,-4.736902,-18.565586,-0.486227,39.182346,0.929993,-0.150564,-0.058032,0.330268
339,0.256494,-3.521963,9.053068,14.662274,4.043274,-7.715508,-18.164410,-0.479388,38.947956,0.931185,-0.147443,-0.056518,0.328574
340,-0.284514,-3.561414,8.982852,13.790971,2.802697,-5.864562,-17.765093,-0.426511,38.698048,0.932386,-0.144469,-0.054629,0.326804
341,-0.745370,-3.493784,9.012894,11.059564,1.517868,0.742695,-17.564272,-0.115252,38.597088,0.932795,-0.143770,-0.051397,0.326471
342,-0.608948,-3.461825,9.219304,11.293031,-0.587909,6.213138,-17.512789,0.358490,38.705135,0.932338,-0.144656,-0.047530,0.327965
343,-0.407874,-3.553805,9.061212,9.710646,-4.190619,11.871268,-17.359577,0.580897,39.017059,0.931529,-0.143920,-0.045673,0.330839
344,-0.098907,-3.585928,9.183780,6.120143,-6.882350,14.678970,-17.189606,0.561503,39.493923,0.930366,-0.142293,-0.045932,0.334758
345,0.172186,-3.516600,9.203840,3.458929,-6.969329,14.015194,-17.121424,0.462572,40.018059,0.928957,-0.141237,-0.047183,0.338918
346,0.522690,-3.545663,9.165441,2.119166,-5.768426,10.410958,-17.122160,0.316319,40.468758,0.927685,-0.140620,-0.048925,0.342392
347,0.502135,-3.472975,9.147546,-0.584774,-4.233345,5.747731,-17.328993,0.030524,40.774334,0.926648,-0.141303,-0.052233,0.344424
348,0.244249,-3.267534,9.208062,-1.184462,-2.568561,1.899347,-17.652447,-0.274680,40.930256,0.925917,-0.142925,-0.055867,0.345151
349,0.218206,-3.251952,9.126214,-0.749572,-0.407850,-1.463793,-17.893173,-0.443542,40.953442,0.925621,-0.144349,-0.057984,0.345004
350,0.170633,-3.304705,9.118364,-2.286181,0.567216,-2.654015,-18.066570,-0.519972,40.888329,0.925631,-0.145552,-0.059041,0.344291
351,0.009540,-3.203562,9.211607,-4.411794,0.992949,-3.320844,-18.216511,-0.527495,40.785973,0.925750,-0.146793,-0.059421,0.343377
352,-0.040221,-3.223625,9.292452,-6.470266,1.418683,-3.181985,-18.422155,-0.508086,40.670647,0.925821,-0.148573,-0.059731,0.342364
353,-0.005168,-3.269276,9.309221,-7.462118,1.791008,-3.751155,-18.676329,-0.477899,40.544228,0.925853,-0.150783,-0.060080,0.341250
354,-0.098660,-3.293535,9.341443,-8.498221,1.336283,-3.043126,-18.962244,-0.445259,40.420319,0.925827,-0.153256,-0.060502,0.340142
355,-0.095694,-3.185795,9.312083,-8.025185,0.996001,-2.957673,-19.245195,-0.415651,40.313034,0.925750,-0.155687,-0.060957,0.339166
356,-0.110262,-3.265627,9.268866,-8.632504,0.414624,-1.656059,-19.523346,-0.393232,40.232571,0.925596,-0.158043,-0.061488,0.338399
357,-0.063117,-3.264000,9.222118,-8.344104,-0.273569,-0.200326,-19.807714,-0.378698,40.202534,0.925282,-0.160399,-0.062168,0.338023
358,0.008188,-3.288992,9.214553,-9.509911,-1.013643,1.176059,-20.102964,-0.379676,40.225033,0.924800,-0.162767,-0.063079,0.338042
359,0.132579,-3.300657,9.203462,-10.300340,-1.273050,1.368325,-20.426769,-0.401605,40.277943,0.924192,-0.165285,-0.064287,0.338257
360,0.174376,-3.381388,9.278879,-10.977850,-0.783228,0.812888,-20.772020,-0.433488,40.324009,0.923570,-0.167948,-0.065630,0.338386
361,0.214194,-3.407227,9.286409,-9.975318,-0.081302,-0.482622,-21.108475,-0.462670,40.334305,0.923057,-0.170567,-0.066874,0.338230
362,0.217680,-3.466982,9.303121,-9.877659,0.591631,-1.888000,-21.422865,-0.489043,40.294395,0.922718,-0.173044,-0.067953,0.337684
363,0.125770,-3.522954,9.288811,-9.219983,1.272194,-3.360518,-21.723825,-0.505154,40.201569,0.922541,-0.175475,-0.068828,0.336732
364,0.060237,-3.486012,9.325735,-9.302384,1.343912,-3.835081,-22.007904,-0.510288,40.073860,0.922481,-0.177824,-0.069505,0.335524
365,0.014833,-3.542550,9.218398,-8.452444,1.003631,-3.485643,-22.274994,-0.512739,39.945820,0.922439,-0.180045,-0.070106,0.334327
366,-0.027068,-3.632838,9.220017,-8.922427,0.924283,-3.320844,-22.541573,-0.512616,39.828442,0.922360,-0.182263,-0.070696,0.333219
367,-0.049447,-3.572251,9.190550,-8.061807,0.501601,-3.258281,-22.797768,-0.514597,39.717793,0.922272,-0.184388,-0.071278,0.332166
368,-0.032857,-3.508618,9.174314,-6.113200,0.223883,-2.242014,-22.993586,-0.520298,39.628201,0.922218,-0.186003,-0.071746,0.331314
369,0.044146,-3.565142,9.219585,-3.873142,0.056031,-0.969393,-23.113052,-0.524837,39.576668,0.922175,-0.186984,-0.072044,0.330816
370,0.039294,-3.457934,9.320590,-0.519158,-0.207954,0.240666,-23.025145,-0.513737,39.565010,0.922346,-0.186316,-0.071682,0.330796
371,0.092516,-3.214011,9.357017,5.474677,-1.187598,2.596695,-22.754354,-0.502153,39.615971,0.922630,-0.184138,-0.070889,0.331394
372,0.090960,-3.208665,9.377100,9.684705,-2.203864,5.816398,-22.259146,-0.502171,39.765007,0.922985,-0.180058,-0.069690,0.332898
373,0.177485,-3.184523,9.465496,10.916127,-2.843227,8.112915,-21.541878,-0.520699,40.008308,0.923394,-0.174079,-0.068124,0.335260
374,0.133129,-3.056485,9.422216,11.575326,-2.991242,8.860619,-20.942158,-0.537671,40.304775,0.923429,-0.169022,-0.066943,0.337977
375,0.189120,-2.962088,9.437472,11.099237,-3.078220,9.406899,-20.478716,-0.534523,40.624393,0.923157,-0.165111,-0.066011,0.340825
376,0.199747,-2.930887,9.460247,8.129786,-2.501420,8.675982,-19.954170,-0.555667,40.937187,0.922979,-0.160644,-0.065059,0.343614
377,0.244358,-2.878319,9.534079,5.500617,-1.681998,7.320960,-19.409031,-0.605243,41.208073,0.922941,-0.155950,-0.064192,0.346034
378,0.161925,-2.780151,9.517774,5.007743,-1.225746,6.124635,-18.922531,-0.636515,41.431854,0.922931,-0.151812,-0.063271,0.348064
379,0.149273,-2.707651,9.568950,5.515876,-0.870206,5.212131,-18.553993,-0.628277,41.619667,0.922839,-0.148767,-0.062329,0.349789
380,0.137845,-2.762811,9.567546,5.586069,-0.583332,4.255376,-18.301054,-0.606184,41.776211,0.922676,-0.146713,-0.061579,0.351216
381,0.144328,-2.765811,9.604062,5.381595,-0.561969,3.455791,-18.061087,-0.589066,41.903633,0.922582,-0.144766,-0.060867,0.352392
382,0.067589,-2.652658,9.517211,5.984336,-0.581806,3.199435,-17.813772,-0.573362,42.014408,0.922544,-0.142765,-0.060118,0.353435
383,0.132309,-2.739209,9.579561,6.022484,-0.128606,2.071777,-17.560246,-0.557849,42.101166,0.922583,-0.140726,-0.059318,0.354285
384,0.168047,-2.756451,9.629897,5.856158,-0.001954,1.017362,-17.319721,-0.551903,42.150494,0.922721,-0.138783,-0.058586,0.354813
385,0.122781,-2.643192,9.572416,5.084040,0.207098,0.565688,-17.094244,-0.547850,42.174240,0.922917,-0.136968,-0.057883,0.355124
386,0.083656,-2.716269,9.615017,4.809373,0.631305,-0.145393,-16.839891,-0.531005,42.176003,0.923207,-0.134970,-0.056961,0.355286
387,0.093423,-2.738762,9.684776,5.659314,1.218787,-1.556874,-16.586021,-0.506255,42.139221,0.923607,-0.133020,-0.055932,0.355145
388,0.075984,-2.608284,9.566184,5.145077,1.252357,-1.730829,-16.325544,-0.478969,42.074287,0.924097,-0.131036,-0.054830,0.354779
389,0.065801,-2.769723,9.625663,5.412113,1.336283,-1.056371,-16.068777,-0.442001,42.016983,0.924551,-0.129106,-0.053673,0.354481
390,0.059318,-2.700483,9.710338,8.843920,0.916653,-1.035007,-15.810627,-0.409030,41.973003,0.924962,-0.127146,-0.052559,0.354284
391,0.001418,-2.586344,9.629730,9.597727,0.570268,1.166903,-15.457797,-0.363208,41.968208,0.925346,-0.124441,-0.051093,0.354456
392,0.009127,-2.697643,9.636638,9.786942,0.046875,2.355599,-15.105252,-0.302165,42.022118,0.925534,-0.121760,-0.049566,0.355113
393,0.012919,-2.678188,9.645818,12.834215,-0.380384,2.703510,-14.758314,-0.258809,42.105362,0.925623,-0.119057,-0.048227,0.355979
394,-0.058251,-2.494906,9.603972,14.317414,-0.725243,2.827110,-14.324366,-0.234657,42.199482,0.925766,-0.115588,-0.046779,0.356945
395,-0.147750,-2.549684,9.570422,13.940511,-0.940398,4.600235,-13.881079,-0.169533,42.326725,0.925785,-0.112159,-0.044996,0.358216
396,-0.158212,-2.641242,9.536826,15.416081,-1.413435,4.104310,-13.441804,-0.105286,42.477707,0.925712,-0.108753,-0.043247,0.359667
397,-0.119441,-2.530779,9.550045,15.077326,-1.544664,3.678577,-12.971356,-0.100147,42.615658,0.925715,-0.104918,-0.041854,0.360961
398,-0.070626,-2.471081,9.667318,12.808274,-1.842220,3.257421,-12.592670,-0.094378,42.741241,0.925658,-0.101832,-0.040726,0.362117
399,-0.006210,-2.494905,9.645526,11.650096,-2.098575,3.364236,-12.349048,-0.102855,42.863678,0.925488,-0.099794,-0.040131,0.363184
400,0.143345,-2.583533,9.644229,9.828141,-2.187079,1.406474,-12.219097,-0.185192,42.956978,0.925332,-0.098450,-0.040465,0.363912
401,0.281885,-2.585272,9.750860,7.418706,-2.225227,-0.151496,-12.097005,-0.306350,42.993176,0.925360,-0.097066,-0.041086,0.364142
402,0.189916,-2.822604,10.204762,6.098780,-2.980560,-2.373244,-11.946453,-0.426712,42.970306,0.925596,-0.095475,-0.041560,0.363908
403,0.073025,-2.832627,10.966770,7.244750,-5.550219,-5.171791,-11.796949,-0.600057,42.876938,0.926067,-0.093751,-0.042409,0.363061
404,-0.181941,-2.439414,12.260484,9.768631,-7.794855,-5.820310,-11.536613,-0.836305,42.742702,0.926765,-0.090946,-0.043386,0.361873
405,-0.472823,-2.691802,13.142090,19.296509,-6.749597,-6.673301,-11.043285,-1.061146,42.586140,0.927696,-0.086302,-0.043528,0.360608
406,-0.554507,-2.879425,14.076747,23.057915,-5.301493,-5.187050,-10.341274,-1.218575,42.429825,0.928730,-0.080177,-0.042483,0.359481
407,-0.348702,-3.062808,14.271182,25.452091,-4.625508,-3.993777,-9.558719,-1.334693,42.309128,0.929655,-0.073510,-0.040891,0.358701
408,0.044165,-3.106931,14.142124,34.406223,-3.014130,-2.872222,-8.616441,-1.431643,42.218315,0.930525,-0.065589,-0.038675,0.358225
409,0.320720,-3.613547,12.697114,44.263702,1.252357,-3.777096,-7.428745,-1.461286,42.116020,0.931478,-0.055879,-0.035151,0.357758
410,0.790409,-3.066624,11.957726,41.501774,2.482253,-5.516650,-6.172609,-1.445287,41.958698,0.932524,-0.045758,-0.031034,0.356850
411,0.978864,-2.736928,10.908392,43.976822,5.303689,-7.118872,-4.927372,-1.408697,41.739857,0.933646,-0.035788,-0.026788,0.355398
412,0.712177,-2.448995,9.908013,50.639015,15.629625,-8.374709,-3.553759,-1.156861,41.459690,0.934873,-0.025427,-0.020412,0.353481
413,0.202656,-2.183280,10.310267,54.255459,32.628433,-6.481036,-2.017940,-0.397813,41.176003,0.936004,-0.015264,-0.009441,0.351532
414,-0.171940,-1.833441,10.571978,63.024952,35.678757,-4.460710,-0.266861,0.753498,40.972210,0.936729,-0.004483,0.005345,0.349986
415,-0.474153,0.106499,9.124739,76.768959,30.592850,-5.950014,1.972607,1.904390,40.817665,0.937060,0.010336,0.021574,0.348349
416,-0.753000,0.674825,9.109076,65.295532,25.143768,1.914606,4.378672,2.897632,40.807880,0.936611,0.026985,0.036995,0.347365
417,-0.689913,1.665087,8.912817,52.210716,13.500959,1.939021,6.448316,3.586952,40.940239,0.935529,0.041737,0.048934,0.347345
419,-0.993301,2.316458,7.317813,26.355440,-2.306102,4.809287,7.980659,3.823908,41.090927,0.934419,0.053445,0.055574,0.347731
420,-0.830746,3.006619,6.700012,-11.028206,-8.556292,5.801139,8.581899,3.702143,41.264919,0.933601,0.058635,0.056496,0.348939
421,-0.421698,1.897169,7.139250,-49.766876,-7.335549,9.518292,7.859406,3.433502,41.499275,0.933248,0.053470,0.052219,0.351374
422,-0.263892,1.781476,6.057259,-59.424454,-4.923063,-0.281200,6.232154,3.195054,41.639736,0.933496,0.040896,0.045333,0.353351
423,-0.664825,1.163086,5.336245,-65.184814,-1.601124,3.268102,4.339382,3.118276,41.690144,0.933897,0.025693,0.038877,0.354493
424,0.284042,0.391520,4.196389,-57.347664,-3.807612,1.459881,2.389326,2.983489,41.768528,0.933976,0.010195,0.031747,0.355776
425,0.294932,-0.266549,3.178550,-40.071148,-0.832057,-5.942383,0.685589,2.718940,41.692013,0.934311,-0.002853,0.024300,0.355618
426,-0.370123,-1.015463,2.472088,-21.558615,3.364238,-11.191567,-0.721822,2.726299,41.391891,0.935133,-0.014298,0.020028,0.353442
427,0.163286,-1.146825,2.162741,-7.460593,3.667897,-13.082190,-1.830253,2.823935,40.955570,0.936266,-0.023577,0.017495,0.350062
428,-0.092235,-1.118713,1.934508,12.126185,3.193334,-19.832884,-2.445283,2.838387,40.371574,0.937895,-0.028565,0.015880,0.345377
429,-0.618716,-1.483351,2.582423,21.432804,5.448652,-17.373091,-2.580552,3.069080,39.712315,0.939768,-0.030265,0.017535,0.340019
430,-0.268518,-1.096946,3.709512,28.589396,6.222296,-17.078587,-2.275372,3.366659,39.104595,0.941549,-0.028531,0.021034,0.335006
431,-0.434652,-0.600991,5.530952,30.467810,5.483748,-6.961701,-1.536377,3.575413,38.685585,0.942871,-0.022976,0.024994,0.331423
432,-0.900662,-0.224397,7.938294,22.040123,5.035126,-6.508502,-0.726105,3.797187,38.454979,0.943612,-0.016890,0.029196,0.329331
433,-1.067360,0.133641,10.809018,4.018944,2.946135,-0.490252,-0.282960,3.988307,38.338615,0.943949,-0.013757,0.032058,0.328242
434,-1.312963,1.015168,13.172306,-4.539971,3.559557,-5.361005,-0.222359,4.140636,38.245678,0.944177,-0.013667,0.033497,0.327446
435,-1.760938,1.053534,14.900528,-17.063240,-2.260323,2.036681,-0.474946,4.215568,38.197720,0.944258,-0.015948,0.033399,0.327119
436,-1.247028,0.782007,15.958134,-22.431446,-5.982055,0.957851,-1.035451,4.114326,38.255928,0.944035,-0.020294,0.030954,0.327761
437,-1.303308,1.104260,15.808867,-15.398456,-9.586290,3.731984,-1.556415,3.867541,38.347397,0.943752,-0.023903,0.027411,0.328649
438,-0.106550,0.225921,15.613435,-17.954380,-10.929105,5.453228,-2.009145,3.494600,38.517696,0.943278,-0.026599,0.023001,0.330137
439,0.017130,-0.042144,14.605169,-15.515952,-11.492171,4.711628,-2.503498,3.040064,38.706104,0.942746,-0.029392,0.017785,0.331739
440,0.376705,-0.659954,14.359596,-19.701565,-7.590381,0.986844,-3.063504,2.625873,38.818642,0.942380,-0.032817,0.012722,0.332686
441,0.602675,-1.368198,13.723191,-20.809387,-4.614827,-5.641777,-3.775955,2.297730,38.753281,0.942437,-0.037722,0.007976,0.332153
442,0.263537,-1.970423,13.843524,-19.410112,-0.105717,-8.127509,-4.541811,2.096853,38.527958,0.942870,-0.043431,0.004189,0.330291
443,-0.089706,-1.655651,13.516447,-19.297195,2.521927,-12.763270,-5.284213,2.043708,38.175392,0.943596,-0.049381,0.001763,0.327392
444,-0.070881,-2.095085,13.924026,-29.899328,-1.218116,-10.697166,-6.189377,1.983155,37.782185,0.944312,-0.056665,-0.001127,0.324134
445,-0.310823,-2.259859,13.156313,-28.937994,-5.879819,-11.948426,-7.267024,1.790984,37.418514,0.944821,-0.065021,-0.005553,0.321020
446,-0.675650,-2.107837,12.955692,-34.168865,-7.007477,-7.746027,-8.396293,1.539914,37.119984,0.945049,-0.073658,-0.010594,0.318347
447,-0.622514,-2.997277,12.141362,-37.277176,-4.115849,3.654161,-9.680687,1.376564,37.078674,0.944334,-0.083801,-0.015478,0.317760
448,-0.874947,-3.272040,12.066326,-33.390640,1.478194,10.186647,-10.989060,1.422956,37.309666,0.942657,-0.094667,-0.018914,0.319498
449,-0.917542,-3.671525,12.513669,-20.598810,7.914548,17.384439,-12.012299,1.732773,37.724968,0.940484,-0.103866,-0.019594,0.322984
450,-0.669429,-4.306640,12.582675,-3.177319,11.587449,25.036951,-12.539381,2.246889,38.342876,0.938007,-0.109532,-0.017448,0.328391
451,-0.495154,-3.968695,12.534438,36.580666,10.307198,23.742970,-12.099784,2.789323,39.055557,0.936095,-0.107393,-0.012408,0.334721
452,-0.191736,-2.806150,12.251401,73.720161,3.059052,19.174349,-10.300573,3.119646,39.713001,0.935572,-0.093609,-0.004981,0.340467
453,0.243934,-1.432528,11.088194,96.786057,-5.454086,15.570112,-7.402407,3.088491,40.292671,0.935918,-0.069844,0.003022,0.345209
454,0.321441,-0.225944,9.528329,104.670509,-9.180394,12.005551,-3.911509,2.772655,40.776020,0.936247,-0.040404,0.010779,0.348845
455,-0.069882,1.675467,8.293575,91.759659,-9.481002,7.649034,-0.361634,2.383024,41.122311,0.936068,-0.010257,0.018361,0.351191
456,0.001569,2.171579,7.094354,46.778423,-9.470320,7.821464,2.357782,2.005337,41.389225,0.935263,0.013061,0.023636,0.352921
457,-0.309494,1.913777,6.704306,1.838396,-5.965271,7.615463,3.557447,1.714439,41.647320,0.934289,0.023693,0.025010,0.354848
458,-0.720549,1.692083,6.731467,-27.444111,-2.745568,6.777731,3.436010,1.616038,41.888390,0.933568,0.022958,0.023880,0.356867
459,-0.319315,1.947732,6.541491,-52.571529,-2.768457,0.741170,2.399176,1.585301,42.016964,0.933337,0.014583,0.020416,0.358123
460,0.187080,1.361992,6.709300,-64.095314,-1.543138,0.114014,0.730996,1.488649,42.036961,0.933397,0.001295,0.014414,0.358554
461,-0.220974,0.838975,6.134706,-55.536400,1.455305,3.562606,-1.059868,1.455647,42.105148,0.933094,-0.013194,0.008532,0.359290
462,0.176278,0.445015,5.115189,-43.113838,0.146061,-3.406296,-2.540384,1.446517,42.112091,0.932825,-0.025220,0.003814,0.359425
463,-0.090490,-0.145880,4.330509,-23.031134,-0.948028,-9.874693,-3.565178,1.376444,41.894836,0.933256,-0.033341,0.000092,0.357661
464,-0.293195,-0.666085,3.070120,0.027122,0.512283,-7.627004,-4.055589,1.397020,41.601635,0.934013,-0.037402,-0.001175,0.355275
465,-0.335115,-1.619158,1.560000,22.772566,1.224890,-5.881347,-4.263391,1.552107,41.360279,0.934655,-0.039576,-0.000472,0.353345
466,-0.088909,-1.963161,1.403676,39.481445,-1.634694,-4.750635,-4.254936,1.638748,41.157280,0.935263,-0.039773,0.000332,0.351711
467,-0.536696,-2.047434,1.799672,45.112110,-2.043642,-0.899200,-3.889551,1.709070,41.039234,0.935731,-0.037004,0.002065,0.350761
468,0.123727,-2.231157,2.255049,38.910751,-0.490250,-0.858000,-3.450051,1.745313,40.985638,0.936022,-0.033524,0.003722,0.350320
469,0.037343,-2.220810,4.775935,21.820389,-1.317302,-4.088384,-3.170562,1.641190,40.882851,0.936437,-0.030920,0.003754,0.349451
470,-0.601823,-0.789735,7.858996,6.063684,-1.848324,-9.978456,-3.006818,1.584418,40.642502,0.937222,-0.029401,0.003851,0.347471
471,-1.221921,-0.415387,10.553717,-22.103374,-0.264413,-14.582173,-3.308263,1.623176,40.234726,0.938364,-0.031972,0.003367,0.344150
472,-0.640683,-0.265794,13.460671,-37.989788,-3.502427,-15.079626,-4.287117,1.603518,39.745487,0.939522,-0.039926,0.000437,0.340153
473,-0.780512,0.108189,15.614375,-34.802128,-8.032900,-10.987092,-5.425314,1.404281,39.330257,0.940355,-0.048683,-0.004399,0.336666
474,-1.049874,0.123620,15.983251,-23.084543,-8.736350,-7.308087,-6.264431,1.140344,39.057732,0.940837,-0.054816,-0.008900,0.334278
475,-0.449004,-0.320192,16.015793,-20.127300,-10.553728,-2.802029,-6.849839,0.837151,38.929276,0.940993,-0.058755,-0.013031,0.333032
476,0.239236,-0.585122,15.400358,-5.884313,-12.329905,0.143007,-7.160964,0.437381,38.933746,0.940908,-0.060150,-0.017221,0.332834
477,0.111834,-0.614327,14.250330,-0.789248,-8.101566,0.594681,-7.154920,0.068370,38.989311,0.940823,-0.059019,-0.020262,0.333104
478,0.295636,-0.918204,13.367355,-7.080637,-4.884916,3.886102,-7.187279,-0.164790,39.090790,0.940553,-0.058588,-0.022322,0.333810
479,0.696447,-1.410803,13.072713,-13.341509,-2.832546,3.297095,-7.475044,-0.329513,39.226234,0.940036,-0.060440,-0.024584,0.334775
480,0.685406,-2.081761,13.185301,-14.690427,0.292550,2.849999,-7.948807,-0.426054,39.334084,0.939480,-0.064019,-0.026819,0.335499
481,0.628212,-2.049683,13.811162,-22.144571,3.680105,-2.939363,-8.587452,-0.420166,39.323975,0.939137,-0.069273,-0.028634,0.335265
482,0.431133,-2.442690,14.343412,-28.646542,6.231452,-3.235392,-9.452732,-0.315697,39.197338,0.938934,-0.076702,-0.030225,0.334074
483,0.321278,-3.030043,14.212405,-30.930851,6.538162,-5.335065,-10.490623,-0.158693,39.020725,0.938675,-0.085710,-0.031832,0.332459
484,-0.051800,-3.510942,13.691249,-31.297075,8.035095,-2.963777,-11.608320,0.046004,38.839020,0.938261,-0.095508,-0.033247,0.330816
485,0.105313,-3.445417,12.612799,-24.789001,5.233496,-4.164680,-12.637903,0.235326,38.676678,0.937770,-0.104529,-0.034521,0.329347
486,-0.236633,-3.698567,11.327450,-19.503197,1.874935,1.491925,-13.490137,0.345724,38.606098,0.937130,-0.111839,-0.035998,0.328610
487,-0.240229,-3.549579,10.494847,-17.496605,0.699972,3.217747,-14.239157,0.428329,38.671009,0.936161,-0.118177,-0.037536,0.328981
488,-0.113642,-3.561360,10.105659,-25.817472,-4.060916,5.376932,-15.089339,0.423755,38.822624,0.934824,-0.125053,-0.040179,0.329926
489,0.411260,-4.054892,10.075002,-24.180157,-3.709953,9.167331,-16.070581,0.333887,39.089710,0.932987,-0.132693,-0.044045,0.331643
490,-0.281697,-4.584823,11.535603,-3.790743,3.469527,11.276158,-16.689680,0.405594,39.417301,0.931273,-0.137809,-0.045646,0.334148
491,0.232275,-4.390075,11.957676,44.204185,2.294564,11.462321,-16.126213,0.598266,39.753403,0.930868,-0.133663,-0.042827,0.337320
492,0.280538,-3.596159,11.665808,83.331963,-0.137761,12.351935,-14.052713,0.693045,40.126617,0.931989,-0.116960,-0.036326,0.341171
493,0.257915,-2.027226,11.220218,105.549446,3.342875,11.959773,-10.866580,0.782934,40.509335,0.933702,-0.091184,-0.026398,0.345237
494,-0.115172,-0.246645,10.387590,111.515808,0.869350,7.691759,-7.082118,0.875767,40.820831,0.935237,-0.060545,-0.014390,0.348509
495,-0.120944,0.982157,7.992165,85.115776,-4.964264,9.533551,-3.512239,0.831289,41.117203,0.935771,-0.031239,-0.003972,0.351199
496,-0.198304,1.615493,6.632669,29.274534,-3.383405,7.639877,-1.217910,0.715975,41.416176,0.935300,-0.012150,0.002086,0.353642
497,-0.098438,1.974990,6.236105,-18.683775,-3.014131,7.047820,-0.596288,0.627096,41.669159,0.934574,-0.006810,0.003264,0.355688
498,-0.430242,2.082948,6.237907,-45.651455,-2.480057,11.759876,-1.201121,0.582947,41.989578,0.933531,-0.011608,0.000994,0.358309
499,-0.082334,1.978280,6.212892,-67.540855,-3.795405,13.296484,-2.618403,0.534343,42.414597,0.931986,-0.022987,-0.003919,0.361744
500,0.896113,1.667878,6.369224,-77.054993,-3.879330,9.876885,-4.582487,0.330888,42.813667,0.930222,-0.038274,-0.011906,0.364802
501,0.502422,1.047111,6.483307,-68.920288,-1.375287,9.545759,-6.632845,0.114943,43.152790,0.928349,-0.054165,-0.020343,0.367179
502,0.474805,0.332038,4.662839,-44.053814,-2.357983,7.287390,-8.212757,-0.042737,43.444767,0.926613,-0.066386,-0.026849,0.369135
503,0.473378,-0.621227,3.299744,-21.122204,-2.686057,-1.672844,-9.197188,-0.285031,43.553265,0.925719,-0.073533,-0.032046,0.369609
504,0.130452,-1.181771,2.367684,-1.587306,-2.460220,-4.025822,-9.818643,-0.516058,43.476799,0.925610,-0.077830,-0.035863,0.368649
505,-0.309823,-1.299685,1.050953,19.360600,-3.912901,-0.355971,-10.199114,-0.529731,43.428616,0.925505,-0.080875,-0.037164,0.368129
506,-0.238201,-1.673156,0.953227,28.963245,-4.991730,0.008725,-10.403521,-0.449403,43.457619,0.925245,-0.082775,-0.037193,0.368356
507,0.315071,-1.853082,2.342353,30.803513,-4.178412,-1.547718,-10.286767,-0.582435,43.467163,0.925332,-0.081400,-0.037898,0.368372
508,0.264239,-1.593328,4.223433,24.777634,-1.694205,-3.705377,-9.822259,-0.799036,43.401340,0.925915,-0.076972,-0.038109,0.367837
509,-0.223371,-1.079486,6.323627,23.082331,-0.171332,-4.141792,-9.150062,-0.851127,43.278225,0.926756,-0.071411,-0.036295,0.367023
510,-0.342987,-1.112300,9.649326,2.535744,0.085024,-8.487627,-8.686314,-0.814365,43.070393,0.927695,-0.067840,-0.034389,0.365509
511,-0.351997,-0.617824,11.969488,-4.279038,-0.517717,-4.820828,-8.608651,-0.788231,42.850979,0.928434,-0.067360,-0.033801,0.363771
512,-0.530803,-0.168877,13.878413,-15.082590,-1.108250,-3.389511,-8.759547,-0.767468,42.717358,0.928765,-0.068688,-0.034032,0.362657
513,-0.374928,-0.582790,15.077108,-23.104380,-4.257760,2.480725,-9.215832,-0.793852,42.713554,0.928501,-0.072303,-0.035687,0.362470
514,0.370184,-1.006683,15.607848,-27.587547,-4.845241,-0.146919,-9.911030,-0.916985,42.774662,0.927878,-0.077524,-0.038923,0.362653
515,0.449892,-0.825002,14.999008,-14.304369,-5.396101,0.124696,-10.456502,-1.102049,42.802231,0.927452,-0.081342,-0.042166,0.362544
516,0.783379,-1.451547,14.571266,-19.408588,-4.904752,-5.689079,-10.873345,-1.322593,42.740364,0.927393,-0.084039,-0.045222,0.361710
517,0.268636,-1.802358,13.695488,-15.973732,-2.397657,-5.374740,-11.357615,-1.499398,42.581066,0.927569,-0.087463,-0.048058,0.360078
518,0.596038,-2.002248,12.845123,-12.372547,-0.798487,-5.576161,-11.752171,-1.599634,42.411198,0.927816,-0.090413,-0.049973,0.358448
519,0.541703,-2.562517,12.301617,-10.500237,-0.355969,-3.607717,-12.098221,-1.674991,42.264721,0.928013,-0.093043,-0.051546,0.357041
520,0.420036,-3.034421,12.101801,-11.174696,0.922757,-1.538563,-12.481844,-1.698101,42.179733,0.927966,-0.096116,-0.052856,0.356157
522,0.183066,-2.794557,12.370964,-12.609065,2.305245,-3.673332,-12.903226,-1.657046,42.084000,0.927893,-0.099701,-0.053751,0.355225
523,0.332582,-3.609623,13.555536,-17.762114,3.231482,-5.006991,-13.433011,-1.585463,41.922775,0.927903,-0.104291,-0.054667,0.353738
524,-0.202534,-3.783792,13.696380,-9.952429,3.069734,-7.569020,-13.938967,-1.499296,41.695408,0.928110,-0.108765,-0.055316,0.351742
525,-0.280230,-3.775574,13.313802,-2.570002,2.193853,-6.435257,-14.190171,-1.407470,41.448593,0.928599,-0.111202,-0.055105,0.349716
526,-0.040916,-3.827027,12.867464,3.053032,1.635364,-7.617849,-14.229608,-1.350006,41.207031,0.929279,-0.111814,-0.054525,0.347799
527,0.273781,-3.587193,11.651443,14.604287,0.271187,-4.717066,-13.996094,-1.348693,41.001476,0.930128,-0.110020,-0.053608,0.346243
528,0.275956,-2.894816,10.228302,19.018791,-1.466842,-4.147896,-13.490955,-1.403907,40.864071,0.931033,-0.105814,-0.052402,0.345305
529,0.635077,-2.701830,9.387237,10.762008,-1.361553,-2.740992,-13.142550,-1.593720,40.766510,0.931690,-0.102451,-0.052806,0.344485
530,0.686824,-2.559773,9.067910,-2.594418,-0.549761,-4.413407,-13.163842,-1.799991,40.661331,0.932033,-0.102048,-0.054451,0.343417
531,0.530972,-2.437566,9.586091,-18.296188,1.578905,-4.039555,-13.554044,-1.864018,40.521866,0.932112,-0.105096,-0.056012,0.342030
532,0.515018,-3.309157,10.728148,-25.808321,3.294045,0.162844,-14.345070,-1.826387,40.441872,0.931593,-0.111682,-0.057989,0.341026
533,0.473706,-4.591311,11.792858,-5.978920,4.362193,3.591598,-15.006892,-1.701030,40.474667,0.930802,-0.117420,-0.058974,0.341091
534,0.145316,-3.641188,11.890605,44.771832,4.346934,7.494915,-14.475945,-1.505071,40.620335,0.930848,-0.113625,-0.055947,0.342755
535,0.335596,-3.316457,12.397482,68.222260,2.611956,13.455181,-12.632127,-1.298029,40.934559,0.931561,-0.099125,-0.049014,0.346360
536,0.538463,-2.428251,11.577990,93.790665,1.369853,15.187106,-9.939300,-1.155625,41.389660,0.932221,-0.077484,-0.040010,0.351227
537,0.542543,-0.858540,9.734090,103.202568,0.721335,11.500469,-6.596302,-1.099338,41.821686,0.932744,-0.050322,-0.029480,0.355792
538,-0.121259,1.222968,8.147889,82.149376,1.221838,9.763967,-3.268847,-1.039180,42.165718,0.932736,-0.023351,-0.018717,0.359315
539,0.385599,1.085773,7.200015,30.389986,1.003631,5.288427,-1.065553,-0.993835,42.409073,0.932249,-0.005532,-0.011448,0.361594
540,0.108361,1.897821,6.235820,3.587107,2.734030,1.160799,-0.133311,-0.955277,42.508583,0.931951,0.001938,-0.008191,0.362486
541,-0.250927,2.082250,6.145965,-26.789492,3.948667,0.716755,-0.067993,-0.805029,42.531738,0.931886,0.001995,-0.006762,0.362683
542,-0.309218,2.079161,6.535342,-49.315205,2.973601,2.651628,-0.888081,-0.608407,42.579121,0.931731,-0.005293,-0.007761,0.363027
543,0.367934,2.105251,6.450684,-62.668568,0.654194,4.490367,-2.305397,-0.534595,42.689785,0.931242,-0.017039,-0.011666,0.363816
544,0.244012,1.876653,6.960260,-67.952843,0.999053,7.804679,-4.037661,-0.545423,42.889137,0.930245,-0.031050,-0.017307,0.365214
545,0.381755,0.880836,6.485120,-57.559769,1.986327,8.717181,-5.771725,-0.525614,43.157318,0.928809,-0.045133,-0.022776,0.367093
546,0.585194,-0.298879,5.605750,-34.261944,-0.110295,5.119050,-7.124279,-0.571661,43.383507,0.927494,-0.055890,-0.027591,0.368606
547,0.065014,-0.283912,4.168805,-11.418841,0.594683,0.597733,-7.812482,-0.622936,43.477753,0.926847,-0.061269,-0.030269,0.369167
548,0.734021,-1.763955,3.661535,4.566752,1.124179,-4.884917,-8.102219,-0.728376,43.405430,0.926941,-0.063293,-0.032015,0.368442
549,-0.121257,-2.288342,2.540185,29.994770,1.484298,-8.789761,-8.139228,-0.804456,43.181564,0.927652,-0.063411,-0.032625,0.366575
550,-0.267991,-2.304629,1.917094,42.266262,-0.401746,-9.499315,-7.808697,-0.724528,42.889175,0.928750,-0.061070,-0.030765,0.364345
551,-0.222314,-2.369776,2.673504,32.080715,-1.538561,-9.070530,-7.441354,-0.674386,42.599277,0.929852,-0.058326,-0.029043,0.362118
552,-0.235931,-2.539804,4.419854,25.755753,-0.372753,-7.375227,-7.144520,-0.648048,42.340275,0.930813,-0.056063,-0.027765,0.360103
553,-0.576671,-1.799746,5.719035,21.583874,-2.415968,-6.891510,-6.753932,-0.605548,42.115120,0.931698,-0.053075,-0.026088,0.358386
554,-0.216710,-1.547396,8.376753,-0.195662,-3.790827,-4.230295,-6.569751,-0.627462,41.945629,0.932315,-0.051547,-0.025613,0.357039
555,-0.198359,-1.022285,11.013779,-14.955938,-4.663656,-7.109716,-6.850698,-0.743217,41.774742,0.932733,-0.053512,-0.027350,0.355526
556,-0.295466,-0.261419,12.698239,-20.975714,-5.396101,-5.441879,-7.360296,-0.888973,41.586548,0.933088,-0.057256,-0.030023,0.353789
557,0.264464,-0.747857,13.972880,-28.599236,-8.954557,-3.958680,-8.059910,-1.123678,41.461258,0.933142,-0.062262,-0.034024,0.352438
558,-0.036369,-0.960028,14.942179,-32.562069,-8.521195,-2.269481,-8.969395,-1.413995,41.399628,0.932851,-0.068791,-0.039144,0.351460
559,0.281600,-0.687829,14.851634,-27.163342,-10.237861,-0.749659,-9.831174,-1.711058,41.397835,0.932359,-0.074890,-0.044200,0.350921
560,0.736919,-1.443365,14.806950,-29.688751,-9.886898,1.766592,-10.649071,-2.048371,41.470375,0.931630,-0.080471,-0.049494,0.350914
561,0.613083,-2.184482,14.153308,-21.908056,-7.257729,4.804708,-11.438473,-2.327149,41.630699,0.930605,-0.085950,-0.054292,0.351624
562,1.033401,-2.358959,13.575097,-19.492516,-5.208411,3.672472,-12.092885,-2.531545,41.810230,0.929579,-0.090538,-0.058098,0.352576
563,1.165059,-2.431028,12.748960,-15.366412,-2.008546,4.166872,-12.644985,-2.678017,41.962811,0.928686,-0.094478,-0.061107,0.353387
564,1.287704,-3.050903,12.117101,-14.678221,1.775749,3.124665,-13.153703,-2.727239,42.083118,0.927894,-0.098380,-0.063176,0.354037
565,1.038747,-3.003206,11.418981,-11.127392,3.210119,1.418681,-13.624607,-2.697593,42.140160,0.927301,-0.102253,-0.064442,0.354267
566,1.216958,-2.904824,10.879242,-12.497673,3.747245,-1.688104,-14.053057,-2.658131,42.110306,0.926996,-0.105860,-0.065420,0.353824
567,0.828024,-3.025705,10.544459,-10.878665,3.661793,-1.738459,-14.479625,-2.616531,42.026878,0.926844,-0.109489,-0.066322,0.352949
568,0.532777,-3.192191,10.848217,-11.887301,2.447157,-1.424118,-14.903987,-2.553164,41.952503,0.926647,-0.113162,-0.067044,0.352171
569,0.218359,-3.185275,11.779041,-15.465596,1.459883,-0.993807,-15.384211,-2.482781,41.897682,0.926316,-0.117297,-0.067895,0.351526
570,-0.118568,-3.577734,13.015861,-18.628839,0.936490,-0.536030,-15.953588,-2.394839,41.861996,0.925808,-0.122193,-0.068894,0.351001
571,-0.401419,-4.311615,14.091660,-19.222424,0.162846,-0.066045,-16.596848,-2.293398,41.846916,0.925125,-0.127713,-0.070029,0.350613
572,-0.466679,-4.218222,14.077967,-7.993141,-1.445479,1.638414,-17.065901,-2.205554,41.877834,0.924473,-0.131752,-0.070792,0.350684
573,-0.080257,-4.230428,13.582030,-0.343678,-3.050753,2.740132,-17.212324,-2.172799,41.969391,0.924013,-0.132978,-0.071083,0.351374
574,0.376554,-3.989734,12.130232,10.453772,-4.198249,2.082458,-17.063520,-2.226993,42.082424,0.923855,-0.131539,-0.071193,0.352308
575,0.679181,-3.569124,10.192123,18.934864,-3.551256,0.916651,-16.617481,-2.347349,42.169277,0.924128,-0.127513,-0.070886,0.353134
576,0.997601,-2.823302,8.790863,16.562050,-2.390027,-1.834592,-16.069118,-2.511652,42.183678,0.924727,-0.122566,-0.070534,0.353388
577,0.999472,-2.335253,8.405718,5.589121,0.374949,-5.399154,-15.703136,-2.675044,42.076424,0.925484,-0.119165,-0.070609,0.352552
578,0.710092,-2.100503,8.229529,-8.199142,2.625690,-9.313153,-15.710806,-2.770030,41.825214,0.926269,-0.119086,-0.071137,0.350405
579,0.773864,-2.623051,8.729700,-22.779358,5.088532,-10.329418,-16.205574,-2.788991,41.474831,0.926817,-0.123248,-0.072426,0.347239
580,0.763575,-3.088449,10.450891,-23.705593,5.000030,-10.810084,-16.977507,-2.770069,41.090107,0.927120,-0.129796,-0.074175,0.343657
581,0.320660,-2.819472,11.953809,16.140894,6.907436,-5.934753,-17.045069,-2.661305,40.762966,0.927992,-0.130885,-0.073127,0.341105
582,0.050435,-3.749790,12.371147,46.442715,7.520858,-3.572621,-15.943839,-2.428402,40.541012,0.929812,-0.122799,-0.067724,0.340271
583,0.777546,-3.349268,12.321467,72.627594,6.414562,-1.601126,-13.942547,-2.208428,40.398441,0.932194,-0.107281,-0.059852,0.340474
584,0.175037,-2.501365,12.075869,96.210777,5.917111,1.644518,-11.091084,-2.002926,40.353695,0.934679,-0.084692,-0.049655,0.341667
585,-0.051247,-0.959488,9.617510,102.410606,5.453229,5.529524,-7.691063,-1.749712,40.439518,0.936506,-0.057661,-0.037472,0.343843
586,0.374504,-0.320666,7.979490,63.949665,3.124668,2.918665,-4.790301,-1.574515,40.561600,0.937296,-0.034438,-0.027361,0.345747
587,0.293667,0.920639,7.203190,31.163628,1.748283,4.794027,-2.992387,-1.506270,40.677811,0.937372,-0.019913,-0.021395,0.347102
588,-0.380233,1.686783,6.267935,2.613566,0.857142,6.579360,-2.063016,-1.403817,40.855480,0.936968,-0.012594,-0.017761,0.348736
589,-0.211401,1.837848,6.086880,-29.990885,-1.508042,8.091552,-2.071937,-1.305196,41.089348,0.936257,-0.012933,-0.017008,0.350665
590,-0.082907,1.862489,7.061367,-52.322800,-2.208442,7.859612,-3.010835,-1.290708,41.346584,0.935331,-0.020603,-0.019809,0.352618
591,0.107313,1.652495,6.966858,-61.991058,-3.621449,9.957758,-4.513530,-1.339444,41.639118,0.934079,-0.032653,-0.024912,0.354696
592,0.635875,1.716833,6.916649,-64.872009,-3.947997,12.271063,-6.209372,-1.473769,42.010258,0.932351,-0.045954,-0.031401,0.357246
593,0.424981,0.709872,7.633365,-55.287678,-2.069583,13.917535,-7.854885,-1.589757,42.448849,0.930235,-0.058831,-0.037695,0.360251
594,0.773549,0.289242,6.070043,-26.916143,-1.625539,4.601761,-8.960225,-1.698629,42.757874,0.928665,-0.067343,-0.042232,0.362303
595,0.359831,-0.144851,4.819241,-4.945868,0.315439,-1.257792,-9.272643,-1.814608,42.811218,0.928324,-0.069485,-0.044191,0.362536
596,0.416537,-1.003422,3.728352,16.241606,1.290505,-4.373732,-9.063126,-1.889715,42.713783,0.928767,-0.067586,-0.044079,0.361775
597,0.056660,-1.722339,2.694529,33.911823,0.626728,-11.531847,-8.576154,-1.944180,42.458038,0.929857,-0.063561,-0.042840,0.359849
598,0.176486,-2.168236,1.798192,44.330837,0.629779,-13.750542,-8.019978,-2.002308,42.063297,0.931394,-0.059007,-0.041362,0.356810
599,0.239617,-2.015134,2.696844,38.381260,0.661824,-11.597464,-7.446427,-2.093815,41.669258,0.932905,-0.054196,-0.040132,0.353753
600,0.287307,-2.484631,4.151943,30.356415,1.984801,-8.125982,-6.917076,-2.138624,41.359280,0.934101,-0.049851,-0.038728,0.351385
601,0.026541,-1.911032,6.069573,19.517769,1.343913,-8.524250,-6.491471,-2.111224,41.092075,0.935096,-0.046553,-0.037091,0.349361
602,0.029787,-1.478936,8.288279,4.221892,1.321024,-7.236367,-6.262853,-2.049275,40.832699,0.935974,-0.044958,-0.035787,0.347347
603,-0.244970,-0.825148,10.549503,-9.598414,-0.761865,-4.799466,-6.368324,-1.996303,40.633026,0.936535,-0.046043,-0.035594,0.345710
604,-0.596928,-0.800043,12.265640,-17.943701,-3.741997,0.484814,-6.769852,-1.977505,40.567719,0.936564,-0.049402,-0.036624,0.345059
605,-0.075819,-0.744204,13.317793,-23.633875,-10.269905,5.144991,-7.389549,-2.109571,40.686058,0.935933,-0.054026,-0.039623,0.345746
606,0.345319,-0.873018,14.248179,-26.688780,-10.451490,4.560561,-8.143169,-2.392413,40.888973,0.934960,-0.059242,-0.044308,0.346953
607,0.028343,-1.088328,14.620344,-23.089121,-12.200201,9.409951,-8.888365,-2.693830,41.171219,0.933716,-0.064280,-0.049177,0.348747
608,1.053965,-1.601157,14.318648,-23.787992,-10.956572,7.578842,-9.606625,-3.019847,41.509109,0.932281,-0.068970,-0.054216,0.350935
609,1.074127,-2.134295,14.179149,-23.751371,-8.388439,8.617996,-10.372489,-3.324879,41.829613,0.930833,-0.074088,-0.059244,0.352919
610,1.140412,-2.569581,13.772502,-20.380602,-4.634664,6.078857,-11.114135,-3.524882,42.111263,0.929477,-0.079331,-0.063342,0.354637
611,1.072333,-2.717513,12.691791,-14.299789,-3.075168,8.518811,-11.723207,-3.634123,42.377094,0.928225,-0.083773,-0.066304,0.356348
612,1.570383,-3.209001,11.916659,-15.045967,0.233039,6.438975,-12.282201,-3.689029,42.635181,0.927006,-0.087972,-0.068683,0.358056
613,0.990702,-3.255310,11.329525,-11.946813,1.519394,6.171939,-12.833234,-3.673914,42.840805,0.925927,-0.092351,-0.070448,0.359399
614,1.098308,-3.252134,10.680637,-10.329332,3.760978,3.025480,-13.310530,-3.591936,42.977184,0.925097,-0.096383,-0.071399,0.360289
615,0.763475,-3.153377,10.233172,-8.884281,4.594134,3.954769,-13.734418,-3.459777,43.064491,0.924442,-0.100173,-0.071744,0.360868
616,0.361075,-3.252976,10.204052,-10.205731,4.279793,5.787405,-14.156729,-3.264268,43.192680,0.923631,-0.104126,-0.071618,0.361848
617,0.183041,-3.110719,9.959967,-7.398030,2.857631,7.229405,-14.549311,-3.048077,43.378616,0.922641,-0.107869,-0.071295,0.363339
618,0.071029,-2.988518,9.763762,-5.769867,1.519394,8.691240,-14.851827,-2.849007,43.620670,0.921541,-0.110797,-0.070891,0.365322
619,0.032418,-3.088771,9.694729,-3.868565,0.326120,9.876885,-15.092687,-2.673055,43.915115,0.920324,-0.113123,-0.070538,0.367739
620,0.119245,-2.886550,9.497125,-0.806033,-0.464309,8.897242,-15.310192,-2.460847,44.223579,0.919060,-0.115373,-0.069847,0.370324
621,0.154093,-2.900842,9.471400,-1.726165,-1.324931,7.536116,-15.540136,-2.239136,44.502987,0.917858,-0.117775,-0.069104,0.372679
622,0.393365,-2.856133,9.502991,-3.036935,-1.375287,5.460857,-15.773330,-2.147113,44.729359,0.916851,-0.119809,-0.069364,0.374458
623,0.370872,-2.810859,9.599481,-3.464194,-1.300516,3.377969,-15.974290,-2.150067,44.886623,0.916126,-0.121311,-0.070210,0.375590
625,0.442043,-2.693327,9.569047,-5.577601,-0.581806,0.762533,-16.152010,-2.164874,44.962578,0.915692,-0.122635,-0.070992,0.376070
626,0.479884,-2.681839,9.594409,-8.426503,0.124698,-2.055852,-16.374846,-2.190552,44.943668,0.915523,-0.124342,-0.071907,0.375749
627,0.470175,-2.666131,9.587087,-8.559258,1.214209,-3.709955,-16.637058,-2.210265,44.844528,0.915567,-0.126434,-0.072815,0.374767
628,0.458087,-2.641751,9.561144,-8.730163,2.007690,-5.397628,-16.893702,-2.214466,44.682678,0.915811,-0.128575,-0.073506,0.373305
629,0.513833,-2.587411,9.523227,-9.036874,2.850001,-6.700768,-17.145412,-2.211055,44.464672,0.916233,-0.130738,-0.074050,0.371404
630,0.483538,-2.592740,9.543296,-8.057229,3.316934,-6.618368,-17.375525,-2.195703,44.220337,0.916753,-0.132787,-0.074390,0.369321
631,0.485051,-2.549569,9.622634,-8.647763,3.527512,-6.584797,-17.588669,-2.167807,43.973919,0.917286,-0.134744,-0.074565,0.367246
632,0.487008,-2.655599,9.700882,-8.057231,3.684681,-7.211954,-17.797344,-2.138211,43.715916,0.917853,-0.136679,-0.074690,0.365083
633,0.436505,-2.600078,9.656094,-6.604549,4.046327,-7.144811,-17.969276,-2.101176,43.446140,0.918491,-0.138352,-0.074616,0.362858
634,0.445483,-2.661504,9.752923,-6.464163,4.023438,-6.838101,-18.109692,-2.055279,43.180248,0.919143,-0.139797,-0.074369,0.360696
635,0.482531,-2.732411,9.747012,-4.498772,3.838800,-5.940857,-18.219385,-2.010924,42.934574,0.919764,-0.140978,-0.074058,0.358713
636,0.443294,-2.843818,9.682572,-1.866550,3.815912,-4.547688,-18.264612,-1.959220,42.726616,0.920339,-0.141639,-0.073528,0.357083
637,0.358095,-2.810315,9.629494,-1.639187,3.493941,-3.262858,-18.269550,-1.891702,42.563068,0.920817,-0.141996,-0.072800,0.355857
638,0.334922,-2.806925,9.594603,-2.408253,2.790490,-2.458695,-18.283560,-1.823582,42.437943,0.921162,-0.142402,-0.072142,0.354934
639,0.215451,-2.714321,9.498347,-3.130016,2.062623,-1.744563,-18.319275,-1.761991,42.344250,0.921384,-0.142941,-0.071641,0.354241
640,0.169324,-2.582344,9.423575,-5.176282,1.408001,-1.936829,-18.388781,-1.709675,42.265663,0.921520,-0.143712,-0.071338,0.353636
641,0.112388,-2.538864,9.473413,-7.269852,0.689290,-2.072637,-18.514269,-1.674970,42.188721,0.921586,-0.144878,-0.071349,0.352986
642,0.149183,-2.424949,9.384885,-7.356831,-0.149969,-1.605704,-18.663639,-1.663020,42.124916,0.921588,-0.146156,-0.071632,0.352396
643,0.184126,-2.410613,9.460076,-7.634548,-0.439895,-0.838163,-18.807596,-1.668344,42.086384,0.921524,-0.147321,-0.072068,0.351988
644,0.270530,-2.384335,9.537861,-7.617763,-0.822902,-0.005008,-18.947470,-1.684522,42.076546,0.921380,-0.148402,-0.072615,0.351799
645,0.305004,-2.471322,9.671603,-7.248490,-1.433272,1.485822,-19.079102,-1.711859,42.108715,0.921121,-0.149355,-0.073280,0.351936
646,0.333892,-2.482161,9.622867,-6.154401,-2.034487,3.092621,-19.189993,-1.745086,42.196377,0.920720,-0.150086,-0.074002,0.352522
647,0.308162,-2.551614,9.698237,-6.690000,-2.676902,4.531569,-19.295368,-1.780349,42.338882,0.920157,-0.150730,-0.074796,0.353549
648,0.235304,-2.685247,9.626010,-6.311571,-3.638234,6.554946,-19.416719,-1.813328,42.545059,0.919373,-0.151465,-0.075708,0.355077
649,0.211118,-2.835528,9.553259,-5.507409,-4.474441,8.520338,-19.540298,-1.844225,42.824551,0.918353,-0.152173,-0.076709,0.357192
650,0.276944,-2.888558,9.511678,-5.537927,-5.185523,9.019314,-19.665968,-1.887297,43.151894,0.917180,-0.152822,-0.077882,0.359667
651,0.376409,-3.044491,9.525656,-5.058786,-5.695182,9.234470,-19.796906,-1.955574,43.497799,0.915944,-0.153414,-0.079302,0.362246
652,0.484825,-3.141058,9.465669,-3.226150,-5.754693,9.028471,-19.905031,-2.045428,43.847713,0.914727,-0.153743,-0.080829,0.364835
653,0.632763,-3.147618,9.488372,-2.162581,-5.383893,7.374367,-19.969252,-2.156825,44.166943,0.913668,-0.153667,-0.082349,0.367173
654,0.679290,-3.256784,9.460549,-0.241439,-4.324901,5.622605,-19.951546,-2.341063,44.423450,0.912944,-0.152738,-0.084100,0.368961
655,0.668368,-3.348361,9.408507,1.826189,-2.858486,4.237065,-19.866924,-2.558486,44.616154,0.912522,-0.151206,-0.085809,0.370240
656,0.640090,-3.297873,9.382451,3.065240,-1.431746,2.396799,-19.748241,-2.718897,44.742432,0.912331,-0.149637,-0.086864,0.371100
657,0.642263,-3.286511,9.387043,4.325654,-0.073672,0.883081,-19.597281,-2.792557,44.800789,0.912366,-0.148147,-0.087035,0.371572
658,0.593181,-3.383533,9.326248,6.962454,0.928861,-0.424637,-19.420757,-2.820247,44.803661,0.912594,-0.146648,-0.086686,0.371689
659,0.577556,-3.260535,9.316400,7.298157,1.461409,-2.583822,-19.190645,-2.857131,44.743404,0.913095,-0.144738,-0.086156,0.371329
660,0.542034,-3.214956,9.290463,7.469061,1.932920,-3.932740,-18.926739,-2.880512,44.621334,0.913829,-0.142649,-0.085334,0.370521
661,0.467066,-3.200003,9.270150,8.537209,2.232001,-4.546162,-18.652891,-2.867582,44.464935,0.914668,-0.140622,-0.084154,0.369493
662,0.374098,-3.134927,9.243487,8.566201,2.502090,-5.115333,-18.369013,-2.802575,44.287582,0.915564,-0.138697,-0.082506,0.368373
663,0.345701,-3.040107,9.317824,7.377505,2.579912,-4.834562,-18.083588,-2.701249,44.103165,0.916466,-0.136879,-0.080561,0.367240
664,0.324418,-3.062611,9.370752,7.807817,2.166386,-3.545155,-17.809055,-2.589075,43.945431,0.917260,-0.135157,-0.078600,0.366318
665,0.296882,-2.970274,9.386306,8.261017,1.415631,-2.347303,-17.524628,-2.478063,43.833504,0.917915,-0.133316,-0.076674,0.365760
666,0.362243,-2.912060,9.410975,7.475165,0.855616,-1.599600,-17.230215,-2.399848,43.758457,0.918469,-0.131260,-0.075023,0.365455
667,0.378845,-2.947889,9.519570,7.000602,0.168950,-0.851897,-16.969368,-2.365777,43.713779,0.918897,-0.129308,-0.073868,0.365310
668,0.437994,-2.881600,9.500485,6.953298,-0.400220,-0.493304,-16.729939,-2.372829,43.693237,0.919233,-0.127378,-0.073138,0.365290
669,0.454175,-2.818993,9.454721,5.909564,-0.687094,-0.056889,-16.504211,-2.413968,43.689129,0.919507,-0.125437,-0.072743,0.365349
670,0.461635,-2.765285,9.509681,4.607951,-0.902250,0.730488,-16.308790,-2.462083,43.706436,0.919679,-0.123702,-0.072524,0.365553
671,0.444976,-2.796354,9.455345,5.221373,-1.210487,1.607896,-16.134567,-2.499256,43.753147,0.919727,-0.122154,-0.072316,0.365993
672,0.488023,-2.700936,9.401196,4.397373,-1.105198,1.913081,-15.977957,-2.526087,43.820297,0.919686,-0.120767,-0.072101,0.366599
673,0.445898,-2.756850,9.358506,3.848040,-0.893094,2.102296,-15.847919,-2.545358,43.894028,0.919592,-0.119615,-0.071916,0.367249
674,0.467940,-2.836353,9.379818,3.901447,-0.464309,1.379007,-15.739179,-2.554828,43.956844,0.919506,-0.118672,-0.071709,0.367810
675,0.486641,-2.926162,9.316501,4.156277,0.126224,-0.078252,-15.702934,-2.571708,43.983574,0.919462,-0.118309,-0.071755,0.368027
676,0.446036,-2.927001,9.391803,2.308381,0.539750,-1.891052,-15.758813,-2.586147,43.956333,0.919495,-0.118728,-0.072022,0.367757
677,0.293019,-2.965358,9.468648,2.554055,0.542802,-2.235911,-15.836488,-2.544091,43.892422,0.919608,-0.119528,-0.071868,0.367245
678,0.187665,-2.791488,9.625394,2.670026,0.371898,-1.613333,-15.844954,-2.428698,43.830853,0.919765,-0.120010,-0.070907,0.366882
679,0.165816,-2.586483,9.660430,2.999626,0.115543,0.159792,-15.723425,-2.279977,43.804424,0.919935,-0.119533,-0.069299,0.366920
680,0.160607,-2.455128,9.719918,3.783951,-0.494828,2.894250,-15.550181,-2.181382,43.852924,0.919931,-0.118433,-0.068004,0.367527
681,0.314912,-2.357895,9.671398,4.479773,-1.437850,6.010190,-15.306416,-2.137472,44.000542,0.919694,-0.116533,-0.067020,0.368906
682,0.621865,-2.341430,9.402063,3.333803,-1.373761,7.122590,-15.026172,-2.183748,44.218182,0.919286,-0.114006,-0.066705,0.370764
683,0.879182,-2.563374,9.245053,-0.664121,-0.154546,5.360146,-14.947463,-2.383774,44.423923,0.918751,-0.112597,-0.068255,0.372237
684,0.952672,-2.810851,9.135138,-2.417409,2.392223,0.892236,-15.133704,-2.638530,44.520790,0.918318,-0.113191,-0.070992,0.372612
685,0.968626,-2.876094,9.114612,-4.607112,6.455762,-5.414413,-15.382639,-2.720729,44.416092,0.918431,-0.114980,-0.072354,0.371523
686,0.893409,-3.077460,9.167581,-6.552667,11.466904,-14.121343,-15.619658,-2.591109,44.025818,0.919417,-0.117551,-0.071686,0.368396
687,0.450420,-3.261988,9.339884,-6.569453,15.409893,-21.557175,-15.893281,-2.353620,43.335423,0.921271,-0.120945,-0.069938,0.362962
688,0.074400,-3.367392,9.273417,-4.553704,17.089935,-25.248390,-16.140476,-2.024379,42.439728,0.923720,-0.124518,-0.067109,0.355996
689,-0.109095,-3.426778,9.271070,-5.771393,16.351389,-24.804346,-16.384319,-1.665676,41.486164,0.926271,-0.128147,-0.063917,0.348590
690,-0.253295,-3.580891,9.143851,-6.931097,14.215093,-22.242319,-16.686800,-1.328255,40.592545,0.928506,-0.132109,-0.061086,0.341603
691,-0.459304,-3.602342,9.084733,-8.484488,10.732931,-16.016544,-17.052776,-1.026257,39.864265,0.930122,-0.136358,-0.058869,0.335877
692,-0.299583,-3.575349,9.096847,-9.421407,6.687703,-8.801967,-17.460293,-0.787103,39.384819,0.930936,-0.140613,-0.057537,0.332077
693,-0.115043,-3.447496,9.135083,-9.029245,3.646534,-2.974459,-17.860020,-0.629804,39.146549,0.931065,-0.144437,-0.057118,0.330142
694,0.005352,-3.390152,9.151233,-10.175214,0.866298,0.939540,-18.250561,-0.543237,39.091614,0.930689,-0.147887,-0.057469,0.329614
695,0.206499,-3.265309,9.196527,-12.572443,-1.526353,4.111939,-18.677534,-0.528029,39.175346,0.929884,-0.151355,-0.058684,0.330098
696,0.414516,-3.447292,9.351473,-15.903536,-2.594501,6.049864,-19.189560,-0.569675,39.358299,0.928689,-0.155291,-0.060744,0.331258
697,0.494208,-3.476845,9.604838,-21.491478,-2.153509,4.874902,-19.843214,-0.634125,39.557087,0.927243,-0.160289,-0.063433,0.332422
698,0.257944,-3.571707,9.870337,-28.524467,-1.494309,4.098206,-20.688133,-0.676382,39.719143,0.925586,-0.166905,-0.066459,0.333192
699,0.243834,-3.770684,9.948509,-33.108345,-1.016695,3.457317,-21.718330,-0.687336,39.852085,0.923667,-0.175106,-0.069743,0.333636
700,0.246566,-4.232985,9.783826,-36.410454,-0.618428,1.379006,-22.899723,-0.697769,39.937603,0.921570,-0.184534,-0.073401,0.333570
701,0.200276,-4.346755,9.361976,-37.991306,-0.111821,-3.624503,-24.185257,-0.736802,39.908985,0.919547,-0.194766,-0.077403,0.332428
702,0.117868,-4.536630,8.686350,-37.936375,-0.537554,-8.884367,-25.515438,-0.838359,39.725250,0.917816,-0.205262,-0.081739,0.329850
703,0.342667,-4.759542,8.225449,-37.895180,-1.657583,-14.885833,-26.872496,-1.060354,39.387230,0.916423,-0.215730,-0.086774,0.325728
704,0.434199,-4.945577,7.861577,-37.332108,-2.330516,-20.937651,-28.237961,-1.430533,38.891006,0.915415,-0.225974,-0.092618,0.319957
705,0.359791,-4.961053,7.797964,-36.152573,-2.177923,-24.331312,-29.563272,-1.890582,38.269669,0.914739,-0.235778,-0.098691,0.312924
706,0.306468,-5.089564,7.874538,-35.352982,-2.309153,-24.680748,-30.824142,-2.375336,37.603775,0.914176,-0.245084,-0.104551,0.305426
707,0.410924,-5.278489,8.035696,-33.415058,-2.643331,-21.096350,-32.014725,-2.843994,36.997841,0.913450,-0.253863,-0.110090,0.298401
708,0.469645,-5.517790,8.038765,-30.663815,-2.544145,-15.677787,-33.119087,-3.246706,36.530136,0.912396,-0.262033,-0.115077,0.292627
709,0.330551,-5.646286,8.051363,-27.456320,-2.583820,-10.228707,-34.123798,-3.539586,36.220303,0.911013,-0.269559,-0.119222,0.288410
710,0.280326,-5.790977,8.017530,-24.595207,-4.302012,-4.581258,-35.027973,-3.733930,36.084232,0.909307,-0.276367,-0.122697,0.285880
711,0.330241,-5.758092,8.023783,-21.717312,-6.198737,2.132814,-35.833675,-3.853841,36.153828,0.907237,-0.282359,-0.125818,0.285245
712,0.341123,-5.872252,7.978335,-17.887239,-7.472884,7.609360,-36.526081,-3.896058,36.420456,0.904875,-0.287425,-0.128540,0.286472
713,0.370890,-5.881584,8.027699,-14.003760,-8.524246,11.526411,-37.088474,-3.873245,36.836269,0.902396,-0.291450,-0.130824,0.289176
714,0.597598,-5.949115,8.290087,-11.673674,-8.327402,13.934319,-37.528927,-3.811209,37.343426,0.899943,-0.294500,-0.132755,0.292828
715,0.702338,-5.868731,8.501473,-8.202192,-6.670248,14.918543,-37.841042,-3.709779,37.874275,0.897706,-0.296608,-0.134138,0.296908
716,0.811016,-5.768737,8.557920,-4.246995,-4.887967,13.491801,-37.995323,-3.581892,38.361740,0.895948,-0.297599,-0.134811,0.300895
717,0.860468,-5.450013,8.633869,-2.774477,-3.178931,11.064055,-38.017712,-3.461540,38.760258,0.894754,-0.297643,-0.134972,0.304315
718,0.882150,-5.228879,8.608803,-1.947424,-1.707939,9.275670,-37.959930,-3.352415,39.068600,0.894003,-0.297137,-0.134772,0.307091
719,0.791241,-4.985087,8.383777,0.738204,-0.757287,8.663774,-37.551643,-3.286953,39.304169,0.894375,-0.293861,-0.133774,0.309587
720,0.730121,-4.937371,8.215178,2.567789,-0.447524,7.977107,-36.824078,-3.255407,39.496838,0.895677,-0.288045,-0.132045,0.312021
721,0.554332,-4.977386,8.131226,3.936544,-0.478043,8.979642,-36.335930,-3.154669,39.709881,0.896242,-0.284275,-0.130460,0.314513
722,0.568768,-5.343327,8.068957,5.315981,-0.874783,10.371285,-35.988518,-2.993926,39.972122,0.896262,-0.281726,-0.128901,0.317378
723,0.588993,-5.485217,8.060497,6.263580,-1.027376,9.910456,-35.581871,-2.855834,40.252792,0.896376,-0.278633,-0.127382,0.320386
724,0.573904,-5.515491,8.286116,5.750869,-0.711509,9.115449,-35.210941,-2.741187,40.518703,0.896444,-0.275773,-0.126092,0.323170
725,0.508243,-5.515014,8.351802,7.528572,-0.055361,8.312811,-34.815907,-2.615593,40.754910,0.896629,-0.272794,-0.124561,0.325768
726,0.524002,-5.529251,8.302473,9.916645,0.799157,6.954738,-34.387928,-2.488845,40.950470,0.896991,-0.269609,-0.122816,0.328077
728,0.464820,-5.355798,8.253397,14.303680,0.316965,5.390665,-33.915829,-2.380270,41.106842,0.897566,-0.266069,-0.120980,0.330070
729,0.427881,-5.182707,8.191469,19.655104,-0.084354,4.493421,-33.317856,-2.290442,41.240379,0.898491,-0.261511,-0.118859,0.331960
730,0.407761,-5.129016,7.982510,26.434788,-0.586384,3.800650,-32.527164,-2.228741,41.361469,0.899879,-0.255368,-0.116353,0.333868
731,0.488081,-5.000873,7.878952,31.784683,-1.138768,2.289984,-31.551853,-2.211022,41.462437,0.901712,-0.247653,-0.113587,0.335681
732,0.528776,-4.925397,7.926872,36.898056,-1.866635,0.667925,-30.412142,-2.251154,41.530350,0.903957,-0.238485,-0.110699,0.337242
733,0.550301,-4.873001,8.005949,40.015522,-1.050265,-1.544667,-29.146063,-2.327473,41.541977,0.906550,-0.228241,-0.107591,0.338375
734,0.574869,-4.808264,8.009497,43.322201,0.306283,-5.811154,-27.787346,-2.425829,41.440788,0.909548,-0.217269,-0.104157,0.338625
735,0.549081,-4.728697,8.075602,46.165001,1.614001,-10.309581,-26.339981,-2.546619,41.188431,0.913030,-0.205617,-0.100377,0.337672
736,0.389635,-4.497459,8.330406,48.044941,2.346445,-13.088292,-24.810110,-2.665219,40.809959,0.916864,-0.193368,-0.096166,0.335739
737,0.333506,-3.791326,8.543681,50.190392,2.923245,-16.060793,-23.164751,-2.772617,40.330727,0.920992,-0.180244,-0.091441,0.333053
738,0.198636,-3.151878,8.874137,49.123768,3.031586,-16.610128,-21.427183,-2.860261,39.786713,0.925227,-0.166408,-0.086296,0.329872
739,-0.002544,-2.779403,9.457429,46.213829,2.138919,-14.214424,-19.704750,-2.904686,39.270958,0.929118,-0.152717,-0.081000,0.326888
740,-0.050266,-2.178237,9.800762,44.085163,0.127750,-10.648337,-18.027039,-2.927141,38.860607,0.932429,-0.139305,-0.075889,0.324671
741,0.155989,-1.827871,9.929733,39.887348,-2.060428,-7.529346,-16.429153,-2.982163,38.573254,0.935105,-0.126310,-0.071486,0.323285
742,0.253714,-1.854516,10.031344,33.843155,-4.237923,-5.765376,-15.021606,-3.098236,38.381012,0.937147,-0.114594,-0.068264,0.322433
743,0.317847,-1.709056,9.833821,32.036461,-5.919493,-4.269969,-13.778239,-3.268453,38.254719,0.938711,-0.104003,-0.066037,0.321939
744,0.310687,-1.633116,9.456463,28.883896,-7.387432,-1.378341,-12.646349,-3.472236,38.208218,0.939838,-0.094168,-0.064483,0.321992
745,0.519987,-1.859862,9.411503,21.255796,-8.693624,0.266607,-11.745049,-3.715586,38.243500,0.940459,-0.086055,-0.063968,0.322552
746,0.484510,-1.981437,9.516341,16.053917,-8.803491,1.330177,-11.110745,-3.980579,38.326889,0.940686,-0.080041,-0.064411,0.323349
747,0.594199,-2.147311,9.478109,12.806747,-8.364025,4.702472,-10.661605,-4.225699,38.481789,0.940548,-0.075560,-0.065253,0.324658
748,0.730542,-2.514275,9.587962,6.574869,-7.790277,6.435923,-10.427174,-4.450275,38.719482,0.940014,-0.072848,-0.066579,0.326549
749,0.995408,-2.389127,9.551385,2.938588,-6.467299,5.375405,-10.518310,-4.714561,38.974892,0.939209,-0.072673,-0.069163,0.328361
750,0.983031,-2.088258,9.250890,0.220915,-4.225715,4.105835,-10.689528,-4.942049,39.180359,0.938493,-0.073282,-0.071645,0.329738
751,0.834254,-1.887292,9.254470,-6.249009,-2.794398,2.877466,-10.839809,-5.051722,39.320255,0.937984,-0.074101,-0.073063,0.330690
752,0.758863,-1.885996,9.499887,-10.175214,-1.236428,0.849511,-11.135425,-5.099938,39.395706,0.937569,-0.076329,-0.074359,0.331074
753,0.781904,-1.725701,9.661164,-7.962622,-0.369702,-1.709466,-11.429186,-5.114981,39.386135,0.937396,-0.078694,-0.075324,0.330789
754,0.782510,-1.887203,10.053546,-4.402638,0.162846,-5.241984,-11.602570,-5.125387,39.270779,0.937608,-0.080158,-0.075829,0.329721
755,0.755465,-2.104560,10.405429,4.202054,0.762535,-9.891479,-11.571355,-5.138430,39.018490,0.938353,-0.080031,-0.075669,0.327664
756,0.817490,-2.063023,10.180878,19.000479,1.327127,-14.432632,-11.144650,-5.162807,38.612293,0.939798,-0.076729,-0.074376,0.324592
757,0.692634,-1.745143,9.857334,30.501379,1.581957,-17.727106,-10.255842,-5.191338,38.073311,0.941881,-0.069692,-0.071763,0.320708
758,0.586131,-1.493835,9.702260,36.875168,1.813897,-19.004307,-9.044671,-5.200644,37.455498,0.944283,-0.060075,-0.068122,0.316355
759,0.577310,-1.250257,9.590308,42.043476,1.519394,-18.006351,-7.634365,-5.190461,36.832127,0.946664,-0.048826,-0.063876,0.312031
760,0.480731,-0.978741,9.604432,46.668556,1.272194,-14.624899,-6.063826,-5.157231,36.281891,0.948743,-0.036224,-0.059146,0.308344
761,0.746311,-0.906974,9.639088,47.664986,1.673512,-11.547108,-4.421314,-5.109011,35.839870,0.950363,-0.022963,-0.054233,0.305517
762,1.052835,-1.020081,9.923153,43.342037,1.710134,-10.561359,-2.881246,-5.077951,35.468323,0.951584,-0.010434,-0.049831,0.303145
763,1.341790,-1.105637,10.150200,39.482971,1.874934,-13.976380,-1.524017,-5.075776,35.060417,0.952716,0.000667,-0.046222,0.300325
764,1.544525,-0.929917,10.227456,36.293789,2.509719,-21.444260,-0.295505,-5.086476,34.473026,0.954180,0.010688,-0.043144,0.295915
765,1.653786,-0.741086,10.101869,28.345245,2.842371,-30.581501,0.765224,-5.090640,33.609489,0.956244,0.019225,-0.040583,0.289103
766,1.720619,-0.657252,10.226401,18.144434,1.099764,-43.602222,1.547125,-5.109354,32.377373,0.959139,0.025378,-0.039041,0.279077
767,1.752727,-0.442003,9.959930,13.772659,-0.746606,-58.812653,2.127210,-5.166925,30.673052,0.963022,0.029803,-0.038557,0.264980
768,1.557777,0.004633,9.734952,9.216246,-1.979553,-72.123299,2.632563,-5.232658,28.488230,0.967732,0.033471,-0.038586,0.246749
769,1.249686,0.083926,9.767136,0.689374,-4.236397,-82.023499,2.981530,-5.285954,25.911549,0.972908,0.035661,-0.039097,0.225054
770,1.150704,0.146710,9.880755,-1.573573,-6.471878,-91.078339,3.182684,-5.353488,23.014988,0.978193,0.036496,-0.040211,0.200472
771,0.995409,0.467955,9.809225,1.684277,-6.845729,-97.162201,3.448857,-5.416454,19.861309,0.983226,0.037753,-0.041337,0.173586
772,0.855517,0.592967,9.811337,4.273773,-6.203314,-101.453102,3.856923,-5.421456,16.532331,0.987715,0.040060,-0.041943,0.145105
773,0.864436,0.655708,9.872808,7.322572,-5.783685,-105.859978,4.375508,-5.361183,13.059704,0.991499,0.043200,-0.042094,0.115287
774,0.841543,0.939612,9.740624,13.421697,-4.804041,-109.896049,5.067605,-5.229517,9.448590,0.994425,0.047766,-0.041784,0.084205
775,0.688202,1.112807,9.661762,13.650585,-4.242501,-110.935204,5.880293,-5.006600,5.757074,0.996359,0.053370,-0.040991,0.052342
776,0.539131,1.082970,9.781919,8.317476,-4.704856,-107.369118,6.578993,-4.721983,2.113211,0.997292,0.058081,-0.040063,0.020758
777,0.257348,1.192866,10.129260,3.024041,-6.023256,-99.730339,7.050740,-4.427360,-1.342794,0.997322,0.060989,-0.039271,-0.009312
778,0.012254,1.128953,10.147376,0.458961,-6.821315,-89.619553,7.338402,-4.150623,-4.505495,0.996616,0.062484,-0.038625,-0.036886
779,0.158004,1.153330,9.953424,-2.684446,-7.846736,-81.243759,7.485059,-3.931538,-7.364202,0.995365,0.062902,-0.038348,-0.061811
780,0.474747,1.171402,9.924184,-6.393970,-8.414380,-78.016426,7.495848,-3.799276,-10.034245,0.993681,0.062188,-0.038665,-0.085060
781,0.452038,1.124641,9.855556,-7.985512,-7.767388,-78.901451,7.407119,-3.698322,-12.665167,0.991536,0.060615,-0.039125,-0.107940
782,0.390903,1.138961,9.721620,-11.214369,-7.742973,-82.556046,7.237473,-3.579622,-15.369665,0.988824,0.058351,-0.039327,-0.131438
783,0.372828,1.148557,9.897806,-16.292646,-9.560351,-86.338821,6.936832,-3.483459,-18.201309,0.985439,0.054911,-0.039521,-0.155991
784,0.053432,0.949144,9.965500,-24.888186,-10.549150,-89.515785,6.402482,-3.419208,-21.153372,0.981345,0.049402,-0.039527,-0.181546
785,-0.232288,0.839434,10.020341,-27.270159,-10.741416,-87.425278,5.670593,-3.364903,-24.124863,0.976606,0.042224,-0.039009,-0.207211
786,-0.242577,0.843847,9.929165,-24.000097,-12.983002,-81.565727,4.953434,-3.379896,-26.968220,0.971401,0.035134,-0.038723,-0.231617
787,-0.033674,0.924745,9.790693,-19.423847,-14.008423,-73.743835,4.383599,-3.512994,-29.588840,0.965986,0.029138,-0.039375,-0.253911
788,0.249707,1.057084,9.546809,-17.554588,-13.076083,-65.897514,3.946712,-3.723527,-31.948906,0.960615,0.024152,-0.040687,-0.273825
789,0.526901,1.021706,9.741351,-13.573450,-11.377728,-55.129059,3.615097,-3.963672,-33.995686,0.955587,0.020042,-0.042271,-0.290972
790,0.630642,0.977535,9.799370,-9.566369,-10.718528,-44.526928,3.401431,-4.217604,-35.683380,0.951178,0.016963,-0.044099,-0.305006
791,0.824729,1.119173,9.869440,-6.075053,-8.504410,-35.350018,3.307623,-4.462249,-37.039421,0.947458,0.014985,-0.046059,-0.316193
792,1.111174,1.113597,9.870433,1.951315,-5.638723,-25.451340,3.398141,-4.668766,-38.073883,0.944503,0.014725,-0.048150,-0.324622
793,0.884175,0.739686,10.064328,14.328095,-2.895108,-14.919403,3.774905,-4.796313,-38.760689,0.942456,0.017165,-0.050371,-0.330067
794,0.665110,0.768362,9.766260,23.547737,-0.812220,-7.184487,4.456506,-4.823540,-39.135590,0.941247,0.022519,-0.052631,-0.332831
795,0.842238,0.697031,9.969314,23.218138,1.723868,-2.498370,5.252586,-4.782640,-39.295845,0.940611,0.029101,-0.054647,-0.333793
796,0.711893,0.566105,10.044254,24.397676,4.089053,0.739644,6.016677,-4.673883,-39.312992,0.940366,0.035685,-0.055986,-0.333622
797,0.471373,0.460019,10.026642,19.412479,3.902890,1.113495,6.675337,-4.510931,-39.261684,0.940320,0.041595,-0.056549,-0.332971
798,0.661139,0.739054,9.830966,10.218779,3.625170,-1.685052,7.007439,-4.327032,-39.243023,0.940275,0.044870,-0.056000,-0.332765
799,0.846261,0.876187,10.082963,5.257995,3.214697,-4.259288,7.127359,-4.173988,-39.316254,0.940034,0.046269,-0.055125,-0.333402
800,0.682304,1.091275,9.813177,6.548928,2.375438,-6.044620,7.271019,-4.054729,-39.470581,0.939538,0.047725,-0.054630,-0.334673
801,0.715388,1.170845,9.733217,1.971152,1.258460,-7.335554,7.383737,-3.956701,-39.681305,0.938883,0.048840,-0.054247,-0.336408
802,0.718053,1.247756,9.841659,-0.717528,1.617053,-7.234842,7.413624,-3.881733,-39.916016,0.938186,0.049197,-0.053822,-0.338364
803,0.688351,1.281859,9.890808,-0.918951,1.778801,-4.695702,7.396757,-3.803144,-40.106182,0.937637,0.049206,-0.053212,-0.339978
804,0.755652,1.253979,9.829794,-0.186506,1.705557,-1.291363,7.377667,-3.761439,-40.197430,0.937377,0.049133,-0.052853,-0.340759
805,0.807345,1.248589,9.816284,-0.047648,1.522446,1.800162,7.359986,-3.782194,-40.181217,0.937431,0.048933,-0.052963,-0.340622
806,0.867324,1.255776,9.814584,-0.036965,1.476668,4.040221,7.341852,-3.851583,-40.077385,0.937742,0.048625,-0.053432,-0.339737
807,0.931453,1.289935,9.780481,0.280426,1.209631,5.094635,7.340330,-3.965098,-39.920624,0.938196,0.048346,-0.054289,-0.338384
808,1.012207,1.291200,9.807731,0.494057,0.497024,5.314368,7.357316,-4.130033,-39.745644,0.938688,0.048077,-0.055614,-0.336839
809,1.064229,1.332760,9.783273,0.886219,-0.294932,4.890161,7.395690,-4.343449,-39.578163,0.939139,0.047840,-0.057402,-0.335311
810,1.092838,1.318933,9.808647,1.139523,-0.934295,4.186708,7.450995,-4.582267,-39.432953,0.939510,0.047660,-0.059457,-0.333939
811,1.129676,1.281646,9.852060,2.160366,-1.471420,3.553450,7.507043,-4.831901,-39.310875,0.939805,0.047447,-0.061613,-0.332744
812,1.159103,1.359964,9.786257,3.858722,-1.730828,3.077362,7.616688,-5.087519,-39.209782,0.940012,0.047648,-0.063981,-0.331684
813,1.110991,1.417154,9.774405,3.623729,-1.640798,2.845421,7.784953,-5.315931,-39.124088,0.940149,0.048406,-0.066301,-0.330729
814,1.057595,1.420502,9.800301,3.161374,-1.538561,2.924769,7.944431,-5.487117,-39.040993,0.940288,0.049261,-0.068127,-0.329834
815,1.041418,1.434641,9.802745,3.004203,-1.395124,3.223851,8.080189,-5.614498,-38.950050,0.940466,0.050056,-0.069520,-0.328915
816,1.001363,1.484052,9.771296,2.230559,-1.207435,3.599228,8.203763,-5.707770,-38.847736,0.940686,0.050860,-0.070593,-0.327932
817,0.961166,1.418522,9.797350,0.956411,-1.067050,4.081421,8.274235,-5.764066,-38.728798,0.940983,0.051348,-0.071203,-0.326871
818,0.984968,1.401603,9.792519,1.145626,-1.016695,4.111939,8.291386,-5.806073,-38.597511,0.941341,0.051449,-0.071537,-0.325750
819,0.974201,1.401562,9.799554,1.501167,-0.864102,3.915095,8.308410,-5.843225,-38.467567,0.941694,0.051562,-0.071831,-0.324645
820,0.969396,1.433839,9.784810,1.920796,-0.771020,3.585495,8.346977,-5.866784,-38.346565,0.942014,0.051887,-0.072079,-0.323608
821,0.978696,1.460972,9.778168,2.210722,-0.696250,3.135347,8.413755,-5.884407,-38.239643,0.942281,0.052453,-0.072363,-0.322674
822,0.998078,1.507191,9.811189,2.119167,-0.635213,2.364755,8.500429,-5.902042,-38.154152,0.942478,0.053169,-0.072712,-0.321903
823,0.953089,1.518722,9.802152,1.992515,-0.481095,1.823051,8.593445,-5.903015,-38.090721,0.942612,0.053971,-0.072951,-0.321321
824,0.953591,1.481734,9.820683,1.774307,-0.388013,1.473614,8.665523,-5.883975,-38.039761,0.942725,0.054651,-0.072973,-0.320871
825,0.954373,1.502406,9.778354,1.887226,-0.244576,1.272192,8.724856,-5.861691,-37.996128,0.942823,0.055231,-0.072935,-0.320491
826,0.953418,1.495336,9.785221,1.121211,-0.104191,1.052459,8.772815,-5.836634,-37.958656,0.942910,0.055721,-0.072845,-0.320172
827,0.936548,1.486042,9.783731,0.646648,-0.008058,0.812888,8.790540,-5.803708,-37.927155,0.942996,0.055981,-0.072609,-0.319927
828,0.957527,1.479678,9.798587,0.373508,-0.067569,0.469555,8.788441,-5.772476,-37.904396,0.943066,0.056067,-0.072336,-0.319765
829,0.938925,1.508578,9.771069,0.178189,-0.133183,0.150637,8.785907,-5.745756,-37.893566,0.943103,0.056130,-0.072104,-0.319698
831,0.938678,1.485000,9.829442,-0.387929,-0.175909,-0.073674,8.772031,-5.716089,-37.892048,0.943120,0.056101,-0.071821,-0.319717
832,0.984421,1.503692,9.814082,-0.072063,-0.351391,-0.241526,8.752220,-5.703709,-37.897343,0.943117,0.055970,-0.071667,-0.319783
833,1.020253,1.511020,9.764828,0.088160,-0.384961,-0.490252,8.753031,-5.720866,-37.911255,0.943075,0.055919,-0.071817,-0.319883
834,1.065339,1.526027,9.723193,-0.404714,-0.211006,-0.583333,8.760210,-5.760374,-37.931599,0.943007,0.055853,-0.072171,-0.320016
835,1.113992,1.543257,9.758138,-2.354846,-0.130132,-0.682519,8.736067,-5.819284,-37.955383,0.942940,0.055471,-0.072599,-0.320181
836,1.129873,1.478396,9.742551,-3.538965,-0.258309,-0.598593,8.650074,-5.865137,-37.978535,0.942908,0.054617,-0.072746,-0.320391
837,1.100768,1.400505,9.784983,-4.735290,-0.363598,-0.775600,8.507008,-5.887112,-38.002026,0.942905,0.053362,-0.072537,-0.320658
838,1.086439,1.380671,9.766813,-5.487571,-0.517717,-0.777126,8.327431,-5.908949,-38.028660,0.942908,0.051805,-0.072226,-0.320975
839,1.001293,1.243607,9.838975,-9.256606,-1.021272,-1.758296,8.066604,-5.931506,-38.072327,0.942896,0.049567,-0.071699,-0.321481
840,0.947138,1.049711,9.938100,-13.837435,-2.448012,-5.222147,7.655008,-5.964643,-38.192093,0.942723,0.046011,-0.070864,-0.322699
841,0.964007,1.090679,9.959037,-19.695463,-4.581256,-10.840604,7.082568,-6.034135,-38.469814,0.942138,0.040932,-0.069921,-0.325288
842,1.016998,1.049999,9.769096,-27.259474,-5.870663,-14.388380,6.317344,-6.150512,-38.907288,0.941108,0.034041,-0.068833,-0.329272
843,1.069972,0.900808,9.860179,-38.900761,-6.516130,-17.374615,5.248924,-6.301199,-39.455292,0.939749,0.024504,-0.067113,-0.334317
844,1.269107,0.862159,9.931484,-41.514671,-7.262307,-18.006351,3.959480,-6.495053,-40.063091,0.938106,0.013011,-0.065005,-0.339945
845,1.377717,0.939276,9.657325,-35.359089,-6.333019,-14.128974,2.758221,-6.721632,-40.615944,0.936446,0.002192,-0.063302,-0.345046
846,1.451017,0.898965,9.565842,-27.979710,-3.529894,-6.998324,1.797895,-6.915262,-40.982178,0.935238,-0.006440,-0.061970,-0.348495
847,1.458961,0.803931,9.855413,-15.238234,-1.048739,1.139436,1.157960,-7.031417,-41.089909,0.934805,-0.012075,-0.060959,-0.349684
848,1.491239,0.767009,9.694010,9.336794,1.572801,11.285315,1.237124,-7.130845,-40.905758,0.935327,-0.011634,-0.062030,-0.348111
849,1.344339,0.700772,9.423140,24.654034,4.954252,19.922052,1.943503,-7.133852,-40.404881,0.936890,-0.005597,-0.064224,-0.343629
850,1.255742,0.546596,9.758094,27.493780,8.120547,24.377752,2.773985,-6.960712,-39.659901,0.939192,0.002141,-0.065286,-0.337123
851,1.078877,0.484895,9.806724,33.769913,8.700398,25.662584,3.709776,-6.721460,-38.807659,0.941715,0.011012,-0.065999,-0.329689
852,1.055234,0.625297,9.693056,30.777573,7.487287,22.606152,4.690671,-6.496428,-37.980015,0.944020,0.020211,-0.066828,-0.322416
853,0.945793,0.718529,9.812320,19.574228,5.622607,16.217106,5.448659,-6.316979,-37.311089,0.945788,0.027360,-0.067325,-0.316550
854,0.954198,0.843298,9.993055,11.868303,3.344401,9.155122,5.910860,-6.186393,-36.871197,0.946917,0.031800,-0.067404,-0.312718
855,0.945051,1.013390,9.773299,10.115016,0.654194,4.186710,6.245306,-6.098060,-36.640694,0.947473,0.034945,-0.067518,-0.310668
856,1.005418,1.046350,9.829025,3.695447,-0.555865,0.922755,6.458442,-6.056843,-36.554245,0.947652,0.036872,-0.067728,-0.309852
857,0.966399,1.032576,9.813046,3.124752,-0.381909,-0.606222,6.540693,-6.035335,-36.547386,0.947650,0.037615,-0.067770,-0.309760
858,1.003971,1.032802,9.809149,2.506751,-0.261361,-1.128089,6.588591,-6.008395,-36.572277,0.947575,0.038071,-0.067686,-0.309954
859,1.016180,1.035122,9.791048,2.085596,-0.124028,-0.931244,6.614589,-5.993912,-36.601608,0.947491,0.038308,-0.067646,-0.310190
860,1.038995,1.043746,9.830846,1.727004,-0.012635,-0.757289,6.625700,-5.987459,-36.624184,0.947428,0.038405,-0.067631,-0.310374
861,1.059505,1.071581,9.810547,1.939107,0.146061,-0.284252,6.641275,-5.990563,-36.636326,0.947389,0.038518,-0.067703,-0.310464
862,1.077903,1.073924,9.795571,1.769729,0.252876,0.260503,6.664220,-6.003531,-36.631897,0.947389,0.038674,-0.067870,-0.310405
863,1.045818,1.084450,9.807618,1.199033,0.252876,0.524489,6.675279,-6.011611,-36.613995,0.947432,0.038754,-0.067961,-0.310246
864,1.021140,1.098655,9.826297,1.047966,0.167424,0.823570,6.677784,-6.003837,-36.587334,0.947505,0.038812,-0.067895,-0.310029
865,1.048383,1.137068,9.802481,1.427922,-0.030947,1.058562,6.697902,-6.002495,-36.553879,0.947589,0.039002,-0.067926,-0.309741
866,1.045668,1.149769,9.795292,0.980826,-0.194221,1.133333,6.731056,-6.015999,-36.517498,0.947672,0.039261,-0.068115,-0.309412
867,1.046381,1.177874,9.818617,0.735152,-0.334606,0.796103,6.761720,-6.032218,-36.487000,0.947740,0.039488,-0.068321,-0.309131
868,1.054226,1.183373,9.834893,0.960989,-0.404798,0.570266,6.798198,-6.050482,-36.466816,0.947777,0.039751,-0.068563,-0.308931
869,1.069193,1.205223,9.822702,1.217344,-0.386487,0.460399,6.847671,-6.073539,-36.452808,0.947791,0.040106,-0.068882,-0.308771
870,1.034722,1.203272,9.837988,0.977774,-0.238472,0.588577,6.898658,-6.086085,-36.438320,0.947809,0.040501,-0.069118,-0.308612
871,1.039246,1.206262,9.820107,1.273804,-0.078250,0.904444,6.945107,-6.084156,-36.415325,0.947854,0.040905,-0.069219,-0.308395
872,1.030824,1.194384,9.808656,1.218870,0.110965,1.458355,6.987569,-6.077479,-36.376484,0.947945,0.041298,-0.069264,-0.308053
873,1.037803,1.212303,9.788737,1.197508,0.260505,2.045836,7.025090,-6.068477,-36.317795,0.948092,0.041668,-0.069269,-0.307550
874,1.022960,1.212474,9.804132,0.639019,0.321542,2.393747,7.052635,-6.056532,-36.243259,0.948285,0.041974,-0.069217,-0.306925
875,1.022074,1.199187,9.803785,0.265168,0.309335,2.596695,7.056118,-6.041057,-36.158665,0.948514,0.042096,-0.069068,-0.306233
876,1.025668,1.202494,9.817700,-0.062906,0.191838,2.561599,7.042751,-6.029846,-36.071037,0.948756,0.042069,-0.068907,-0.305522
877,1.004003,1.191607,9.817816,-0.232285,0.060609,2.349495,7.019416,-6.017990,-35.987812,0.948990,0.041958,-0.068717,-0.304855
878,1.010167,1.151940,9.871161,0.007287,-0.101139,2.000059,6.983805,-6.005141,-35.913010,0.949205,0.041742,-0.068489,-0.304265
