seq,ax,ay,az,wroll,wpitch,wyaw,roll,pitch,yaw,q0,q1,q2,q3
60,-0.380289,-9.198348,-0.138554,-22.954113,0.502596,8.498020,-90.863029,2.367218,-110.036530,0.414302,-0.396473,0.591890,-0.566418
61,-1.216242,-7.753992,-6.004651,-15.236768,3.882110,31.868008,-91.503647,3.038314,-110.123581,0.415034,-0.394925,0.597609,-0.560932
62,-1.495001,-7.833527,-6.066038,-8.401500,4.058691,32.059895,-91.907700,4.099510,-110.286430,0.418189,-0.390134,0.603653,-0.555442
63,-1.491213,-7.920238,-6.043715,-6.281171,2.766944,26.276676,-92.164207,5.067124,-110.434586,0.421456,-0.385342,0.608539,-0.550969
64,-1.636768,-8.135528,-5.620360,-26.235382,6.458503,13.839687,-92.723366,5.728508,-110.617462,0.422020,-0.383034,0.613941,-0.546133
65,-1.866574,-8.056460,-5.178855,-1.719326,10.120819,-4.162937,-93.217972,5.875085,-110.904694,0.419738,-0.382557,0.617714,-0.543967
66,-1.992251,-8.232866,-4.673650,4.645617,14.998420,-16.167555,-93.208626,5.513915,-111.306015,0.416034,-0.382207,0.617879,-0.546863
67,-1.956672,-8.486922,-4.433456,17.772366,14.518932,-28.539618,-92.875298,4.743936,-111.759644,0.411058,-0.382504,0.615375,-0.553205
68,-1.955039,-8.940786,-4.434537,29.416941,15.082457,-33.978100,-92.121391,3.682044,-112.208664,0.405976,-0.382862,0.609825,-0.562773
69,-1.857968,-9.048836,-5.015153,31.715002,17.486429,-27.019857,-91.130966,2.650984,-112.723679,0.401462,-0.381957,0.603297,-0.573559
70,-1.717622,-9.331059,-5.505888,25.047560,14.431453,-20.025375,-90.206139,1.860801,-113.247429,0.397858,-0.380081,0.597776,-0.583019
71,-1.505529,-9.219924,-5.876218,12.962345,11.323200,-14.929810,-89.584602,1.279027,-113.677948,0.394741,-0.378724,0.594091,-0.589749
72,-1.186215,-8.717283,-5.952936,-5.047294,13.918144,-9.289373,-89.460701,0.878673,-114.101761,0.390914,-0.378194,0.593518,-0.593205
73,-1.039195,-8.070827,-6.282796,-20.830515,14.128821,-4.252124,-89.898499,0.655029,-114.570015,0.385893,-0.378415,0.596588,-0.593272
74,-0.912891,-7.724104,-5.920167,-27.493683,9.945929,-0.088663,-90.708359,0.580036,-114.970459,0.380757,-0.379420,0.601849,-0.590629
75,-0.776097,-7.633500,-5.986944,-23.796604,6.586988,2.496757,-91.566109,0.614263,-115.246452,0.376674,-0.380621,0.607282,-0.586901
76,-0.728249,-7.454711,-6.014450,-20.113504,3.488494,4.398654,-92.299973,0.723323,-115.417984,0.373934,-0.381551,0.611950,-0.583189
77,-0.708272,-7.249949,-5.995525,-16.059708,0.391695,6.086055,-92.903900,0.894832,-115.490387,0.372465,-0.382252,0.615801,-0.579606
78,-0.687422,-7.232543,-5.756473,-10.308567,-0.641607,7.654346,-93.343544,1.123609,-115.498566,0.372176,-0.382469,0.618768,-0.576480
79,-0.765369,-7.265174,-5.986163,-4.035511,-1.826275,6.270127,-93.582047,1.357713,-115.471375,0.372766,-0.382198,0.620608,-0.574295
80,-0.791277,-7.323397,-6.020358,-0.687196,-2.198885,3.075104,-93.659340,1.517357,-115.414154,0.373647,-0.381947,0.621303,-0.573138
81,-0.695837,-7.724301,-5.925748,-22.847109,-1.096702,1.156887,-94.050240,1.591403,-115.364059,0.372988,-0.383116,0.623317,-0.570594
82,-0.637258,-8.205916,-5.771247,-0.359434,-0.449329,-6.628702,-94.436134,1.502471,-115.331787,0.371379,-0.384996,0.624851,-0.568698
83,-0.423250,-8.442614,-5.330594,-4.020336,0.495317,-13.624731,-94.508553,1.165833,-115.306572,0.369450,-0.387066,0.624080,-0.569395
84,-0.121284,-8.746973,-4.768648,-6.155199,0.753260,-21.791447,-94.677773,0.575808,-115.279999,0.365826,-0.390719,0.622987,-0.570436
85,0.095973,-8.817575,-4.385079,-6.696775,0.234661,-26.105299,-94.891800,-0.221025,-115.229828,0.361023,-0.395650,0.621368,-0.571861
86,0.399210,-8.765658,-4.075671,-5.965915,-1.037402,-26.361517,-95.103828,-1.090941,-115.140366,0.355992,-0.401110,0.619341,-0.573408
87,0.483898,-8.769910,-3.981579,-4.696194,-3.217464,-22.732851,-95.285225,-1.899374,-114.995667,0.351650,-0.406428,0.617129,-0.574727
88,0.624039,-8.641832,-3.854976,-2.057600,-5.506039,-16.150335,-95.405556,-2.531067,-114.790413,0.348777,-0.410985,0.614937,-0.575585
89,0.707011,-8.568842,-3.998003,-1.317869,-7.440086,-6.645097,-95.473503,-2.888869,-114.539398,0.347823,-0.414275,0.613195,-0.575662
90,0.757032,-8.401514,-3.921207,-1.995796,-8.698868,0.738523,-95.542694,-2.961052,-114.261833,0.348567,-0.416319,0.612297,-0.574693
91,0.673377,-8.294741,-3.850673,-1.480328,-9.401874,6.645607,-95.615013,-2.809228,-113.973152,0.350585,-0.417349,0.612114,-0.572911
92,0.727416,-8.174660,-4.055067,-0.018894,-10.712627,10.444343,-95.654030,-2.492872,-113.667152,0.353707,-0.417576,0.612245,-0.570681
93,0.529085,-8.407166,-4.363115,-0.372826,-11.975439,14.142498,-95.673798,-2.047814,-113.330994,0.357740,-0.417285,0.612596,-0.567997
94,0.165915,-8.659208,-4.684833,-0.191741,-12.848187,18.885572,-95.694077,-1.459081,-112.973671,0.362640,-0.416415,0.613344,-0.564712
95,-0.210887,-8.870893,-4.955678,0.776137,-13.583888,23.175165,-95.691246,-0.717861,-112.604790,0.368479,-0.414792,0.614433,-0.560931
96,-0.621813,-9.011225,-5.079333,0.522134,-14.090251,26.035084,-95.671402,0.143863,-112.226990,0.375032,-0.412569,0.615791,-0.556722
97,-1.234991,-9.070756,-4.958249,-0.199705,-13.611867,28.135201,-95.661987,1.087816,-111.856728,0.381904,-0.409926,0.617480,-0.552113
98,-1.916953,-9.024738,-4.782866,0.383522,-12.778900,27.905861,-95.649307,2.060569,-111.511009,0.388769,-0.406985,0.619315,-0.547422
99,-2.257055,-8.721281,-4.625982,0.716748,-11.617626,22.976723,-95.616875,2.944339,-111.189293,0.395070,-0.404269,0.620838,-0.543182
100,-2.539737,-8.576076,-4.523238,-1.219459,-9.503181,17.060162,-95.608925,3.642799,-110.903755,0.400101,-0.402343,0.622005,-0.539582
101,-2.925237,-8.312691,-4.516266,-18.667488,-6.199516,20.926394,-95.926781,4.299019,-110.706642,0.403330,-0.401287,0.624862,-0.534642
102,-3.090397,-8.070623,-4.616590,-21.157373,-2.255415,14.954912,-96.584297,4.909125,-110.632240,0.404550,-0.401000,0.629540,-0.528410
103,-2.906055,-7.991917,-4.531849,-6.735298,2.286876,-1.592170,-97.051445,5.130352,-110.659721,0.403942,-0.401408,0.632460,-0.525068
104,-2.899858,-7.928954,-4.447532,-7.589142,7.054095,-5.130699,-97.302589,4.999845,-110.801079,0.401731,-0.402151,0.633709,-0.524690
105,-2.876301,-7.894727,-4.443690,-6.044518,10.820678,-7.411012,-97.552719,4.754129,-111.070511,0.398327,-0.402736,0.635057,-0.525208
106,-2.618211,-7.999237,-4.500702,-5.594225,12.805655,-7.925450,-97.775368,4.448382,-111.427887,0.394287,-0.403017,0.636410,-0.526400
107,-2.227470,-8.132529,-4.542346,-5.535841,14.051307,-7.419837,-97.991531,4.133697,-111.837364,0.389970,-0.403015,0.637896,-0.527817
108,-1.918401,-8.209629,-4.782866,-6.340900,14.723542,-7.050685,-98.220184,3.827332,-112.279182,0.385488,-0.402817,0.639584,-0.529216
110,-1.428339,-8.282184,-4.949980,-9.614961,15.916481,-9.165240,-98.515907,3.485616,-112.746010,0.380449,-0.402856,0.641570,-0.530428
111,-0.833517,-8.339211,-4.961227,-15.291351,17.394096,-11.284913,-98.959389,3.064321,-113.243713,0.374295,-0.403564,0.644121,-0.531175
112,-0.333445,-8.411933,-4.842327,-17.959681,19.213627,-13.465391,-99.539810,2.558967,-113.780121,0.366990,-0.404852,0.647208,-0.531540
113,0.126120,-8.431809,-4.947937,-18.013269,19.978767,-15.024120,-100.161568,1.979386,-114.342850,0.358967,-0.406409,0.650378,-0.531962
114,0.585231,-8.323101,-4.851894,-16.718372,19.682144,-15.174999,-100.756630,1.364502,-114.901756,0.350812,-0.407993,0.653325,-0.532577
115,0.844095,-8.293999,-4.842444,-13.137696,17.424864,-12.589315,-101.263954,0.792245,-115.420563,0.343353,-0.409267,0.655863,-0.533342
116,0.859343,-8.441162,-4.960640,-8.933442,14.149620,-9.814348,-101.636108,0.321914,-115.862236,0.337283,-0.410048,0.657804,-0.534223
117,0.877451,-8.328367,-5.160006,-8.685711,9.864969,-7.673386,-101.930573,-0.045067,-116.194565,0.332572,-0.410714,0.659301,-0.534820
118,1.013505,-8.354486,-4.834771,-9.312600,6.286273,-5.614044,-102.229828,-0.318024,-116.411392,0.328912,-0.411599,0.660682,-0.534698
119,1.005734,-8.437871,-4.888944,-9.847593,3.225818,-4.291252,-102.548279,-0.513355,-116.530746,0.326078,-0.412726,0.662030,-0.533897
120,0.983465,-8.449685,-4.768095,-11.378177,0.829844,-3.492155,-102.901627,-0.654848,-116.568039,0.323807,-0.414166,0.663399,-0.532463
121,1.077735,-8.349896,-4.718296,-11.368175,-1.389879,-2.583052,-103.281105,-0.751417,-116.535965,0.322019,-0.415865,0.664764,-0.530518
122,1.087021,-8.482672,-4.674076,-10.342518,-3.078802,-1.056195,-103.644096,-0.793118,-116.449371,0.320855,-0.417576,0.666006,-0.528316
123,0.927112,-8.463991,-4.897902,-9.909447,-4.813788,0.526848,-103.983383,-0.770318,-116.319473,0.320347,-0.419177,0.667158,-0.525898
124,0.761455,-8.337681,-4.906142,-8.863046,-6.484374,2.161942,-104.298424,-0.680899,-116.147766,0.320503,-0.420654,0.668227,-0.523259
125,0.538133,-8.270720,-4.922642,-6.755918,-7.742603,5.435617,-104.560753,-0.499225,-115.949623,0.321507,-0.421724,0.669214,-0.520514
126,0.287022,-8.173324,-5.005390,-5.724045,-8.268157,8.832773,-104.769913,-0.201646,-115.751572,0.323378,-0.422129,0.670280,-0.517647
127,0.041623,-8.110819,-5.049994,-4.290432,-8.625167,11.172876,-104.936783,0.192798,-115.564827,0.325914,-0.421918,0.671462,-0.514688
128,-0.316433,-8.102020,-5.144840,-1.891032,-8.588283,12.048661,-105.038490,0.640832,-115.387718,0.328952,-0.421229,0.672527,-0.511923
129,-0.594520,-8.108010,-5.276881,-0.601380,-8.442643,12.464650,-105.077431,1.109063,-115.219658,0.332287,-0.420215,0.673392,-0.509458
130,-0.746071,-8.175157,-5.548556,-0.647744,-8.521979,10.708404,-105.094231,1.555536,-115.047096,0.335587,-0.419259,0.674075,-0.507175
131,-0.998987,-8.200372,-5.618398,-1.332909,-8.149819,7.652499,-105.121544,1.923387,-114.858513,0.338452,-0.418783,0.674523,-0.505064
132,-1.343471,-8.051284,-5.591617,-15.936520,-7.589227,11.201349,-105.403152,2.295587,-114.688087,0.340326,-0.418935,0.676159,-0.501478
133,-1.600663,-8.017469,-5.561537,-16.338106,-6.080580,13.844617,-105.936264,2.759233,-114.581680,0.341524,-0.419056,0.679351,-0.496222
134,-1.698146,-8.058142,-5.501755,-16.006983,-4.164908,14.734010,-106.473610,3.264340,-114.550529,0.342621,-0.418569,0.682903,-0.490972
135,-1.876431,-7.913778,-5.354578,-14.932717,-1.716698,15.124708,-106.992203,3.769197,-114.600006,0.343448,-0.417556,0.686623,-0.486044
136,-1.792338,-7.917005,-5.295926,-13.607640,0.687191,13.718509,-107.476585,4.233490,-114.726318,0.343852,-0.416167,0.690329,-0.481682
137,-1.625681,-8.032625,-5.309865,-2.021279,2.756714,5.227019,-107.748466,4.517145,-114.877029,0.343885,-0.414801,0.692738,-0.479371
138,-1.370607,-8.041063,-5.231831,-14.784312,3.585011,2.011572,-108.039444,4.599590,-115.015038,0.342737,-0.414468,0.694660,-0.477697
139,-1.230669,-8.054552,-5.212872,-5.713348,4.162370,-5.527533,-108.389359,4.503434,-115.119858,0.340472,-0.415305,0.696255,-0.476267
140,-0.833680,-8.283441,-5.261772,-9.267666,4.418733,-9.342052,-108.643333,4.223042,-115.177177,0.337665,-0.416954,0.696817,-0.476002
141,-0.641334,-8.320969,-5.194689,-11.826017,4.167601,-12.020187,-108.996307,3.839852,-115.197823,0.334033,-0.419556,0.697396,-0.475430
142,-0.305765,-8.366512,-5.100528,-12.941382,3.459983,-13.071681,-109.407944,3.403090,-115.180283,0.330009,-0.422771,0.697938,-0.474596
143,0.061434,-8.369784,-5.107475,-12.554319,2.300634,-11.923263,-109.830070,2.978438,-115.130760,0.326126,-0.426129,0.698428,-0.473556
144,0.299291,-8.310608,-5.083535,-11.219634,1.168152,-9.791048,-110.222862,2.618604,-115.061028,0.322802,-0.429219,0.698876,-0.472380
145,0.344845,-8.162941,-4.993279,-8.498035,-0.516598,-6.359205,-110.547829,2.362498,-114.977341,0.320393,-0.431738,0.699248,-0.471172
146,0.512030,-8.130969,-5.022614,-6.155650,-1.750469,-3.345970,-110.788322,2.224468,-114.884781,0.319037,-0.433562,0.699534,-0.469990
147,0.625132,-8.008419,-5.184370,-5.311359,-2.451264,-1.604003,-110.975777,2.172334,-114.789848,0.318403,-0.434885,0.699809,-0.468788
148,0.507488,-7.928456,-5.363829,-7.674085,-2.972712,-0.320327,-111.188538,2.174920,-114.693863,0.318002,-0.436051,0.700320,-0.467211
149,0.561289,-8.006671,-5.531012,-10.992720,-3.611857,-0.170097,-111.495628,2.207262,-114.588585,0.317454,-0.437410,0.701250,-0.464913
150,0.631001,-8.089309,-5.725612,-13.098413,-3.285058,0.082921,-111.892960,2.248415,-114.481163,0.316617,-0.438995,0.702550,-0.462018
151,0.491815,-8.113867,-5.998728,-14.529041,-2.667403,2.411906,-112.350357,2.324316,-114.404854,0.315626,-0.440408,0.704286,-0.458696
152,0.031205,-8.059478,-6.100843,-14.635730,-1.874890,8.952460,-112.836540,2.528327,-114.407677,0.314979,-0.440881,0.706744,-0.454891
153,-0.411418,-8.060911,-5.959568,-11.549624,-0.133473,16.313177,-113.279282,2.928992,-114.541748,0.315175,-0.439611,0.709993,-0.450906
154,-0.939101,-7.958512,-5.866593,-7.249429,1.836957,21.085632,-113.607864,3.489713,-114.815903,0.316247,-0.436492,0.713681,-0.447350
155,-1.472607,-7.789663,-5.673379,-4.421475,3.276606,23.178419,-113.827232,4.131000,-115.191216,0.317850,-0.432092,0.717469,-0.444416
156,-2.036484,-7.746669,-5.521152,-2.104927,4.121597,21.821587,-113.968338,4.766832,-115.608871,0.319571,-0.427211,0.721044,-0.442110
157,-2.168986,-7.729797,-5.424302,-0.501061,4.967467,16.459360,-114.046715,5.288075,-116.008263,0.320913,-0.422726,0.724000,-0.440615
158,-2.094608,-7.612080,-5.538187,-10.024974,3.647283,15.563896,-114.255699,5.716365,-116.359207,0.321408,-0.419288,0.727036,-0.438536
159,-2.318072,-7.465233,-5.462690,-2.800935,6.121033,6.360559,-114.500168,5.981727,-116.660172,0.320985,-0.416942,0.729642,-0.436749
160,-2.392652,-7.434920,-5.619924,-12.893237,5.416141,10.657412,-114.792725,6.159466,-116.954880,0.319890,-0.415132,0.732204,-0.434986
161,-2.267128,-7.506467,-5.660017,-13.145205,6.791094,10.092996,-115.263115,6.386562,-117.287575,0.318324,-0.413357,0.735663,-0.431979
162,-2.208284,-7.526382,-5.690113,-3.186131,9.300457,4.742519,-115.574600,6.494795,-117.638191,0.316551,-0.411511,0.738320,-0.430509
163,-2.059783,-7.693009,-5.742702,-1.086941,10.120028,2.737618,-115.684937,6.467440,-117.986198,0.314678,-0.409685,0.739926,-0.430866
164,-1.494424,-7.951916,-5.902712,-0.548591,9.861222,-3.145015,-115.745422,6.316883,-118.285156,0.312404,-0.408549,0.740916,-0.431898
165,-1.039619,-8.115045,-5.824068,-1.951507,9.290001,-10.318351,-115.807411,5.976027,-118.476120,0.309345,-0.408907,0.741138,-0.433377
166,-0.605019,-8.047858,-5.588349,-1.910756,9.904692,-17.064167,-115.880478,5.425819,-118.565521,0.305317,-0.410818,0.740607,-0.435330
167,-0.153741,-8.169478,-5.556379,-2.934858,9.873279,-21.070585,-115.962753,4.710102,-118.584251,0.300477,-0.413880,0.739498,-0.437675
168,0.152540,-8.201978,-5.464105,-4.894893,9.659354,-21.207457,-116.091888,3.934105,-118.567505,0.295207,-0.417516,0.738287,-0.439847
169,0.415907,-8.130626,-5.348390,-5.942169,9.970091,-16.717388,-116.273399,3.222563,-118.582123,0.290010,-0.420790,0.737505,-0.441494
170,0.590790,-8.078981,-5.314006,-5.302810,9.994277,-9.729261,-116.466202,2.679912,-118.684486,0.285478,-0.422814,0.737441,-0.442618
171,0.786481,-8.084774,-5.329241,-6.864974,8.876637,-4.418913,-116.676857,2.328381,-118.860405,0.281793,-0.423619,0.738133,-0.443057
172,0.963173,-8.093321,-5.269258,-8.243752,8.081450,-1.742120,-116.936729,2.109273,-119.066383,0.278643,-0.423806,0.739418,-0.442728
173,1.018357,-8.080213,-5.242741,-7.323053,7.509088,-0.887125,-117.203728,1.951995,-119.277878,0.275836,-0.423714,0.740886,-0.442119
174,0.964683,-8.117775,-5.292431,-6.133462,6.216377,-0.516995,-117.434357,1.826229,-119.470482,0.273437,-0.423521,0.742212,-0.441569
175,0.981509,-8.177411,-5.312352,-9.661261,7.341118,-5.619077,-117.702217,1.631001,-119.623505,0.270605,-0.423939,0.743384,-0.440941
176,1.004676,-8.114808,-5.445835,-9.300147,5.326122,-4.491614,-118.021004,1.383297,-119.731491,0.267415,-0.424963,0.744470,-0.440068
177,0.948864,-8.120231,-5.520703,-10.544797,2.793940,-2.622649,-118.353180,1.214839,-119.794746,0.264853,-0.425983,0.745612,-0.438696
178,0.926390,-8.163907,-5.361704,-8.055150,-2.407340,3.447339,-118.663422,1.223803,-119.806870,0.263710,-0.426585,0.746862,-0.436669
179,0.860596,-8.140027,-5.412601,-7.865064,-4.597617,5.294389,-118.928024,1.407685,-119.774559,0.264038,-0.426690,0.748143,-0.434168
180,0.726900,-8.001009,-5.421858,-6.421211,-6.155774,6.482675,-119.164482,1.666275,-119.713097,0.265064,-0.426635,0.749359,-0.431491
181,0.388053,-8.144320,-5.502263,-5.135330,-7.014395,8.466338,-119.354889,1.990899,-119.643295,0.266719,-0.426276,0.750500,-0.428836
182,-0.079751,-8.075094,-5.542363,-0.875620,-7.408975,9.409859,-119.452629,2.368470,-119.580025,0.269034,-0.425455,0.751419,-0.426589
183,-0.460770,-7.918465,-5.755580,3.674138,-7.949088,9.175957,-119.402817,2.764006,-119.509102,0.272038,-0.424265,0.751789,-0.425215
184,-0.890705,-7.770495,-5.840004,6.032611,-9.016214,8.798838,-119.235870,3.163642,-119.408989,0.275602,-0.422963,0.751620,-0.424515
185,-1.273346,-7.697312,-5.930505,6.103698,-10.051460,7.675220,-119.025177,3.558170,-119.264732,0.279448,-0.421850,0.751114,-0.424004
186,-1.486437,-7.460780,-5.924198,5.693960,-11.237206,5.428417,-118.815208,3.920926,-119.059341,0.283303,-0.421248,0.750319,-0.423451
187,-1.677077,-7.353991,-5.909349,4.079976,-11.810871,3.677927,-118.633560,4.238666,-118.794739,0.286976,-0.421268,0.749320,-0.422726
188,-1.830807,-7.353706,-5.914549,2.529409,-11.668966,3.135025,-118.501274,4.525562,-118.504524,0.290357,-0.421691,0.748346,-0.421720
189,-1.756665,-7.450456,-5.804406,1.246555,-10.741481,1.454824,-118.414627,4.770826,-118.211678,0.293307,-0.422403,0.747446,-0.420560
190,-1.791273,-7.643924,-5.680585,1.342109,-9.534108,-0.432471,-118.346947,4.946471,-117.921440,0.295732,-0.423420,0.746482,-0.419550
191,-1.617681,-7.738878,-5.551892,1.955126,-9.077518,-2.747006,-118.265968,5.046905,-117.622070,0.297760,-0.424758,0.745282,-0.418897
192,-1.381664,-7.885345,-5.471713,0.930911,-9.350573,-4.922758,-118.188583,5.079528,-117.289688,0.299467,-0.426585,0.743831,-0.418401
193,-1.092136,-8.146287,-5.313897,-1.158784,-9.241943,-7.134574,-118.159813,5.048722,-116.920219,0.300729,-0.429029,0.742284,-0.417746
194,-0.832208,-8.203492,-5.148297,-2.661779,-9.227681,-7.192611,-118.189819,4.983632,-116.534637,0.301613,-0.431862,0.740810,-0.416804
195,-0.469355,-8.255206,-5.147016,-3.549059,-9.411451,-5.657278,-118.260788,4.941895,-116.158226,0.302450,-0.434646,0.739557,-0.415525
196,-0.260056,-8.449578,-5.070826,-4.301650,-8.734662,-3.033431,-118.362587,4.957841,-115.822014,0.303379,-0.437021,0.738680,-0.413914
197,-0.194450,-8.446914,-5.204001,-3.753910,-7.585993,-0.850319,-118.473183,5.030397,-115.550934,0.304386,-0.438774,0.738196,-0.412181
198,-0.296843,-8.223175,-5.436179,-4.664727,-6.074285,0.844372,-118.595665,5.139075,-115.350067,0.305315,-0.439965,0.738093,-0.410405
199,-0.516516,-8.285070,-5.753447,-8.194519,-4.848838,2.924784,-118.798134,5.281628,-115.220001,0.305889,-0.440782,0.738614,-0.408157
200,-0.645888,-8.217354,-5.819577,-9.695350,-3.645810,3.100535,-119.089195,5.438087,-115.144386,0.306011,-0.441433,0.739681,-0.405421
201,-0.871745,-7.935680,-6.033645,-9.876294,-2.249949,1.971563,-119.411102,5.559888,-115.099792,0.305687,-0.442103,0.740895,-0.402709
202,-1.059240,-7.837046,-5.927258,-10.343501,-0.883844,1.354062,-119.746330,5.633889,-115.081680,0.304918,-0.442825,0.742151,-0.400179
203,-1.195704,-7.904285,-5.915961,-8.498619,-0.482151,1.918585,-120.061104,5.692544,-115.089211,0.304041,-0.443385,0.743395,-0.397910
204,-1.220548,-7.721583,-5.781875,-9.906795,0.085893,1.895653,-120.370483,5.750818,-115.115608,0.303117,-0.443808,0.744686,-0.395725
205,-1.255976,-7.667022,-5.635873,-8.437330,0.984549,1.631301,-120.680779,5.792396,-115.161079,0.302019,-0.444171,0.746014,-0.393650
206,-1.246102,-7.748111,-5.574531,-7.445809,1.512572,2.220654,-120.952477,5.826229,-115.230072,0.300941,-0.444306,0.747280,-0.391917
207,-1.153021,-7.718815,-5.736191,-6.968724,2.479933,2.688874,-121.202881,5.861981,-115.329819,0.299855,-0.444175,0.748591,-0.390393
208,-1.000392,-7.617258,-5.439271,-2.677709,3.208740,2.410790,-121.376534,5.885393,-115.455643,0.298902,-0.443717,0.749716,-0.389487
209,-0.897454,-7.600661,-5.359718,-1.928145,3.360449,2.834619,-121.467636,5.902961,-115.595390,0.298185,-0.442972,0.750600,-0.389180
210,-0.902867,-7.469395,-5.481830,-0.586612,2.990776,2.077845,-121.523315,5.917480,-115.729118,0.297608,-0.442185,0.751334,-0.389101
211,-0.872644,-7.614928,-5.404785,-0.184207,2.473314,0.295488,-121.546341,5.903574,-115.827965,0.297095,-0.441650,0.751766,-0.389266
213,-0.732300,-7.744359,-5.272517,0.605215,1.677956,-1.399140,-121.544395,5.851704,-115.877571,0.296606,-0.441517,0.751851,-0.389626
214,-0.741851,-7.981707,-5.540013,-1.525221,2.060119,-4.392062,-121.559982,5.736855,-115.880173,0.295810,-0.441978,0.751692,-0.390015
215,-0.738347,-8.157063,-5.578945,-1.605802,2.309536,-5.898993,-121.609413,5.552602,-115.852234,0.294547,-0.442989,0.751395,-0.390396
216,-0.676597,-8.339627,-5.609694,0.075080,2.160749,-4.267342,-121.632477,5.369251,-115.826721,0.293382,-0.443911,0.751017,-0.390952
217,-0.651109,-8.223138,-5.749285,-0.536945,3.145355,-2.524610,-121.641670,5.226485,-115.842728,0.292386,-0.444371,0.750831,-0.391533
218,-0.788222,-8.058493,-5.728780,-5.888821,4.264344,-0.459165,-121.755920,5.119280,-115.921974,0.290991,-0.444548,0.751318,-0.391437
219,-0.780934,-7.952346,-5.697323,-7.843104,4.492908,2.188831,-121.997215,5.066669,-116.061646,0.289244,-0.444440,0.752580,-0.390428
220,-0.730378,-7.905934,-5.519858,-6.779913,4.326387,2.691861,-122.255806,5.057399,-116.229996,0.287610,-0.444019,0.754094,-0.389191
221,-0.638514,-7.686785,-5.470140,-1.992246,3.569765,2.655640,-122.416084,5.062329,-116.389481,0.286480,-0.443352,0.755265,-0.388514
222,-0.664252,-7.505636,-5.373181,0.933078,3.105335,1.369749,-122.445244,5.059340,-116.519859,0.285906,-0.442576,0.755862,-0.388660
223,-0.626542,-7.540724,-5.300234,5.293267,2.436661,-0.396551,-122.349113,5.023577,-116.606880,0.285752,-0.441897,0.755803,-0.389660
224,-0.598799,-7.391684,-5.180781,11.540377,2.036957,-2.187119,-122.072044,4.947443,-116.647171,0.286195,-0.441226,0.754866,-0.391904
225,-0.623679,-7.363355,-5.392298,15.583595,1.808562,-2.478306,-121.621117,4.847619,-116.660637,0.287246,-0.440386,0.753175,-0.395320
226,-0.715343,-7.656684,-5.347607,17.115156,1.326218,-2.401932,-121.076347,4.750995,-116.662979,0.288713,-0.439369,0.751105,-0.399302
227,-0.692869,-8.052518,-5.260719,19.141710,0.859228,-2.070020,-120.471527,4.668339,-116.656143,0.290527,-0.438202,0.748794,-0.403584
228,-0.679888,-8.275143,-5.244058,19.942986,0.394481,-1.865679,-119.818932,4.601135,-116.641258,0.292646,-0.436898,0.746290,-0.408080
229,-0.624881,-8.781869,-5.194039,17.796036,0.079907,-1.944044,-119.188026,4.541994,-116.616821,0.294762,-0.435670,0.743818,-0.412363
230,-0.679558,-9.053659,-5.081728,14.430569,-0.513756,-1.420383,-118.648285,4.496430,-116.583267,0.296646,-0.434674,0.741645,-0.415961
231,-0.725821,-9.163313,-5.108581,8.226003,-1.481319,-0.651780,-118.267090,4.481933,-116.537453,0.298166,-0.434038,0.740053,-0.418366
232,-0.644964,-9.169081,-4.953580,-0.115323,-1.811660,-0.022774,-118.127693,4.497989,-116.483627,0.298992,-0.433958,0.739374,-0.419060
233,-0.546750,-9.060027,-4.989047,-6.154758,-1.372753,-0.232673,-118.228348,4.519331,-116.434692,0.298923,-0.434452,0.739601,-0.418195
234,-0.589787,-8.369854,-5.000475,-11.088764,-2.120637,-0.481326,-118.511230,4.536547,-116.377647,0.298165,-0.435489,0.740450,-0.416149
235,-0.580923,-7.588274,-4.557363,-13.714961,-3.407456,-0.963315,-118.917274,4.559699,-116.284981,0.297099,-0.437052,0.741615,-0.413188
236,-0.497575,-6.799227,-4.030854,-7.791666,-4.080757,-0.936788,-119.265762,4.592685,-116.160141,0.296424,-0.438634,0.742459,-0.410472
237,-0.526435,-6.100919,-3.711385,3.849995,-5.258961,-0.674897,-119.319412,4.645351,-116.010735,0.297084,-0.439536,0.742188,-0.409520
238,-0.536278,-5.730940,-3.007367,20.990301,-6.900162,-0.317781,-118.890221,4.729334,-115.824944,0.299923,-0.439291,0.740113,-0.411464
239,-0.411877,-5.783655,-2.286673,44.237576,-7.274755,-0.677616,-117.785080,4.826671,-115.608322,0.305541,-0.437382,0.735492,-0.417604
240,-0.423691,-6.286692,-1.903962,69.989525,-6.826935,-1.280551,-115.862534,4.903255,-115.382957,0.314151,-0.433313,0.727701,-0.428953
241,-0.593080,-7.567486,-1.587971,90.672440,-6.615873,-2.032698,-113.166397,4.945503,-115.155228,0.325399,-0.427049,0.716658,-0.445137
242,-0.854907,-9.333930,-1.115148,103.048660,-6.050097,-2.933474,-109.920380,4.945702,-114.927635,0.338288,-0.419058,0.702932,-0.464584
243,-1.168341,-11.893501,-1.393347,100.302223,-4.897191,-4.658767,-106.516029,4.882346,-114.713989,0.351126,-0.410396,0.687896,-0.484856
244,-1.666821,-14.405583,-1.850225,73.616234,-3.198371,-5.742862,-103.605217,4.749998,-114.537697,0.361461,-0.403005,0.674387,-0.502130
245,-2.082244,-16.655752,-2.850998,26.516714,-1.025760,-6.960688,-101.927879,4.559192,-114.421356,0.366777,-0.399257,0.666038,-0.512309
246,-2.212373,-18.205872,-3.813040,-40.875202,0.785898,-7.958446,-102.162865,4.317034,-114.364540,0.364858,-0.401489,0.666223,-0.511695
247,-2.348938,-18.460428,-4.655790,-110.253265,2.727507,-8.054543,-104.680817,4.044253,-114.358383,0.354422,-0.410703,0.676553,-0.497980
248,-1.760256,-14.705358,-4.258617,-171.270691,6.795239,-6.583326,-109.373581,3.765340,-114.437538,0.335343,-0.425607,0.695962,-0.471211
249,-0.491400,-10.589259,-4.344609,-214.310898,11.834793,-5.222950,-115.797607,3.466573,-114.647301,0.308344,-0.443610,0.721394,-0.433273
250,-0.635893,-7.318903,-4.243272,-240.832321,12.199211,-1.941631,-123.370300,3.168264,-114.935478,0.275496,-0.462196,0.748985,-0.386650
251,0.171186,-3.640315,-2.223491,-234.437820,17.829983,-1.888879,-131.270676,2.816820,-115.291405,0.239621,-0.478779,0.774714,-0.336410
252,0.827670,-0.055109,-1.635022,-240.255463,23.078232,-4.612794,-139.159912,2.262239,-115.695312,0.201301,-0.492802,0.796944,-0.285489
253,0.408595,0.063123,-2.163954,-224.457687,20.572414,1.671679,-146.878876,1.655607,-116.094887,0.162576,-0.503717,0.815385,-0.234489
254,-0.338276,0.438206,-2.375280,-216.079575,11.476138,1.844921,-154.194626,1.224485,-116.404778,0.126505,-0.511559,0.829665,-0.184283
255,0.376816,2.274423,-3.235410,-193.320709,9.484358,-2.114993,-160.991302,0.899826,-116.528992,0.093438,-0.517660,0.839467,-0.136356
256,0.126021,3.074140,-5.506427,-167.087067,3.004193,0.821201,-166.977371,0.692850,-116.565697,0.064726,-0.521742,0.845512,-0.093304
257,0.040313,3.177954,-6.925211,-128.898300,0.381041,0.243520,-171.897720,0.641586,-116.590752,0.041879,-0.523883,0.848838,-0.057168
258,0.348885,3.841383,-7.892409,-101.622314,-1.783527,-3.766160,-175.732529,0.658290,-116.529198,0.024466,-0.525442,0.849995,-0.028645
259,0.261672,3.983548,-8.858583,-69.213524,-2.362497,-2.345527,-178.575577,0.720929,-116.423546,0.011895,-0.526664,0.849960,-0.007252
260,0.090087,3.397296,-8.658247,-49.905846,1.342266,-0.733341,179.440826,0.737585,-116.371841,0.002897,-0.527174,0.849719,0.007540
261,-0.198418,3.723368,-8.706900,-42.813324,2.620583,-3.523075,177.896790,0.673371,-116.299911,-0.004694,-0.527692,0.849217,0.018690
262,-0.406550,3.860868,-8.510241,-37.255627,3.214002,-1.108996,176.563446,0.579629,-116.218285,-0.011548,-0.528187,0.848583,0.028130
263,-0.296627,3.755610,-8.839502,-28.772799,3.084311,2.533732,175.462936,0.473470,-116.234779,-0.017401,-0.527901,0.848373,0.035791
264,-0.221495,3.411716,-9.046167,-24.097128,-1.122905,4.756454,174.580887,0.430665,-116.353065,-0.021737,-0.526862,0.848627,0.042146
265,-0.262021,3.410611,-8.924953,-25.147629,-3.767048,4.595506,173.758835,0.496115,-116.516159,-0.024963,-0.525510,0.849033,0.048569
266,-0.148865,2.938301,-9.328493,-17.245857,-5.644568,7.474956,173.050140,0.628820,-116.733864,-0.027125,-0.523789,0.849672,0.054478
267,-0.172657,3.000101,-9.651172,-17.735886,-6.522583,5.297930,172.464188,0.803427,-116.970459,-0.028385,-0.521968,0.850401,0.059678
268,-0.464949,3.167108,-9.347053,-24.875937,-7.076329,4.538149,171.750916,1.005315,-117.163940,-0.030024,-0.520447,0.850815,0.065938
269,-0.472799,3.291963,-8.956456,-21.372358,-1.366944,6.132469,170.976486,1.117591,-117.360992,-0.032583,-0.518830,0.851195,0.072252
270,-0.220133,3.365770,-9.096888,-17.628439,2.071480,7.521100,170.322342,1.069120,-117.583954,-0.035754,-0.516951,0.851799,0.076960
271,-0.211667,3.795028,-8.945179,-22.504343,3.791636,5.006323,169.650223,0.936686,-117.772766,-0.039636,-0.515245,0.852245,0.081425
272,-0.131701,3.773539,-8.941388,-20.768370,4.193489,5.762892,168.926834,0.772365,-117.924416,-0.043997,-0.513744,0.852475,0.086125
273,-0.031703,3.792357,-8.970467,-19.526899,3.852546,3.891635,168.253693,0.609145,-118.055664,-0.048125,-0.512379,0.852625,0.090456
274,-0.102338,4.142665,-8.774580,-22.969980,3.090842,0.763645,167.544968,0.479660,-118.107254,-0.052213,-0.511586,0.852347,0.095174
275,-0.260014,4.318751,-8.590350,-20.633541,1.915773,-0.095286,166.818344,0.395668,-118.099487,-0.056088,-0.511232,0.851737,0.100199
276,-0.343110,4.268408,-8.572219,-17.902918,-0.461684,0.039934,166.176147,0.372289,-118.092873,-0.059132,-0.510938,0.851146,0.104863
277,-0.377860,4.403281,-8.393133,-17.745892,-1.541038,0.169102,165.581940,0.403841,-118.104294,-0.061535,-0.510569,0.850623,0.109422
278,-0.376318,4.439208,-8.402468,-12.979712,-1.793813,1.085160,165.069611,0.452330,-118.138550,-0.063423,-0.510081,0.850249,0.113458
279,-0.195609,4.324640,-8.573048,-8.612768,-2.072532,1.559185,164.709259,0.503099,-118.197884,-0.064590,-0.509488,0.850120,0.116390
280,-0.022124,4.330512,-8.708853,-9.250234,-2.118721,1.313462,164.410934,0.557718,-118.262619,-0.065444,-0.508893,0.850066,0.118882
281,0.064748,4.369397,-8.728214,-9.312365,-0.790200,0.946691,164.101074,0.594153,-118.312019,-0.066497,-0.508384,0.849937,0.121371
282,0.158234,4.468271,-8.758320,-7.855389,0.580988,-0.255597,163.814819,0.594303,-118.324089,-0.067752,-0.508127,0.849685,0.123501
283,0.150193,4.514016,-8.701214,-8.538557,1.166854,-1.277279,163.541916,0.573496,-118.291405,-0.069152,-0.508185,0.849257,0.125413
284,0.041399,4.534987,-8.683353,-7.707853,1.345526,-1.422343,163.271683,0.546195,-118.236328,-0.070614,-0.508399,0.848734,0.127260
285,-0.084510,4.556313,-8.684844,-14.888939,1.349959,-1.932710,162.895691,0.519477,-118.169762,-0.072555,-0.508628,0.848035,0.129884
286,-0.103985,4.501825,-8.549265,-13.019462,1.262717,-2.316177,162.431290,0.499034,-118.089165,-0.074861,-0.508903,0.847159,0.133177
287,-0.142125,4.407138,-8.520936,-10.625988,0.702557,-2.255773,162.037918,0.491069,-118.006615,-0.076765,-0.509244,0.846336,0.135994
288,-0.134266,4.240064,-8.400262,-1.800935,0.925315,-1.917635,161.831436,0.486837,-117.932045,-0.077803,-0.509650,0.845761,0.137449
289,-0.384495,4.047375,-7.767618,1.102307,1.602516,-3.450533,161.820618,0.474670,-117.833900,-0.078058,-0.510353,0.845320,0.137408
290,-0.382793,3.524367,-6.688474,8.661803,2.892876,-2.523556,161.984283,0.434361,-117.715973,-0.077767,-0.511287,0.845019,0.135941
291,-0.386116,2.808962,-5.868775,23.846516,3.663195,-0.232588,162.526596,0.344221,-117.638931,-0.076101,-0.512117,0.845373,0.131488
292,-0.484539,1.923527,-5.105716,40.292206,3.817698,-0.436329,163.595734,0.228044,-117.591988,-0.072228,-0.513029,0.846430,0.123046
293,-0.491700,1.195494,-4.503565,56.089085,2.923538,0.652322,165.201950,0.118847,-117.565376,-0.065865,-0.514084,0.848017,0.110666
294,-0.210181,0.611532,-4.619767,71.090965,1.842212,6.836722,167.320908,0.011908,-117.667923,-0.057056,-0.514365,0.850433,0.094537
295,-0.300311,0.194045,-5.455389,77.278122,-3.050241,8.044010,169.792633,-0.018389,-117.914963,-0.046010,-0.513617,0.853395,0.076136
296,-0.398672,0.043626,-6.272383,77.703613,-6.620601,7.702795,172.374008,0.099861,-118.199905,-0.033405,-0.512455,0.856135,0.057508
297,-0.206139,0.133558,-7.200222,76.316185,-9.264351,10.791389,174.938248,0.328798,-118.535973,-0.020102,-0.510632,0.858660,0.039421
298,0.093444,0.038211,-8.103995,71.477608,-8.241279,10.182732,177.397171,0.595742,-118.904518,-0.007067,-0.508220,0.860912,0.022201
299,-0.047224,-0.460892,-9.108445,74.547661,-8.092612,4.495700,179.826523,0.861807,-119.155464,0.005719,-0.506364,0.862286,0.005114
300,0.484307,-0.478699,-10.550331,74.368965,0.595172,0.844218,-177.694290,0.989365,-119.241974,0.017621,-0.505447,0.862580,-0.012991
301,0.187273,-0.868871,-10.884264,80.071571,19.602488,-1.909010,-175.121613,0.653009,-119.243736,0.026434,-0.505029,0.862034,-0.033836
302,0.029630,-0.793455,-10.345160,77.385567,18.415911,-6.134472,-172.498398,0.009160,-119.175354,0.033184,-0.505130,0.860560,-0.056376
303,0.401358,-0.920084,-11.344074,82.108879,20.844416,-6.228920,-169.842117,-0.667792,-119.072235,0.039879,-0.505441,0.858289,-0.079248
304,0.520049,-1.195958,-11.545528,89.068565,32.230663,-1.948103,-166.990158,-1.561164,-119.116104,0.045724,-0.504687,0.855731,-0.104520
305,0.981571,-2.090348,-10.543817,89.577003,32.483238,0.960445,-164.006180,-2.609955,-119.368584,0.050736,-0.502461,0.853042,-0.131449
306,1.416983,-2.822476,-11.951317,85.497421,12.805549,-2.189499,-161.080078,-3.336058,-119.575737,0.057858,-0.500284,0.849648,-0.156421
307,1.578376,-3.441135,-12.970493,84.071770,16.429762,-3.762124,-158.250732,-3.825024,-119.655624,0.066434,-0.498743,0.845357,-0.179482
308,1.303011,-3.705511,-12.165940,76.293777,13.437787,-2.711856,-155.572906,-4.324838,-119.750832,0.074203,-0.497077,0.840751,-0.201361
309,1.911487,-4.043856,-12.303052,53.900043,1.665444,-7.098494,-153.407257,-4.622248,-119.711891,0.081463,-0.496337,0.836242,-0.218432
310,1.105301,-3.552048,-12.215315,51.702175,-4.456695,-10.704259,-151.670746,-4.716238,-119.427155,0.088858,-0.497270,0.831474,-0.231250
311,0.838935,-2.945258,-10.819880,58.165096,-7.673270,-4.242223,-149.865875,-4.660642,-119.110519,0.097760,-0.497995,0.826436,-0.243817
312,1.325585,-3.201414,-10.209507,71.592026,-7.305545,3.531826,-147.714844,-4.453997,-118.971436,0.108906,-0.496673,0.821425,-0.258294
313,1.249948,-3.393517,-9.333776,84.696411,-6.881168,5.448897,-145.111496,-4.175560,-118.965744,0.122184,-0.493529,0.815766,-0.275729
314,0.594956,-3.954885,-7.608635,99.130951,-5.269020,7.790488,-142.045609,-3.882182,-119.023087,0.137294,-0.489005,0.808838,-0.296319
316,0.683492,-5.048174,-7.042818,106.405220,-3.626826,21.879705,-138.604584,-3.453363,-119.309105,0.154155,-0.481581,0.801549,-0.319117
317,0.892002,-6.349637,-6.061377,97.892967,1.361050,25.349823,-135.172348,-2.891194,-119.860046,0.170806,-0.471382,0.794961,-0.341557
318,0.359785,-7.312412,-5.726199,88.214005,-0.786292,25.610826,-132.046417,-2.285234,-120.452965,0.185935,-0.460667,0.788914,-0.361702
319,-0.183876,-8.231774,-5.900093,82.185722,-3.752745,27.550896,-129.191315,-1.564128,-120.973015,0.200590,-0.450047,0.783132,-0.379375
320,-0.002914,-8.273276,-5.837787,78.971275,-8.044844,28.114523,-126.499153,-0.711499,-121.387718,0.215477,-0.439519,0.777307,-0.395206
321,-0.035895,-8.555572,-5.638054,79.256683,-11.561280,19.797611,-123.862984,0.129357,-121.581329,0.230487,-0.430142,0.770442,-0.410210
322,-0.235832,-8.830420,-5.516200,83.273003,-14.470730,20.252356,-121.156158,0.926294,-121.573181,0.245893,-0.421637,0.762151,-0.425305
323,-0.179597,-8.962559,-5.239162,86.855553,-16.665464,16.851887,-118.319366,1.720464,-121.429512,0.261980,-0.413230,0.752547,-0.440773
324,-0.190593,-9.366658,-4.468048,85.861946,-17.544346,12.628621,-115.432663,2.416573,-121.142464,0.277900,-0.405485,0.741698,-0.456331
325,-0.298968,-9.818977,-4.311101,85.213829,-18.821091,13.311073,-112.565529,3.058055,-120.763786,0.293534,-0.398060,0.730168,-0.471424
326,-0.529363,-10.527592,-3.649781,83.752808,-20.584496,7.825727,-109.723106,3.623262,-120.278145,0.308843,-0.391178,0.717899,-0.486020
327,-0.486797,-10.513270,-3.716162,81.509270,-20.710358,-0.201420,-106.930214,3.960765,-119.662994,0.322998,-0.385765,0.704586,-0.500417
328,-0.820009,-10.670151,-2.554054,75.104568,-20.703262,-1.274263,-104.274529,4.123150,-118.988892,0.335832,-0.381476,0.690971,-0.514055
329,-0.959327,-10.505891,-1.923966,75.069000,-20.210102,-1.457724,-101.723846,4.232439,-118.312737,0.347980,-0.377379,0.677426,-0.526868
330,-1.096151,-10.125488,-2.345961,73.593460,-17.939030,-1.949012,-99.200157,4.291941,-117.675766,0.359543,-0.373023,0.663755,-0.539455
331,-1.031330,-10.030278,-3.386750,59.578297,-14.695530,0.444774,-96.940880,4.343132,-117.132362,0.369722,-0.368696,0.651393,-0.550506
332,-1.287370,-9.909671,-2.467785,38.059616,-10.921179,4.294408,-95.282074,4.467071,-116.715553,0.377719,-0.365007,0.642386,-0.558067
333,-1.249362,-9.892098,-2.793216,23.992945,-7.265958,7.634618,-94.225090,4.690460,-116.429703,0.383661,-0.361939,0.636957,-0.562219
334,-1.056135,-10.339782,-3.408891,12.062193,-3.947654,11.961902,-93.610168,5.029055,-116.265427,0.388191,-0.359019,0.634403,-0.563867
335,-1.201242,-10.647281,-2.873487,1.419693,-0.280874,13.879729,-93.381340,5.463221,-116.221642,0.391398,-0.356214,0.634404,-0.563428
336,-1.380799,-10.402551,-2.361203,1.562662,4.057754,18.045277,-93.340965,5.990661,-116.316505,0.393814,-0.352783,0.636022,-0.562077
337,-1.153988,-10.641427,-2.932171,3.084229,7.854414,18.072535,-93.289040,6.580106,-116.550934,0.395898,-0.348196,0.638167,-0.561041
338,-0.962139,-11.029440,-3.159873,-2.365185,11.751054,14.061841,-93.319702,7.095940,-116.910500,0.396731,-0.343567,0.640854,-0.560243
339,-0.862428,-10.859002,-3.090618,-13.186718,16.301895,6.121172,-93.640633,7.403163,-117.401718,0.394977,-0.340291,0.644737,-0.559025
340,-1.007157,-10.872254,-3.176842,-25.941303,19.792589,-1.446610,-94.371277,7.438542,-118.012749,0.390022,-0.339154,0.650203,-0.556861
341,-0.867679,-10.773494,-2.674818,-39.663799,21.829004,-8.404327,-95.551338,7.214572,-118.695534,0.382024,-0.340413,0.657347,-0.553238
342,-0.956984,-10.731882,-3.280011,-45.840271,22.995632,-13.672976,-97.061981,6.766284,-119.403114,0.371687,-0.343632,0.665553,-0.548457
343,-1.145033,-10.716002,-3.460598,-53.015717,23.736979,-15.410807,-98.788895,6.178683,-120.112366,0.359853,-0.348014,0.674418,-0.542727
344,-1.190049,-10.571321,-3.806390,-58.143642,22.023849,-14.223185,-100.709595,5.562679,-120.783562,0.347344,-0.353071,0.683973,-0.535606
345,-0.880910,-10.588532,-4.223101,-64.004555,19.885227,-11.196690,-102.799904,5.005404,-121.382957,0.334864,-0.358443,0.694168,-0.526797
346,-0.595892,-10.602858,-4.965132,-68.836647,18.224443,-8.135979,-105.058014,4.539555,-121.922707,0.322547,-0.363875,0.705043,-0.516210
347,-0.331197,-10.490700,-5.130017,-76.784706,17.171810,-7.550515,-107.521309,4.123074,-122.416054,0.309964,-0.369573,0.716628,-0.503768
348,-0.264513,-10.400676,-5.982536,-80.726311,16.487322,-8.250604,-110.175476,3.692476,-122.862213,0.296753,-0.375753,0.728629,-0.489742
349,-0.419703,-10.710337,-6.544845,-88.786652,17.096416,-6.972038,-113.024803,3.250569,-123.289650,0.282760,-0.382168,0.741079,-0.474127
350,-0.209788,-10.750248,-6.889798,-95.095749,17.063208,-8.427931,-116.108971,2.780822,-123.700485,0.267705,-0.388890,0.754020,-0.456677
351,-0.615357,-10.822673,-7.121724,-97.005363,15.533594,-8.457579,-119.323387,2.279171,-124.050598,0.252048,-0.395893,0.766775,-0.437946
352,-0.442861,-10.329391,-7.626216,-96.311356,11.956905,-5.486109,-122.552322,1.844389,-124.323761,0.236875,-0.402619,0.778969,-0.418324
353,0.074574,-10.310405,-7.555537,-99.106613,9.944214,1.020686,-125.814224,1.577744,-124.582718,0.222597,-0.408363,0.791017,-0.397469
354,-0.189927,-9.863029,-7.378457,-101.307846,7.092793,4.289059,-129.159012,1.475805,-124.860123,0.208968,-0.413085,0.803115,-0.375099
355,-0.410894,-8.996082,-7.590667,-101.028877,0.801325,4.438271,-132.533264,1.499753,-125.053566,0.196292,-0.417609,0.814553,-0.351534
356,0.095217,-8.513561,-7.828675,-99.675072,-0.435325,6.121225,-135.878693,1.620477,-125.179451,0.184522,-0.421897,0.825102,-0.327355
357,-0.215644,-8.484065,-7.617480,-93.844070,2.301651,2.713140,-139.104843,1.697070,-125.308411,0.172785,-0.425774,0.834569,-0.303902
358,-0.811906,-7.357926,-7.614778,-91.544968,0.569583,-7.337909,-142.191254,1.611107,-125.280121,0.160697,-0.430701,0.842242,-0.281606
359,-0.332020,-6.546598,-7.758832,-96.984314,0.374051,-14.010540,-145.323669,1.386194,-125.003632,0.147830,-0.437511,0.848324,-0.258992
360,-0.006052,-6.330268,-7.483617,-101.594627,6.534893,-16.980587,-148.622742,1.007290,-124.634300,0.133115,-0.445147,0.853614,-0.235515
361,-0.172981,-5.643829,-7.000453,-113.236420,9.137873,-26.544073,-152.193771,0.422808,-124.134529,0.115719,-0.453925,0.858024,-0.210608
362,-0.398989,-4.596685,-6.753458,-136.081100,6.121924,-32.195522,-156.342712,-0.231897,-123.365372,0.095492,-0.464646,0.861442,-0.181395
363,-0.185590,-3.685464,-6.101480,-163.510986,8.140773,-31.358948,-161.335480,-0.835294,-122.463966,0.071734,-0.475918,0.864382,-0.145603
364,-0.139599,-2.931148,-5.850434,-154.731476,8.532687,-29.680613,-166.644897,-1.379124,-121.564575,0.046324,-0.486005,0.866105,-0.107315
365,-0.174670,-2.124881,-5.350938,-143.364243,8.614416,-28.952816,-171.627319,-1.842711,-120.661102,0.022196,-0.494631,0.865884,-0.071360
366,-0.381528,-1.406844,-5.069450,-130.251678,6.766643,-23.739464,-176.208313,-2.190398,-119.816750,0.000056,-0.501566,0.864276,-0.038197
367,0.061443,-0.946988,-4.536131,-105.980621,9.063771,-16.471523,179.834000,-2.473944,-119.155518,-0.019349,-0.506223,0.862131,-0.009682
368,0.181837,-0.592883,-4.741554,-67.886856,8.535342,-12.383142,176.916977,-2.752313,-118.667732,-0.034367,-0.509147,0.859924,0.010888
369,0.418011,-0.223966,-4.858150,-56.218788,9.317492,-12.232546,174.827957,-3.019935,-118.237503,-0.045742,-0.511539,0.857671,0.025198
370,0.213633,0.118515,-5.732323,-46.676785,6.072658,-9.498922,173.092438,-3.237191,-117.850243,-0.055231,-0.513557,0.855475,0.037025
371,0.608896,0.582177,-6.525645,-35.625984,4.104084,-6.698509,171.704315,-3.369451,-117.559578,-0.062551,-0.514929,0.853675,0.046630
372,0.665994,0.888964,-7.596470,-26.627756,1.791865,-5.294520,170.654251,-3.435821,-117.346596,-0.067860,-0.515870,0.852264,0.054024
373,0.728166,1.091518,-8.539589,-20.000185,-0.803577,-3.071462,169.868790,-3.428476,-117.206047,-0.071413,-0.516443,0.851240,0.059811
374,0.726746,1.231651,-9.159806,-13.782384,-2.609399,0.089570,169.303497,-3.363467,-117.167252,-0.073501,-0.516426,0.850747,0.064280
375,0.851949,1.306933,-9.239410,-7.023559,-2.931215,1.377158,168.959152,-3.277268,-117.208672,-0.074390,-0.515969,0.850717,0.067255
376,0.718817,1.381059,-9.496620,1.398718,-2.355059,2.161665,168.869644,-3.202093,-117.283562,-0.074193,-0.515418,0.850984,0.068309
377,0.740167,1.263396,-9.319423,0.459415,-2.284463,1.128306,168.904434,-3.136735,-117.352341,-0.073511,-0.514985,0.851298,0.068392
378,0.598508,0.794134,-9.063023,7.622753,-0.511474,-4.287115,169.036804,-3.080927,-117.309525,-0.072528,-0.515434,0.851171,0.067634
379,0.605868,0.893628,-8.611840,16.323437,0.831011,-9.609626,169.423660,-3.042846,-117.080627,-0.070635,-0.517407,0.850355,0.064792
380,0.436286,0.655721,-8.076680,22.344776,1.604344,-10.209548,170.050476,-3.023922,-116.747879,-0.067839,-0.520268,0.849185,0.060029
381,0.310787,0.539038,-7.755137,27.617668,1.434432,-11.587120,170.863785,-3.013753,-116.380692,-0.064242,-0.523463,0.847915,0.053841
382,0.331670,0.280879,-7.309502,33.392990,0.444364,-8.286292,171.863144,-2.995034,-116.048119,-0.059671,-0.526475,0.846826,0.046358
383,0.099361,0.318666,-7.160285,36.772511,-3.756840,-1.039464,173.024872,-2.920266,-115.901176,-0.053828,-0.528182,0.846569,0.038047
384,0.075383,-0.144202,-7.180849,40.427158,-6.764082,6.561136,174.316971,-2.756842,-116.012367,-0.046634,-0.528012,0.847449,0.029302
385,0.243574,-0.034504,-7.266140,42.272221,-7.817938,5.570422,175.705444,-2.533053,-116.235291,-0.038540,-0.526974,0.848768,0.020142
386,0.195706,-0.198946,-7.166247,46.374702,-8.864659,5.313267,177.190918,-2.266711,-116.433784,-0.029716,-0.526032,0.849882,0.010417
387,0.260306,-0.183794,-7.308629,52.639938,-8.497472,3.068720,178.846359,-1.982332,-116.583504,-0.020006,-0.525341,0.850657,-0.000528
388,0.580170,-0.286950,-6.934570,53.793457,-4.316531,-4.293146,-179.380859,-1.768404,-116.563904,-0.010286,-0.525740,0.850488,-0.012708
389,0.450280,-0.691524,-7.052027,61.178513,-2.151408,-6.352056,-177.470734,-1.664625,-116.382973,-0.000710,-0.527170,0.849349,-0.026408
390,0.447057,-1.886494,-7.088342,72.493668,0.286218,-10.565009,-175.251877,-1.651341,-116.099236,0.009702,-0.529182,0.847374,-0.042763
391,0.374868,-2.131717,-7.565306,79.140076,0.372543,-18.196869,-172.739838,-1.711970,-115.623245,0.021106,-0.532377,0.844005,-0.061519
392,-0.133406,-3.531370,-8.426831,80.561600,0.044350,-24.606453,-170.101395,-1.824041,-114.918800,0.033033,-0.536981,0.839022,-0.081251
393,0.005279,-3.675450,-9.876996,86.541473,1.494808,-23.279049,-167.344055,-2.003988,-114.141121,0.045319,-0.541829,0.833052,-0.101946
394,-0.318700,-3.724928,-10.197149,73.011269,-0.887315,-21.320179,-164.713074,-2.193796,-113.422173,0.057130,-0.546013,0.826937,-0.121577
395,-0.606130,-3.688850,-11.225393,65.770088,-7.303569,-13.519374,-162.424164,-2.226601,-112.826881,0.068504,-0.549072,0.821474,-0.137870
396,-0.010578,-4.792561,-11.805970,57.835743,-4.674146,-4.433843,-160.377762,-2.133459,-112.480965,0.079425,-0.550124,0.817313,-0.151837
397,0.534068,-3.653719,-12.093733,56.083225,-2.580493,2.471711,-158.482315,-2.032981,-112.408020,0.089336,-0.549126,0.814445,-0.164802
398,-0.045624,-4.174618,-11.579695,47.611305,-8.186488,9.315247,-156.750717,-1.793289,-112.521484,0.099156,-0.546578,0.812666,-0.176054
399,0.599846,-4.650249,-11.677737,55.531567,-5.844558,6.845342,-155.027756,-1.470468,-112.672981,0.109407,-0.543469,0.811017,-0.186877
400,1.297779,-4.454412,-11.202319,56.612640,0.500703,3.064271,-153.156540,-1.318007,-112.782028,0.119156,-0.540592,0.808557,-0.199495
401,0.996182,-3.696208,-10.233129,62.701714,0.484430,3.866393,-151.166046,-1.278541,-112.890823,0.128604,-0.537607,0.805531,-0.213447
402,1.399141,-4.698224,-8.794323,72.078911,3.181573,2.080166,-148.917908,-1.282049,-113.007233,0.138868,-0.534173,0.801727,-0.229366
403,1.253248,-4.866072,-8.206960,82.945076,8.410347,-0.113264,-146.332260,-1.427500,-113.137787,0.149586,-0.530295,0.796738,-0.248234
404,1.247884,-5.951447,-7.228215,84.203041,9.535963,4.314899,-143.541992,-1.632078,-113.365936,0.160499,-0.525375,0.791179,-0.268806
405,0.113100,-6.885005,-6.234167,91.436104,9.896468,7.851802,-140.606049,-1.763646,-113.725235,0.172091,-0.518946,0.785438,-0.290117
406,0.169827,-8.172023,-5.607018,96.317017,9.710684,11.624052,-137.464981,-1.797987,-114.184898,0.184762,-0.511001,0.779184,-0.312429
407,-0.710046,-8.671268,-5.881742,92.788139,5.636835,19.256042,-134.299606,-1.623900,-114.732811,0.198391,-0.501529,0.773003,-0.334030
408,-0.327955,-9.258818,-5.208989,89.358398,3.650081,20.337677,-131.252502,-1.245624,-115.296196,0.212459,-0.491185,0.767039,-0.353906
409,-0.516120,-9.040756,-5.064092,96.981163,1.819788,18.263416,-128.140747,-0.809158,-115.777458,0.227051,-0.480657,0.760089,-0.373739
410,-0.094250,-8.909945,-4.950459,96.017159,0.179439,17.012049,-124.923103,-0.356157,-116.153458,0.242139,-0.470090,0.751830,-0.393873
411,-0.649861,-9.111731,-4.893070,94.293228,-0.302703,18.256329,-121.753456,0.136013,-116.474464,0.257077,-0.459361,0.743047,-0.413255
412,-0.211106,-9.243406,-4.258190,93.882500,-1.044251,15.088367,-118.621567,0.627108,-116.734604,0.271683,-0.448634,0.733638,-0.432078
413,-0.230694,-9.942578,-3.858654,96.590225,-2.316982,14.208389,-115.452255,1.087522,-116.905960,0.286196,-0.438028,0.723168,-0.450834
414,-0.705080,-10.251447,-3.706996,92.636185,-4.692880,15.595064,-112.303406,1.588912,-116.999962,0.300820,-0.427317,0.712098,-0.468855
415,-0.431839,-10.448443,-3.631687,88.206276,-7.771986,16.952526,-109.291847,2.169631,-116.998978,0.315448,-0.416735,0.701002,-0.485202
416,-0.267849,-10.550662,-3.179121,80.971138,-10.162048,14.497255,-106.469124,2.760315,-116.876106,0.329638,-0.406902,0.689939,-0.499754
417,-0.416696,-10.766543,-2.409861,77.534081,-11.690751,11.775539,-103.816696,3.278439,-116.638710,0.343023,-0.398146,0.678743,-0.512954
419,-0.514932,-10.443340,-2.338289,70.111320,-13.519953,12.641416,-101.337669,3.767272,-116.316498,0.355796,-0.390159,0.667727,-0.524716
420,-0.360813,-10.842571,-2.095966,61.818897,-12.924344,9.672310,-99.114334,4.211735,-115.948563,0.367477,-0.383105,0.657434,-0.534764
421,-0.494951,-10.260592,-1.273473,52.546242,-11.155639,9.506722,-97.181969,4.585089,-115.595467,0.377587,-0.376978,0.648227,-0.543247
422,-0.517555,-9.964615,-1.242037,44.315517,-11.119613,6.206399,-95.539902,4.886395,-115.254662,0.386195,-0.371897,0.640146,-0.550236
423,-0.825800,-10.251887,-1.931052,31.498491,-9.938686,6.282433,-94.247589,5.123914,-114.921303,0.393231,-0.368137,0.633530,-0.555414
424,-0.890692,-10.253983,-1.277535,16.879126,-6.707387,4.101138,-93.417160,5.315313,-114.655205,0.398182,-0.365746,0.629210,-0.558370
425,-0.904151,-9.637415,-0.888428,7.363268,-3.379396,4.651785,-92.998085,5.470471,-114.494881,0.401102,-0.364356,0.627118,-0.559540
426,-1.001015,-10.790189,-1.213336,2.541951,-0.371469,4.128956,-92.827637,5.619816,-114.439758,0.402682,-0.363281,0.626557,-0.559732
427,-0.798808,-10.926644,-0.869773,-6.874869,3.561788,0.779437,-92.905495,5.698842,-114.497276,0.402562,-0.362827,0.627356,-0.559218
428,-0.923160,-10.614714,-0.199148,-12.397917,7.286823,-1.825151,-93.244553,5.671721,-114.677856,0.400467,-0.363167,0.629500,-0.558091
429,-0.849208,-10.859267,-0.933747,-14.671019,9.676082,-4.188792,-93.722801,5.554510,-114.955330,0.396992,-0.363912,0.632361,-0.556853
430,-1.098436,-11.017268,-1.013094,-22.911690,13.095285,-6.224873,-94.384109,5.354583,-115.323349,0.392056,-0.365187,0.636155,-0.555191
431,-0.868522,-10.695375,-0.943999,-32.184990,15.000158,-6.762374,-95.343323,5.099154,-115.773392,0.385465,-0.367247,0.641488,-0.552303
432,-1.430074,-10.623963,-1.369967,-36.335865,16.772352,-3.861052,-96.529556,4.868130,-116.283516,0.377965,-0.369506,0.648165,-0.548170
433,-1.182229,-10.425771,-1.906747,-42.703983,17.169079,-1.600829,-97.892860,4.706861,-116.834839,0.370054,-0.371633,0.655986,-0.542799
434,-1.116238,-10.311502,-1.923530,-48.368523,18.070927,1.905241,-99.457954,4.623123,-117.417732,0.361758,-0.373688,0.665020,-0.535944
435,-0.873082,-10.327934,-2.601846,-50.814869,16.967888,1.666268,-101.157829,4.577132,-118.004272,0.353218,-0.375789,0.674708,-0.528005
436,-0.824444,-10.431415,-3.246495,-57.111725,14.909777,-2.647862,-102.996872,4.449767,-118.521820,0.344070,-0.378931,0.684486,-0.519140
437,-0.484722,-10.407592,-3.586107,-65.553398,12.921362,-6.358294,-105.071754,4.191119,-118.936859,0.333799,-0.383800,0.694525,-0.508833
438,-0.355674,-10.599923,-4.224873,-76.590492,10.533094,-10.684484,-107.460411,3.808440,-119.233398,0.322161,-0.390599,0.705071,-0.496508
439,-0.404367,-10.498117,-4.854654,-89.682007,7.938396,-14.111045,-110.239792,3.317336,-119.391670,0.308935,-0.399477,0.716312,-0.481533
440,-0.488413,-10.269367,-5.322696,-102.095528,5.840018,-14.005449,-113.435692,2.796519,-119.430504,0.294273,-0.409893,0.728430,-0.463444
441,-0.422629,-10.049397,-6.011409,-110.154556,5.429046,-8.766615,-116.970161,2.373184,-119.438110,0.278766,-0.420427,0.741492,-0.442404
442,-0.554082,-10.042366,-6.687660,-117.678078,5.938291,-1.337229,-120.766548,2.135159,-119.521217,0.262834,-0.429786,0.755564,-0.418719
443,-0.486713,-9.598468,-7.125618,-117.635139,8.330980,3.165973,-124.691521,2.033590,-119.735847,0.246551,-0.437456,0.770086,-0.393463
444,-0.543261,-9.663168,-7.711412,-112.770149,11.109808,9.172468,-128.540283,2.006785,-120.117676,0.230315,-0.442967,0.784297,-0.368258
445,-0.254348,-9.501213,-8.148551,-104.625473,13.308791,14.086067,-132.179153,2.040401,-120.677719,0.214687,-0.446057,0.797838,-0.344089
446,-0.284841,-9.398440,-8.248758,-97.273285,13.004993,15.066343,-135.564178,2.088323,-121.329750,0.199928,-0.447459,0.810284,-0.321323
447,-0.227478,-9.566937,-8.049581,-82.060822,11.748432,16.643227,-138.575089,2.146647,-121.997292,0.186768,-0.447620,0.821148,-0.300781
448,-0.336294,-9.217293,-8.232762,-67.363426,8.924846,15.016148,-141.087723,2.224487,-122.622269,0.175924,-0.446883,0.830094,-0.283354
449,0.080012,-8.578656,-7.977861,-60.838009,9.894474,6.371687,-143.241745,2.195554,-123.096008,0.166175,-0.446726,0.837093,-0.268507
450,-0.103857,-8.253979,-7.674312,-53.352566,9.812135,-2.541271,-145.152908,1.965832,-123.340904,0.156480,-0.448181,0.842159,-0.255765
451,-0.723401,-7.919142,-7.897815,-51.743942,5.491128,-2.684672,-146.906082,1.704822,-123.412003,0.147537,-0.450585,0.845976,-0.243988
452,-0.324671,-6.665732,-8.179214,-64.484489,3.836117,-16.264124,-148.837646,1.405004,-123.226776,0.138079,-0.455016,0.848931,-0.230674
453,-0.565130,-6.356375,-7.492615,-76.993492,5.354797,-16.419691,-151.186264,0.998658,-122.832115,0.126448,-0.461479,0.851508,-0.214434
454,-0.841644,-6.109829,-7.478685,-81.498642,-0.220375,-12.991250,-153.820618,0.697101,-122.436882,0.114233,-0.467745,0.854336,-0.195641
455,-0.427079,-5.186814,-7.599241,-94.145325,-0.884634,-19.307936,-156.740845,0.489155,-121.939178,0.101478,-0.474555,0.856823,-0.174226
456,-0.149177,-4.480867,-6.852467,-112.176262,2.643298,-26.085949,-160.172653,0.183547,-121.247101,0.085829,-0.482980,0.858538,-0.149252
457,-0.674689,-4.056626,-6.640423,-122.181396,0.102833,-19.950243,-164.073853,-0.095565,-120.532913,0.067992,-0.491285,0.859911,-0.120705
458,-0.196701,-3.012671,-6.917485,-148.067917,-1.643133,-21.706211,-168.573486,-0.232497,-119.852119,0.048139,-0.498802,0.860978,-0.087160
459,0.026898,-1.881002,-6.189318,-177.013855,2.612986,-22.171576,-173.984512,-0.358418,-119.132851,0.023885,-0.505980,0.860942,-0.046823
460,-0.414458,-1.488335,-5.894575,-169.567017,-1.014318,-11.836519,-179.749542,-0.414335,-118.571747,-0.001992,-0.510757,0.859715,-0.003726
461,-0.263920,-0.601097,-5.897889,-152.631668,-1.052736,-7.349495,174.892639,-0.362482,-118.253418,-0.025575,-0.512508,0.857520,0.036620
462,0.183086,-0.239229,-5.493447,-131.000610,4.865673,-5.215149,170.174377,-0.396882,-118.038261,-0.047041,-0.512603,0.854337,0.071646
463,0.016320,0.200058,-5.088994,-94.034401,6.766988,-4.084109,166.428253,-0.555087,-117.849701,-0.065108,-0.512050,0.850776,0.098718
464,0.000662,0.384359,-5.593408,-56.139542,6.146821,-3.567669,163.925705,-0.730758,-117.672493,-0.077754,-0.511629,0.847731,0.116369
465,0.174084,0.860757,-5.848163,-47.915272,8.220262,-3.894067,162.189392,-0.923893,-117.484184,-0.087132,-0.511553,0.845156,0.128193
466,0.290002,1.370582,-6.497480,-37.411892,7.918334,-3.593317,160.763931,-1.139478,-117.280769,-0.095317,-0.511649,0.842738,0.137563
467,0.283985,1.907162,-7.334283,-29.488312,6.129490,-4.399105,159.644699,-1.314752,-117.076263,-0.101852,-0.511955,0.840568,0.144820
468,0.329137,1.914338,-8.226163,-19.887333,4.388321,-3.829003,158.817322,-1.430148,-116.885796,-0.106639,-0.512437,0.838737,0.150189
469,0.269490,2.225000,-8.866512,-8.770384,1.736019,-4.299462,158.335587,-1.475746,-116.722343,-0.109343,-0.513113,0.837402,0.153353
470,0.251873,2.436867,-9.148216,-1.901341,0.168496,-4.995181,158.153778,-1.447924,-116.566597,-0.110165,-0.514117,0.836438,0.154657
471,0.128143,2.462427,-9.385862,9.603075,-1.339705,-5.534225,158.278336,-1.364751,-116.410805,-0.109210,-0.515494,0.835841,0.153976
472,0.087335,2.466077,-9.266471,13.215781,-2.975239,-4.387160,158.655762,-1.237296,-116.283295,-0.106753,-0.516963,0.835671,0.151681
473,0.025720,2.526989,-9.105896,8.593319,-3.180542,-3.171871,159.017639,-1.096218,-116.202835,-0.104198,-0.518081,0.835674,0.149609
474,-0.079288,2.395447,-8.683567,8.762565,-4.265584,-0.905157,159.306564,-0.956067,-116.183510,-0.101896,-0.518675,0.835855,0.148122
475,-0.171129,2.189456,-7.954508,13.882916,-5.311307,1.414009,159.684998,-0.809589,-116.247368,-0.099034,-0.518739,0.836518,0.146082
476,-0.095780,1.517089,-7.001412,26.834967,-5.455829,3.232203,160.365372,-0.667435,-116.381416,-0.094749,-0.518522,0.837872,0.141871
477,-0.168308,0.781205,-6.107245,45.558453,-5.668250,2.971958,161.573502,-0.525859,-116.539444,-0.088057,-0.518506,0.839938,0.133795
478,-0.253277,0.515447,-5.423352,60.177078,-7.026267,1.740406,163.336517,-0.347614,-116.677917,-0.078614,-0.518977,0.842412,0.121762
479,-0.377889,0.010145,-5.141013,68.049171,-7.801103,4.900930,165.473663,-0.139179,-116.850922,-0.067225,-0.519275,0.845203,0.107080
480,-0.042089,-0.898387,-5.219322,77.875198,-6.895218,7.391867,167.904968,0.051500,-117.106438,-0.054582,-0.518843,0.848353,0.090113
481,-0.229794,-1.039894,-5.812137,84.892174,-8.696326,7.199279,170.615555,0.261132,-117.393219,-0.040562,-0.517986,0.851465,0.071075
482,-0.333380,-1.008916,-6.823658,78.002228,-12.030151,7.879390,173.326569,0.567997,-117.690353,-0.025877,-0.516716,0.854162,0.052369
483,-0.581235,-1.873440,-7.578676,77.509102,-10.899653,9.568175,175.912613,0.920633,-118.016319,-0.011479,-0.514817,0.856520,0.034704
484,-0.163614,-2.320871,-8.577817,87.085136,-8.104444,3.764211,178.649902,1.225947,-118.252953,0.003136,-0.513188,0.858129,0.015601
485,-0.149790,-2.285856,-9.801952,75.978020,-5.217765,-1.113075,-178.635254,1.449128,-118.296310,0.016962,-0.512613,0.858444,-0.003739
486,-0.073615,-1.999995,-10.161659,54.097332,-2.702325,-10.994104,-176.463104,1.573201,-118.088646,0.027640,-0.513718,0.857294,-0.019404
487,0.023744,-2.137053,-10.392263,53.634277,3.318244,-14.763188,-174.656708,1.531592,-117.661102,0.035546,-0.516429,0.854956,-0.032970
488,0.524892,-2.067072,-10.493473,51.753834,6.343046,-20.421600,-172.886887,1.308383,-117.094772,0.042088,-0.520150,0.851743,-0.046970
489,0.547610,-2.002266,-10.153396,52.659897,7.372116,-23.430285,-171.133362,0.981259,-116.402336,0.047986,-0.524780,0.847678,-0.061195
490,0.483115,-2.144419,-9.677405,74.843079,7.239724,-30.070381,-168.997528,0.587998,-115.566116,0.055430,-0.530248,0.842390,-0.078383
491,0.198658,-3.104379,-9.198560,108.813347,10.522426,-26.846750,-165.933060,0.093168,-114.705467,0.066737,-0.535322,0.835725,-0.102668
492,0.340099,-4.242650,-8.940284,130.047134,12.405841,-24.722031,-161.959106,-0.513915,-113.986969,0.081692,-0.538582,0.827846,-0.133894
493,0.796024,-4.897653,-8.651401,140.134827,14.375201,-23.637098,-157.472076,-1.212545,-113.387497,0.098579,-0.540234,0.818468,-0.168935
494,0.016935,-5.823336,-7.940242,139.790497,14.188748,-19.558447,-152.827560,-1.946516,-112.935219,0.115984,-0.540199,0.807927,-0.204906
495,-0.189743,-7.387784,-7.440741,126.240082,12.248693,-7.431640,-148.408676,-2.551036,-112.760475,0.132841,-0.537685,0.797732,-0.238479
496,0.277001,-8.214258,-7.357080,116.238678,10.139533,2.352662,-144.367294,-2.910739,-112.898598,0.148894,-0.532476,0.788878,-0.268274
497,0.504925,-8.610338,-7.132344,107.952423,6.855781,8.420971,-140.619370,-3.027892,-113.215500,0.164605,-0.525438,0.780929,-0.294908
498,-0.240551,-9.167581,-6.957431,106.428215,2.408576,17.046103,-137.028748,-2.865639,-113.638412,0.180916,-0.516758,0.773532,-0.319185
499,0.373822,-9.694775,-7.409712,103.602676,0.105768,22.575148,-133.509003,-2.431962,-114.139381,0.198137,-0.506406,0.766471,-0.341786
500,0.435531,-9.323755,-7.260516,105.779922,0.253730,20.476603,-130.004715,-1.901886,-114.623016,0.215533,-0.495315,0.758888,-0.363727
501,0.481504,-9.386522,-6.937192,95.402176,-0.667337,19.131632,-126.643570,-1.379938,-115.026146,0.232056,-0.484454,0.750757,-0.384472
502,0.244134,-9.852325,-6.825695,80.405586,-0.594396,20.220110,-123.709091,-0.832180,-115.386765,0.246687,-0.474136,0.743407,-0.402102
503,0.294220,-9.908369,-6.213106,71.167198,-0.580225,18.350269,-121.181335,-0.280094,-115.715691,0.259443,-0.464477,0.736975,-0.416915
504,0.237514,-10.104351,-5.716846,68.812164,-0.848282,14.737473,-118.849396,0.209004,-115.970879,0.270995,-0.455638,0.730511,-0.430475
505,0.252284,-10.211782,-5.235161,66.255806,-1.665398,13.231196,-116.600632,0.641177,-116.150116,0.281907,-0.447415,0.723665,-0.443461
506,0.135474,-10.631736,-4.715128,61.980888,-3.826808,9.961236,-114.465500,1.029425,-116.234016,0.292272,-0.439993,0.716551,-0.455564
507,-0.020703,-10.002052,-4.086913,63.111755,-5.842665,3.051464,-112.380219,1.292860,-116.172142,0.302097,-0.433888,0.708568,-0.467344
508,0.068210,-10.080991,-3.493088,58.631645,-5.122478,0.785190,-110.348503,1.419592,-116.024368,0.311126,-0.428825,0.699943,-0.478946
509,-0.270196,-10.075946,-3.105559,53.283947,-3.366508,2.423459,-108.480896,1.517077,-115.908394,0.319152,-0.423972,0.691872,-0.489595
510,-0.264716,-10.176111,-2.404986,47.857803,-2.371674,2.886134,-106.793877,1.630106,-115.844238,0.326305,-0.419107,0.684658,-0.499118
511,-0.198611,-9.752037,-2.067369,49.357567,-0.877048,1.143868,-105.173012,1.709461,-115.810760,0.332812,-0.414287,0.677625,-0.508358
512,-0.229278,-10.150048,-1.557514,47.193966,0.012979,3.526649,-103.564316,1.788299,-115.815872,0.339026,-0.409179,0.670659,-0.517543
513,-0.590514,-10.167417,-1.860463,46.891445,-1.268167,3.842896,-101.996780,1.912516,-115.822914,0.345267,-0.403877,0.663893,-0.526232
514,-0.102973,-9.924070,-1.372224,42.833477,-3.081432,2.577111,-100.499931,2.031709,-115.772720,0.351418,-0.399050,0.657129,-0.534271
515,-0.421347,-9.811314,-1.691328,39.289642,-3.459343,3.235121,-99.128166,2.145958,-115.681709,0.357236,-0.394777,0.650705,-0.541402
516,-0.682043,-9.891464,-1.655503,31.428772,-2.684677,8.462112,-97.946869,2.353975,-115.609436,0.362779,-0.390457,0.645455,-0.547104
517,-0.618518,-9.715933,-1.438940,25.781075,-1.546486,8.895543,-96.992012,2.649868,-115.577652,0.367789,-0.386129,0.641642,-0.551299
518,-0.554307,-9.687059,-1.294324,20.217262,-0.675423,9.755630,-96.225380,2.962827,-115.576790,0.372064,-0.382095,0.638866,-0.554456
519,-0.814892,-9.901811,-1.318795,15.636196,0.990007,11.400741,-95.630104,3.312935,-115.618645,0.375725,-0.378157,0.637157,-0.556650
520,-0.723804,-10.141685,-0.880124,11.568360,2.264698,12.458716,-95.182289,3.703611,-115.710464,0.378845,-0.374190,0.636436,-0.558040
522,-0.796996,-10.414272,-0.916726,7.829082,2.946935,9.284339,-94.867004,4.056911,-115.829147,0.381178,-0.370681,0.636326,-0.558917
523,-0.718101,-10.497803,-0.979086,1.839833,5.037212,6.433089,-94.717117,4.306796,-115.984070,0.382236,-0.368040,0.636827,-0.559369
524,-0.707285,-10.643349,-0.681030,-6.123326,6.182319,5.004817,-94.803978,4.481160,-116.186897,0.381897,-0.366305,0.638409,-0.558936
525,-0.834450,-10.543607,-0.919393,-13.185680,6.894822,1.539701,-95.143707,4.570815,-116.414307,0.380182,-0.365704,0.641050,-0.557474
526,-0.787897,-10.478085,-1.116325,-22.497799,7.936387,1.027732,-95.758408,4.589819,-116.665367,0.377103,-0.366229,0.644889,-0.554786
527,-0.631864,-10.216650,-1.188454,-31.562496,8.460735,0.421654,-96.681366,4.584095,-116.940559,0.372789,-0.367723,0.650206,-0.550491
528,-0.861509,-10.195313,-1.289193,-38.439526,7.647114,2.262601,-97.869781,4.594321,-117.213425,0.367716,-0.369955,0.656791,-0.544559
529,-0.631488,-10.115559,-1.939895,-44.368530,8.598012,3.210747,-99.272491,4.643985,-117.495453,0.362114,-0.372548,0.664461,-0.537190
530,-0.500709,-10.188173,-2.301752,-51.950962,8.014025,3.635166,-100.901443,4.707804,-117.788864,0.355790,-0.375623,0.673163,-0.528368
531,-0.624906,-10.007814,-2.824032,-59.128963,6.399262,-0.773459,-102.772491,4.704986,-118.034485,0.348484,-0.379934,0.682509,-0.518065
532,-0.833671,-9.799267,-3.310919,-68.709908,5.984113,-2.395803,-104.917709,4.603864,-118.223312,0.339889,-0.385725,0.692471,-0.506138
533,-0.634330,-9.709688,-3.835552,-81.837852,6.702659,-4.729158,-107.439171,4.430726,-118.393875,0.329561,-0.392855,0.703608,-0.491925
534,-0.627645,-9.810364,-4.193088,-93.296967,5.885958,-8.172292,-110.366020,4.159344,-118.523247,0.317242,-0.401533,0.715766,-0.475193
535,-1.059904,-9.538880,-4.722736,-104.641830,6.772577,-7.900751,-113.669022,3.831677,-118.618935,0.303129,-0.411287,0.728780,-0.455889
536,-0.518418,-9.316209,-5.510916,-112.622475,9.327700,-3.498977,-117.296906,3.545206,-118.779327,0.287537,-0.420790,0.742831,-0.434120
537,-0.472526,-9.474899,-6.425170,-119.433731,10.556703,0.360153,-121.176003,3.339052,-119.042252,0.270856,-0.429327,0.757676,-0.410173
538,-0.611591,-9.458408,-7.413803,-120.762573,9.894737,5.808107,-125.193810,3.239471,-119.383049,0.253838,-0.436618,0.772707,-0.384519
539,-0.855057,-8.986160,-8.213071,-118.863129,9.522867,14.002899,-129.208435,3.307513,-119.839142,0.237425,-0.441883,0.787582,-0.357888
540,-0.305833,-9.173467,-8.764210,-114.412201,10.763278,22.300013,-133.130371,3.541652,-120.490318,0.221898,-0.444465,0.802264,-0.331035
541,-0.640305,-9.416016,-8.868525,-101.613228,12.759818,23.527912,-136.778824,3.806944,-121.306526,0.207318,-0.444729,0.815947,-0.305721
542,-0.851700,-9.490679,-8.797956,-78.463043,11.014476,22.604099,-139.834244,4.023621,-122.145241,0.194848,-0.443460,0.827341,-0.284404
543,-0.595101,-9.456312,-8.862911,-54.085464,12.395809,15.379782,-142.094406,4.120203,-122.883583,0.185028,-0.441587,0.835759,-0.268835
544,-0.230537,-9.230776,-8.946596,-38.607124,12.692616,3.461498,-143.674088,3.976821,-123.388115,0.176749,-0.440759,0.841185,-0.258649
545,-0.842216,-8.764012,-8.522926,-33.199657,9.751593,-1.878697,-144.886414,3.688068,-123.629402,0.169445,-0.441534,0.844516,-0.251254
546,-1.031112,-8.235957,-8.484203,-38.617386,3.082397,0.864034,-146.089828,3.501821,-123.737022,0.163208,-0.442934,0.847344,-0.243272
547,-0.458400,-7.962418,-8.039075,-48.257042,6.438256,-7.128431,-147.537506,3.311747,-123.735802,0.156205,-0.445401,0.850168,-0.233309
548,-0.758316,-6.987812,-8.115597,-57.749805,6.706992,-14.949208,-149.293045,2.931962,-123.537453,0.146941,-0.450032,0.852528,-0.221531
549,-1.019369,-6.412271,-7.741128,-84.346863,0.444186,-10.882496,-151.645142,2.615478,-123.221642,0.135888,-0.455939,0.855379,-0.204894
550,-0.570076,-5.642000,-7.492202,-96.957634,-1.294253,-15.341418,-154.647385,2.431593,-122.823326,0.123160,-0.462656,0.858713,-0.182739
551,-0.267957,-4.850268,-7.318297,-99.647133,1.137014,-28.462040,-157.894684,2.139818,-122.153931,0.108742,-0.471448,0.860617,-0.158907
552,-0.489237,-3.899496,-7.609638,-104.776825,-1.120443,-25.728462,-161.269470,1.822242,-121.309608,0.093414,-0.481221,0.861224,-0.134140
553,-0.194559,-3.585030,-7.091564,-123.002930,-3.634022,-17.824114,-165.039612,1.688704,-120.591660,0.077193,-0.489585,0.862061,-0.105824
554,0.076827,-3.047214,-6.659026,-126.689308,4.334559,-20.404139,-169.178024,1.538316,-119.972641,0.058737,-0.496837,0.862603,-0.074962
555,0.156206,-2.366512,-6.560241,-135.605209,8.755793,-23.749964,-173.526871,1.212300,-119.281448,0.037648,-0.504071,0.861750,-0.043376
556,-0.096680,-1.534637,-6.419153,-146.328781,8.520182,-19.280319,-178.205399,0.873552,-118.589493,0.014550,-0.510442,0.859736,-0.009572
557,-0.014216,-0.898630,-5.991477,-155.115707,7.757384,-14.873302,176.787628,0.611984,-118.017960,-0.009856,-0.514822,0.856822,0.026777
558,-0.201008,-0.001708,-5.714139,-146.637634,7.635497,-13.725829,171.773529,0.406725,-117.519119,-0.034173,-0.517509,0.852659,0.063163
559,-0.232686,0.394700,-5.641288,-124.753738,6.073401,-9.015461,167.261673,0.251467,-117.105972,-0.056015,-0.518696,0.847728,0.095778
560,-0.094202,0.650738,-5.721676,-96.029190,5.788568,-7.107589,163.588470,0.128897,-116.796761,-0.073843,-0.518781,0.842907,0.122147
561,0.084230,1.018588,-5.985004,-72.835587,7.002584,-6.969425,160.777023,-0.002301,-116.508774,-0.087866,-0.518760,0.838457,0.141977
562,0.055900,1.760933,-6.387558,-57.270321,7.632583,-8.334070,158.609360,-0.143017,-116.185555,-0.099132,-0.519166,0.834280,0.156897
563,0.191739,1.910378,-6.949032,-42.118637,8.160088,-8.099132,156.952133,-0.283675,-115.832741,-0.108168,-0.520028,0.830454,0.167977
564,0.002028,2.379012,-7.526435,-28.050508,7.084574,-10.639567,155.780579,-0.391610,-115.445053,-0.114853,-0.521528,0.827036,0.175581
565,-0.148708,2.802256,-8.144598,-16.418886,4.828415,-10.003814,155.036728,-0.429528,-115.049545,-0.119133,-0.523558,0.824114,0.180363
566,-0.138836,2.802967,-8.677403,-3.527029,3.495665,-9.357940,154.701767,-0.418338,-114.698410,-0.121142,-0.525746,0.821965,0.182452
567,-0.251867,2.801361,-9.205684,10.657362,1.408956,-11.080923,154.818344,-0.347324,-114.355400,-0.120642,-0.528443,0.820501,0.181582
568,-0.356958,2.983349,-9.459744,16.182888,-0.676486,-10.925399,155.264114,-0.203977,-114.017677,-0.118086,-0.531552,0.819495,0.178705
569,-0.199600,2.994662,-9.673338,19.723619,-1.950120,-8.677329,155.862015,-0.029139,-113.738358,-0.114487,-0.534427,0.818944,0.174961
570,-0.187719,3.076078,-9.730551,16.330303,-2.501684,-6.655298,156.463135,0.141815,-113.534569,-0.110763,-0.536732,0.818730,0.171264
571,-0.161582,2.986893,-9.453437,12.560193,-3.130716,-4.774071,156.945190,0.303325,-113.396767,-0.107552,-0.538412,0.818640,0.168445
572,-0.008460,2.920217,-9.099238,10.947131,-2.304124,-4.092005,157.337646,0.444160,-113.295822,-0.104846,-0.539698,0.818601,0.166209
573,-0.044435,2.801545,-8.774137,12.171206,-1.333765,-4.428062,157.723892,0.554461,-113.187775,-0.102391,-0.540974,0.818541,0.163871
574,-0.128333,2.477466,-8.568604,18.641647,0.005624,-4.766305,158.238800,0.632440,-113.053970,-0.099589,-0.542490,0.818563,0.160443
575,-0.174208,2.112532,-8.554004,34.838573,1.226149,-5.439316,159.131989,0.675107,-112.887962,-0.095275,-0.544492,0.818962,0.154121
576,-0.310200,1.924873,-8.386969,46.564083,1.441742,-5.837417,160.490845,0.698104,-112.696121,-0.088888,-0.546984,0.819797,0.144360
577,-0.436529,1.483142,-7.943939,55.623055,0.539611,-2.455349,162.195374,0.710908,-112.554596,-0.080814,-0.549274,0.821166,0.132111
578,-0.467554,1.014040,-7.362707,64.598198,-0.054980,3.220364,164.198395,0.698967,-112.564445,-0.071277,-0.550520,0.823406,0.117687
579,-0.416833,0.322443,-6.497377,64.433777,-0.900642,9.213123,166.345734,0.660888,-112.768738,-0.061041,-0.550255,0.826472,0.102163
580,-0.532614,0.108995,-5.635339,54.268864,-3.412225,11.198508,168.319366,0.655476,-113.116219,-0.051328,-0.548707,0.829780,0.088045
581,-0.398217,0.044874,-5.145440,36.394085,-3.940192,16.149195,169.824402,0.688770,-113.587196,-0.043557,-0.545935,0.833100,0.077478
582,-0.279162,-0.335825,-5.190592,28.600796,-3.983413,22.395336,170.899506,0.710253,-114.242592,-0.037877,-0.541554,0.836892,0.069979
583,-0.014183,-0.652434,-5.866005,27.065611,-3.141375,22.316936,171.817841,0.714826,-114.997101,-0.033085,-0.536317,0.840973,0.063510
584,-0.115152,-0.600159,-6.428174,34.472904,-2.302786,16.714775,172.835205,0.717814,-115.653839,-0.027979,-0.531759,0.844564,0.056217
585,0.281976,-1.147336,-7.523615,50.266396,-1.276701,16.457394,174.240387,0.715644,-116.209846,-0.021250,-0.527954,0.847763,0.045950
586,0.108801,-2.037814,-7.928123,81.334511,0.737903,9.431596,176.427933,0.690175,-116.640373,-0.011245,-0.525067,0.850469,0.029684
587,0.080838,-2.184781,-8.844708,104.107933,-1.704206,2.138753,179.514633,0.701544,-116.833252,0.002997,-0.523746,0.851842,0.006814
588,-0.081186,-3.014170,-8.926812,120.251617,-1.795284,-5.923591,-176.748749,0.760226,-116.769279,0.020518,-0.523831,0.851324,-0.020682
589,0.042506,-3.467682,-9.621340,128.995941,-2.254202,-6.563042,-172.596970,0.810140,-116.555824,0.039945,-0.524301,0.849053,-0.051203
590,0.073334,-4.636332,-9.411514,129.242325,-1.031501,-11.309821,-168.295074,0.814750,-116.253502,0.059848,-0.524661,0.845153,-0.082855
591,0.045406,-5.159029,-10.217204,126.445496,-1.779546,-14.323106,-164.034302,0.759521,-115.827438,0.079330,-0.525257,0.839510,-0.114174
592,0.096415,-6.209660,-10.214431,118.513458,3.594418,-17.046684,-159.951996,0.570443,-115.340233,0.097227,-0.525891,0.832537,-0.144455
593,-0.071802,-6.162350,-10.635134,105.681137,4.681517,-9.862158,-156.217834,0.275958,-114.974297,0.112737,-0.525535,0.825440,-0.172491
594,0.435296,-6.416041,-10.467362,92.737732,4.545475,-9.683376,-152.913956,-0.004085,-114.746689,0.126229,-0.524178,0.818779,-0.197242
595,-0.154136,-6.095005,-10.209362,84.794960,4.678843,-6.438649,-149.957932,-0.267155,-114.584152,0.138151,-0.522400,0.812356,-0.219294
596,0.019704,-6.320467,-9.309988,77.755943,3.218247,0.996683,-147.250687,-0.427144,-114.575500,0.149344,-0.519381,0.806694,-0.239135
597,0.397125,-6.712335,-8.279764,82.371521,1.563806,5.910949,-144.582458,-0.429672,-114.716408,0.161061,-0.514783,0.801537,-0.258061
598,0.241973,-7.759765,-7.121265,87.606163,0.840232,2.986885,-141.750275,-0.373392,-114.859863,0.173777,-0.509515,0.795642,-0.277759
599,-0.039626,-8.627123,-6.469662,95.216316,3.884672,11.839373,-138.703995,-0.275282,-115.099693,0.187309,-0.502812,0.789196,-0.298772
600,0.258385,-9.590627,-5.637169,99.520241,3.553190,18.214230,-135.459839,-0.026972,-115.551292,0.201898,-0.493536,0.782816,-0.320715
601,0.235141,-10.085230,-5.857319,99.123375,4.818129,17.856981,-132.153442,0.309119,-116.068680,0.216774,-0.482999,0.776058,-0.342717
602,-0.277975,-10.179555,-5.878098,92.151855,4.272982,16.299877,-128.972397,0.642546,-116.553246,0.230786,-0.472480,0.768906,-0.363710
603,0.036354,-10.172808,-6.176317,89.085846,3.072442,18.952026,-125.960892,1.034128,-117.007401,0.244189,-0.461905,0.761717,-0.383149
604,-0.022816,-10.105466,-6.153568,82.499855,-1.020175,9.178508,-123.109596,1.400419,-117.301872,0.256963,-0.452437,0.753883,-0.401161
605,-0.162856,-9.702525,-6.386364,76.292854,-2.204471,2.645197,-120.466385,1.597747,-117.358887,0.268393,-0.445279,0.745080,-0.417789
606,-0.103728,-9.890720,-5.891998,70.149597,-3.713698,1.084537,-118.025429,1.700888,-117.302284,0.278686,-0.439423,0.736027,-0.433020
607,-0.039284,-9.934656,-5.690692,64.116394,-5.524271,0.564699,-115.784889,1.795402,-117.177330,0.288304,-0.434304,0.727166,-0.446644
608,-0.021609,-9.398249,-4.826054,57.950626,-6.321041,0.033103,-113.745628,1.887468,-117.002312,0.297258,-0.429823,0.718666,-0.458703
609,-0.201912,-9.570445,-4.250874,50.052448,-6.390008,5.364817,-111.940628,2.052786,-116.841965,0.305660,-0.425384,0.711162,-0.468902
610,-0.011620,-10.170174,-3.344062,41.656193,-6.819249,8.908969,-110.407898,2.353918,-116.723297,0.313639,-0.420689,0.705141,-0.476893
611,-0.197791,-9.767879,-2.562100,39.145355,-6.981544,11.006863,-109.056786,2.743935,-116.619354,0.321352,-0.415884,0.700076,-0.483392
612,-0.281308,-9.957673,-1.853173,37.486038,-6.684802,11.284289,-107.774681,3.168281,-116.520775,0.328921,-0.410963,0.695351,-0.489292
613,-0.398381,-10.397659,-1.976942,37.160046,-5.879098,8.274651,-106.524651,3.541431,-116.416718,0.336023,-0.406282,0.690563,-0.495123
614,-0.493775,-10.452749,-1.684398,36.523140,-5.649065,3.390084,-105.288353,3.781029,-116.284691,0.342355,-0.402318,0.685341,-0.501240
615,-0.654963,-9.667594,-2.024994,38.085083,-4.994200,-0.924446,-104.034317,3.865761,-116.122726,0.347942,-0.399111,0.679475,-0.507899
616,-0.685278,-9.916117,-2.083167,32.983727,-4.186540,-2.508512,-102.839088,3.845681,-115.959854,0.352703,-0.396513,0.673523,-0.514533
617,-0.706080,-9.831064,-2.130016,28.179628,-3.099065,-2.854196,-101.810638,3.784309,-115.821709,0.356529,-0.394431,0.668236,-0.520357
618,-0.747706,-9.524303,-1.933019,21.593809,-2.274278,0.309666,-100.974808,3.760399,-115.725281,0.359704,-0.392494,0.664027,-0.525004
619,-0.634814,-9.397707,-1.810764,17.365730,-1.820503,3.765238,-100.321892,3.839715,-115.670807,0.362628,-0.390368,0.661060,-0.528312
620,-0.552555,-9.628945,-1.665334,14.005723,-1.811314,6.687836,-99.797020,4.021791,-115.641747,0.365556,-0.387982,0.659044,-0.530565
621,-0.609552,-9.649930,-1.529188,11.466989,-2.961210,8.056052,-99.369774,4.277318,-115.604279,0.368584,-0.385579,0.657651,-0.531949
622,-0.462810,-9.489190,-1.376272,9.116738,-3.682873,6.721468,-99.021347,4.538172,-115.534218,0.371515,-0.383572,0.656527,-0.532749
623,-0.420279,-9.856628,-1.243898,6.928040,-4.877412,4.470300,-98.744850,4.744527,-115.421707,0.374092,-0.382298,0.655443,-0.533196
625,-0.589515,-9.926707,-1.013151,5.484959,-4.299430,0.724914,-98.526413,4.853144,-115.283005,0.376060,-0.381838,0.654268,-0.533585
626,-0.650110,-9.862797,-0.808702,5.060881,-3.998774,-2.536047,-98.338699,4.843580,-115.141212,0.377294,-0.382077,0.652894,-0.534225
627,-0.573935,-9.948764,-0.828569,4.136933,-3.027156,-5.006993,-98.174202,4.735989,-115.006767,0.377885,-0.382834,0.651373,-0.535120
628,-0.615719,-9.933859,-0.778992,0.328894,-1.485806,-5.538843,-98.091713,4.572636,-114.907074,0.377740,-0.383938,0.650189,-0.535871
629,-0.732667,-9.905746,-0.563311,-0.208177,-0.364444,-6.359816,-98.085152,4.380661,-114.848412,0.376994,-0.385201,0.649413,-0.536431
630,-0.783058,-9.746188,-0.592674,4.574992,-0.594901,-4.399845,-98.009315,4.205338,-114.807358,0.376490,-0.386052,0.648416,-0.537379
631,-0.862140,-10.051808,-0.407220,1.238789,0.326004,-2.245326,-97.910980,4.096258,-114.787598,0.376321,-0.386381,0.647573,-0.538276
632,-0.750993,-9.744079,-0.172267,8.620772,2.144114,-2.707239,-97.748764,4.008872,-114.817207,0.376254,-0.386114,0.646658,-0.539614
633,-0.954445,-10.047424,-0.257916,6.669324,3.681951,-0.537273,-97.500114,3.942388,-114.906517,0.376309,-0.385124,0.645592,-0.541555
634,-0.863722,-10.041540,-0.415828,5.964639,5.229823,-0.586433,-97.299515,3.904641,-115.051758,0.376090,-0.383835,0.645020,-0.543301
635,-0.846622,-10.259447,-0.722773,1.361533,6.990895,-0.270111,-97.191017,3.864763,-115.252480,0.375284,-0.382548,0.645061,-0.544716
636,-0.664922,-9.947384,-1.068697,-3.643596,8.781550,-1.089539,-97.246346,3.809164,-115.510986,0.373568,-0.381550,0.646025,-0.545452
637,-0.885896,-10.044167,-1.446038,-11.260656,7.232841,-0.055253,-97.512077,3.755873,-115.773773,0.371143,-0.381196,0.648010,-0.545000
638,-0.827749,-9.889298,-1.798657,-21.537516,6.354478,0.293210,-98.073433,3.728927,-115.999100,0.368057,-0.381863,0.651347,-0.542643
639,-0.651799,-9.909842,-2.211391,-29.214462,5.820868,2.295860,-98.932777,3.741395,-116.206558,0.364278,-0.383364,0.656129,-0.538358
640,-0.494794,-9.987660,-2.472262,-37.366688,5.071392,3.960541,-100.055359,3.814163,-116.403099,0.359999,-0.385424,0.662235,-0.532254
641,-0.377220,-10.046022,-3.026352,-45.952423,3.713712,4.068785,-101.455261,3.918141,-116.572166,0.355077,-0.388305,0.669543,-0.524262
642,-0.133210,-10.403427,-3.618783,-57.165024,4.779181,1.535330,-103.184502,3.978943,-116.730751,0.348813,-0.392393,0.678083,-0.514355
643,-0.057784,-10.173293,-4.176359,-69.775612,5.191591,-2.816215,-105.310310,3.917289,-116.887260,0.340430,-0.398142,0.687893,-0.502387
644,-0.366179,-9.686028,-4.507363,-85.811501,4.855743,-4.952045,-107.910553,3.745166,-117.011528,0.329761,-0.405780,0.699128,-0.487668
645,-0.560838,-9.198582,-5.229261,-101.709824,4.539439,-4.892757,-111.039764,3.538097,-117.104706,0.316925,-0.414950,0.712027,-0.469460
646,-0.577846,-9.039208,-5.868484,-116.526352,6.112679,-0.610291,-114.681427,3.384636,-117.232483,0.302131,-0.424635,0.726710,-0.447543
647,-0.742878,-8.778174,-6.696805,-125.536194,6.471237,6.744768,-118.724770,3.382514,-117.464882,0.286094,-0.433532,0.742922,-0.422217
648,-1.055862,-8.625422,-7.712891,-139.706421,4.091896,15.621098,-123.160065,3.612423,-117.805824,0.269428,-0.441173,0.760469,-0.393017
649,-0.557975,-8.828197,-8.289026,-149.201157,5.892885,22.191553,-128.000275,4.028020,-118.305435,0.251754,-0.447347,0.779072,-0.359927
650,-0.428494,-8.646845,-8.745732,-140.249664,9.603463,22.510651,-132.864975,4.428347,-118.984482,0.233334,-0.451655,0.796950,-0.326243
651,-1.086829,-8.462070,-9.273978,-121.478516,5.922376,20.972860,-137.274689,4.757794,-119.681740,0.216276,-0.454408,0.812130,-0.295268
652,-1.185168,-8.429659,-9.499852,-98.361053,5.882684,23.340197,-140.992615,5.091550,-120.369537,0.202163,-0.455346,0.824415,-0.268571
653,-0.798261,-8.556176,-9.087648,-72.368095,12.040253,21.122150,-143.905197,5.307798,-121.140564,0.190404,-0.454186,0.834269,-0.247905
654,-1.419378,-8.593021,-9.047136,-39.381714,14.556946,17.336840,-145.838715,5.315891,-121.923752,0.181170,-0.451574,0.841446,-0.235004
655,-1.337208,-8.846364,-9.086387,-23.431362,10.761016,16.405787,-146.950226,5.277345,-122.629128,0.175102,-0.448199,0.846427,-0.228073
656,-0.931095,-8.664717,-8.678771,-18.380693,17.242067,12.434390,-147.707001,5.144547,-123.288208,0.169884,-0.444769,0.850377,-0.224006
657,-1.099237,-8.055508,-8.185206,-28.982338,17.940851,4.763940,-148.544113,4.798219,-123.843742,0.163025,-0.442644,0.853869,-0.219992
658,-1.167568,-7.578483,-7.965112,-33.041939,15.916684,0.717158,-149.606918,4.360354,-124.213219,0.154990,-0.442329,0.856962,-0.214334
659,-0.657108,-7.219600,-7.680014,-33.563820,12.253587,-3.632793,-150.730606,3.928503,-124.404984,0.147093,-0.443292,0.859437,-0.207902
660,-0.764551,-6.289313,-7.239358,-41.176590,13.150725,-13.037878,-151.973328,3.423337,-124.363945,0.138583,-0.446178,0.861105,-0.200544
661,-0.709375,-5.729917,-7.027939,-53.845535,7.462044,-15.803185,-153.541580,2.897286,-124.093666,0.128977,-0.451054,0.862327,-0.190547
662,-0.257303,-5.217595,-6.742933,-51.885803,7.263400,-18.592047,-155.283905,2.428181,-123.681358,0.119226,-0.456888,0.863157,-0.178879
663,-0.326578,-4.630507,-6.677234,-49.889740,6.158028,-24.227194,-156.958252,1.934511,-123.119301,0.109649,-0.463617,0.863080,-0.167718
664,-0.583570,-3.733237,-6.898484,-64.372353,3.609214,-28.551577,-158.839661,1.452112,-122.365677,0.099410,-0.471745,0.862319,-0.154856
665,-0.130115,-3.354325,-6.859327,-75.158165,3.357314,-26.497295,-161.146194,1.029438,-121.542900,0.087708,-0.480397,0.861577,-0.138602
666,0.000487,-3.056940,-6.710397,-75.167000,5.366472,-26.722284,-163.638733,0.623772,-120.741432,0.075031,-0.488675,0.860767,-0.121023
667,-0.149808,-2.589842,-7.028604,-80.111000,2.305133,-29.277266,-166.218674,0.257934,-119.874374,0.062035,-0.497096,0.859358,-0.102716
668,0.281407,-2.114408,-7.107686,-87.536171,1.515708,-27.988541,-169.008804,-0.009071,-118.955956,0.048570,-0.505542,0.857471,-0.082539
669,0.345875,-1.821885,-7.041765,-88.188011,2.523958,-28.540850,-171.937286,-0.230483,-118.038391,0.034468,-0.513597,0.855144,-0.061306
670,-0.143588,-1.607981,-7.289981,-77.594452,0.105870,-27.123199,-174.703217,-0.381840,-117.123047,0.021260,-0.521154,0.852204,-0.041159
671,-0.179735,-1.143758,-7.598760,-77.353226,-2.027702,-27.081736,-177.290146,-0.413393,-116.219833,0.009430,-0.528213,0.848775,-0.021982
672,-0.125582,-0.867602,-7.413570,-83.332085,-1.402084,-24.181252,-179.972382,-0.376694,-115.364525,-0.002649,-0.534612,0.845091,-0.001961
673,-0.438687,-0.793330,-7.420509,-78.757301,-2.785802,-19.675962,177.323624,-0.289144,-114.636101,-0.014734,-0.539777,0.841481,0.018294
674,-0.337683,-0.377595,-7.647395,-72.795135,-3.715398,-14.261676,174.797272,-0.141627,-114.079407,-0.025729,-0.543450,0.838213,0.037410
675,-0.225964,0.230962,-7.670405,-77.330002,-3.870373,-10.130705,172.296204,0.030359,-113.689781,-0.036519,-0.545687,0.835292,0.056385
676,-0.155749,0.587854,-7.771186,-72.125542,-4.097696,-3.329744,169.807053,0.197208,-113.489113,-0.047280,-0.546332,0.832843,0.075225
677,-0.001221,0.903546,-8.072423,-51.889999,-4.666096,0.485212,167.741272,0.350768,-113.471199,-0.056021,-0.545639,0.831185,0.090948
678,0.163517,1.191268,-8.509095,-33.127441,-4.241982,1.824345,166.324249,0.487328,-113.541840,-0.061711,-0.544509,0.830251,0.101905
679,0.091656,1.275500,-8.888491,-18.688208,-3.689578,2.019920,165.459885,0.600126,-113.636086,-0.064910,-0.543447,0.829834,0.108753
680,0.127386,1.276216,-9.154275,-2.567110,-3.322148,1.188481,165.104736,0.699668,-113.717422,-0.065793,-0.542746,0.829813,0.111842
681,-0.029088,1.365539,-9.523046,14.943635,-2.908544,-2.006930,165.310822,0.803625,-113.730629,-0.064051,-0.542862,0.830007,0.110848
682,-0.110505,1.457334,-9.656447,12.298779,-3.200614,-2.196391,165.765472,0.919776,-113.688087,-0.061094,-0.543521,0.830164,0.108080
683,-0.344101,1.713303,-9.643689,11.558244,-4.304737,-4.362679,166.164398,1.067652,-113.612389,-0.058198,-0.544403,0.830081,0.105851
684,-0.422071,1.717920,-9.601975,11.384802,-5.109632,-2.285352,166.548187,1.246320,-113.541771,-0.055141,-0.545250,0.829982,0.103882
685,-0.552568,1.616294,-9.750517,11.931931,-5.890212,-0.008117,166.936722,1.433467,-113.546623,-0.051930,-0.545544,0.830235,0.101957
686,-0.458228,1.643576,-9.701029,2.947740,-5.206708,2.225318,167.182678,1.605374,-113.624069,-0.049442,-0.545222,0.830712,0.101023
687,-0.579295,1.729699,-9.719814,-13.386995,-3.995780,3.482314,167.005020,1.733540,-113.751198,-0.049242,-0.544320,0.831076,0.102972
688,-0.546062,1.876473,-9.809690,-24.993050,-3.792141,6.320405,166.359528,1.822072,-113.940346,-0.051486,-0.542733,0.831320,0.108155
689,-0.432794,2.107549,-9.862038,-36.953983,-2.791096,6.314728,165.319702,1.876903,-114.171585,-0.055776,-0.540614,0.831357,0.116065
690,-0.387109,2.382545,-9.601927,-47.847389,-1.854929,5.682277,163.899490,1.898266,-114.385109,-0.062081,-0.538354,0.830843,0.126575
691,-0.420146,2.635218,-9.441401,-46.286392,0.100984,3.979405,162.325531,1.879204,-114.547821,-0.069412,-0.536253,0.829804,0.137984
692,-0.369758,2.594793,-10.043628,-31.661367,1.761350,2.025211,161.023926,1.818049,-114.633247,-0.075832,-0.534743,0.828637,0.147174
693,-0.196589,2.794439,-9.908157,-14.193810,5.313462,-0.678590,160.260330,1.699237,-114.615479,-0.080279,-0.534213,0.827664,0.152131
694,-0.278371,1.959936,-10.415010,8.672806,8.265388,3.190646,160.169357,1.471884,-114.578545,-0.082399,-0.534143,0.827578,0.151710
695,-0.356227,1.029985,-11.847871,13.808311,7.211373,8.005283,160.541931,1.166181,-114.667992,-0.082762,-0.533399,0.828753,0.147667
696,0.039948,1.072238,-11.932363,1.008663,7.139871,8.704040,160.785538,0.848182,-114.851700,-0.083701,-0.531866,0.830189,0.144565
697,-0.097139,1.550974,-10.241342,-17.396225,7.072289,10.431892,160.509750,0.518832,-115.073830,-0.087088,-0.529652,0.831143,0.145209
698,-0.438632,1.608047,-9.438859,-36.272881,3.309768,14.858582,159.613113,0.212186,-115.410622,-0.093011,-0.526117,0.831792,0.150570
699,-0.291300,2.682710,-8.293076,-60.886101,-0.312919,12.759427,157.993088,-0.000872,-115.821083,-0.101404,-0.521475,0.831645,0.161703
700,0.026970,3.816246,-6.694252,-66.974533,-0.589126,11.175057,155.863068,-0.144093,-116.192947,-0.111541,-0.516586,0.830315,0.176847
701,-0.168370,3.696693,-6.680286,-53.044632,-3.508222,13.673964,153.864929,-0.258495,-116.596504,-0.120684,-0.511454,0.829029,0.191209
702,0.164400,3.761614,-7.556236,-37.922443,-4.402956,11.943072,152.351456,-0.333065,-117.036705,-0.127189,-0.506504,0.828463,0.202299
703,0.545429,3.805491,-7.886832,-26.184525,-1.973459,6.394394,151.285141,-0.383357,-117.356155,-0.131674,-0.502899,0.828006,0.210145
704,0.492043,3.870070,-8.281632,-13.085546,1.047150,-0.060093,150.631393,-0.421303,-117.455940,-0.134628,-0.501347,0.827273,0.214816
705,0.272454,3.925491,-8.074385,-4.483125,4.916741,-5.768744,150.337585,-0.460183,-117.322441,-0.136445,-0.501888,0.826180,0.216607
706,0.018490,4.491258,-7.972824,-1.424561,8.774005,-10.749397,150.236115,-0.522135,-116.970261,-0.138002,-0.504183,0.824512,0.216643
707,-0.114768,4.587710,-7.961971,-0.275003,10.992921,-9.573501,150.203156,-0.639966,-116.512657,-0.139856,-0.507205,0.822565,0.215803
708,-0.463750,4.933167,-7.326108,5.682698,8.858683,-6.481203,150.288239,-0.794449,-116.116150,-0.141328,-0.509854,0.821141,0.214017
709,-0.537931,4.185617,-8.325036,15.972259,4.680854,0.345850,150.646088,-0.940579,-115.915993,-0.141149,-0.511449,0.821076,0.210551
710,-0.473365,4.408941,-8.759761,22.973911,0.431306,6.328930,151.296082,-1.069414,-115.972054,-0.139067,-0.511598,0.822647,0.205378
711,-0.230271,4.535357,-7.469522,33.674301,-2.755433,10.641149,152.245331,-1.169375,-116.239716,-0.135078,-0.510623,0.825619,0.198422
712,-0.158284,3.703054,-8.590924,45.731297,-8.504236,13.469572,153.577667,-1.185436,-116.683113,-0.128516,-0.508924,0.829861,0.189236
713,0.033023,3.754495,-9.358667,48.313057,-8.103990,11.862700,155.154724,-1.118638,-117.183884,-0.120237,-0.507112,0.834550,0.178624
714,0.206324,4.452761,-7.848101,44.136105,-0.559887,8.878472,156.702530,-1.127514,-117.558395,-0.112894,-0.505938,0.838552,0.167666
715,0.121084,3.868408,-8.727469,51.189648,-0.085152,4.516576,158.295410,-1.202482,-117.768112,-0.106114,-0.505810,0.841787,0.155854
716,0.109572,4.028913,-8.811802,52.170517,2.722352,0.451584,160.019028,-1.272409,-117.830009,-0.098931,-0.506799,0.844359,0.142918
717,0.083814,4.122014,-7.472862,59.270321,3.774473,-1.349945,161.874786,-1.369240,-117.780334,-0.091481,-0.508583,0.846403,0.128754
718,0.483678,3.351396,-6.933960,76.611618,2.182302,-0.878789,164.137161,-1.453043,-117.715782,-0.082105,-0.510677,0.848536,0.111598
719,0.094189,3.038366,-6.489860,103.792404,-4.379442,-1.281272,167.141663,-1.408876,-117.690346,-0.068381,-0.512882,0.851038,0.089497
720,0.235939,1.802693,-4.269692,135.792694,-6.892874,3.186157,171.132538,-1.230793,-117.758232,-0.049120,-0.514558,0.853897,0.060642
721,0.057398,-0.696575,-5.071818,181.038147,-14.791751,7.785573,176.408463,-0.893235,-117.978996,-0.022822,-0.514717,0.856752,0.022843
722,-0.474353,-2.380159,-5.862372,215.882889,-21.102255,7.438168,-176.992050,-0.299443,-118.236748,0.011229,-0.513146,0.857896,-0.023866
723,-1.011598,-5.707901,-7.927601,236.418564,-30.412178,13.247957,-169.484940,0.590625,-118.478378,0.051276,-0.508891,0.855925,-0.076115
724,-0.458954,-8.716887,-9.655793,233.928970,-37.510033,15.021709,-161.687943,1.795932,-118.656242,0.094470,-0.501415,0.850312,-0.128953
725,-1.154602,-10.188267,-11.084501,211.736893,-34.951229,8.535507,-154.293854,3.056194,-118.572327,0.135929,-0.492676,0.840919,-0.177901
726,-1.149004,-11.276021,-11.310456,177.167755,-29.377035,5.147007,-147.820267,4.102611,-118.253006,0.171643,-0.484213,0.829243,-0.220073
728,-0.876203,-11.611275,-10.100425,133.784225,-20.087317,1.283384,-142.624100,4.839130,-117.870331,0.199444,-0.476780,0.817679,-0.253581
729,-0.826281,-10.484625,-8.148321,93.950554,-8.287686,-4.958243,-138.805374,5.165915,-117.521446,0.218330,-0.471413,0.807762,-0.278607
730,-1.444576,-9.751544,-6.804753,63.370708,-0.709753,-8.225685,-136.162201,5.128057,-117.254677,0.229577,-0.468228,0.799982,-0.296793
731,-0.893283,-9.353283,-6.001448,40.876129,-1.232881,-6.299433,-134.408325,4.980792,-117.057625,0.236250,-0.466478,0.794330,-0.309231
732,-0.864322,-8.956098,-5.578282,21.931225,-3.064460,-6.402100,-133.344635,4.878041,-116.858551,0.240426,-0.465960,0.790462,-0.316616
733,-0.905135,-8.843640,-5.798359,10.313253,-5.171384,-7.041726,-132.785767,4.808455,-116.604324,0.242939,-0.466750,0.787768,-0.320229
734,-0.812279,-8.796948,-5.782323,0.963349,-5.765918,-9.619930,-132.570923,4.728164,-116.280930,0.244182,-0.468767,0.785721,-0.321364
735,-0.455110,-8.331184,-5.589668,-6.585748,-5.055123,-11.371062,-132.634506,4.592983,-115.910065,0.244055,-0.471868,0.784164,-0.320726
736,-0.402276,-7.786760,-5.213530,-8.319276,-2.356698,-14.134023,-132.853256,4.364846,-115.529610,0.242686,-0.475647,0.782838,-0.319419
737,-0.315965,-7.332741,-4.825487,-3.614760,-0.629742,-15.242373,-133.025070,4.040376,-115.158691,0.240833,-0.479546,0.781247,-0.318886
738,0.058777,-7.157953,-4.481809,5.330861,0.803762,-14.464807,-132.973923,3.676178,-114.822533,0.239551,-0.482848,0.779095,-0.320131
739,0.160353,-6.475094,-4.198860,15.738862,1.542780,-11.435996,-132.606628,3.332609,-114.557732,0.239554,-0.484933,0.776368,-0.323583
740,0.498247,-6.805876,-4.785553,26.490641,0.022126,-7.108305,-131.892303,3.086038,-114.369263,0.241475,-0.485470,0.773111,-0.329102
741,0.266553,-7.516551,-5.992399,32.071991,1.279227,-5.920689,-130.909637,2.908592,-114.242165,0.244828,-0.484796,0.769406,-0.336225
742,0.105169,-8.318765,-6.676464,31.086044,5.356456,-6.159903,-129.854874,2.683420,-114.195992,0.247935,-0.483553,0.765668,-0.344176
743,-0.054167,-8.629971,-7.198115,24.677027,5.228861,-4.507476,-128.926666,2.433859,-114.219299,0.250134,-0.482185,0.762480,-0.351502
744,-0.121193,-9.266364,-7.623462,15.259477,4.500348,-3.419176,-128.262924,2.229392,-114.263626,0.251445,-0.481106,0.760223,-0.356895
745,-0.517941,-9.351158,-7.242084,5.112944,4.309075,-2.703896,-127.925369,2.058457,-114.316185,0.251578,-0.480579,0.759054,-0.359986
746,-0.271670,-8.692621,-6.329237,-1.486843,-0.624939,1.883930,-127.866356,2.009915,-114.356155,0.251381,-0.480344,0.758941,-0.360673
747,-0.225673,-8.370603,-5.968009,-3.991821,-4.689964,5.686481,-127.957977,2.163876,-114.363815,0.251982,-0.479987,0.759562,-0.359420
748,-0.240956,-8.420712,-5.512309,-1.301517,-2.826241,8.814380,-128.048218,2.431433,-114.413925,0.253200,-0.478971,0.760573,-0.357778
749,-0.437850,-8.477179,-5.391511,3.990471,-0.870195,10.372650,-128.010025,2.721312,-114.562500,0.254794,-0.476940,0.761630,-0.357110
750,-0.632436,-8.532217,-5.086548,14.648108,1.690594,11.866379,-127.711250,3.005596,-114.800972,0.257150,-0.473739,0.762228,-0.358404
751,-0.771137,-8.782031,-5.048114,13.059719,6.561631,13.221945,-127.269257,3.253771,-115.164886,0.259450,-0.469485,0.762808,-0.361100
752,-0.867103,-8.604367,-5.025807,15.610854,7.863319,15.803892,-126.819778,3.494851,-115.648987,0.261326,-0.464417,0.763813,-0.364165
753,-0.872199,-8.520931,-5.182145,16.764193,5.284389,15.856543,-126.311432,3.788106,-116.140312,0.263722,-0.458962,0.764718,-0.367438
754,-0.722696,-8.408225,-5.015329,16.983053,2.545785,15.351751,-125.777588,4.131984,-116.552895,0.266766,-0.453767,0.765281,-0.370507
755,-0.740368,-8.252842,-5.065659,18.306221,-0.309423,12.914633,-125.212486,4.493994,-116.857674,0.270364,-0.449122,0.765316,-0.373477
756,-0.732164,-8.423312,-4.932078,21.948191,-3.185187,8.816938,-124.554680,4.824587,-117.017502,0.274557,-0.445300,0.764395,-0.376864
757,-0.944614,-8.466953,-4.595653,26.591089,-6.072290,6.168283,-123.746902,5.118140,-117.029892,0.279546,-0.442191,0.762314,-0.381050
758,-1.116659,-8.464633,-4.203652,29.864813,-6.778735,5.997934,-122.799858,5.405382,-116.961647,0.285267,-0.439243,0.759417,-0.385972
759,-1.168585,-8.651281,-3.869404,32.351673,-6.043357,8.077909,-121.757607,5.717845,-116.905937,0.291435,-0.435807,0.756258,-0.391423
760,-0.931269,-8.610671,-3.481031,31.239733,-3.453599,10.605640,-120.700516,6.066005,-116.932228,0.297558,-0.431577,0.753384,-0.397005
761,-1.098965,-8.362617,-3.330048,26.811255,0.260682,12.135029,-119.748848,6.419967,-117.077972,0.302850,-0.426741,0.751290,-0.402167
762,-0.692060,-8.346533,-3.238953,20.568529,3.672637,12.353864,-118.988831,6.743154,-117.337036,0.306782,-0.421736,0.750188,-0.406499
763,-0.693354,-8.404301,-3.157021,16.093090,5.953509,9.816157,-118.416061,6.989892,-117.657570,0.309283,-0.417104,0.749794,-0.410094
764,-0.522268,-8.343403,-3.407837,14.137605,7.009957,3.459709,-117.948540,7.082742,-117.954674,0.310491,-0.413518,0.749369,-0.413575
765,-0.813339,-8.395793,-3.447821,13.613086,7.484090,-4.325576,-117.511398,6.957601,-118.163132,0.310526,-0.411484,0.748293,-0.417506
766,-0.678579,-8.386423,-3.407560,12.533753,7.798386,-10.783966,-117.088654,6.617109,-118.274498,0.309509,-0.411016,0.746481,-0.421944
767,-0.855784,-8.167907,-3.531305,7.089665,8.931885,-15.630915,-116.766945,6.098404,-118.323822,0.307242,-0.411968,0.744439,-0.426258
768,-0.636760,-8.284878,-3.278100,0.383913,11.410857,-19.666508,-116.646187,5.420527,-118.362183,0.303295,-0.414189,0.742755,-0.429855
769,-1.072391,-8.251869,-3.157144,-3.428036,13.463453,-21.076466,-116.702660,4.627654,-118.427666,0.297872,-0.417162,0.741568,-0.432810
770,-0.725509,-8.728790,-3.374716,-10.593367,14.482083,-20.416306,-116.944023,3.800383,-118.531326,0.291387,-0.420475,0.741122,-0.434778
771,-0.238739,-9.815975,-2.858564,-12.697122,14.777407,-20.990728,-117.339256,2.963820,-118.650208,0.284183,-0.424064,0.741277,-0.435796
772,0.031501,-10.847326,-2.455646,7.841890,14.160453,-20.942564,-117.424911,2.121457,-118.757027,0.278098,-0.426940,0.740174,-0.438778
773,-0.334544,-11.469407,-2.507712,35.287151,12.953180,-18.689842,-116.709198,1.327862,-118.860146,0.275312,-0.427705,0.736030,-0.446690
774,-0.110263,-12.186744,-2.110096,60.285980,12.402841,-15.123194,-115.118874,0.636665,-118.995689,0.276309,-0.425789,0.728656,-0.459802
775,-0.191935,-12.037506,-1.472420,88.832558,11.989402,-11.339695,-112.635689,0.069253,-119.190460,0.281112,-0.420855,0.717855,-0.478059
776,-0.551373,-11.592293,-1.481185,112.097565,10.274846,-5.470287,-109.288689,-0.324468,-119.438354,0.289782,-0.412658,0.703473,-0.500864
777,-0.726704,-11.106568,-1.204970,117.163010,8.563548,-1.659087,-105.469894,-0.530913,-119.704300,0.300912,-0.402120,0.686775,-0.525444
778,-0.545157,-10.441210,-0.862808,113.518341,5.570370,1.023194,-101.627762,-0.595945,-119.931702,0.312753,-0.390788,0.669369,-0.549013
779,-0.782482,-9.844118,-0.432770,105.886360,2.719906,6.434919,-97.973885,-0.496428,-120.089653,0.324835,-0.379228,0.652337,-0.570196
780,-0.333648,-9.962908,-0.050430,94.214638,-2.141876,13.444098,-94.642159,-0.168009,-120.137138,0.337307,-0.367681,0.636614,-0.588012
781,0.192079,-9.642816,0.373011,87.503906,-5.481892,16.840931,-91.616066,0.343518,-120.039917,0.350182,-0.356476,0.622114,-0.602720
782,-0.238553,-9.196526,0.447665,83.506500,-8.124442,19.974491,-88.765556,0.958172,-119.816345,0.363381,-0.345512,0.608154,-0.615406
783,-0.436174,-8.953605,0.916485,78.231857,-8.558720,21.277342,-86.064827,1.632605,-119.508507,0.376557,-0.334706,0.594703,-0.626502
784,0.048784,-8.973825,1.316120,71.774147,-10.335102,20.491177,-83.553345,2.297195,-119.132446,0.389191,-0.324516,0.581890,-0.636101
785,-0.270789,-8.528625,1.498954,71.883545,-11.185002,18.160389,-81.140457,2.888016,-118.691116,0.401270,-0.315029,0.569076,-0.644896
786,-1.273047,-7.722058,1.514557,70.878273,-13.440316,26.043407,-78.732445,3.541399,-118.157310,0.413893,-0.305280,0.556143,-0.652841
787,-1.098342,-7.883518,1.818636,60.455204,-14.652520,36.130428,-76.497162,4.453297,-117.477776,0.427792,-0.294937,0.544626,-0.658322
788,-0.422840,-8.285156,1.667223,44.340271,-17.470068,31.527052,-74.682335,5.412879,-116.678246,0.441221,-0.286069,0.535414,-0.660924
789,-0.531095,-8.141038,1.770362,21.742592,-21.950748,24.274853,-73.492149,6.128074,-115.787605,0.452360,-0.281239,0.528813,-0.660782
790,-0.842377,-8.033905,1.933409,-4.327701,-23.961245,25.630083,-73.093353,6.706301,-114.810120,0.461377,-0.280644,0.526144,-0.656920
791,-1.053595,-9.175452,2.390389,-10.996196,-21.759195,31.036993,-73.224930,7.391315,-113.800774,0.469637,-0.281672,0.526833,-0.650038
792,-1.432494,-9.320962,2.304683,-6.065639,-25.442585,25.658123,-73.369705,8.070684,-112.766663,0.477887,-0.282933,0.527512,-0.642887
793,-2.118281,-9.056183,2.062910,6.562332,-32.492897,31.614321,-73.185112,8.706547,-111.554321,0.487670,-0.283906,0.525760,-0.636515
794,-1.970593,-9.125998,1.637969,16.719511,-34.797150,34.240696,-72.574570,9.424158,-110.141457,0.499822,-0.283430,0.521494,-0.630785
795,-1.439004,-9.579922,2.405668,24.335344,-33.089409,24.647675,-71.654350,10.009649,-108.743057,0.512010,-0.282185,0.515163,-0.626757
796,-1.161960,-9.368847,2.695794,26.345184,-36.678478,8.062884,-70.583466,10.148158,-107.445938,0.522250,-0.282307,0.506643,-0.625197
797,-1.242287,-9.301786,3.243550,37.199211,-36.230679,2.042495,-69.314087,9.889452,-106.227333,0.531098,-0.283349,0.495697,-0.626046
798,-0.973049,-9.319775,4.464948,49.098194,-27.973513,-8.110016,-67.713684,9.402368,-105.254990,0.538659,-0.282942,0.482570,-0.630013
799,-0.911410,-9.671991,5.047951,71.123894,-22.840466,-14.657679,-65.611374,8.716667,-104.619835,0.544976,-0.279743,0.466548,-0.638026
800,-1.518981,-9.276553,4.397583,99.691711,-21.420902,-14.449952,-62.700249,7.956916,-104.163521,0.552028,-0.272209,0.445856,-0.649908
801,-1.567152,-8.614238,4.242005,109.992523,-16.587765,-16.433628,-59.168427,7.198972,-103.859375,0.559582,-0.260849,0.421569,-0.664158
802,-1.030040,-8.347575,4.446343,102.645493,-13.224895,-23.525360,-55.621571,6.369759,-103.800186,0.565318,-0.248764,0.396902,-0.678970
803,-0.672168,-8.002002,4.658571,94.286163,-12.029094,-27.065929,-52.359055,5.439561,-103.954720,0.568653,-0.237906,0.373390,-0.693264
804,-0.788570,-7.016431,5.783871,90.589645,-5.967823,-29.681179,-49.312374,4.516886,-104.319458,0.570081,-0.227437,0.351166,-0.707080
805,-0.369485,-6.992138,6.458880,86.202217,-1.838763,-33.628605,-46.412331,3.646452,-104.932121,0.569598,-0.216752,0.330128,-0.720827
806,0.419969,-6.533280,7.288659,89.128349,1.905501,-43.945984,-43.543713,2.732746,-105.847862,0.566768,-0.205882,0.309193,-0.735382
807,1.017477,-5.391286,8.056122,94.335777,7.679798,-56.170486,-40.541294,1.732964,-107.193054,0.560865,-0.194169,0.287234,-0.751815
808,1.020824,-4.582347,8.651144,89.434837,10.953920,-62.601086,-37.519119,0.726352,-108.924393,0.552010,-0.182038,0.265177,-0.769304
809,0.749854,-4.259989,8.842739,78.911781,11.939102,-64.229729,-34.725079,-0.212775,-110.853989,0.541143,-0.170797,0.244711,-0.786199
810,0.396432,-3.050011,9.462647,73.682236,16.823532,-67.154900,-32.161690,-1.020678,-112.942619,0.528664,-0.160127,0.226168,-0.802323
811,0.114640,-2.144928,9.650759,69.564568,19.527718,-62.620590,-29.727060,-1.614449,-115.107872,0.515453,-0.149101,0.209147,-0.817518
812,-0.069264,-2.041631,10.171005,60.156136,18.456402,-49.713070,-27.506643,-1.955315,-117.054451,0.503591,-0.138241,0.194085,-0.830432
813,-0.203407,-2.006465,10.613746,65.878181,16.549427,-34.677914,-25.354486,-2.058286,-118.574066,0.494817,-0.127133,0.179697,-0.840656
814,0.029302,-0.979366,10.124405,81.835945,13.863014,-24.553457,-22.855074,-1.995966,-119.682838,0.489377,-0.114285,0.162707,-0.849103
815,0.507424,-0.735340,9.976822,81.070755,6.588502,-14.141440,-20.117100,-1.911928,-120.407684,0.486681,-0.101032,0.143381,-0.855790
816,0.595642,-0.828964,9.977797,75.685638,0.860800,-8.668610,-17.492704,-1.914586,-120.806786,0.485870,-0.089449,0.124046,-0.860547
817,0.435337,-0.430290,9.519423,77.925278,-0.836082,-4.878272,-14.926490,-1.976045,-121.022911,0.486057,-0.078811,0.104630,-0.864054
818,0.405388,0.167209,8.942570,74.263725,-1.487519,-0.727905,-12.388512,-2.034915,-121.104408,0.487015,-0.068411,0.085266,-0.866526
819,0.681838,-0.280044,9.561745,59.014915,-2.525614,2.165082,-10.169610,-2.095042,-121.067818,0.488480,-0.059445,0.068195,-0.867873
820,0.583546,-0.269395,10.079784,52.317909,-3.884150,0.003817,-8.316692,-2.194116,-121.014809,0.489717,-0.052314,0.053704,-0.868652
821,0.303568,-0.213883,9.943708,42.669197,-6.446366,-2.027536,-6.733582,-2.369421,-121.025436,0.490219,-0.046868,0.040950,-0.869375
822,0.311701,-0.159013,9.574027,31.271742,-8.599545,-4.827187,-5.497701,-2.631094,-121.111938,0.489919,-0.043539,0.030480,-0.870146
823,0.313963,-0.099891,9.652257,21.404181,-8.447528,-9.861907,-4.609280,-2.935949,-121.330589,0.488456,-0.042009,0.022504,-0.871286
824,-0.253083,0.225208,9.626750,18.179159,-5.211811,-13.052180,-3.930241,-3.191872,-121.694740,0.485828,-0.041006,0.016376,-0.872938
825,-0.446689,0.518932,9.383114,15.586417,-2.297851,-12.359217,-3.343966,-3.343889,-122.110214,0.482811,-0.039636,0.011407,-0.874753
826,-0.252372,0.757729,9.415967,12.925787,1.766680,-11.690860,-2.845393,-3.374422,-122.510750,0.479909,-0.037742,0.007604,-0.876473
827,-0.388419,0.717087,9.908377,10.346818,6.758484,-12.492606,-2.433953,-3.251114,-122.920738,0.476937,-0.035058,0.005100,-0.878223
828,-0.637642,0.866035,9.920979,10.752080,9.308225,-13.573153,-2.058162,-3.000677,-123.366150,0.473695,-0.031562,0.003388,-0.880117
829,-0.573984,0.940517,9.811582,7.187051,8.403617,-14.227025,-1.735613,-2.721002,-123.839622,0.470203,-0.028073,0.002184,-0.882109
831,-0.585237,0.942077,9.629777,3.996393,8.784035,-14.376521,-1.527301,-2.448373,-124.324852,0.466567,-0.025113,0.001807,-0.884128
832,-0.680567,0.831702,9.887987,3.110332,8.798252,-12.007216,-1.390851,-2.166747,-124.772324,0.463190,-0.022377,0.001990,-0.885974
833,-0.731341,0.825405,10.027104,4.140127,6.468501,-9.010495,-1.257357,-1.920477,-125.128639,0.460497,-0.019928,0.002016,-0.887435
834,-0.561283,0.653941,10.023480,4.223542,3.486280,-7.183120,-1.109181,-1.760121,-125.401993,0.458426,-0.018087,0.001556,-0.888547
835,-0.479135,0.616347,9.879612,5.323737,1.871176,-6.127490,-0.943327,-1.674798,-125.625473,0.456729,-0.016761,0.000644,-0.889448
836,-0.481729,0.602417,10.044204,6.785293,0.519879,-5.361298,-0.735939,-1.637727,-125.817574,0.455271,-0.015648,-0.000791,-0.890215
837,-0.522459,0.567061,9.907138,6.987707,-0.978852,-5.345990,-0.501260,-1.647271,-125.995979,0.453915,-0.014793,-0.002629,-0.890919
838,-0.288985,0.426850,9.854824,4.203220,-1.333536,-6.661812,-0.308910,-1.687222,-126.195885,0.452381,-0.014349,-0.004258,-0.891699
839,-0.321624,0.434225,9.900970,-2.726974,-1.463225,-10.171762,-0.275930,-1.735324,-126.476318,0.450198,-0.014605,-0.004669,-0.892797
840,-0.342346,0.347194,9.961771,-13.123038,-1.948997,-15.927398,-0.526712,-1.795386,-126.911064,0.446768,-0.016069,-0.002890,-0.894501
841,-0.209796,0.217136,9.838795,-25.747063,-3.346960,-22.098719,-1.154177,-1.893154,-127.543732,0.441714,-0.019269,0.001733,-0.896947
842,-0.016089,0.017968,9.971591,-37.639931,-4.425787,-27.100103,-2.182459,-2.046793,-128.359970,0.435091,-0.024368,0.009363,-0.900008
843,-0.112926,-0.085371,9.920428,-39.646416,-4.617555,-28.573826,-3.435921,-2.243098,-129.279770,0.427501,-0.030517,0.018706,-0.903306
844,-0.026457,-0.250844,9.734159,-39.643791,-3.127510,-26.762470,-4.719964,-2.437396,-130.191071,0.419860,-0.036611,0.028392,-0.906406
845,-0.000650,-0.428775,9.850965,-36.519691,-2.041983,-21.736923,-5.954171,-2.598491,-130.988297,0.413048,-0.042141,0.037854,-0.908946
846,0.053298,-0.564375,9.918777,-28.092831,0.488070,-14.706103,-7.003166,-2.693007,-131.589294,0.407821,-0.046428,0.046074,-0.910716
847,0.153257,-0.605996,9.799704,-22.802313,1.088688,-10.248203,-7.831785,-2.720790,-132.005341,0.404149,-0.049405,0.052739,-0.911834
848,0.050191,-0.681182,9.933212,-25.155910,1.446358,-7.679007,-8.616727,-2.721820,-132.307358,0.401397,-0.052024,0.059117,-0.912513
849,0.211534,-0.711972,10.118291,-16.507788,1.881393,-2.808301,-9.302525,-2.694453,-132.488785,0.399654,-0.054106,0.064759,-0.912774
850,0.357527,-0.695456,9.863749,-6.614507,0.316668,1.748477,-9.686816,-2.661361,-132.512207,0.399309,-0.055169,0.067948,-0.912629
851,0.312263,-0.607569,9.823077,9.284257,0.021842,6.744494,-9.648735,-2.632143,-132.373444,0.400454,-0.054886,0.067681,-0.912164
852,0.421143,-0.597710,9.921673,28.887180,0.435839,17.601179,-9.030652,-2.558913,-131.973877,0.403975,-0.052362,0.062836,-0.911106
853,0.495895,-0.360184,9.814264,55.411755,0.366627,28.301992,-7.658710,-2.434741,-131.218246,0.410652,-0.046879,0.052057,-0.909097
854,0.060993,-0.294292,9.773443,63.888969,1.887392,34.858952,-5.713724,-2.275289,-130.176498,0.419718,-0.038975,0.036842,-0.906069
855,-0.011703,-0.093460,10.104242,61.889107,5.029978,34.461189,-3.661453,-2.065782,-129.034439,0.429430,-0.030007,0.021082,-0.902355
856,-0.177903,0.181406,10.155896,56.880939,5.851659,30.693571,-1.719137,-1.833674,-127.958656,0.438374,-0.020958,0.006461,-0.898525
857,-0.421295,0.515134,10.096597,40.525318,5.720379,22.270430,-0.122735,-1.626868,-127.079285,0.445520,-0.013187,-0.005367,-0.895159
858,-0.373836,0.687283,10.069341,21.029264,5.541726,13.514920,0.887050,-1.443130,-126.481781,0.450278,-0.007759,-0.012581,-0.892766
859,-0.160510,0.945767,10.068873,9.225213,3.022513,5.963032,1.383509,-1.306666,-126.154556,0.452849,-0.004700,-0.015926,-0.891433
860,-0.155554,1.038008,9.828104,7.455862,0.954694,3.876059,1.657851,-1.244753,-125.988861,0.454143,-0.003108,-0.017821,-0.890745
861,-0.041108,1.004189,9.804833,4.193280,0.306149,3.337556,1.849380,-1.227450,-125.867989,0.455085,-0.002194,-0.019243,-0.890237
862,-0.078783,0.992686,9.844424,5.278087,1.722405,3.246724,2.004886,-1.197329,-125.757149,0.455946,-0.001323,-0.020333,-0.889774
863,-0.092008,0.977369,9.836990,3.942225,1.567920,3.273273,2.156307,-1.146482,-125.646568,0.456800,-0.000305,-0.021307,-0.889314
864,-0.040702,0.977305,9.888291,3.151261,1.072145,3.264076,2.272356,-1.106712,-125.535965,0.457654,0.000488,-0.022049,-0.888857
865,-0.042641,1.017388,9.883583,2.388572,0.748007,3.408882,2.362537,-1.080892,-125.423599,0.458522,0.001070,-0.022644,-0.888394
866,-0.070564,1.045921,9.828784,0.845640,0.572894,3.110582,2.414389,-1.063418,-125.314095,0.459368,0.001435,-0.022975,-0.887948
867,-0.013892,1.003841,9.864615,-4.548120,-0.853339,2.608123,2.350908,-1.072039,-125.219032,0.460106,0.001133,-0.022516,-0.887578
868,0.009784,0.847640,9.897944,-5.301334,-0.548784,1.836856,2.185357,-1.098281,-125.145935,0.460676,0.000278,-0.021339,-0.887312
869,-0.063604,0.880985,9.772298,-5.339772,0.231843,1.025223,2.007093,-1.105292,-125.098434,0.461044,-0.000485,-0.019987,-0.887152
870,-0.023345,0.882395,9.780738,-6.806770,0.276123,0.116371,1.804282,-1.097453,-125.079117,0.461192,-0.001237,-0.018386,-0.887109
871,0.067308,0.898325,9.865130,-8.436633,0.106645,-1.042219,1.550518,-1.090609,-125.094368,0.461069,-0.002207,-0.016393,-0.887210
872,0.061522,0.823104,9.960156,-8.734056,0.438068,-3.010478,1.265617,-1.079854,-125.161682,0.460541,-0.003279,-0.014142,-0.887520
873,0.004087,0.874780,9.849457,-8.821072,0.348455,-5.713558,0.975748,-1.063865,-125.306816,0.459406,-0.004335,-0.011828,-0.888137
874,0.095285,0.688579,9.885045,-10.257026,-0.149754,-8.033011,0.662026,-1.057223,-125.535889,0.457616,-0.005560,-0.009358,-0.889083
875,0.041973,0.520532,9.983522,-9.346897,-0.167886,-8.866174,0.340512,-1.060022,-125.817627,0.455411,-0.006882,-0.006858,-0.890228
876,-0.019849,0.442300,9.948963,-6.480649,-0.459487,-8.955097,0.082244,-1.069344,-126.114754,0.453084,-0.007994,-0.004868,-0.891419
877,-0.041091,0.445890,9.836141,-4.576143,-1.066320,-8.055074,-0.096673,-1.094746,-126.398300,0.450863,-0.008907,-0.003555,-0.892542
878,0.012113,0.368606,9.975020,-3.783442,-1.656881,-6.105957,-0.231382,-1.140781,-126.634239,0.449011,-0.009802,-0.002666,-0.893469
