seq,ax,ay,az,wroll,wpitch,wyaw,roll,pitch,yaw,q0,q1,q2,q3,vx,vy,vz
3947,0.000000,0.000000,0.000000,-0.163757,0.191313,0.047582,-46.638134,-0.212283,0.224780,0.918313,-0.395846,-0.002478,0.001068,0.000000,0.000000,0.000000
3949,0.013078,-0.007085,-0.042993,-0.709894,0.831191,0.089589,-46.652237,-0.200320,0.213957,0.918264,-0.395960,-0.002345,0.001022,0.000327,-0.000177,-0.001075
3950,0.013690,-0.000246,-0.051739,-0.737346,1.159247,0.088044,-46.674797,-0.178064,0.191856,0.918187,-0.396141,-0.002090,0.000922,0.000996,-0.000360,-0.003443
3951,-0.000479,-0.003555,-0.046071,-0.583211,1.397288,0.089565,-46.694916,-0.147292,0.162879,0.918117,-0.396304,-0.001743,0.000796,0.001326,-0.000455,-0.005888
3952,-0.004927,-0.011434,-0.034118,-0.439768,1.404930,0.074320,-46.711323,-0.111317,0.130759,0.918061,-0.396436,-0.001344,0.000662,0.001191,-0.000830,-0.007893
3953,-0.002024,-0.012893,-0.030209,-0.339060,1.371376,0.059078,-46.724678,-0.075724,0.098599,0.918015,-0.396544,-0.000948,0.000528,0.001018,-0.001438,-0.009501
3954,-0.007501,-0.011414,-0.026625,0.060730,0.954815,0.010266,-46.729481,-0.045868,0.071163,0.917999,-0.396583,-0.000614,0.000411,0.000779,-0.002046,-0.010922
3956,-0.006987,-0.010406,-0.025235,0.150776,0.622210,0.005738,-46.724194,-0.020841,0.052209,0.918017,-0.396541,-0.000348,0.000346,0.000417,-0.002591,-0.012219
3957,0.010291,-0.005413,-0.033132,0.059283,0.373492,0.019479,-46.714546,-0.007978,0.040413,0.918050,-0.396463,-0.000204,0.000296,0.000500,-0.002987,-0.013678
3958,0.012481,-0.005588,-0.034655,-0.166468,0.376472,0.051448,-46.707710,-0.009068,0.032123,0.918074,-0.396409,-0.000184,0.000226,0.001069,-0.003262,-0.015373
3959,0.010285,-0.008061,-0.036107,-0.337308,0.406910,0.071199,-46.709751,-0.010324,0.024019,0.918067,-0.396425,-0.000166,0.000157,0.001638,-0.003603,-0.017142
3960,0.013531,0.002493,-0.044555,-0.376886,0.428190,0.080266,-46.712093,-0.011140,0.015618,0.918059,-0.396444,-0.000143,0.000087,0.002234,-0.003742,-0.019158
3961,0.012558,0.003446,-0.044915,-0.323321,0.441832,0.090851,-46.708061,-0.012442,0.007016,0.918073,-0.396411,-0.000124,0.000013,0.002886,-0.003594,-0.021395
3963,0.014598,-0.002545,-0.041482,-0.317081,0.463099,0.090750,-46.705051,-0.013781,-0.001890,0.918083,-0.396387,-0.000104,-0.000063,0.003565,-0.003571,-0.023555
3964,0.012059,0.007231,-0.050019,-0.225368,0.464532,0.078443,-46.698322,-0.014740,-0.011213,0.918107,-0.396333,-0.000079,-0.000141,0.004231,-0.003454,-0.025842
3965,0.013750,0.011936,-0.051899,-0.199187,0.462916,0.092081,-46.681355,-0.015199,-0.020520,0.918165,-0.396197,-0.000051,-0.000217,0.004876,-0.002975,-0.028390
3966,0.016876,-0.016563,-0.039403,-0.406593,0.464335,0.116382,-46.679466,-0.017682,-0.029385,0.918172,-0.396182,-0.000040,-0.000297,0.005642,-0.003091,-0.030673
3967,0.019716,-0.012540,-0.042518,-0.257078,0.429108,0.087251,-46.693077,-0.024025,-0.037889,0.918125,-0.396291,-0.000061,-0.000387,0.006557,-0.003818,-0.032721
3968,0.014534,-0.008495,-0.044162,0.037436,0.372524,0.048970,-46.695724,-0.031510,-0.046052,0.918116,-0.396313,-0.000093,-0.000478,0.007413,-0.004344,-0.034888
3970,0.015131,-0.021832,-0.038586,0.069456,0.364783,0.050378,-46.696392,-0.037944,-0.053857,0.918113,-0.396318,-0.000118,-0.000563,0.008155,-0.005102,-0.036957
3971,0.014259,-0.026561,-0.040148,0.144108,0.358570,0.041108,-46.704594,-0.044425,-0.061577,0.918085,-0.396384,-0.000143,-0.000647,0.008890,-0.006312,-0.038925
3972,0.011829,-0.015827,-0.038402,0.270671,0.346266,0.019642,-46.706615,-0.049786,-0.069425,0.918078,-0.396400,-0.000159,-0.000728,0.009542,-0.007372,-0.040889
3973,0.010293,-0.026410,-0.030111,0.104261,0.359917,0.039392,-46.708710,-0.052932,-0.077310,0.918070,-0.396417,-0.000157,-0.000802,0.010095,-0.008428,-0.042601
3974,0.011067,-0.018777,-0.034548,-0.159829,0.397990,0.074407,-46.720196,-0.054105,-0.085194,0.918030,-0.396509,-0.000139,-0.000870,0.010629,-0.009557,-0.044218
3975,0.009199,-0.007575,-0.038895,-0.217834,0.394866,0.085013,-46.728367,-0.053469,-0.092990,0.918002,-0.396574,-0.000107,-0.000930,0.011135,-0.010216,-0.046054
3977,0.010357,-0.007638,-0.036460,-0.229999,0.391747,0.074260,-46.731564,-0.052363,-0.100719,0.917991,-0.396600,-0.000071,-0.000988,0.011624,-0.010597,-0.047938
3978,0.010567,-0.003359,-0.041882,-0.197884,0.390149,0.078761,-46.731689,-0.052085,-0.108466,0.917991,-0.396601,-0.000042,-0.001049,0.012147,-0.010871,-0.049896
3979,0.010405,-0.000248,-0.044624,-0.206927,0.396181,0.069529,-46.727158,-0.051914,-0.116325,0.918006,-0.396565,-0.000013,-0.001112,0.012672,-0.010962,-0.052059
3980,0.010938,-0.009869,-0.039191,-0.306031,0.402209,0.070976,-46.727650,-0.051909,-0.124416,0.918004,-0.396569,0.000015,-0.001176,0.013205,-0.011215,-0.054154
3981,0.012966,-0.018860,-0.037822,-0.301478,0.423489,0.057153,-46.740238,-0.053130,-0.132970,0.917961,-0.396669,0.000035,-0.001249,0.013803,-0.011933,-0.056080
3982,0.008975,-0.014459,-0.035094,-0.252709,0.434094,0.060123,-46.755428,-0.053169,-0.142032,0.917908,-0.396791,0.000066,-0.001322,0.014351,-0.012766,-0.057903
3984,0.011337,-0.014488,-0.035300,-0.290895,0.411134,0.069203,-46.768330,-0.052221,-0.150812,0.917863,-0.396894,0.000104,-0.001389,0.014859,-0.013489,-0.059663
3985,0.012288,-0.012453,-0.033217,-0.144430,0.388163,0.050805,-46.777981,-0.053648,-0.159145,0.917830,-0.396972,0.000122,-0.001461,0.015450,-0.014163,-0.061375
3986,0.000925,-0.004220,-0.042815,0.076868,0.339286,0.023290,-46.775188,-0.051224,-0.167137,0.917839,-0.396949,0.000169,-0.001516,0.015780,-0.014580,-0.063276
3987,-0.000317,-0.002941,-0.040382,0.221938,-0.058981,0.032443,-46.759521,-0.047518,-0.169914,0.917893,-0.396824,0.000208,-0.001526,0.015795,-0.014759,-0.065356
3988,0.003494,-0.009239,-0.043081,0.264758,-0.287884,0.024799,-46.741966,-0.052868,-0.165058,0.917954,-0.396683,0.000148,-0.001505,0.015875,-0.015063,-0.067443
3989,0.003705,-0.000906,-0.048219,0.307592,-0.301653,0.012552,-46.721581,-0.064479,-0.157487,0.918025,-0.396520,0.000028,-0.001485,0.016055,-0.015317,-0.069725
3991,0.005055,-0.001831,-0.055199,0.129208,-0.489389,0.065910,-46.699432,-0.079461,-0.147012,0.918101,-0.396343,-0.000128,-0.001453,0.016274,-0.015385,-0.072311
3992,0.015745,-0.007987,-0.043422,-0.091944,-0.545943,0.113113,-46.688175,-0.102911,-0.132424,0.918140,-0.396253,-0.000367,-0.001417,0.016794,-0.015631,-0.074776
3993,0.019836,-0.008308,-0.045906,-0.218539,-0.210392,0.106848,-46.687683,-0.131020,-0.120746,0.918142,-0.396249,-0.000632,-0.001421,0.017683,-0.016038,-0.077009
3994,0.015046,-0.005963,-0.046767,-0.252054,-0.003014,0.097535,-46.689976,-0.152620,-0.115833,0.918134,-0.396267,-0.000822,-0.001456,0.018555,-0.016395,-0.079326
3995,0.009339,-0.013752,-0.040614,-0.148267,0.035030,0.094372,-46.694168,-0.165130,-0.114031,0.918119,-0.396301,-0.000929,-0.001485,0.018555,-0.016395,-0.081511
3996,0.011989,-0.006523,-0.043317,0.016558,0.236366,0.054607,-46.693928,-0.172763,-0.115626,0.918120,-0.396299,-0.000984,-0.001524,0.019089,-0.016902,-0.083609
3998,0.014570,-0.010781,-0.045508,0.037968,0.332399,0.037715,-46.688309,-0.179791,-0.121484,0.918139,-0.396254,-0.001020,-0.001595,0.019753,-0.017334,-0.085830
3999,0.010387,-0.009905,-0.045124,-0.007777,0.362824,0.045246,-46.684433,-0.184462,-0.128978,0.918152,-0.396223,-0.001032,-0.001671,0.020376,-0.017852,-0.088095
4000,0.011963,-0.014308,-0.042039,-0.039809,0.368846,0.054315,-46.684017,-0.186855,-0.136716,0.918154,-0.396220,-0.001024,-0.001742,0.020935,-0.018457,-0.090275
4001,0.016367,-0.013613,-0.044533,-0.076444,0.376373,0.052679,-46.687134,-0.191976,-0.144525,0.918143,-0.396245,-0.001038,-0.001822,0.021643,-0.019155,-0.092439
4002,0.015620,-0.020714,-0.036029,-0.154317,0.376255,0.054081,-46.696056,-0.199218,-0.152414,0.918111,-0.396316,-0.001069,-0.001910,0.022443,-0.020013,-0.094453
4003,0.011243,-0.013878,-0.037711,-0.046034,0.380732,0.041767,-46.705112,-0.204006,-0.160478,0.918080,-0.396389,-0.001079,-0.001991,0.023115,-0.020878,-0.096296
4005,0.008863,-0.013261,-0.038143,0.092811,0.388288,0.020326,-46.705723,-0.205254,-0.169091,0.918078,-0.396394,-0.001060,-0.002065,0.023617,-0.021556,-0.098193
4006,0.006070,-0.005570,-0.041898,0.143208,0.385183,0.000432,-46.697681,-0.203899,-0.178251,0.918105,-0.396330,-0.001017,-0.002133,0.023991,-0.022027,-0.100194
4007,0.001344,-0.008566,-0.045820,0.085295,0.372952,0.003459,-46.686497,-0.198700,-0.187429,0.918144,-0.396240,-0.000944,-0.002189,0.024176,-0.022381,-0.102387
4008,-0.000612,-0.002059,-0.053659,0.080811,0.374481,-0.001117,-46.674286,-0.189727,-0.196498,0.918186,-0.396142,-0.000841,-0.002230,0.024194,-0.022646,-0.104874
4009,-0.001532,-0.000745,-0.054571,0.128253,0.363815,-0.011782,-46.657001,-0.179171,-0.205642,0.918246,-0.396004,-0.000725,-0.002267,0.024141,-0.022716,-0.107579
4010,0.000552,-0.000270,-0.054129,0.102464,0.366880,-0.011770,-46.637920,-0.169320,-0.214815,0.918312,-0.395851,-0.000615,-0.002306,0.024116,-0.022742,-0.110297
4012,0.004650,-0.009885,-0.052006,0.110199,0.369921,-0.008730,-46.623875,-0.162736,-0.224009,0.918360,-0.395738,-0.000531,-0.002357,0.024246,-0.022996,-0.112950
4013,0.010962,-0.003884,-0.045191,0.146903,0.366818,-0.016413,-46.611393,-0.162078,-0.233246,0.918403,-0.395638,-0.000494,-0.002429,0.024637,-0.023340,-0.115380
4014,0.010978,-0.013642,-0.045236,0.145438,0.371318,-0.019548,-46.600403,-0.165471,-0.242616,0.918441,-0.395550,-0.000489,-0.002516,0.025185,-0.023778,-0.117641
4015,0.014825,-0.015089,-0.046553,0.140859,0.375800,-0.005916,-46.595627,-0.171075,-0.251956,0.918457,-0.395512,-0.000502,-0.002610,0.025830,-0.024496,-0.119936
4016,0.019092,-0.013024,-0.048588,0.105760,0.363466,0.007684,-46.591774,-0.180959,-0.260888,0.918470,-0.395481,-0.000550,-0.002716,0.026678,-0.025199,-0.122314
4017,0.023062,-0.010855,-0.047524,0.014222,0.363307,0.025827,-46.588036,-0.195365,-0.269310,0.918482,-0.395452,-0.000637,-0.002833,0.027732,-0.025796,-0.124717
4019,0.019327,-0.016548,-0.049526,0.040160,0.366197,0.024130,-46.587376,-0.210072,-0.277570,0.918484,-0.395447,-0.000726,-0.002950,0.028792,-0.026481,-0.127143
4020,0.013672,-0.008788,-0.042643,0.117989,0.349283,0.033149,-46.584015,-0.219862,-0.285579,0.918495,-0.395420,-0.000777,-0.003048,0.029617,-0.027115,-0.129447
4021,0.014172,-0.009408,-0.041817,0.130244,0.352229,0.022355,-46.574978,-0.226625,-0.293456,0.918526,-0.395348,-0.000804,-0.003134,0.030313,-0.027569,-0.131559
4022,0.009925,-0.010208,-0.041258,0.232530,0.352138,-0.012837,-46.564106,-0.231687,-0.301894,0.918563,-0.395260,-0.000816,-0.003219,0.030915,-0.028060,-0.133636
4023,0.003583,-0.008745,-0.039752,0.342453,0.338353,-0.034254,-46.548874,-0.231857,-0.310814,0.918615,-0.395138,-0.000787,-0.003291,0.031253,-0.028534,-0.135661
4024,0.002207,-0.004992,-0.046043,0.334911,0.333755,-0.043433,-46.528595,-0.228077,-0.319872,0.918685,-0.394976,-0.000726,-0.003351,0.031398,-0.028877,-0.137806
4026,0.009553,-0.011943,-0.045304,0.296840,0.324559,-0.038897,-46.510395,-0.227370,-0.328810,0.918748,-0.394830,-0.000690,-0.003420,0.031692,-0.029301,-0.140090
4027,0.008502,-0.014525,-0.038951,0.281604,0.307709,-0.035915,-46.498417,-0.230559,-0.337324,0.918788,-0.394734,-0.000687,-0.003499,0.032143,-0.029962,-0.142196
4028,0.005005,-0.011443,-0.037445,0.261787,0.306132,-0.014606,-46.487385,-0.231578,-0.345334,0.918826,-0.394646,-0.000668,-0.003567,0.032481,-0.030611,-0.144106
4029,0.008298,-0.013893,-0.036841,0.183985,0.307609,-0.008554,-46.477871,-0.231930,-0.353027,0.918859,-0.394569,-0.000644,-0.003629,0.032813,-0.031245,-0.145963
4030,0.005515,-0.017859,-0.031124,0.092412,0.302980,0.011229,-46.475002,-0.232213,-0.360369,0.918868,-0.394547,-0.000621,-0.003689,0.033159,-0.032039,-0.147662
4031,0.000962,-0.020730,-0.028919,0.048097,0.315164,0.011205,-46.478874,-0.228241,-0.367556,0.918855,-0.394578,-0.000565,-0.003733,0.033321,-0.033003,-0.149163
4033,-0.000379,-0.016717,-0.033478,0.006834,0.319743,0.012732,-46.484337,-0.220507,-0.374929,0.918836,-0.394621,-0.000477,-0.003766,0.033335,-0.033940,-0.150723
4034,0.000851,-0.021243,-0.033898,-0.075637,0.306013,0.017315,-46.492470,-0.212408,-0.382121,0.918808,-0.394686,-0.000387,-0.003795,0.033347,-0.034889,-0.152408
4035,0.001324,-0.021952,-0.033936,-0.107783,0.302959,0.043253,-46.505718,-0.205014,-0.388750,0.918762,-0.394792,-0.000304,-0.003823,0.033401,-0.035968,-0.154103
4036,0.003299,-0.018123,-0.030698,-0.078879,0.293791,0.032561,-46.517818,-0.198933,-0.395063,0.918721,-0.394889,-0.000234,-0.003853,0.033517,-0.036970,-0.155719
4037,0.003946,-0.009171,-0.035322,-0.075849,0.295295,0.027959,-46.522408,-0.194623,-0.401485,0.918705,-0.394926,-0.000177,-0.003890,0.033698,-0.037653,-0.157370
4038,0.006074,-0.009888,-0.034559,-0.043773,0.299840,0.021821,-46.521271,-0.191992,-0.408122,0.918708,-0.394917,-0.000133,-0.003934,0.033948,-0.038129,-0.159117
4040,0.005475,-0.006725,-0.035619,0.018841,0.305905,0.021779,-46.516582,-0.190270,-0.414965,0.918724,-0.394879,-0.000096,-0.003983,0.034237,-0.038544,-0.160871
4041,0.002822,-0.002636,-0.037045,0.057083,0.305877,0.001912,-46.505878,-0.187053,-0.422123,0.918761,-0.394793,-0.000045,-0.004029,0.034445,-0.038778,-0.162688
4042,0.006979,0.000652,-0.040295,0.098423,0.316525,-0.001175,-46.489223,-0.184644,-0.429686,0.918818,-0.394660,-0.000001,-0.004081,0.034690,-0.038828,-0.164621
4043,0.007682,-0.007085,-0.036053,0.126014,0.319527,-0.010385,-46.473114,-0.184909,-0.437548,0.918873,-0.394531,0.000024,-0.004145,0.035056,-0.038989,-0.166530
4044,0.006523,-0.010095,-0.034453,0.113873,0.311845,-0.007387,-46.462528,-0.185355,-0.445404,0.918910,-0.394446,0.000047,-0.004210,0.035411,-0.039418,-0.168293
4045,0.009915,-0.006523,-0.038101,0.020853,0.311786,0.006282,-46.454037,-0.186885,-0.452972,0.918939,-0.394378,0.000060,-0.004276,0.035822,-0.039834,-0.170107
4047,0.009588,-0.005779,-0.038049,0.023987,0.307137,0.009259,-46.445045,-0.189973,-0.460298,0.918969,-0.394306,0.000060,-0.004345,0.036310,-0.040141,-0.172010
4048,0.007768,-0.007535,-0.038717,0.048480,0.299443,0.010717,-46.436058,-0.192157,-0.467422,0.919000,-0.394234,0.000067,-0.004410,0.036744,-0.040474,-0.173929
4049,0.007205,-0.006945,-0.037743,0.036343,0.281076,0.024392,-46.427464,-0.193119,-0.474054,0.919029,-0.394165,0.000082,-0.004466,0.037118,-0.040836,-0.175841
4050,0.006640,-0.004990,-0.032441,-0.018506,0.285604,0.033494,-46.418793,-0.193227,-0.480261,0.919059,-0.394095,0.000102,-0.004516,0.037464,-0.041135,-0.177596
4051,0.011715,-0.015698,-0.025623,-0.010840,0.290115,0.021217,-46.415611,-0.195627,-0.486596,0.919069,-0.394070,0.000104,-0.004575,0.037923,-0.041652,-0.179047
4052,0.008156,-0.015057,-0.030140,-0.053588,0.291566,0.033347,-46.418926,-0.199017,-0.492984,0.919057,-0.394096,0.000099,-0.004638,0.038420,-0.042421,-0.180441
4054,0.010753,-0.018475,-0.029154,-0.123827,0.286918,0.047006,-46.426365,-0.201702,-0.499029,0.919031,-0.394156,0.000099,-0.004696,0.038893,-0.043259,-0.181924
4055,0.011105,-0.012058,-0.029047,-0.091816,0.292940,0.048446,-46.433281,-0.205670,-0.504921,0.919007,-0.394212,0.000088,-0.004757,0.039439,-0.044022,-0.183379
4056,0.014390,-0.020812,-0.027320,-0.081178,0.291318,0.045294,-46.440590,-0.211675,-0.510883,0.918982,-0.394270,0.000060,-0.004825,0.040076,-0.044844,-0.184788
4057,0.005057,-0.011914,-0.034371,-0.087327,0.286667,0.043690,-46.447811,-0.214785,-0.516825,0.918957,-0.394328,0.000056,-0.004884,0.040563,-0.045662,-0.186330
4058,0.010325,-0.020034,-0.027053,-0.088893,0.291186,0.055836,-46.454754,-0.215325,-0.522646,0.918932,-0.394384,0.000072,-0.004932,0.040947,-0.046461,-0.187866
4059,0.011479,-0.016982,-0.026731,-0.038603,0.285003,0.046597,-46.463478,-0.219066,-0.528405,0.918902,-0.394454,0.000062,-0.004991,0.041492,-0.047386,-0.189210
4060,0.012951,-0.016784,-0.035477,-0.069172,0.281859,0.043449,-46.470257,-0.224771,-0.534200,0.918878,-0.394509,0.000037,-0.005057,0.042103,-0.048230,-0.190766
4061,0.010774,-0.011197,-0.039800,-0.119546,0.274139,0.050985,-46.475246,-0.230340,-0.539826,0.918861,-0.394549,0.000012,-0.005122,0.042696,-0.048930,-0.192647
4062,0.017532,-0.015345,-0.040125,-0.121082,0.274032,0.064605,-46.480225,-0.238162,-0.545119,0.918843,-0.394589,-0.000033,-0.005191,0.043404,-0.049593,-0.194646
4063,0.016226,-0.009065,-0.041031,-0.098191,0.272378,0.056840,-46.483654,-0.249040,-0.550329,0.918831,-0.394617,-0.000102,-0.005270,0.044248,-0.050204,-0.196674
4064,0.010439,-0.009736,-0.045628,-0.114942,0.282956,0.053679,-46.483860,-0.256417,-0.555787,0.918830,-0.394619,-0.000142,-0.005340,0.044914,-0.050674,-0.198841
4065,0.010845,-0.014680,-0.041373,-0.056951,0.290503,0.042911,-46.486038,-0.260593,-0.561612,0.918821,-0.394636,-0.000155,-0.005401,0.045446,-0.051284,-0.201016
4066,0.006370,-0.012109,-0.045013,0.074274,0.287386,0.007745,-46.486259,-0.262868,-0.568013,0.918820,-0.394638,-0.000152,-0.005460,0.045877,-0.051954,-0.203176
4067,0.001697,-0.006263,-0.048056,0.260481,0.282778,-0.021279,-46.476063,-0.260983,-0.575081,0.918855,-0.394556,-0.000113,-0.005510,0.046078,-0.052413,-0.205502
4068,0.007147,0.001104,-0.053366,0.382686,0.276643,-0.042676,-46.452244,-0.259865,-0.582635,0.918937,-0.394365,-0.000079,-0.005567,0.046299,-0.052542,-0.208038
4069,0.006375,0.002112,-0.051943,0.390506,0.273543,-0.035099,-46.420300,-0.261567,-0.590262,0.919046,-0.394109,-0.000068,-0.005634,0.046638,-0.052462,-0.210671
4070,0.002082,-0.005509,-0.049167,0.257911,0.267408,-0.012244,-46.393456,-0.260563,-0.597412,0.919138,-0.393894,-0.000037,-0.005688,0.046849,-0.052547,-0.213198
4071,0.004163,-0.004108,-0.045962,0.216830,0.268912,0.009096,-46.373562,-0.257638,-0.603975,0.919206,-0.393734,0.000009,-0.005730,0.047005,-0.052787,-0.215577
4072,0.006633,-0.010778,-0.036969,0.103995,0.267348,0.033471,-46.359894,-0.256392,-0.609994,0.919253,-0.393625,0.000039,-0.005774,0.047275,-0.053159,-0.217650
4073,0.001541,-0.018809,-0.029802,-0.031817,0.268845,0.048699,-46.359180,-0.253460,-0.615514,0.919255,-0.393619,0.000081,-0.005808,0.047479,-0.053899,-0.219319
4074,0.004686,-0.020325,-0.026668,-0.047148,0.265772,0.045625,-46.367493,-0.249248,-0.620847,0.919227,-0.393685,0.000133,-0.005837,0.047635,-0.054877,-0.220731
4075,0.006409,-0.015434,-0.030712,-0.015162,0.268785,0.045586,-46.374504,-0.247540,-0.626220,0.919203,-0.393741,0.000166,-0.005874,0.047912,-0.055771,-0.222165
4076,0.001759,-0.020338,-0.025730,-0.070154,0.273334,0.063868,-46.381836,-0.244166,-0.631476,0.919177,-0.393800,0.000212,-0.005904,0.048117,-0.056665,-0.223576
4077,0.002085,-0.017852,-0.023898,-0.102273,0.276374,0.059278,-46.392097,-0.238073,-0.636661,0.919142,-0.393882,0.000279,-0.005925,0.048213,-0.057620,-0.224817
4078,0.002344,-0.020705,-0.022753,-0.148131,0.274836,0.066895,-46.404236,-0.231989,-0.641830,0.919100,-0.393979,0.000346,-0.005946,0.048323,-0.058584,-0.225983
4079,-0.001289,-0.015261,-0.021969,-0.189400,0.283992,0.079102,-46.416767,-0.223737,-0.646870,0.919057,-0.394079,0.000430,-0.005958,0.048350,-0.059483,-0.227102
4080,0.003612,-0.017847,-0.012459,-0.256596,0.283989,0.085203,-46.429779,-0.215588,-0.651818,0.919012,-0.394184,0.000513,-0.005969,0.048408,-0.060311,-0.227962
4081,0.014275,-0.013786,-0.017124,-0.305476,0.282404,0.077511,-46.444077,-0.215776,-0.656769,0.918963,-0.394298,0.000529,-0.006009,0.048855,-0.061102,-0.228702
4082,0.012419,-0.011697,-0.021715,-0.365006,0.288411,0.089617,-46.457127,-0.221269,-0.661735,0.918917,-0.394403,0.000503,-0.006068,0.049522,-0.061739,-0.229673
4083,0.014661,-0.010525,-0.024031,-0.300917,0.295938,0.075777,-46.468243,-0.227293,-0.666893,0.918879,-0.394492,0.000473,-0.006130,0.050199,-0.062294,-0.230816
4084,0.014405,-0.011502,-0.029590,-0.209357,0.291252,0.064980,-46.476223,-0.234723,-0.672372,0.918851,-0.394557,0.000433,-0.006200,0.050926,-0.062845,-0.232157
4085,0.011735,-0.000288,-0.037845,-0.158936,0.294204,0.061824,-46.475906,-0.240873,-0.678018,0.918851,-0.394554,0.000403,-0.006266,0.051579,-0.063140,-0.233843
4086,0.007089,-0.002158,-0.037763,-0.145081,0.298711,0.072430,-46.468708,-0.242758,-0.683693,0.918876,-0.394497,0.000407,-0.006318,0.052050,-0.063201,-0.235733
4087,0.003921,-0.001833,-0.035546,-0.061034,0.295620,0.066284,-46.459980,-0.240016,-0.689334,0.918905,-0.394427,0.000448,-0.006354,0.052325,-0.063301,-0.237566
4088,0.003951,0.002746,-0.036637,-0.054780,0.298647,0.070835,-46.446869,-0.235166,-0.695002,0.918950,-0.394321,0.000506,-0.006383,0.052522,-0.063278,-0.239370
4089,0.008515,-0.006188,-0.033195,-0.111109,0.304711,0.070792,-46.436569,-0.232429,-0.700718,0.918986,-0.394238,0.000547,-0.006419,0.052834,-0.063364,-0.241116
4090,0.008488,-0.009028,-0.031830,-0.085103,0.300074,0.050893,-46.433327,-0.232624,-0.706652,0.918997,-0.394212,0.000565,-0.006468,0.053259,-0.063744,-0.242742
4091,0.010219,-0.010721,-0.035148,-0.049971,0.292376,0.044717,-46.432011,-0.234524,-0.712723,0.919001,-0.394202,0.000571,-0.006523,0.053727,-0.064238,-0.244416
4092,0.013556,-0.017146,-0.035629,-0.127804,0.304496,0.056833,-46.435959,-0.239210,-0.718760,0.918986,-0.394234,0.000554,-0.006587,0.054321,-0.064935,-0.246186
4093,0.011242,-0.013450,-0.039585,-0.143094,0.310506,0.050630,-46.443527,-0.244415,-0.724939,0.918960,-0.394295,0.000534,-0.006655,0.054941,-0.065700,-0.248066
4094,0.011812,-0.009731,-0.039868,-0.158347,0.307367,0.050539,-46.448025,-0.248739,-0.731242,0.918944,-0.394331,0.000522,-0.006720,0.055517,-0.066279,-0.250052
4095,0.008888,-0.012026,-0.040673,-0.155281,0.327127,0.065716,-46.451717,-0.251312,-0.737577,0.918931,-0.394361,0.000523,-0.006780,0.056035,-0.066823,-0.252066
4096,0.003972,-0.011658,-0.038596,-0.146121,0.328605,0.054985,-46.456200,-0.249230,-0.744114,0.918915,-0.394396,0.000562,-0.006825,0.056356,-0.067415,-0.254048
4097,0.003592,-0.009394,-0.038622,-0.123213,0.320950,0.033595,-46.458801,-0.244380,-0.750952,0.918906,-0.394417,0.000625,-0.006863,0.056545,-0.067941,-0.255978
4098,0.000601,-0.010046,-0.040295,-0.112502,0.302628,0.032057,-46.459785,-0.238095,-0.757744,0.918902,-0.394425,0.000699,-0.006896,0.056650,-0.068427,-0.257951
4099,-0.001300,-0.007902,-0.042422,-0.077366,0.298057,0.021384,-46.459026,-0.229503,-0.764404,0.918905,-0.394418,0.000791,-0.006920,0.056633,-0.068876,-0.260019
4100,0.004106,-0.011116,-0.037195,-0.033078,0.288896,0.007646,-46.457199,-0.223072,-0.771177,0.918911,-0.394403,0.000865,-0.006952,0.056703,-0.069352,-0.262009
4101,0.008926,-0.006097,-0.039181,0.053948,0.287327,0.003022,-46.451866,-0.222662,-0.778035,0.918929,-0.394360,0.000892,-0.007006,0.057029,-0.069782,-0.263919
4102,0.008343,-0.001740,-0.043106,0.081520,0.285738,0.007532,-46.439083,-0.225036,-0.784878,0.918972,-0.394258,0.000896,-0.007069,0.057460,-0.069978,-0.265976
4103,0.013155,-0.006851,-0.041050,0.064844,0.290237,0.015078,-46.425793,-0.229733,-0.791619,0.919017,-0.394151,0.000880,-0.007139,0.057998,-0.070193,-0.268080
4104,0.014061,-0.009398,-0.035269,0.087801,0.290135,0.018022,-46.416386,-0.237554,-0.798276,0.919049,-0.394076,0.000840,-0.007219,0.058678,-0.070599,-0.269988
4105,0.012583,-0.005925,-0.040093,0.112285,0.285455,0.024018,-46.405968,-0.245289,-0.804772,0.919084,-0.393993,0.000800,-0.007298,0.059344,-0.070982,-0.271872
4106,0.010805,-0.007637,-0.039763,0.072692,0.282313,0.020871,-46.394825,-0.251330,-0.811146,0.919122,-0.393904,0.000772,-0.007370,0.059929,-0.071321,-0.273868
4107,0.011369,-0.006879,-0.037699,0.106338,0.276124,0.010100,-46.384235,-0.256875,-0.817564,0.919158,-0.393819,0.000749,-0.007441,0.060483,-0.071684,-0.275805
4108,0.008933,-0.002539,-0.038033,0.130856,0.279099,0.003913,-46.369923,-0.261599,-0.824150,0.919206,-0.393705,0.000733,-0.007510,0.060991,-0.071919,-0.277698
4109,0.008613,-0.005207,-0.042459,0.077564,0.282084,0.003843,-46.354916,-0.264775,-0.830885,0.919257,-0.393584,0.000730,-0.007575,0.061430,-0.072113,-0.279710
4110,0.006461,-0.010051,-0.036000,0.065431,0.271345,0.003782,-46.345066,-0.266647,-0.837507,0.919290,-0.393505,0.000737,-0.007635,0.061806,-0.072494,-0.281672
4111,0.007575,-0.012597,-0.035728,0.041046,0.272818,0.018987,-46.340302,-0.267818,-0.843821,0.919306,-0.393467,0.000749,-0.007689,0.062157,-0.073061,-0.283465
4112,0.005104,-0.023275,-0.029428,-0.047505,0.272769,0.040299,-46.345119,-0.267806,-0.849696,0.919289,-0.393506,0.000769,-0.007736,0.062474,-0.073957,-0.285094
4113,0.007142,-0.027518,-0.026498,-0.065954,0.257463,0.043303,-46.360703,-0.267446,-0.855063,0.919235,-0.393631,0.000792,-0.007778,0.062780,-0.075227,-0.286492
4114,0.004534,-0.029196,-0.021260,-0.085970,0.251314,0.053937,-46.381134,-0.266888,-0.859997,0.919165,-0.393795,0.000815,-0.007816,0.063072,-0.076645,-0.287686
4115,0.006577,-0.028646,-0.022457,-0.128887,0.252797,0.056945,-46.403767,-0.265903,-0.864715,0.919087,-0.393976,0.000840,-0.007850,0.063350,-0.078091,-0.288779
4116,0.007325,-0.019937,-0.023766,-0.112245,0.243590,0.040106,-46.422115,-0.266575,-0.869523,0.919023,-0.394123,0.000853,-0.007891,0.063698,-0.079306,-0.289934
4117,0.008729,-0.013262,-0.027580,-0.087887,0.237425,0.030887,-46.431126,-0.268963,-0.874487,0.918992,-0.394195,0.000851,-0.007939,0.064099,-0.080136,-0.291218
4118,0.002806,-0.009798,-0.029393,-0.068045,0.245011,0.021684,-46.433102,-0.269243,-0.879711,0.918985,-0.394211,0.000867,-0.007981,0.064387,-0.080712,-0.292642
4119,0.004101,0.000844,-0.034050,0.026652,0.240407,0.014028,-46.424870,-0.266934,-0.885205,0.919013,-0.394145,0.000904,-0.008018,0.064560,-0.080936,-0.294228
4120,0.001045,-0.002781,-0.036220,0.019159,0.235813,0.012484,-46.410393,-0.263629,-0.890714,0.919062,-0.394029,0.000948,-0.008050,0.064689,-0.080984,-0.295985
4121,-0.002788,-0.007042,-0.036125,-0.000578,0.249554,0.015544,-46.400085,-0.256484,-0.896297,0.919098,-0.393946,0.001024,-0.008071,0.064645,-0.081230,-0.297794
4122,0.003463,-0.014182,-0.034028,0.040657,0.255660,0.015546,-46.395847,-0.250086,-0.902053,0.919112,-0.393911,0.001095,-0.008095,0.064662,-0.081761,-0.299548
4123,0.005816,-0.017880,-0.032974,0.078780,0.252577,0.023143,-46.396435,-0.248301,-0.907731,0.919110,-0.393916,0.001129,-0.008134,0.064894,-0.082562,-0.301223
4124,0.008165,-0.016202,-0.037410,0.069583,0.260155,0.018511,-46.397964,-0.249369,-0.913423,0.919104,-0.393928,0.001140,-0.008184,0.065244,-0.083414,-0.302982
4125,0.011038,-0.013616,-0.036010,0.081773,0.253979,0.018435,-46.397209,-0.253494,-0.919196,0.919106,-0.393922,0.001127,-0.008244,0.065724,-0.084160,-0.304818
4126,0.011741,-0.016609,-0.033213,0.097016,0.244736,0.027498,-46.395927,-0.259885,-0.924679,0.919110,-0.393912,0.001094,-0.008310,0.066293,-0.084915,-0.306548
4127,0.006760,-0.012026,-0.034706,0.106162,0.240085,0.018267,-46.393345,-0.264364,-0.930001,0.919118,-0.393892,0.001076,-0.008368,0.066756,-0.085631,-0.308246
4128,0.008862,-0.006400,-0.037620,0.078743,0.244602,0.009046,-46.385555,-0.267292,-0.935559,0.919144,-0.393829,0.001071,-0.008423,0.067146,-0.086092,-0.310054
4129,0.004448,-0.008239,-0.027692,0.026932,0.246077,0.005940,-46.376720,-0.268898,-0.941341,0.919174,-0.393759,0.001078,-0.008475,0.067479,-0.086458,-0.311687
4130,0.002587,-0.003954,-0.032610,0.005652,0.250627,0.002860,-46.367870,-0.267018,-0.947271,0.919204,-0.393687,0.001112,-0.008516,0.067655,-0.086763,-0.313195
4131,-0.000127,-0.000070,-0.036616,0.005778,0.250620,0.001326,-46.355064,-0.262311,-0.953328,0.919248,-0.393584,0.001170,-0.008549,0.067716,-0.086863,-0.314925
4133,-0.000555,0.007470,-0.046428,-0.009292,0.259783,0.007435,-46.336098,-0.255391,-0.959470,0.919313,-0.393432,0.001245,-0.008574,0.067699,-0.086678,-0.317002
4134,-0.001360,-0.001771,-0.040602,-0.105240,0.258271,0.028812,-46.319508,-0.247164,-0.965381,0.919370,-0.393298,0.001330,-0.008594,0.067651,-0.086536,-0.319177
4135,0.000044,-0.003110,-0.046783,-0.156997,0.247600,0.042556,-46.311459,-0.238922,-0.970711,0.919398,-0.393233,0.001414,-0.008608,0.067618,-0.086658,-0.321362
4136,0.002663,-0.006838,-0.047165,-0.164539,0.250648,0.050180,-46.307938,-0.232686,-0.975686,0.919410,-0.393204,0.001481,-0.008627,0.067686,-0.086907,-0.323711
4137,0.007100,-0.010860,-0.044357,-0.083620,0.255194,0.028783,-46.307564,-0.230559,-0.980891,0.919410,-0.393201,0.001516,-0.008661,0.067930,-0.087349,-0.325999
4138,0.006581,-0.017897,-0.030831,-0.062272,0.247514,0.022627,-46.311493,-0.231395,-0.986351,0.919397,-0.393232,0.001528,-0.008708,0.068272,-0.088068,-0.327878
4139,0.006989,-0.018029,-0.034988,-0.030283,0.245936,0.019521,-46.318665,-0.232744,-0.991790,0.919371,-0.393290,0.001537,-0.008756,0.068611,-0.088966,-0.329524
4140,0.005896,-0.017776,-0.037653,0.006281,0.244360,0.031676,-46.324833,-0.233698,-0.997087,0.919350,-0.393340,0.001548,-0.008802,0.068934,-0.089861,-0.331340
4141,0.004654,-0.011387,-0.034215,0.045934,0.248897,0.033160,-46.326004,-0.233095,-1.002278,0.919345,-0.393349,0.001570,-0.008841,0.069197,-0.090590,-0.333137
4142,0.002049,-0.006432,-0.034788,-0.007429,0.248873,0.046868,-46.320953,-0.229934,-1.007375,0.919363,-0.393308,0.001613,-0.008872,0.069365,-0.091036,-0.334862
4143,0.001847,-0.005180,-0.037239,-0.051600,0.250387,0.054485,-46.313816,-0.224684,-1.012259,0.919387,-0.393250,0.001671,-0.008893,0.069462,-0.091326,-0.336662
4144,0.002565,-0.001738,-0.033950,-0.045388,0.248849,0.046843,-46.304668,-0.219475,-1.017151,0.919418,-0.393177,0.001729,-0.008914,0.069573,-0.091499,-0.338442
4145,0.002877,-0.000727,-0.024297,0.034094,0.254938,0.026988,-46.291405,-0.215077,-1.022424,0.919464,-0.393070,0.001781,-0.008942,0.069709,-0.091561,-0.339898
4146,-0.000312,-0.008443,-0.023000,0.076923,0.253406,0.010196,-46.279129,-0.209704,-1.028159,0.919505,-0.392971,0.001843,-0.008970,0.069773,-0.091790,-0.341081
4147,0.009073,-0.008985,-0.023657,0.061724,0.247272,0.010165,-46.270798,-0.207939,-1.033978,0.919534,-0.392904,0.001877,-0.009010,0.069992,-0.092226,-0.342247
4148,0.006865,-0.009501,-0.023666,-0.008419,0.256370,0.016208,-46.264874,-0.210222,-1.039759,0.919553,-0.392856,0.001878,-0.009065,0.070390,-0.092688,-0.343430
4149,0.007118,-0.013112,-0.022046,-0.051119,0.254791,0.029885,-46.263432,-0.211518,-1.045392,0.919558,-0.392845,0.001886,-0.009114,0.070740,-0.093253,-0.344573
4150,0.013028,-0.019364,-0.026551,-0.109138,0.247085,0.051169,-46.269424,-0.215767,-1.050490,0.919537,-0.392893,0.001870,-0.009170,0.071244,-0.094065,-0.345788
4151,0.015395,-0.008210,-0.031147,-0.118307,0.243925,0.055634,-46.274624,-0.224458,-1.055166,0.919518,-0.392935,0.001817,-0.009237,0.071954,-0.094754,-0.347230
4152,0.009094,-0.014346,-0.025579,-0.196118,0.248407,0.066215,-46.278679,-0.231194,-1.059696,0.919503,-0.392968,0.001779,-0.009296,0.072566,-0.095318,-0.348649
4153,0.014672,-0.013258,-0.025972,-0.220549,0.240686,0.067644,-46.287209,-0.237299,-1.064038,0.919473,-0.393037,0.001745,-0.009352,0.073160,-0.096008,-0.349937
4154,0.014199,-0.007020,-0.030024,-0.302931,0.246678,0.078210,-46.294128,-0.245866,-1.068235,0.919449,-0.393093,0.001692,-0.009415,0.073882,-0.096515,-0.351337
4155,0.011906,-0.006286,-0.029687,-0.386803,0.245052,0.065897,-46.300228,-0.253087,-1.072522,0.919427,-0.393142,0.001649,-0.009474,0.074535,-0.096848,-0.352830
4156,0.005810,-0.009665,-0.025811,-0.432542,0.252612,0.058194,-46.310112,-0.255927,-1.077105,0.919393,-0.393222,0.001643,-0.009520,0.074978,-0.097247,-0.354217
4157,0.005330,-0.001423,-0.036740,-0.400439,0.254096,0.052047,-46.318047,-0.254884,-1.081968,0.919365,-0.393285,0.001668,-0.009556,0.075256,-0.097524,-0.355781
4158,0.004178,-0.001696,-0.041584,-0.336246,0.252537,0.050486,-46.319813,-0.252645,-1.086941,0.919359,-0.393299,0.001704,-0.009588,0.075494,-0.097602,-0.357739
4159,0.002720,-0.000451,-0.042193,-0.211001,0.257092,0.026046,-46.317078,-0.249198,-1.092255,0.919368,-0.393277,0.001749,-0.009619,0.075666,-0.097656,-0.359834
4160,0.000138,0.006714,-0.048897,-0.116223,0.257086,0.012305,-46.305458,-0.243842,-1.098084,0.919408,-0.393183,0.001811,-0.009647,0.075738,-0.097499,-0.362111
4161,-0.003744,0.022269,-0.066395,-0.102189,0.244899,0.027584,-46.278957,-0.234750,-1.103801,0.919499,-0.392970,0.001902,-0.009662,0.075648,-0.096774,-0.364993
4162,-0.004226,0.007364,-0.056275,-0.141545,0.251041,0.032201,-46.251228,-0.222786,-1.109216,0.919594,-0.392746,0.002014,-0.009665,0.075448,-0.096034,-0.368060
4163,-0.005689,0.005223,-0.051364,-0.036028,0.249562,0.016990,-46.231361,-0.209775,-1.114764,0.919662,-0.392586,0.002136,-0.009666,0.075201,-0.095719,-0.370751
4164,-0.001011,-0.004273,-0.046287,0.054163,0.241966,0.018550,-46.214832,-0.198799,-1.120329,0.919719,-0.392452,0.002241,-0.009673,0.075033,-0.095695,-0.373192
4165,0.004305,-0.009839,-0.040148,0.066452,0.254169,0.026173,-46.204693,-0.193322,-1.125811,0.919753,-0.392371,0.002303,-0.009698,0.075115,-0.096048,-0.375353
4166,0.016622,-0.027852,-0.028854,0.060299,0.258671,0.035251,-46.207417,-0.197569,-1.131256,0.919743,-0.392393,0.002288,-0.009757,0.075639,-0.096990,-0.377078
4167,0.015041,-0.062452,-0.009521,0.232392,0.240234,0.024440,-46.236195,-0.209164,-1.136451,0.919644,-0.392624,0.002215,-0.009837,0.076430,-0.099248,-0.378038
4168,0.014782,-0.043427,-0.018469,0.592075,0.215694,-0.024519,-46.265980,-0.221935,-1.141778,0.919540,-0.392864,0.002133,-0.009923,0.077176,-0.101895,-0.378737
4169,0.011189,-0.040241,-0.016638,0.671110,0.200322,-0.047522,-46.276119,-0.233990,-1.147496,0.919505,-0.392946,0.002057,-0.010010,0.077825,-0.103986,-0.379615
4170,0.007651,-0.039341,-0.017725,0.663209,0.184979,-0.050661,-46.281075,-0.242873,-1.153158,0.919487,-0.392987,0.002006,-0.010086,0.078296,-0.105976,-0.380474
4171,0.005209,-0.033885,-0.013355,0.693494,0.171185,-0.052249,-46.281826,-0.248649,-1.158537,0.919483,-0.392993,0.001978,-0.010149,0.078618,-0.107807,-0.381251
4172,0.009731,0.001420,-0.024323,0.609555,0.166545,-0.052314,-46.261425,-0.255070,-1.163805,0.919553,-0.392830,0.001943,-0.010214,0.078991,-0.108618,-0.382193
4173,0.004194,-0.010008,-0.013917,0.211414,0.175644,-0.000492,-46.235153,-0.260016,-1.168593,0.919642,-0.392619,0.001917,-0.010270,0.079339,-0.108833,-0.383149
4174,0.006594,-0.001577,-0.023947,0.081817,0.177126,0.023876,-46.219582,-0.262055,-1.172619,0.919695,-0.392494,0.001913,-0.010309,0.079339,-0.108833,-0.383149
4175,0.007134,-0.005941,-0.022923,0.008688,0.167918,0.040605,-46.206463,-0.264912,-1.176082,0.919739,-0.392389,0.001901,-0.010347,0.079339,-0.108833,-0.383149
4176,0.002014,-0.002255,-0.027413,-0.050715,0.175512,0.031412,-46.196384,-0.265332,-1.179433,0.919773,-0.392308,0.001908,-0.010376,0.079339,-0.108833,-0.383149
4177,-0.001388,0.000606,-0.038158,-0.068888,0.180088,0.043615,-46.184586,-0.260722,-1.182909,0.919814,-0.392213,0.001956,-0.010388,0.079339,-0.108833,-0.383149
4178,0.005547,-0.005032,-0.041529,-0.123698,0.186179,0.051232,-46.175385,-0.257177,-1.186276,0.919845,-0.392139,0.001995,-0.010403,0.079443,-0.108944,-0.385141
4179,0.001724,-0.004422,-0.031366,-0.102241,0.187680,0.043576,-46.169685,-0.255349,-1.189720,0.919864,-0.392093,0.002021,-0.010424,0.079443,-0.108944,-0.385141
4180,0.001843,-0.003398,-0.036064,-0.053310,0.189194,0.038985,-46.162182,-0.251802,-1.193344,0.919890,-0.392032,0.002061,-0.010441,0.079443,-0.108944,-0.385141
4181,0.010274,-0.013442,-0.031704,-0.063936,0.186099,0.046569,-46.158543,-0.252740,-1.196893,0.919902,-0.392003,0.002065,-0.010473,0.079443,-0.108944,-0.385141
4182,0.009679,-0.010382,-0.030389,-0.021194,0.184497,0.046489,-46.158306,-0.258305,-1.200281,0.919902,-0.392002,0.002032,-0.010519,0.079443,-0.108944,-0.385141
4183,0.009319,-0.016875,-0.026410,0.003217,0.192051,0.041833,-46.159000,-0.263806,-1.203786,0.919899,-0.392008,0.002000,-0.010566,0.079443,-0.108944,-0.385141
4184,0.008421,-0.019220,-0.029473,-0.001413,0.199609,0.047863,-46.164135,-0.268522,-1.207434,0.919881,-0.392049,0.001975,-0.010612,0.079443,-0.108944,-0.386538
4185,0.007396,-0.017787,-0.018243,-0.007581,0.204122,0.035588,-46.170708,-0.272222,-1.211294,0.919858,-0.392102,0.001959,-0.010655,0.064351,-0.088556,-0.312517
4186,0.004401,-0.025805,-0.012879,-0.035157,0.202544,0.030957,-46.182346,-0.274172,-1.215363,0.919818,-0.392196,0.001959,-0.010694,0.052105,-0.072255,-0.252520
4187,0.004224,-0.023800,-0.009852,-0.056676,0.208606,0.021759,-46.199474,-0.274643,-1.219624,0.919759,-0.392333,0.001971,-0.010730,0.042171,-0.059238,-0.203992
4188,0.005226,-0.016854,-0.014078,0.002715,0.188725,0.015612,-46.212368,-0.275882,-1.223914,0.919714,-0.392437,0.001977,-0.010768,0.034181,-0.048566,-0.164903
4189,0.003228,-0.017572,-0.013917,-0.017211,0.174951,0.014043,-46.221481,-0.277283,-1.227904,0.919682,-0.392510,0.001980,-0.010805,0.027721,-0.039839,-0.133478
4190,0.001293,-0.013801,-0.017604,0.031544,0.179501,0.021645,-46.228706,-0.276704,-1.231721,0.919657,-0.392568,0.001999,-0.010834,0.022434,-0.032743,-0.108220
4191,0.000390,-0.005713,-0.023967,0.074258,0.177960,0.003317,-46.228165,-0.274439,-1.235729,0.919659,-0.392563,0.002031,-0.010858,0.018116,-0.026784,-0.088065
4192,-0.000160,0.004962,-0.026122,0.066723,0.177953,0.001784,-46.216305,-0.271316,-1.239999,0.919699,-0.392467,0.002069,-0.010882,0.014607,-0.021604,-0.071990
4193,0.002823,-0.018219,-0.009476,0.037767,0.185567,0.013973,-46.210945,-0.269371,-1.244209,0.919717,-0.392424,0.002099,-0.010909,0.011827,-0.017680,-0.058743
4194,0.005446,-0.017387,-0.014555,0.043774,0.182473,0.010879,-46.219086,-0.270766,-1.248306,0.919689,-0.392490,0.002102,-0.010947,0.009699,-0.014968,-0.047832
4195,0.002526,-0.013261,-0.010792,0.031481,0.182430,-0.007478,-46.226486,-0.272729,-1.252616,0.919663,-0.392549,0.002102,-0.010988,0.007978,-0.012682,-0.039064
4196,-0.001249,-0.016736,-0.007336,0.071066,0.185463,0.006237,-46.233589,-0.271228,-1.257016,0.919638,-0.392606,0.002130,-0.011018,0.006456,-0.010826,-0.031851
4197,0.001028,-0.021548,-0.007019,0.054142,0.176295,0.024536,-46.245388,-0.268380,-1.260950,0.919598,-0.392700,0.002167,-0.011039,0.005199,-0.009497,-0.025962
4198,-0.005813,0.014547,-0.020070,0.066371,0.176304,0.010813,-46.241207,-0.262579,-1.264796,0.919612,-0.392666,0.002227,-0.011050,0.004094,-0.007796,-0.021471
4199,-0.000867,0.010505,-0.015359,0.022330,0.177852,0.026093,-46.218639,-0.254951,-1.268730,0.919689,-0.392484,0.002299,-0.011056,0.003166,-0.005779,-0.018020
4200,0.000307,0.009100,-0.020766,-0.084285,0.164119,0.067293,-46.199615,-0.249874,-1.271857,0.919755,-0.392331,0.002349,-0.011064,0.002540,-0.004263,-0.015252
4201,0.003577,0.011979,-0.020364,-0.106965,0.151894,0.064221,-46.182026,-0.247267,-1.274233,0.919815,-0.392190,0.002376,-0.011075,0.002126,-0.003011,-0.013122
4202,0.007496,0.004488,-0.021825,-0.131196,0.151847,0.064170,-46.167492,-0.249162,-1.276485,0.919864,-0.392073,0.002367,-0.011100,0.001936,-0.002095,-0.011427
4203,0.008315,-0.001107,-0.019938,-0.135660,0.148724,0.070200,-46.160603,-0.254396,-1.278598,0.919887,-0.392018,0.002332,-0.011135,0.001879,-0.001621,-0.010052
4204,0.010555,-0.003859,-0.016343,-0.105079,0.145584,0.056375,-46.158436,-0.262189,-1.280702,0.919894,-0.392001,0.002276,-0.011178,0.001895,-0.001406,-0.008833
4205,0.012070,-0.012920,-0.009658,-0.033368,0.153106,0.037952,-46.161385,-0.273138,-1.283201,0.919883,-0.392026,0.002197,-0.011236,0.001983,-0.001472,-0.007643
4206,0.012723,-0.004281,-0.008336,-0.022701,0.168245,0.043929,-46.163795,-0.285867,-1.286111,0.919874,-0.392046,0.002105,-0.011303,0.002098,-0.001533,-0.006523
4207,0.006886,-0.008218,-0.005620,-0.031849,0.172718,0.036191,-46.163910,-0.296078,-1.289289,0.919872,-0.392048,0.002034,-0.011363,0.002086,-0.001487,-0.005539
4208,0.005296,-0.005986,-0.007470,-0.066948,0.184848,0.028480,-46.165852,-0.302347,-1.292840,0.919865,-0.392064,0.001996,-0.011413,0.001927,-0.001485,-0.004728
4209,-0.001643,0.000473,-0.008675,-0.080643,0.195487,0.034539,-46.164425,-0.303415,-1.296705,0.919869,-0.392053,0.002001,-0.011448,0.001627,-0.001308,-0.004136
4210,-0.001505,0.000942,-0.014463,-0.046995,0.196999,0.022317,-46.158688,-0.300174,-1.300809,0.919889,-0.392006,0.002040,-0.011470,0.001248,-0.001026,-0.003800
4211,-0.000008,-0.000099,-0.012450,-0.074381,0.196983,0.020773,-46.152710,-0.297553,-1.305089,0.919909,-0.391958,0.002075,-0.011495,0.000975,-0.000810,-0.003605
4212,-0.000714,0.003726,-0.012648,-0.043766,0.198489,0.014649,-46.145092,-0.295441,-1.309484,0.919935,-0.391897,0.002106,-0.011523,0.000771,-0.000580,-0.003412
4213,0.000688,-0.009025,-0.006727,-0.092548,0.199992,0.031409,-46.142487,-0.293677,-1.313766,0.919943,-0.391875,0.002135,-0.011552,0.000621,-0.000574,-0.003140
4214,0.002502,-0.009658,-0.005837,-0.080372,0.204532,0.010008,-46.148445,-0.293871,-1.318134,0.919923,-0.391923,0.002149,-0.011587,0.000565,-0.000839,-0.002784
4215,0.002694,-0.010371,0.002050,-0.101784,0.198381,0.017589,-46.156399,-0.295631,-1.322632,0.919895,-0.391987,0.002151,-0.011629,0.000560,-0.001080,-0.002320
4216,0.000499,-0.015736,0.000665,-0.115606,0.187658,0.025177,-46.168915,-0.296623,-1.326732,0.919851,-0.392088,0.002158,-0.011665,0.000516,-0.001396,-0.001816
4217,0.005312,-0.013879,0.004956,-0.208804,0.189133,0.037331,-46.185905,-0.298858,-1.330480,0.919793,-0.392224,0.002155,-0.011703,0.000661,-0.002137,-0.001675
4218,0.005300,-0.010359,0.000449,-0.181430,0.176857,0.040312,-46.201603,-0.303637,-1.333936,0.919738,-0.392350,0.002130,-0.011747,0.000926,-0.002743,-0.001540
4219,0.001630,-0.003162,-0.000114,-0.147892,0.181378,0.049409,-46.210419,-0.306499,-1.337192,0.919708,-0.392421,0.002119,-0.011782,0.001100,-0.003081,-0.001532
4220,0.001545,0.002567,-0.008013,-0.169214,0.187442,0.058522,-46.211552,-0.306658,-1.340406,0.919703,-0.392430,0.002129,-0.011809,0.001179,-0.003096,-0.001735
4221,0.003989,0.003396,-0.006092,-0.202701,0.181293,0.052371,-46.209457,-0.307711,-1.343608,0.919710,-0.392414,0.002131,-0.011838,0.001317,-0.002947,-0.002087
4222,-0.001552,0.010058,-0.014284,-0.106442,0.179733,0.043179,-46.201965,-0.307399,-1.346917,0.919736,-0.392353,0.002144,-0.011864,0.001317,-0.002947,-0.002087
4223,-0.000531,0.008837,-0.016709,-0.091021,0.176665,0.038582,-46.189095,-0.304726,-1.350348,0.919779,-0.392250,0.002176,-0.011882,0.001317,-0.002947,-0.002087
4224,0.002728,0.000204,-0.020478,-0.097011,0.170530,0.044653,-46.180752,-0.304341,-1.353625,0.919808,-0.392183,0.002190,-0.011907,0.001317,-0.002947,-0.002087
4225,0.000684,0.003903,-0.017432,-0.099979,0.179648,0.027827,-46.175602,-0.304978,-1.357045,0.919825,-0.392141,0.002196,-0.011937,0.001317,-0.002947,-0.002087
4226,0.001080,-0.001187,-0.018064,-0.098379,0.197926,0.038475,-46.171535,-0.304582,-1.360859,0.919838,-0.392109,0.002212,-0.011967,0.001317,-0.002947,-0.002087
4227,-0.000111,-0.007849,-0.010247,-0.075480,0.199422,0.032339,-46.173389,-0.303506,-1.364825,0.919832,-0.392123,0.002234,-0.011995,0.001317,-0.002947,-0.002087
4228,-0.001320,-0.003470,-0.010027,-0.055651,0.205505,0.024688,-46.176315,-0.301179,-1.369032,0.919822,-0.392147,0.002267,-0.012020,0.001033,-0.002603,-0.002091
4229,-0.001251,-0.007454,-0.007078,-0.080074,0.205489,0.024672,-46.179424,-0.298106,-1.373400,0.919811,-0.392171,0.002307,-0.012045,0.000781,-0.002318,-0.002030
4230,-0.000582,0.000304,-0.011993,-0.051072,0.197842,0.026179,-46.180584,-0.295357,-1.377668,0.919806,-0.392180,0.002344,-0.012070,0.000592,-0.002013,-0.002021
4231,-0.000437,-0.000707,-0.013615,-0.058653,0.199348,0.015477,-46.177559,-0.293166,-1.381988,0.919816,-0.392156,0.002376,-0.012097,0.000457,-0.001630,-0.002145
4232,0.001389,0.004131,-0.020560,-0.089099,0.188639,0.018500,-46.172729,-0.292261,-1.386299,0.919832,-0.392117,0.002398,-0.012129,0.000388,-0.001245,-0.002417
4233,0.003170,0.004460,-0.017546,-0.101203,0.185545,0.010826,-46.165539,-0.293643,-1.390513,0.919857,-0.392059,0.002400,-0.012167,0.000404,-0.000830,-0.002716
4234,0.003242,0.003698,-0.012288,-0.110253,0.182443,0.012298,-46.158569,-0.296498,-1.394724,0.919880,-0.392003,0.002391,-0.012211,0.000455,-0.000505,-0.002790
4236,0.003787,-0.005522,-0.010792,-0.146825,0.182388,0.012240,-46.157703,-0.300022,-1.398854,0.919882,-0.391996,0.002377,-0.012256,0.000631,-0.000551,-0.003367
4237,0.003495,-0.000998,-0.009485,-0.125442,0.182331,-0.000028,-46.160168,-0.303967,-1.403108,0.919873,-0.392016,0.002360,-0.012304,0.000631,-0.000551,-0.003367
4238,0.004194,-0.007085,-0.007926,-0.070499,0.189900,0.010593,-46.162376,-0.308117,-1.407466,0.919865,-0.392034,0.002342,-0.012353,0.000631,-0.000551,-0.003367
4239,0.002529,-0.013128,-0.010544,-0.059870,0.198999,0.009007,-46.169849,-0.311605,-1.411886,0.919838,-0.392095,0.002330,-0.012400,0.000631,-0.000551,-0.003829
4240,-0.000307,-0.001882,-0.018406,-0.023278,0.192856,-0.001716,-46.174232,-0.312693,-1.416496,0.919823,-0.392130,0.002337,-0.012441,0.000631,-0.000551,-0.003829
4241,-0.002086,-0.001122,-0.020263,0.030167,0.192836,-0.003262,-46.170353,-0.311184,-1.421211,0.919836,-0.392098,0.002365,-0.012474,0.000631,-0.000551,-0.003829
4242,-0.008329,0.003945,-0.020175,0.024139,0.194374,0.010484,-46.161846,-0.304898,-1.425825,0.919865,-0.392030,0.002430,-0.012489,0.000631,-0.000551,-0.003829
4243,-0.005913,0.005936,-0.016553,-0.021521,0.194405,-0.001692,-46.150043,-0.295887,-1.430459,0.919905,-0.391934,0.002517,-0.012496,0.000221,-0.000245,-0.003826
4244,-0.005041,0.007764,-0.014991,-0.061053,0.186798,0.022744,-46.137150,-0.288056,-1.434870,0.919949,-0.391830,0.002594,-0.012505,-0.000042,0.000079,-0.003720
4245,-0.004165,0.006560,-0.014670,-0.086845,0.186814,0.036495,-46.124748,-0.280674,-1.438751,0.919992,-0.391729,0.002665,-0.012511,-0.000220,0.000352,-0.003596
4246,-0.003687,-0.002067,-0.006060,-0.095904,0.185300,0.042610,-46.118168,-0.273795,-1.442355,0.920014,-0.391676,0.002732,-0.012517,-0.000335,0.000374,-0.003316
4247,-0.000232,-0.015946,-0.003242,-0.126455,0.166984,0.048708,-46.125114,-0.269384,-1.445517,0.919990,-0.391731,0.002779,-0.012527,-0.000349,-0.000061,-0.002860
4248,-0.000660,-0.010322,-0.008326,-0.126549,0.165439,0.057844,-46.138687,-0.266969,-1.448236,0.919944,-0.391840,0.002809,-0.012540,-0.000299,-0.000579,-0.002538
4249,0.002278,-0.003771,-0.011633,-0.079281,0.173040,0.047133,-46.145744,-0.265891,-1.451074,0.919919,-0.391896,0.002828,-0.012559,-0.000209,-0.000750,-0.002448
4250,0.003789,-0.011733,-0.008995,-0.100685,0.172993,0.059292,-46.152710,-0.267331,-1.453985,0.919895,-0.391952,0.002827,-0.012587,-0.000046,-0.000917,-0.002389
4251,0.010965,-0.008395,-0.017243,-0.164839,0.177490,0.059208,-46.163792,-0.273563,-1.456797,0.919857,-0.392042,0.002788,-0.012631,0.000323,-0.001420,-0.003045
4252,0.012304,0.003790,-0.021162,-0.108367,0.185005,0.051460,-46.166988,-0.284528,-1.459883,0.919845,-0.392068,0.002711,-0.012693,0.000323,-0.001420,-0.003045
4253,0.009961,-0.005740,-0.010562,-0.120539,0.180315,0.042186,-46.167263,-0.295542,-1.463211,0.919843,-0.392071,0.002634,-0.012757,0.000323,-0.001420,-0.003045
4254,0.005271,-0.007229,-0.007046,-0.106828,0.181752,0.026835,-46.173218,-0.303318,-1.466755,0.919821,-0.392120,0.002584,-0.012812,0.000323,-0.001420,-0.003045
4255,0.002937,-0.004298,-0.005232,-0.065647,0.195425,0.008461,-46.178017,-0.307289,-1.470873,0.919804,-0.392159,0.002567,-0.012859,0.000323,-0.001420,-0.003045
4256,-0.008263,-0.005588,0.005259,-0.036666,0.190839,0.008452,-46.180729,-0.303806,-1.475316,0.919795,-0.392180,0.002610,-0.012882,0.000323,-0.001420,-0.003045
4257,-0.011927,-0.003207,0.001461,0.001479,0.192416,0.003928,-46.181679,-0.291805,-1.479780,0.919792,-0.392186,0.002722,-0.012877,0.000323,-0.001420,-0.003045
4258,-0.009915,0.006439,-0.008447,0.015277,0.203164,0.011626,-46.175007,-0.277591,-1.484389,0.919815,-0.392131,0.002851,-0.012866,-0.000180,-0.001080,-0.002595
4259,-0.010738,-0.002488,-0.005859,-0.056369,0.198651,0.030005,-46.168247,-0.262992,-1.488776,0.919838,-0.392076,0.002983,-0.012851,-0.000561,-0.000791,-0.002380
4260,-0.009528,0.001090,-0.010466,-0.073109,0.192614,0.027022,-46.165962,-0.248192,-1.492843,0.919847,-0.392056,0.003115,-0.012833,-0.000861,-0.000665,-0.002247
4261,-0.001180,-0.001345,-0.020670,-0.079165,0.201803,0.027056,-46.163765,-0.238253,-1.496981,0.919854,-0.392037,0.003209,-0.012833,-0.000909,-0.000542,-0.002439
4262,0.001935,-0.007088,-0.016543,-0.092895,0.204841,0.028568,-46.166283,-0.234825,-1.501229,0.919846,-0.392057,0.003251,-0.012855,-0.000718,-0.000606,-0.002715
4263,0.002109,-0.008914,-0.015895,-0.050213,0.204810,0.008699,-46.172989,-0.234134,-1.505706,0.919822,-0.392110,0.003273,-0.012888,-0.000497,-0.000811,-0.002842
4264,0.008659,-0.007019,-0.018669,0.027562,0.209328,-0.000519,-46.178047,-0.237811,-1.510572,0.919804,-0.392151,0.003261,-0.012940,-0.000184,-0.000975,-0.002987
4265,0.010163,-0.007247,-0.011495,0.030577,0.207708,0.005487,-46.180729,-0.246516,-1.515514,0.919794,-0.392173,0.003208,-0.013009,0.000231,-0.001073,-0.003016
4266,0.005231,0.008894,-0.013848,0.051991,0.203046,0.008451,-46.174252,-0.253865,-1.520314,0.919815,-0.392122,0.003165,-0.013073,0.000497,-0.000832,-0.002941
4267,0.000048,0.008440,-0.020049,-0.013480,0.203001,0.031292,-46.159210,-0.255284,-1.524802,0.919866,-0.392001,0.003167,-0.013114,0.000507,-0.000321,-0.003054
4268,-0.001365,0.004962,-0.013974,-0.088121,0.199932,0.052636,-46.147865,-0.252126,-1.528735,0.919904,-0.391910,0.003204,-0.013135,0.000382,0.000011,-0.003147
4269,-0.002587,0.011242,-0.015040,-0.152068,0.190773,0.069417,-46.137833,-0.246727,-1.532084,0.919939,-0.391829,0.003258,-0.013144,0.000283,0.000416,-0.003872
4270,-0.006230,0.002211,-0.022097,-0.208406,0.189262,0.086217,-46.131638,-0.238254,-1.534906,0.919960,-0.391778,0.003335,-0.013138,0.000063,0.000753,-0.004801
4271,-0.001097,-0.004207,-0.016104,-0.183955,0.192325,0.081650,-46.134602,-0.230333,-1.537568,0.919950,-0.391801,0.003408,-0.013132,-0.000121,0.000703,-0.005756
4272,0.005115,-0.006495,-0.010049,-0.127512,0.187714,0.063305,-46.141415,-0.228958,-1.540454,0.919927,-0.391855,0.003430,-0.013150,-0.000020,0.000435,-0.006410
4273,0.002503,-0.008273,-0.014541,-0.132130,0.193767,0.061726,-46.149757,-0.230402,-1.543578,0.919898,-0.391922,0.003430,-0.013180,0.000170,0.000066,-0.007024
4274,0.001276,-0.004300,-0.009471,-0.094012,0.207461,0.041850,-46.156521,-0.230056,-1.547192,0.919874,-0.391976,0.003446,-0.013208,0.000265,-0.000248,-0.007625
4275,0.006591,-0.004461,-0.005190,-0.069603,0.210461,0.029588,-46.159897,-0.231883,-1.551388,0.919862,-0.392004,0.003446,-0.013248,0.000265,-0.000248,-0.007625
4276,0.003083,-0.006073,-0.004678,-0.153543,0.208875,0.040206,-46.164982,-0.234901,-1.555617,0.919844,-0.392045,0.003437,-0.013292,0.000506,-0.000512,-0.007871
4277,0.006215,0.004248,-0.011259,-0.148937,0.214920,0.038619,-46.167019,-0.237531,-1.559814,0.919836,-0.392061,0.003430,-0.013334,0.000739,-0.000557,-0.008270
4278,0.011439,-0.001469,-0.001505,-0.162611,0.211780,0.049208,-46.166370,-0.244362,-1.563954,0.919837,-0.392057,0.003389,-0.013391,0.001180,-0.000488,-0.008589
4279,0.008701,-0.000671,-0.001512,-0.191569,0.216257,0.055206,-46.168842,-0.252737,-1.567909,0.919828,-0.392077,0.003336,-0.013451,0.001684,-0.000541,-0.008664
4280,0.008537,0.000531,-0.005021,-0.222048,0.220743,0.055111,-46.171665,-0.259494,-1.571908,0.919817,-0.392100,0.003296,-0.013506,0.002115,-0.000545,-0.008828
4281,0.009388,-0.011487,0.000694,-0.220540,0.225228,0.045859,-46.180798,-0.266643,-1.576095,0.919785,-0.392174,0.003254,-0.013564,0.002563,-0.000819,-0.008936
4282,0.003085,-0.011386,0.009968,-0.173324,0.223626,0.035099,-46.196053,-0.271321,-1.580517,0.919732,-0.392297,0.003233,-0.013615,0.002875,-0.001391,-0.008669
4283,0.003525,-0.007828,0.003613,-0.142878,0.218997,0.035046,-46.208595,-0.272819,-1.584996,0.919689,-0.392398,0.003238,-0.013656,0.003040,-0.001871,-0.008330
4284,0.003851,-0.014232,0.001188,-0.141437,0.211315,0.050251,-46.221821,-0.274441,-1.589148,0.919643,-0.392504,0.003241,-0.013694,0.003224,-0.002422,-0.008210
4285,0.001424,-0.000864,0.001241,-0.074344,0.217373,0.048679,-46.230206,-0.274696,-1.593142,0.919613,-0.392571,0.003253,-0.013727,0.003356,-0.002800,-0.008149
4286,0.003637,-0.000299,-0.001598,-0.011749,0.220384,0.047110,-46.228371,-0.274434,-1.597322,0.919619,-0.392556,0.003269,-0.013760,0.003356,-0.002800,-0.008149
4287,-0.000760,0.000502,-0.004553,0.002035,0.223404,0.051654,-46.223495,-0.272826,-1.601547,0.919635,-0.392517,0.003296,-0.013788,0.003428,-0.002795,-0.008303
4288,0.001689,0.021896,-0.016614,0.049510,0.227960,0.021111,-46.205418,-0.269973,-1.606222,0.919697,-0.392371,0.003333,-0.013817,0.003451,-0.002235,-0.008832
4289,0.000910,0.016282,-0.018022,0.072669,0.226409,0.013454,-46.176384,-0.268122,-1.611418,0.919796,-0.392138,0.003362,-0.013853,0.003516,-0.001280,-0.009698
4290,0.002521,0.012491,-0.012167,0.024069,0.218749,0.025628,-46.151794,-0.266999,-1.616428,0.919880,-0.391940,0.003385,-0.013890,0.003516,-0.001280,-0.009698
4291,0.000954,0.015791,-0.013139,-0.021486,0.195829,0.033224,-46.129589,-0.266094,-1.620836,0.919955,-0.391762,0.003405,-0.013923,0.003516,-0.001280,-0.009698
4292,0.006372,0.008728,-0.014841,-0.100638,0.194257,0.042330,-46.111801,-0.267409,-1.624743,0.920015,-0.391619,0.003406,-0.013959,0.003516,-0.001280,-0.009698
4293,0.003971,-0.008470,-0.003623,-0.117359,0.197248,0.066681,-46.109055,-0.270444,-1.628217,0.920024,-0.391597,0.003393,-0.013998,0.003775,-0.001274,-0.010159
4294,0.000495,-0.010946,-0.002436,-0.129622,0.203308,0.057481,-46.118790,-0.270483,-1.631567,0.919990,-0.391675,0.003405,-0.014024,0.003886,-0.001759,-0.010311
4295,-0.001772,-0.018835,-0.000112,-0.074813,0.206339,0.048304,-46.134491,-0.267471,-1.635208,0.919936,-0.391801,0.003444,-0.014043,0.003886,-0.001759,-0.010375
4296,0.000160,-0.010845,-0.002067,-0.030688,0.217003,0.049813,-46.148918,-0.263929,-1.639102,0.919887,-0.391916,0.003487,-0.014062,0.003886,-0.001759,-0.010429
4297,0.001754,-0.010922,-0.000629,-0.049081,0.213922,0.066567,-46.158493,-0.261762,-1.642900,0.919854,-0.391993,0.003519,-0.014084,0.003934,-0.002304,-0.010496
4298,-0.000545,-0.009037,0.000864,-0.059832,0.215420,0.051280,-46.167210,-0.259317,-1.646668,0.919824,-0.392062,0.003552,-0.014106,0.003965,-0.002803,-0.010491
4299,0.002333,0.001423,-0.001963,-0.023212,0.206236,0.060406,-46.168785,-0.257143,-1.650447,0.919818,-0.392075,0.003583,-0.014129,0.003965,-0.002803,-0.010491
4300,0.002175,-0.001691,-0.000774,-0.073524,0.195518,0.063419,-46.166012,-0.256422,-1.653868,0.919827,-0.392052,0.003600,-0.014154,0.003965,-0.002803,-0.010491
4301,0.001890,-0.002879,0.000738,-0.100967,0.190903,0.057276,-46.166553,-0.255895,-1.657131,0.919825,-0.392056,0.003615,-0.014178,0.003965,-0.002803,-0.010491
4302,0.001398,-0.001990,-0.004363,-0.076534,0.190868,0.031300,-46.167622,-0.255458,-1.660707,0.919821,-0.392065,0.003631,-0.014205,0.003965,-0.002803,-0.010491
4303,0.000379,-0.006450,-0.008003,-0.116209,0.195416,0.049580,-46.170948,-0.254323,-1.664417,0.919809,-0.392091,0.003654,-0.014231,0.004009,-0.003014,-0.010800
4304,0.003642,-0.010529,-0.004522,-0.142199,0.203007,0.051067,-46.180176,-0.254043,-1.668024,0.919777,-0.392165,0.003669,-0.014259,0.004109,-0.003438,-0.011113
4305,0.006552,-0.000921,-0.009507,-0.120861,0.216680,0.054055,-46.187012,-0.256724,-1.671846,0.919753,-0.392220,0.003662,-0.014299,0.004364,-0.003724,-0.011464
4306,0.001637,-0.004104,-0.008572,-0.137635,0.236463,0.058576,-46.190140,-0.257989,-1.676001,0.919742,-0.392245,0.003666,-0.014336,0.004569,-0.003850,-0.011916
4307,0.002686,-0.003900,-0.005225,-0.114747,0.237948,0.058535,-46.194477,-0.256782,-1.680355,0.919726,-0.392280,0.003691,-0.014367,0.004677,-0.004050,-0.012261
4308,0.004918,-0.001666,-0.004230,-0.079639,0.237899,0.047802,-46.196518,-0.257184,-1.684857,0.919719,-0.392296,0.003704,-0.014404,0.004867,-0.004189,-0.012497
4309,0.005447,-0.000474,-0.007079,-0.050612,0.224105,0.021797,-46.195309,-0.259808,-1.689626,0.919722,-0.392287,0.003699,-0.014452,0.005126,-0.004243,-0.012780
4310,0.004283,-0.012684,-0.010146,-0.053686,0.228621,-0.004208,-46.199223,-0.263274,-1.694859,0.919708,-0.392318,0.003689,-0.014505,0.005370,-0.004572,-0.013210
4311,0.006460,-0.009587,-0.012400,-0.108695,0.227028,-0.002752,-46.209499,-0.267793,-1.700385,0.919672,-0.392401,0.003673,-0.014565,0.005638,-0.005128,-0.013774
4312,0.005288,-0.007871,-0.012566,-0.143848,0.231535,-0.004352,-46.219425,-0.272841,-1.705956,0.919637,-0.392481,0.003653,-0.014627,0.005932,-0.005565,-0.014398
4313,0.005725,-0.003622,-0.015427,-0.113356,0.213156,-0.012052,-46.226231,-0.277752,-1.711483,0.919612,-0.392536,0.003634,-0.014687,0.006207,-0.005852,-0.015098
4314,0.002269,0.002116,-0.012480,-0.142319,0.228359,0.010779,-46.227444,-0.280725,-1.716826,0.919607,-0.392546,0.003628,-0.014740,0.006407,-0.005890,-0.015795
4315,-0.000673,0.009955,-0.012070,-0.117797,0.214597,0.029059,-46.221088,-0.279331,-1.721749,0.919628,-0.392495,0.003655,-0.014775,0.006447,-0.005588,-0.016409
4316,-0.000371,0.013581,-0.012871,-0.019960,0.206953,0.019887,-46.205746,-0.276095,-1.726344,0.919681,-0.392371,0.003695,-0.014802,0.006447,-0.005588,-0.016409
4317,-0.002471,0.019681,-0.018139,0.019951,0.205421,0.036664,-46.181892,-0.271585,-1.730767,0.919762,-0.392179,0.003743,-0.014823,0.006447,-0.005588,-0.016409
4318,-0.004368,0.006778,-0.010969,-0.036299,0.211535,0.048880,-46.161243,-0.264491,-1.734893,0.919833,-0.392012,0.003812,-0.014832,0.006447,-0.005588,-0.016409
4319,-0.005184,-0.002552,-0.009493,-0.054525,0.203923,0.050425,-46.154152,-0.255905,-1.738781,0.919857,-0.391954,0.003893,-0.014834,0.006447,-0.005588,-0.016409
4320,-0.003524,-0.000559,-0.008840,-0.088060,0.210042,0.055017,-46.153133,-0.247684,-1.742555,0.919860,-0.391945,0.003972,-0.014836,0.006229,-0.005666,-0.016868
4321,-0.003638,-0.009491,-0.006015,-0.136900,0.214628,0.064182,-46.157848,-0.240113,-1.746280,0.919844,-0.391982,0.004046,-0.014840,0.006050,-0.005917,-0.017239
4322,-0.001494,-0.015303,-0.003604,-0.179721,0.219204,0.058078,-46.172585,-0.233765,-1.750044,0.919794,-0.392099,0.004112,-0.014848,0.005922,-0.006537,-0.017479
4323,-0.001137,-0.011081,-0.009375,-0.164575,0.219193,0.059593,-46.189541,-0.228888,-1.753911,0.919736,-0.392235,0.004166,-0.014862,0.005856,-0.007197,-0.017804
4324,0.002119,-0.012482,-0.007662,-0.150939,0.214590,0.053463,-46.204643,-0.226144,-1.757785,0.919684,-0.392355,0.004204,-0.014883,0.005881,-0.007786,-0.018230
4325,-0.000698,-0.010310,-0.011509,-0.117461,0.209984,0.041227,-46.218307,-0.224173,-1.761763,0.919637,-0.392465,0.004235,-0.014908,0.005916,-0.008355,-0.018709
4326,0.003602,-0.004955,-0.010862,-0.106829,0.203846,0.032037,-46.227013,-0.223358,-1.765878,0.919606,-0.392534,0.004257,-0.014938,0.005989,-0.008737,-0.019268
4327,0.001832,-0.010906,-0.007708,-0.143500,0.199224,0.027413,-46.236015,-0.224326,-1.770024,0.919575,-0.392606,0.004264,-0.014974,0.006125,-0.009134,-0.019733
4328,0.002786,-0.011085,-0.007261,-0.149686,0.208338,0.015162,-46.249111,-0.225287,-1.774406,0.919529,-0.392711,0.004273,-0.015012,0.006240,-0.009683,-0.020107
4329,0.003632,-0.007229,-0.008195,-0.088714,0.218969,0.010533,-46.259602,-0.227124,-1.779228,0.919493,-0.392796,0.004276,-0.015056,0.006400,-0.010141,-0.020493
4330,0.006418,-0.012375,-0.005448,-0.070472,0.220432,0.007416,-46.269051,-0.230951,-1.784284,0.919459,-0.392872,0.004264,-0.015110,0.006652,-0.010631,-0.020834
4331,0.001914,-0.005865,-0.011688,-0.001864,0.224952,-0.004853,-46.276131,-0.234152,-1.789594,0.919434,-0.392929,0.004258,-0.015163,0.006652,-0.010631,-0.021263
4333,0.000291,-0.005903,-0.007766,0.112560,0.211185,-0.023199,-46.276302,-0.234443,-1.795162,0.919433,-0.392930,0.004274,-0.015209,0.006707,-0.010926,-0.021749
4334,-0.002184,0.005953,-0.010913,0.205692,0.195908,-0.027795,-46.265858,-0.232751,-1.800674,0.919468,-0.392846,0.004306,-0.015248,0.006660,-0.010924,-0.022216
4335,-0.003503,0.008007,-0.009547,0.137161,0.177598,-0.018639,-46.246624,-0.228980,-1.805761,0.919533,-0.392691,0.004351,-0.015276,0.006660,-0.010924,-0.022216
4336,-0.005589,0.013421,-0.013725,0.080881,0.180666,-0.006417,-46.224922,-0.222981,-1.810435,0.919608,-0.392516,0.004412,-0.015294,0.006660,-0.010924,-0.022216
4337,-0.006975,0.003304,-0.014417,0.010845,0.174592,0.011925,-46.207836,-0.214636,-1.814706,0.919666,-0.392377,0.004491,-0.015300,0.006660,-0.010924,-0.022216
4338,-0.003117,0.007324,-0.017550,-0.040920,0.179191,0.039412,-46.196598,-0.206910,-1.818414,0.919705,-0.392286,0.004564,-0.015304,0.006660,-0.010924,-0.022216
4339,-0.001396,-0.001727,-0.015893,-0.132390,0.179191,0.054671,-46.191074,-0.201679,-1.821670,0.919723,-0.392241,0.004617,-0.015313,0.006547,-0.010784,-0.023052
4340,0.000305,0.001924,-0.020765,-0.114030,0.192909,0.043974,-46.190228,-0.198358,-1.825025,0.919726,-0.392234,0.004655,-0.015328,0.006519,-0.010779,-0.023969
4341,0.005643,-0.004164,-0.016112,-0.103316,0.197445,0.046982,-46.190453,-0.198881,-1.828682,0.919725,-0.392235,0.004663,-0.015359,0.006519,-0.010779,-0.024891
4342,0.008422,-0.005454,-0.012830,-0.045334,0.194317,0.037747,-46.193333,-0.204274,-1.832415,0.919714,-0.392259,0.004633,-0.015408,0.006519,-0.010779,-0.025614
4343,0.005032,-0.006017,-0.013244,0.015688,0.198819,0.025460,-46.195286,-0.210084,-1.836409,0.919706,-0.392275,0.004600,-0.015459,0.006519,-0.010779,-0.026266
4344,0.003543,-0.001080,-0.012206,0.124040,0.204863,0.013192,-46.191830,-0.213446,-1.840823,0.919717,-0.392248,0.004588,-0.015507,0.006734,-0.010957,-0.026902
