seq,ax,ay,az,wroll,wpitch,wyaw,roll,pitch,yaw,q0,q1,q2,q3
60,0.177568,-3.473113,8.886163,-10.906132,-2.451065,3.141451,-21.347799,-1.066235,0.416701,0.982655,-0.185176,-0.009817,0.001850
61,-0.197714,-7.405849,6.645282,-3.528966,-1.974090,2.763625,-24.018318,-0.848279,0.523176,0.978084,-0.208027,-0.008190,0.002925
62,-0.229108,-7.263363,6.466880,2.009007,-1.492866,2.671936,-29.044823,-0.425161,0.684488,0.968031,-0.250731,-0.005089,0.004852
63,-0.397380,-7.135208,6.429547,3.081102,-1.496202,3.642663,-33.866547,0.160586,0.811513,0.956617,-0.291260,-0.000722,0.007183
64,-0.381881,-7.215138,6.592813,1.301805,-1.861214,4.083859,-37.537052,0.754374,0.918122,0.946758,-0.321778,0.003655,0.009704
65,-0.341556,-7.149079,6.744862,1.712433,-1.845607,4.135409,-40.126118,1.177649,1.020989,0.939197,-0.343108,0.006596,0.011894
66,-0.301635,-6.967135,6.775047,0.648187,-2.511371,3.988038,-41.803890,1.425797,1.133496,0.934030,-0.356840,0.008094,0.013679
67,-0.138866,-6.921373,6.935269,-1.840358,-2.944644,3.057114,-42.846912,1.436004,1.256626,0.930727,-0.365335,0.007660,0.014784
68,-0.106398,-6.865548,7.042494,-3.575085,-3.277852,0.933950,-43.425060,1.262719,1.365187,0.928881,-0.370023,0.005830,0.015144
69,-0.115927,-6.804668,7.070737,-3.092318,-2.437563,-1.022781,-43.701187,1.069945,1.426516,0.928002,-0.372250,0.004033,0.015028
70,-0.114095,-6.789394,7.035910,-3.001138,-1.484212,-2.793200,-43.868713,0.892377,1.424763,0.927476,-0.373594,0.002579,0.014441
71,-0.063521,-6.780109,6.976314,-3.312723,-0.422497,-3.838781,-44.026531,0.712344,1.366554,0.926986,-0.374856,0.001293,0.013385
72,-0.140673,-6.762995,6.853287,-4.311131,0.853040,-4.656819,-44.234234,0.584485,1.259035,0.926327,-0.376525,0.000588,0.012099
73,-0.137296,-6.764040,6.827322,-5.196714,2.009824,-4.549883,-44.489738,0.542699,1.114843,0.925503,-0.378586,0.000700,0.010797
74,-0.135810,-6.778946,6.821840,-6.849706,1.845205,-3.904244,-44.764389,0.533230,0.968537,0.924606,-0.380802,0.001084,0.009587
75,-0.078114,-6.888373,6.792776,-9.303876,1.212020,-3.409779,-45.119205,0.500294,0.845311,0.923435,-0.383660,0.001202,0.008487
76,-0.087309,-7.120493,6.793391,-10.630837,0.946492,-3.057318,-45.615295,0.443336,0.742552,0.921775,-0.387651,0.001054,0.007473
77,-0.025871,-7.192531,6.707792,-9.655549,0.423008,-2.042687,-46.182243,0.373236,0.665287,0.919855,-0.392203,0.000719,0.006618
78,-0.002088,-7.147319,6.599184,-9.122716,-0.002945,-0.997669,-46.712669,0.284111,0.624204,0.918035,-0.396454,0.000117,0.005984
79,0.018969,-7.211631,6.581400,-8.905511,0.120399,-0.039666,-47.188576,0.206602,0.610511,0.916384,-0.400260,-0.000480,0.005604
80,-0.011409,-7.266104,6.597123,-6.855407,0.097329,0.919943,-47.580505,0.172990,0.617662,0.915011,-0.403391,-0.000793,0.005541
81,-0.000022,-7.275829,6.589881,-4.125938,-0.128613,1.582079,-47.835697,0.176090,0.646054,0.914109,-0.405427,-0.000881,0.005777
82,0.010545,-7.277894,6.548023,-2.137908,-0.661325,1.916075,-47.983685,0.167642,0.694898,0.913582,-0.406607,-0.001129,0.006135
83,0.042477,-7.354466,6.527934,-1.080848,-1.127023,1.583099,-48.108307,0.114898,0.755986,0.913138,-0.407597,-0.001773,0.006433
84,0.068089,-7.345348,6.547296,0.403475,-1.467717,0.897498,-48.189888,0.008753,0.815764,0.912847,-0.408240,-0.002837,0.006530
85,0.115457,-7.264237,6.566885,1.100906,-1.423996,-0.276532,-48.150402,-0.155177,0.858545,0.912989,-0.407914,-0.004293,0.006288
86,0.110459,-7.177137,6.587559,1.074107,-1.314652,-0.924111,-47.997448,-0.338090,0.878638,0.913533,-0.406682,-0.005814,0.005805
87,0.125363,-7.204955,6.681042,1.297914,-0.899992,-1.341131,-47.778919,-0.494379,0.879508,0.914306,-0.404927,-0.007053,0.005270
88,0.093941,-7.192647,6.814804,3.023591,-0.518701,-1.799135,-47.465191,-0.600528,0.859540,0.915411,-0.402416,-0.007816,0.004757
89,0.061541,-7.136376,6.811795,4.239804,-0.553699,-2.111865,-47.067802,-0.637885,0.825767,0.916802,-0.399238,-0.007981,0.004384
90,0.001737,-7.121741,6.804651,4.285319,-0.864583,-1.842885,-46.704281,-0.600561,0.796064,0.918066,-0.396333,-0.007565,0.004300
91,-0.020898,-7.123452,6.804847,4.162490,-1.083695,-1.218130,-46.428364,-0.502446,0.783861,0.919019,-0.394129,-0.006726,0.004558
92,-0.007579,-7.103325,6.783712,4.168931,-1.414236,0.001696,-46.230862,-0.397830,0.800004,0.919697,-0.392551,-0.005934,0.005058
93,0.016467,-7.036331,6.677107,4.203920,-1.847210,1.698934,-46.110336,-0.316168,0.859270,0.920107,-0.391586,-0.005475,0.005819
94,-0.012660,-7.015559,6.681591,4.444645,-2.245159,3.591416,-46.031586,-0.219277,0.970088,0.920369,-0.390955,-0.005071,0.007043
95,-0.065157,-7.033026,6.741292,5.504852,-3.030552,5.580174,-45.920780,-0.054554,1.139975,0.920731,-0.390071,-0.004319,0.008974
96,-0.011527,-6.981461,6.745880,6.678126,-4.089210,6.860774,-45.746124,0.096084,1.369917,0.921298,-0.388672,-0.003874,0.011340
98,-0.066862,-6.915308,6.923427,5.190827,-4.604777,6.897596,-45.464001,0.207310,1.634259,0.922217,-0.386405,-0.003842,0.013852
99,-0.075507,-6.867891,7.055953,3.715076,-4.763232,6.166932,-45.078991,0.313585,1.899486,0.923468,-0.383308,-0.003826,0.016358
100,-0.012576,-6.766241,7.175793,2.378839,-4.416858,5.208654,-44.626190,0.337813,2.143670,0.924936,-0.379651,-0.004375,0.018424
101,0.091942,-6.664495,7.227943,1.009505,-3.633070,3.557091,-44.136047,0.214083,2.343734,0.926529,-0.375663,-0.005953,0.019655
102,0.088668,-6.546865,7.300032,-0.504467,-2.562644,1.052308,-43.637844,0.005556,2.471496,0.928147,-0.371589,-0.007971,0.020039
103,0.134925,-6.520895,7.343227,-0.526028,-1.861455,-1.278480,-43.155773,-0.228580,2.518916,0.929708,-0.367635,-0.009938,0.019706
104,0.168964,-6.553934,7.436588,-0.349541,-1.293028,-3.552819,-42.727291,-0.501728,2.493617,0.931093,-0.364107,-0.012003,0.018669
105,0.171519,-6.675504,7.436677,1.065049,-0.896822,-5.205906,-42.437271,-0.756840,2.408457,0.932030,-0.361711,-0.013762,0.017201
106,0.211534,-6.689938,7.358990,2.690650,0.233544,-6.712317,-42.286980,-0.981451,2.268066,0.932524,-0.360463,-0.015125,0.015370
107,0.201936,-6.785129,7.370003,3.905195,1.583753,-6.649967,-42.189636,-1.164332,2.083002,0.932850,-0.359662,-0.016020,0.013301
108,0.288287,-6.752081,7.197247,5.999462,2.886566,-5.415768,-42.165245,-1.318730,1.886714,0.932943,-0.359464,-0.016658,0.011222
109,0.283540,-6.570907,6.985979,6.545895,4.535635,-4.398349,-42.191925,-1.440062,1.687647,0.932871,-0.359691,-0.017023,0.009216
110,0.228229,-6.432590,6.995378,3.712853,6.648865,-2.982420,-42.177402,-1.422657,1.475075,0.932933,-0.359606,-0.016213,0.007542
111,0.134589,-6.378058,7.129599,0.454979,8.696908,-1.193807,-42.106915,-1.220102,1.251946,0.933179,-0.359088,-0.013860,0.006371
112,0.145724,-6.291423,7.359155,1.571400,10.655046,-1.513940,-41.898708,-0.925391,0.999019,0.933856,-0.357452,-0.010658,0.005254
113,0.022870,-6.230588,7.458850,8.894593,12.340116,-2.860973,-41.404770,-0.586959,0.684714,0.935411,-0.353474,-0.006904,0.003779
114,-0.202551,-6.396074,7.629393,17.493383,13.311573,-3.595644,-40.660503,-0.112522,0.320931,0.937702,-0.347427,-0.001894,0.002285
115,-0.252699,-6.422960,7.565403,24.408230,13.238060,-4.561995,-39.809467,0.428245,-0.065926,0.940254,-0.340453,0.003710,0.000731
116,-0.264302,-6.412555,7.621442,29.431608,13.199402,-5.581979,-38.911373,0.894582,-0.472286,0.942873,-0.333034,0.008734,-0.001286
117,-0.376335,-6.376747,7.419774,30.427023,12.329038,-3.327438,-38.098789,1.345059,-0.852736,0.945175,-0.326269,0.013523,-0.003203
118,-0.464837,-6.263115,7.333552,24.070990,11.173478,-0.450255,-37.562794,1.854128,-1.147732,0.946635,-0.321747,0.018542,-0.004272
119,-0.320334,-6.014310,7.335473,15.633585,10.002191,2.446369,-37.273945,2.285525,-1.344777,0.947383,-0.319263,0.022646,-0.004745
120,-0.359986,-5.812952,7.600353,11.816288,9.394872,4.816091,-36.988796,2.611973,-1.449048,0.948124,-0.316831,0.025623,-0.004760
121,-0.490056,-5.662026,7.670907,10.047949,6.712368,7.944305,-36.587128,2.971869,-1.437610,0.949169,-0.313447,0.028555,-0.003768
122,-0.413249,-5.626794,7.774283,9.168229,4.153231,8.075463,-36.131683,3.245960,-1.323324,0.950357,-0.309654,0.030504,-0.002192
123,-0.410640,-5.568239,7.836855,8.331446,2.550277,5.290175,-35.666840,3.314720,-1.199977,0.951593,-0.305817,0.030737,-0.001107
124,-0.488372,-5.587947,7.911648,7.412018,1.849249,1.882377,-35.277367,3.312935,-1.139055,0.952628,-0.302598,0.030557,-0.000710
125,-0.355364,-5.600892,7.826005,6.026486,0.984748,-1.473719,-35.053265,3.178163,-1.161269,0.953246,-0.300750,0.029493,-0.001309
126,-0.181383,-5.671422,7.697617,4.426446,1.610425,-6.151782,-35.038757,2.817902,-1.299282,0.953350,-0.300652,0.026858,-0.003408
127,-0.335774,-5.525656,7.610244,2.438556,3.390043,-9.816400,-35.135670,2.482550,-1.575415,0.953136,-0.301451,0.024799,-0.006565
128,-0.315147,-5.525036,7.643153,1.828878,4.482079,-9.246120,-35.224918,2.289398,-1.917542,0.952902,-0.302156,0.024100,-0.009902
129,-0.199713,-5.569890,7.603296,3.610297,4.795768,-7.964845,-35.297863,2.106254,-2.247343,0.952697,-0.302731,0.023456,-0.013113
130,-0.356943,-5.633184,7.467436,5.702502,4.687051,-6.773427,-35.392117,2.005995,-2.548206,0.952419,-0.303475,0.023430,-0.015861
131,-0.584281,-5.692611,7.411755,7.676646,4.274239,-4.191139,-35.515800,2.166201,-2.796061,0.952041,-0.304411,0.025436,-0.017468
132,-0.447142,-6.022321,7.504304,9.356527,3.001071,-1.030396,-35.800980,2.409593,-2.959044,0.951231,-0.306678,0.027936,-0.018104
133,-0.481974,-6.344397,7.577086,12.261568,1.849593,1.127447,-36.301861,2.578954,-3.040870,0.949850,-0.310765,0.029640,-0.018199
134,-0.603690,-6.316981,7.552641,15.255463,0.325895,3.003079,-36.639275,2.775792,-3.042314,0.948907,-0.313505,0.031327,-0.017583
135,-0.591153,-6.443930,7.470500,16.743958,-0.871206,4.355377,-36.777859,2.981195,-2.970551,0.948510,-0.314613,0.032850,-0.016385
136,-0.369541,-6.532000,7.536062,17.998718,-1.093943,3.315997,-36.916519,3.014865,-2.884944,0.948136,-0.315776,0.032913,-0.015544
137,-0.504983,-6.290578,7.428566,19.353064,-1.022465,1.414271,-36.944038,2.955989,-2.834710,0.948075,-0.316034,0.032291,-0.015283
138,-0.612012,-6.082705,7.491210,18.245567,-1.695059,-0.593770,-36.794010,2.983526,-2.821467,0.948486,-0.314789,0.032463,-0.015140
139,-0.654431,-6.217938,7.643192,16.421387,-2.521443,-1.772954,-36.606152,3.034370,-2.830958,0.948992,-0.313217,0.032884,-0.015132
140,-0.594596,-6.087568,7.869192,15.073800,-3.404417,-2.656177,-36.383236,3.016587,-2.846929,0.949600,-0.311370,0.032751,-0.015377
141,-0.710804,-5.762971,8.007073,13.739902,-4.520788,-2.097256,-35.944248,2.993695,-2.834485,0.950791,-0.307740,0.032469,-0.015461
142,-0.640785,-5.708988,8.165233,12.249882,-5.627912,-0.946145,-35.366142,2.983406,-2.768177,0.952341,-0.302961,0.032129,-0.015100
143,-0.525872,-5.658120,8.185636,11.661718,-5.179020,-1.048132,-34.815308,2.880652,-2.682980,0.953814,-0.298430,0.030980,-0.014814
144,-0.449942,-5.429741,8.233958,12.032053,-3.502152,-0.962700,-34.231758,2.722604,-2.618996,0.955352,-0.293626,0.029423,-0.014845
145,-0.473399,-4.969522,8.288856,13.310071,-2.591313,-0.425533,-33.396622,2.609209,-2.562193,0.957490,-0.286698,0.028224,-0.014869
146,-0.302522,-4.984674,8.453705,14.739882,-2.245323,0.514349,-32.388557,2.475918,-2.492788,0.960001,-0.278313,0.026808,-0.014860
147,-0.273722,-4.753188,8.560092,17.817724,-1.531982,0.127941,-31.300390,2.278061,-2.428783,0.962634,-0.269244,0.024853,-0.015042
148,-0.236272,-4.528767,8.748955,20.256735,-2.591806,1.734402,-30.027020,2.079438,-2.343955,0.965600,-0.258592,0.022820,-0.015052
149,-0.127757,-4.382867,8.813485,22.415094,-3.987534,1.856032,-28.654852,1.817663,-2.217114,0.968670,-0.247088,0.020152,-0.014818
150,0.173522,-4.689658,8.855095,23.096296,-3.884092,0.454292,-27.514799,1.357592,-2.113967,0.971130,-0.237542,0.015892,-0.015099
151,-0.030609,-4.501774,8.903974,23.246557,-3.324317,-1.687509,-26.615755,0.892147,-2.080554,0.972990,-0.230001,0.011754,-0.015875
152,-0.150726,-4.573453,9.070183,21.627827,-3.356909,-1.085045,-25.819660,0.664662,-2.074462,0.974570,-0.223275,0.009697,-0.016349
153,-0.130563,-4.808303,9.099896,19.971111,-2.436761,-1.376505,-25.316549,0.561706,-2.072356,0.975543,-0.219011,0.008745,-0.016570
154,-0.228286,-4.789852,9.228223,17.278831,-1.787889,-1.956213,-25.058632,0.540766,-2.096292,0.976030,-0.216816,0.008574,-0.016833
155,-0.459247,-4.640389,9.467822,14.342896,-1.685972,-2.758301,-24.809017,0.686954,-2.145104,0.976491,-0.214661,0.009875,-0.016994
156,-0.444782,-4.585478,9.492178,12.411587,-2.245840,-4.022527,-24.541372,0.902387,-2.220928,0.976973,-0.212335,0.011812,-0.017263
157,-0.378860,-4.504760,9.420161,10.973170,-2.568011,-6.994436,-24.327919,1.007511,-2.356150,0.977342,-0.210481,0.012925,-0.018245
158,-0.326503,-4.078107,9.274549,11.827477,-2.394663,-11.695397,-23.989210,0.980724,-2.606078,0.977919,-0.207568,0.013095,-0.020465
159,-0.413107,-3.936414,8.965245,13.092909,-1.424666,-16.022451,-23.503794,0.935397,-3.000659,0.978714,-0.203388,0.013322,-0.023971
160,-0.529660,-3.860772,8.780754,13.102090,0.072416,-16.613773,-23.070940,1.019694,-3.489138,0.979362,-0.199609,0.014802,-0.028049
161,-0.495275,-3.817228,8.755369,11.316401,0.451239,-13.127741,-22.735619,1.199813,-3.947949,0.979818,-0.196625,0.017048,-0.031705
162,-0.231234,-3.503917,8.818716,9.975402,0.501052,-9.071405,-22.337397,1.260282,-4.293034,0.980393,-0.193147,0.018036,-0.034615
163,-0.153889,-3.326119,9.004917,10.302332,1.128072,-3.970247,-21.669626,1.181633,-4.497281,0.981441,-0.187426,0.017495,-0.036598
164,-0.075857,-3.187592,9.198813,11.576508,0.703175,0.282301,-20.767187,1.062646,-4.555639,0.982870,-0.179725,0.016277,-0.037422
165,0.053076,-3.257240,9.323746,15.509750,-0.298945,1.987908,-19.884819,0.876765,-4.516757,0.984240,-0.172222,0.014334,-0.037493
166,0.297742,-2.947520,9.020543,19.498642,0.613178,-1.134807,-19.012638,0.532837,-4.504550,0.985525,-0.164847,0.011073,-0.037992
167,0.232905,-3.102381,8.936340,19.443010,2.323086,-2.925476,-18.219368,0.153604,-4.588060,0.986603,-0.158145,0.007660,-0.039311
168,0.050588,-3.182705,9.067459,14.541110,1.702426,-4.874472,-17.762987,-0.032713,-4.735984,0.987164,-0.154271,0.006097,-0.040866
169,0.027023,-3.199821,9.064059,8.519654,0.859819,-4.348126,-17.672823,-0.093772,-4.895993,0.987224,-0.153508,0.005753,-0.042331
170,-0.366051,-3.080193,9.003868,1.611589,-0.381273,-2.975996,-17.806093,0.062421,-5.014594,0.987009,-0.154591,0.007308,-0.043135
171,-0.721517,-3.309982,9.391395,-4.426379,-2.668652,2.603760,-18.099506,0.569881,-5.006601,0.986632,-0.156926,0.011776,-0.042351
172,-0.508212,-3.379985,9.500989,-7.675092,-5.857843,7.470912,-18.568611,1.047045,-4.808168,0.986052,-0.160807,0.015777,-0.039923
173,-0.342987,-3.339183,9.542572,-9.290620,-8.540417,8.928659,-19.037634,1.188718,-4.477733,0.985493,-0.164837,0.016683,-0.036812
174,-0.204027,-3.311061,9.691680,-9.235957,-9.885880,9.780256,-19.386278,1.075417,-4.084159,0.985111,-0.167927,0.015244,-0.033544
175,0.114815,-3.290772,9.826596,-7.428739,-8.888758,9.692996,-19.566097,0.734699,-3.671983,0.984967,-0.169625,0.011759,-0.030483
176,0.793175,-3.103230,9.962826,-4.053353,-6.786184,4.859278,-19.481924,-0.024211,-3.352331,0.985160,-0.169128,0.004741,-0.028864
177,-0.082313,-2.877225,9.619249,-0.612901,-4.487250,-3.813309,-19.115789,-0.596807,-3.273777,0.985678,-0.166121,-0.000391,-0.029033
178,0.048986,-3.292852,9.352074,-0.376634,0.548684,-4.971353,-18.908381,-0.636169,-3.391299,0.985943,-0.164347,-0.000613,-0.030099
179,-0.111078,-3.285880,9.287576,-2.562187,3.438014,-6.078911,-19.030399,-0.493751,-3.586316,0.985727,-0.165360,0.000925,-0.031573
180,0.029183,-3.410771,9.335840,-7.732830,3.211409,-6.760732,-19.341587,-0.318790,-3.824098,0.985221,-0.167984,0.002864,-0.033358
181,-0.350551,-3.713802,9.041295,-14.526736,2.793047,-4.164675,-20.063976,-0.050083,-4.028885,0.984099,-0.174105,0.005693,-0.034690
182,0.260302,-3.740606,9.402983,-21.117989,2.619540,-0.001794,-21.062000,0.092565,-4.127075,0.982524,-0.182620,0.007375,-0.035254
183,0.112517,-3.359615,9.282887,-22.789110,0.308271,1.162111,-21.834110,-0.044981,-4.124521,0.981264,-0.189279,0.006430,-0.035409
184,0.300435,-3.325579,9.140891,-22.664005,-0.616061,2.394604,-22.328686,-0.243610,-4.065839,0.980442,-0.193576,0.004784,-0.035214
185,0.413533,-3.121898,8.744208,-19.405422,-0.923110,4.711720,-22.635365,-0.574714,-3.945719,0.979927,-0.196299,0.001841,-0.034740
186,0.360086,-3.059063,8.671272,-14.475270,-1.355250,5.077163,-22.687912,-0.894804,-3.783329,0.979849,-0.196838,-0.001159,-0.033899
187,0.390098,-3.233982,8.605226,-9.353147,-1.840435,6.805390,-22.625870,-1.148110,-3.585869,0.979980,-0.196369,-0.003682,-0.032643
188,0.457457,-3.350877,8.783256,-4.968774,-2.272197,7.874421,-22.534927,-1.395116,-3.339848,0.980167,-0.195640,-0.006241,-0.030955
189,0.423937,-3.580907,8.985869,-1.042686,-2.444530,7.664741,-22.395676,-1.642171,-3.076334,0.980434,-0.194485,-0.008840,-0.029111
190,0.204728,-3.790476,9.193742,1.840318,-2.185519,6.662030,-22.296696,-1.698783,-2.828697,0.980653,-0.193629,-0.009768,-0.027079
191,0.252071,-3.869550,9.359150,3.466865,-2.505554,6.563015,-22.230507,-1.609708,-2.594463,0.980832,-0.193027,-0.009416,-0.024919
192,0.207027,-3.920991,9.332064,4.827627,-3.136961,6.331220,-22.162298,-1.553402,-2.357981,0.981005,-0.192414,-0.009346,-0.022795
193,0.012709,-3.902257,9.279208,5.069646,-3.143708,5.252767,-22.108545,-1.409718,-2.136600,0.981157,-0.191916,-0.008497,-0.020655
194,0.079218,-3.982430,9.079724,4.895845,-3.751292,5.578339,-22.187391,-1.207537,-1.920041,0.981088,-0.192550,-0.007116,-0.018468
195,-0.050281,-3.895694,9.071750,4.764390,-4.251824,5.821616,-22.337200,-0.972996,-1.687176,0.980896,-0.193791,-0.005478,-0.016088
196,-0.015212,-3.784101,8.988979,5.494278,-4.276192,4.456577,-22.349634,-0.740586,-1.471509,0.980923,-0.193865,-0.003851,-0.013850
197,-0.009580,-3.733135,8.971972,6.162145,-3.391537,4.220538,-22.243202,-0.587114,-1.287615,0.981134,-0.192934,-0.002860,-0.012013
198,0.169786,-3.736043,9.032231,6.317475,-2.547463,3.787277,-22.091755,-0.583079,-1.125754,0.981404,-0.191632,-0.003112,-0.010617
199,0.000619,-3.614342,9.141910,6.944825,-1.126719,0.736993,-21.837753,-0.591681,-1.033253,0.981835,-0.189454,-0.003362,-0.009831
201,0.194523,-3.644621,9.107902,6.850583,0.419065,-2.124110,-21.543634,-0.607182,-1.050853,0.982315,-0.186935,-0.003491,-0.009999
202,0.075028,-3.688049,9.098966,6.316181,1.584639,-3.125207,-21.380545,-0.651932,-1.144115,0.982569,-0.185543,-0.003738,-0.010866
203,0.090750,-3.677010,9.103563,5.524996,1.761824,-4.487780,-21.314018,-0.612196,-1.281123,0.982665,-0.184974,-0.003182,-0.011975
204,0.005659,-3.746599,9.120980,4.815879,1.185455,-5.039983,-21.330261,-0.542354,-1.444832,0.982626,-0.185110,-0.002317,-0.013266
205,0.117041,-3.604977,9.147856,4.117735,0.633340,-3.893899,-21.319462,-0.517021,-1.593130,0.982627,-0.185018,-0.001862,-0.014497
206,0.085093,-3.584106,9.242184,3.348631,0.004588,-2.168104,-21.200449,-0.557042,-1.691083,0.982803,-0.184004,-0.002063,-0.015399
207,0.174333,-3.541233,9.203816,2.564491,-0.396997,-0.433233,-21.068947,-0.628977,-1.729539,0.983003,-0.182885,-0.002636,-0.015841
208,0.191032,-3.514572,9.310943,1.405152,-1.032357,-0.199993,-20.939177,-0.763064,-1.731739,0.983199,-0.181788,-0.003801,-0.016070
209,0.262265,-3.429841,9.232265,1.225724,-1.379506,1.357675,-20.785227,-0.937599,-1.701073,0.983432,-0.180486,-0.005369,-0.016076
210,0.238224,-3.617641,9.135745,0.242856,-1.813626,1.906723,-20.792179,-1.109617,-1.630840,0.983413,-0.180561,-0.006955,-0.015744
211,0.269444,-3.424798,9.031868,-0.769361,-1.980541,1.860731,-20.894979,-1.255927,-1.547900,0.983246,-0.181452,-0.008328,-0.015270
212,0.151774,-3.504375,9.159821,-2.159488,-2.111845,1.921740,-20.947414,-1.311026,-1.464539,0.983167,-0.181901,-0.008926,-0.014646
213,-0.026345,-3.444542,9.047394,-2.342557,-1.585783,1.031037,-21.016447,-1.136724,-1.396821,0.983085,-0.182473,-0.007530,-0.013793
214,0.031491,-3.337299,9.114711,-3.770300,-1.213622,0.833177,-21.027569,-0.914823,-1.353109,0.983094,-0.182546,-0.005694,-0.013066
215,-0.078618,-3.128864,9.216823,-4.592709,-1.243045,1.048724,-20.889112,-0.738196,-1.313654,0.983332,-0.181341,-0.004257,-0.012441
216,-0.124775,-3.313936,9.104712,-4.035690,-1.888697,0.698249,-20.756527,-0.527046,-1.271426,0.983560,-0.180183,-0.002525,-0.011742
217,-0.034744,-3.241844,8.980614,-5.841488,-2.212682,0.304945,-20.764292,-0.391534,-1.233108,0.983558,-0.180237,-0.001421,-0.011200
218,0.116829,-3.301924,9.080026,-8.103592,-2.197217,0.822303,-20.849289,-0.415572,-1.190691,0.983427,-0.180968,-0.001686,-0.010875
219,-0.105269,-3.392390,8.964140,-11.026814,-2.144987,-0.154159,-21.089550,-0.414104,-1.155061,0.983049,-0.183029,-0.001708,-0.010571
220,0.290125,-3.582119,8.724847,-13.459693,-1.302818,-0.418197,-21.594904,-0.497577,-1.142480,0.982229,-0.187369,-0.002397,-0.010607
221,0.256001,-3.538746,8.729548,-18.303831,-0.092358,-2.066628,-22.272961,-0.745167,-1.169166,0.981085,-0.193198,-0.004409,-0.011266
222,0.303210,-3.839334,8.111844,-21.368126,-0.697675,-0.707428,-23.241959,-0.971893,-1.200003,0.979395,-0.201505,-0.006198,-0.011965
223,0.634038,-3.939830,7.489300,-27.596146,-1.908304,-3.700595,-24.716816,-1.435435,-1.232288,0.976666,-0.214129,-0.009934,-0.013184
224,0.511486,-3.853913,7.038848,-34.117603,-1.428676,-3.094313,-26.483747,-2.017271,-1.281097,0.973155,-0.229204,-0.014574,-0.014912
225,0.388252,-4.177554,6.656338,-41.550598,-2.344143,-3.126869,-28.581711,-2.385386,-1.306175,0.968724,-0.247005,-0.017356,-0.016181
226,0.371538,-4.404067,6.444118,-47.693550,-2.179967,-1.315669,-31.062481,-2.588565,-1.288437,0.963110,-0.267923,-0.018752,-0.016878
227,0.438984,-4.258720,6.795905,-52.614979,-0.254706,-3.867118,-33.323135,-2.746054,-1.311428,0.957599,-0.286880,-0.019674,-0.017830
228,-0.067513,-4.677126,7.287053,-55.639557,2.511368,-0.845042,-35.156033,-2.526718,-1.398437,0.952923,-0.302165,-0.017332,-0.018289
229,0.105935,-5.074278,7.422714,-54.672932,3.485491,-1.988103,-36.864876,-2.032988,-1.513442,0.948391,-0.316331,-0.012653,-0.018136
230,0.310416,-5.435410,7.480529,-54.989494,4.865746,-0.632543,-38.542427,-1.778266,-1.647049,0.943682,-0.330177,-0.009904,-0.018687
231,0.387307,-6.035324,7.525620,-54.043079,5.105165,-1.539082,-40.295898,-1.709070,-1.783337,0.938508,-0.344583,-0.008640,-0.019744
232,0.197250,-6.503581,7.369141,-51.611416,3.634169,0.800196,-42.168755,-1.604213,-1.884302,0.932751,-0.359873,-0.007145,-0.020376
233,0.623239,-6.674199,6.997807,-47.144810,1.688031,1.490949,-44.041405,-1.646939,-1.909068,0.926734,-0.375073,-0.007076,-0.020830
234,0.536061,-6.996489,6.897441,-45.402096,0.919160,1.433307,-45.832066,-1.893057,-1.889415,0.920720,-0.389527,-0.008794,-0.021616
235,-0.160396,-6.937473,6.854180,-42.477333,0.135284,2.080811,-47.374218,-1.719438,-1.857178,0.915432,-0.401866,-0.007229,-0.020866
236,0.165057,-6.839138,6.439905,-40.601406,-1.058275,3.594270,-48.660786,-1.349394,-1.793048,0.910934,-0.412087,-0.004282,-0.019107
237,-0.118429,-6.893184,6.510201,-42.719578,-0.724675,2.630900,-49.817055,-1.047697,-1.713456,0.906784,-0.421230,-0.001994,-0.017411
238,-0.523685,-7.065393,6.253931,-44.317074,-0.782116,3.922670,-50.975201,-0.429965,-1.639312,0.902557,-0.430317,0.002769,-0.014527
239,-0.214114,-7.507276,6.293355,-45.861698,-2.913456,5.849117,-52.279087,0.175484,-1.505231,0.897654,-0.440502,0.007161,-0.011117
240,0.236549,-7.853894,6.322343,-42.483795,-3.221627,4.097405,-53.570610,0.259870,-1.328967,0.892651,-0.450594,0.007251,-0.009331
241,-0.134801,-7.880940,6.450511,-38.755493,-2.739757,2.085841,-54.575722,0.195764,-1.184545,0.888674,-0.458420,0.006257,-0.008403
242,0.007011,-8.521221,6.317927,-33.342560,-3.041818,3.415033,-55.426758,0.238814,-1.051881,0.885255,-0.465011,0.006114,-0.007157
243,0.327481,-8.467187,6.379770,-26.812876,-3.062298,0.995523,-56.118217,0.046276,-0.923911,0.882436,-0.470364,0.004149,-0.006925
244,-0.093488,-8.570326,6.293684,-19.357843,-0.601427,-0.668369,-56.465153,-0.118724,-0.867263,0.881005,-0.473045,0.002667,-0.007158
245,0.042297,-8.546407,6.297538,-16.809971,0.456139,-0.964255,-56.607784,-0.112278,-0.880636,0.880415,-0.474140,0.002781,-0.007231
246,-0.040330,-9.030317,6.189318,-14.155970,0.941445,-0.254613,-56.784039,-0.097760,-0.911982,0.879683,-0.475492,0.003034,-0.007407
247,0.196278,-8.691019,6.080149,-9.808737,2.181849,-2.739088,-56.938828,-0.167018,-0.983265,0.879033,-0.476682,0.002809,-0.008238
248,-0.089761,-8.976505,6.163833,-7.080321,3.335363,-2.055610,-56.942123,-0.212036,-1.104452,0.879007,-0.476708,0.002968,-0.009354
249,0.265804,-8.785700,6.013307,-5.212742,2.822498,-1.898685,-56.906353,-0.261891,-1.227232,0.879142,-0.476433,0.003093,-0.010505
250,0.029652,-8.874977,5.838598,-3.191629,2.854240,-2.288265,-56.907700,-0.366343,-1.345174,0.879118,-0.476448,0.002782,-0.011844
251,0.154639,-8.583265,5.855369,-0.674650,3.318021,-2.567673,-56.844006,-0.411578,-1.476321,0.879365,-0.475960,0.002973,-0.013039
252,0.268401,-8.822571,5.874139,-0.418967,3.372541,-1.548997,-56.711620,-0.541277,-1.608402,0.879887,-0.474952,0.002510,-0.014595
253,0.694296,-9.501727,5.628467,-2.708925,3.722373,-0.922022,-56.949631,-0.869314,-1.727468,0.878847,-0.476805,0.000519,-0.016867
254,0.428409,-9.385698,6.433751,-15.057343,5.021270,-1.242755,-57.353626,-1.200654,-1.866404,0.877094,-0.479928,-0.001376,-0.019315
255,0.438226,-9.723000,6.842255,-34.704754,3.496304,4.336612,-57.842945,-1.273291,-1.963348,0.875009,-0.483676,-0.001439,-0.020368
256,0.863432,-10.237862,7.692157,-56.419636,0.820489,8.384895,-58.729961,-1.361627,-1.923535,0.871232,-0.490441,-0.002124,-0.020453
257,0.286983,-10.545649,7.675547,-69.089203,-1.884021,9.277976,-59.992649,-1.335872,-1.771842,0.865805,-0.500007,-0.002365,-0.019217
258,-0.034076,-10.462922,7.244998,-73.535606,-5.402313,12.908782,-61.547104,-0.934760,-1.505621,0.859039,-0.511677,-0.000286,-0.015462
259,0.271288,-11.504199,6.497176,-60.408287,-8.986342,17.389402,-63.286594,-0.490548,-1.074636,0.851264,-0.524636,0.001276,-0.010229
260,-0.095166,-11.479911,6.139809,-28.283283,-9.413443,15.361742,-64.554878,-0.077435,-0.562899,0.845460,-0.534016,0.002052,-0.004514
261,-0.510884,-11.428800,4.270264,6.068114,-9.398972,18.172491,-65.230690,0.590326,-0.044456,0.842298,-0.538988,0.004548,0.002450
262,-0.076968,-11.210762,4.189542,31.445745,-5.391388,22.447618,-65.403648,1.299583,0.456717,0.841408,-0.540266,0.007390,0.009481
263,-0.413841,-10.888268,4.583830,59.573158,-4.362775,24.829792,-64.401604,1.985768,0.932751,0.845955,-0.532910,0.010326,0.016120
264,-0.595645,-9.864571,3.499648,86.314156,-2.714240,23.663305,-62.634258,2.829344,1.382426,0.853826,-0.519833,0.014821,0.023134
265,-0.269790,-9.406220,2.600723,91.810768,-0.157957,24.362051,-61.207611,3.522124,1.735932,0.859966,-0.509200,0.018739,0.028676
266,-0.371369,-7.819282,3.806710,98.914268,2.745685,17.041018,-59.294273,3.947676,1.969119,0.868152,-0.494805,0.021435,0.031960
267,-0.363678,-7.429633,3.464558,109.411438,1.513895,12.469661,-56.556980,4.187053,2.114926,0.879598,-0.473954,0.023428,0.033546
268,-0.377782,-6.414616,3.038008,106.955460,3.344762,5.194257,-54.152122,4.260914,2.120727,0.889322,-0.455393,0.024677,0.033384
269,-0.384583,-5.510468,3.679379,92.298454,3.622213,-2.358593,-51.730247,4.193217,1.983798,0.898810,-0.436467,0.025368,0.031524
270,-0.462433,-4.722642,4.290090,84.419510,2.955047,-10.347163,-48.640030,4.015852,1.770349,0.910368,-0.412024,0.025566,0.028497
271,-0.413997,-5.136480,3.954888,73.323074,1.912697,-10.007027,-46.014206,3.785937,1.481818,0.919710,-0.390992,0.025351,0.024805
272,-0.494207,-4.131349,4.608912,58.544678,1.479492,-14.775384,-43.806221,3.572217,1.150234,0.927202,-0.373128,0.025175,0.020935
273,-0.299190,-4.102014,5.860786,45.745548,1.373780,-19.961823,-40.965961,3.184852,0.762888,0.936329,-0.349960,0.023703,0.015958
274,-0.492968,-4.565685,7.073979,42.123783,1.717967,-19.241545,-38.053982,2.722659,0.308299,0.945074,-0.325981,0.021583,0.010288
275,-0.443331,-4.634579,7.731537,44.626251,1.025066,-21.369812,-35.306820,2.378729,-0.193203,0.952712,-0.303159,0.020291,0.004688
276,-0.643908,-4.457995,8.648125,41.534630,0.911051,-23.395523,-32.576935,2.120925,-0.767625,0.959711,-0.280300,0.019643,-0.001238
277,-0.656302,-5.018279,8.882257,36.796070,-0.412337,-21.819750,-30.324488,1.994205,-1.365913,0.965029,-0.261295,0.019912,-0.006952
278,-0.706228,-4.880853,8.645811,34.419140,-0.816718,-17.410345,-28.808681,1.970042,-1.902176,0.968359,-0.248416,0.020777,-0.011799
279,-0.565039,-4.481891,8.254604,26.686344,-0.741943,-15.495939,-27.703011,1.997453,-2.362262,0.970652,-0.238970,0.021854,-0.015839
280,-0.640035,-4.659487,8.361749,14.867496,-0.778628,-8.724645,-27.120142,2.077602,-2.708435,0.971794,-0.233944,0.023159,-0.018721
281,-0.522163,-4.816562,8.158797,11.219636,-1.494483,-7.349192,-27.118355,2.176026,-2.943686,0.971747,-0.233856,0.024474,-0.020515
282,-0.286791,-4.488082,7.952266,10.697950,-1.434609,-6.612104,-27.263134,2.087722,-3.147245,0.971422,-0.235063,0.024169,-0.022392
283,-0.318088,-4.647769,8.122099,7.256099,-1.105197,-5.797457,-27.392723,1.910205,-3.327356,0.971134,-0.236174,0.023061,-0.024258
284,-0.250484,-4.659240,8.381468,7.270511,-1.486946,-3.592727,-27.570168,1.739204,-3.460666,0.970751,-0.237699,0.021927,-0.025708
285,-0.297134,-4.621398,8.310642,6.130301,-1.558859,-3.997265,-27.676853,1.591811,-3.559618,0.970515,-0.238627,0.020909,-0.026833
286,-0.220285,-4.682941,8.286513,0.348446,-2.105213,-1.569610,-27.859266,1.475816,-3.621633,0.970125,-0.240195,0.020100,-0.027569
287,-0.493841,-4.837740,8.621607,-5.424219,-2.535010,0.260198,-28.226185,1.495108,-3.612322,0.969352,-0.243296,0.020331,-0.027385
288,-0.174804,-4.632044,8.402540,-8.278737,-3.128169,0.995887,-28.634682,1.503617,-3.554482,0.968492,-0.246758,0.020376,-0.026805
289,-0.543133,-5.126000,8.000196,-13.048050,-3.844746,2.625839,-29.393829,1.546653,-3.456727,0.966857,-0.253174,0.020700,-0.025749
290,-0.302317,-4.919676,7.802001,-16.728949,-3.901766,2.256992,-30.485193,1.659258,-3.340852,0.964421,-0.262360,0.021627,-0.024317
291,-0.139345,-4.762032,7.510926,-19.114805,-3.003145,0.451654,-31.493626,1.546124,-3.255184,0.962098,-0.270884,0.020688,-0.023674
292,-0.097284,-4.622899,7.013569,-22.525618,-2.095896,-1.775140,-32.518238,1.318647,-3.236106,0.959650,-0.279540,0.018948,-0.023885
293,-0.367598,-4.758558,6.586620,-27.893383,-2.419197,-2.249645,-33.815582,1.253270,-3.261292,0.956420,-0.290399,0.018735,-0.024045
294,0.433459,-4.562859,6.163877,-34.251862,-1.994753,-5.372650,-35.378433,0.839604,-3.333546,0.952355,-0.303514,0.015815,-0.025485
295,-0.097608,-4.572747,6.269344,-42.792652,-1.613636,-4.778849,-36.961994,0.289012,-3.427940,0.948025,-0.316776,0.011872,-0.027568
296,-0.027133,-4.818774,6.108036,-50.664391,-3.663033,-3.291140,-38.697754,0.118983,-3.478528,0.943094,-0.331137,0.011035,-0.028293
297,0.318889,-5.175681,6.522203,-58.851501,-1.974769,-3.876321,-40.613838,-0.239868,-3.507229,0.937383,-0.346946,0.008658,-0.029426
298,0.189216,-5.412142,6.902877,-63.205112,-0.466906,-4.104735,-42.403984,-0.647398,-3.570944,0.931780,-0.361640,0.006003,-0.031090
299,-0.055200,-5.955816,7.150596,-63.458900,0.090056,-2.771082,-44.065231,-0.730993,-3.650088,0.926405,-0.375125,0.006037,-0.031913
300,0.515417,-6.513975,7.224551,-56.269474,1.154708,-4.093022,-45.653496,-0.912217,-3.750132,0.921058,-0.387966,0.005360,-0.033243
301,0.415148,-6.585262,7.240371,-46.629040,5.218445,-6.439740,-46.893246,-1.299655,-3.948046,0.916672,-0.397991,0.003306,-0.036110
302,-0.168171,-6.835964,6.912968,-37.870495,4.263505,-3.595158,-47.808743,-1.247567,-4.184371,0.913399,-0.405281,0.004846,-0.037782
304,0.225800,-6.982155,6.611731,-33.297092,4.630504,-4.899051,-48.688107,-1.063029,-4.399251,0.910229,-0.412218,0.007375,-0.038788
305,-0.122550,-6.977102,6.486824,-33.223946,4.866078,-6.268712,-49.542858,-0.951327,-4.647575,0.907068,-0.418946,0.009457,-0.040290
306,-0.128526,-7.263022,6.423275,-37.435707,3.736534,-5.122957,-50.486713,-0.697597,-4.887835,0.903554,-0.426303,0.012683,-0.041162
307,-0.145554,-7.688830,6.322978,-41.781071,2.181140,-3.994061,-51.721886,-0.470333,-5.067080,0.898889,-0.435922,0.015591,-0.041566
308,-0.073164,-8.089192,6.103742,-44.604687,1.902653,-4.179281,-53.276131,-0.325750,-5.209020,0.892872,-0.448004,0.017835,-0.041891
309,-0.145358,-8.463324,6.072577,-44.222836,-0.399365,1.122587,-54.957630,-0.176776,-5.262928,0.886212,-0.460996,0.019817,-0.041443
310,0.296086,-8.853355,6.059082,-40.308174,-1.958931,5.091398,-56.516827,-0.138388,-5.173460,0.879897,-0.473014,0.020305,-0.040324
311,0.209361,-8.865401,5.682653,-33.579582,-2.745462,6.523251,-57.878048,-0.228927,-4.997726,0.874259,-0.483494,0.019350,-0.039121
312,-0.131103,-9.285948,5.723127,-28.393610,-4.019644,9.462155,-59.025005,-0.068305,-4.759530,0.869485,-0.492210,0.019936,-0.036429
313,0.332368,-9.386128,5.454374,-22.508760,-5.243627,11.195273,-59.985836,0.082506,-4.451531,0.865448,-0.499491,0.020038,-0.033277
314,0.220611,-9.491509,5.485971,-17.949696,-4.057199,7.647766,-60.730129,0.023060,-4.158129,0.862258,-0.505169,0.018513,-0.031200
315,-0.202767,-9.407660,5.485685,-12.878550,-1.841610,5.921864,-61.157013,0.156215,-3.960901,0.860442,-0.508374,0.018753,-0.029059
316,-0.242274,-9.620255,5.448349,-10.643766,-1.290232,5.069809,-61.403015,0.479209,-3.827523,0.859423,-0.510156,0.020644,-0.026580
317,-0.054212,-9.631651,5.333334,-7.838586,-0.145572,3.866251,-61.617428,0.677624,-3.735554,0.858509,-0.511727,0.021769,-0.024966
318,-0.155074,-9.701550,5.603280,-6.836577,0.345746,2.816384,-61.686050,0.770124,-3.683671,0.858223,-0.512226,0.022245,-0.024151
319,-0.009827,-10.197881,5.678771,-17.319996,-1.433639,2.124879,-61.875797,0.781063,-3.625996,0.857387,-0.513654,0.022108,-0.023633
320,0.141360,-10.359941,7.026217,-47.111816,-3.601002,-3.842412,-62.353287,0.528882,-3.556209,0.855228,-0.517301,0.020010,-0.024159
321,-0.302642,-10.357586,6.724250,-68.438576,-1.403859,-5.891938,-63.286373,0.298859,-3.543514,0.850964,-0.524306,0.018440,-0.024954
322,0.271037,-11.109550,6.954402,-71.202805,2.195636,-6.349973,-64.681229,0.068796,-3.637548,0.844467,-0.534666,0.017485,-0.026494
323,0.214147,-11.392891,5.614406,-58.542130,3.177765,-6.491480,-66.297119,-0.308421,-3.800106,0.836743,-0.546584,0.015878,-0.029231
324,0.091116,-11.584130,4.802602,-29.622932,5.196317,-2.182782,-67.788589,-0.486900,-3.979867,0.829477,-0.557444,0.015839,-0.031191
325,0.051464,-12.008052,3.213204,9.744800,6.264459,7.052195,-68.853508,-0.328506,-4.120511,0.824255,-0.565069,0.017962,-0.031273
326,0.637546,-12.272773,3.469798,48.452770,6.775190,10.893425,-68.981964,-0.171485,-4.206904,0.823628,-0.565940,0.019552,-0.031099
327,0.400231,-11.371882,2.637829,67.195175,6.470726,11.596393,-68.215698,-0.120309,-4.272495,0.827386,-0.560395,0.020034,-0.031452
328,0.286601,-10.714222,3.289646,70.687813,6.882139,13.165115,-67.023514,0.071467,-4.323381,0.833192,-0.551695,0.021345,-0.031106
329,0.510843,-9.530579,4.414760,74.054108,7.714481,11.501446,-64.859688,0.178754,-4.386284,0.843461,-0.535823,0.021838,-0.031464
330,0.276748,-8.327625,3.885932,89.010582,7.623490,10.255642,-61.990517,0.201485,-4.470583,0.856592,-0.514516,0.021591,-0.032529
331,0.223230,-7.483054,3.424238,88.439644,5.031658,11.779927,-59.344864,0.305428,-4.492115,0.868251,-0.494568,0.021715,-0.032733
332,-0.252185,-6.455796,3.909446,87.457031,1.204640,12.947176,-56.665215,0.698035,-4.370408,0.879661,-0.474031,0.023453,-0.030673
333,-0.181934,-5.794548,4.233812,87.483131,1.945316,9.847513,-53.454693,1.246199,-4.183000,0.892687,-0.449065,0.026119,-0.027707
334,-0.447090,-5.353284,3.490859,81.380646,1.044538,10.210567,-50.691235,1.846040,-4.007363,0.903313,-0.427251,0.029515,-0.024702
335,-0.537800,-4.884155,3.758888,65.834991,-0.456632,10.135027,-48.680191,2.627147,-3.789821,0.910690,-0.411128,0.034500,-0.020676
336,-0.857603,-4.429045,4.519866,56.937050,-3.376155,10.615814,-46.399410,3.558650,-3.473364,0.918643,-0.392701,0.040459,-0.015616
337,-0.736839,-4.435134,4.889362,49.210892,-6.852778,12.137196,-43.867680,4.396297,-3.011626,0.926990,-0.372197,0.045376,-0.010036
338,-1.033303,-4.798403,5.520360,40.582226,-12.186822,15.904106,-41.710358,5.044680,-2.386252,0.933702,-0.354729,0.048522,-0.003775
339,-0.822057,-5.425414,6.294219,33.647255,-16.683809,15.109148,-40.075367,5.391387,-1.635225,0.938562,-0.341594,0.049064,0.002722
340,-0.308813,-5.592378,7.242876,34.329483,-18.349791,11.498016,-38.585155,4.972221,-0.892153,0.943038,-0.329752,0.043510,0.006990
341,-0.278347,-6.098540,7.392344,32.190865,-16.382481,6.468004,-37.303585,4.107668,-0.297902,0.946898,-0.319521,0.034787,0.009000
342,-0.132149,-6.600909,7.602468,28.126560,-14.067118,3.650492,-36.674171,3.222601,0.104475,0.948838,-0.314507,0.026404,0.009711
343,0.038849,-6.257142,7.986521,24.153576,-10.367829,-0.325194,-36.232895,2.335155,0.357142,0.950205,-0.310944,0.018398,0.009298
344,-0.219133,-5.882201,8.088093,22.454624,-6.606692,-1.416080,-35.556393,1.693468,0.488237,0.952114,-0.305357,0.012771,0.008569
345,-0.394520,-5.694795,8.224617,17.347883,-2.854656,-2.989450,-34.799259,1.477075,0.519572,0.954136,-0.299062,0.010944,0.008181
346,-0.292194,-5.350379,8.538615,14.335970,-1.239949,-1.551772,-33.958328,1.443440,0.504563,0.956310,-0.292051,0.010761,0.007889
347,-0.547161,-4.893607,8.684636,15.455057,-0.033738,-4.831906,-32.827354,1.532147,0.445410,0.959139,-0.282593,0.011727,0.007506
348,-0.350432,-4.907070,8.296002,22.491428,1.496130,-7.033120,-31.607574,1.643902,0.284798,0.962088,-0.272349,0.013126,0.006298
349,-0.535464,-4.682554,8.254043,22.951334,2.230975,-6.124579,-30.483898,1.770462,0.078460,0.964706,-0.262874,0.014726,0.004722
350,-0.511775,-4.915507,8.346598,24.051014,0.906147,-2.069437,-29.527916,1.995770,-0.056672,0.966839,-0.254791,0.016967,0.003960
351,-0.695879,-4.819430,8.393403,26.907375,-1.729189,-1.507062,-28.710579,2.249772,-0.099310,0.968594,-0.247870,0.019234,0.004028
352,-0.385684,-4.713474,8.503018,26.879595,-2.414919,1.320995,-27.867619,2.374656,-0.067410,0.970369,-0.240737,0.020253,0.004419
353,-0.477937,-4.671485,8.721766,20.760338,-3.752968,4.136413,-27.120584,2.361773,0.059624,0.971915,-0.234429,0.019912,0.005338
354,0.167301,-4.743073,8.788468,17.286560,-3.664229,1.366165,-26.616108,2.037000,0.191048,0.972985,-0.230179,0.016914,0.005714
355,-0.137132,-4.591105,8.632204,11.939933,-1.816812,-3.931399,-26.359051,1.537947,0.182242,0.973567,-0.228003,0.012705,0.004608
356,0.013419,-4.546404,8.553854,5.743165,1.889932,-8.155838,-26.333353,1.200250,-0.007543,0.973658,-0.227771,0.010214,0.002322
357,-0.257961,-4.454640,8.571370,1.676721,4.173682,-10.811263,-26.457678,1.037527,-0.341347,0.973426,-0.228804,0.009495,-0.000828
358,-0.509550,-4.207495,8.687816,-1.115978,3.813075,-9.786858,-26.500589,1.206022,-0.709170,0.973320,-0.229125,0.011662,-0.003611
359,-0.842806,-4.194858,8.726687,-2.912798,3.869050,-9.217918,-26.450527,1.682692,-1.047193,0.973363,-0.228615,0.016384,-0.005536
360,-0.729430,-3.987163,8.946249,-1.615667,2.551943,-4.496778,-26.250685,2.232111,-1.290724,0.973679,-0.226811,0.021525,-0.006544
361,-0.646306,-3.959489,8.931787,1.400803,-0.008045,-0.221543,-25.773106,2.642682,-1.360258,0.974547,-0.222679,0.025124,-0.006426
362,-0.477622,-4.141065,8.950815,1.981315,-0.940943,1.597937,-25.332174,2.834877,-1.314413,0.975364,-0.218910,0.026647,-0.005764
363,-0.400999,-4.134829,8.883143,2.591035,-0.869460,1.639072,-25.099293,2.788474,-1.245220,0.975819,-0.216950,0.026109,-0.005317
364,-0.368782,-4.029302,8.958313,2.552196,-1.262322,3.305099,-24.863050,2.659306,-1.148690,0.976292,-0.214977,0.024817,-0.004791
365,-0.149056,-4.119346,8.776093,1.444773,-0.769391,1.273432,-24.722742,2.378660,-1.062329,0.976606,-0.213834,0.022258,-0.004610
366,-0.313900,-4.151241,8.894642,-2.350589,0.561342,-0.541559,-24.804895,2.109398,-1.052793,0.976493,-0.214566,0.019949,-0.005018
367,-0.237025,-4.061373,8.904142,-4.700567,0.611040,-1.085096,-24.933134,1.988755,-1.085776,0.976267,-0.215667,0.018989,-0.005504
368,-0.326027,-4.140018,8.901867,-7.505080,1.347692,-2.382297,-25.114542,1.923141,-1.150852,0.975929,-0.217209,0.018563,-0.006153
369,-0.354978,-4.285800,8.515230,-9.250015,1.425582,-2.277006,-25.537754,1.942483,-1.245546,0.975113,-0.220794,0.018932,-0.006853
370,-0.337708,-4.535151,8.458284,-11.913357,0.403372,-1.729204,-26.265915,1.965495,-1.331814,0.973682,-0.226969,0.019342,-0.007420
371,-0.262605,-4.530010,8.286593,-11.619854,0.168284,-2.069629,-27.102747,1.919365,-1.407758,0.971999,-0.234067,0.019159,-0.008017
372,-0.282613,-4.852444,7.995728,-12.248755,-0.103529,0.685971,-28.073784,1.860876,-1.447334,0.969984,-0.242296,0.018815,-0.008313
373,0.025552,-4.702405,7.650790,-16.113163,-0.641569,-0.098984,-29.215071,1.661278,-1.452503,0.967543,-0.251972,0.017223,-0.008608
374,0.194997,-4.784426,7.353402,-23.589287,-0.912248,-3.625161,-30.519096,1.174572,-1.505512,0.964645,-0.263026,0.013345,-0.009976
375,-0.215342,-4.707999,7.422177,-29.405912,0.032683,-2.893439,-31.902235,0.869569,-1.595528,0.961405,-0.274681,0.011122,-0.011301
376,0.038885,-4.415950,7.010858,-35.367256,-0.915290,-3.768055,-33.172852,0.717890,-1.682878,0.958294,-0.285337,0.010195,-0.012286
377,-0.396075,-4.602314,6.792642,-46.021893,-0.664661,-6.171135,-34.639854,0.683029,-1.806713,0.954550,-0.297575,0.010383,-0.013276
378,-0.280520,-5.514428,6.771680,-49.143612,-2.689738,-3.135208,-36.704350,0.827364,-1.913768,0.949020,-0.314690,0.012110,-0.013577
379,-0.512387,-5.021795,6.568460,-48.334423,-3.509102,-0.547649,-38.783485,1.046004,-1.915321,0.943150,-0.331821,0.014158,-0.012734
380,-0.077456,-5.748189,6.401147,-49.363289,-5.978671,2.080614,-40.744450,1.131454,-1.810606,0.937342,-0.347911,0.014755,-0.011374
381,-0.219319,-6.381048,6.375829,-45.869572,-6.439559,2.074378,-42.976177,0.999554,-1.633843,0.930409,-0.366141,0.013338,-0.010071
382,0.067654,-6.322547,6.300404,-36.996460,-6.955706,2.893351,-44.912910,0.793644,-1.428499,0.924109,-0.381863,0.011162,-0.008875
383,0.197264,-6.000716,6.486855,-35.789444,-4.288119,0.826025,-46.122375,0.399506,-1.246088,0.920042,-0.391654,0.007467,-0.008639
384,-0.009300,-6.856267,6.768645,-35.693394,-2.344956,-1.486594,-47.060139,0.104312,-1.165676,0.916807,-0.399201,0.004896,-0.008963
385,-0.278832,-6.437376,6.777840,-36.945557,0.708844,-5.712940,-47.895828,0.108009,-1.225219,0.913866,-0.405873,0.005201,-0.009389
386,-0.002881,-6.741062,6.596897,-43.861198,1.034378,-5.121850,-48.734692,0.125295,-1.368523,0.910859,-0.412544,0.005923,-0.010427
387,0.100263,-7.156327,6.917019,-50.916088,2.491372,-8.155684,-49.873638,-0.073662,-1.556160,0.906686,-0.421588,0.005143,-0.012585
388,-0.323610,-7.375462,6.539897,-52.314789,1.893605,-7.863748,-51.226440,-0.123675,-1.782226,0.901616,-0.432256,0.005750,-0.014490
389,-0.288234,-7.709946,6.559635,-54.724224,0.484831,-5.187370,-52.743126,0.053491,-1.954788,0.895805,-0.444119,0.007995,-0.015075
390,0.294378,-8.071813,6.171103,-50.545361,-0.250633,-4.706704,-54.343449,-0.073632,-2.060281,0.889493,-0.456595,0.007638,-0.016288
391,-0.258520,-8.529199,6.386393,-45.861641,0.785379,-3.557769,-55.834949,-0.203400,-2.144133,0.883451,-0.468146,0.007192,-0.017363
392,-0.250463,-8.279013,5.902501,-39.507965,-1.336301,0.024839,-57.039879,0.011770,-2.173855,0.878494,-0.477377,0.009147,-0.016618
393,-0.394858,-8.920584,5.852815,-36.729969,-2.717760,0.977041,-58.167660,0.314859,-2.114097,0.873782,-0.485960,0.011368,-0.014786
394,0.011893,-8.627610,5.676348,-29.227612,-2.525025,0.161396,-59.107258,0.436434,-2.033586,0.869784,-0.493098,0.012065,-0.013558
395,-0.372749,-8.996329,5.455976,-25.874228,-2.034899,-0.073073,-59.863064,0.505076,-1.967377,0.866524,-0.498821,0.012385,-0.012679
396,-0.273841,-8.630831,5.223987,-21.747431,-1.620706,-0.351177,-60.534523,0.699873,-1.919619,0.863598,-0.503866,0.013717,-0.011389
397,-0.106212,-9.089922,5.034090,-19.041683,-0.299021,-1.069484,-61.165089,0.745456,-1.904479,0.860815,-0.508605,0.014055,-0.010998
398,0.365455,-8.868259,5.172273,-13.087058,2.099029,-3.039192,-61.619877,0.446292,-1.961696,0.858773,-0.512056,0.012112,-0.012708
399,-0.030114,-9.107764,5.138903,-8.956669,3.337331,-2.248573,-61.771828,0.143743,-2.079467,0.858061,-0.513226,0.010391,-0.014929
400,0.115394,-9.536235,5.451871,-6.921320,3.120401,-1.354831,-61.810970,0.051883,-2.201442,0.857862,-0.513521,0.010255,-0.016250
401,0.791605,-9.704792,5.851828,-6.703955,3.012452,-2.173310,-61.650936,-0.370558,-2.319325,0.858518,-0.512373,0.007594,-0.019036
402,0.289809,-9.998816,7.069400,-8.719388,3.504155,-4.749772,-61.049973,-0.859935,-2.476948,0.861100,-0.507921,0.004515,-0.022428
403,0.215300,-10.114985,7.848090,-14.143826,2.206934,-6.750787,-60.053085,-1.076071,-2.672596,0.865410,-0.500433,0.003541,-0.024888
404,0.486974,-10.511771,8.423680,-22.765688,1.469762,-6.510250,-59.129673,-1.333219,-2.864443,0.869324,-0.493474,0.002215,-0.027477
405,0.361068,-10.555032,7.983470,-24.438265,2.662857,-3.468171,-58.605190,-1.548544,-3.037835,0.871486,-0.489518,0.001192,-0.029725
407,0.308930,-10.682669,7.727357,-10.310480,3.589198,5.661355,-58.246250,-1.465955,-3.130995,0.873008,-0.486772,0.002124,-0.030088
408,0.190422,-10.733319,6.750823,7.185176,1.555408,16.181393,-57.872738,-1.040810,-3.022561,0.874701,-0.483859,0.004814,-0.027473
409,-0.186311,-10.984274,4.748089,34.463047,-3.244546,26.497759,-57.909576,-0.232021,-2.607812,0.874751,-0.484033,0.009245,-0.020891
410,0.158585,-10.344145,3.710388,62.697445,-4.129319,31.706358,-58.123451,0.641782,-1.973119,0.874001,-0.485588,0.013258,-0.012330
411,-0.411594,-9.447716,4.101274,84.898499,-6.475897,36.238796,-57.454994,1.597306,-1.222567,0.876852,-0.480440,0.017350,-0.002655
412,-0.911117,-8.762485,3.506297,91.387917,-11.622706,34.283291,-56.144279,2.903116,-0.350732,0.882105,-0.470361,0.023791,0.009221
413,0.096377,-7.751308,3.354599,91.458282,-10.700623,28.080381,-54.887463,3.588791,0.480616,0.886960,-0.460764,0.025857,0.018152
414,0.307762,-6.040907,4.771193,85.906418,-5.017550,21.337952,-52.525501,3.279122,1.131916,0.896238,-0.442539,0.021288,0.021514
415,-0.173677,-5.738054,4.843693,79.222748,-4.121201,17.321701,-49.234821,2.995326,1.647860,0.908548,-0.416713,0.017770,0.023954
416,0.003077,-5.176393,4.590245,63.096985,-4.107599,9.386558,-46.539341,2.798515,2.041194,0.918064,-0.395278,0.015395,0.026004
417,0.214091,-4.728603,4.555433,50.218811,-1.242998,0.986577,-44.533737,2.187710,2.210063,0.924949,-0.379122,0.010357,0.025076
418,-0.563391,-4.417001,4.624349,40.844181,-2.131694,-2.740407,-42.901783,1.967527,2.218557,0.930298,-0.365891,0.008898,0.024293
419,-0.786984,-4.801642,4.501168,29.695759,-4.292632,-4.141646,-41.995533,2.484257,2.205466,0.933053,-0.358570,0.013340,0.025729
420,-0.897633,-4.756410,5.343536,20.410231,-6.941139,-6.357176,-41.475399,3.060468,2.197572,0.934524,-0.354378,0.018182,0.027381
421,-0.644808,-4.846980,6.210529,21.959423,-6.124020,-8.747655,-40.437428,3.280844,2.177074,0.937638,-0.345911,0.020295,0.027711
422,-1.033034,-5.206267,7.319572,23.053160,-6.973779,-7.804374,-38.948986,3.365631,2.155127,0.942033,-0.333705,0.021415,0.027511
423,-0.941389,-5.380200,8.138767,25.232805,-6.163141,-8.386826,-37.234760,3.502282,2.144406,0.946881,-0.319584,0.022983,0.027479
424,-1.035705,-5.627439,8.394182,27.507790,-5.975363,-6.613628,-35.586704,3.584256,2.121339,0.951359,-0.305934,0.024118,0.027172
425,-0.916814,-5.780251,8.114479,30.512558,-4.794270,-6.584877,-34.317417,3.662683,2.071989,0.954677,-0.295373,0.025199,0.026694
426,-1.151004,-5.747844,8.112805,28.307161,-6.823366,-3.209763,-33.414883,3.814296,2.045981,0.956931,-0.287849,0.026740,0.026656
427,-1.002275,-5.547480,7.845473,25.476679,-6.116229,-2.865089,-32.764271,4.023347,2.068733,0.958476,-0.282430,0.028584,0.027208
428,-1.038396,-5.511747,7.675790,22.135593,-5.798432,-0.807079,-32.382030,4.207725,2.099112,0.959342,-0.279252,0.030145,0.027814
429,-1.011469,-5.271926,7.983844,18.109758,-5.175587,-0.792365,-32.051895,4.395975,2.151856,0.960061,-0.276513,0.031676,0.028621
430,-0.952272,-4.899035,8.361220,15.964619,-4.147365,-0.956330,-31.424370,4.514973,2.216002,0.961501,-0.271278,0.032679,0.029265
431,-0.652357,-4.899985,8.354374,17.603287,-2.313023,-1.427601,-30.625622,4.450668,2.257630,0.963382,-0.264576,0.032245,0.029239
432,-0.735546,-4.885144,8.475741,21.411316,-1.730501,-1.240066,-29.827065,4.298799,2.263969,0.965256,-0.257846,0.031154,0.028727
433,-0.556851,-4.570973,8.495242,21.832047,-1.253423,-2.509849,-28.915043,4.124526,2.247289,0.967344,-0.250136,0.029947,0.027959
434,-0.370640,-4.607635,8.383747,19.005335,-0.626038,-3.596962,-28.093958,3.794514,2.180558,0.969237,-0.243152,0.027496,0.026483
435,-0.285397,-4.556717,8.510859,13.837051,-0.073889,-3.550611,-27.548597,3.377942,2.077281,0.970533,-0.238474,0.024307,0.024614
436,-0.185302,-4.356184,8.403033,8.474988,1.309724,-5.690974,-27.178364,2.944224,1.928370,0.971445,-0.235268,0.021015,0.022386
437,-0.129545,-4.274907,8.524961,-0.568826,3.045781,-7.318610,-26.996883,2.523170,1.703492,0.971957,-0.233655,0.017937,0.019590
438,-0.314610,-4.470836,8.387699,-7.190074,3.574040,-7.638174,-27.182732,2.263408,1.429443,0.971673,-0.235171,0.016265,0.016763
439,-0.385506,-4.415989,8.267831,-11.564368,4.561093,-9.618982,-27.681664,2.204111,1.104955,0.970695,-0.239350,0.016368,0.013962
440,-0.395457,-4.489480,7.949334,-17.155178,5.035844,-10.607744,-28.410906,2.218990,0.722673,0.969191,-0.245467,0.017223,0.010864
441,-0.281671,-4.770411,7.940003,-21.820585,5.589708,-11.503585,-29.457672,2.177959,0.299368,0.966949,-0.254246,0.017716,0.007358
442,-0.530494,-4.624186,8.029260,-25.289021,5.252777,-10.098102,-30.526360,2.208653,-0.113394,0.964552,-0.263186,0.018854,0.004119
443,-0.541552,-4.849417,8.275048,-28.116722,4.502943,-9.868689,-31.459955,2.362351,-0.486344,0.962361,-0.270960,0.020992,0.001504
444,-0.297891,-4.946482,8.392847,-29.213312,4.004135,-10.309561,-32.333893,2.341081,-0.844912,0.960270,-0.278227,0.021673,-0.001392
445,-0.096630,-5.003684,8.485081,-27.751629,4.341848,-9.538029,-33.055679,2.070698,-1.187248,0.958527,-0.284240,0.020269,-0.004791
446,-0.570140,-4.964650,8.335290,-26.950006,3.781583,-6.509126,-33.620670,1.994797,-1.469853,0.957108,-0.288923,0.020371,-0.007243
447,-0.173711,-5.421356,7.975172,-28.507132,2.947027,-6.812671,-34.406258,1.992605,-1.711999,0.955088,-0.295434,0.021026,-0.009127
448,0.085868,-5.456481,7.443607,-28.251987,3.378971,-7.475937,-35.572006,1.637038,-1.971487,0.952041,-0.305152,0.018855,-0.012017
449,-0.163761,-5.683627,6.822395,-27.809444,3.165646,-5.720554,-37.042225,1.323287,-2.222039,0.948036,-0.317361,0.017106,-0.014717
450,-0.516778,-5.734460,6.352054,-31.976786,0.210617,-5.727802,-38.851315,1.386065,-2.427186,0.942878,-0.332243,0.018448,-0.015951
451,-0.045994,-5.764696,5.944571,-36.205685,-0.847861,-8.846579,-40.891228,1.315105,-2.634086,0.936787,-0.348956,0.018779,-0.017528
452,-0.322664,-5.783312,5.715822,-39.363091,-1.104194,-7.445886,-43.002209,1.100042,-2.833689,0.930170,-0.366169,0.017991,-0.019487
453,-0.154539,-5.716061,5.652318,-43.623802,-1.491366,-6.700974,-44.978523,0.988730,-2.988850,0.923689,-0.382158,0.017945,-0.020796
454,0.027804,-5.998054,5.653393,-48.046429,-1.302543,-6.936410,-46.860504,0.689613,-3.119011,0.917253,-0.397328,0.016341,-0.022579
455,0.017490,-6.207553,6.052195,-49.194210,0.060947,-7.465097,-48.532738,0.324455,-3.261504,0.911305,-0.410738,0.014276,-0.024780
456,0.132711,-6.517971,6.303124,-47.426865,0.363935,-5.872751,-49.819031,-0.010799,-3.405770,0.906572,-0.421003,0.012431,-0.026992
457,0.004158,-6.837260,6.533865,-44.814484,0.297925,-6.988640,-50.823143,-0.271568,-3.546978,0.902782,-0.428977,0.011141,-0.028970
458,-0.073524,-7.223922,6.692661,-40.210243,0.372919,-6.219313,-51.613647,-0.376140,-3.695293,0.899748,-0.435205,0.011083,-0.030454
459,0.010242,-6.983284,6.640238,-33.430737,1.210990,-6.328802,-52.070049,-0.435687,-3.850716,0.897956,-0.438784,0.011332,-0.031856
460,0.044727,-7.232304,6.313196,-28.795380,1.789488,-4.491417,-52.375191,-0.505280,-4.006255,0.896729,-0.441176,0.011471,-0.033311
461,-0.144905,-7.461205,6.081936,-26.067703,0.764550,-3.166317,-52.873325,-0.446618,-4.121493,0.894779,-0.445042,0.012522,-0.033933
462,0.440069,-7.639965,5.861602,-23.614574,-0.679207,-1.315698,-53.532192,-0.575896,-4.169249,0.892168,-0.450209,0.011897,-0.034739
463,0.255226,-7.718745,5.513916,-22.665730,-0.574862,-1.939526,-54.352066,-0.906442,-4.180399,0.888856,-0.456664,0.009625,-0.036056
464,0.184442,-8.246042,5.596164,-26.307795,-2.478036,3.420608,-55.380287,-1.013388,-4.119128,0.884719,-0.464653,0.008874,-0.035928
465,0.415618,-8.420319,5.690539,-26.609426,-4.384352,3.839638,-56.444763,-1.107218,-3.951577,0.880396,-0.472885,0.007795,-0.034944
466,0.127172,-8.545009,5.707046,-23.785131,-5.562637,5.426221,-57.322803,-1.149974,-3.725533,0.876805,-0.479641,0.006789,-0.033332
467,-0.009195,-8.683959,5.681157,-19.100191,-5.006761,4.637986,-57.980576,-0.962870,-3.488890,0.874142,-0.484643,0.007407,-0.030697
468,-0.116656,-8.753857,6.071003,-15.608780,-3.945472,6.769342,-58.278801,-0.636208,-3.268260,0.872992,-0.486869,0.009038,-0.027610
469,-0.088613,-9.025127,6.079857,-10.062612,-2.521043,4.667740,-58.273586,-0.295533,-3.082794,0.873107,-0.486779,0.010845,-0.024751
470,-0.217007,-9.262799,5.841656,-4.726598,-0.112456,3.770040,-58.279182,0.022583,-2.973852,0.873144,-0.486771,0.012808,-0.022569
471,-0.040604,-9.216900,5.662671,-1.514346,1.523765,3.377040,-58.351845,0.278350,-2.931727,0.872869,-0.487278,0.014591,-0.021152
472,0.087652,-9.119103,5.616207,-1.018509,1.703678,4.579234,-58.409271,0.370937,-2.908059,0.872637,-0.487699,0.015206,-0.020570
473,0.253870,-9.189400,5.340423,0.785937,-1.151976,5.188543,-58.539364,0.296976,-2.831285,0.872090,-0.488714,0.014339,-0.020284
474,0.111191,-8.822050,5.135015,2.939201,-3.192827,4.364932,-58.711697,0.162489,-2.687275,0.871368,-0.490068,0.012731,-0.019743
475,0.146453,-8.618287,5.338347,3.613275,-4.653633,6.103669,-58.669533,0.076333,-2.485144,0.871574,-0.489784,0.011204,-0.018578
476,0.248348,-8.783137,5.521093,5.405366,-4.980815,6.636703,-58.404560,-0.039783,-2.237753,0.872733,-0.487807,0.009224,-0.017214
477,-0.083782,-9.725091,5.586673,5.731466,-5.191648,7.261913,-58.297573,-0.017329,-1.972337,0.873227,-0.487009,0.008251,-0.015105
478,0.019717,-9.808142,5.948444,-7.639786,-6.847176,5.784983,-58.520245,0.096868,-1.687491,0.872321,-0.488711,0.007935,-0.012434
479,0.025874,-10.052015,7.445162,-36.930687,-8.692101,5.234000,-58.862511,0.093411,-1.370064,0.870888,-0.491335,0.006585,-0.010012
480,0.057815,-10.566735,8.274793,-60.581139,-9.327038,4.850760,-59.441753,0.035189,-1.024020,0.868418,-0.495753,0.004697,-0.007608
481,-0.171058,-11.267114,8.657399,-75.911278,-7.825455,6.146412,-60.502472,0.078757,-0.683417,0.863811,-0.503780,0.003598,-0.004806
482,0.078662,-10.934161,8.807323,-75.936707,-6.932729,7.338273,-61.608292,0.179221,-0.358739,0.858920,-0.512098,0.002947,-0.001888
483,-0.472928,-11.372890,8.381641,-51.571243,-5.133363,11.559583,-62.219639,0.479479,-0.029944,0.856172,-0.516675,0.003717,0.001938
484,-0.451987,-11.736973,6.762113,-12.093543,-5.083804,15.540606,-62.388752,1.077319,0.333593,0.855359,-0.517941,0.006534,0.007359
485,-0.658008,-11.370103,5.732888,30.787144,-6.276310,18.159033,-61.951580,1.775171,0.764682,0.857210,-0.514691,0.009847,0.013693
486,-0.739529,-10.794422,4.428882,73.470093,-8.761084,19.591959,-60.769611,2.533819,1.275459,0.862259,-0.505862,0.013444,0.020782
487,-0.762345,-10.356169,2.727880,95.517357,-7.362151,20.090744,-59.676983,3.279017,1.774134,0.866752,-0.497678,0.017115,0.027658
488,-0.414122,-9.160181,3.087373,99.043045,-4.379727,14.907230,-58.674782,3.757383,2.130516,0.870832,-0.490135,0.019470,0.032258
489,-0.581313,-8.836316,3.006704,108.482643,0.338850,11.473148,-57.302792,4.020724,2.291455,0.876501,-0.479704,0.021197,0.034353
490,-0.123672,-8.042429,1.912246,101.916206,4.742756,5.872678,-56.541447,4.045422,2.188405,0.879691,-0.473850,0.022041,0.033522
491,0.023981,-6.571246,3.447056,79.181313,7.465309,-2.454706,-55.700848,3.583111,1.891590,0.883376,-0.467329,0.019931,0.029191
492,-0.098993,-5.706668,4.427916,74.634445,5.501104,-8.094431,-53.352718,2.955393,1.578026,0.893015,-0.449076,0.016860,0.023877
493,0.073891,-6.120122,4.022790,71.260719,3.518592,-12.862453,-50.923038,2.220824,1.225037,0.902564,-0.429987,0.012901,0.017981
494,-0.161895,-4.438284,4.796771,59.147263,3.056412,-16.898668,-48.345310,1.536931,0.814905,0.912171,-0.409527,0.009324,0.011979
495,-0.451956,-3.856536,5.139247,50.076214,2.069493,-14.590632,-44.834488,1.365669,0.443733,0.924341,-0.381361,0.009540,0.008124
496,-0.426440,-4.670406,4.525479,46.168888,1.446966,-12.907188,-42.341610,1.519232,0.114017,0.932421,-0.361130,0.012003,0.005716
497,-0.458902,-4.514497,5.894518,36.160721,1.445473,-11.886311,-40.645340,1.665082,-0.204421,0.937660,-0.347245,0.014245,0.003374
498,-0.659303,-4.147722,6.120910,36.616547,1.203272,-5.612836,-38.446060,1.990700,-0.414871,0.944116,-0.329135,0.017594,0.002301
499,-0.135975,-4.786396,6.109360,32.092552,0.630377,-5.645516,-36.707546,2.114665,-0.551431,0.948986,-0.314742,0.019029,0.001244
500,-0.259515,-5.519196,8.421630,35.581207,-0.774156,-9.144903,-35.250858,1.825366,-0.739033,0.952947,-0.302650,0.017133,-0.001323
501,-0.581491,-4.883144,8.609158,46.110077,-2.080063,-7.481263,-33.096489,1.709516,-0.914801,0.958477,-0.284668,0.016573,-0.003403
502,-0.498812,-5.189684,8.245768,45.910419,-2.564224,-7.379688,-30.992737,1.754213,-1.057930,0.963531,-0.266998,0.017217,-0.004806
503,-0.667561,-4.827603,8.851965,41.953812,-2.494199,-10.435215,-29.247229,1.816436,-1.255253,0.967469,-0.252253,0.018101,-0.006596
504,-0.733147,-4.753113,9.119442,42.572334,-3.835187,-8.160455,-27.487511,1.951408,-1.455926,0.971200,-0.237316,0.019558,-0.008294
505,-0.848248,-4.222707,8.297303,42.448318,-3.747323,-4.664752,-25.880423,2.224739,-1.571253,0.974389,-0.223612,0.021988,-0.009014
506,-0.483488,-4.261755,8.696248,34.182522,-2.926174,-6.084496,-24.582796,2.387752,-1.674304,0.976826,-0.212517,0.023465,-0.009837
507,-0.465159,-3.796327,8.732368,33.456615,-1.526438,-3.738909,-23.385191,2.344263,-1.787277,0.978990,-0.202281,0.023189,-0.011124
508,-0.357701,-3.673529,8.622327,29.245754,-1.433254,-1.742919,-22.220877,2.285393,-1.846502,0.980997,-0.192322,0.022671,-0.011965
510,-0.369587,-3.354140,8.660770,27.938715,-0.627653,0.281978,-21.149353,2.230102,-1.851871,0.982760,-0.183149,0.022092,-0.012312
511,-0.315975,-3.424280,8.686609,22.181742,-0.693411,1.765136,-20.252617,2.195542,-1.810127,0.984172,-0.175467,0.021634,-0.012179
512,-0.351463,-3.282830,8.758058,18.996803,-0.511978,4.246218,-19.620274,2.181622,-1.711715,0.985138,-0.170054,0.021301,-0.011473
513,-0.485789,-3.209624,8.962232,11.637075,-1.169321,4.627810,-19.137056,2.265314,-1.563942,0.985848,-0.165913,0.021759,-0.010169
514,-0.420600,-3.379617,9.006830,7.354337,-1.411432,6.001282,-18.987284,2.375198,-1.388680,0.986061,-0.164643,0.022439,-0.008531
515,-0.533414,-3.342325,9.192078,3.238829,-1.435204,4.396162,-19.085939,2.502052,-1.220746,0.985909,-0.165509,0.023295,-0.006884
516,-0.445784,-3.301710,9.185259,2.685326,-0.918884,3.291533,-19.177105,2.607300,-1.095217,0.985765,-0.166307,0.024024,-0.005632
517,-0.450126,-3.141511,9.256385,-0.401791,-1.918273,3.338861,-19.163351,2.615527,-0.976429,0.985789,-0.166212,0.023922,-0.004601
518,-0.500704,-3.180158,9.243386,-0.767609,-2.250713,3.621251,-19.105837,2.628237,-0.840667,0.985875,-0.165744,0.023832,-0.003427
519,-0.490156,-3.127253,9.173202,-1.840028,-3.046883,4.381302,-19.088627,2.656572,-0.683092,0.985898,-0.165627,0.023848,-0.002033
520,-0.388678,-3.196628,9.025059,-3.796285,-3.948693,5.241927,-19.177435,2.601117,-0.493324,0.985782,-0.166434,0.023097,-0.000463
521,-0.383730,-3.117658,9.071237,-6.195143,-4.148891,5.380677,-19.352556,2.476024,-0.282183,0.985549,-0.167989,0.021712,0.001205
522,-0.267501,-3.339618,8.982282,-7.565839,-3.250675,4.341308,-19.646650,2.309988,-0.090877,0.985141,-0.170560,0.019997,0.002658
523,-0.202948,-3.325535,8.972333,-9.240644,-1.794334,0.108028,-20.074669,2.083713,0.002206,0.984532,-0.174261,0.017901,0.003188
524,-0.122762,-3.246158,8.987099,-10.455518,-0.585420,-3.359300,-20.445833,1.814168,-0.035300,0.984002,-0.177451,0.015634,0.002507
525,-0.178378,-3.397155,8.677715,-11.270720,0.799155,-5.370836,-20.874933,1.585603,-0.173329,0.983362,-0.181124,0.013882,0.001019
526,-0.093125,-3.456889,8.335126,-15.779595,1.390427,-7.589869,-21.557520,1.391714,-0.392958,0.982286,-0.186961,0.012572,-0.001097
527,-0.031820,-3.633662,7.997436,-21.942020,1.390960,-7.254613,-22.587734,1.151196,-0.647022,0.980582,-0.195773,0.010957,-0.003569
528,-0.043602,-3.740050,7.791171,-29.650908,0.660645,-4.976850,-23.969904,0.922896,-0.855100,0.978156,-0.207583,0.009427,-0.005627
529,-0.208464,-3.958059,7.535030,-37.810375,0.260701,-2.543123,-25.690130,0.850530,-0.983251,0.974926,-0.222239,0.009144,-0.006715
530,-0.180671,-4.117966,7.441193,-48.884464,-1.293809,-0.684416,-27.748268,0.884595,-1.034612,0.970773,-0.239705,0.009659,-0.006914
531,-0.117204,-4.520232,7.731042,-56.968681,-2.212289,0.563800,-30.021641,0.852183,-1.017585,0.965829,-0.258920,0.009482,-0.006651
532,-0.285129,-4.746107,7.777687,-58.063217,-2.419453,0.763873,-32.281330,0.867606,-0.965343,0.960538,-0.277917,0.009614,-0.005987
533,-0.294547,-5.067169,8.028668,-55.526264,-2.348465,0.367602,-34.290592,0.973061,-0.912885,0.955515,-0.294711,0.010462,-0.005109
534,-0.130111,-5.468009,8.126941,-51.906582,-1.130481,-0.955190,-36.046928,0.980922,-0.890631,0.950887,-0.309322,0.010544,-0.004742
535,-0.169676,-6.194461,8.440018,-38.133518,0.793602,-1.805205,-37.536652,0.925950,-0.923777,0.946787,-0.321660,0.010244,-0.005033
536,-0.048203,-6.194218,8.138194,-22.154013,2.360445,-4.916780,-38.540401,0.836584,-1.043562,0.943930,-0.329938,0.009897,-0.006187
537,-0.383879,-6.093663,8.021971,-13.400515,3.405963,-6.425692,-38.997807,0.853938,-1.248735,0.942593,-0.333683,0.010661,-0.007785
538,-0.438489,-6.023302,7.845003,-13.574598,2.943250,-7.376904,-39.206806,1.056411,-1.491477,0.941958,-0.335352,0.013050,-0.009168
539,-0.216870,-5.991762,7.584929,-12.515942,2.939404,-9.094480,-39.438705,1.125762,-1.763495,0.941251,-0.337215,0.014439,-0.011171
540,-0.279633,-5.474411,7.223005,-22.615982,1.787648,-10.021942,-39.751637,1.059649,-2.054342,0.940297,-0.339758,0.014789,-0.013715
541,-0.487663,-5.526309,7.176212,-33.380692,0.818158,-8.188420,-40.302521,1.130871,-2.308727,0.938619,-0.344226,0.016203,-0.015513
542,-0.201851,-5.878298,7.203789,-41.268108,0.161285,-5.837790,-41.267376,1.177147,-2.494089,0.935660,-0.352081,0.017280,-0.016747
543,-0.011110,-6.059778,6.702165,-41.061996,0.936081,-4.489199,-42.621220,0.988483,-2.633796,0.931415,-0.363130,0.016386,-0.018276
544,-0.233953,-6.330614,6.709839,-41.947811,0.682542,-1.600841,-44.142708,0.882056,-2.726001,0.926496,-0.375474,0.016069,-0.019151
545,0.052685,-6.432633,6.546575,-35.022167,1.590210,-0.848830,-45.519527,0.814553,-2.782384,0.921907,-0.386585,0.015945,-0.019638
546,0.074095,-6.783791,6.177840,-31.262016,2.053222,-0.211884,-46.844406,0.626267,-2.837336,0.917359,-0.397252,0.014855,-0.020546
547,0.191944,-6.638760,6.022505,-30.210680,2.815119,-2.645354,-48.140625,0.372192,-2.927099,0.912777,-0.407646,0.013382,-0.021996
548,0.156287,-6.875604,6.221962,-30.342239,3.522071,-3.066160,-49.207867,0.091652,-3.064279,0.908891,-0.416175,0.011859,-0.023977
549,-0.072725,-6.801974,6.006516,-30.044218,3.779626,-3.759288,-50.132362,-0.000998,-3.227451,0.905460,-0.423497,0.011923,-0.025513
550,-0.151030,-7.336061,6.306753,-33.176208,3.587766,-2.068081,-51.057457,0.112482,-3.384728,0.901988,-0.430749,0.013613,-0.026227
551,0.061870,-7.486040,6.363504,-32.718830,2.657089,-1.718483,-51.959888,0.164674,-3.506525,0.898545,-0.437811,0.014694,-0.026874
552,-0.068130,-8.149441,6.889770,-32.538506,1.953546,0.832762,-52.733063,0.176103,-3.575250,0.895556,-0.443852,0.015230,-0.027268
553,0.122964,-8.314001,6.917721,-26.687296,1.983871,1.616842,-53.311962,0.193327,-3.601567,0.893297,-0.448363,0.015605,-0.027328
554,0.248572,-9.131395,7.323299,-20.871254,3.680023,0.999479,-53.707916,0.088807,-3.649038,0.891720,-0.451467,0.015073,-0.028055
555,0.198393,-9.191270,7.217933,-12.116600,6.271831,-2.938398,-53.917343,-0.055471,-3.799981,0.890836,-0.453113,0.014600,-0.029772
556,-0.023063,-9.279651,7.301726,-6.636545,10.335105,-4.615750,-53.882740,-0.072183,-4.097490,0.890890,-0.452809,0.015636,-0.032155
557,-0.156832,-8.875575,6.962758,1.597877,12.920329,-5.784193,-53.607368,0.108039,-4.512739,0.891881,-0.450552,0.018595,-0.034716
558,-0.310096,-8.831470,6.880342,8.174851,13.786223,-4.805128,-53.138489,0.437485,-4.973985,0.893620,-0.446706,0.022820,-0.037104
559,-0.252779,-8.373137,6.639911,13.286716,11.911571,-3.067659,-52.515984,0.801474,-5.391108,0.895942,-0.441618,0.027071,-0.039084
560,-0.227496,-8.110060,6.256558,15.004239,9.145479,0.326557,-51.899277,1.102157,-5.693430,0.898237,-0.436591,0.030369,-0.040451
561,-0.275976,-8.171515,6.390303,14.480891,5.521680,3.310094,-51.403381,1.379512,-5.846766,0.900093,-0.432537,0.032950,-0.040737
562,-0.079024,-8.888271,5.916671,9.137647,1.950895,5.049406,-51.448978,1.519988,-5.867491,0.899926,-0.432826,0.034147,-0.040355
563,-0.058335,-8.500542,6.426229,-15.110982,-2.525254,1.911212,-52.106861,1.416410,-5.801164,0.897440,-0.438051,0.033314,-0.040036
564,0.096049,-8.787194,7.620142,-46.165825,-5.851215,-0.430763,-52.987514,1.080423,-5.669111,0.894056,-0.445117,0.030488,-0.040056
565,-0.075539,-9.335838,8.465561,-65.296829,-7.333758,0.825616,-54.123070,0.726246,-5.468799,0.889624,-0.454151,0.027341,-0.039602
566,-0.151329,-9.730548,8.548976,-71.930832,-7.088387,4.363972,-55.479671,0.589957,-5.205197,0.884254,-0.464764,0.025687,-0.037795
567,-0.229746,-9.692451,9.245896,-62.357548,-6.586326,10.443447,-56.444561,0.697430,-4.863470,0.880432,-0.472231,0.025422,-0.034509
568,-0.901294,-11.021930,9.107754,-27.511608,-8.367758,19.392900,-56.614399,1.263808,-4.366950,0.879924,-0.473456,0.027768,-0.028316
569,-0.636904,-11.161210,7.109644,30.187710,-10.101542,23.740585,-56.103691,2.076286,-3.705554,0.882192,-0.469430,0.031183,-0.020013
570,-0.194396,-10.936878,5.890435,70.439911,-9.481840,27.021402,-54.962757,2.616424,-2.973692,0.886904,-0.460659,0.032218,-0.012482
571,-0.486339,-10.268798,5.051150,93.095772,-12.582641,27.310608,-53.457294,3.020417,-2.199983,0.892899,-0.449075,0.032166,-0.005289
572,-0.312378,-9.647386,4.322010,100.493607,-14.737243,22.532059,-52.033337,3.284565,-1.427714,0.898384,-0.438098,0.031216,0.001378
573,0.344115,-8.472579,3.656489,99.151161,-10.252439,15.262559,-51.013195,2.947315,-0.845111,0.902294,-0.430290,0.026385,0.004420
574,-0.614261,-7.274757,4.071561,79.370750,-6.177393,14.422832,-50.127491,2.808046,-0.443812,0.905599,-0.423410,0.023835,0.006873
575,-0.663054,-6.663492,4.566323,61.937134,-5.535190,11.342983,-49.071892,3.290059,-0.081141,0.909334,-0.415074,0.026409,0.011277
576,-0.404316,-6.087614,5.203879,62.477459,-2.604824,4.571410,-47.492359,3.529157,0.176719,0.914884,-0.402538,0.027565,0.013811
577,-0.639527,-5.279175,5.458613,62.173782,-1.537967,0.918734,-45.142597,3.624085,0.309324,0.922905,-0.383718,0.028163,0.014628
578,-0.547352,-4.808871,5.643197,52.808655,-1.888461,-0.063094,-42.511524,3.756535,0.411065,0.931422,-0.362444,0.029246,0.015224
579,-0.160951,-4.736277,6.155787,46.134480,-0.297862,-3.739472,-40.022129,3.514814,0.441190,0.939137,-0.342149,0.027499,0.014110
580,-0.406964,-4.421728,6.225542,43.877827,-0.807310,-7.046933,-37.693806,3.122053,0.353894,0.946002,-0.322999,0.024784,0.011722
581,-0.419410,-4.409935,6.502323,33.127182,0.188771,-7.725947,-35.706051,2.919904,0.200387,0.951522,-0.306519,0.023715,0.009475
582,-0.319104,-4.806471,7.116617,26.609503,0.603395,-12.148218,-34.268044,2.665137,-0.055750,0.955363,-0.294517,0.022367,0.006386
583,-0.612559,-4.718279,7.386556,31.173698,1.979963,-15.813280,-33.028999,2.489215,-0.453859,0.958539,-0.284106,0.021950,0.002378
584,-0.500411,-4.492161,7.563997,30.028208,0.500638,-18.823271,-31.679594,2.398572,-0.944615,0.961832,-0.272714,0.022384,-0.002216
585,-0.887934,-4.727476,8.387415,30.195297,1.303241,-18.654373,-30.297644,2.420632,-1.472851,0.965026,-0.260985,0.023745,-0.006884
586,-0.598755,-4.609939,8.479510,31.721708,-0.633018,-18.590698,-28.936792,2.473137,-1.994586,0.968007,-0.249386,0.025241,-0.011458
587,-0.790818,-4.504982,8.384199,31.455891,0.338928,-12.978991,-27.689064,2.516994,-2.440045,0.970606,-0.238722,0.026414,-0.015414
588,-0.592972,-4.393041,8.711558,29.144920,-2.075207,-10.719815,-26.553244,2.594415,-2.766284,0.972865,-0.228995,0.027569,-0.018289
589,-0.759102,-4.468616,8.743787,31.879585,-1.806932,-5.804171,-25.509907,2.659363,-2.979470,0.974864,-0.220059,0.028363,-0.020228
590,-0.530489,-3.921725,8.499990,32.718956,-2.469632,-4.241085,-24.419222,2.735161,-3.095946,0.976882,-0.210721,0.029030,-0.021350
591,-0.677947,-3.844109,8.755611,29.574751,-2.113240,-0.492983,-23.255474,2.800104,-3.128066,0.978955,-0.200764,0.029422,-0.021803
592,-0.588719,-3.400180,8.954662,28.857622,-2.621998,0.061415,-22.002544,2.902975,-3.087005,0.981082,-0.190031,0.029995,-0.021600
593,-0.799655,-3.343518,8.996976,24.352072,-2.291245,3.943953,-20.754436,3.076371,-2.973006,0.983083,-0.179318,0.031066,-0.020674
594,-0.650870,-3.263591,9.239409,21.126190,-2.843982,3.704929,-19.733252,3.266368,-2.805569,0.984634,-0.170547,0.032264,-0.019227
595,-0.665394,-3.264546,9.310003,18.107237,-3.478166,3.792178,-18.921036,3.323342,-2.642038,0.985832,-0.163596,0.032383,-0.017966
596,-0.829629,-3.257948,9.355088,15.118013,-3.487877,3.775734,-18.346558,3.433568,-2.482848,0.986639,-0.158671,0.033021,-0.016604
597,-0.565850,-3.347004,9.295613,11.819382,-4.117469,2.329299,-18.083538,3.455123,-2.356619,0.987014,-0.156438,0.032996,-0.015562
598,-0.421747,-3.363578,9.294291,9.656502,-4.400463,0.928134,-18.101397,3.201287,-2.283576,0.987056,-0.156666,0.030713,-0.015278
599,-0.358588,-3.507501,9.192622,8.214499,-4.516195,1.069439,-18.335686,2.823132,-2.235644,0.986815,-0.158774,0.027422,-0.015329
600,-0.106006,-3.406416,9.329401,5.307665,-3.895670,-1.864235,-18.634640,2.298535,-2.230009,0.986485,-0.161454,0.022939,-0.015952
601,-0.086245,-3.542082,9.296456,5.331349,-3.635430,-4.733821,-18.855221,1.729035,-2.309752,0.986231,-0.163449,0.018182,-0.017410
602,-0.140244,-3.460611,9.244073,4.519138,-3.268944,-6.319759,-19.035330,1.322914,-2.457843,0.985983,-0.165058,0.014929,-0.019242
603,-0.326084,-3.501040,9.432274,3.576145,-2.541246,-6.898185,-19.166458,1.126051,-2.641166,0.985773,-0.166205,0.013523,-0.021088
604,-0.328933,-3.225929,9.742356,2.350586,-3.657633,-6.472254,-19.113407,1.064213,-2.819068,0.985819,-0.165741,0.013239,-0.022715
605,-0.414174,-3.322627,9.524612,4.018786,-4.634811,-3.928203,-18.945780,1.051881,-2.936363,0.986037,-0.164288,0.013268,-0.023761
606,-0.253111,-2.764870,9.914252,3.565681,-5.644206,-1.004233,-18.536016,1.007195,-2.953154,0.986616,-0.160770,0.012822,-0.024016
607,-0.160103,-2.994376,10.146152,6.890347,-6.692428,3.207404,-17.882954,0.842572,-2.844972,0.987545,-0.155193,0.011119,-0.023380
608,0.270095,-2.699198,10.005052,13.873895,-7.458105,4.586496,-17.108078,0.440433,-2.644832,0.988618,-0.148614,0.007232,-0.022250
609,0.127819,-2.764053,9.719320,18.746655,-5.975056,2.913577,-16.212624,-0.044436,-2.461298,0.989779,-0.140986,0.002645,-0.021317
610,0.275067,-2.587452,9.419239,19.797535,-4.140678,3.424376,-15.388420,-0.417104,-2.316651,0.990778,-0.133931,-0.000900,-0.020520
611,0.198556,-2.795473,9.016220,17.016806,-2.481606,4.722621,-14.862583,-0.694360,-2.158544,0.991392,-0.129425,-0.003571,-0.019461
613,0.166319,-2.639601,8.705218,9.518013,-0.889095,4.400519,-14.758551,-0.809468,-1.994487,0.991527,-0.128536,-0.004769,-0.018167
614,-0.067009,-2.460684,8.648391,-0.145711,0.264926,3.172282,-14.877748,-0.709917,-1.866380,0.991420,-0.129549,-0.004034,-0.016951
615,0.012479,-2.354624,8.754303,-7.861439,0.397055,5.791017,-15.126380,-0.497144,-1.723890,0.991170,-0.131668,-0.002320,-0.015483
616,-0.124202,-2.398558,9.209834,-11.909543,0.352185,5.826355,-15.426368,-0.269974,-1.541361,0.990856,-0.134233,-0.000529,-0.013645
617,-0.089880,-2.474547,9.420068,-11.876882,0.304341,5.011775,-15.715002,-0.032158,-1.371945,0.990540,-0.136703,0.001359,-0.011898
618,-0.235763,-2.459445,9.635013,-9.496913,0.349648,4.334557,-15.887031,0.212267,-1.226067,0.990349,-0.138169,0.003313,-0.010341
619,-0.124798,-2.762238,9.720517,-8.469254,0.124718,6.666427,-16.061316,0.435246,-1.052504,0.990149,-0.139662,0.005044,-0.008564
620,0.041944,-2.893388,9.699024,-7.407475,0.358100,5.009244,-16.370546,0.481840,-0.868497,0.989780,-0.142338,0.005241,-0.006903
621,0.026191,-2.888291,9.654743,-8.469935,0.163683,4.827474,-16.706984,0.422862,-0.713880,0.989368,-0.145253,0.004556,-0.005628
622,0.255247,-2.854762,9.409381,-9.983880,0.604984,2.515331,-17.053679,0.248391,-0.599818,0.988932,-0.148259,0.002920,-0.004855
623,0.317433,-2.844044,9.221416,-10.098453,2.748502,-1.150530,-17.410982,-0.045035,-0.592844,0.988466,-0.151356,0.000395,-0.005173
624,0.435760,-2.835799,9.127022,-8.047578,5.207577,-5.010290,-17.707449,-0.360418,-0.728574,0.988057,-0.153928,-0.002129,-0.006766
625,0.143036,-2.857156,8.832072,-6.010501,7.920727,-6.802190,-17.945948,-0.482365,-0.981250,0.987711,-0.155997,-0.002822,-0.009115
626,0.215261,-3.154400,8.512335,-3.423834,9.420042,-10.519547,-18.328489,-0.419916,-1.342876,0.987155,-0.159296,-0.001751,-0.012152
627,-0.031493,-3.407068,8.283831,-3.629988,10.025704,-14.348107,-19.003962,-0.268008,-1.834353,0.986145,-0.165097,0.000336,-0.016173
628,-0.070820,-3.597829,8.425152,-8.451406,9.579230,-16.623028,-19.916382,-0.015563,-2.426898,0.984713,-0.172894,0.003528,-0.020882
629,-0.366864,-3.902389,8.335657,-14.350693,9.788170,-19.034998,-21.109776,0.341549,-3.098599,0.982731,-0.183030,0.007882,-0.026034
630,-0.171916,-3.893540,8.657300,-21.889843,9.049503,-21.247082,-22.443321,0.645480,-3.846756,0.980350,-0.194307,0.012053,-0.031825
631,-0.387285,-3.862664,8.972893,-32.377975,8.556185,-21.937904,-23.702803,0.836627,-4.630819,0.977919,-0.204912,0.015436,-0.038040
632,-0.159284,-4.200956,9.646005,-40.076611,8.854505,-19.859280,-24.981609,0.958698,-5.390021,0.975302,-0.215652,0.018328,-0.044097
633,-0.248254,-4.337708,9.503601,-40.302139,8.988982,-19.067228,-26.278757,0.983783,-6.103857,0.972507,-0.226545,0.020451,-0.049896
634,-0.103017,-4.323302,9.637792,-39.331894,8.198534,-18.278315,-27.392950,0.956546,-6.785251,0.969944,-0.235875,0.022107,-0.055520
635,-0.130037,-4.678185,9.656927,-37.439442,6.420510,-16.819656,-28.361408,0.838869,-7.409986,0.967592,-0.244004,0.022913,-0.060859
636,0.010061,-4.965136,9.359243,-32.987335,6.340646,-14.781279,-29.370911,0.669691,-7.969810,0.965080,-0.252502,0.023257,-0.065744
637,-0.107852,-5.064002,8.849658,-27.947203,5.981634,-16.054125,-30.391273,0.507868,-8.515605,0.962450,-0.261072,0.023726,-0.070489
638,-0.025059,-4.960289,8.842121,-25.743422,5.531297,-15.553728,-31.229904,0.365361,-9.065237,0.960143,-0.268085,0.024333,-0.075254
639,-0.342151,-5.302785,8.676296,-22.428663,5.173213,-14.022911,-31.957434,0.364063,-9.578227,0.958076,-0.274063,0.026026,-0.079391
640,-0.280341,-5.265193,8.471029,-15.829089,5.722216,-12.809066,-32.608585,0.524154,-10.055897,0.956194,-0.279271,0.028977,-0.082837
641,-0.365760,-5.222859,8.433351,-8.202047,5.062685,-11.795091,-32.932285,0.701470,-10.499149,0.955106,-0.281717,0.031779,-0.086012
642,-0.351506,-4.931710,8.354604,-0.355657,4.108691,-9.342111,-32.798996,0.898143,-10.875108,0.955180,-0.280341,0.034238,-0.088700
643,-0.256376,-5.247937,8.121606,3.745645,3.195579,-5.899015,-32.547482,1.056564,-11.151330,0.955603,-0.278029,0.036035,-0.090692
644,0.146447,-5.345728,8.165534,5.663244,2.238099,-4.780982,-32.479710,0.886033,-11.351530,0.955578,-0.277546,0.035044,-0.092798
645,0.022120,-5.552160,8.041571,5.911625,1.909920,-4.493657,-32.615982,0.519185,-11.524064,0.955035,-0.278942,0.032518,-0.095091
646,0.250465,-5.719640,8.048996,6.034996,2.112737,-4.563429,-32.992100,0.145210,-11.692312,0.953888,-0.282348,0.030131,-0.097307
647,0.302123,-5.927703,7.977274,4.088227,3.117699,-5.443774,-33.569489,-0.323472,-11.879867,0.952168,-0.287505,0.027196,-0.099887
648,0.247925,-6.066616,8.066871,3.641610,3.677732,-6.070385,-34.156101,-0.651235,-12.097589,0.950392,-0.292607,0.025543,-0.102387
649,0.008979,-5.986246,7.877617,2.188758,3.686668,-5.548627,-34.620430,-0.701626,-12.320705,0.948982,-0.296449,0.026118,-0.104260
650,0.042079,-5.919788,8.006037,1.328412,2.475564,-2.938926,-35.045845,-0.592181,-12.490285,0.947756,-0.299833,0.027854,-0.105280
651,-0.174757,-5.685500,8.170259,5.345075,0.732548,-0.151789,-35.126129,-0.338107,-12.561298,0.947562,-0.300251,0.030215,-0.105184
652,-0.221127,-5.328658,7.929269,14.420506,-0.799452,0.731282,-34.664967,-0.001436,-12.552165,0.948870,-0.296132,0.032556,-0.104359
653,0.061583,-5.318828,7.591787,16.886839,-1.348259,0.792687,-34.066776,0.095781,-12.509416,0.950469,-0.291098,0.032709,-0.103926
654,0.044688,-5.635335,7.747546,13.917758,-0.802282,0.359111,-33.755859,0.011835,-12.473854,0.951265,-0.288604,0.031640,-0.103931
655,-0.033230,-5.643754,7.687708,9.612403,0.352771,-2.618019,-33.756607,-0.030624,-12.501434,0.951226,-0.288642,0.031358,-0.104266
656,-0.015159,-5.764887,7.572757,-1.195699,1.013626,-5.222687,-34.145508,-0.057636,-12.622502,0.950123,-0.291859,0.031796,-0.105232
657,0.049392,-6.022066,7.938204,-15.690692,0.516129,-3.553352,-35.000668,-0.128862,-12.756977,0.947773,-0.298969,0.032342,-0.106290
658,-0.267264,-5.761178,8.388916,-24.536215,-0.679621,-0.960400,-35.891171,-0.051856,-12.817190,0.945389,-0.306236,0.033963,-0.106326
659,-0.261221,-5.350292,8.262263,-27.697718,-2.985514,2.539474,-36.456829,0.194614,-12.763108,0.943989,-0.310688,0.036371,-0.105043
660,-0.058011,-5.364017,8.240315,-30.786062,-5.278288,7.409210,-36.874481,0.333028,-12.548825,0.943084,-0.314069,0.037305,-0.102767
661,0.057513,-5.325742,8.272568,-32.207535,-7.381233,10.782887,-37.267017,0.301524,-12.176765,0.942323,-0.317446,0.036368,-0.099667
662,-0.126607,-5.335538,8.290459,-34.009930,-9.702273,13.320452,-37.616001,0.299243,-11.680214,0.941774,-0.320472,0.035264,-0.095482
663,-0.030325,-5.537048,8.201335,-33.778526,-11.864397,14.716784,-38.034794,0.329123,-11.087172,0.941085,-0.324068,0.034181,-0.090398
664,0.137894,-5.572136,8.148796,-32.772362,-13.010872,14.974296,-38.506199,0.200758,-10.438024,0.940209,-0.328224,0.031641,-0.085300
665,0.095195,-5.572886,8.006192,-32.687820,-13.806632,14.714318,-38.954887,-0.003598,-9.768210,0.939349,-0.332228,0.028359,-0.080279
666,0.034359,-5.689145,7.905463,-32.788147,-13.951973,15.605165,-39.445263,-0.126547,-9.082228,0.938352,-0.336490,0.025682,-0.074901
667,0.174690,-5.719363,7.657193,-31.913893,-13.944775,16.274687,-40.009499,-0.242367,-8.376229,0.937100,-0.341329,0.023002,-0.069346
668,0.173976,-5.710318,7.451461,-31.682390,-14.014105,16.577785,-40.615887,-0.395638,-7.657272,0.935662,-0.346505,0.019944,-0.063817
669,0.202561,-5.908101,7.347845,-31.663427,-13.996418,16.757299,-41.296120,-0.528809,-6.932103,0.933944,-0.352239,0.017008,-0.058197
670,0.169538,-6.037015,7.174385,-30.300787,-14.112887,16.567636,-42.070984,-0.626601,-6.206160,0.931870,-0.358691,0.014334,-0.052484
671,0.276583,-6.099555,6.921731,-29.498728,-14.055491,16.348888,-42.909885,-0.741921,-5.484450,0.929507,-0.365631,0.011480,-0.046892
672,0.293702,-6.408541,6.807562,-30.501099,-13.410816,15.806458,-43.891792,-0.894082,-4.777963,0.926581,-0.373696,0.008347,-0.041575
673,0.275671,-6.638325,6.461928,-30.038334,-11.957300,13.596292,-45.107384,-1.015144,-4.125726,0.922763,-0.383580,0.005630,-0.036637
674,0.296507,-6.842581,6.284921,-31.197086,-9.418765,11.306858,-46.505608,-1.107260,-3.571451,0.918164,-0.394855,0.003428,-0.032442
675,0.225458,-7.189553,6.341198,-34.118382,-6.515327,10.140704,-47.987949,-1.116586,-3.123740,0.913098,-0.406713,0.002184,-0.028861
676,0.148117,-7.551291,6.501871,-35.900826,-4.293598,9.187036,-49.455292,-0.990703,-2.769212,0.907920,-0.418357,0.002257,-0.025562
677,0.114648,-7.622526,6.694715,-33.799889,-2.929226,8.430409,-50.667812,-0.789439,-2.488162,0.903531,-0.427917,0.003065,-0.022570
678,0.033828,-7.748564,7.173142,-30.073000,-2.492485,9.480591,-51.367279,-0.531520,-2.236328,0.900980,-0.433396,0.004278,-0.019596
679,-0.175007,-7.755050,7.402541,-22.339947,-2.661177,10.015441,-51.499924,-0.150384,-1.975242,0.900554,-0.434400,0.006306,-0.016095
680,-0.070049,-7.498105,7.361068,-13.056828,-2.767344,7.829550,-51.128220,0.199567,-1.723416,0.902011,-0.431448,0.008061,-0.012815
681,-0.186081,-7.360389,7.367197,-4.133268,-2.303041,3.197372,-50.354912,0.406803,-1.539545,0.904927,-0.425339,0.008928,-0.010648
682,-0.224608,-7.284472,7.225936,1.951648,-0.894105,-1.851249,-49.405766,0.535693,-1.476865,0.908427,-0.417819,0.009633,-0.009755
683,-0.167853,-7.052032,6.902874,4.093921,0.948074,-6.819144,-48.526627,0.539618,-1.563842,0.911598,-0.410829,0.009900,-0.010506
684,0.000161,-6.885047,6.636090,2.948030,2.757764,-10.812508,-47.863277,0.352566,-1.799794,0.913933,-0.405550,0.009183,-0.013107
685,0.009222,-7.105512,6.605318,1.181105,4.666371,-12.325044,-47.511772,0.067469,-2.148786,0.915114,-0.402760,0.008092,-0.016925
686,0.095205,-7.280417,6.335191,-0.110171,5.877604,-10.759827,-47.553551,-0.188996,-2.537900,0.914883,-0.403108,0.007420,-0.020931
687,0.024579,-7.330428,6.079646,-0.608213,6.109342,-8.794651,-47.934231,-0.348011,-2.903810,0.913450,-0.406150,0.007518,-0.024386
688,0.048247,-7.502056,6.103491,0.139688,4.946611,-6.496561,-48.439545,-0.406339,-3.208529,0.911575,-0.410165,0.008252,-0.026986
689,0.005601,-7.747581,6.109435,2.998657,1.887298,-4.445492,-49.027527,-0.419415,-3.410390,0.909407,-0.414824,0.009018,-0.028592
690,0.216012,-7.692173,5.983222,7.297505,-1.540160,-4.453343,-49.601036,-0.584031,-3.506175,0.907272,-0.419400,0.008208,-0.029907
691,0.430033,-7.439456,5.785518,10.515409,-4.083402,-7.956523,-49.884933,-1.079250,-3.562257,0.906130,-0.421751,0.004571,-0.032151
692,0.721407,-7.284622,5.811893,9.970155,-5.064803,-12.533283,-49.895294,-1.908834,-3.660603,0.905881,-0.421999,-0.001625,-0.035977
693,0.832175,-7.381914,6.045976,6.627224,-4.316136,-18.494459,-49.811844,-2.966574,-3.870528,0.905811,-0.421541,-0.009248,-0.041514
694,0.816392,-7.419035,6.242557,5.494541,-2.935246,-24.117838,-49.665936,-4.017079,-4.236114,0.905815,-0.420605,-0.016274,-0.048230
695,0.606577,-7.302954,6.358741,2.975538,-2.078115,-26.799442,-49.434685,-4.840657,-4.729256,0.906070,-0.418996,-0.021092,-0.055088
696,0.461898,-7.376363,6.730567,0.230129,-0.706904,-26.304111,-49.112129,-5.312149,-5.290890,0.906721,-0.416640,-0.022944,-0.061174
697,0.335973,-7.510421,7.014547,3.204607,0.390679,-23.868246,-48.655586,-5.453275,-5.867419,0.907976,-0.413169,-0.022230,-0.066154
698,0.337339,-7.425344,7.027991,11.779364,0.260372,-18.349525,-47.989567,-5.359328,-6.374733,0.910115,-0.407955,-0.020060,-0.069723
699,0.594552,-7.210126,7.095781,18.897045,0.474478,-13.357818,-47.040520,-5.254433,-6.772799,0.913275,-0.400440,-0.018408,-0.072366
700,0.765941,-7.130675,7.257046,26.990025,1.606349,-10.471368,-45.803989,-5.260349,-7.107994,0.917325,-0.390619,-0.018092,-0.074866
701,0.927832,-7.035267,7.395687,37.544167,1.757918,-7.922854,-44.286736,-5.348432,-7.400448,0.922171,-0.378519,-0.018827,-0.077261
702,1.008460,-6.870206,7.514616,45.502369,0.904969,-6.827458,-42.525574,-5.505460,-7.643364,0.927621,-0.364405,-0.020514,-0.079420
703,1.081973,-6.569620,7.577066,49.381454,-0.180204,-8.115787,-40.623562,-5.744818,-7.869122,0.933238,-0.349100,-0.023096,-0.081624
704,1.101371,-6.186463,7.662563,50.840347,-1.404374,-8.235359,-38.644398,-6.051025,-8.094868,0.938775,-0.333110,-0.026362,-0.083934
705,1.135961,-5.878589,7.894320,52.007969,-2.671224,-6.467331,-36.592319,-6.355770,-8.285106,0.944253,-0.316429,-0.029853,-0.085838
706,1.160722,-5.627023,8.071682,51.779373,-3.402381,-4.506953,-34.530659,-6.622392,-8.413515,0.949520,-0.299549,-0.033272,-0.087030
707,1.222230,-5.332033,8.098380,51.916603,-3.155470,-2.122333,-32.547077,-6.855090,-8.476521,0.954359,-0.283199,-0.036561,-0.087524
708,1.218384,-5.040524,8.172824,52.564602,-1.312477,0.439335,-30.628271,-7.014320,-8.485406,0.958853,-0.267259,-0.039337,-0.087333
709,1.163387,-5.078278,8.200474,53.771488,1.662969,2.406202,-28.883526,-7.006325,-8.445838,0.962846,-0.252611,-0.040682,-0.086375
710,0.944693,-4.971273,8.138535,53.089108,4.240794,3.349776,-27.429543,-6.745685,-8.366936,0.966204,-0.240217,-0.039738,-0.084659
711,0.984121,-4.809922,7.951373,49.236103,6.002429,4.458408,-26.278627,-6.358436,-8.258512,0.968890,-0.230269,-0.037524,-0.082588
712,0.800259,-4.710204,7.917558,42.484402,7.529066,4.970470,-25.473566,-5.907876,-8.131223,0.970840,-0.223189,-0.034528,-0.080395
713,0.655692,-4.725374,7.924129,35.622040,9.211844,6.236626,-25.035185,-5.297489,-7.987590,0.972121,-0.219124,-0.029925,-0.077912
714,0.462692,-4.553967,8.084713,27.969296,10.000940,7.385454,-24.829916,-4.540493,-7.831927,0.972990,-0.216962,-0.023925,-0.075140
716,0.404148,-4.509100,8.222003,21.762299,10.011981,9.550486,-24.733295,-3.726800,-7.651968,0.973640,-0.215696,-0.017408,-0.072092
717,0.176015,-4.419948,8.568439,19.172636,10.070492,10.560329,-24.626469,-2.868221,-7.444807,0.974283,-0.214327,-0.010559,-0.068735
718,0.155998,-4.180872,8.797195,20.973083,9.379780,12.423018,-24.259441,-2.010024,-7.210060,0.975358,-0.210756,-0.003904,-0.065143
719,0.133957,-3.935716,9.018791,23.077280,7.544009,14.384499,-23.543615,-1.293159,-6.910779,0.976987,-0.204296,0.001268,-0.061298
720,0.177352,-3.654347,9.196543,26.147192,5.356528,15.947321,-22.506794,-0.766811,-6.532112,0.979084,-0.195201,0.004566,-0.057180
721,0.298960,-3.368691,9.340518,28.813732,3.119216,15.745733,-21.198385,-0.499733,-6.100727,0.981493,-0.183903,0.005507,-0.053106
722,0.316510,-3.119168,9.393275,30.476688,0.826223,14.904496,-19.733362,-0.459964,-5.654015,0.983968,-0.171341,0.004502,-0.049278
723,0.381172,-2.977923,9.495100,30.653215,-0.911709,13.429898,-18.268778,-0.575700,-5.216840,0.986247,-0.158810,0.002270,-0.045729
724,0.360870,-2.828194,9.509686,31.685225,-2.181279,11.112998,-16.882891,-0.784698,-4.821336,0.988226,-0.146950,-0.000593,-0.042609
725,0.259725,-2.676570,9.483156,32.576256,-3.035329,8.921412,-15.570045,-0.970151,-4.484627,0.989944,-0.135676,-0.003082,-0.039910
726,0.174290,-2.509279,9.423254,32.107159,-3.018913,7.456398,-14.341461,-1.065356,-4.199604,0.991427,-0.125075,-0.004644,-0.037512
727,0.110637,-2.394551,9.444366,30.445812,-2.643359,6.519517,-13.235956,-1.069922,-3.952106,0.992666,-0.115495,-0.005295,-0.035326
728,0.015366,-2.313379,9.463054,28.828140,-2.270356,5.721626,-12.285892,-0.982750,-3.732890,0.993664,-0.107226,-0.005037,-0.033299
729,-0.010604,-2.174031,9.456352,25.708567,-2.278526,5.306808,-11.481863,-0.841965,-3.533174,0.994462,-0.100206,-0.004223,-0.031407
730,0.070980,-2.110325,9.506849,21.435127,-2.232033,4.798841,-10.847027,-0.754548,-3.349108,0.995058,-0.094666,-0.003790,-0.029713
731,0.123670,-2.072654,9.558208,18.597221,-2.068540,3.471348,-10.393727,-0.759835,-3.196804,0.995463,-0.090725,-0.004074,-0.028379
732,0.177951,-2.013936,9.534835,16.058146,-1.504077,1.614293,-10.073002,-0.825848,-3.099397,0.995732,-0.087950,-0.004802,-0.027571
733,0.188751,-1.909527,9.625285,11.655846,-1.138181,-0.506782,-9.879539,-0.923364,-3.070065,0.995877,-0.086290,-0.005718,-0.027381
734,0.271335,-1.820333,9.723941,7.621577,-0.951103,-3.616704,-9.775501,-1.077239,-3.128726,0.995926,-0.085424,-0.007037,-0.028000
735,0.286817,-1.746187,9.716336,2.995809,-0.658842,-6.842623,-9.715659,-1.260156,-3.294156,0.995909,-0.084958,-0.008519,-0.029569
736,0.347003,-1.734070,9.686432,-3.872803,-0.119329,-9.963246,-9.797950,-1.438248,-3.566516,0.995753,-0.085740,-0.009842,-0.032074
737,0.312187,-1.705740,9.857931,-10.867872,-0.176335,-12.610815,-10.073447,-1.605126,-3.935093,0.995412,-0.088213,-0.010931,-0.035426
738,0.345286,-1.736274,9.793773,-14.745249,-0.697037,-14.284819,-10.487395,-1.763578,-4.373273,0.994918,-0.091899,-0.011827,-0.039396
739,0.375223,-1.787421,9.719483,-18.021364,-1.202508,-14.017855,-11.011009,-1.952185,-4.830682,0.994290,-0.096557,-0.012899,-0.043576
740,0.512976,-1.853180,9.809982,-18.068480,-1.436661,-12.655341,-11.563707,-2.204939,-5.258462,0.993593,-0.101495,-0.014502,-0.047567
741,0.460743,-1.912038,9.824234,-14.678967,-1.066555,-10.510042,-12.018852,-2.448953,-5.629769,0.992968,-0.105586,-0.016086,-0.051063
742,0.525121,-1.858700,9.633679,-10.806873,-1.021281,-7.583459,-12.286721,-2.637945,-5.922917,0.992539,-0.108028,-0.017328,-0.053814
743,0.524860,-2.033403,9.699997,-7.616919,-0.948524,-4.341005,-12.449654,-2.800781,-6.115850,0.992251,-0.109539,-0.018478,-0.055661
744,0.465289,-1.963678,9.748882,2.299474,-0.580879,-0.753624,-12.371497,-2.864229,-6.201133,0.992267,-0.108905,-0.018984,-0.056446
745,0.405142,-1.880230,9.628661,16.809340,-0.183801,4.971653,-11.817044,-2.803976,-6.141259,0.992827,-0.104066,-0.018789,-0.055781
746,0.448513,-1.779465,9.708141,31.067430,-0.931149,11.064680,-10.791128,-2.708254,-5.886240,0.993864,-0.095089,-0.018669,-0.053322
747,0.440225,-1.805039,9.786257,42.651611,-0.969103,15.038185,-9.428031,-2.629772,-5.458609,0.995135,-0.083156,-0.018931,-0.049327
748,0.400244,-1.486340,9.751770,50.698372,-0.096033,16.400854,-7.799532,-2.526437,-4.940984,0.996450,-0.068880,-0.019043,-0.044493
749,0.366664,-1.491477,9.758041,48.430782,0.932790,15.508241,-6.181653,-2.386418,-4.412614,0.997545,-0.054668,-0.018703,-0.039555
750,0.258674,-1.326507,9.795704,37.804554,1.061600,10.817673,-4.973896,-2.198125,-3.968002,0.998247,-0.044021,-0.017650,-0.035413
751,0.216078,-1.150790,9.809585,25.500921,1.108282,6.304139,-4.213315,-1.979261,-3.672652,0.998642,-0.037289,-0.016073,-0.032653
752,0.195326,-0.953924,9.825860,15.704482,0.976413,3.411112,-3.798587,-1.776851,-3.502234,0.998848,-0.033597,-0.014477,-0.031051
753,0.208590,-0.886841,9.829680,8.637879,0.610986,1.659456,-3.670153,-1.605044,-3.410056,0.998933,-0.032422,-0.013040,-0.030184
754,0.232552,-0.752528,9.849082,5.314688,-0.009564,1.052209,-3.658270,-1.503707,-3.358910,0.998963,-0.032287,-0.012174,-0.029709
755,0.260421,-0.717004,9.843360,3.943802,-0.306997,1.783151,-3.610819,-1.484251,-3.308484,0.998991,-0.031863,-0.012031,-0.029259
756,0.251166,-0.776693,9.888038,2.922118,-0.200165,1.448997,-3.644959,-1.486054,-3.250339,0.998996,-0.032155,-0.012054,-0.028756
757,0.224768,-0.768166,9.881272,3.739027,-0.000155,1.073652,-3.707769,-1.466419,-3.203689,0.998993,-0.032693,-0.011881,-0.028351
