seq,ax,ay,az,wroll,wpitch,wyaw,roll,pitch,yaw
1,0.867660,-1.083835,9.882708,-0.833499,1.163853,1.147066,-6.258605,-4.987707,0.272855
2,0.848743,-1.102094,9.861018,-0.794522,1.960661,1.751530,-6.289412,-4.930666,0.315344
3,0.882571,-1.097583,9.844851,0.003094,0.015454,1.516941,-6.306944,-4.891954,0.366064
4,0.888863,-1.051975,9.823972,2.244275,-0.795268,1.183884,-6.273450,-4.899943,0.412400
5,0.897576,-1.060125,9.862589,1.738687,-1.135682,1.462475,-6.211141,-4.927147,0.459920
6,0.918516,-1.065317,9.844906,1.548949,-2.081684,1.565808,-6.161194,-4.975016,0.516088
7,0.946054,-1.032820,9.806046,2.481814,-3.373203,1.051599,-6.098680,-5.060751,0.569378
8,0.954836,-1.024866,9.804379,2.053235,-3.468227,0.920292,-6.027108,-5.170671,0.614282
9,0.960789,-1.062645,9.828193,-0.248834,-3.013147,1.208589,-6.001295,-5.274381,0.661085
10,0.984440,-1.057244,9.820174,-0.078426,-3.422203,0.683766,-6.010718,-5.377741,0.703874
11,0.975431,-1.014000,9.854856,1.988697,-2.463776,-0.052449,-5.980852,-5.474205,0.724677
12,0.910045,-0.898004,9.912686,6.110752,0.401766,0.073239,-5.846238,-5.508357,0.728564
13,0.768567,-0.786825,9.853948,9.006297,5.551286,2.691509,-5.597719,-5.405044,0.764646
14,0.710522,-0.630720,9.766973,11.657527,6.628324,7.006362,-5.266453,-5.187632,0.906864
15,0.474017,-0.653932,9.841063,4.902212,10.735743,14.068576,-5.019008,-4.867837,1.232008
16,0.194094,-0.685595,9.788701,2.611165,17.100178,24.894161,-4.942710,-4.348995,1.840349
17,0.255585,-0.808330,9.895422,0.504423,12.054466,36.856327,-4.960681,-3.775900,2.825988
18,0.506417,-0.890528,9.752308,2.764693,-0.227415,48.649906,-4.995623,-3.455696,4.231153
19,0.477950,-1.443282,9.501713,-13.362304,-2.725816,60.422001,-5.281467,-3.342103,6.049039
20,0.775025,-1.512609,9.612222,-14.708533,-14.646063,66.787483,-5.875834,-3.422192,8.190166
21,0.965892,-1.391669,9.727591,-9.553820,-22.515827,70.512810,-6.429359,-3.792687,10.534960
22,0.972672,-1.248879,9.724247,-5.716794,-23.709211,75.294106,-6.861396,-4.277573,13.042507
23,1.002707,-1.422470,9.800270,-16.005360,-24.858767,80.076363,-7.434156,-4.759154,15.719262
24,1.200533,-1.098665,9.830580,-6.889428,-31.122753,82.207031,-8.062745,-5.316890,18.534462
25,1.209987,-1.110466,9.442519,-7.348508,-31.120567,87.698425,-8.591660,-5.934870,21.498260
26,1.396464,-1.478013,9.260945,-19.647129,-33.610199,92.969086,-9.383958,-6.529749,24.657154
27,1.497228,-1.812622,9.131724,-28.397856,-31.536478,95.962135,-10.575829,-7.050415,27.967175
28,1.414800,-1.833440,9.345736,-20.784075,-19.717567,97.149742,-11.811235,-7.261466,31.313538
29,1.325690,-2.120125,9.773775,-17.585049,-7.773149,98.775246,-12.858979,-7.013350,34.624588
30,1.147531,-2.534124,9.756807,-23.011034,0.905310,97.691048,-13.908860,-6.367820,37.856209
31,0.887683,-2.485725,9.833319,-14.308060,9.008234,93.397453,-14.842296,-5.416208,40.913723
32,0.644683,-2.658625,9.871730,-13.442570,12.175221,89.685936,-15.544423,-4.278106,43.774628
33,0.232872,-2.934940,9.760186,-17.116161,16.325048,87.330254,-16.225103,-3.014485,46.485680
34,-0.150775,-2.962323,9.552291,-14.821448,17.855793,83.864670,-16.860994,-1.655894,49.058525
35,-0.313671,-2.746262,9.607034,-0.624103,12.678288,80.274910,-17.161404,-0.369896,51.524471
36,-0.368043,-2.849097,9.561822,1.595383,4.469569,76.664040,-17.139753,0.671501,53.939247
37,-0.502866,-2.785910,9.444510,7.010284,1.564866,71.653122,-16.953779,1.491574,56.272427
38,-0.323795,-2.707438,9.273210,9.567321,-8.622733,61.173027,-16.612114,2.016985,58.426205
39,0.008442,-2.834503,9.148909,3.267493,-21.554731,48.276325,-16.332800,2.051335,60.318943
40,0.250616,-2.890784,9.058478,-2.333040,-28.734224,37.195389,-16.267675,1.647485,61.922085
41,0.294232,-2.813878,9.238398,-0.856910,-26.684368,29.544397,-16.290751,1.073398,63.249001
42,0.143080,-2.980850,9.832411,-4.632629,-16.218332,25.219688,-16.366447,0.643743,64.325836
43,-0.075086,-3.349276,10.663429,-12.583173,-2.915571,23.550941,-16.643679,0.569265,65.195923
44,-0.404947,-3.560637,11.087047,-18.308870,11.585036,25.336710,-17.148027,0.944927,65.933861
45,-0.734791,-3.768754,10.866089,-33.425034,23.294065,30.043995,-17.992605,1.778086,66.638802
46,-1.164283,-4.103785,10.186313,-59.946442,35.811375,37.521240,-19.516190,3.073311,67.388672
47,-1.678247,-4.143240,8.890717,-82.254059,49.404140,52.300358,-21.821865,4.930531,68.288719
48,-1.087091,-3.875351,7.567580,-92.054665,29.232655,57.169205,-24.605055,6.852029,69.453880
49,-0.541313,-3.320043,6.685433,-80.265900,1.177788,54.045212,-27.288330,8.115214,70.904739
50,-0.291840,-3.199432,6.776440,-54.649937,-17.505505,46.667122,-29.302536,8.667251,72.523293
51,0.047153,-3.246090,7.020451,-20.310972,-33.997849,31.431419,-30.318264,8.566038,74.094238
52,0.248755,-3.668222,7.506741,0.120292,-41.255733,11.760604,-30.476465,7.845128,75.360199
53,-0.698753,-4.066389,8.053827,14.287961,-15.034072,10.823278,-30.133108,7.223640,76.163895
54,-1.350160,-4.560884,8.714118,20.665340,2.354928,4.930305,-29.508028,7.169818,76.498352
55,-1.777940,-5.068789,9.409106,19.848286,9.829748,-4.627214,-28.844704,7.348858,76.402451
56,-1.955965,-5.478779,9.788221,10.209633,8.541514,-15.371852,-28.400703,7.457357,75.959396
57,-1.593205,-5.107111,9.703077,15.847226,-1.508044,-28.026844,-28.055344,7.217902,75.261124
58,-1.357682,-4.733976,9.406671,19.558506,-5.360164,-36.883892,-27.574167,6.611973,74.351532
59,-1.470424,-4.802852,9.198606,11.943484,-1.628614,-38.684101,-27.165947,5.929569,73.280495
60,-1.412032,-4.504782,8.616221,11.005205,-1.525737,-37.266724,-26.892401,5.306839,72.171928
61,-1.265555,-4.147624,8.291725,14.864011,-4.267012,-34.568657,-26.550957,4.682282,71.142235
62,-1.097404,-4.162551,8.479782,11.667595,-10.316571,-32.358727,-26.175985,3.969646,70.248154
63,-0.557579,-4.483622,9.013908,5.137600,-26.943462,-36.373032,-25.940823,2.908611,69.490921
64,0.077788,-4.603978,9.141158,1.599921,-41.308308,-40.821671,-25.851715,1.323381,68.830879
65,0.564292,-4.471563,8.970008,2.724883,-47.315601,-41.246925,-25.782383,-0.601563,68.243584
66,0.938027,-4.432431,9.052493,3.030417,-46.578163,-41.308487,-25.670244,-2.607854,67.683212
67,1.371721,-4.525325,9.197951,2.532836,-44.637447,-44.089699,-25.538204,-4.593206,67.055626
68,1.407576,-4.140461,8.758715,8.905082,-32.956535,-41.432724,-25.277826,-6.372368,66.319984
69,1.363495,-3.728147,8.674409,18.171457,-17.898329,-36.721985,-24.726068,-7.690392,65.490715
70,1.380739,-3.675595,9.109251,19.000795,-5.443003,-32.059402,-23.981716,-8.516865,64.596634
71,1.324536,-3.572235,9.131970,16.936470,3.504270,-23.808643,-23.254807,-8.919435,63.746086
72,1.205084,-3.355564,8.901066,15.743877,10.475377,-12.866680,-22.607960,-8.942953,63.083942
74,1.060657,-3.399519,8.969283,10.987329,20.552483,0.468218,-22.103254,-8.543062,62.691185
75,0.543092,-3.994108,9.324714,-5.060548,39.520638,20.933962,-21.998682,-7.481076,62.644867
76,0.289939,-4.240532,8.871343,-18.385803,45.951103,33.457981,-22.425323,-5.819788,62.946156
77,0.157238,-4.047025,8.676643,-14.324190,45.626137,37.836140,-23.014452,-3.953530,63.453064
78,-0.214294,-4.342411,9.301060,-17.705917,47.864349,43.504757,-23.581341,-1.987199,64.083138
79,-0.527743,-4.535485,9.664320,-18.538368,42.056225,41.690426,-24.197901,-0.042644,64.773979
80,-0.166589,-3.799230,9.121954,-0.023118,17.941481,26.303444,-24.500563,1.335137,65.393555
81,-0.300809,-3.423296,9.193233,15.379006,6.217855,18.581675,-24.230440,2.009722,65.910271
82,-0.434119,-3.612954,9.282356,13.608296,-3.220822,12.631683,-23.730726,2.266148,66.366600
83,-0.351968,-3.706429,9.237190,17.531162,-14.383060,2.612952,-23.198742,2.098181,66.717087
84,0.117240,-3.932251,9.010648,8.431421,-32.687134,-7.242686,-22.759382,1.345555,66.952888
85,0.194642,-4.020236,8.914048,3.510729,-35.822231,-6.461110,-22.557705,0.204061,67.183128
86,0.616474,-4.249696,9.051416,-2.969346,-41.803539,-13.429877,-22.550095,-1.117636,67.373619
87,0.946151,-4.415681,8.994883,-10.607604,-39.596859,-21.099457,-22.776619,-2.590967,67.365936
88,0.815185,-3.959447,8.600171,-5.172071,-23.446657,-21.686171,-23.026550,-3.836017,67.118385
89,0.450867,-3.632805,8.844769,6.986337,-0.768044,-16.815241,-22.965782,-4.457911,66.684044
90,0.441420,-3.765373,9.309323,4.570793,7.212819,-13.912578,-22.733549,-4.557414,66.168228
91,0.372751,-3.623305,9.190618,6.383737,11.501276,-4.760318,-22.519421,-4.389345,65.759621
92,0.404697,-3.336184,9.153653,16.860582,13.341385,5.917701,-22.122101,-3.998863,65.619781
93,1.014706,-3.485676,8.990462,3.385334,-9.877247,7.300703,-21.797560,-3.862571,65.803078
94,1.275552,-3.634476,8.696455,-5.992563,-16.682709,8.651365,-21.870323,-4.174179,66.215897
95,0.959260,-3.880357,8.649596,-13.945475,-1.815026,12.087562,-22.235144,-4.329867,66.653389
96,0.641993,-3.935622,8.907146,-12.027920,13.343596,14.116079,-22.691608,-3.985128,66.984886
97,0.301041,-4.130944,9.020350,-13.615985,24.818632,18.899033,-23.134809,-3.184999,67.245079
98,-0.121205,-4.140720,9.110439,-10.089403,34.180859,24.245951,-23.541901,-1.997338,67.516312
99,-0.301369,-3.992933,9.405069,0.326552,33.519123,23.856354,-23.711000,-0.642585,67.799248
100,-0.050538,-3.601328,9.331586,12.255204,18.295721,15.137756,-23.501839,0.408614,68.049927
101,0.163273,-3.492642,9.310749,14.606991,4.665811,4.801601,-23.052568,0.891189,68.205132
102,0.015573,-3.389907,9.276740,15.578819,3.573674,-5.187312,-22.550501,1.015117,68.146599
103,0.051171,-3.297586,8.979409,13.466006,-3.038039,-17.219954,-22.072104,0.881281,67.797859
104,-0.009314,-3.459250,9.044483,4.111414,-6.193491,-20.418127,-21.785307,0.503937,67.273773
105,-0.231052,-3.894782,9.215963,-8.144663,-1.570672,-13.479559,-21.855236,0.173426,66.797745
106,-0.348074,-4.163260,9.035521,-18.176020,1.583823,-6.946390,-22.294630,0.045246,66.482529
107,-0.098616,-4.055190,9.029191,-14.101112,-5.565044,-3.958336,-22.832600,-0.086145,66.340439
108,-0.224151,-4.157466,9.347326,-11.363071,0.485253,3.782682,-23.256947,-0.165370,66.370628
109,-0.037421,-4.180346,8.903462,-14.406282,-1.696818,3.421213,-23.686697,-0.136223,66.489052
110,0.193875,-4.011159,8.831469,-9.235416,-7.184144,-1.888725,-24.081030,-0.261211,66.572266
111,0.337760,-3.873942,9.091996,2.865722,-10.333311,-5.886314,-24.187262,-0.580586,66.573128
112,0.491308,-4.092778,9.116621,-0.128396,-12.733626,-9.241961,-24.140665,-1.034540,66.500137
113,0.522498,-4.175189,9.129670,-1.578785,-11.005614,-11.032217,-24.165884,-1.533830,66.353775
114,0.484380,-4.050200,9.302452,7.296130,-7.653361,-11.009287,-24.064327,-1.967766,66.145500
115,0.625599,-3.909472,8.998248,10.965351,-10.437660,-13.026239,-23.750738,-2.405623,65.901001
116,0.575570,-3.973234,8.834931,3.232229,-7.590364,-11.247148,-23.502609,-2.842978,65.650475
117,0.367284,-3.982403,9.027954,1.922067,0.350054,-6.133871,-23.405519,-3.069108,65.432671
118,0.469900,-3.903074,8.973476,3.513514,-1.556795,-5.211268,-23.306025,-3.162543,65.266754
119,0.527670,-3.816849,8.844784,2.972827,-2.619402,-4.111846,-23.191397,-3.287798,65.151276
120,0.386457,-3.896846,9.027740,0.042532,4.201369,0.546140,-23.137392,-3.286929,65.086174
121,0.399518,-3.933179,9.039028,-0.606830,4.428661,1.765018,-23.145649,-3.139538,65.065010
122,0.548512,-3.969715,8.880223,-3.029863,-1.565046,-0.848656,-23.206018,-3.089654,65.060257
123,0.514508,-4.035460,8.823967,-7.109970,0.471361,-1.027201,-23.373844,-3.118757,65.038681
124,0.423059,-4.179255,8.916394,-10.605938,5.291489,-0.000315,-23.666203,-3.037516,64.984589
125,0.460940,-4.250895,8.920140,-9.752697,4.651130,-1.160277,-24.001144,-2.893747,64.899918
126,0.452640,-4.227345,8.881374,-6.013152,4.646978,-1.475051,-24.258772,-2.770251,64.796333
127,0.343841,-4.141638,8.971024,1.200759,8.314149,0.314970,-24.334000,-2.581288,64.689751
128,0.355298,-4.021522,9.092779,9.739035,6.430834,0.005290,-24.147575,-2.354963,64.593758
129,0.339166,-3.791429,9.053991,17.408422,4.868742,0.054570,-23.692131,-2.182344,64.518417
130,0.317329,-3.590884,9.032884,16.635496,2.741460,0.422064,-23.123159,-2.062732,64.475433
131,0.284178,-3.557145,9.140173,13.798224,2.087118,1.610345,-22.615948,-1.975376,64.475433
132,0.315360,-3.516274,9.191856,12.376331,0.186574,1.794208,-22.181009,-1.918669,64.513451
133,0.307906,-3.502774,9.060342,8.647002,-0.348403,3.683490,-21.833485,-1.886927,64.599213
134,0.429834,-3.499891,9.039290,6.676007,-5.208738,3.644331,-21.583031,-1.927731,64.747002
135,0.501438,-3.460410,8.996756,3.846395,-7.496838,3.566299,-21.414330,-2.080661,64.936630
136,0.517285,-3.330433,8.932632,1.928963,-5.617619,4.822800,-21.325996,-2.233208,65.146675
137,0.596181,-3.351832,8.918690,-4.659387,-7.141949,4.147473,-21.380190,-2.376799,65.363548
138,0.665612,-3.307866,9.043483,-7.457191,-7.918553,2.117343,-21.590330,-2.572016,65.552879
139,0.638562,-3.350410,9.142987,-10.801497,-5.617634,1.418098,-21.901125,-2.759670,65.691360
140,0.565005,-3.509833,9.214808,-14.456570,-2.259459,1.577872,-22.326794,-2.862431,65.787239
141,0.579756,-3.658318,9.227111,-15.550144,-0.974989,0.923894,-22.829868,-2.896135,65.846642
142,0.462698,-3.824651,9.159822,-17.311832,3.175097,3.151330,-23.379961,-2.835710,65.894814
143,0.345352,-4.081987,9.161908,-20.078157,6.316138,6.129230,-24.006826,-2.628717,65.973152
144,0.349794,-4.250556,9.092009,-19.255428,5.047968,6.340197,-24.667229,-2.370562,66.084709
145,0.433605,-4.339717,8.992636,-16.060589,1.385239,4.780991,-25.260719,-2.195180,66.207550
146,0.414411,-4.383605,8.807419,-14.239974,0.379675,4.186613,-25.770340,-2.104293,66.329720
147,0.369741,-4.266521,8.729214,-9.338875,0.611499,2.708851,-26.166796,-2.039132,66.425842
148,0.264456,-4.273874,8.781787,-8.846683,3.157610,2.059671,-26.471388,-1.947583,66.469246
149,0.203895,-4.354939,8.805339,-11.082922,4.497013,1.332377,-26.803310,-1.808165,66.462624
150,0.077353,-4.412559,8.766184,-12.521473,7.095879,2.048946,-27.195583,-1.610396,66.425117
151,0.026434,-4.532006,8.935567,-11.379052,7.259926,2.182337,-27.592682,-1.365510,66.377678
152,0.095177,-4.825828,8.920027,-14.075607,4.075116,1.035892,-28.016022,-1.173386,66.337013
153,0.243189,-4.904512,8.608987,-12.245291,-0.803509,-1.976939,-28.453890,-1.132792,66.297256
154,0.167081,-4.848413,8.398043,-11.036576,1.206064,-0.508056,-28.841112,-1.146747,66.257507
155,0.135250,-4.848814,8.377462,-9.693674,2.614657,0.967746,-29.186142,-1.087349,66.233383
156,0.178623,-4.851342,8.227868,-10.254496,1.147595,-0.364398,-29.518209,-1.027779,66.211456
157,0.131891,-4.681055,8.174686,-8.237820,2.820822,-0.089970,-29.825727,-0.974052,66.172096
158,0.066106,-4.668894,8.382536,-8.434276,4.973483,1.702893,-30.102928,-0.848067,66.130531
159,0.100204,-4.735596,8.505499,-9.593022,3.895692,0.481593,-30.402817,-0.702047,66.087570
160,0.162101,-4.805178,8.555468,-9.449352,1.774021,-1.640642,-30.719423,-0.630493,66.022842
161,0.135087,-4.855601,8.609200,-8.401031,1.906495,-1.690316,-31.016056,-0.606306,65.943642
162,0.096487,-4.881824,8.558794,-8.174810,2.303516,-0.964886,-31.291553,-0.569145,65.869461
163,0.073337,-4.958666,8.466489,-10.365769,1.934265,-0.192024,-31.600063,-0.518956,65.816177
164,0.049389,-5.083281,8.385127,-14.780722,1.700259,1.031851,-32.019005,-0.460128,65.796150
165,0.019212,-5.121037,8.292845,-17.156528,1.661349,2.282368,-32.551411,-0.383303,65.812912
166,0.058115,-5.213260,8.346908,-17.281349,-0.343839,2.580787,-33.125710,-0.320941,65.869118
167,0.163092,-5.368738,8.394725,-16.424736,-4.402758,1.571520,-33.688065,-0.348934,65.970375
168,0.246904,-5.457383,8.252090,-16.209900,-7.936835,-0.403183,-34.232971,-0.508695,66.101257
169,0.268838,-5.591625,8.267864,-15.770008,-8.848177,-0.823064,-34.767544,-0.750830,66.242714
170,0.245461,-5.834861,8.282226,-16.177696,-7.757930,0.649600,-35.302361,-0.979113,66.399193
171,0.246132,-5.980885,8.082664,-15.913625,-6.787278,1.377067,-35.840309,-1.156660,66.567787
172,0.209833,-6.033783,7.920897,-14.617156,-4.193386,1.951792,-36.352364,-1.271852,66.720512
173,0.249089,-6.053118,7.961903,-9.569817,-3.200634,1.575460,-36.758202,-1.335804,66.841232
174,0.280040,-6.015730,7.914055,-4.250005,-3.289824,1.034501,-36.990906,-1.396251,66.940964
175,0.362319,-5.988416,7.866320,0.120391,-4.997663,-0.752494,-37.061932,-1.503729,67.027885
177,0.360721,-5.948892,7.931752,4.776004,-3.757818,-1.342387,-36.981998,-1.641283,67.087860
178,0.406081,-5.952034,8.042480,7.606620,-4.193099,-3.166335,-36.776207,-1.792406,67.107231
179,0.404364,-5.842354,8.054364,11.234967,-2.836219,-4.591610,-36.461090,-1.963584,67.073311
180,0.352032,-5.707497,8.077081,13.827230,0.550055,-4.269441,-36.040001,-2.081671,66.976624
181,0.249874,-5.498475,8.073414,17.718418,4.709783,-2.367074,-35.509171,-2.075245,66.835449
182,0.238795,-5.283261,8.073915,21.396448,4.896387,-2.098447,-34.851875,-1.987261,66.682106
183,0.111878,-5.183557,8.150671,21.326618,8.494121,2.193116,-34.135723,-1.802389,66.556976
184,-0.002959,-5.297154,8.315989,15.000078,10.039974,8.081657,-33.529522,-1.450386,66.526947
185,0.061871,-5.319716,8.442661,13.335112,4.398331,8.311649,-33.059532,-1.099107,66.622894
186,0.110018,-5.190531,8.529032,16.799385,-0.641855,8.191164,-32.560856,-0.897334,66.820267
187,0.076783,-5.249341,8.615930,9.749355,-3.300708,10.360641,-32.122852,-0.787398,67.116898
188,0.236645,-5.182768,8.578186,8.423666,-9.400791,8.829348,-31.825325,-0.797352,67.500313
189,0.408613,-4.894218,8.393975,11.978517,-14.680490,4.969549,-31.491901,-1.018190,67.906898
190,0.486976,-4.819314,8.423540,10.905186,-14.767871,2.762303,-31.118330,-1.370694,68.272186
191,0.503316,-4.926847,8.716787,13.903331,-10.918988,-0.492314,-30.711750,-1.718560,68.524742
192,0.632700,-4.810619,8.622704,18.449718,-8.034579,-7.123441,-30.174307,-2.055402,68.575272
193,0.550751,-4.751121,8.414536,13.792498,2.732225,-8.260124,-29.630417,-2.260115,68.396873
194,0.318749,-4.660021,8.496757,15.000807,14.881523,-7.307155,-29.136543,-2.131931,68.026207
195,0.099614,-4.632174,8.281354,10.000055,23.953499,-3.427747,-28.704601,-1.652078,67.555984
196,-0.053211,-4.702995,8.189455,0.813324,26.746841,1.330324,-28.514877,-0.927220,67.120110
197,-0.267294,-5.123818,8.210773,-16.431501,28.360935,7.631076,-28.772835,-0.049875,66.810379
198,-0.303290,-5.431373,8.215295,-25.265043,25.492785,8.806236,-29.469555,0.866974,66.611923
199,-0.230752,-5.774467,8.064494,-35.109451,19.338085,5.396286,-30.479517,1.632112,66.442963
200,-0.209221,-5.879509,8.079590,-33.681076,13.987366,0.250951,-31.632639,2.156240,66.235916
201,-0.135594,-5.857167,7.739611,-33.716774,8.150266,-7.164929,-32.767365,2.407149,65.941048
202,-0.158916,-5.622653,7.585241,-26.984165,6.285116,-12.719726,-33.795990,2.426649,65.530930
203,-0.206335,-5.458284,7.604001,-19.142075,5.772329,-15.793415,-34.585567,2.326292,65.024193
204,-0.233315,-5.467800,7.733676,-12.568622,5.619825,-17.002432,-35.135857,2.170079,64.466576
205,-0.273055,-5.602726,7.686033,-11.591348,6.689710,-18.590387,-35.560390,1.994523,63.863544
206,-0.321980,-5.675951,7.649889,-8.902294,8.217115,-19.090168,-35.923820,1.829437,63.208336
207,-0.219770,-5.691728,7.728539,-2.740463,5.851509,-20.397236,-36.138165,1.632101,62.537903
208,-0.265225,-5.810704,7.849820,0.961451,7.318642,-17.707052,-36.184879,1.434886,61.895332
209,-0.240819,-5.903678,7.733472,0.610865,7.070359,-16.083267,-36.172989,1.296187,61.298981
210,-0.186759,-5.902425,7.647086,1.230306,6.198246,-15.024745,-36.154137,1.168770,60.749805
211,-0.251534,-5.932528,7.680444,1.745665,8.336521,-12.253390,-36.114609,1.096356,60.239693
212,-0.350598,-5.985238,7.788065,2.203767,10.721716,-7.903462,-36.057911,1.155196,59.781013
213,-0.239131,-6.015828,7.751719,0.229397,6.930769,-7.912980,-36.025589,1.238014,59.394665
214,-0.227631,-6.048083,7.801770,-0.747842,4.656008,-6.858604,-36.040943,1.249307,59.081898
215,-0.261987,-5.924724,7.930279,2.599964,3.839734,-3.745104,-36.015011,1.259849,58.855637
216,-0.183785,-5.792121,7.990073,7.736438,-0.702365,-2.415949,-35.845238,1.241995,58.741772
217,-0.107670,-5.687628,7.979160,9.597433,-4.583238,-1.658826,-35.556389,1.130915,58.738060
218,-0.150275,-5.573109,8.046686,13.507250,-4.157745,2.833669,-35.169407,1.023505,58.838402
219,-0.215950,-5.316479,8.128765,22.397697,-2.869777,7.821830,-34.567146,1.029003,59.050991
220,-0.191949,-5.292795,8.256637,19.571634,-5.041990,9.652637,-33.861824,1.083734,59.365845
221,-0.084282,-5.275496,8.357362,19.994015,-9.125884,8.195709,-33.195408,1.051406,59.744331
222,-0.192770,-5.109137,8.446105,24.275501,-6.257544,8.750546,-32.451023,0.989084,60.120884
223,-0.171217,-5.039997,8.455132,23.370501,-5.242347,6.237709,-31.651571,0.959028,60.434189
224,-0.148138,-5.106743,8.500774,17.588726,-3.940840,3.338004,-30.965443,0.911064,60.650108
225,-0.115798,-5.014862,8.469936,15.901658,-2.990570,0.228969,-30.405624,0.841989,60.760235
226,-0.209322,-4.904554,8.608006,17.352861,1.934932,0.469323,-29.851145,0.832500,60.779182
227,-0.143069,-4.924897,8.562862,11.345215,0.073780,-1.809342,-29.373373,0.850478,60.743027
228,-0.174104,-4.796487,8.688768,14.187111,1.114641,-2.112696,-28.948818,0.835871,60.676380
229,-0.334995,-4.709833,8.705409,14.025108,6.615617,1.729351,-28.479677,0.945783,60.608845
230,-0.230825,-4.758884,8.763328,8.818895,0.443186,0.540631,-28.099384,1.067332,60.586166
231,-0.352243,-4.931977,8.774302,0.749931,0.301459,3.555387,-27.938877,1.110401,60.640736
232,-0.345986,-5.052362,8.919298,-2.255876,-4.289498,5.805997,-27.960684,1.124878,60.809708
233,-0.320537,-4.918339,8.824612,0.564314,-9.580150,6.919010,-27.983381,1.020227,61.105480
234,-0.051962,-4.946215,8.780385,1.115182,-19.067619,2.043283,-27.950205,0.668506,61.461311
235,-0.202400,-4.834766,8.599654,3.688270,-13.890669,3.546214,-27.867775,0.226690,61.800766
236,-0.162698,-4.543441,8.492689,11.644437,-11.743773,2.104923,-27.611843,-0.107669,62.082867
237,-0.032831,-4.421779,8.307501,10.630207,-9.399945,-1.084973,-27.241440,-0.412823,62.260052
238,0.090636,-4.694695,8.522583,0.933686,-7.042071,-2.420093,-27.049494,-0.683411,62.333111
239,-0.071987,-4.319359,8.619617,9.709771,3.638196,2.684487,-26.872507,-0.731958,62.362930
240,-0.220375,-4.210090,9.097354,15.059617,7.909225,7.021600,-26.460276,-0.487396,62.420929
241,-0.016905,-4.109671,9.155399,21.380976,2.487069,9.378656,-25.853989,-0.211344,62.589809
242,0.106348,-3.982381,9.315920,22.502735,-4.810560,10.139601,-25.123623,-0.106198,62.900402
243,-0.011152,-3.687021,9.233809,31.369438,-4.294985,12.399219,-24.226662,-0.087107,63.305431
244,0.306228,-3.752409,9.234658,29.552937,-14.446230,9.808638,-23.212601,-0.224317,63.769814
245,0.696095,-3.741574,8.999376,24.767603,-26.128582,4.522524,-22.311798,-0.755255,64.252449
246,0.598329,-3.785591,8.929019,17.969332,-20.977375,3.248598,-21.607973,-1.434754,64.667213
247,0.677380,-3.776604,8.933204,12.963318,-18.835997,1.872386,-21.102186,-2.021588,64.988571
248,0.504984,-3.848349,8.998086,5.643570,-8.839706,4.933843,-20.802629,-2.411728,65.259789
249,0.389246,-3.805725,9.019144,-2.266048,-2.889456,5.509305,-20.756170,-2.532620,65.492058
250,0.376855,-3.767727,9.180304,-1.948521,-1.452958,3.655812,-20.833809,-2.545921,65.660774
251,0.237161,-3.561191,9.342375,7.030037,3.366763,2.630264,-20.752911,-2.478902,65.747475
252,-0.005984,-3.484694,9.447442,9.598345,8.927447,3.153161,-20.476480,-2.253256,65.765587
253,0.113830,-3.176823,9.594345,18.929796,6.173817,1.485984,-20.000444,-1.990396,65.750984
254,0.159690,-3.077787,9.686167,22.121672,4.025172,2.591936,-19.316494,-1.807477,65.758095
255,-0.114549,-2.983377,9.588786,22.613798,10.683611,4.872068,-18.572073,-1.535153,65.796318
256,0.325705,-2.899354,9.464749,23.735394,-2.909600,1.980607,-17.801331,-1.376421,65.864029
257,0.467551,-2.837323,9.476698,20.144733,-9.948831,0.960829,-17.072987,-1.566111,65.975838
258,0.384139,-2.982945,9.399848,6.990929,-7.573097,2.239824,-16.624821,-1.830050,66.112007
259,0.494730,-3.065663,9.384454,-1.743510,-9.796884,0.954277,-16.541910,-2.092165,66.245895
260,0.728194,-3.113394,9.410492,-3.630950,-12.142958,-0.507330,-16.635941,-2.440398,66.357697
261,0.343303,-3.197056,9.433105,-12.341214,2.702100,2.291975,-16.905426,-2.582449,66.431686
262,0.453347,-3.264508,9.202329,-19.120382,0.344078,0.429644,-17.430996,-2.520471,66.460457
263,0.391137,-3.338176,9.037127,-20.237768,3.248718,-1.567248,-18.085356,-2.469175,66.423958
264,0.079231,-3.324117,8.817664,-24.085115,12.024338,-1.605721,-18.818661,-2.244328,66.293213
265,-0.078653,-3.181409,8.819890,-20.787020,15.440122,0.579638,-19.560631,-1.817550,66.126892
266,-0.024593,-3.233374,8.897993,-20.867863,10.858652,1.403576,-20.251610,-1.394205,66.009003
267,-0.251574,-3.132398,9.082226,-13.750308,14.057540,4.069007,-20.827343,-0.973473,65.948509
268,-0.043543,-3.053389,9.229695,-5.561469,4.898194,4.882743,-21.149626,-0.625104,65.975044
269,0.055611,-2.835585,9.401859,6.877156,-0.510106,6.586647,-21.129292,-0.488063,66.126984
270,0.073400,-2.943462,9.387491,6.848017,-2.273122,7.802847,-20.902580,-0.445489,66.367615
271,0.243609,-2.889956,9.215123,9.271255,-8.421557,6.374073,-20.636374,-0.528334,66.651779
272,0.357296,-2.849283,9.025854,10.623517,-12.371902,4.788286,-20.308317,-0.787966,66.947403
273,0.531395,-2.907261,9.029991,9.887762,-15.997436,1.797089,-19.971161,-1.194110,67.213356
274,0.509718,-3.215371,9.167809,4.503221,-14.516547,-0.389591,-19.736313,-1.664493,67.408318
275,0.532394,-3.144840,9.257589,9.621880,-11.172773,-2.271533,-19.504318,-2.082644,67.510536
276,0.445017,-3.337051,9.270913,2.404648,-4.109190,-1.929017,-19.304659,-2.346217,67.528931
277,0.294445,-3.612224,9.377756,-3.907744,3.056706,0.659923,-19.329157,-2.369786,67.514793
278,0.132327,-3.604936,9.331177,-6.021070,10.063231,2.045979,-19.493462,-2.148569,67.484673
280,0.224378,-3.664917,9.170548,-9.825304,4.212723,0.999241,-19.756424,-1.907407,67.452583
281,0.308059,-3.816556,9.006730,-16.439020,-0.864935,-0.931460,-20.193565,-1.854610,67.434387
282,0.369478,-3.760382,9.151955,-8.410628,-2.100889,-2.805073,-20.606346,-1.922655,67.393028
283,0.387720,-3.604113,9.198074,1.476117,-1.232623,-5.229384,-20.718279,-2.021825,67.287186
284,0.410486,-3.535187,9.240381,5.508473,-0.843935,-6.423792,-20.595751,-2.122627,67.117485
285,0.296082,-3.446600,9.256778,8.224546,3.918277,-6.498677,-20.358679,-2.149931,66.897621
286,0.221818,-3.310258,9.217876,10.337619,6.321061,-6.164571,-20.039934,-2.062631,66.640366
287,0.139819,-3.259443,9.320745,9.783176,7.675085,-4.420230,-19.696144,-1.903174,66.395004
288,0.140272,-3.138344,9.294684,12.801770,8.213679,-3.488445,-19.313091,-1.697551,66.182182
289,0.256422,-3.168099,9.248419,7.136717,2.388407,-3.706837,-18.975931,-1.569888,66.010902
290,0.268981,-2.997462,9.368872,11.759643,1.024184,-2.269355,-18.657879,-1.548208,65.898331
291,0.376793,-3.043290,9.394673,7.890485,-3.875300,-1.325068,-18.329224,-1.612196,65.856598
292,0.402575,-2.944679,9.243681,6.067991,-4.810554,-0.992843,-18.096815,-1.761736,65.865265
293,0.424355,-2.981698,9.266456,1.157078,-4.128318,-0.168079,-17.977283,-1.909374,65.893059
294,0.277179,-2.778010,9.204505,7.667430,2.570125,2.639801,-17.831779,-1.921407,65.940315
295,0.254843,-3.014915,9.121386,-4.612638,3.486117,2.946099,-17.782711,-1.796850,65.998024
296,0.210401,-2.931916,9.078330,-2.664877,3.625085,3.054343,-17.905767,-1.653334,66.056808
297,0.313513,-2.929615,9.194071,-0.850120,-0.203870,5.701448,-17.967749,-1.554153,66.178162
298,0.187390,-3.087525,9.208900,-6.828944,3.528989,8.555179,-18.101219,-1.427929,66.387016
299,0.348718,-3.286906,9.214823,-13.208920,-2.824983,6.853961,-18.440922,-1.336193,66.627258
300,0.463560,-3.009054,9.122869,-6.127711,-6.893075,5.967288,-18.769426,-1.421419,66.881325
301,0.410892,-3.285299,9.241735,-16.754808,-4.842634,6.955720,-19.157768,-1.536546,67.148529
302,0.482860,-3.407880,9.003527,-23.325077,-6.906880,1.345858,-19.831190,-1.674770,67.344513
303,0.562384,-3.194886,8.700565,-20.646690,-8.134580,-0.244099,-20.567362,-1.903376,67.448227
304,0.587643,-3.340680,8.499763,-29.789343,-8.830013,-1.518900,-21.410580,-2.177832,67.521973
305,0.697178,-3.818884,8.095448,-51.366734,-11.224161,-5.409525,-22.763851,-2.530808,67.540779
306,0.699554,-3.733562,7.516157,-53.821548,-10.226424,-6.522957,-24.514851,-2.937658,67.502090
307,0.468382,-3.863981,7.386703,-58.784027,0.480584,-3.262757,-26.387030,-3.154152,67.424667
308,0.609590,-4.326379,7.246222,-72.146454,-4.013291,-5.195022,-28.563183,-3.271130,67.328232
309,0.520547,-4.458466,7.240818,-68.100159,1.036362,-5.850775,-30.891655,-3.405592,67.192139
310,0.372239,-4.662775,7.593122,-55.164902,7.159205,0.927003,-32.936958,-3.332470,67.050735
311,0.294727,-4.851672,7.976077,-40.881100,9.195422,-0.452916,-34.529282,-3.101664,66.907135
312,0.219923,-5.358323,8.076280,-38.379189,8.612882,3.309963,-35.843185,-2.831272,66.775208
313,0.297555,-5.195580,8.086587,-19.728725,5.635031,-0.285653,-36.806862,-2.610426,66.675278
314,0.204110,-5.573802,7.993590,-19.863457,6.378692,4.193702,-37.463619,-2.411275,66.606239
315,0.031683,-5.491923,7.940262,-12.868774,10.003794,4.216305,-38.006989,-2.109719,66.550102
316,0.166566,-5.962785,7.686775,-24.742121,5.383047,4.565347,-38.632275,-1.817661,66.506157
317,0.295277,-5.730087,7.455155,-18.092447,2.006950,-0.975241,-39.345253,-1.684473,66.474762
318,0.033964,-6.210689,7.630480,-23.934895,8.578134,5.174871,-40.044003,-1.503905,66.415665
319,0.247535,-6.257536,7.552764,-21.440903,2.704633,-0.378518,-40.798779,-1.308976,66.354958
320,-0.033829,-6.336609,7.599539,-18.101282,8.619875,4.157176,-41.456104,-1.125360,66.277832
321,0.201386,-6.326081,7.698376,-11.830421,2.735176,-2.443879,-41.953091,-0.965034,66.173637
322,0.168442,-6.785310,7.774766,-18.310959,1.804269,-2.417358,-42.453491,-0.963334,66.062531
323,0.107322,-6.838277,7.536753,-19.815628,3.042035,-2.803771,-43.086910,-0.963208,65.943764
324,-0.289615,-6.915380,7.531297,-19.173037,12.521839,3.839028,-43.734207,-0.762880,65.778053
325,0.336988,-7.187273,7.444970,-23.311577,-0.784976,-8.596365,-44.439953,-0.677453,65.585548
326,-0.036754,-7.500357,7.211893,-31.066000,6.949594,-2.055205,-45.343502,-0.730039,65.386307
327,-0.072090,-7.575283,7.584019,-19.590969,9.323304,-0.863771,-46.185268,-0.575755,65.158737
328,0.292029,-7.592843,7.674175,-11.420021,1.674864,-8.114026,-46.699799,-0.557632,64.923080
329,0.277144,-7.858787,7.815151,-8.207259,1.853746,-7.732725,-47.024261,-0.710028,64.699188
330,0.097312,-7.967737,7.584875,-7.886333,5.193282,-2.334633,-47.289925,-0.753141,64.498924
331,0.077306,-7.723000,7.858325,6.587658,5.454905,-0.243267,-47.309685,-0.664381,64.339478
332,0.113583,-7.650894,7.259918,0.830080,2.703966,0.666042,-47.185059,-0.566732,64.244492
333,0.008915,-7.682515,7.352687,2.056850,3.015139,3.778533,-47.136787,-0.447621,64.224945
334,0.149715,-7.673589,7.142655,-0.048581,-1.529762,2.433490,-47.103703,-0.354899,64.277260
335,0.255863,-7.574450,7.149652,2.416058,-5.246665,-0.377181,-47.064976,-0.406690,64.383293
336,0.294721,-8.045102,7.007334,-10.195687,-5.219946,-0.499758,-47.195637,-0.536099,64.501213
337,0.321726,-8.110942,7.190659,-13.458455,-3.674424,-1.592608,-47.590763,-0.662009,64.586830
338,0.412018,-8.242868,7.995633,-8.284616,-3.705821,-3.494056,-47.953602,-0.807379,64.620987
339,0.664139,-8.577895,8.484444,-16.169935,-6.169135,-8.368773,-48.361034,-1.064437,64.611595
340,0.419153,-9.082552,9.228412,-20.255123,1.186158,-2.634171,-48.966934,-1.256938,64.552818
341,0.424767,-9.015204,9.494907,-16.507135,2.762598,-2.278071,-49.577415,-1.275973,64.449974
342,0.308023,-9.708153,9.090119,-30.768095,4.496909,2.317919,-50.363323,-1.197575,64.357788
343,0.039313,-10.040517,8.047048,-40.000435,9.509677,13.124319,-51.542408,-0.850853,64.338806
344,-0.121012,-9.756383,7.585809,-22.884020,13.043784,20.127653,-52.590839,-0.183005,64.383781
345,-0.240158,-9.711334,6.379241,-26.061525,11.708387,22.841473,-53.406155,0.636962,64.486740
346,-0.643904,-9.445653,5.924955,-11.296087,12.891860,31.606329,-54.024830,1.610853,64.693184
347,-0.272657,-8.837141,5.901954,26.983082,2.832624,19.103422,-53.753365,2.447595,64.981094
348,-0.111825,-8.438053,5.136341,31.694952,-0.340524,6.504399,-52.765530,2.813603,65.205971
349,-0.632000,-7.745835,4.903685,41.992889,3.998806,16.674715,-51.527679,3.155548,65.396088
350,-0.442163,-6.565744,4.965712,73.608917,-2.431450,8.600034,-49.586914,3.497485,65.643173
351,0.289297,-6.040823,5.189603,84.700165,-18.854643,-18.852203,-46.940884,3.133290,65.796547
352,-0.111850,-5.494884,4.797371,57.376579,-6.660635,-5.636712,-44.573608,2.543067,65.822105
353,-0.437998,-4.678467,5.330846,71.971901,0.932422,3.948996,-42.416729,2.454667,65.865509
354,-0.064304,-4.193166,5.052712,64.331650,-9.601406,-11.409553,-40.145901,2.264439,65.865395
355,-0.167995,-4.215932,5.178014,46.500072,-5.571562,-8.321306,-38.302788,1.859914,65.773582
356,-0.177510,-4.051920,4.819929,25.797073,-4.171767,-6.786679,-37.101173,1.577355,65.673492
357,-0.095543,-3.816833,6.181219,66.726509,-9.432486,-10.504652,-35.561691,1.223884,65.575890
358,-0.077720,-4.398968,6.453790,46.418362,-7.566805,-12.579213,-33.679146,0.772609,65.419945
359,0.110777,-4.639354,7.562174,47.031326,-9.396922,-15.513842,-32.124336,0.280408,65.181076
360,-0.166420,-4.751186,8.147385,40.521591,1.814489,-9.657513,-30.666035,-0.046086,64.889206
361,-0.369445,-4.718549,8.802773,37.679035,7.498893,-1.764725,-29.363085,-0.007109,64.645576
362,-0.527207,-4.956332,8.308575,7.247773,13.354483,3.244280,-28.614960,0.309170,64.497879
363,-0.270043,-4.607100,8.757080,15.617717,4.798306,5.987194,-28.234081,0.648238,64.488068
364,-0.448152,-4.826420,8.617590,0.307422,8.486468,10.485289,-27.966867,0.973045,64.626350
365,-0.180825,-4.985870,8.043557,-10.112931,-3.467423,5.704317,-28.126570,1.173936,64.824722
366,-0.278860,-4.910707,7.957853,-8.503601,-1.685290,4.079401,-28.433279,1.175696,65.008743
367,-0.207531,-4.824193,8.442282,0.808941,-4.520051,1.479762,-28.558882,1.129036,65.139565
368,-0.257567,-4.805932,8.444464,3.244560,-1.699448,1.285342,-28.489641,1.059886,65.229500
369,-0.393157,-4.809324,8.192692,-0.745477,2.519102,2.881478,-28.446953,1.104975,65.284019
370,-0.112921,-4.670274,8.797434,4.118839,-6.293077,-1.776214,-28.389837,1.058436,65.330132
371,-0.312155,-4.960717,8.748465,-7.186768,1.025838,2.632843,-28.440039,0.988005,65.384506
372,-0.173009,-4.737023,8.363294,-10.559086,-1.578847,0.911988,-28.734779,1.008225,65.440887
373,-0.261040,-4.813820,8.136415,-17.874710,-0.050823,3.380639,-29.207342,1.019135,65.516556
374,-0.156741,-4.435273,7.874489,-14.257867,-4.364937,2.911496,-29.740608,1.006654,65.644165
375,0.093750,-4.515830,7.429747,-23.819933,-12.160468,-0.983465,-30.372671,0.784268,65.809799
376,0.414847,-3.958585,6.539664,-23.394810,-21.244282,-10.071491,-31.158543,0.211746,65.936012
377,0.198611,-4.477290,6.684686,-38.657310,-10.659953,-3.285009,-32.193016,-0.357442,66.025040
378,0.421374,-4.178470,6.279167,-33.128944,-13.493834,-10.477298,-33.389492,-0.819906,66.051811
379,0.652503,-4.796690,6.567380,-47.006042,-14.684559,-17.196117,-34.722675,-1.466803,65.931953
380,0.330424,-5.279397,7.315802,-45.630264,0.828254,-10.664141,-36.259281,-1.923941,65.688095
381,-0.241109,-5.865431,8.150798,-38.686939,16.429893,1.745467,-37.655319,-1.782995,65.398079
383,0.386158,-5.453703,7.909851,-21.409376,2.614261,-13.262409,-38.646851,-1.651856,65.053047
384,-0.212452,-5.988298,7.889873,-32.635880,16.268545,-1.338455,-39.536118,-1.560379,64.664307
385,-0.275108,-5.803597,7.641637,-23.902342,16.054068,2.277656,-40.471008,-1.138051,64.331055
386,-0.148656,-5.769969,6.917706,-27.130325,10.579294,0.939764,-41.317474,-0.767415,64.081398
387,0.145655,-5.747304,6.620411,-27.771965,0.930246,-4.520068,-42.230259,-0.664340,63.908710
388,-0.487856,-6.347878,6.343766,-46.348057,12.640793,13.692874,-43.464981,-0.394749,63.866268
389,0.392941,-6.594324,6.543365,-40.365246,-12.107944,-2.650853,-44.910870,-0.260655,63.993553
390,0.333681,-6.695065,6.579398,-32.391262,-10.740419,0.000662,-46.125320,-0.559635,64.231285
391,0.078996,-6.913414,6.573720,-32.053215,-4.703192,9.119920,-47.202209,-0.625933,64.522873
392,0.360522,-7.101920,6.929688,-22.733700,-11.002961,4.425662,-48.118809,-0.635504,64.869240
393,0.463691,-7.079944,6.944765,-16.046078,-13.565810,2.825545,-48.770187,-0.817019,65.255325
394,0.000335,-7.350168,7.117139,-12.608175,-3.057783,13.356361,-49.253231,-0.795394,65.641151
395,-0.218218,-7.694952,7.021793,-15.697768,0.078275,19.486916,-49.728718,-0.411541,66.035004
396,-0.275403,-7.901659,7.144752,-11.364693,-0.178726,18.544554,-50.180801,0.072641,66.444221
397,-0.353503,-8.313520,6.974628,-15.655124,0.222361,18.100943,-50.629040,0.543597,66.833054
398,-0.354197,-8.973136,7.252345,-12.721362,-0.632145,13.365350,-51.097572,0.946185,67.169220
399,-0.267442,-8.863423,6.837207,-8.481983,-2.465956,7.695310,-51.446140,1.187706,67.429070
400,-0.100089,-9.146564,6.865366,-8.921873,-4.287253,-0.514014,-51.732872,1.211535,67.591591
401,-0.254755,-9.028872,6.808782,-2.530672,0.383358,-1.103286,-51.923126,1.150216,67.625938
402,0.107995,-9.004084,6.680705,-2.529768,-2.386102,-14.031715,-52.009823,0.931008,67.496796
403,-0.099410,-8.506362,6.557086,2.260779,5.966136,-12.273021,-52.018578,0.622227,67.179840
404,0.094469,-8.428869,7.030865,9.768714,6.137040,-15.931323,-51.822281,0.376737,66.731026
405,0.081606,-8.474467,6.985428,8.302572,7.292261,-13.477677,-51.523170,0.131244,66.251381
406,0.123930,-8.483653,7.190349,11.634565,6.716610,-11.979149,-51.191277,-0.054375,65.804062
407,-0.058614,-8.630222,7.301856,7.640961,7.551268,-2.836936,-50.869579,-0.096664,65.463821
408,0.476167,-8.504910,8.027654,14.180259,-4.368694,-12.059360,-50.505466,-0.255124,65.265335
409,0.123903,-8.955919,8.375628,2.754732,-0.327929,-6.168569,-50.222050,-0.538830,65.132133
410,0.275665,-8.653096,9.120572,13.309034,-1.368769,-9.592115,-49.952721,-0.758549,64.985367
411,0.533568,-8.820324,9.353271,15.189852,-2.678521,-10.685338,-49.475063,-1.059877,64.818169
412,0.156546,-8.964608,9.491128,19.783651,5.671231,1.635017,-48.889545,-1.141392,64.681816
413,-0.199873,-9.011644,8.499664,11.945925,10.636611,17.758116,-48.361019,-0.719082,64.690849
414,-0.007710,-9.460585,7.653812,-5.947708,1.769554,23.795479,-48.263348,-0.064122,64.996208
415,-0.347887,-9.290161,6.490540,-8.030964,2.758835,35.125675,-48.493450,0.720551,65.591187
416,-0.713479,-9.350366,5.183947,-31.107563,2.397284,46.037312,-49.127567,1.794965,66.417465
417,-0.464325,-8.845779,4.604180,-30.724747,-2.582752,36.549862,-50.121902,2.842347,67.310555
418,-0.341294,-8.957873,4.970109,-18.008266,-6.431891,27.553514,-50.889957,3.571238,68.106293
419,-0.697762,-8.007072,4.804529,17.164183,0.144496,27.345602,-50.859577,4.214291,68.766525
420,-0.250143,-7.657479,4.793640,27.092279,-11.480003,5.351720,-50.083870,4.512657,69.262115
421,0.096040,-6.278584,5.541049,70.405327,-21.770571,-11.170827,-48.432964,4.076894,69.621155
422,-0.293671,-5.917718,5.502287,61.223267,-15.314188,-2.483677,-46.220608,3.489359,69.922699
423,-0.280692,-5.122967,4.922379,54.804340,-14.947899,-6.100363,-44.272675,3.033273,70.179115
424,-0.020330,-4.502735,5.066885,56.589840,-22.340508,-16.338684,-42.409554,2.324572,70.334305
425,-0.006593,-4.177962,5.562847,61.012074,-19.694887,-16.356771,-40.448570,1.438676,70.390884
426,0.130177,-5.105076,5.941289,32.978214,-18.985250,-20.660881,-38.883858,0.548683,70.326912
427,0.165751,-4.791187,6.148105,49.853092,-13.546432,-22.109409,-37.504280,-0.318591,70.104019
428,0.039007,-4.647354,7.072736,69.790298,-4.328776,-18.744354,-35.506935,-0.963054,69.732643
429,-0.081406,-4.712297,8.285849,79.241180,4.924944,-17.810501,-33.014446,-1.297403,69.221382
430,-0.497805,-4.845821,8.997280,81.107880,17.484644,-9.732471,-30.330961,-1.220936,68.633133
431,-0.831483,-4.575096,9.267388,80.381042,26.948244,-7.416328,-27.631462,-0.711654,68.021759
432,-0.533064,-4.044555,9.480999,82.200890,14.579519,-7.108617,-24.919643,-0.199018,67.496803
433,-0.455210,-4.349658,9.288994,55.384678,6.906497,-1.882671,-22.627439,0.069227,67.217789
434,-0.147398,-4.038584,8.499984,33.060898,-5.522574,5.918448,-21.153816,0.116408,67.271919
435,0.219984,-3.522262,8.366989,21.954466,-17.515387,10.329406,-20.237194,-0.145710,67.661781
436,0.668402,-2.866610,8.400949,23.915636,-30.828989,11.842272,-19.477875,-0.777112,68.283859
437,0.659360,-3.048326,8.723915,5.461721,-24.838593,7.293233,-19.000904,-1.547677,68.891319
438,0.677480,-2.058007,9.100311,32.916317,-15.699969,1.114918,-18.372747,-2.142170,69.241577
439,0.539907,-1.731502,9.067531,42.805679,-2.770694,-5.908845,-17.111702,-2.460765,69.257790
440,0.205996,-1.665694,8.886229,44.233158,11.258711,-9.509600,-15.649304,-2.398464,68.969933
441,-0.248430,-1.579311,8.917548,48.148037,25.975142,-8.119026,-14.093553,-1.874911,68.525169
442,-0.299148,-1.665736,9.082038,44.898594,24.865646,-7.412521,-12.531837,-1.110250,68.076630
443,-0.389841,-2.279120,9.072424,21.267740,22.158005,-6.686759,-11.424202,-0.392515,67.684105
444,-0.578334,-2.365337,9.700397,16.335510,21.223595,-2.575691,-10.797272,0.286576,67.392296
445,-0.218072,-2.666895,9.932614,-0.195392,6.137769,-3.072562,-10.530050,0.717366,67.215172
446,-0.257298,-2.769410,9.807301,-14.915650,4.016014,-1.687714,-10.783296,0.868835,67.105659
447,-0.114242,-2.711933,9.729146,-21.234507,-2.026608,-1.468267,-11.386686,0.891108,67.047455
448,-0.140702,-2.323330,9.583398,-15.520927,-1.985806,0.197058,-11.999344,0.821240,67.039986
449,0.311732,-2.500118,9.358124,-24.505289,-15.072701,-1.265032,-12.665908,0.539630,67.083321
450,-0.054333,-2.331044,9.271194,-19.157524,-2.890454,1.293544,-13.393132,0.248034,67.150826
451,0.412973,-2.247174,9.303699,-12.977858,-15.008846,-0.712503,-13.928500,-0.039559,67.231247
452,0.102232,-2.326678,9.470926,-11.830647,-3.457935,1.701981,-14.342312,-0.334057,67.321785
453,0.438321,-2.607348,9.423212,-17.394339,-11.724032,-1.214110,-14.829888,-0.576875,67.393707
454,-0.054835,-2.364092,9.425507,-7.796533,4.063947,1.171143,-15.250146,-0.700296,67.425941
455,0.219973,-2.681223,9.407735,-16.252985,-3.698457,1.688591,-15.651484,-0.681693,67.470657
456,0.059662,-2.613002,9.179688,-14.699720,1.188984,0.591501,-16.167961,-0.711545,67.518448
457,-0.093641,-2.650316,9.036850,-15.842612,5.750891,4.293572,-16.677492,-0.577498,67.564003
458,0.479086,-2.936738,8.815339,-24.300190,-12.836870,0.915907,-17.347803,-0.665102,67.681786
459,0.674591,-3.223068,8.301876,-36.828014,-16.597694,-4.172075,-18.368246,-1.148695,67.779709
460,-0.050124,-3.101719,8.347249,-32.713074,8.990275,3.043198,-19.527788,-1.274337,67.803139
461,0.073479,-3.284662,8.428004,-34.990383,3.965986,-1.410970,-20.655087,-1.062060,67.756714
462,0.792102,-3.322643,8.100953,-38.018116,-19.487896,-14.575302,-21.868359,-1.399540,67.601639
463,-0.199454,-3.437749,8.418348,-37.235439,14.018098,-2.752020,-23.116081,-1.593952,67.367363
464,-0.423464,-3.262379,8.631984,-25.986834,18.415676,2.778324,-24.165277,-1.098405,67.154190
465,0.394355,-3.897016,8.440074,-41.813492,-8.499064,-9.234377,-25.292355,-0.993369,66.988213
466,0.162137,-3.984022,8.110948,-42.221531,-0.051254,-1.895364,-26.690348,-1.202985,66.881386
467,-0.270684,-4.387974,8.164167,-45.814705,13.401048,8.075402,-28.157223,-0.958377,66.871452
468,0.019575,-4.620391,7.797503,-48.921608,2.770279,4.518251,-29.736670,-0.621257,66.926369
469,0.394708,-5.398600,7.860230,-57.562668,-9.017346,-3.016212,-31.511938,-0.698339,66.999603
470,0.057092,-5.369217,7.723290,-42.547886,1.962739,4.467648,-33.181126,-0.784647,67.081169
471,-0.144183,-5.537169,7.756061,-30.985975,8.834404,7.248749,-34.407101,-0.526649,67.144859
472,-0.060444,-5.859647,8.033077,-21.481476,6.430537,4.334332,-35.281498,-0.207481,67.158806
473,-0.054190,-5.461992,7.691362,-6.840375,5.458992,-1.009848,-35.753349,-0.013956,67.088783
474,-0.536267,-5.349864,7.600051,-4.510716,18.099878,7.277165,-35.942902,0.365686,66.943565
475,-0.329522,-5.244616,7.488357,-8.474567,11.141024,-1.042075,-36.161556,0.820880,66.741035
476,-0.134530,-5.495176,7.692272,-20.683006,3.348673,-7.104181,-36.651138,0.934640,66.488113
477,-0.231697,-5.394357,7.493373,-26.185652,5.032750,-6.467572,-37.436333,0.909650,66.222939
478,-0.236218,-5.832164,7.965477,-32.342140,6.229766,-5.008203,-38.416069,0.940081,65.956802
480,-0.087539,-6.028755,7.887655,-31.522654,3.528624,-6.173720,-39.484501,0.949260,65.709747
481,0.198083,-6.083833,7.783670,-25.788065,-2.762603,-9.380654,-40.442680,0.792500,65.502625
482,0.131982,-6.339723,7.515552,-27.493736,-0.522828,-5.874983,-41.332413,0.584659,65.345711
483,0.204146,-6.500002,7.531695,-22.551594,-0.928069,-5.570381,-42.167599,0.439515,65.219788
484,0.239346,-6.557718,7.029612,-24.017122,-2.795173,-5.048235,-42.944244,0.274141,65.131340
485,0.284813,-6.748839,7.424202,-17.433304,-3.419798,-6.307282,-43.635227,0.068879,65.064568
486,-0.115339,-6.957498,7.387423,-17.401911,6.438992,2.706717,-44.215885,0.063548,64.986275
487,-0.217374,-7.251669,7.710529,-12.459781,8.108473,4.964525,-44.713905,0.326152,64.908249
488,-0.246415,-7.249088,7.641913,-7.178655,5.999924,4.748325,-45.041637,0.607005,64.857239
489,-0.353780,-7.581351,8.160829,-0.592119,6.081356,5.477894,-45.171467,0.869848,64.834969
490,-0.307368,-7.455494,7.785289,1.850199,3.712229,3.779109,-45.150623,1.094347,64.828125
491,-0.364534,-7.775357,8.140239,3.317789,3.187187,2.111780,-45.064747,1.245062,64.816010
492,0.050727,-7.513780,7.927126,7.699834,-4.749321,-6.561786,-44.881828,1.174219,64.781960
493,0.050532,-7.546349,7.845739,5.837777,-3.718082,-6.860912,-44.657257,0.916487,64.722649
494,0.031693,-7.240288,7.590424,7.892521,-1.766508,-4.462949,-44.429443,0.718932,64.652275
495,-0.008397,-7.339795,7.583301,3.821998,-1.604094,-1.029570,-44.234516,0.614795,64.625969
496,0.077637,-7.287528,7.413747,1.842359,-5.144593,-0.096603,-44.139450,0.521086,64.690903
497,0.002108,-7.945907,7.402463,-11.670981,-5.455491,2.317192,-44.302017,0.420317,64.840675
498,0.373737,-7.877573,7.844422,-8.902292,-14.171505,-5.100723,-44.643887,0.154518,65.036858
499,0.426252,-7.868700,9.072188,-4.572237,-15.203994,-6.748260,-44.868931,-0.332243,65.241005
500,0.351026,-8.131047,9.835662,-9.562698,-10.690596,-4.515814,-45.106209,-0.770247,65.413147
501,0.432851,-8.403698,10.847352,-1.561858,-7.921405,-5.640704,-45.293251,-1.108839,65.514221
502,-0.080448,-7.962354,10.889548,12.377010,1.178906,5.247406,-45.114574,-1.192687,65.589188
503,-0.374052,-8.438179,10.056274,-2.469951,6.391757,18.620047,-44.952740,-0.822132,65.780785
504,-0.354710,-8.888051,9.148966,-0.891720,6.937221,25.640621,-45.011803,-0.143286,66.144966
505,-0.313885,-8.853339,8.025459,5.997342,1.291069,27.390436,-44.924793,0.578272,66.673439
506,-0.607278,-8.887198,6.203400,-22.862772,3.608227,37.312725,-45.194103,1.398991,67.377808
507,-0.172842,-8.538484,5.425155,-28.105118,-5.908249,22.785639,-46.021248,2.089174,68.104599
508,-0.520832,-8.352470,5.297423,-16.724369,2.600715,24.748354,-46.744976,2.625099,68.690109
509,-0.397473,-7.944341,4.664385,-25.680847,-0.554551,15.344563,-47.429504,3.137448,69.121460
510,-0.449585,-7.217015,4.766701,-9.792242,1.190807,9.392444,-48.005344,3.450067,69.390617
511,-0.262139,-6.141552,5.274788,42.127739,-5.256159,-2.962345,-47.458942,3.483710,69.513260
512,-0.397020,-5.739799,5.751245,62.725563,-3.159109,-0.584931,-45.708012,3.343780,69.575264
513,-0.222901,-4.959117,5.977079,80.593758,-9.048416,-10.174932,-43.319344,3.073013,69.589417
514,-0.419492,-4.380802,5.983973,86.012146,-3.453421,-7.410565,-40.548080,2.721829,69.512093
515,-0.462949,-4.255598,6.084355,72.581039,0.787829,-5.249801,-37.912941,2.553839,69.375320
516,-0.366964,-4.211525,5.880297,42.095825,-1.333111,-8.429800,-36.010368,2.409272,69.197792
517,-0.308916,-4.326741,5.550357,15.467866,-2.537451,-13.383446,-35.061405,2.144945,68.940102
518,-0.549474,-4.079731,5.717977,17.366648,3.979208,-6.356092,-34.524368,1.976221,68.656822
519,-0.393140,-4.276167,6.571415,23.893192,-3.289037,-9.102012,-33.844223,1.841110,68.436722
520,-0.177845,-4.263972,6.849195,24.932995,-9.774415,-15.896841,-33.036850,1.430041,68.209267
521,-0.370703,-4.559808,7.503847,24.677908,-2.700225,-9.905323,-32.215317,1.023003,67.959656
522,-0.173199,-4.489842,8.716991,41.074085,-6.383862,-11.471951,-31.123049,0.707197,67.735367
523,0.116245,-4.923306,9.088495,39.937836,-8.594734,-14.101321,-29.775023,0.276378,67.494415
524,-0.091883,-4.795858,8.467209,34.334293,0.833411,-9.993460,-28.537941,-0.032316,67.207138
525,-0.092378,-4.914441,8.672934,27.918476,2.656228,-5.887237,-27.500446,-0.105491,66.945404
526,0.110035,-4.507158,8.830381,31.123920,-1.289474,-5.760137,-26.516094,-0.173253,66.761887
527,-0.114449,-4.374547,8.463648,21.571404,6.542603,0.452007,-25.637547,-0.133325,66.644188
528,-0.029714,-4.018300,8.533162,18.925291,3.954551,0.199450,-24.962664,0.029539,66.578590
529,-0.078324,-3.954778,9.036796,21.478067,4.699507,2.487429,-24.289333,0.179340,66.559280
530,-0.149808,-3.670783,9.069661,26.984348,5.636016,4.091723,-23.481535,0.381325,66.589737
531,-0.132709,-3.785516,8.923588,14.313320,4.009679,2.431845,-22.792990,0.571918,66.626556
532,-0.205441,-3.694902,8.932541,9.009295,4.114870,4.170207,-22.403717,0.739199,66.676033
533,-0.275218,-3.798113,8.943204,1.807917,3.536421,5.993569,-22.221882,0.921548,66.784248
534,-0.072028,-3.916498,8.865828,-9.963406,-5.293561,3.997832,-22.355122,0.957688,66.949364
535,0.200458,-3.969423,8.739066,-14.673052,-16.133888,-1.483891,-22.763384,0.644094,67.124954
536,0.191888,-3.972332,8.746147,-13.993260,-13.458280,-1.390500,-23.240265,0.171487,67.273323
537,0.229417,-3.981676,8.806137,-9.339490,-9.114473,-0.567831,-23.629154,-0.186637,67.393059
538,0.317788,-3.738848,8.585811,-4.799680,-9.639026,-1.715312,-23.865326,-0.488062,67.484093
539,0.069908,-3.601533,8.121999,-8.642836,-1.118467,0.160699,-24.089878,-0.662424,67.533165
540,-0.065829,-3.790908,7.717862,-27.641197,2.903650,4.174929,-24.695192,-0.605442,67.586884
541,-0.007459,-4.126579,7.467371,-44.960979,-0.029030,1.877002,-25.905842,-0.519040,67.657761
542,-0.028069,-4.233746,7.071035,-51.977421,0.449596,2.399430,-27.521755,-0.480592,67.717827
543,-0.243775,-4.687456,7.053238,-62.474575,6.494261,6.370620,-29.429325,-0.309217,67.791168
544,0.358237,-4.908394,7.505715,-52.120907,-10.561736,-6.886268,-31.338764,-0.372044,67.818893
545,0.298956,-5.261054,8.394046,-30.841257,-3.697176,-6.343766,-32.720573,-0.690077,67.754990
546,0.101018,-4.795392,8.405275,-6.180804,4.431606,-0.067511,-33.336426,-0.737642,67.658852
547,0.333659,-5.362800,8.952960,-11.319605,0.124623,-4.903920,-33.626759,-0.719876,67.548225
548,0.487639,-5.139942,8.946317,0.180369,-0.889909,-9.337281,-33.809727,-0.862250,67.357712
549,-0.250497,-5.233810,8.618994,-5.813056,17.261612,8.376957,-33.901417,-0.644372,67.192230
550,-0.241651,-4.982731,7.924475,-14.672460,13.734343,8.474240,-34.242859,-0.059226,67.135529
551,-0.119321,-5.278950,7.851348,-25.996767,6.630672,3.724200,-34.920795,0.335503,67.109825
552,-0.468555,-4.957620,7.164026,-26.332983,12.255679,12.785684,-35.792503,0.751382,67.151352
553,-0.284011,-5.331862,6.691540,-45.063381,2.482555,8.021728,-36.980206,1.154553,67.285431
554,0.160633,-5.393920,6.197137,-50.204399,-10.730693,-5.584270,-38.565666,1.070763,67.400261
555,0.016621,-5.412003,6.252528,-42.965504,-6.100591,-2.324516,-40.117157,0.770610,67.474007
556,-0.039645,-5.772292,6.362124,-45.222984,-3.578588,-0.793792,-41.585854,0.614633,67.540680
557,0.050244,-6.195622,6.883023,-36.401775,-3.998302,-3.815934,-42.945744,0.469606,67.569092
558,-0.180686,-6.275542,7.393806,-17.056290,4.570961,1.120278,-43.836937,0.445857,67.529556
559,-0.503546,-6.562088,8.000527,-7.353044,12.378990,7.782070,-44.244701,0.752273,67.440407
560,-0.354353,-6.823716,7.755248,-9.584526,10.852011,1.628991,-44.529652,1.138761,67.282173
561,-0.401833,-7.156348,7.817462,-8.956943,11.795175,1.609693,-44.843632,1.445114,67.054878
562,-0.275108,-7.334586,7.389622,-15.443939,8.976975,-3.223216,-45.257484,1.670686,66.790802
563,-0.493036,-7.618637,7.171595,-23.940928,12.138039,2.264066,-45.921963,1.905441,66.527840
564,-0.162277,-7.644739,7.127769,-22.251102,2.980281,-4.794411,-46.699223,2.048747,66.316544
565,-0.507681,-8.104941,7.389127,-22.561493,6.683962,3.851843,-47.450638,2.146855,66.187195
566,-0.349104,-7.942984,7.466337,-11.415215,2.132231,0.636840,-48.019253,2.300860,66.129219
567,-0.433933,-8.164561,7.754521,-6.441755,1.797497,3.601905,-48.316925,2.397179,66.127441
568,-0.271676,-7.976153,7.978388,6.888668,-2.929431,-1.467347,-48.307903,2.411152,66.165298
569,-0.661865,-8.417417,8.072234,4.465843,2.308407,6.779715,-48.115841,2.470232,66.232101
570,-0.235677,-8.151346,8.126463,13.918110,-6.330359,-1.968819,-47.804928,2.484926,66.335526
571,-0.265874,-8.057499,7.980009,14.031484,-5.750685,-2.444213,-47.335056,2.294730,66.434891
572,-0.328965,-7.944316,7.774951,12.186005,-2.484905,-1.542863,-46.895962,2.152608,66.490273
573,-0.210693,-8.387184,7.745714,1.225233,-3.284166,-3.705405,-46.672081,2.022973,66.500381
574,0.145845,-8.331717,7.662039,-2.840022,-9.361146,-11.850902,-46.699802,1.689742,66.475998
575,0.099681,-7.837976,8.676728,14.124624,-9.212881,-11.226744,-46.512726,1.197580,66.436760
576,-0.229685,-8.046294,9.676469,18.877504,-4.720016,-1.653347,-45.962357,0.881995,66.455383
577,-0.264515,-8.115549,10.211632,26.460186,-4.683131,4.782800,-45.204479,0.809703,66.603333
578,-0.302770,-8.250623,10.476599,32.557159,-6.911553,11.574311,-44.216034,0.864333,66.932747
579,-0.994548,-8.049825,10.171000,46.972824,3.236796,30.813950,-42.880123,1.306939,67.486809
580,-1.346614,-9.210029,8.325317,16.573174,8.365513,43.452293,-41.796082,2.283442,68.270187
581,-0.383527,-9.185770,7.079388,12.236006,-9.065351,23.414507,-41.276920,3.015794,69.109787
583,-0.361739,-8.412391,6.312067,8.336656,-10.382441,16.102896,-40.896931,3.204472,69.820908
584,0.112735,-7.731936,5.413393,-7.211761,-17.694662,-6.180075,-40.855194,2.958954,70.252892
585,0.337377,-7.452046,5.481887,-17.465775,-17.937210,-18.048447,-41.263420,2.246422,70.338867
586,0.306442,-6.006166,6.152888,25.302702,-15.181426,-23.653849,-41.138340,1.373674,70.179733
587,-0.761775,-5.252549,6.403000,41.091663,16.218325,3.806090,-40.038109,1.172072,69.914551
588,-0.299856,-4.651339,6.622907,57.845695,2.787610,-4.205336,-38.394905,1.413672,69.705536
589,-0.959960,-4.255550,6.947052,63.739513,19.079811,19.772976,-36.369217,1.861154,69.692596
590,-0.633928,-4.148998,7.268435,63.591579,2.534567,14.993855,-34.238247,2.491189,69.953583
591,-0.319724,-3.778292,7.415103,65.085747,-9.929154,8.746501,-32.077202,2.605168,70.354996
592,0.023358,-3.812970,7.697360,53.068436,-20.897840,2.834071,-30.090736,2.265034,70.787941
593,-0.139815,-4.214652,7.872715,32.133347,-12.967889,0.744173,-28.659758,1.802962,71.118973
594,-0.292070,-4.224650,8.668906,42.975693,-8.429242,-0.540204,-27.403273,1.489730,71.289703
595,-0.123100,-3.306231,8.866732,73.765320,-8.914940,-10.796866,-25.458939,1.146436,71.248589
596,-0.312011,-3.593358,8.898799,56.388111,-0.699370,-7.450982,-23.294495,0.873919,71.037666
597,-0.161369,-3.502332,9.074601,52.791378,-2.786122,-9.644221,-21.478945,0.711466,70.795326
598,-0.561001,-3.087688,9.030955,57.739548,11.170347,-4.734746,-19.640728,0.757911,70.522324
599,-0.155029,-2.705024,8.546623,53.496101,0.051576,-9.050512,-17.791590,0.861400,70.242805
600,-0.704753,-3.078847,8.110580,21.713474,16.982845,1.302538,-16.541687,1.094323,70.037224
601,-0.516830,-3.224545,8.097822,8.667820,8.939397,-0.752202,-16.038361,1.511547,69.922539
602,-0.883501,-2.869787,8.020812,11.586396,19.345921,0.897901,-15.704586,1.965556,69.795815
603,-0.729496,-2.918561,8.217367,6.556842,8.835947,2.816158,-15.404816,2.434631,69.729279
604,-1.007044,-3.110305,8.336173,-4.451187,15.078516,3.876864,-15.369753,2.848588,69.731117
605,-0.395093,-2.842319,9.116782,5.397489,-8.665142,-4.328262,-15.355779,2.949663,69.695145
606,-0.545032,-2.526994,9.489173,16.138897,-4.335934,-2.010580,-14.998992,2.712903,69.649956
607,-0.307970,-2.700134,9.444954,6.156503,-10.425852,-4.099992,-14.629023,2.449082,69.614059
608,-0.069137,-2.795428,9.529161,-1.387804,-15.051625,-8.028650,-14.552960,1.987196,69.525711
609,0.191173,-2.492757,9.595720,6.971065,-25.059177,-8.706757,-14.462865,1.270080,69.423393
610,-0.066251,-2.329388,9.426664,12.692864,-8.951182,-2.277294,-14.135615,0.675695,69.385620
611,-0.021423,-2.511867,9.286313,-1.151111,-6.551664,-1.336970,-13.943175,0.410500,69.389206
612,0.125392,-2.295165,9.335107,5.450793,-9.967788,0.446276,-13.871257,0.139689,69.441208
613,-0.178560,-2.075826,9.682755,14.786159,4.580799,6.385581,-13.533688,0.079423,69.572990
614,-0.181671,-2.044838,9.915677,11.721820,3.139896,7.407828,-13.091166,0.257545,69.766647
615,-0.132265,-2.385338,10.222841,2.325780,0.183711,8.428423,-12.855735,0.370863,70.011414
616,-0.142787,-1.907570,10.559545,20.439903,-1.913385,7.443650,-12.474590,0.400932,70.275803
617,-0.076886,-2.165003,10.393963,13.562332,-4.966835,6.583545,-11.906315,0.337852,70.528633
618,0.051410,-2.291533,10.237403,7.050470,-7.895252,3.847093,-11.561897,0.163439,70.742584
619,0.075676,-2.248236,9.882983,2.377743,-7.504760,2.825332,-11.404706,-0.065900,70.902832
620,0.191694,-2.000041,9.148360,-0.391722,-9.230052,-0.766304,-11.371931,-0.332502,70.991623
621,0.370775,-2.209457,8.796616,-20.952837,-11.387300,-4.263752,-11.727629,-0.685936,70.978333
622,-0.025773,-1.735725,8.840855,-10.183301,5.340657,-4.580604,-12.245020,-0.815063,70.855537
623,0.094013,-1.738745,8.542984,-12.756495,1.600814,-5.988647,-12.624859,-0.739775,70.659096
624,0.168345,-1.984500,8.934610,-17.536058,0.299503,-9.090833,-13.126354,-0.764924,70.406891
625,-0.099068,-1.946448,9.338173,-9.164878,9.278341,-7.117117,-13.567566,-0.671954,70.107117
626,-0.194765,-2.080467,9.543893,-6.671745,11.668696,-4.751171,-13.829186,-0.379426,69.832619
627,-0.076740,-2.608050,9.719825,-18.790068,6.364567,-3.527891,-14.252733,-0.121317,69.625946
628,0.026036,-2.551963,9.788317,-15.567585,2.220233,-3.135934,-14.825156,-0.010964,69.482155
629,-0.164837,-2.549684,9.651814,-15.378634,6.777887,1.460248,-15.340947,0.126540,69.416031
630,0.121808,-2.753384,9.206328,-25.453505,-3.708697,1.275398,-16.021441,0.187992,69.446320
631,0.336293,-2.887599,8.776001,-34.622799,-10.568385,-2.140543,-17.022627,-0.044336,69.499626
632,0.403891,-2.961700,8.373477,-39.930481,-11.310517,-2.537421,-18.265245,-0.415293,69.535446
633,0.310827,-3.245767,7.552794,-55.618061,-7.665573,-2.531712,-19.857710,-0.741716,69.558952
634,0.505667,-3.408811,6.894428,-68.213997,-13.582583,-7.846499,-21.920479,-1.133937,69.524391
635,0.828928,-3.455055,7.225396,-59.034279,-19.715311,-16.923588,-24.036306,-1.805362,69.360199
636,0.333542,-3.567631,7.462736,-51.864304,1.837538,-8.869563,-25.874687,-2.255702,69.094200
637,0.250871,-3.983448,8.134007,-46.347820,6.305323,-8.138423,-27.499338,-2.261298,68.782654
638,-0.045246,-3.645141,9.630388,-8.171911,17.480852,-6.677562,-28.392811,-2.026531,68.379028
639,-0.156630,-3.965279,10.670737,2.771237,18.505671,-4.529949,-28.468910,-1.586650,67.930359
640,-0.527308,-4.614929,10.481278,-0.454477,25.405409,1.599351,-28.421686,-0.966090,67.539101
641,-0.276207,-4.485113,9.943632,7.981843,16.606724,-3.550396,-28.292377,-0.365467,67.177719
642,-0.282177,-4.280620,9.437539,8.793410,15.335623,-5.887773,-28.011374,0.029912,66.788322
643,-0.082143,-5.107660,8.505589,-26.468901,6.613478,-9.018151,-28.306768,0.235178,66.396751
644,0.077368,-4.915713,7.120812,-40.038387,0.992985,-13.153402,-29.416279,0.166800,66.011238
645,0.425838,-4.610811,6.370633,-49.969662,-11.961003,-19.985336,-30.915661,-0.269034,65.625175
646,0.206314,-4.966235,6.372178,-61.561058,-2.125131,-14.196664,-32.770351,-0.769265,65.263908
647,0.285336,-5.329988,5.789060,-78.703705,-4.598948,-12.170682,-35.102661,-1.107641,64.963951
648,0.327508,-5.250941,5.489348,-77.709686,-3.822217,-13.467603,-37.702232,-1.474826,64.703712
649,0.044251,-5.231428,6.117886,-58.638100,5.667638,-5.676238,-39.966183,-1.650506,64.435890
650,-0.440319,-5.800406,6.974543,-50.939571,17.877609,6.831903,-41.785778,-1.340863,64.195435
651,0.071617,-6.180463,7.385871,-44.984535,1.068020,-3.565557,-43.380825,-1.071605,64.024361
652,-0.084528,-6.238379,7.926879,-28.655640,4.432854,-2.021227,-44.605270,-1.070710,63.891563
653,0.194863,-6.669729,8.312176,-24.041370,-1.552853,-6.111018,-45.481022,-1.132441,63.762142
654,0.278404,-7.357110,8.244921,-29.814289,-0.180714,-7.638806,-46.375519,-1.317222,63.623005
655,0.291717,-7.373471,7.876825,-24.564663,1.007365,-7.061670,-47.277435,-1.486389,63.445339
656,0.141263,-7.370790,7.601873,-17.250458,6.020380,-1.937611,-47.969421,-1.518139,63.257687
657,0.335087,-7.314181,7.358108,-11.035136,1.244055,-2.515931,-48.437267,-1.492669,63.118256
658,0.361080,-7.305315,7.103094,-8.764961,0.389798,-0.234198,-48.765896,-1.509088,63.067387
659,0.106221,-7.512311,7.158119,-5.093968,4.537686,9.127292,-48.997772,-1.343464,63.103027
660,0.447625,-7.630146,7.182663,0.351708,-3.127885,2.679469,-49.079269,-1.179524,63.214512
661,0.334429,-7.657073,7.135484,3.906838,-1.914827,5.186318,-49.011414,-1.135658,63.363953
662,0.619413,-7.690863,7.251716,7.902185,-5.594249,-3.547906,-48.816860,-1.197360,63.476257
663,0.344815,-7.896401,7.336626,8.560257,-0.209611,1.897800,-48.543751,-1.281958,63.530857
664,0.648401,-7.591076,7.144401,12.257771,-6.816597,-5.674445,-48.197826,-1.406810,63.576427
665,0.495869,-7.525918,7.210529,13.379327,-3.626788,-2.234081,-47.771675,-1.621254,63.617760
666,0.549097,-7.642982,7.251172,10.139289,-3.384277,-2.800009,-47.380566,-1.762019,63.647266
667,0.123194,-7.826077,7.161569,4.821734,5.305784,7.212217,-47.132023,-1.686286,63.673706
668,0.179022,-7.536556,7.051888,7.951055,4.419265,6.480349,-46.920109,-1.408810,63.710419
669,0.349660,-7.602405,7.122619,7.199207,0.470996,2.109803,-46.668507,-1.248663,63.749107
670,0.533713,-7.420009,7.021178,9.848263,-3.340355,-2.424534,-46.385094,-1.285374,63.780315
671,0.427430,-7.324963,6.871172,8.022724,-1.641757,0.388079,-46.088112,-1.367334,63.816940
672,0.700324,-7.209829,6.879108,7.930945,-11.551222,-7.657111,-45.824116,-1.607262,63.890728
673,0.526884,-7.164121,6.865973,7.401056,-7.216754,-1.937305,-45.572105,-1.940141,64.003197
674,0.258032,-7.109410,7.005330,11.988766,1.233840,7.296177,-45.253407,-1.946510,64.136871
675,-0.195130,-7.093436,6.915129,7.452051,12.201303,19.888962,-44.934059,-1.467572,64.297890
676,-0.010982,-7.164268,7.019013,4.692495,2.777890,11.214831,-44.735497,-0.924964,64.488976
677,-0.192961,-7.085882,6.992031,4.953417,4.574022,12.415439,-44.577446,-0.560955,64.683090
678,-0.429380,-7.251419,7.151890,4.524274,5.358151,12.930240,-44.420593,-0.146824,64.868355
679,0.084701,-7.770226,7.063615,-9.225798,-7.200743,-0.126899,-44.499187,-0.019278,65.042145
680,0.270044,-7.744792,8.282787,3.107918,-12.133394,-5.514049,-44.601841,-0.314694,65.200974
681,0.124729,-7.672954,9.637563,10.859118,-11.041423,-4.632536,-44.370487,-0.708886,65.350670
682,0.132404,-8.403515,10.389292,-1.920226,-10.395893,-4.457105,-44.223675,-1.070488,65.491524
683,0.464335,-8.640099,10.789548,-0.993694,-11.705213,-8.719965,-44.274475,-1.487454,65.591591
684,-0.056029,-8.610560,10.844386,3.960994,1.609168,1.774035,-44.226070,-1.688759,65.626053
686,-0.127047,-8.514701,9.497224,8.990571,8.538830,8.491102,-44.010330,-1.448257,65.631012
687,0.114210,-8.794976,7.538307,-11.292611,8.332708,11.194782,-44.049572,-1.018056,65.671417
688,0.069337,-8.267929,6.405108,-17.126377,11.232387,15.461148,-44.524437,-0.474383,65.761124
689,-0.288753,-7.429737,5.845357,-6.138556,18.167990,24.448170,-44.912319,0.341781,65.888916
690,-0.322297,-6.923843,5.411809,-11.253334,15.038853,27.733122,-45.198864,1.348084,66.112526
691,-0.334884,-7.044309,5.174593,-34.806530,14.216210,24.365871,-45.958523,2.309400,66.371780
692,-0.818465,-5.828067,6.119289,17.780935,23.211302,36.969719,-46.229145,3.478871,66.629738
693,-1.006590,-6.715270,5.572551,-16.956131,22.433138,35.758503,-46.193817,4.879126,66.924881
694,-0.695509,-6.790394,4.717381,-18.323242,0.080990,-2.703102,-46.772255,5.537620,67.028984
695,0.156197,-5.747027,5.972057,40.502094,-44.322159,-29.296865,-46.387566,4.643898,67.196701
696,-0.221237,-6.747250,6.675975,17.512157,-29.712984,-21.793440,-45.400600,3.173660,67.488213
697,0.071365,-7.336855,5.810584,-12.487781,-31.047415,-31.335356,-45.312771,1.832420,67.587944
698,0.116040,-5.175580,6.677225,68.653282,-29.560753,-28.916492,-44.377308,0.408497,67.591248
699,-0.039833,-5.242815,7.165600,45.670959,-9.332020,5.543746,-42.472351,-0.329529,67.745285
700,-0.474751,-5.985079,5.822466,2.082782,20.415689,16.405609,-41.675972,0.054642,67.888962
701,-0.070679,-4.107531,5.625265,82.772781,-0.470772,9.828846,-40.260555,0.592085,67.998238
702,-0.139904,-4.152241,6.220479,80.340904,-1.022477,8.427958,-37.540497,0.763797,68.255775
703,0.094926,-4.695444,7.082899,69.853485,-10.430590,2.026122,-35.035484,0.712889,68.509277
704,-0.065942,-4.454552,7.932696,81.186028,-5.606099,-1.234142,-32.517906,0.498363,68.670860
705,-0.265076,-4.640956,8.761827,67.195282,-0.202152,2.764538,-30.045732,0.427816,68.742256
706,-0.419237,-4.944735,9.118836,51.103840,6.496742,0.198597,-28.074982,0.543696,68.733322
707,-0.419553,-4.212194,9.496705,89.755775,4.746354,0.913678,-25.728794,0.718358,68.664268
708,-0.594031,-4.027802,8.837697,75.039452,10.934692,1.511733,-22.984835,0.973375,68.594055
709,-0.165902,-3.714024,8.936074,71.481796,-4.448964,-3.443289,-20.545456,1.061315,68.522652
710,-0.463601,-2.667311,9.218040,95.295067,4.792900,-1.393844,-17.768572,1.040367,68.447487
711,-0.364581,-2.560352,9.400341,74.187485,0.792039,-3.611727,-14.947928,1.106091,68.339340
712,-0.246253,-2.670697,9.373945,37.633297,-3.270519,-6.497957,-13.088083,1.024851,68.186729
713,-0.124686,-2.539312,9.846647,25.773823,-6.856442,-7.114183,-12.034414,0.810128,68.002846
714,-0.244724,-2.306889,9.487963,20.809626,-0.910183,-5.958171,-11.260396,0.639224,67.816048
715,-0.124742,-2.696074,9.069651,-10.143246,-2.251129,-6.859347,-11.084784,0.546074,67.616394
716,-0.102408,-2.701356,8.679762,-34.481144,-2.701573,-9.485736,-11.830586,0.410606,67.366035
717,-0.197095,-2.613252,9.264323,-36.734573,1.148763,-9.224402,-13.019320,0.317943,67.067284
718,-0.064211,-2.887416,9.356424,-46.684940,-3.979639,-15.058319,-14.411192,0.176180,66.685699
719,-0.102748,-2.916541,9.577518,-40.227509,-1.610732,-14.635202,-15.859863,-0.042768,66.231857
720,0.229304,-2.767584,9.871436,-16.846373,-12.214810,-13.164071,-16.809568,-0.393915,65.852249
721,0.302849,-2.804704,9.938531,3.081780,-10.960634,-8.153661,-17.036060,-0.866509,65.623497
722,0.530685,-2.930684,9.044373,0.822540,-16.871672,-5.364229,-16.969307,-1.375720,65.543045
723,0.423245,-2.485227,8.709520,17.548056,-9.373608,3.536192,-16.665648,-1.803230,65.640587
724,0.698262,-2.637165,8.681365,4.846242,-16.924795,2.620766,-16.299900,-2.194372,65.862732
725,0.554975,-2.631549,8.593075,-6.150785,-9.429684,1.176001,-16.329456,-2.597902,66.047577
726,0.788032,-2.271157,8.971467,3.475075,-14.171836,-1.984904,-16.378843,-2.978983,66.145844
727,0.690108,-2.340372,9.569230,1.310123,-5.521760,-3.591748,-16.299334,-3.320160,66.148705
728,0.911458,-2.596035,9.719530,-7.017734,-9.876083,-8.179433,-16.387520,-3.621646,66.032463
729,0.933382,-2.830084,9.725534,-12.646117,-6.243248,-11.142012,-16.699873,-3.970917,65.799904
730,0.833477,-2.861149,9.615222,-10.688548,-0.679458,-10.668101,-17.066523,-4.186888,65.484993
731,0.590814,-3.180502,9.341759,-22.177708,7.622271,-9.624436,-17.588306,-4.177074,65.126854
732,0.649882,-3.261509,9.075504,-26.101860,6.054169,-11.458864,-18.364006,-4.068948,64.721581
733,0.465760,-3.333272,8.899892,-27.779722,12.652094,-13.078947,-19.227901,-3.905626,64.232666
734,0.403524,-3.098932,8.896047,-17.599924,15.431324,-14.583911,-19.945469,-3.619053,63.640522
735,0.652755,-3.305329,8.923584,-22.598211,7.863820,-18.906481,-20.574823,-3.447550,62.981556
736,0.729049,-3.306275,8.946300,-18.597795,5.813970,-24.295191,-21.215212,-3.491553,62.225773
737,0.650138,-3.379824,8.979985,-17.875444,8.242086,-25.588236,-21.769768,-3.577743,61.364594
738,0.676901,-3.660722,9.132357,-24.347809,6.661512,-24.886169,-22.418331,-3.663860,60.490108
739,0.520004,-3.818592,9.221581,-25.543154,9.436802,-22.761045,-23.195709,-3.724824,59.652416
740,0.261893,-3.858438,9.340023,-20.906839,15.224379,-17.463684,-23.920065,-3.616138,58.872314
741,0.202897,-3.959408,9.494034,-18.172808,14.877985,-12.608947,-24.531382,-3.364171,58.208672
742,0.175387,-4.142013,9.485645,-17.426105,13.681095,-9.843653,-25.094423,-3.089266,57.668560
743,0.238089,-4.043162,9.351470,-8.868526,11.150202,-10.489546,-25.507601,-2.860053,57.184711
744,0.137691,-4.221609,9.202690,-10.132927,13.873141,-7.805459,-25.802422,-2.615847,56.728840
745,0.451126,-4.443711,9.019103,-13.259360,4.752811,-13.418355,-26.172182,-2.491873,56.274483
746,0.349208,-4.555569,8.860259,-12.498223,8.049747,-13.905784,-26.579161,-2.503098,55.770908
747,0.475599,-4.469215,8.864159,-3.544436,4.723578,-16.174873,-26.822704,-2.538094,55.226936
748,0.373395,-4.420719,8.939916,2.884073,7.623133,-13.093414,-26.809969,-2.574146,54.698143
749,0.492816,-4.545031,9.011902,2.940236,3.385183,-11.327469,-26.692919,-2.593272,54.251644
750,0.396013,-4.455171,9.079707,7.790195,5.381726,-5.729597,-26.499516,-2.589865,53.931736
751,0.443132,-4.405512,8.909695,8.673676,2.768584,-1.928290,-26.217417,-2.524649,53.756836
752,0.432384,-4.503189,8.731986,0.525637,1.490415,2.362626,-26.063028,-2.457634,53.732044
753,0.529329,-4.760150,8.514910,-18.450474,-3.980322,4.624701,-26.367056,-2.443387,53.854931
754,0.673923,-4.839489,8.456383,-23.865461,-11.507689,3.807105,-27.083000,-2.610672,54.096657
755,0.582414,-4.910836,8.625278,-18.915146,-6.919409,5.943156,-27.809574,-2.808353,54.382420
756,0.922436,-5.056399,8.801696,-19.425200,-16.134830,1.563436,-28.463478,-3.088263,54.674511
757,0.791081,-4.940824,8.913881,-12.962445,-11.455827,3.257509,-29.020086,-3.452813,54.966076
758,0.728246,-4.787115,8.948534,-6.519309,-8.554221,4.434423,-29.361805,-3.681534,55.241196
759,0.687737,-4.518404,8.771480,0.312469,-6.363826,0.973103,-29.478405,-3.853951,55.442226
760,0.731318,-4.427189,8.342105,-2.437753,-7.452508,-3.069854,-29.519617,-4.071648,55.525314
761,0.301729,-4.505605,7.982868,-13.056828,4.900776,2.642903,-29.778988,-4.112103,55.540249
762,0.606909,-4.745846,7.790739,-25.691084,-5.486310,-4.179558,-30.423544,-4.133354,55.523228
763,0.782140,-4.843591,7.779927,-28.462454,-11.501390,-9.424836,-31.322277,-4.492682,55.473183
764,0.871798,-5.218291,7.927030,-35.588207,-11.849323,-6.523415,-32.387981,-4.963404,55.452301
765,1.001902,-5.560984,8.012855,-39.501423,-13.399672,-2.409097,-33.648746,-5.397528,55.557545
766,1.274708,-5.773787,8.092409,-37.954781,-17.567575,-2.785541,-34.961014,-5.872940,55.778156
767,1.103717,-5.932545,7.905790,-38.123322,-11.621147,6.219048,-36.263702,-6.235264,56.109344
768,1.045848,-6.181030,7.726855,-39.483990,-8.813079,14.493793,-37.609516,-6.300347,56.593704
769,0.949312,-6.175692,7.502283,-33.660095,-7.625654,21.411646,-38.897923,-6.145403,57.237640
770,0.887079,-6.212416,7.361336,-28.094618,-7.442894,26.079550,-40.007771,-5.837072,58.013054
771,0.948397,-6.311570,7.140835,-25.427259,-11.475394,27.484735,-40.987312,-5.497691,58.901264
772,0.934904,-6.463569,7.042495,-22.400444,-12.059860,27.658609,-41.873245,-5.184091,59.853825
773,0.878340,-6.678390,6.796627,-23.561390,-11.754005,28.627224,-42.723553,-4.846602,60.818409
774,0.923976,-6.916095,6.577489,-25.250710,-13.005508,25.130493,-43.613724,-4.534589,61.757214
775,0.663593,-6.928138,6.582192,-17.022783,-7.303283,26.808119,-44.383709,-4.176592,62.617184
776,0.445152,-6.864796,7.007070,0.688001,-3.424858,27.816385,-44.708626,-3.665794,63.393665
777,0.643229,-6.868687,7.007780,5.568979,-11.221234,20.724518,-44.649395,-3.271500,64.142609
778,0.822018,-6.771797,7.213483,12.097968,-16.149895,10.556179,-44.394821,-3.231458,64.835472
779,0.713527,-6.704655,7.496226,16.366081,-12.428372,7.685711,-43.952660,-3.361628,65.386581
780,0.882632,-6.684037,7.418389,9.891710,-13.531083,-0.672211,-43.538368,-3.593686,65.770805
781,1.003990,-6.741075,7.062953,-6.461910,-12.605403,-7.872643,-43.494560,-4.007616,65.968216
782,0.862198,-6.782023,7.239301,-10.498801,-2.866287,-9.214467,-43.775448,-4.390548,65.940483
783,0.657909,-6.528929,7.344782,-5.242833,7.411903,-7.915252,-44.017899,-4.533750,65.681686
784,0.577675,-6.284520,7.332031,-0.484626,12.871834,-8.190915,-44.079861,-4.477188,65.252487
785,0.593421,-6.198981,7.541671,6.270782,15.402078,-8.522161,-43.942867,-4.331639,64.723228
786,0.532173,-6.005428,7.696280,15.112401,19.100132,-7.487634,-43.543026,-4.100457,64.131355
787,0.383819,-5.720980,7.568686,20.810892,23.645458,-5.145257,-42.900581,-3.725179,63.488636
789,0.397490,-5.808720,7.955229,23.983114,21.091860,-4.682311,-42.115997,-3.286029,62.862915
790,0.459423,-5.832640,8.332134,29.993158,16.151403,-5.435325,-41.187210,-2.934080,62.323845
791,0.299313,-5.666124,8.434763,36.314075,15.548611,-1.213608,-40.061417,-2.604864,61.895729
792,0.359646,-5.411729,8.619994,46.058784,8.541650,-0.258277,-38.677135,-2.309598,61.621857
793,0.359813,-5.411309,9.170934,51.269627,2.893971,2.953671,-37.052185,-2.130908,61.541012
794,0.519483,-5.394416,9.017620,45.905170,-4.018978,2.342410,-35.436077,-2.093136,61.623703
795,0.777152,-5.453097,8.603084,32.024902,-10.982684,-2.607691,-34.142902,-2.300523,61.763500
796,0.609246,-5.504115,8.353005,18.180172,-4.139953,-4.051950,-33.308411,-2.571630,61.812180
797,0.628203,-5.693220,8.251845,4.868902,-0.232574,-10.407214,-32.916805,-2.764569,61.649948
798,0.937662,-5.739991,7.918957,-2.583163,-5.451630,-24.604639,-32.856125,-3.161328,61.210983
799,1.013006,-5.761953,7.714678,-5.156765,-3.286118,-36.629311,-32.937439,-3.838140,60.431992
800,0.926156,-5.866732,7.764681,-5.905049,2.489219,-42.353664,-33.041504,-4.566010,59.332344
801,1.489580,-6.044394,7.814361,-7.746226,-9.636801,-56.169754,-33.153439,-5.562306,58.016945
802,1.704483,-5.936800,7.665694,-5.658319,-10.683856,-64.283165,-33.211689,-6.944293,56.513454
803,1.565390,-5.840654,7.614384,-4.597246,2.429161,-61.995861,-33.158337,-8.210700,54.812866
804,1.696772,-5.722961,7.845929,1.103591,10.414441,-59.207287,-32.942558,-9.132510,52.982727
805,1.400898,-5.475292,8.127623,13.855560,30.490059,-48.447113,-32.385918,-9.526067,51.079395
806,1.343866,-5.118983,8.193841,27.184883,42.887691,-42.128696,-31.385839,-9.283370,49.125202
807,1.084933,-5.102724,8.485060,28.981775,57.469795,-32.132130,-30.152052,-8.477727,47.183151
808,1.017291,-5.022478,8.867445,32.234863,62.709843,-29.011841,-28.875999,-7.236774,45.291664
809,0.582535,-4.856897,8.869534,33.562653,71.512817,-25.036913,-27.570913,-5.691907,43.429123
810,0.621296,-4.716271,8.716630,28.086061,63.906639,-29.460104,-26.388195,-4.093307,41.589600
811,0.173909,-4.665622,8.846008,23.264618,67.913277,-27.972858,-25.426058,-2.536805,39.766724
812,-0.058961,-4.358891,8.977959,30.166372,65.158142,-31.078028,-24.480871,-0.942602,37.938129
813,-0.496248,-4.068113,8.948981,35.052921,65.777458,-31.421354,-23.388618,0.629434,36.102879
814,-0.695308,-3.743417,8.874722,38.969818,60.148273,-35.515129,-22.199776,2.131865,34.262459
815,-0.714024,-3.699494,8.882835,33.255352,48.455933,-43.153015,-21.085375,3.330492,32.376217
816,-0.576686,-3.583702,8.973866,29.745079,32.158897,-53.091465,-20.160418,4.021618,30.399323
817,-0.569267,-3.450516,8.909101,26.605164,21.556583,-59.909805,-19.368183,4.226372,28.320963
818,-0.550090,-3.117538,8.992542,31.903532,13.025624,-63.635757,-18.546766,4.101868,26.182407
819,-0.543508,-2.942035,9.380030,35.323151,6.209356,-64.425232,-17.571190,3.745877,24.050482
820,-0.550303,-2.768033,9.603394,37.274567,1.824856,-62.854675,-16.486965,3.253469,21.980625
821,-0.390871,-2.596482,9.550335,37.033043,-5.225420,-60.681862,-15.349293,2.635034,20.014870
822,-0.305866,-2.348150,9.564072,37.596161,-8.107500,-55.663406,-14.177235,1.926614,18.196459
823,0.072503,-2.383533,9.494018,27.885729,-16.969143,-52.861263,-13.129489,1.094386,16.537773
824,0.411040,-2.325572,9.315415,20.353561,-23.531513,-49.088177,-12.339671,0.060924,15.030916
825,0.530216,-1.977879,9.382320,25.759573,-21.253721,-44.236713,-11.559215,-0.991627,13.665058
826,0.650847,-1.792902,9.662920,27.958330,-17.972673,-40.183968,-10.632400,-1.902948,12.409567
827,0.866563,-1.755601,9.731939,25.408989,-18.622318,-38.481319,-9.695363,-2.734038,11.225641
828,0.806198,-1.581655,9.723931,26.367983,-12.216077,-35.834915,-8.770965,-3.440044,10.084352
829,0.819245,-1.467022,9.738000,23.093784,-8.233594,-33.998753,-7.876053,-3.945493,8.979524
830,0.822602,-1.345070,9.743320,21.568306,-4.898747,-32.355515,-7.055028,-4.306328,7.908707
831,0.632920,-1.198969,9.650486,19.962313,2.882174,-29.723906,-6.284703,-4.459911,6.881954
832,0.549014,-1.133231,9.694841,15.247339,7.042235,-25.598278,-5.626186,-4.391095,5.944666
833,0.622778,-1.136300,9.703538,8.185115,4.938720,-21.624113,-5.175258,-4.266543,5.139883
834,0.557373,-1.115138,9.730138,4.029922,6.833282,-18.003525,-4.922065,-4.129525,4.462924
835,0.598671,-1.120568,9.722705,-0.477161,5.042417,-14.933713,-4.823032,-3.979097,3.897674
836,0.643956,-1.139519,9.718148,-4.406997,3.325711,-12.430216,-4.872385,-3.878840,3.430324
837,0.687402,-1.127912,9.711318,-7.006907,1.561057,-10.588013,-5.036353,-3.830980,3.040174
838,0.736128,-1.095165,9.785271,-7.569510,-0.011366,-9.814980,-5.256402,-3.835859,2.698388
839,0.735577,-1.121379,9.799662,-10.015380,-0.723661,-9.304473,-5.528131,-3.878032,2.381554
840,0.786234,-1.133859,9.807238,-14.935454,-3.084350,-10.746180,-5.921568,-3.974584,2.054607
841,0.783213,-1.189906,9.839728,-19.462463,-3.404660,-12.069427,-6.468867,-4.123215,1.687294
842,0.722293,-1.288316,9.880667,-23.111729,-1.498181,-13.224231,-7.148464,-4.254391,1.277351
843,0.725620,-1.366437,9.850422,-26.184618,-1.979170,-14.439475,-7.936199,-4.372392,0.826768
844,0.856961,-1.396927,9.807206,-25.219196,-5.849015,-15.354033,-8.755909,-4.573573,0.352993
845,0.830756,-1.488531,9.810679,-24.530252,-3.946928,-14.298568,-9.546928,-4.813289,-0.110734
846,0.895274,-1.565747,9.792630,-21.268948,-3.936093,-12.166118,-10.274837,-5.018635,-0.523991
847,0.992051,-1.697898,9.769268,-20.473171,-5.623291,-10.175682,-10.940248,-5.243784,-0.862022
848,1.003739,-1.788676,9.736794,-15.071976,-4.268134,-7.242605,-11.508891,-5.462082,-1.115854
849,0.897400,-1.874728,9.653365,-8.659395,0.289892,-3.028406,-11.889517,-5.561730,-1.270751
850,0.952498,-1.816907,9.632540,6.886954,0.593118,1.098697,-11.915745,-5.553982,-1.305312
851,1.160444,-1.747869,9.599759,21.759113,-6.783806,4.251061,-11.448921,-5.636939,-1.196576
852,1.140665,-1.654039,9.607738,34.030613,-3.228639,10.486518,-10.546390,-5.753844,-0.922146
853,1.063129,-1.528436,9.539520,45.484135,-0.189685,16.621151,-9.266841,-5.732108,-0.465472
854,0.831863,-1.544340,10.001345,47.903870,8.768369,22.246706,-7.771371,-5.494624,0.156475
855,0.807697,-1.430446,10.028357,44.480957,7.011283,21.307194,-6.295586,-5.144415,0.846444
856,0.547085,-1.285468,10.070647,34.953548,11.416394,18.539797,-5.026751,-4.773261,1.479360
857,0.529672,-1.064779,10.055717,25.870462,9.514755,13.996190,-4.053912,-4.382501,1.993207
858,0.612773,-0.935598,10.162725,15.091347,4.653909,8.518473,-3.397932,-4.122478,2.353175
859,0.888152,-0.589422,9.795405,13.936551,-6.747626,2.400553,-2.927469,-4.147256,2.537333
860,0.876251,-0.493113,9.820391,11.230812,-7.441378,0.665223,-2.512861,-4.381223,2.600180
861,0.900298,-0.444372,9.868673,8.983672,-6.181159,-0.664620,-2.176728,-4.608111,2.609576
862,0.890426,-0.368193,9.871811,9.099849,-3.864218,-1.871796,-1.872380,-4.776954,2.573130
863,0.874028,-0.295347,9.899180,9.445992,-1.626788,-2.594613,-1.557255,-4.870683,2.501156
864,0.819037,-0.225258,9.937423,9.820567,1.489837,-2.592052,-1.228798,-4.875082,2.414427
865,0.780732,-0.170299,9.912379,9.586954,3.049160,-2.242603,-0.898418,-4.800941,2.332094
866,0.751168,-0.102050,9.900236,10.151861,3.566545,-1.382302,-0.564316,-4.691454,2.270026
867,0.758850,-0.078502,9.901404,8.369156,2.349308,-0.237291,-0.253395,-4.593029,2.242231
868,0.744798,-0.048531,9.881679,7.111259,1.961158,0.710619,0.003987,-4.521149,2.250003
869,0.762673,-0.035542,9.876188,5.726983,0.466568,1.241372,0.215384,-4.480732,2.282715
870,0.796484,-0.007624,9.881798,5.263210,-0.761306,1.620414,0.394809,-4.485887,2.330550
871,0.854553,0.007786,9.862692,4.212990,-2.475360,1.522127,0.548641,-4.540254,2.382658
872,0.853137,0.029307,9.882137,3.512949,-2.122059,1.126898,0.673928,-4.617342,2.426152
873,0.879198,0.041742,9.874748,2.832558,-2.495197,0.891030,0.777025,-4.694717,2.458915
874,0.862066,0.077648,9.863509,2.453996,-1.657100,0.868639,0.862787,-4.764334,2.487353
875,0.860937,0.025405,9.868430,-1.672648,-1.686005,1.365165,0.872762,-4.820610,2.523859
876,0.786417,0.060147,9.830485,0.268985,1.037759,1.792115,0.844939,-4.832190,2.576516
877,0.812263,0.057826,9.793483,-1.444209,0.324923,3.044005,0.818536,-4.810659,2.657730
878,0.704304,0.065927,9.816088,-2.326290,4.361612,4.516822,0.745080,-4.734269,2.785236
