seq,ax,ay,az,wroll,wpitch,wyaw,roll,pitch,yaw,q0,q1,q2,q3
69,0.042302,0.127615,-9.869630,0.007287,0.072816,-0.041630,179.259201,-0.245553,-179.996826,-0.002143,-0.000014,0.999977,0.006465
71,0.045549,0.170140,-9.876749,-0.029336,0.066713,-0.044682,179.226227,-0.248829,-179.958954,-0.002174,-0.000344,0.999975,0.006752
72,0.044469,0.166769,-9.873267,0.004234,0.057557,-0.034000,179.156143,-0.255275,-179.957306,-0.002230,-0.000356,0.999970,0.007363
73,0.047042,0.169971,-9.871902,-0.007974,0.060609,-0.030948,179.102798,-0.261488,-179.955963,-0.002285,-0.000366,0.999967,0.007829
74,0.045708,0.163421,-9.872755,-0.021707,0.057557,-0.024845,179.071640,-0.266838,-179.954849,-0.002332,-0.000375,0.999964,0.008100
75,0.044894,0.166921,-9.869524,-0.004922,0.059083,-0.009585,179.056671,-0.268374,-179.954178,-0.002345,-0.000381,0.999963,0.008231
76,0.047258,0.167329,-9.867554,0.011864,0.060609,-0.011111,179.045898,-0.270321,-179.953751,-0.002362,-0.000384,0.999963,0.008325
78,0.046539,0.168008,-9.868291,0.011864,0.048401,-0.017215,179.038467,-0.273053,-179.953217,-0.002386,-0.000388,0.999962,0.008390
79,0.049115,0.167279,-9.863181,0.021019,0.049927,-0.014163,179.034042,-0.276593,-179.952637,-0.002417,-0.000393,0.999961,0.008428
80,0.050519,0.170444,-9.863886,0.036279,0.051453,-0.011111,179.029602,-0.282870,-179.952164,-0.002472,-0.000397,0.999961,0.008467
81,0.047107,0.158267,-9.864764,0.031701,0.040772,-0.024845,179.035049,-0.285585,-179.951553,-0.002496,-0.000402,0.999961,0.008420
82,0.047614,0.159765,-9.868253,0.031701,0.037720,-0.027897,179.050140,-0.283953,-179.950729,-0.002481,-0.000409,0.999963,0.008288
83,0.049500,0.156751,-9.871466,0.027122,0.042298,-0.035526,179.063385,-0.284341,-179.949707,-0.002485,-0.000419,0.999963,0.008172
85,0.046687,0.151581,-9.870783,0.033226,0.030091,-0.034000,179.079742,-0.283936,-179.948608,-0.002481,-0.000429,0.999965,0.008030
86,0.050069,0.150244,-9.871321,0.025597,0.034668,-0.040104,179.097351,-0.283929,-179.947433,-0.002481,-0.000439,0.999966,0.007876
87,0.055237,0.158717,-9.872210,0.024072,0.036194,-0.034000,179.102905,-0.291938,-179.946213,-0.002551,-0.000449,0.999966,0.007827
88,0.052753,0.163683,-9.871060,0.021019,0.046876,-0.026371,179.092346,-0.301354,-179.945129,-0.002634,-0.000458,0.999965,0.007919
89,0.049738,0.165022,-9.871119,0.017968,0.051453,-0.035526,179.076691,-0.303217,-179.943985,-0.002650,-0.000468,0.999964,0.008056
90,0.046443,0.165969,-9.876483,0.013389,0.057557,-0.041630,179.063019,-0.297645,-179.942596,-0.002601,-0.000480,0.999963,0.008175
92,0.045664,0.167603,-9.873850,0.031701,0.063661,-0.043156,179.051910,-0.289107,-179.941086,-0.002527,-0.000493,0.999963,0.008272
93,0.043495,0.169532,-9.874978,0.025597,0.071290,-0.043156,179.041626,-0.280330,-179.939560,-0.002451,-0.000507,0.999962,0.008362
94,0.045757,0.166347,-9.870712,0.039330,0.069765,-0.040104,179.035950,-0.274495,-179.938095,-0.002400,-0.000520,0.999962,0.008411
95,0.043682,0.170834,-9.872567,0.027122,0.071290,-0.027897,179.031616,-0.271159,-179.936890,-0.002371,-0.000531,0.999961,0.008449
96,0.045963,0.177177,-9.870612,0.024072,0.071290,-0.017215,179.018646,-0.269496,-179.936035,-0.002356,-0.000538,0.999960,0.008562
97,0.047402,0.178012,-9.871552,0.028649,0.065187,-0.014163,179.001831,-0.271949,-179.935394,-0.002378,-0.000543,0.999959,0.008709
99,0.045836,0.173364,-9.866267,0.033226,0.056031,-0.029422,178.993332,-0.273920,-179.934586,-0.002395,-0.000550,0.999958,0.008783
100,0.047172,0.172687,-9.866844,0.045434,0.057557,-0.035526,178.993927,-0.274867,-179.933472,-0.002404,-0.000560,0.999958,0.008778
101,0.048458,0.169377,-9.861149,0.075953,0.063661,-0.032474,179.000061,-0.277913,-179.932312,-0.002430,-0.000569,0.999959,0.008725
102,0.049957,0.166947,-9.863045,0.069849,0.085024,-0.047734,179.010757,-0.283358,-179.930984,-0.002478,-0.000581,0.999959,0.008631
103,0.047318,0.164587,-9.860557,0.082056,0.088076,-0.052311,179.023285,-0.286816,-179.929306,-0.002508,-0.000596,0.999960,0.008522
104,0.049452,0.167181,-9.861487,0.057641,0.103335,-0.044682,179.031693,-0.288712,-179.927673,-0.002525,-0.000610,0.999961,0.008448
106,0.046616,0.164565,-9.861774,0.071374,0.103335,-0.032474,179.036652,-0.289370,-179.926346,-0.002531,-0.000622,0.999961,0.008405
107,0.045156,0.166513,-9.862166,0.034752,0.101809,-0.032474,179.039734,-0.285648,-179.925201,-0.002498,-0.000632,0.999962,0.008378
108,0.048193,0.167882,-9.857897,0.057641,0.075868,-0.029422,179.038208,-0.283421,-179.924118,-0.002479,-0.000641,0.999962,0.008391
109,0.049474,0.163588,-9.859430,0.045434,0.074342,-0.035526,179.039261,-0.285662,-179.922989,-0.002498,-0.000651,0.999962,0.008382
110,0.049785,0.168010,-9.860399,0.065271,0.066713,-0.027896,179.040436,-0.289202,-179.921890,-0.002529,-0.000661,0.999962,0.008372
111,0.050650,0.170093,-9.864365,0.048487,0.062135,-0.027896,179.035400,-0.292683,-179.920883,-0.002560,-0.000669,0.999961,0.008416
113,0.053584,0.166884,-9.865148,0.088160,0.042298,-0.037052,179.032471,-0.298114,-179.919739,-0.002607,-0.000678,0.999961,0.008441
114,0.048232,0.162772,-9.872587,0.060693,0.051453,-0.032474,179.037857,-0.299695,-179.918579,-0.002621,-0.000689,0.999961,0.008394
115,0.047181,0.174817,-9.878177,0.054589,0.045350,-0.020267,179.035217,-0.294277,-179.917648,-0.002574,-0.000697,0.999961,0.008417
116,0.043606,0.175201,-9.880050,0.079004,0.042298,-0.030949,179.021164,-0.285032,-179.916687,-0.002493,-0.000706,0.999960,0.008540
117,0.043349,0.177286,-9.880903,0.053064,0.049928,-0.043156,179.007492,-0.274649,-179.915344,-0.002403,-0.000718,0.999959,0.008659
118,0.048490,0.179238,-9.881898,0.056116,0.063661,-0.043156,178.994156,-0.272201,-179.913803,-0.002382,-0.000731,0.999958,0.008776
120,0.046369,0.189933,-9.878224,0.079004,0.059083,-0.047733,178.973877,-0.274718,-179.912140,-0.002404,-0.000745,0.999957,0.008953
121,0.044176,0.178061,-9.872333,0.069849,0.063661,-0.058415,178.960068,-0.273299,-179.910263,-0.002392,-0.000761,0.999956,0.009073
122,0.044485,0.172370,-9.871471,0.054589,0.063661,-0.046208,178.967255,-0.270082,-179.908508,-0.002364,-0.000777,0.999956,0.009010
123,0.045079,0.172615,-9.871341,0.071374,0.051454,-0.046208,178.980515,-0.268234,-179.906982,-0.002348,-0.000791,0.999957,0.008895
124,0.042409,0.170963,-9.867409,0.071374,0.039246,-0.034000,178.992050,-0.264893,-179.905655,-0.002319,-0.000803,0.999958,0.008794
125,0.043749,0.167395,-9.865327,0.056116,0.042298,-0.023319,179.004089,-0.261031,-179.904724,-0.002285,-0.000812,0.999959,0.008689
127,0.046141,0.174723,-9.872290,0.088160,0.039246,-0.024845,179.009323,-0.261722,-179.903915,-0.002291,-0.000819,0.999960,0.008643
128,0.048299,0.177190,-9.874787,0.066796,0.042298,-0.026371,179.003143,-0.267054,-179.903000,-0.002338,-0.000826,0.999959,0.008697
129,0.050633,0.175302,-9.868353,0.065270,0.049928,-0.035526,178.996124,-0.275752,-179.901901,-0.002414,-0.000835,0.999958,0.008758
130,0.053382,0.181659,-9.865666,0.066798,0.052980,-0.049260,178.986938,-0.287114,-179.900391,-0.002513,-0.000847,0.999957,0.008838
131,0.051271,0.180440,-9.867751,0.054589,0.052980,-0.056889,178.975418,-0.295933,-179.898529,-0.002590,-0.000862,0.999956,0.008939
132,0.050724,0.174163,-9.865215,0.017968,0.049928,-0.058415,178.973236,-0.299062,-179.896561,-0.002618,-0.000879,0.999956,0.008958
134,0.052672,0.176556,-9.861209,0.022545,0.051453,-0.064519,178.976151,-0.301592,-179.894485,-0.002640,-0.000897,0.999956,0.008932
135,0.053379,0.179349,-9.863131,0.033226,0.039246,-0.052311,178.974396,-0.305500,-179.892502,-0.002674,-0.000914,0.999956,0.008947
136,0.049678,0.175860,-9.869216,-0.017129,0.039246,-0.061467,178.972580,-0.305396,-179.890579,-0.002674,-0.000931,0.999956,0.008963
137,0.055960,0.170869,-9.867644,0.001182,0.028564,-0.066045,178.978653,-0.306858,-179.888458,-0.002686,-0.000949,0.999956,0.008910
138,0.054534,0.175404,-9.864547,0.030174,0.025513,-0.056889,178.985184,-0.312364,-179.886429,-0.002735,-0.000967,0.999957,0.008853
139,0.053124,0.177096,-9.868312,0.030174,0.025513,-0.052312,178.984497,-0.314110,-179.884583,-0.002750,-0.000983,0.999957,0.008859
140,0.051439,0.172731,-9.871948,0.027122,0.042298,-0.056889,178.985413,-0.312106,-179.882751,-0.002733,-0.000999,0.999957,0.008851
141,0.052645,0.169167,-9.868906,0.071374,0.043824,-0.049259,178.994263,-0.310007,-179.880997,-0.002714,-0.001015,0.999957,0.008774
142,0.047852,0.168498,-9.868389,0.051537,0.054505,-0.041630,179.005829,-0.305486,-179.879501,-0.002675,-0.001028,0.999958,0.008673
143,0.048893,0.166396,-9.872101,0.050012,0.060609,-0.038578,179.016388,-0.298834,-179.878174,-0.002617,-0.001041,0.999959,0.008581
144,0.049894,0.159229,-9.867849,0.060693,0.054506,-0.041630,179.032104,-0.295831,-179.876877,-0.002591,-0.001053,0.999960,0.008444
145,0.049557,0.162970,-9.864730,0.040856,0.043824,-0.049260,179.046555,-0.294719,-179.875397,-0.002581,-0.001066,0.999961,0.008317
146,0.047220,0.159136,-9.873682,0.040856,0.036194,-0.047734,179.056061,-0.291468,-179.873810,-0.002553,-0.001080,0.999962,0.008234
147,0.048081,0.171336,-9.878997,0.034752,0.039246,-0.050786,179.054214,-0.287410,-179.872131,-0.002517,-0.001095,0.999962,0.008251
148,0.049826,0.172783,-9.876678,0.017969,0.043824,-0.056889,179.038284,-0.287013,-179.870224,-0.002514,-0.001111,0.999961,0.008390
149,0.046535,0.173381,-9.881922,0.034752,0.043824,-0.056889,179.023331,-0.285963,-179.868225,-0.002505,-0.001129,0.999960,0.008520
150,0.048326,0.166424,-9.882958,0.022545,0.056031,-0.046208,179.019287,-0.283943,-179.866455,-0.002488,-0.001144,0.999960,0.008555
151,0.049163,0.177425,-9.876821,0.028649,0.072816,-0.047733,179.014359,-0.285329,-179.864822,-0.002500,-0.001158,0.999959,0.008598
153,0.049008,0.174783,-9.871635,0.048487,0.062135,-0.043156,179.003418,-0.287596,-179.863205,-0.002520,-0.001172,0.999958,0.008694
154,0.048670,0.171298,-9.869706,0.062220,0.060609,-0.055363,179.001068,-0.288658,-179.861511,-0.002529,-0.001187,0.999958,0.008714
155,0.051562,0.174873,-9.865805,0.031701,0.068239,-0.061467,179.000366,-0.291664,-179.859512,-0.002556,-0.001204,0.999958,0.008720
156,0.045537,0.179976,-9.868697,0.063745,0.060609,-0.052311,178.992172,-0.291151,-179.857529,-0.002552,-0.001221,0.999957,0.008792
157,0.043758,0.175426,-9.865465,0.053063,0.049928,-0.038578,178.985245,-0.282771,-179.855942,-0.002479,-0.001235,0.999957,0.008852
158,0.042056,0.171416,-9.868259,0.031701,0.051453,-0.035526,178.988022,-0.272455,-179.854675,-0.002389,-0.001247,0.999957,0.008828
159,0.036812,0.173035,-9.872094,0.036279,0.045350,-0.021793,178.993500,-0.258619,-179.853714,-0.002268,-0.001257,0.999958,0.008780
160,0.034284,0.167847,-9.874660,0.069849,0.039246,-0.012637,179.001678,-0.241246,-179.853149,-0.002116,-0.001263,0.999959,0.008709
161,0.039285,0.167034,-9.871433,0.037804,0.048402,-0.024845,179.013229,-0.231140,-179.852539,-0.002028,-0.001269,0.999960,0.008609
162,0.041122,0.173581,-9.872258,0.051537,0.059083,-0.037052,179.016037,-0.231998,-179.851486,-0.002036,-0.001279,0.999960,0.008584
163,0.043513,0.173167,-9.871370,0.071374,0.063661,-0.043156,179.011490,-0.238455,-179.850082,-0.002092,-0.001290,0.999960,0.008623
164,0.052126,0.180102,-9.868578,0.046960,0.074342,-0.052312,179.001099,-0.254130,-179.848404,-0.002229,-0.001304,0.999959,0.008714
165,0.053353,0.184332,-9.866275,0.056116,0.068239,-0.055363,178.982468,-0.275439,-179.846466,-0.002415,-0.001318,0.999957,0.008876
166,0.051290,0.185693,-9.865833,0.068323,0.054505,-0.050786,178.963608,-0.289805,-179.844559,-0.002541,-0.001334,0.999955,0.009041
167,0.050340,0.178097,-9.867400,0.045433,0.048402,-0.053838,178.956253,-0.295418,-179.842743,-0.002590,-0.001349,0.999954,0.009105
168,0.050372,0.176926,-9.868482,0.054589,0.051453,-0.038578,178.960922,-0.296965,-179.841187,-0.002604,-0.001362,0.999955,0.009064
169,0.046164,0.169743,-9.868904,0.054589,0.052979,-0.023319,178.973877,-0.293620,-179.840179,-0.002575,-0.001372,0.999956,0.008951
170,0.045119,0.168550,-9.870126,0.022545,0.065187,-0.021793,178.991226,-0.285959,-179.839478,-0.002508,-0.001379,0.999957,0.008800
171,0.040810,0.170084,-9.872135,0.028648,0.066713,-0.021793,179.003082,-0.275337,-179.838760,-0.002415,-0.001386,0.999958,0.008696
172,0.040707,0.167646,-9.870927,0.028648,0.062135,-0.001956,179.011261,-0.263507,-179.838364,-0.002312,-0.001391,0.999959,0.008625
173,0.037813,0.162686,-9.873258,0.019493,0.054505,-0.012637,179.022934,-0.252274,-179.838135,-0.002213,-0.001394,0.999960,0.008523
174,0.036688,0.166618,-9.873890,0.014915,0.039246,-0.015689,179.032227,-0.240605,-179.837677,-0.002112,-0.001399,0.999961,0.008442
175,0.036988,0.166015,-9.877619,0.036279,0.033142,-0.020267,179.035477,-0.231430,-179.837067,-0.002032,-0.001405,0.999962,0.008414
176,0.043559,0.166150,-9.876175,0.021019,0.036194,-0.020267,179.037323,-0.231807,-179.836365,-0.002035,-0.001411,0.999962,0.008398
177,0.044880,0.170103,-9.880257,0.036279,0.036194,-0.034000,179.034637,-0.240859,-179.835434,-0.002114,-0.001418,0.999961,0.008421
178,0.046822,0.172268,-9.875647,0.051537,0.042298,-0.043156,179.026962,-0.251512,-179.834091,-0.002207,-0.001429,0.999961,0.008488
179,0.047266,0.169868,-9.870692,0.031701,0.063661,-0.040104,179.020920,-0.261733,-179.832642,-0.002296,-0.001441,0.999960,0.008541
180,0.047315,0.174065,-9.869857,0.065271,0.066713,-0.041630,179.015533,-0.269535,-179.831207,-0.002365,-0.001453,0.999959,0.008587
181,0.044189,0.167709,-9.871346,0.054589,0.068239,-0.049259,179.014343,-0.271726,-179.829636,-0.002384,-0.001466,0.999959,0.008598
182,0.044409,0.168879,-9.871103,0.034752,0.072817,-0.043156,179.018448,-0.269762,-179.828064,-0.002367,-0.001480,0.999960,0.008562
183,0.048360,0.170689,-9.872602,0.045434,0.075868,-0.041630,179.019241,-0.271717,-179.826614,-0.002384,-0.001493,0.999960,0.008555
184,0.048604,0.173003,-9.875254,0.031701,0.062135,-0.037052,179.015472,-0.277333,-179.825241,-0.002433,-0.001504,0.999959,0.008588
185,0.045828,0.168685,-9.869511,0.028649,0.051453,-0.024845,179.013702,-0.279035,-179.824158,-0.002448,-0.001513,0.999959,0.008603
186,0.044163,0.174486,-9.867745,0.036279,0.059083,-0.020267,179.011398,-0.275485,-179.823364,-0.002417,-0.001521,0.999959,0.008623
187,0.046292,0.172460,-9.863726,0.040856,0.060609,-0.018741,179.006378,-0.272832,-179.822647,-0.002394,-0.001527,0.999958,0.008667
188,0.045641,0.173283,-9.860847,0.046960,0.054505,-0.026371,179.003693,-0.272471,-179.821838,-0.002391,-0.001534,0.999958,0.008691
189,0.046306,0.176790,-9.860481,0.036279,0.063661,-0.026371,178.998108,-0.272663,-179.820892,-0.002393,-0.001542,0.999958,0.008739
190,0.049516,0.179406,-9.861273,0.053063,0.075868,-0.034000,178.988312,-0.276797,-179.819794,-0.002429,-0.001551,0.999957,0.008825
191,0.048912,0.188010,-9.861061,0.027122,0.069765,-0.032474,178.970505,-0.282739,-179.818542,-0.002481,-0.001561,0.999955,0.008980
192,0.047323,0.183312,-9.862646,0.014915,0.065187,-0.034000,178.952850,-0.284884,-179.817307,-0.002501,-0.001571,0.999954,0.009134
193,0.039305,0.184888,-9.865206,0.034752,0.057557,-0.027896,178.943878,-0.276695,-179.816193,-0.002429,-0.001582,0.999953,0.009212
194,0.040868,0.177227,-9.866365,0.028648,0.052979,-0.038578,178.945007,-0.263308,-179.815048,-0.002313,-0.001593,0.999954,0.009203
195,0.040354,0.174978,-9.870226,0.004233,0.045350,-0.041630,178.956070,-0.254076,-179.813736,-0.002232,-0.001605,0.999955,0.009106
196,0.040060,0.168699,-9.868530,0.053063,0.040772,-0.043156,178.973480,-0.247471,-179.812363,-0.002174,-0.001618,0.999956,0.008954
197,0.036774,0.175365,-9.871737,0.037804,0.049927,-0.035526,178.986603,-0.240156,-179.811081,-0.002110,-0.001630,0.999957,0.008840
198,0.042394,0.174668,-9.870068,0.019493,0.059083,-0.034001,178.988876,-0.237492,-179.809891,-0.002087,-0.001641,0.999958,0.008820
199,0.041240,0.178268,-9.868289,0.046960,0.054505,-0.037052,178.986145,-0.240601,-179.808655,-0.002114,-0.001651,0.999957,0.008844
200,0.043991,0.176474,-9.866066,0.021019,0.065187,-0.030949,178.981781,-0.245225,-179.807465,-0.002155,-0.001661,0.999957,0.008882
201,0.043479,0.172953,-9.868719,0.037804,0.068239,-0.032474,178.983276,-0.250912,-179.806366,-0.002205,-0.001670,0.999957,0.008869
202,0.047480,0.175261,-9.865759,0.019493,0.069765,-0.041630,178.986313,-0.258249,-179.805099,-0.002269,-0.001681,0.999957,0.008842
203,0.049920,0.173783,-9.867278,0.039330,0.056031,-0.052311,178.987869,-0.269240,-179.803513,-0.002365,-0.001694,0.999957,0.008828
204,0.050534,0.174365,-9.868956,0.045433,0.051454,-0.046208,178.990005,-0.279816,-179.801834,-0.002457,-0.001708,0.999957,0.008809
205,0.051248,0.173572,-9.867736,0.039330,0.048402,-0.053837,178.991760,-0.288068,-179.800140,-0.002529,-0.001722,0.999957,0.008794
206,0.053716,0.176302,-9.866974,0.050012,0.052979,-0.044682,178.991165,-0.296299,-179.798462,-0.002601,-0.001736,0.999956,0.008799
207,0.053407,0.178411,-9.864212,0.051537,0.063661,-0.026371,178.986084,-0.304185,-179.797211,-0.002670,-0.001746,0.999956,0.008843
208,0.050426,0.178001,-9.864868,0.046960,0.068238,-0.017215,178.980255,-0.306766,-179.796402,-0.002693,-0.001753,0.999955,0.008894
209,0.046071,0.180828,-9.864953,0.051537,0.072816,-0.017215,178.973938,-0.301096,-179.795746,-0.002643,-0.001759,0.999955,0.008949
210,0.047564,0.185627,-9.865057,0.051537,0.075868,-0.014163,178.962631,-0.293410,-179.795105,-0.002577,-0.001765,0.999954,0.009048
211,0.051752,0.179986,-9.867379,0.046959,0.072816,-0.023319,178.954834,-0.293049,-179.794388,-0.002574,-0.001771,0.999954,0.009116
212,0.050220,0.171909,-9.869678,0.074426,0.052979,-0.049259,178.963135,-0.295992,-179.793182,-0.002599,-0.001781,0.999954,0.009044
213,0.049744,0.170165,-9.868237,0.063745,0.059083,-0.052311,178.980667,-0.296439,-179.791534,-0.002603,-0.001796,0.999955,0.008890
214,0.055706,0.164454,-9.868719,0.060693,0.057557,-0.050785,179.000717,-0.301473,-179.789871,-0.002647,-0.001811,0.999957,0.008715
215,0.050854,0.156990,-9.874214,0.077478,0.042298,-0.046208,179.027252,-0.306356,-179.788361,-0.002689,-0.001824,0.999959,0.008484
216,0.045517,0.158886,-9.871664,0.053063,0.034668,-0.038578,179.051437,-0.299914,-179.787033,-0.002633,-0.001837,0.999961,0.008273
217,0.044745,0.161787,-9.870841,0.043908,0.049928,-0.018741,179.062576,-0.288256,-179.786102,-0.002531,-0.001846,0.999962,0.008176
218,0.045040,0.170207,-9.866154,0.022545,0.052979,-0.021793,179.057129,-0.279357,-179.785370,-0.002453,-0.001853,0.999962,0.008223
219,0.043708,0.170420,-9.865455,0.022545,0.054505,-0.024845,179.042404,-0.272857,-179.784485,-0.002397,-0.001861,0.999961,0.008352
220,0.041727,0.177062,-9.859118,0.027122,0.059083,-0.021793,179.024536,-0.265877,-179.783585,-0.002336,-0.001869,0.999959,0.008508
221,0.043161,0.176398,-9.858127,0.001182,0.062135,-0.035526,179.005859,-0.260681,-179.782516,-0.002291,-0.001878,0.999958,0.008671
222,0.043192,0.174534,-9.858483,0.027122,0.042298,-0.043156,178.995270,-0.258478,-179.781113,-0.002272,-0.001890,0.999957,0.008763
223,0.044087,0.167875,-9.864238,0.062220,0.042298,-0.023319,178.998276,-0.257946,-179.779999,-0.002268,-0.001900,0.999958,0.008737
224,0.042105,0.171568,-9.863439,0.025597,0.046876,-0.027897,179.005264,-0.256909,-179.779144,-0.002259,-0.001908,0.999958,0.008676
225,0.044586,0.166487,-9.864225,0.004233,0.052979,-0.030949,179.010986,-0.256756,-179.778152,-0.002257,-0.001917,0.999958,0.008626
226,0.045990,0.168727,-9.864084,0.082056,0.051453,-0.014163,179.018250,-0.260441,-179.777405,-0.002289,-0.001923,0.999959,0.008563
227,0.045459,0.172095,-9.863740,0.028648,0.060609,-0.029423,179.018707,-0.264499,-179.776627,-0.002325,-0.001929,0.999959,0.008559
228,0.045900,0.182931,-9.863395,-0.012551,0.057557,-0.041630,179.003296,-0.267344,-179.775345,-0.002350,-0.001940,0.999958,0.008693
229,0.045095,0.184516,-9.867390,0.066796,0.057557,-0.050786,178.979523,-0.268687,-179.773651,-0.002362,-0.001954,0.999956,0.008901
230,0.046372,0.189184,-9.869184,0.033226,0.060609,-0.049260,178.957077,-0.269824,-179.771835,-0.002373,-0.001970,0.999954,0.009096
231,0.045820,0.189958,-9.873294,0.011864,0.056031,-0.056889,178.936127,-0.271180,-179.769928,-0.002385,-0.001986,0.999952,0.009279
232,0.048835,0.186478,-9.879619,0.063745,0.046876,-0.044682,178.925232,-0.274131,-179.768158,-0.002411,-0.002001,0.999951,0.009374
233,0.055063,0.178679,-9.879971,0.053063,0.049927,-0.046208,178.930527,-0.284759,-179.766617,-0.002504,-0.002013,0.999951,0.009328
234,0.054044,0.171349,-9.876840,0.042383,0.045350,-0.037052,178.950211,-0.298012,-179.765305,-0.002619,-0.002024,0.999953,0.009156
235,0.055432,0.168104,-9.878494,0.054589,0.042298,-0.029422,178.975632,-0.307709,-179.764282,-0.002704,-0.002033,0.999954,0.008934
236,0.058769,0.167483,-9.876504,0.050011,0.045350,-0.030948,178.997604,-0.318116,-179.763367,-0.002794,-0.002041,0.999956,0.008742
237,0.055722,0.165718,-9.871132,0.025597,0.057557,-0.030948,179.013641,-0.325899,-179.762390,-0.002862,-0.002049,0.999957,0.008601
238,0.048786,0.156966,-9.872083,0.037804,0.054505,-0.030948,179.033066,-0.321807,-179.761429,-0.002826,-0.002058,0.999958,0.008432
239,0.043670,0.165232,-9.874604,0.028648,0.052979,-0.020267,179.047424,-0.305970,-179.760620,-0.002687,-0.002067,0.999960,0.008307
240,0.045055,0.176556,-9.873640,0.027122,0.039246,-0.037052,179.038284,-0.289596,-179.759583,-0.002545,-0.002077,0.999959,0.008387
241,0.039716,0.176196,-9.877231,0.031701,0.048402,-0.038578,179.018341,-0.274598,-179.758194,-0.002414,-0.002090,0.999958,0.008561
242,0.040582,0.176198,-9.879144,0.028648,0.054505,-0.041630,179.003448,-0.260690,-179.756760,-0.002293,-0.002103,0.999957,0.008692
243,0.041407,0.183101,-9.876492,0.043908,0.046876,-0.041630,178.987915,-0.252888,-179.755264,-0.002226,-0.002116,0.999956,0.008827
244,0.049508,0.183625,-9.873454,0.059167,0.049928,-0.040104,178.970810,-0.256667,-179.753784,-0.002259,-0.002128,0.999955,0.008976
245,0.043479,0.168731,-9.873048,0.060693,0.069765,-0.037052,178.972275,-0.263384,-179.752457,-0.002318,-0.002139,0.999955,0.008963
246,0.046054,0.169736,-9.869629,0.056116,0.057557,-0.029422,178.988876,-0.265414,-179.751389,-0.002335,-0.002149,0.999956,0.008819
247,0.045394,0.175879,-9.871462,0.083582,0.054505,-0.026370,178.996399,-0.267573,-179.750443,-0.002354,-0.002157,0.999957,0.008753
248,0.044829,0.181343,-9.870882,0.043908,0.066713,-0.029422,178.989258,-0.268090,-179.749435,-0.002359,-0.002166,0.999956,0.008815
249,0.041600,0.172434,-9.871041,0.053063,0.052979,-0.044682,178.984711,-0.264668,-179.748138,-0.002329,-0.002177,0.999956,0.008855
250,0.045187,0.175049,-9.873031,0.046960,0.057557,-0.037052,178.987869,-0.261872,-179.746750,-0.002305,-0.002190,0.999956,0.008827
251,0.040829,0.175682,-9.870581,0.039330,0.066713,-0.037052,178.988037,-0.259584,-179.745468,-0.002285,-0.002201,0.999956,0.008826
252,0.041965,0.169434,-9.868377,0.037804,0.063661,-0.035526,178.992615,-0.255262,-179.744247,-0.002247,-0.002212,0.999956,0.008786
253,0.046041,0.170551,-9.869511,0.030175,0.059083,-0.027897,179.000977,-0.256657,-179.743179,-0.002259,-0.002222,0.999957,0.008713
254,0.047998,0.169759,-9.871522,0.036279,0.071290,-0.017215,179.007019,-0.264178,-179.742416,-0.002325,-0.002228,0.999957,0.008660
256,0.046691,0.172101,-9.866128,0.063745,0.056031,-0.006534,179.009857,-0.270856,-179.741989,-0.002383,-0.002231,0.999957,0.008635
257,0.053110,0.169877,-9.868537,0.066798,0.062135,-0.012638,179.011658,-0.279845,-179.741638,-0.002461,-0.002234,0.999957,0.008619
258,0.050647,0.164487,-9.867003,0.046960,0.052979,-0.021793,179.019440,-0.289933,-179.741058,-0.002549,-0.002238,0.999958,0.008551
259,0.045221,0.164054,-9.864329,0.083582,0.046876,-0.020267,179.031281,-0.289510,-179.740372,-0.002546,-0.002244,0.999959,0.008448
260,0.047054,0.169332,-9.863585,0.037804,0.049927,-0.026371,179.035355,-0.284217,-179.739578,-0.002499,-0.002252,0.999959,0.008412
261,0.047832,0.169317,-9.867788,0.027122,0.056031,-0.046208,179.031174,-0.282360,-179.738312,-0.002483,-0.002263,0.999959,0.008449
262,0.048483,0.167223,-9.869339,0.016441,0.056031,-0.055363,179.028687,-0.283016,-179.736572,-0.002489,-0.002278,0.999958,0.008470
263,0.052833,0.173704,-9.869756,0.019493,0.054505,-0.055363,179.023117,-0.288421,-179.734665,-0.002537,-0.002294,0.999958,0.008519
264,0.053758,0.171135,-9.873349,0.030174,0.059083,-0.066045,179.015533,-0.297741,-179.732574,-0.002618,-0.002311,0.999957,0.008585
265,0.048945,0.172441,-9.873319,0.030174,0.063661,-0.066045,179.011414,-0.301291,-179.730301,-0.002649,-0.002331,0.999957,0.008621
266,0.048623,0.169989,-9.873560,0.027122,0.054505,-0.058415,179.010162,-0.298010,-179.728180,-0.002621,-0.002349,0.999957,0.008632
267,0.048999,0.174209,-9.870429,0.036279,0.036194,-0.055363,179.008194,-0.294294,-179.726242,-0.002589,-0.002367,0.999956,0.008649
268,0.047281,0.175583,-9.869018,0.011864,0.037720,-0.061467,179.001266,-0.290192,-179.724243,-0.002553,-0.002384,0.999956,0.008709
269,0.045176,0.172975,-9.870134,0.022545,0.040772,-0.058415,178.996643,-0.283892,-179.722198,-0.002499,-0.002403,0.999956,0.008750
270,0.048948,0.175158,-9.867781,0.022545,0.033143,-0.050785,178.994400,-0.280703,-179.720337,-0.002471,-0.002419,0.999956,0.008769
271,0.050873,0.177502,-9.870644,0.011864,0.051454,-0.046208,178.988922,-0.284430,-179.718658,-0.002504,-0.002433,0.999955,0.008817
272,0.047645,0.176975,-9.870701,0.053063,0.062135,-0.035526,178.983551,-0.287349,-179.717239,-0.002529,-0.002445,0.999955,0.008864
273,0.049696,0.177585,-9.872231,0.043908,0.074342,-0.020267,178.980377,-0.288516,-179.716248,-0.002540,-0.002454,0.999954,0.008891
274,0.054026,0.176619,-9.872272,0.022545,0.080446,-0.014163,178.978409,-0.295203,-179.715607,-0.002598,-0.002459,0.999954,0.008908
275,0.050801,0.172215,-9.877261,0.065271,0.074342,-0.026371,178.982620,-0.301636,-179.714905,-0.002654,-0.002464,0.999954,0.008872
276,0.045538,0.174136,-9.871456,0.048487,0.077394,-0.035526,178.989182,-0.298140,-179.713852,-0.002624,-0.002474,0.999955,0.008814
277,0.043936,0.177364,-9.871613,0.021019,0.081972,-0.037052,178.988480,-0.288022,-179.712585,-0.002535,-0.002486,0.999955,0.008821
278,0.043153,0.177728,-9.867410,0.050012,0.071290,-0.046208,178.983505,-0.277779,-179.711121,-0.002446,-0.002499,0.999955,0.008864
279,0.044273,0.177905,-9.861966,0.016441,0.060609,-0.061467,178.978683,-0.270746,-179.709259,-0.002385,-0.002516,0.999954,0.008906
280,0.047897,0.174376,-9.860447,0.013390,0.069764,-0.061467,178.977783,-0.270810,-179.707169,-0.002386,-0.002534,0.999954,0.008914
281,0.048560,0.177306,-9.859357,0.010337,0.063661,-0.050785,178.978195,-0.275987,-179.705261,-0.002431,-0.002551,0.999954,0.008911
282,0.053809,0.168921,-9.857676,-0.007974,0.056031,-0.053837,178.983292,-0.285559,-179.703506,-0.002515,-0.002565,0.999954,0.008866
283,0.050726,0.162891,-9.862539,0.063745,0.066713,-0.052311,179.001724,-0.294826,-179.701782,-0.002595,-0.002580,0.999955,0.008705
284,0.052761,0.166051,-9.865522,-0.009499,0.083498,-0.035526,179.019165,-0.300571,-179.700363,-0.002645,-0.002592,0.999957,0.008552
285,0.052167,0.165229,-9.865049,0.063745,0.075868,-0.023319,179.028809,-0.305413,-179.699387,-0.002687,-0.002601,0.999957,0.008468
286,0.051881,0.163337,-9.868424,0.077478,0.072817,-0.035526,179.038162,-0.307578,-179.698395,-0.002706,-0.002609,0.999958,0.008386
287,0.049852,0.163872,-9.869548,-0.004921,0.086550,-0.023319,179.044678,-0.306663,-179.697403,-0.002698,-0.002618,0.999958,0.008330
288,0.049706,0.158505,-9.870864,0.082056,0.062135,-0.021793,179.053238,-0.303365,-179.696640,-0.002669,-0.002625,0.999959,0.008255
289,0.048875,0.151144,-9.872550,0.051537,0.062135,-0.018741,179.072083,-0.299419,-179.696030,-0.002634,-0.002631,0.999960,0.008091
290,0.050593,0.154916,-9.870599,0.031701,0.056032,-0.017215,179.089050,-0.297336,-179.695465,-0.002616,-0.002637,0.999962,0.007942
291,0.050175,0.149445,-9.869510,0.074427,0.039246,-0.005008,179.102249,-0.297038,-179.695129,-0.002613,-0.002640,0.999963,0.007827
292,0.050481,0.153754,-9.869995,0.095789,0.028565,-0.009586,179.112793,-0.296562,-179.694916,-0.002609,-0.002642,0.999963,0.007735
293,0.051779,0.166446,-9.872772,0.039330,0.034668,-0.008059,179.103424,-0.297588,-179.694550,-0.002618,-0.002645,0.999963,0.007817
294,0.049283,0.174192,-9.873558,0.106472,0.031616,-0.011111,179.075333,-0.297459,-179.694046,-0.002617,-0.002649,0.999961,0.008062
295,0.051688,0.175273,-9.875203,0.043908,0.039246,-0.009585,179.045166,-0.297168,-179.693512,-0.002615,-0.002653,0.999958,0.008325
296,0.055092,0.180112,-9.874911,0.051537,0.046876,-0.029423,179.017899,-0.302520,-179.692688,-0.002663,-0.002659,0.999956,0.008563
297,0.054658,0.178810,-9.876844,0.053063,0.049927,-0.040104,178.996658,-0.309960,-179.691376,-0.002728,-0.002669,0.999955,0.008748
298,0.057962,0.176934,-9.871237,0.008811,0.060609,-0.043156,178.985229,-0.318255,-179.689896,-0.002801,-0.002681,0.999953,0.008848
299,0.056801,0.172964,-9.869924,0.071374,0.060609,-0.047734,178.984543,-0.326239,-179.688339,-0.002871,-0.002694,0.999953,0.008854
300,0.051608,0.174966,-9.869179,0.019493,0.065187,-0.056889,178.987732,-0.325890,-179.686554,-0.002868,-0.002710,0.999953,0.008826
301,0.049615,0.166524,-9.872450,0.056116,0.060609,-0.046208,178.996216,-0.317717,-179.684845,-0.002797,-0.002726,0.999954,0.008752
302,0.051932,0.169960,-9.870126,0.053063,0.062135,-0.041630,179.008026,-0.311142,-179.683395,-0.002739,-0.002739,0.999955,0.008649
303,0.049849,0.173641,-9.870653,0.022545,0.054505,-0.038578,179.009506,-0.307024,-179.682037,-0.002703,-0.002752,0.999955,0.008636
304,0.047947,0.175562,-9.873705,0.059167,0.040772,-0.049259,179.003891,-0.300563,-179.680511,-0.002647,-0.002765,0.999955,0.008685
305,0.051300,0.175049,-9.872920,0.039330,0.039246,-0.046208,178.997955,-0.296843,-179.678848,-0.002615,-0.002780,0.999955,0.008737
306,0.050945,0.179377,-9.869080,0.027122,0.036194,-0.055363,178.989731,-0.297432,-179.677094,-0.002620,-0.002795,0.999954,0.008809
307,0.046397,0.178825,-9.869040,0.043908,0.039246,-0.053837,178.980286,-0.294027,-179.675186,-0.002591,-0.002812,0.999953,0.008891
308,0.045141,0.178600,-9.864724,0.037804,0.043824,-0.066045,178.974472,-0.285875,-179.673126,-0.002520,-0.002830,0.999953,0.008942
309,0.046042,0.182229,-9.864234,0.033226,0.045350,-0.055363,178.967667,-0.279349,-179.671036,-0.002464,-0.002849,0.999952,0.009002
310,0.047600,0.175379,-9.865878,0.045434,0.043824,-0.059941,178.965988,-0.277404,-179.669083,-0.002447,-0.002866,0.999952,0.009016
311,0.047954,0.175504,-9.865630,0.046960,0.049927,-0.044682,178.972076,-0.278632,-179.667328,-0.002457,-0.002881,0.999953,0.008963
312,0.046797,0.172688,-9.865766,0.042383,0.048402,-0.043156,178.979889,-0.279318,-179.665863,-0.002463,-0.002894,0.999953,0.008895
313,0.046038,0.163673,-9.870942,0.050012,0.052979,-0.026371,178.996506,-0.277974,-179.664749,-0.002451,-0.002904,0.999955,0.008750
314,0.047545,0.158929,-9.871024,0.027122,0.049928,-0.015689,179.021744,-0.277433,-179.664139,-0.002446,-0.002910,0.999956,0.008530
315,0.045734,0.169132,-9.871803,0.059167,0.052979,-0.011111,179.035492,-0.276912,-179.663727,-0.002441,-0.002914,0.999957,0.008410
316,0.045730,0.172716,-9.875185,0.039330,0.045350,-0.023319,179.030670,-0.274794,-179.663086,-0.002423,-0.002920,0.999957,0.008452
317,0.047261,0.176110,-9.876611,0.051537,0.054505,-0.020267,179.017990,-0.274498,-179.662262,-0.002421,-0.002927,0.999956,0.008562
318,0.051546,0.177709,-9.876055,0.057641,0.046876,-0.027897,179.003799,-0.279946,-179.661362,-0.002469,-0.002934,0.999955,0.008686
319,0.051316,0.168223,-9.867240,0.043908,0.052979,-0.034000,179.000839,-0.288317,-179.660278,-0.002542,-0.002943,0.999954,0.008712
320,0.049892,0.167842,-9.867868,0.053063,0.045350,-0.038578,179.009445,-0.292992,-179.659073,-0.002582,-0.002953,0.999955,0.008636
321,0.052625,0.166981,-9.865286,0.025597,0.054505,-0.029422,179.017960,-0.296841,-179.657944,-0.002616,-0.002963,0.999956,0.008562
322,0.054684,0.166663,-9.866453,0.054589,0.045350,-0.030948,179.024857,-0.303755,-179.656937,-0.002676,-0.002971,0.999956,0.008502
323,0.049453,0.169145,-9.863541,0.039330,0.051454,-0.035526,179.027527,-0.306004,-179.655807,-0.002696,-0.002981,0.999956,0.008478
324,0.050531,0.173096,-9.867386,0.051537,0.057557,-0.037052,179.022736,-0.303180,-179.654541,-0.002671,-0.002992,0.999956,0.008520
325,0.050301,0.163550,-9.867007,0.054589,0.066713,-0.024845,179.023727,-0.301470,-179.653473,-0.002656,-0.003002,0.999956,0.008512
326,0.047254,0.163171,-9.863085,0.046960,0.068239,-0.032474,179.034302,-0.297663,-179.652527,-0.002623,-0.003010,0.999957,0.008419
327,0.047167,0.160841,-9.863081,0.056116,0.059083,-0.032474,179.045502,-0.291738,-179.651443,-0.002571,-0.003020,0.999958,0.008322
328,0.051646,0.166396,-9.863254,0.030175,0.057557,-0.023319,179.050003,-0.291216,-179.650497,-0.002567,-0.003029,0.999958,0.008282
329,0.049706,0.170531,-9.865829,0.037804,0.049928,-0.026371,179.042862,-0.293886,-179.649597,-0.002590,-0.003036,0.999957,0.008345
330,0.048819,0.175799,-9.859228,0.030175,0.043824,-0.037052,179.027420,-0.293400,-179.648438,-0.002586,-0.003046,0.999956,0.008479
331,0.052087,0.176538,-9.862184,0.039330,0.046876,-0.030949,179.009995,-0.294723,-179.647186,-0.002598,-0.003057,0.999955,0.008631
332,0.052556,0.177592,-9.862538,0.056116,0.046876,-0.044682,178.996613,-0.299382,-179.645813,-0.002640,-0.003068,0.999954,0.008748
333,0.050855,0.172888,-9.864728,0.060693,0.056031,-0.035526,178.991867,-0.302101,-179.644409,-0.002664,-0.003080,0.999953,0.008789
334,0.050121,0.175309,-9.866073,0.068322,0.060609,-0.029423,178.992340,-0.301629,-179.643295,-0.002659,-0.003090,0.999953,0.008785
335,0.047949,0.172441,-9.870686,0.085107,0.075868,-0.018741,178.994415,-0.298439,-179.642441,-0.002632,-0.003097,0.999953,0.008767
336,0.049787,0.172340,-9.873424,0.071374,0.077394,-0.026371,178.998978,-0.295768,-179.641663,-0.002608,-0.003104,0.999954,0.008727
337,0.046498,0.165888,-9.871781,0.045433,0.078920,-0.021793,179.007874,-0.292737,-179.640839,-0.002582,-0.003112,0.999954,0.008650
338,0.045556,0.164821,-9.871917,0.046959,0.066713,-0.026371,179.021103,-0.286552,-179.640060,-0.002527,-0.003120,0.999956,0.008534
339,0.051310,0.161231,-9.868310,0.017968,0.065187,-0.035526,179.034607,-0.286031,-179.639053,-0.002523,-0.003129,0.999956,0.008417
340,0.055185,0.160476,-9.870287,0.013389,0.054505,-0.047734,179.047287,-0.295219,-179.637695,-0.002602,-0.003140,0.999957,0.008306
341,0.051444,0.161227,-9.869271,0.007287,0.046876,-0.046208,179.055649,-0.302846,-179.636139,-0.002669,-0.003153,0.999958,0.008232
342,0.052477,0.163465,-9.868294,0.008811,0.045350,-0.035526,179.057831,-0.305182,-179.634766,-0.002689,-0.003165,0.999958,0.008213
343,0.052866,0.160338,-9.867195,0.028648,0.046876,-0.041630,179.059494,-0.307259,-179.633453,-0.002707,-0.003177,0.999958,0.008199
344,0.046781,0.159977,-9.868872,0.004234,0.049927,-0.029422,179.063675,-0.303477,-179.632263,-0.002674,-0.003187,0.999958,0.008162
345,0.047503,0.168255,-9.868876,0.025597,0.042298,-0.029422,179.059647,-0.294955,-179.631241,-0.002600,-0.003197,0.999958,0.008198
346,0.047673,0.160661,-9.873316,0.039330,0.043824,-0.026371,179.055603,-0.289080,-179.630264,-0.002549,-0.003206,0.999958,0.008233
347,0.046931,0.162392,-9.873454,0.036279,0.039246,-0.030948,179.058472,-0.284888,-179.629288,-0.002513,-0.003215,0.999958,0.008208
348,0.047632,0.165303,-9.875134,0.056116,0.042298,-0.027897,179.057587,-0.282218,-179.628281,-0.002489,-0.003224,0.999958,0.008216
349,0.046572,0.159434,-9.879118,0.053063,0.054505,-0.040104,179.059448,-0.280532,-179.627121,-0.002475,-0.003234,0.999958,0.008200
350,0.045094,0.151161,-9.876475,0.048485,0.060609,-0.034000,179.074051,-0.277503,-179.625916,-0.002448,-0.003245,0.999959,0.008072
351,0.044100,0.156537,-9.870841,0.040856,0.065187,-0.029423,179.088364,-0.273167,-179.624878,-0.002410,-0.003254,0.999960,0.007948
352,0.044497,0.153983,-9.870949,0.031701,0.066713,-0.021793,179.095169,-0.269577,-179.624023,-0.002378,-0.003262,0.999961,0.007888
353,0.044226,0.150812,-9.874080,0.016441,0.068239,-0.027896,179.103516,-0.267395,-179.623184,-0.002359,-0.003270,0.999961,0.007815
354,0.048268,0.156860,-9.869199,0.039330,0.063661,-0.009585,179.106934,-0.269553,-179.622543,-0.002378,-0.003275,0.999962,0.007786
355,0.047889,0.159405,-9.870417,0.030175,0.060609,-0.006533,179.100769,-0.274974,-179.622208,-0.002425,-0.003278,0.999961,0.007839
356,0.048852,0.161964,-9.873297,0.040856,0.054505,-0.009585,179.090424,-0.279559,-179.621857,-0.002466,-0.003280,0.999960,0.007929
357,0.048212,0.175554,-9.875508,0.053063,0.057557,-0.017215,179.068329,-0.282780,-179.621262,-0.002494,-0.003285,0.999959,0.008122
359,0.046971,0.186130,-9.874590,0.051537,0.062135,-0.021793,179.029373,-0.283152,-179.620377,-0.002499,-0.003292,0.999956,0.008462
360,0.047025,0.194138,-9.877981,0.077478,0.054505,-0.043156,178.983459,-0.281795,-179.619034,-0.002489,-0.003303,0.999952,0.008863
361,0.044368,0.195485,-9.877912,0.059167,0.060609,-0.044682,178.942581,-0.278154,-179.617325,-0.002458,-0.003317,0.999949,0.009219
362,0.043454,0.197470,-9.874558,0.045434,0.065187,-0.049260,178.911804,-0.272215,-179.615555,-0.002407,-0.003332,0.999947,0.009488
363,0.042016,0.186403,-9.872029,0.054589,0.069764,-0.050785,178.900513,-0.265807,-179.613785,-0.002352,-0.003348,0.999946,0.009587
364,0.042619,0.174796,-9.869101,0.045434,0.056031,-0.038578,178.916626,-0.260461,-179.612320,-0.002305,-0.003361,0.999947,0.009446
365,0.043027,0.170272,-9.867998,0.013390,0.054505,-0.035526,178.946045,-0.257673,-179.611191,-0.002280,-0.003372,0.999949,0.009190
366,0.048346,0.165843,-9.866687,0.027123,0.046876,-0.040104,178.976135,-0.261296,-179.610031,-0.002311,-0.003383,0.999952,0.008927
367,0.051631,0.165186,-9.869517,0.024072,0.051453,-0.035526,179.001678,-0.272638,-179.608856,-0.002409,-0.003393,0.999953,0.008704
368,0.053932,0.165911,-9.871888,0.021019,0.057557,-0.041630,179.018341,-0.286897,-179.607620,-0.002533,-0.003403,0.999954,0.008558
369,0.052132,0.170385,-9.876269,0.030174,0.057557,-0.050785,179.023743,-0.297628,-179.606064,-0.002626,-0.003415,0.999955,0.008510
370,0.050696,0.167699,-9.873758,0.042383,0.051453,-0.046208,179.024384,-0.301317,-179.604416,-0.002659,-0.003430,0.999954,0.008505
371,0.044118,0.166643,-9.873755,0.033226,0.056031,-0.046208,179.027527,-0.295349,-179.602859,-0.002607,-0.003444,0.999955,0.008477
372,0.041809,0.170198,-9.875131,0.053063,0.052979,-0.044682,179.027969,-0.281599,-179.601303,-0.002487,-0.003458,0.999955,0.008474
373,0.042280,0.172522,-9.876815,0.046960,0.045350,-0.037052,179.022736,-0.269094,-179.599884,-0.002378,-0.003472,0.999955,0.008520
374,0.046853,0.174625,-9.871675,0.043908,0.049927,-0.027897,179.013977,-0.265348,-179.598724,-0.002346,-0.003482,0.999954,0.008596
375,0.048943,0.177819,-9.870077,0.057641,0.052979,-0.020267,179.002640,-0.270456,-179.597824,-0.002391,-0.003489,0.999953,0.008695
376,0.054842,0.176877,-9.870932,0.057641,0.054505,-0.023319,178.992630,-0.282769,-179.597015,-0.002498,-0.003495,0.999952,0.008782
377,0.053374,0.169292,-9.869737,0.056116,0.045350,-0.021793,178.993805,-0.296271,-179.596222,-0.002616,-0.003501,0.999952,0.008771
378,0.053151,0.169918,-9.862993,0.054589,0.037720,-0.012637,179.002594,-0.303895,-179.595673,-0.002683,-0.003505,0.999952,0.008694
379,0.050503,0.173802,-9.866183,0.060693,0.048402,-0.017215,179.005692,-0.305604,-179.595154,-0.002697,-0.003510,0.999953,0.008667
380,0.047154,0.168821,-9.870210,0.069849,0.054505,-0.027896,179.008270,-0.300565,-179.594376,-0.002653,-0.003517,0.999953,0.008645
381,0.043856,0.175955,-9.873057,0.057641,0.056031,-0.012637,179.008041,-0.290042,-179.593658,-0.002562,-0.003524,0.999953,0.008647
382,0.041470,0.175096,-9.872978,0.068323,0.063661,-0.018741,179.001694,-0.276903,-179.593048,-0.002447,-0.003530,0.999953,0.008703
383,0.041825,0.168341,-9.874403,0.074426,0.072816,-0.024844,179.003677,-0.265917,-179.592285,-0.002351,-0.003538,0.999953,0.008686
384,0.042083,0.164407,-9.871738,0.074426,0.068239,-0.012637,179.016251,-0.259398,-179.591660,-0.002294,-0.003544,0.999954,0.008577
385,0.038930,0.168643,-9.873371,0.056116,0.056031,-0.014163,179.025940,-0.252718,-179.591217,-0.002236,-0.003548,0.999955,0.008492
386,0.042760,0.162939,-9.867264,0.075953,0.056031,-0.024845,179.033386,-0.248561,-179.590561,-0.002199,-0.003555,0.999956,0.008427
387,0.044451,0.167417,-9.864110,0.079004,0.066713,-0.021793,179.039490,-0.251406,-179.589767,-0.002224,-0.003561,0.999956,0.008374
388,0.044638,0.171145,-9.864115,0.068323,0.063661,-0.024845,179.035736,-0.256325,-179.588913,-0.002267,-0.003568,0.999956,0.008407
389,0.040235,0.173242,-9.868538,0.071375,0.062135,-0.026371,179.026199,-0.256043,-179.587982,-0.002265,-0.003576,0.999955,0.008490
390,0.048449,0.174697,-9.865861,0.083582,0.069765,-0.026371,179.015778,-0.258624,-179.587006,-0.002288,-0.003585,0.999954,0.008581
391,0.043595,0.183996,-9.871031,0.069849,0.081972,-0.027897,178.998642,-0.264249,-179.585968,-0.002337,-0.003593,0.999953,0.008730
392,0.041111,0.186013,-9.875419,0.068323,0.075868,-0.024845,178.975388,-0.261892,-179.584930,-0.002318,-0.003602,0.999951,0.008933
393,0.042774,0.184026,-9.880928,0.077478,0.068238,-0.026371,178.958801,-0.257996,-179.583939,-0.002284,-0.003610,0.999950,0.009078
394,0.047397,0.183330,-9.876504,0.066798,0.071290,-0.037052,178.950974,-0.260778,-179.582794,-0.002309,-0.003620,0.999949,0.009146
395,0.044109,0.179767,-9.877761,0.060693,0.066712,-0.021793,178.950592,-0.264951,-179.581757,-0.002345,-0.003628,0.999949,0.009149
396,0.048274,0.173328,-9.877671,0.062220,0.048401,-0.023319,178.960632,-0.268447,-179.581009,-0.002376,-0.003635,0.999950,0.009061
397,0.053916,0.176843,-9.873238,0.059167,0.036194,-0.027897,178.971741,-0.279246,-179.580185,-0.002470,-0.003642,0.999950,0.008964
398,0.050150,0.185872,-9.870193,0.060693,0.034668,-0.034000,178.967819,-0.289307,-179.579102,-0.002558,-0.003650,0.999950,0.008998
399,0.052113,0.189414,-9.868478,0.051537,0.031616,-0.034000,178.951004,-0.294352,-179.577850,-0.002602,-0.003660,0.999948,0.009145
400,0.052950,0.188391,-9.867255,0.056116,0.030091,-0.052311,178.935013,-0.299510,-179.576294,-0.002648,-0.003673,0.999947,0.009284
401,0.053119,0.191319,-9.865211,0.060693,0.028565,-0.062993,178.922577,-0.303933,-179.574280,-0.002687,-0.003690,0.999946,0.009392
402,0.051406,0.189048,-9.868972,0.042383,0.033142,-0.069096,178.913834,-0.305457,-179.572006,-0.002701,-0.003709,0.999945,0.009468
403,0.054563,0.179665,-9.870943,0.040856,0.031616,-0.069096,178.918915,-0.307387,-179.569702,-0.002718,-0.003730,0.999945,0.009424
404,0.053302,0.171693,-9.875527,0.048487,0.043824,-0.070622,178.940735,-0.310661,-179.567459,-0.002746,-0.003749,0.999947,0.009233
405,0.048762,0.170329,-9.875245,0.037804,0.051453,-0.064519,178.966888,-0.308094,-179.565323,-0.002723,-0.003769,0.999949,0.009005
406,0.048215,0.165785,-9.874402,0.025597,0.060609,-0.053837,178.990479,-0.301034,-179.563431,-0.002660,-0.003786,0.999951,0.008800
407,0.050496,0.159701,-9.868563,0.040856,0.063661,-0.041630,179.015900,-0.297335,-179.561935,-0.002627,-0.003800,0.999953,0.008578
408,0.047356,0.166302,-9.865019,0.037804,0.074342,-0.030949,179.033157,-0.294827,-179.560760,-0.002605,-0.003811,0.999954,0.008427
409,0.044443,0.174069,-9.861714,0.036279,0.063661,-0.027897,179.030258,-0.287769,-179.559723,-0.002544,-0.003821,0.999954,0.008453
410,0.044783,0.175588,-9.861832,0.043908,0.046876,-0.023319,179.016602,-0.279418,-179.558762,-0.002471,-0.003829,0.999953,0.008572
411,0.039722,0.175968,-9.860358,0.051537,0.043824,-0.011111,179.004044,-0.268843,-179.558090,-0.002380,-0.003836,0.999952,0.008682
412,0.037602,0.177527,-9.864617,0.030175,0.049928,-0.011111,178.993683,-0.254705,-179.557648,-0.002257,-0.003841,0.999952,0.008773
413,0.038729,0.176021,-9.866522,0.037804,0.051454,-0.009586,178.986771,-0.243671,-179.557236,-0.002160,-0.003845,0.999951,0.008834
414,0.038402,0.167502,-9.868799,0.045434,0.051454,-0.015689,178.992126,-0.237368,-179.556793,-0.002105,-0.003849,0.999952,0.008787
415,0.041096,0.171051,-9.867914,0.030175,0.077394,-0.008060,179.002197,-0.236414,-179.556396,-0.002097,-0.003853,0.999953,0.008699
416,0.047126,0.173920,-9.873355,0.051537,0.065187,-0.026371,179.004105,-0.244833,-179.555786,-0.002170,-0.003858,0.999953,0.008682
417,0.048029,0.178010,-9.873468,0.048487,0.052980,-0.035526,178.998108,-0.258002,-179.554688,-0.002285,-0.003866,0.999952,0.008734
418,0.048189,0.176375,-9.874666,0.039330,0.062135,-0.041630,178.990326,-0.268668,-179.553329,-0.002379,-0.003877,0.999951,0.008802
419,0.048490,0.181495,-9.875636,0.051537,0.057557,-0.034000,178.981613,-0.276050,-179.551987,-0.002444,-0.003888,0.999950,0.008877
420,0.051545,0.176438,-9.874726,0.040856,0.052980,-0.040104,178.975479,-0.283504,-179.550674,-0.002509,-0.003899,0.999949,0.008931
421,0.043620,0.178260,-9.875597,0.040856,0.054505,-0.034000,178.974487,-0.284086,-179.549408,-0.002514,-0.003910,0.999949,0.008939
422,0.044458,0.177467,-9.874737,0.040856,0.059083,-0.035526,178.973679,-0.276989,-179.548203,-0.002452,-0.003921,0.999949,0.008947
423,0.046878,0.174843,-9.873723,0.040856,0.048402,-0.029423,178.976257,-0.273824,-179.547089,-0.002425,-0.003931,0.999950,0.008924
424,0.050323,0.176196,-9.872820,0.028648,0.048402,-0.027897,178.979492,-0.277504,-179.546112,-0.002457,-0.003939,0.999950,0.008896
