seq,ax,ay,az,wroll,wpitch,wyaw,roll,pitch,yaw,q0,q1,q2,q3
2874,0.047173,-0.089431,9.914555,-0.006448,-0.061465,-0.087408,-0.516804,-0.272596,0.002459,0.999987,-0.004510,-0.002379,0.000011
2876,0.031015,-0.139438,9.917021,-0.015796,-0.072085,-0.085881,-0.540954,-0.268232,-0.000095,0.999986,-0.004721,-0.002341,-0.000012
2877,0.030694,-0.126632,9.918430,-0.000855,-0.076539,-0.076722,-0.581159,-0.255373,-0.002600,0.999985,-0.005072,-0.002228,-0.000034
2878,0.035469,-0.132600,9.917326,-0.007210,-0.064238,-0.087402,-0.612564,-0.245963,-0.005176,0.999983,-0.005346,-0.002146,-0.000057
2879,0.039186,-0.134495,9.919206,0.004766,-0.059613,-0.082822,-0.641687,-0.242216,-0.007868,0.999982,-0.005600,-0.002113,-0.000080
2880,0.034431,-0.134720,9.916589,-0.001539,-0.050416,-0.075191,-0.666699,-0.238835,-0.010375,0.999981,-0.005818,-0.002084,-0.000103
2881,0.033081,-0.126697,9.919317,0.010534,-0.042725,-0.064509,-0.683350,-0.232825,-0.012617,0.999980,-0.005964,-0.002031,-0.000122
2882,0.024376,-0.132432,9.921824,-0.013978,-0.041106,-0.073663,-0.695603,-0.222596,-0.014855,0.999980,-0.006070,-0.001942,-0.000141
2883,0.027583,-0.122359,9.922340,-0.010989,-0.048632,-0.067558,-0.703700,-0.211170,-0.017161,0.999979,-0.006141,-0.001842,-0.000161
2884,0.028655,-0.121641,9.922117,-0.021676,-0.040930,-0.069083,-0.705036,-0.203604,-0.019418,0.999980,-0.006153,-0.001776,-0.000180
2885,0.025082,-0.127731,9.926526,-0.007964,-0.057645,-0.078237,-0.708094,-0.196564,-0.021844,0.999979,-0.006180,-0.001714,-0.000201
2886,0.030965,-0.126468,9.924581,-0.011052,-0.059120,-0.085866,-0.712916,-0.192155,-0.024539,0.999979,-0.006222,-0.001676,-0.000225
2887,0.033434,-0.128536,9.921618,0.005700,-0.059109,-0.069081,-0.717271,-0.192749,-0.027083,0.999979,-0.006260,-0.001681,-0.000247
2888,0.030230,-0.138381,9.920619,0.016307,-0.059097,-0.066029,-0.726164,-0.193308,-0.029279,0.999978,-0.006337,-0.001685,-0.000266
2889,0.030304,-0.141535,9.918579,0.013139,-0.068229,-0.073658,-0.740104,-0.192422,-0.031531,0.999978,-0.006459,-0.001677,-0.000286
2890,0.034246,-0.140067,9.918044,0.013032,-0.059064,-0.072130,-0.753024,-0.193502,-0.033889,0.999977,-0.006572,-0.001687,-0.000307
2891,0.027684,-0.146910,9.922762,0.008345,-0.062097,-0.073656,-0.766342,-0.193197,-0.036246,0.999976,-0.006688,-0.001684,-0.000328
2892,0.028920,-0.142686,9.924341,0.005193,-0.062057,-0.073655,-0.778822,-0.190306,-0.038631,0.999975,-0.006797,-0.001658,-0.000348
2893,0.026944,-0.139459,9.925261,-0.005545,-0.066595,-0.075180,-0.785782,-0.187398,-0.041059,0.999975,-0.006858,-0.001633,-0.000370
2894,0.023867,-0.139074,9.922071,-0.010152,-0.065013,-0.066024,-0.789657,-0.182593,-0.043371,0.999975,-0.006892,-0.001591,-0.000389
2895,0.020936,-0.134133,9.920922,-0.000997,-0.066464,-0.062971,-0.790020,-0.175540,-0.045490,0.999975,-0.006895,-0.001529,-0.000408
2896,0.023756,-0.135613,9.917964,0.009699,-0.069450,-0.067549,-0.788061,-0.169501,-0.047640,0.999975,-0.006878,-0.001476,-0.000426
2897,0.019980,-0.137563,9.915611,0.008172,-0.061758,-0.082807,-0.787767,-0.164024,-0.050115,0.999975,-0.006875,-0.001428,-0.000447
2898,0.022950,-0.144487,9.915922,0.031025,-0.058649,-0.084332,-0.791591,-0.158945,-0.052860,0.999975,-0.006909,-0.001384,-0.000471
2899,0.027673,-0.147195,9.915291,0.035533,-0.058629,-0.084331,-0.799304,-0.158398,-0.055620,0.999975,-0.006976,-0.001379,-0.000495
2900,0.026936,-0.148587,9.917932,0.036979,-0.066258,-0.091961,-0.807915,-0.160365,-0.058501,0.999974,-0.007051,-0.001396,-0.000520
2901,0.027515,-0.150243,9.912523,0.020114,-0.063203,-0.084331,-0.816910,-0.162219,-0.061381,0.999973,-0.007130,-0.001412,-0.000546
2902,0.035294,-0.145985,9.917715,0.021583,-0.073912,-0.073649,-0.823445,-0.167901,-0.063960,0.999973,-0.007187,-0.001461,-0.000569
2903,0.037506,-0.141288,9.917624,0.007836,-0.073972,-0.073650,-0.824543,-0.177935,-0.066375,0.999973,-0.007196,-0.001549,-0.000590
2904,0.032968,-0.132135,9.924268,0.013987,-0.074013,-0.067548,-0.818423,-0.185529,-0.068711,0.999973,-0.007143,-0.001615,-0.000611
2905,0.035304,-0.135817,9.923837,-0.004260,-0.061825,-0.053814,-0.810249,-0.190377,-0.070727,0.999973,-0.007072,-0.001657,-0.000629
2906,0.035511,-0.131116,9.929976,0.006480,-0.048114,-0.052289,-0.802866,-0.194966,-0.072494,0.999974,-0.007007,-0.001697,-0.000645
2907,0.026456,-0.132586,9.927526,0.008066,-0.041991,-0.056866,-0.794996,-0.194177,-0.074317,0.999974,-0.006939,-0.001690,-0.000660
2908,0.026062,-0.129456,9.926787,0.002020,-0.035830,-0.061444,-0.787693,-0.188330,-0.076295,0.999975,-0.006875,-0.001639,-0.000677
2909,0.028944,-0.132583,9.921063,0.006644,-0.035787,-0.072124,-0.781717,-0.184141,-0.078523,0.999975,-0.006823,-0.001602,-0.000696
2910,0.027291,-0.126674,9.921864,0.011271,-0.040333,-0.085858,-0.775385,-0.181467,-0.081158,0.999976,-0.006768,-0.001579,-0.000719
2911,0.024856,-0.124737,9.922538,0.018971,-0.055549,-0.098065,-0.766087,-0.177730,-0.084229,0.999976,-0.006686,-0.001546,-0.000745
2912,0.028028,-0.129674,9.923571,0.026649,-0.061617,-0.102642,-0.759268,-0.175238,-0.087566,0.999977,-0.006627,-0.001524,-0.000774
2913,0.023857,-0.138954,9.922673,0.034262,-0.069211,-0.096538,-0.760377,-0.173011,-0.090850,0.999977,-0.006637,-0.001505,-0.000803
2914,0.019521,-0.139835,9.925007,0.017417,-0.059990,-0.102641,-0.766993,-0.167056,-0.094118,0.999976,-0.006694,-0.001452,-0.000831
2915,0.029047,-0.141184,9.922411,0.015828,-0.050794,-0.091958,-0.774348,-0.163973,-0.097314,0.999976,-0.006759,-0.001425,-0.000859
2916,0.027581,-0.144262,9.918897,-0.004081,-0.038585,-0.085855,-0.783070,-0.165168,-0.100231,0.999975,-0.006835,-0.001435,-0.000885
2917,0.028199,-0.150039,9.923381,-0.010280,-0.035528,-0.081277,-0.795141,-0.165855,-0.102966,0.999974,-0.006940,-0.001441,-0.000909
2918,0.033535,-0.143667,9.921173,-0.010358,-0.030967,-0.078225,-0.805282,-0.169119,-0.105580,0.999974,-0.007029,-0.001469,-0.000932
2919,0.031358,-0.142544,9.921372,-0.004289,-0.038623,-0.070595,-0.809880,-0.173625,-0.108030,0.999973,-0.007069,-0.001508,-0.000953
2920,0.023190,-0.143153,9.923154,0.001792,-0.047760,-0.066017,-0.812788,-0.172782,-0.110278,0.999973,-0.007094,-0.001501,-0.000973
2921,0.027332,-0.146111,9.921428,0.029226,-0.056879,-0.070594,-0.816227,-0.169999,-0.112518,0.999973,-0.007124,-0.001476,-0.000992
2922,0.028470,-0.142073,9.913125,0.013943,-0.061444,-0.067543,-0.818485,-0.170302,-0.114783,0.999973,-0.007144,-0.001479,-0.001012
2923,0.023357,-0.132596,9.917709,0.017027,-0.061416,-0.069067,-0.813992,-0.168978,-0.117042,0.999973,-0.007105,-0.001467,-0.001032
2924,0.025995,-0.140118,9.916690,0.015539,-0.064432,-0.075171,-0.808693,-0.166595,-0.119430,0.999973,-0.007059,-0.001446,-0.001052
2925,0.029365,-0.142372,9.917961,0.015533,-0.061370,-0.087379,-0.808938,-0.167415,-0.122107,0.999973,-0.007061,-0.001453,-0.001076
2926,0.028632,-0.140992,9.917583,0.007891,-0.059844,-0.082801,-0.810145,-0.169559,-0.124910,0.999973,-0.007071,-0.001472,-0.001100
2927,0.027874,-0.139717,9.919013,0.015519,-0.047630,-0.085853,-0.809947,-0.170508,-0.127695,0.999973,-0.007070,-0.001480,-0.001125
2928,0.030586,-0.153052,9.918612,0.021575,-0.052206,-0.098059,-0.815233,-0.172014,-0.130718,0.999973,-0.007116,-0.001493,-0.001151
2929,0.030562,-0.150382,9.917641,0.015386,-0.044584,-0.091956,-0.825239,-0.174562,-0.133830,0.999972,-0.007203,-0.001515,-0.001179
2930,0.029047,-0.151010,9.915204,-0.001466,-0.049159,-0.073644,-0.833399,-0.175981,-0.136542,0.999972,-0.007275,-0.001527,-0.001203
2931,0.031106,-0.147340,9.918487,-0.012191,-0.058313,-0.076696,-0.839034,-0.177555,-0.139004,0.999971,-0.007324,-0.001541,-0.001224
2932,0.032359,-0.144626,9.920431,-0.018304,-0.064426,-0.072118,-0.840691,-0.180720,-0.141451,0.999971,-0.007338,-0.001568,-0.001246
2933,0.031685,-0.132754,9.922319,-0.038089,-0.067486,-0.058385,-0.835127,-0.183912,-0.143614,0.999971,-0.007290,-0.001596,-0.001265
2934,0.035379,-0.132674,9.923832,-0.019682,-0.061397,-0.059911,-0.824140,-0.187968,-0.145593,0.999972,-0.007194,-0.001631,-0.001282
2935,0.035794,-0.136854,9.924090,-0.022666,-0.059897,-0.079749,-0.816234,-0.193272,-0.147920,0.999972,-0.007125,-0.001677,-0.001303
2936,0.037168,-0.137663,9.920984,-0.013473,-0.061450,-0.067543,-0.812217,-0.198665,-0.150361,0.999973,-0.007090,-0.001724,-0.001324
2937,0.037300,-0.145354,9.919317,-0.013476,-0.059949,-0.079750,-0.813163,-0.203900,-0.152785,0.999972,-0.007098,-0.001770,-0.001346
2938,0.038449,-0.149989,9.918987,-0.002849,-0.067602,-0.079750,-0.820132,-0.208974,-0.155389,0.999972,-0.007159,-0.001814,-0.001369
2939,0.035669,-0.148412,9.919053,-0.012066,-0.072190,-0.075172,-0.827892,-0.212608,-0.157910,0.999971,-0.007227,-0.001845,-0.001391
2940,0.032631,-0.149143,9.922736,-0.007534,-0.073698,-0.067543,-0.834068,-0.212809,-0.160232,0.999971,-0.007281,-0.001847,-0.001412
2941,0.025153,-0.150188,9.927062,0.001578,-0.053799,-0.070594,-0.839653,-0.207312,-0.162483,0.999970,-0.007330,-0.001799,-0.001431
2942,0.023868,-0.149246,9.932219,0.010697,-0.062863,-0.069065,-0.843935,-0.197850,-0.164766,0.999970,-0.007367,-0.001716,-0.001451
2943,0.022113,-0.144850,9.933261,0.007636,-0.053614,-0.078220,-0.844684,-0.188164,-0.167188,0.999970,-0.007374,-0.001631,-0.001471
2944,0.022611,-0.142017,9.937601,0.004609,-0.053529,-0.073641,-0.841603,-0.179310,-0.169702,0.999971,-0.007347,-0.001554,-0.001492
2945,0.022572,-0.135873,9.934212,0.009242,-0.045828,-0.075166,-0.834370,-0.172089,-0.172179,0.999971,-0.007283,-0.001491,-0.001513
2946,0.025476,-0.128144,9.933042,0.007817,-0.050357,-0.081269,-0.821307,-0.167539,-0.174800,0.999972,-0.007169,-0.001451,-0.001536
2947,0.029517,-0.125739,9.933108,-0.002736,-0.042712,-0.081269,-0.805272,-0.167258,-0.177533,0.999973,-0.007030,-0.001449,-0.001559
2948,0.029944,-0.135531,9.929645,-0.002657,-0.048821,-0.076692,-0.795408,-0.169505,-0.180174,0.999974,-0.006944,-0.001468,-0.001583
2949,0.030028,-0.139616,9.927728,-0.056056,-0.056457,-0.093477,-0.795297,-0.172072,-0.182988,0.999974,-0.006943,-0.001490,-0.001607
2950,0.033354,-0.145144,9.926958,-0.130861,-0.061051,-0.090425,-0.802793,-0.176090,-0.186012,0.999973,-0.007008,-0.001525,-0.001634
2951,0.031856,-0.156702,9.925753,-0.158423,-0.067174,-0.091952,-0.819610,-0.180619,-0.188984,0.999972,-0.007155,-0.001564,-0.001660
2952,0.025595,-0.147446,9.918386,-0.091373,-0.068683,-0.087373,-0.834911,-0.180842,-0.191905,0.999971,-0.007289,-0.001566,-0.001686
2953,0.026675,-0.138699,9.918025,-0.068482,-0.062539,-0.091951,-0.837431,-0.178111,-0.194863,0.999971,-0.007311,-0.001542,-0.001712
2954,0.024869,-0.134221,9.914125,-0.008906,-0.060972,-0.066010,-0.830755,-0.175111,-0.197490,0.999971,-0.007252,-0.001516,-0.001734
2955,0.025383,-0.135962,9.913415,0.049149,-0.057879,-0.069061,-0.821179,-0.171889,-0.199739,0.999972,-0.007169,-0.001487,-0.001754
2956,0.031918,-0.135810,9.917390,-0.013359,-0.056342,-0.059905,-0.813775,-0.172496,-0.201881,0.999972,-0.007104,-0.001493,-0.001772
2957,0.034545,-0.150261,9.924099,-0.103401,-0.054842,-0.055329,-0.817137,-0.177661,-0.203771,0.999972,-0.007134,-0.001538,-0.001789
2958,0.031422,-0.149739,9.924041,-0.045483,-0.045708,-0.062957,-0.828028,-0.181919,-0.205692,0.999971,-0.007229,-0.001575,-0.001806
2959,0.034310,-0.152117,9.925665,-0.073015,-0.044195,-0.085847,-0.838103,-0.185107,-0.208124,0.999970,-0.007317,-0.001602,-0.001828
2960,0.033763,-0.147934,9.926248,-0.115785,-0.050316,-0.082795,-0.846718,-0.188879,-0.210894,0.999970,-0.007392,-0.001635,-0.001853
2961,0.029042,-0.149157,9.930744,-0.134115,-0.054885,-0.096528,-0.853333,-0.189711,-0.213848,0.999969,-0.007450,-0.001642,-0.001878
2962,0.029259,-0.138219,9.929879,-0.033376,-0.057909,-0.099579,-0.852608,-0.188119,-0.217100,0.999969,-0.007443,-0.001628,-0.001907
2963,0.031849,-0.137800,9.932817,-0.060767,-0.065522,-0.093475,-0.844697,-0.188113,-0.220318,0.999970,-0.007374,-0.001627,-0.001935
2964,0.032096,-0.137567,9.932098,-0.104946,-0.068569,-0.093475,-0.838370,-0.189777,-0.223430,0.999970,-0.007319,-0.001642,-0.001962
2965,0.031883,-0.140821,9.933428,-0.085058,-0.062460,-0.105683,-0.835082,-0.191270,-0.226738,0.999970,-0.007291,-0.001655,-0.001991
2966,0.031322,-0.138076,9.927989,-0.165888,-0.057871,-0.101105,-0.833882,-0.191957,-0.230173,0.999970,-0.007280,-0.001660,-0.002021
2967,0.034402,-0.138058,9.922019,-0.283335,-0.053290,-0.096528,-0.835110,-0.193537,-0.233460,0.999970,-0.007291,-0.001674,-0.002050
2968,0.036613,-0.146769,9.918465,-0.355037,-0.059410,-0.104158,-0.843735,-0.197516,-0.236784,0.999969,-0.007366,-0.001708,-0.002079
2969,0.036554,-0.142003,9.917850,-0.274156,-0.059431,-0.099580,-0.853312,-0.202178,-0.240152,0.999968,-0.007450,-0.001749,-0.002109
2970,0.036658,-0.153553,9.913541,-0.236015,-0.054869,-0.096529,-0.862691,-0.206073,-0.243388,0.999968,-0.007532,-0.001782,-0.002137
2971,0.037371,-0.143653,9.912566,-0.142935,-0.050304,-0.093477,-0.869134,-0.209505,-0.246528,0.999967,-0.007588,-0.001812,-0.002165
2973,0.038085,-0.154676,9.915497,-0.164292,-0.076259,-0.104159,-0.873589,-0.213368,-0.249791,0.999967,-0.007627,-0.001845,-0.002194
2974,0.043439,-0.169118,9.915869,-0.062141,-0.070187,-0.099581,-0.888024,-0.219872,-0.253109,0.999966,-0.007754,-0.001902,-0.002224
2975,0.042075,-0.179121,9.920568,-0.103507,-0.065650,-0.099581,-0.911595,-0.227245,-0.256312,0.999964,-0.007959,-0.001965,-0.002252
2976,0.040365,-0.163880,9.924598,-0.311154,-0.083980,-0.079744,-0.933560,-0.232190,-0.259200,0.999962,-0.008151,-0.002008,-0.002278
2977,0.041474,-0.183870,9.925508,-0.497424,-0.137396,-0.043122,-0.960540,-0.236991,-0.261132,0.999960,-0.008387,-0.002049,-0.002296
2978,0.038153,-0.183142,9.922193,-0.549455,-0.132812,-0.006499,-0.996703,-0.240713,-0.261805,0.999957,-0.008703,-0.002081,-0.002303
2979,0.028467,-0.175766,9.921638,-0.714332,-0.144958,0.027074,-1.027360,-0.237581,-0.261343,0.999955,-0.008970,-0.002053,-0.002299
2980,0.030985,-0.174678,9.920476,-0.764687,-0.161653,0.028601,-1.051981,-0.231423,-0.260328,0.999953,-0.009185,-0.001999,-0.002290
2981,0.037327,-0.191081,9.920750,-0.657894,-0.181440,0.001135,-1.078429,-0.230919,-0.259719,0.999951,-0.009415,-0.001994,-0.002285
2982,0.033936,-0.179628,9.920180,-0.187916,-0.088325,-0.053797,-1.093387,-0.231195,-0.260509,0.999950,-0.009546,-0.001996,-0.002293
2983,0.038894,-0.180711,9.918223,0.045612,-0.037941,-0.090419,-1.088197,-0.229886,-0.262903,0.999950,-0.009501,-0.001984,-0.002313
2984,0.041716,-0.181209,9.922614,0.178427,-0.010477,-0.128568,-1.076820,-0.231129,-0.266568,0.999951,-0.009402,-0.001995,-0.002345
2985,0.039413,-0.178350,9.921601,0.523347,0.049029,-0.143828,-1.057693,-0.231187,-0.271149,0.999953,-0.009235,-0.001996,-0.002385
2986,0.032947,-0.154492,9.922634,0.940065,0.110095,-0.143828,-1.015561,-0.224911,-0.276061,0.999956,-0.008867,-0.001941,-0.002426
2987,0.035671,-0.155176,9.917141,0.940255,0.082668,-0.128569,-0.960471,-0.216792,-0.280746,0.999960,-0.008386,-0.001871,-0.002466
2988,0.030337,-0.155363,9.921624,0.926644,0.064398,-0.111784,-0.914136,-0.209368,-0.284846,0.999963,-0.007982,-0.001807,-0.002500
2989,0.027400,-0.147993,9.918421,0.940459,0.050726,-0.093471,-0.872785,-0.199775,-0.288329,0.999966,-0.007621,-0.001724,-0.002529
2990,0.030761,-0.146198,9.916308,0.740621,0.008049,-0.076685,-0.837474,-0.192741,-0.291201,0.999969,-0.007313,-0.001663,-0.002553
2991,0.035305,-0.153099,9.915564,0.443053,-0.005678,-0.058374,-0.819321,-0.191832,-0.293446,0.999970,-0.007154,-0.001656,-0.002573
2992,0.032125,-0.145557,9.921031,0.339244,-0.016362,-0.066004,-0.811972,-0.192639,-0.295494,0.999970,-0.007090,-0.001663,-0.002591
2993,0.030378,-0.132323,9.921089,0.311795,-0.019398,-0.087367,-0.798897,-0.191309,-0.298049,0.999971,-0.006976,-0.001651,-0.002613
2994,0.031138,-0.124641,9.919036,0.304250,-0.017853,-0.105678,-0.778052,-0.189584,-0.301292,0.999972,-0.006794,-0.001637,-0.002640
2995,0.027176,-0.123673,9.918480,0.240257,-0.020876,-0.120937,-0.757078,-0.186608,-0.305099,0.999973,-0.006611,-0.001611,-0.002673
2996,0.025100,-0.128838,9.917852,0.243359,-0.028456,-0.157558,-0.742629,-0.181305,-0.309749,0.999974,-0.006485,-0.001565,-0.002713
2997,0.030804,-0.131191,9.915190,0.316601,-0.025374,-0.209440,-0.733495,-0.178536,-0.315852,0.999975,-0.006405,-0.001540,-0.002766
2998,0.033290,-0.128470,9.914746,0.341000,-0.037588,-0.239958,-0.724536,-0.180557,-0.323321,0.999975,-0.006327,-0.001558,-0.002831
2999,0.033215,-0.128551,9.920168,0.171606,-0.028449,-0.258269,-0.718196,-0.183853,-0.331604,0.999975,-0.006272,-0.001586,-0.002904
3000,0.038226,-0.120757,9.922530,0.138036,-0.017800,-0.293367,-0.712752,-0.188749,-0.340788,0.999975,-0.006225,-0.001629,-0.002984
3001,0.034314,-0.097677,9.921803,0.025231,-0.022409,-0.320833,-0.695859,-0.193399,-0.351063,0.999975,-0.006078,-0.001669,-0.003074
3002,0.033856,-0.102089,9.924697,-0.554450,-0.055987,-0.349827,-0.683372,-0.195793,-0.362296,0.999976,-0.005969,-0.001690,-0.003172
3003,0.059246,-0.270124,9.924706,-0.982222,-0.017937,-1.889485,-0.772945,-0.209847,-0.399370,0.999970,-0.006751,-0.001808,-0.003497
3004,0.047451,-0.214554,9.914843,-0.175668,0.226103,-8.396029,-0.874289,-0.222363,-0.570512,0.999957,-0.007639,-0.001902,-0.004993
3005,0.040952,-0.234835,9.911519,-0.458124,0.296282,-10.901599,-0.903411,-0.220179,-0.892157,0.999937,-0.007898,-0.001860,-0.007800
3006,0.044376,-0.254915,9.909821,-0.415573,0.340526,-12.552649,-0.938421,-0.216906,-1.283095,0.999902,-0.008210,-0.001801,-0.011212
3007,0.041101,-0.256519,9.905667,0.095426,0.401553,-13.913774,-0.965332,-0.213054,-1.724254,0.999849,-0.008451,-0.001732,-0.015061
3008,0.014695,-0.100497,9.904704,0.339547,0.439719,-14.873580,-0.959687,-0.204839,-2.204192,0.999778,-0.008408,-0.001626,-0.019248
3009,0.030026,-0.158688,9.912951,-0.510321,0.299361,-11.913285,-0.952089,-0.196602,-2.650810,0.999696,-0.008346,-0.001523,-0.023144
3010,0.037329,-0.154441,9.917893,-0.510304,0.348192,-13.631479,-0.965511,-0.192719,-3.076681,0.999602,-0.008468,-0.001455,-0.026859
3011,0.039478,-0.174970,9.922077,-0.734612,0.458050,-17.043447,-0.984237,-0.189110,-3.588079,0.999471,-0.008636,-0.001381,-0.031320
3012,0.043959,-0.169994,9.922388,-0.920784,0.641144,-22.050007,-1.010579,-0.184224,-4.239841,0.999275,-0.008872,-0.001280,-0.037004
3013,0.040332,-0.169933,9.924491,-0.968081,0.790665,-26.046408,-1.038859,-0.177055,-5.041718,0.998989,-0.009125,-0.001145,-0.043995
3014,0.032930,-0.194304,9.921280,-1.146623,0.898996,-29.337830,-1.072446,-0.167182,-5.965095,0.998600,-0.009422,-0.000970,-0.052043
3015,0.033514,-0.183940,9.920423,-0.884176,0.998174,-32.055504,-1.104928,-0.155844,-6.988655,0.998093,-0.009707,-0.000770,-0.060960
3016,0.030060,-0.168297,9.920203,-0.362285,1.051575,-32.952747,-1.119885,-0.143607,-8.072496,0.997470,-0.009837,-0.000562,-0.070396
3017,0.021813,-0.172395,9.922594,-0.058583,1.036316,-32.360687,-1.118937,-0.130030,-9.161436,0.996757,-0.009824,-0.000351,-0.079871
3018,0.027337,-0.156690,9.923140,0.567103,0.943232,-30.183191,-1.101155,-0.117426,-10.204196,0.995990,-0.009662,-0.000166,-0.088936
3019,0.034851,-0.108849,9.920393,1.304239,0.786044,-25.718334,-1.053817,-0.108398,-11.136218,0.995238,-0.009245,-0.000049,-0.097033
3020,0.030928,-0.134658,9.918454,1.015963,0.653262,-21.877579,-0.998094,-0.101741,-11.929769,0.994547,-0.008755,0.000022,-0.103923
3021,0.032213,-0.122885,9.917485,0.391955,0.605932,-21.113092,-0.961637,-0.096247,-12.646522,0.993880,-0.008433,0.000089,-0.110141
3022,0.040317,-0.113519,9.920021,-0.105399,0.567748,-20.574442,-0.943333,-0.092871,-13.341542,0.993195,-0.008270,0.000151,-0.116167
3023,0.040843,-0.135377,9.921647,-0.943053,0.593642,-21.126829,-0.949947,-0.090848,-14.036778,0.992472,-0.008325,0.000226,-0.122190
3024,0.035680,-0.173384,9.926342,-1.867746,0.680577,-23.971153,-0.993311,-0.087787,-14.788634,0.991646,-0.008695,0.000356,-0.128699
3025,0.037690,-0.168363,9.923234,-1.840284,0.755306,-25.921289,-1.054480,-0.083875,-15.620424,0.990681,-0.009216,0.000525,-0.135893
3026,0.043761,-0.182444,9.923377,-1.370295,0.750678,-25.661882,-1.106281,-0.081194,-16.480408,0.989629,-0.009656,0.000682,-0.143323
3027,0.040593,-0.194039,9.921659,-1.295527,0.753677,-25.826683,-1.149770,-0.079700,-17.338821,0.988523,-0.010024,0.000825,-0.150732
3028,0.041759,-0.206022,9.918937,-1.380988,0.787194,-26.342443,-1.194308,-0.078360,-18.208591,0.987347,-0.010399,0.000974,-0.158230
3029,0.048250,-0.212323,9.915455,-1.078866,0.826808,-26.530136,-1.235615,-0.077695,-19.090109,0.986097,-0.010746,0.001119,-0.165821
3030,0.048073,-0.208138,9.915321,-0.831666,0.837423,-26.945190,-1.266232,-0.077743,-19.981695,0.984774,-0.011000,0.001249,-0.173488
3031,0.045792,-0.201649,9.917555,-1.118517,0.889240,-27.726463,-1.294698,-0.077370,-20.893248,0.983360,-0.011233,0.001385,-0.181315
3032,0.051707,-0.204908,9.917911,-1.025401,0.939528,-27.512836,-1.324767,-0.076454,-21.814297,0.981868,-0.011478,0.001532,-0.189213
3033,0.048769,-0.200658,9.917968,-0.385991,0.922672,-27.013859,-1.341318,-0.075447,-22.723492,0.980334,-0.011605,0.001660,-0.196997
3034,0.046459,-0.176123,9.921242,0.322119,0.867673,-26.244795,-1.331012,-0.074561,-23.611546,0.978779,-0.011502,0.001740,-0.204588
3035,0.046764,-0.175051,9.924016,0.444300,0.840141,-25.553551,-1.303686,-0.073980,-24.475241,0.977212,-0.011255,0.001781,-0.211960
3036,0.046584,-0.219412,9.921706,0.174271,0.847706,-25.925880,-1.284829,-0.073360,-25.333614,0.975599,-0.011079,0.001834,-0.219274
3037,0.046759,-0.210823,9.917714,0.444377,0.809492,-26.273792,-1.271240,-0.073351,-26.203962,0.973906,-0.010950,0.001891,-0.226678
3038,0.051282,-0.184772,9.919422,0.741978,0.772800,-25.211750,-1.244708,-0.074545,-27.062378,0.972183,-0.010713,0.001909,-0.233968
3039,0.051913,-0.206333,9.913218,0.456673,0.722370,-23.167009,-1.218325,-0.076268,-27.869011,0.970515,-0.010479,0.001914,-0.240806
3040,0.049113,-0.217231,9.910180,-0.002628,0.699409,-23.525604,-1.209397,-0.078108,-28.647511,0.968857,-0.010394,0.001951,-0.247394
3041,0.042155,-0.211813,9.905101,-0.423792,0.798532,-25.509308,-1.216493,-0.078257,-29.465059,0.967067,-0.010440,0.002039,-0.254300
3042,0.035572,-0.232286,9.907921,-0.638972,0.813742,-26.215816,-1.236012,-0.075969,-30.327469,0.965124,-0.010584,0.002182,-0.261570
3043,0.032129,-0.253058,9.909353,-1.167001,0.859480,-28.497072,-1.272290,-0.073009,-31.239677,0.963008,-0.010864,0.002376,-0.269243
3044,0.041771,-0.222673,9.917771,-0.826761,0.941834,-30.947712,-1.309286,-0.071141,-32.230766,0.960640,-0.011149,0.002575,-0.277561
3045,0.045468,-0.211150,9.924560,0.682392,0.902100,-27.196991,-1.308899,-0.069996,-33.200218,0.958257,-0.011120,0.002678,-0.285678
3046,0.053512,-0.162918,9.926400,1.907788,0.602947,-19.938164,-1.255200,-0.071341,-33.986134,0.956281,-0.010657,0.002606,-0.292245
3047,0.056345,-0.153769,9.928841,1.643925,0.456376,-15.447367,-1.179890,-0.076366,-34.576130,0.954770,-0.010029,0.002424,-0.297167
3048,0.082113,-0.147383,9.922786,0.243242,0.410490,-15.055204,-1.133196,-0.085741,-35.084713,0.953445,-0.009654,0.002267,-0.301403
3049,0.075522,-0.176984,9.918276,-2.102033,0.521758,-16.082157,-1.154180,-0.096204,-35.603886,0.952068,-0.009846,0.002280,-0.305720
3050,0.065163,-0.292109,9.926672,-4.098013,0.594897,-18.445818,-1.265278,-0.102972,-36.179577,0.950510,-0.010775,0.002574,-0.310497
3051,0.067339,-0.338255,9.929109,-5.395251,0.619218,-22.832855,-1.447574,-0.110900,-36.867733,0.948609,-0.012290,0.003076,-0.316196
3052,0.071936,-0.355757,9.926702,-5.596888,0.692364,-26.098337,-1.655991,-0.123427,-37.683418,0.946310,-0.014024,0.003648,-0.322936
3053,0.055652,-0.372142,9.924758,-4.396168,0.753317,-25.120218,-1.843441,-0.135815,-38.537258,0.943853,-0.015576,0.004190,-0.329973
3054,0.056508,-0.376064,9.927554,-2.755935,0.699846,-23.922369,-1.977659,-0.146867,-39.354877,0.941455,-0.016681,0.004604,-0.336695
3055,0.069516,-0.290486,9.913854,-1.956354,0.753179,-25.037823,-2.054558,-0.160540,-40.171173,0.939020,-0.017319,0.004841,-0.343391
3056,0.068570,-0.249186,9.914102,-1.086424,0.931630,-24.673130,-2.083814,-0.172507,-41.000168,0.936506,-0.017559,0.004958,-0.350176
3057,0.065965,-0.218505,9.915067,-0.675711,1.036845,-24.427462,-2.080768,-0.178634,-41.819199,0.933979,-0.017518,0.005024,-0.356862
3058,0.068121,-0.238460,9.918164,-0.577798,1.154271,-26.466101,-2.067234,-0.181617,-42.668247,0.931312,-0.017379,0.005087,-0.363773
3059,0.074041,-0.254437,9.913851,-0.499759,1.230491,-28.431494,-2.055177,-0.184413,-43.584080,0.928376,-0.017250,0.005164,-0.371205
3060,0.077843,-0.250650,9.912466,-0.432417,1.273132,-29.195988,-2.042513,-0.187712,-44.545425,0.925231,-0.017114,0.005240,-0.378982
3061,0.078150,-0.272638,9.912764,-0.334579,1.231843,-28.257547,-2.029760,-0.191031,-45.503872,0.922031,-0.016978,0.005313,-0.386708
3062,0.082586,-0.281744,9.913348,-0.300865,1.199707,-27.499165,-2.019118,-0.194819,-46.434010,0.918863,-0.016862,0.005384,-0.394180
3063,0.084293,-0.250978,9.914513,-0.325117,1.132471,-26.029705,-2.006252,-0.199355,-47.326977,0.915765,-0.016733,0.005433,-0.401330
3064,0.081571,-0.253243,9.914227,-0.566028,1.156791,-26.229603,-1.994873,-0.203367,-48.198807,0.912686,-0.016615,0.005488,-0.408287
3065,0.055942,-0.253972,9.913281,-0.616205,1.268119,-28.526125,-1.989043,-0.202877,-49.112274,0.909403,-0.016523,0.005603,-0.415549
3066,0.063550,-0.281885,9.911798,-0.550442,1.362678,-30.398436,-1.986568,-0.199048,-50.095284,0.905806,-0.016440,0.005766,-0.423335
3067,0.060443,-0.315354,9.910614,-0.510681,1.335160,-30.082573,-1.989858,-0.195646,-51.104214,0.902043,-0.016402,0.005949,-0.431293
3068,0.056298,-0.344413,9.910606,-0.463350,1.261868,-28.565805,-1.999372,-0.192255,-52.082539,0.898327,-0.016412,0.006152,-0.438977
3069,0.054980,-0.343108,9.917809,-0.174946,1.116863,-25.474281,-2.006643,-0.189435,-52.983986,0.894845,-0.016409,0.006332,-0.446030
3070,0.081464,-0.339075,9.922860,-0.194773,0.933684,-21.604536,-2.008787,-0.191207,-53.769306,0.891767,-0.016389,0.006439,-0.452152
3071,0.077300,-0.332986,9.923012,-0.409906,0.924440,-21.439741,-2.013579,-0.196591,-54.487331,0.888915,-0.016407,0.006518,-0.457731
3072,0.077792,-0.323100,9.920708,-0.437334,1.031170,-23.598928,-2.020198,-0.201013,-55.238651,0.885894,-0.016433,0.006618,-0.463550
3073,0.081129,-0.321062,9.920041,-0.347251,1.037187,-23.951420,-2.023908,-0.205349,-56.031864,0.882663,-0.016433,0.006714,-0.469671
3074,0.083720,-0.330007,9.915289,-0.266330,1.026415,-23.899542,-2.025316,-0.210509,-56.830070,0.879369,-0.016418,0.006794,-0.475808
3076,0.082052,-0.317560,9.919086,-0.089271,0.985125,-23.133532,-2.021879,-0.215961,-57.614635,0.876091,-0.016368,0.006851,-0.481819
3077,0.083645,-0.302173,9.918235,0.209889,0.853807,-19.930616,-2.007367,-0.221593,-58.333019,0.873055,-0.016238,0.006848,-0.487303
3078,0.085690,-0.289076,9.921616,0.792894,0.769791,-15.676340,-1.975512,-0.226398,-58.927086,0.870521,-0.015981,0.006759,-0.491825
3079,0.077715,-0.258103,9.929111,1.365254,0.746819,-12.520729,-1.920496,-0.227384,-59.397694,0.868501,-0.015540,0.006580,-0.495400
3080,0.075725,-0.229613,9.931177,1.719449,0.656718,-9.182009,-1.845109,-0.224836,-59.760075,0.866941,-0.014938,0.006320,-0.498148
3081,0.074017,-0.221540,9.925223,1.975998,0.511687,-5.986723,-1.758315,-0.221867,-60.013477,0.865848,-0.014255,0.005997,-0.500068
3082,0.071294,-0.206697,9.924898,2.147374,0.374194,-3.612391,-1.630056,-0.231832,-60.174084,0.865161,-0.013322,0.005381,-0.501288
3083,0.068539,-0.183691,9.927204,1.862782,0.181692,-1.972031,-1.468215,-0.254479,-60.267830,0.864767,-0.012195,0.004512,-0.502005
3084,0.072145,-0.191719,9.917528,1.364425,0.028881,-0.961877,-1.336638,-0.279309,-60.317207,0.864562,-0.011310,0.003753,-0.502384
3085,0.071530,-0.196982,9.915359,1.259509,-0.065923,-0.403394,-1.246181,-0.305116,-60.340195,0.864468,-0.010740,0.003163,-0.502562
3086,0.071873,-0.196736,9.916329,1.174263,-0.082871,-0.305740,-1.179875,-0.328177,-60.352123,0.864421,-0.010340,0.002700,-0.502656
3087,0.076848,-0.184071,9.916389,1.183568,-0.090651,-0.241655,-1.121686,-0.350071,-60.361305,0.864384,-0.009997,0.002280,-0.502728
3088,0.086111,-0.208243,9.912758,1.551340,-0.080144,-0.224874,-1.073165,-0.375006,-60.369068,0.864353,-0.009740,0.001880,-0.502788
3089,0.084634,-0.223567,9.922407,1.958562,-0.062008,-0.252343,-1.039560,-0.399280,-60.376831,0.864320,-0.009593,0.001550,-0.502849
3090,0.084820,-0.207240,9.926831,2.008669,-0.031625,-0.253870,-1.004545,-0.417969,-60.385036,0.864285,-0.009411,0.001256,-0.502912
3091,0.085562,-0.184292,9.927755,1.962747,-0.013424,-0.223352,-0.956241,-0.432681,-60.392860,0.864254,-0.009111,0.000934,-0.502972
3092,0.081571,-0.183542,9.929488,1.683396,-0.005871,-0.215723,-0.908888,-0.442592,-60.400078,0.864225,-0.008798,0.000652,-0.503027
3093,0.072572,-0.158221,9.930230,1.047014,-0.019613,-0.194360,-0.872217,-0.444289,-60.406841,0.864198,-0.008529,0.000478,-0.503079
3094,0.076643,-0.114334,9.920561,0.612263,-0.036381,-0.145531,-0.827188,-0.443173,-60.412628,0.864176,-0.008184,0.000290,-0.503122
3095,0.078182,-0.117822,9.916862,0.040280,-0.065378,-0.115015,-0.786412,-0.445498,-60.417175,0.864159,-0.007887,0.000093,-0.503157
3096,0.081197,-0.133955,9.914785,-0.231228,-0.080659,-0.098229,-0.776330,-0.450660,-60.420807,0.864144,-0.007833,0.000010,-0.503184
3097,0.080647,-0.137457,9.914783,-0.220551,-0.082211,-0.086023,-0.784302,-0.456667,-60.423828,0.864129,-0.007920,0.000000,-0.503207
3098,0.084462,-0.143096,9.913420,-0.103095,-0.076139,-0.076867,-0.794728,-0.463240,-60.426483,0.864117,-0.008027,-0.000003,-0.503228
3099,0.080906,-0.150465,9.917952,-0.066551,-0.077689,-0.089075,-0.807293,-0.468802,-60.429134,0.864104,-0.008147,0.000010,-0.503248
3100,0.080117,-0.133513,9.914403,0.046342,-0.079214,-0.076867,-0.810831,-0.471308,-60.431831,0.864092,-0.008184,0.000007,-0.503268
3101,0.075424,-0.127409,9.918038,0.145601,-0.054771,-0.078393,-0.798394,-0.470120,-60.434464,0.864081,-0.008085,-0.000039,-0.503288
3102,0.074744,-0.120101,9.916443,0.131987,-0.050144,-0.081445,-0.778801,-0.465744,-60.437225,0.864070,-0.007918,-0.000091,-0.503309
3103,0.075304,-0.127989,9.918641,0.054260,-0.054675,-0.063134,-0.763677,-0.461766,-60.439701,0.864061,-0.007787,-0.000128,-0.503327
3104,0.071811,-0.115622,9.915897,0.072662,-0.046994,-0.053978,-0.750285,-0.457015,-60.441727,0.864053,-0.007665,-0.000151,-0.503342
3105,0.072807,-0.122671,9.920390,0.178042,-0.030153,-0.069238,-0.734637,-0.451376,-60.443863,0.864045,-0.007522,-0.000177,-0.503358
3106,0.074250,-0.127212,9.916089,0.162812,-0.036218,-0.079919,-0.725481,-0.447601,-60.446354,0.864035,-0.007437,-0.000188,-0.503377
3107,0.070448,-0.128572,9.915059,0.147540,-0.030072,-0.081444,-0.721772,-0.443494,-60.449017,0.864024,-0.007391,-0.000173,-0.503397
3108,0.067817,-0.128857,9.914892,0.086476,-0.030010,-0.082970,-0.721207,-0.436848,-60.451721,0.864012,-0.007357,-0.000126,-0.503417
3109,0.071362,-0.143097,9.915833,0.016197,-0.048271,-0.087546,-0.730174,-0.431840,-60.454468,0.864000,-0.007403,-0.000048,-0.503438
3110,0.069929,-0.146017,9.918344,0.022155,-0.057391,-0.081441,-0.747751,-0.429264,-60.457127,0.863987,-0.007524,0.000049,-0.503458
3111,0.070011,-0.138195,9.921702,0.069349,-0.058881,-0.063128,-0.759835,-0.426822,-60.459408,0.863977,-0.007604,0.000120,-0.503475
3112,0.073879,-0.135767,9.925502,0.105922,-0.060390,-0.057024,-0.763073,-0.426719,-60.461338,0.863968,-0.007628,0.000135,-0.503489
3113,0.074898,-0.129939,9.923940,0.176108,-0.060394,-0.070758,-0.759267,-0.429198,-60.463436,0.863959,-0.007610,0.000100,-0.503505
3114,0.076472,-0.139222,9.923629,0.269169,-0.051251,-0.070758,-0.754461,-0.432584,-60.465752,0.863949,-0.007589,0.000054,-0.503523
3115,0.073535,-0.154565,9.917706,0.211061,-0.049728,-0.069231,-0.761682,-0.434669,-60.467949,0.863938,-0.007653,0.000070,-0.503539
3116,0.073553,-0.153533,9.915415,0.189523,-0.052768,-0.081436,-0.776973,-0.434951,-60.470280,0.863927,-0.007769,0.000135,-0.503557
3117,0.071681,-0.143939,9.911020,0.114632,-0.055799,-0.075331,-0.786927,-0.434269,-60.472744,0.863916,-0.007841,0.000184,-0.503576
3118,0.070296,-0.144049,9.915816,-0.042606,-0.058819,-0.069227,-0.794079,-0.432150,-60.475067,0.863905,-0.007886,0.000232,-0.503593
3119,0.068732,-0.135696,9.916370,-0.379858,-0.064880,-0.067700,-0.804042,-0.428977,-60.477299,0.863895,-0.007947,0.000299,-0.503610
3120,0.070660,-0.118788,9.915764,-0.633077,-0.073999,-0.063122,-0.810260,-0.426673,-60.479515,0.863885,-0.007984,0.000344,-0.503626
3121,0.070984,-0.131190,9.922185,-1.084637,-0.113648,-0.044812,-0.824673,-0.426698,-60.481396,0.863876,-0.008092,0.000408,-0.503640
3122,0.079021,-0.178663,9.918344,-1.376192,-0.148753,-0.024974,-0.878559,-0.432162,-60.482388,0.863867,-0.008523,0.000603,-0.503648
3123,0.079229,-0.188931,9.913914,-0.790516,-0.115220,-0.041758,-0.949705,-0.441191,-60.483166,0.863857,-0.009099,0.000848,-0.503654
3124,0.076877,-0.166169,9.913336,-0.148252,-0.086246,-0.050912,-0.983990,-0.446965,-60.484509,0.863848,-0.009383,0.000955,-0.503664
3125,0.081753,-0.169641,9.919578,-0.416819,-0.121361,-0.046335,-0.993927,-0.452805,-60.486065,0.863840,-0.009483,0.000955,-0.503676
3126,0.068421,-0.179648,9.922975,-1.163022,-0.057250,-0.040231,-1.023499,-0.453086,-60.487423,0.863832,-0.009707,0.001083,-0.503686
3127,0.055163,-0.267481,9.931133,-2.255960,0.049693,-0.063114,-1.127349,-0.437182,-60.488781,0.863818,-0.010420,0.001659,-0.503694
3128,0.056161,-0.260835,9.930171,-2.918810,-0.008127,-0.003595,-1.288303,-0.415830,-60.489388,0.863801,-0.011540,0.002528,-0.503694
3129,0.060591,-0.304383,9.931678,-3.346632,-0.078199,1.001996,-1.463213,-0.401895,-60.472240,0.863859,-0.012797,0.003400,-0.503559
3130,0.054287,-0.324292,9.931129,-2.884859,-0.093356,1.931292,-1.640260,-0.390499,-60.422810,0.864057,-0.014084,0.004258,-0.503180
3131,0.069929,-0.334427,9.920109,-2.114732,-0.209276,2.483681,-1.782222,-0.387048,-60.348740,0.864364,-0.015142,0.004897,-0.502615
3132,0.080973,-0.260710,9.913148,-0.965719,-0.337516,2.637797,-1.835392,-0.401305,-60.263123,0.864731,-0.015610,0.005011,-0.501968
3133,0.077667,-0.275073,9.915411,-0.432824,-0.249098,2.590489,-1.815827,-0.419001,-60.176010,0.865113,-0.015543,0.004780,-0.501313
3134,0.074520,-0.279800,9.913799,-0.209741,-0.166737,1.626101,-1.789933,-0.428621,-60.105827,0.865422,-0.015393,0.004585,-0.500786
3135,0.077490,-0.282793,9.910245,0.052954,-0.076727,0.678498,-1.763286,-0.434046,-60.067532,0.865593,-0.015216,0.004422,-0.500498
3136,0.070357,-0.270704,9.910931,0.633042,0.043826,0.091016,-1.722439,-0.433517,-60.054913,0.865653,-0.014906,0.004246,-0.500404
3137,0.069911,-0.245183,9.917009,0.883631,0.101850,-0.060053,-1.655090,-0.426311,-60.054787,0.865663,-0.014366,0.004007,-0.500405
3138,0.074917,-0.250565,9.915908,0.528432,0.033198,-0.061581,-1.588726,-0.422177,-60.057186,0.865661,-0.013846,0.003748,-0.500425
3139,0.078069,-0.243298,9.914622,0.341004,0.002657,-0.098205,-1.541665,-0.424591,-60.060112,0.865654,-0.013501,0.003525,-0.500449
3140,0.080958,-0.238105,9.917072,0.170332,-0.032488,-0.086002,-1.504013,-0.431156,-60.063385,0.865643,-0.013245,0.003311,-0.500475
3141,0.087330,-0.241923,9.919607,-0.088893,-0.066135,-0.067694,-1.479868,-0.442541,-60.066086,0.865633,-0.013113,0.003120,-0.500497
3142,0.085389,-0.241487,9.920775,-0.201683,-0.092159,-0.055489,-1.468661,-0.455527,-60.068184,0.865624,-0.013085,0.002973,-0.500514
3143,0.088068,-0.258101,9.917489,-0.126870,-0.083072,-0.031076,-1.468846,-0.467111,-60.069595,0.865617,-0.013137,0.002887,-0.500526
3144,0.084116,-0.271182,9.921785,0.286576,-0.058704,-0.060070,-1.476079,-0.475472,-60.070976,0.865610,-0.013228,0.002855,-0.500537
3145,0.080658,-0.256229,9.922531,0.924347,-0.089229,-0.090588,-1.464203,-0.478714,-60.073357,0.865600,-0.013152,0.002779,-0.500555
3146,0.075305,-0.235603,9.924435,1.167036,-0.104452,-0.078380,-1.420895,-0.477513,-60.076153,0.865593,-0.012820,0.002600,-0.500577
3147,0.076887,-0.214663,9.918751,0.869670,-0.078459,-0.072276,-1.363150,-0.474156,-60.078785,0.865588,-0.012369,0.002373,-0.500598
3148,0.066757,-0.184310,9.926691,0.110080,-0.064645,-0.082959,-1.306755,-0.466401,-60.081642,0.865582,-0.011909,0.002186,-0.500620
3149,0.070583,-0.188336,9.922914,-0.821915,-0.198828,0.033011,-1.275374,-0.458491,-60.082726,0.865581,-0.011637,0.002108,-0.500629
3150,0.069031,-0.210966,9.919564,-1.725078,-0.217060,0.109308,-1.294808,-0.455468,-60.080376,0.865590,-0.011771,0.002216,-0.500610
3151,0.076708,-0.249372,9.915215,-1.882307,-0.210908,0.364138,-1.362403,-0.456398,-60.072277,0.865618,-0.012286,0.002503,-0.500548
3152,0.074200,-0.285257,9.916457,-1.107425,-0.125429,0.391608,-1.448268,-0.458342,-60.059258,0.865665,-0.012943,0.002862,-0.500448
3153,0.079452,-0.281217,9.914013,0.070282,-0.047589,0.351937,-1.504140,-0.458637,-60.046490,0.865715,-0.013367,0.003102,-0.500350
3154,0.077623,-0.264245,9.916230,0.482149,0.059232,0.284797,-1.511586,-0.457360,-60.035755,0.865761,-0.013418,0.003143,-0.500268
3155,0.081577,-0.267520,9.919683,0.695742,0.089748,0.307687,-1.496660,-0.454898,-60.025917,0.865806,-0.013295,0.003096,-0.500194
3156,0.076994,-0.246210,9.917260,0.799532,0.124843,0.042175,-1.468345,-0.451457,-60.020210,0.865834,-0.013066,0.002997,-0.500152
3157,0.077990,-0.233263,9.918694,0.404448,0.037872,0.000975,-1.431980,-0.447787,-60.019688,0.865841,-0.012775,0.002866,-0.500148
3158,0.077962,-0.252958,9.914884,-0.092944,-0.062840,0.031492,-1.419155,-0.448315,-60.019199,0.865844,-0.012680,0.002806,-0.500145
3159,0.081544,-0.261264,9.915690,0.032104,-0.059804,0.010129,-1.430145,-0.452448,-60.018379,0.865846,-0.012782,0.002823,-0.500139
3160,0.081468,-0.246837,9.915174,0.160224,-0.020157,-0.072271,-1.434105,-0.457211,-60.019310,0.865841,-0.012832,0.002804,-0.500146
3161,0.077466,-0.247815,9.919441,0.021370,-0.044578,-0.090581,-1.430469,-0.459046,-60.022011,0.865830,-0.012813,0.002775,-0.500167
3162,0.076453,-0.244110,9.919536,-0.021340,-0.056767,-0.107367,-1.428463,-0.458525,-60.025284,0.865816,-0.012795,0.002770,-0.500191
3163,0.076482,-0.237824,9.919641,0.001599,-0.049115,-0.113469,-1.422445,-0.457506,-60.028969,0.865801,-0.012745,0.002752,-0.500219
3164,0.073451,-0.233126,9.917406,0.006264,-0.050607,-0.095158,-1.411377,-0.455072,-60.032494,0.865787,-0.012651,0.002723,-0.500246
3165,0.072327,-0.239772,9.918727,-0.077594,-0.073448,-0.098209,-1.404003,-0.451328,-60.035732,0.865774,-0.012579,0.002719,-0.500270
3166,0.079790,-0.239299,9.916090,-0.140125,-0.097845,-0.093631,-1.403592,-0.451940,-60.038891,0.865760,-0.012578,0.002713,-0.500294
3167,0.080259,-0.248012,9.917083,-0.076041,-0.081074,-0.087528,-1.407788,-0.456758,-60.041828,0.865746,-0.012631,0.002695,-0.500317
3168,0.082281,-0.251838,9.913513,0.047508,-0.067361,-0.084477,-1.414608,-0.461821,-60.044571,0.865733,-0.012704,0.002687,-0.500338
3169,0.081166,-0.250917,9.915177,0.236667,-0.059748,-0.133307,-1.416714,-0.466168,-60.048103,0.865717,-0.012739,0.002664,-0.500365
3170,0.079530,-0.236404,9.914632,0.454886,-0.050593,-0.134832,-1.403836,-0.468144,-60.052536,0.865699,-0.012650,0.002593,-0.500399
3171,0.073523,-0.237090,9.916211,0.380173,-0.020041,-0.122624,-1.382800,-0.465244,-60.056858,0.865683,-0.012479,0.002524,-0.500431
3172,0.074943,-0.235320,9.915751,0.186418,-0.023042,-0.092104,-1.368536,-0.459732,-60.060459,0.865669,-0.012347,0.002504,-0.500459
3173,0.078286,-0.236175,9.917622,0.105562,-0.035224,-0.086001,-1.361339,-0.457446,-60.063419,0.865657,-0.012282,0.002490,-0.500481
3174,0.077664,-0.234095,9.917123,-0.103480,-0.042842,-0.058534,-1.360161,-0.457431,-60.065804,0.865647,-0.012273,0.002485,-0.500499
3175,0.079218,-0.248396,9.914775,-0.300369,-0.045888,-0.047851,-1.372367,-0.458228,-60.067501,0.865638,-0.012369,0.002532,-0.500512
3176,0.080578,-0.251396,9.914806,0.160357,-0.042841,-0.063111,-1.387608,-0.460373,-60.069214,0.865629,-0.012494,0.002583,-0.500524
3177,0.077290,-0.278829,9.911919,0.799518,-0.064200,-0.085998,-1.396910,-0.461673,-60.071453,0.865618,-0.012569,0.002614,-0.500541
3179,0.078379,-0.262283,9.911659,0.945778,-0.074866,-0.098203,-1.396350,-0.462187,-60.074242,0.865605,-0.012567,0.002608,-0.500562
3180,0.079902,-0.249349,9.909728,1.134884,-0.091646,-0.101253,-1.375306,-0.464281,-60.077374,0.865594,-0.012418,0.002501,-0.500587
3181,0.080791,-0.236064,9.909834,1.290505,-0.102328,-0.114988,-1.337714,-0.467791,-60.080883,0.865582,-0.012149,0.002310,-0.500614
3182,0.084793,-0.214106,9.910096,1.012860,-0.108449,-0.104306,-1.290066,-0.473471,-60.084538,0.865571,-0.011814,0.002060,-0.500643
3183,0.090597,-0.161253,9.913091,0.506558,-0.091712,-0.102784,-1.226533,-0.482915,-60.088234,0.865560,-0.011375,0.001711,-0.500673
3184,0.080266,-0.165021,9.918455,-0.086606,-0.058162,-0.099736,-1.166883,-0.488047,-60.091999,0.865549,-0.010947,0.001412,-0.500702
3185,0.076518,-0.180566,9.919268,-0.872193,-0.019970,-0.073797,-1.149725,-0.483953,-60.095146,0.865538,-0.010799,0.001368,-0.500726
3186,0.076254,-0.191656,9.915071,-1.302392,0.007556,-0.055485,-1.172087,-0.476742,-60.097416,0.865526,-0.010937,0.001521,-0.500742
3187,0.073788,-0.210569,9.913383,-1.374113,0.009144,-0.057010,-1.216879,-0.468688,-60.099289,0.865514,-0.011240,0.001777,-0.500755
3188,0.067230,-0.228511,9.911860,-1.381842,0.018387,-0.058533,-1.275175,-0.457392,-60.101135,0.865501,-0.011631,0.002118,-0.500768
3189,0.076177,-0.230343,9.908291,-1.130170,0.010822,-0.050901,-1.330391,-0.448848,-60.102875,0.865488,-0.012010,0.002424,-0.500779
3190,0.080402,-0.232127,9.908010,-0.675490,-0.015117,-0.041746,-1.366163,-0.448868,-60.104374,0.865478,-0.012281,0.002580,-0.500790
3191,0.080303,-0.228267,9.911132,-0.382490,-0.028872,-0.047850,-1.380859,-0.452235,-60.105869,0.865470,-0.012406,0.002619,-0.500801
3192,0.079860,-0.230142,9.910406,-0.335121,-0.034992,-0.038695,-1.384695,-0.455381,-60.107349,0.865463,-0.012449,0.002612,-0.500812
3193,0.076559,-0.243120,9.910978,-0.185560,-0.038041,-0.055480,-1.390857,-0.456335,-60.108913,0.865455,-0.012500,0.002632,-0.500824
3194,0.072569,-0.249132,9.910920,0.443075,-0.085312,-0.064635,-1.392350,-0.454283,-60.110817,0.865447,-0.012502,0.002654,-0.500838
3195,0.070329,-0.218330,9.911410,1.264077,-0.115774,-0.096678,-1.357098,-0.450633,-60.113468,0.865439,-0.012220,0.002528,-0.500859
3196,0.071492,-0.210835,9.914909,1.659472,-0.137079,-0.110412,-1.285900,-0.447806,-60.116993,0.865431,-0.011669,0.002238,-0.500886
3197,0.075168,-0.204331,9.919781,1.731353,-0.138571,-0.125671,-1.208957,-0.448206,-60.120979,0.865422,-0.011090,0.001900,-0.500918
3198,0.081843,-0.188697,9.923842,1.784911,-0.147734,-0.114991,-1.131530,-0.453932,-60.125046,0.865411,-0.010530,0.001518,-0.500950
3199,0.085794,-0.173708,9.926168,1.560765,-0.103525,-0.119571,-1.055022,-0.463645,-60.129044,0.865399,-0.009995,0.001111,-0.500982
3200,0.090217,-0.192690,9.929065,0.871095,-0.076124,-0.111944,-1.008443,-0.474878,-60.132893,0.865386,-0.009692,0.000823,-0.501012
3201,0.088979,-0.191539,9.930726,0.520030,-0.060928,-0.108892,-0.998000,-0.485162,-60.136433,0.865371,-0.009658,0.000700,-0.501039
3202,0.085720,-0.177430,9.926658,0.580986,-0.051805,-0.113468,-0.989828,-0.491097,-60.140018,0.865355,-0.009622,0.000619,-0.501067
3203,0.084562,-0.170594,9.925415,0.423802,-0.054860,-0.105840,-0.974788,-0.493477,-60.143623,0.865340,-0.009519,0.000536,-0.501094
3204,0.078931,-0.175153,9.921227,0.249826,-0.063989,-0.092105,-0.966156,-0.492116,-60.146873,0.865327,-0.009448,0.000509,-0.501118
3205,0.076907,-0.173234,9.918294,0.255882,-0.060880,-0.093630,-0.963627,-0.487113,-60.149887,0.865314,-0.009407,0.000536,-0.501141
3206,0.075882,-0.173395,9.914660,0.161225,-0.048609,-0.095154,-0.962714,-0.480941,-60.152950,0.865301,-0.009373,0.000578,-0.501164
3207,0.072543,-0.174507,9.914482,0.058933,-0.054638,-0.084472,-0.966017,-0.473507,-60.155857,0.865289,-0.009366,0.000649,-0.501185
3208,0.074121,-0.172522,9.911132,0.254200,-0.027101,-0.098203,-0.967180,-0.466014,-60.158825,0.865276,-0.009342,0.000711,-0.501208
3209,0.075499,-0.159925,9.911247,0.400697,-0.020947,-0.096676,-0.955278,-0.460642,-60.162056,0.865264,-0.009228,0.000700,-0.501232
3210,0.074768,-0.156466,9.908575,0.354981,-0.023960,-0.087521,-0.934880,-0.456609,-60.165188,0.865252,-0.009057,0.000641,-0.501255
3211,0.077380,-0.154092,9.908014,0.258911,-0.040720,-0.075313,-0.916754,-0.454600,-60.167950,0.865241,-0.008911,0.000578,-0.501276
3212,0.079776,-0.165894,9.911459,0.217713,-0.045296,-0.078365,-0.908647,-0.455849,-60.170486,0.865231,-0.008855,0.000533,-0.501295
3213,0.076407,-0.153814,9.917274,0.315357,-0.046817,-0.072260,-0.901582,-0.456758,-60.172943,0.865220,-0.008806,0.000495,-0.501314
3214,0.078670,-0.153418,9.917917,0.126166,-0.057487,-0.078364,-0.891251,-0.457133,-60.175468,0.865210,-0.008729,0.000447,-0.501333
3215,0.076775,-0.160169,9.923081,-0.020335,-0.065106,-0.066156,-0.890978,-0.457860,-60.177830,0.865200,-0.008730,0.000441,-0.501351
3216,0.078164,-0.155957,9.922374,0.094080,-0.060515,-0.075312,-0.893313,-0.458284,-60.180126,0.865190,-0.008750,0.000448,-0.501368
3217,0.082080,-0.150547,9.919781,0.002534,-0.063573,-0.066156,-0.890490,-0.461152,-60.182461,0.865179,-0.008741,0.000414,-0.501386
3218,0.083083,-0.159044,9.916686,-0.261454,-0.081907,-0.057001,-0.895165,-0.466487,-60.184471,0.865170,-0.008800,0.000395,-0.501402
3219,0.081900,-0.171269,9.919343,-0.298158,-0.091080,-0.060053,-0.914673,-0.471509,-60.186283,0.865160,-0.008969,0.000442,-0.501415
3220,0.084512,-0.168202,9.918057,-0.119725,-0.071258,-0.082942,-0.934196,-0.476180,-60.188522,0.865148,-0.009137,0.000493,-0.501432
3221,0.080456,-0.167364,9.915813,-0.063326,-0.059053,-0.076837,-0.944700,-0.478834,-60.191093,0.865136,-0.009228,0.000519,-0.501452
3222,0.078158,-0.165433,9.915285,-0.016051,-0.051399,-0.072258,-0.949665,-0.477496,-60.193520,0.865125,-0.009259,0.000551,-0.501470
3223,0.077280,-0.175834,9.911438,-0.046621,-0.049834,-0.066154,-0.957179,-0.474380,-60.195744,0.865115,-0.009302,0.000607,-0.501487
3224,0.074141,-0.164729,9.910391,-0.011566,-0.039101,-0.063101,-0.963279,-0.469511,-60.197830,0.865106,-0.009327,0.000671,-0.501502
3225,0.072625,-0.171134,9.913873,-0.246573,-0.052770,-0.040211,-0.969298,-0.463098,-60.199505,0.865098,-0.009345,0.000746,-0.501515
3226,0.073656,-0.192013,9.921170,-0.351972,-0.051186,-0.041735,-0.993023,-0.457549,-60.200733,0.865091,-0.009499,0.000892,-0.501523
3227,0.076388,-0.180333,9.919747,-0.190349,-0.040469,-0.056992,-1.017709,-0.454586,-60.202232,0.865083,-0.009673,0.001022,-0.501534
3228,0.075722,-0.161357,9.922462,-0.095716,-0.032816,-0.079881,-1.019325,-0.453029,-60.204521,0.865073,-0.009678,0.001041,-0.501552
3229,0.078455,-0.175280,9.921098,-0.010201,-0.028227,-0.082933,-1.013300,-0.452642,-60.207268,0.865061,-0.009631,0.001018,-0.501572
3230,0.079070,-0.166549,9.919764,0.488814,-0.012970,-0.096667,-1.000418,-0.453711,-60.210297,0.865049,-0.009538,0.000954,-0.501595
3231,0.073148,-0.143174,9.916710,0.913172,0.002307,-0.093615,-0.958304,-0.451681,-60.213604,0.865038,-0.009212,0.000785,-0.501621
3232,0.071996,-0.149460,9.919716,0.859943,-0.003752,-0.095142,-0.906364,-0.446171,-60.216930,0.865028,-0.008795,0.000600,-0.501646
3233,0.074376,-0.156861,9.919896,0.742510,-0.014398,-0.072253,-0.871674,-0.442138,-60.219772,0.865019,-0.008516,0.000478,-0.501667
3234,0.073482,-0.143964,9.919368,0.495337,-0.020479,-0.063098,-0.847642,-0.439887,-60.222046,0.865011,-0.008325,0.000390,-0.501684
3235,0.074158,-0.148611,9.918548,0.002483,-0.037245,-0.053942,-0.836879,-0.438435,-60.223988,0.865003,-0.008237,0.000354,-0.501699
3236,0.078569,-0.154353,9.917556,-0.295116,-0.050981,-0.041734,-0.847206,-0.440250,-60.225536,0.864995,-0.008323,0.000386,-0.501711
3237,0.074749,-0.147903,9.918436,-0.308891,-0.052512,-0.041734,-0.862421,-0.442571,-60.226864,0.864988,-0.008448,0.000435,-0.501721
3238,0.074109,-0.159974,9.924959,-0.243321,-0.050970,-0.038681,-0.877292,-0.442373,-60.228123,0.864982,-0.008559,0.000502,-0.501730
3239,0.074287,-0.161327,9.930751,0.196070,-0.034166,-0.044784,-0.887604,-0.441426,-60.229427,0.864975,-0.008633,0.000554,-0.501740
3240,0.071890,-0.142417,9.928735,0.708788,-0.017353,-0.055465,-0.871476,-0.438939,-60.231087,0.864969,-0.008500,0.000502,-0.501752
3241,0.075161,-0.135841,9.928177,0.704312,-0.028014,-0.063096,-0.835127,-0.437070,-60.233147,0.864963,-0.008218,0.000358,-0.501768
3242,0.076330,-0.142912,9.928937,0.629607,-0.026487,-0.038681,-0.804709,-0.437845,-60.234905,0.864958,-0.007991,0.000219,-0.501781
3243,0.074450,-0.123779,9.924038,0.499972,-0.034113,-0.040208,-0.777488,-0.438481,-60.236259,0.864953,-0.007789,0.000095,-0.501792
3244,0.074649,-0.128668,9.923329,-0.046226,-0.060043,-0.032578,-0.759522,-0.438769,-60.237537,0.864949,-0.007654,0.000014,-0.501801
3245,0.075570,-0.150652,9.922555,-0.400291,-0.079874,-0.035629,-0.773263,-0.440285,-60.238598,0.864943,-0.007765,0.000063,-0.501809
3246,0.071704,-0.149439,9.923446,-0.304292,-0.078328,-0.044784,-0.801648,-0.440540,-60.239777,0.864936,-0.007980,0.000185,-0.501818
3247,0.072930,-0.150932,9.922989,-0.211317,-0.076773,-0.060042,-0.823501,-0.439330,-60.241394,0.864928,-0.008140,0.000290,-0.501830
3248,0.074186,-0.154981,9.923021,0.038841,-0.061493,-0.067671,-0.838115,-0.439121,-60.243385,0.864918,-0.008249,0.000356,-0.501845
3249,0.072853,-0.156214,9.916735,0.304261,-0.046214,-0.078351,-0.843683,-0.438510,-60.245716,0.864907,-0.008289,0.000385,-0.501863
3250,0.070732,-0.143441,9.918353,0.400361,-0.043130,-0.081402,-0.836023,-0.436020,-60.248325,0.864897,-0.008220,0.000370,-0.501883
3251,0.068522,-0.141608,9.920237,0.350029,-0.036979,-0.084454,-0.820719,-0.431539,-60.251091,0.864886,-0.008085,0.000337,-0.501903
3252,0.062735,-0.135576,9.916502,0.246303,-0.033854,-0.089031,-0.806123,-0.423643,-60.253998,0.864875,-0.007940,0.000333,-0.501925
3253,0.060130,-0.137607,9.916219,0.040335,-0.042913,-0.093607,-0.797280,-0.412852,-60.257046,0.864863,-0.007826,0.000376,-0.501948
3254,0.059437,-0.134454,9.919693,-0.075614,-0.048920,-0.085977,-0.795196,-0.402271,-60.260033,0.864850,-0.007764,0.000447,-0.501970
3255,0.058145,-0.134722,9.918104,-0.299899,-0.062562,-0.078345,-0.798295,-0.392834,-60.262768,0.864839,-0.007746,0.000532,-0.501990
3256,0.062446,-0.139431,9.915301,-0.363982,-0.065549,-0.075293,-0.808541,-0.386802,-60.265308,0.864827,-0.007797,0.000623,-0.502009
3257,0.065493,-0.138067,9.918968,-0.275475,-0.067048,-0.067662,-0.818874,-0.385666,-60.267662,0.864816,-0.007870,0.000677,-0.502027
3258,0.073883,-0.138254,9.919242,-0.292240,-0.068595,-0.041723,-0.825707,-0.390662,-60.269474,0.864807,-0.007943,0.000669,-0.502040
3259,0.077731,-0.131309,9.919898,-0.225041,-0.070188,-0.023413,-0.827015,-0.401266,-60.270573,0.864802,-0.007999,0.000595,-0.502049
3260,0.081660,-0.133071,9.923589,-0.112038,-0.064169,0.007104,-0.822125,-0.414210,-60.270893,0.864800,-0.008019,0.000476,-0.502052
3261,0.084890,-0.143121,9.925599,-0.232549,-0.074948,0.077294,-0.823315,-0.428668,-60.269474,0.864805,-0.008092,0.000372,-0.502042
3262,0.087793,-0.154117,9.926280,-0.208182,-0.076577,0.155117,-0.836539,-0.443951,-60.265526,0.864821,-0.008258,0.000314,-0.502013
3263,0.082676,-0.152961,9.922448,0.116765,-0.062917,0.223782,-0.847516,-0.455466,-60.259109,0.864847,-0.008392,0.000275,-0.501965
3264,0.083958,-0.156444,9.920070,0.456978,-0.037018,0.326019,-0.846579,-0.462226,-60.249844,0.864888,-0.008414,0.000219,-0.501895
3265,0.085438,-0.145398,9.914527,0.777390,-0.015696,0.435885,-0.830243,-0.467989,-60.237110,0.864944,-0.008316,0.000103,-0.501799
3266,0.080394,-0.136300,9.914535,0.966638,-0.005033,0.626625,-0.797237,-0.470417,-60.219429,0.865024,-0.008078,-0.000061,-0.501666
3267,0.078830,-0.133437,9.912089,0.901068,-0.020280,1.117973,-0.760631,-0.468923,-60.190395,0.865153,-0.007795,-0.000212,-0.501446
3268,0.074662,-0.128848,9.914052,0.803437,-0.062971,2.201380,-0.729174,-0.465233,-60.135090,0.865398,-0.007541,-0.000325,-0.501029
3269,0.072713,-0.117022,9.912904,0.640210,-0.136160,4.101158,-0.700224,-0.460366,-60.030060,0.865859,-0.007301,-0.000422,-0.500235
3270,0.066149,-0.105833,9.916615,0.528912,-0.220004,6.757794,-0.670384,-0.453866,-59.849098,0.866650,-0.007046,-0.000514,-0.498867
3271,0.066269,-0.106177,9.916980,0.747216,-0.302305,9.415956,-0.639090,-0.447050,-59.579533,0.867823,-0.006778,-0.000615,-0.496826
3272,0.060230,-0.076044,9.915475,1.127242,-0.375486,11.828445,-0.601707,-0.446526,-59.225426,0.869357,-0.006490,-0.000793,-0.494142
3273,0.063048,-0.071108,9.914671,1.131885,-0.427337,13.581733,-0.559249,-0.451841,-58.801857,0.871179,-0.006187,-0.001039,-0.490925
3274,0.060203,-0.075223,9.916557,1.240279,-0.427306,13.860978,-0.516775,-0.457904,-58.344410,0.873134,-0.005885,-0.001291,-0.487443
3276,0.063597,-0.074252,9.912881,1.096878,-0.434903,14.282132,-0.477175,-0.464156,-57.875263,0.875124,-0.005604,-0.001530,-0.483864
3277,0.062099,-0.069050,9.911878,0.779512,-0.440974,14.701763,-0.446394,-0.470779,-57.392120,0.877157,-0.005390,-0.001733,-0.480170
3278,0.067825,-0.076730,9.913084,0.721541,-0.450099,15.136651,-0.423808,-0.478007,-56.894722,0.879234,-0.005239,-0.001906,-0.476357
3279,0.067578,-0.070084,9.915474,0.407203,-0.433286,15.714977,-0.408868,-0.485523,-56.380428,0.881364,-0.005146,-0.002049,-0.472406
3280,0.068045,-0.070994,9.917292,-0.168068,-0.482085,17.807020,-0.409287,-0.493029,-55.821625,0.883656,-0.005170,-0.002130,-0.468103
3281,0.063893,-0.075602,9.918794,-0.023110,-0.535457,19.941792,-0.418530,-0.500909,-55.192368,0.886213,-0.005262,-0.002182,-0.463244
3282,0.063853,-0.080380,9.917960,0.173722,-0.562882,21.339539,-0.423607,-0.508830,-54.504215,0.888978,-0.005320,-0.002255,-0.457914
3283,0.053643,-0.079119,9.926689,0.079102,-0.573507,21.798841,-0.427465,-0.515536,-53.785110,0.891834,-0.005362,-0.002325,-0.452326
3284,0.052916,-0.081902,9.930057,0.709297,-0.605483,22.014000,-0.422556,-0.521234,-53.054752,0.894698,-0.005331,-0.002423,-0.446633
3285,0.050213,-0.078223,9.930964,1.508868,-0.580995,20.950430,-0.393677,-0.526737,-52.338543,0.897473,-0.005110,-0.002610,-0.441031
3286,0.054701,-0.067645,9.933671,1.591264,-0.512255,18.579142,-0.348618,-0.531510,-51.679604,0.899996,-0.004760,-0.002849,-0.435862
3287,0.056943,-0.045565,9.939565,1.601961,-0.469460,16.978445,-0.299055,-0.535901,-51.086891,0.902240,-0.004371,-0.003094,-0.431200
3288,0.062702,-0.039795,9.933390,1.693543,-0.428197,16.426062,-0.246121,-0.540360,-50.530102,0.904327,-0.003955,-0.003348,-0.426810
3289,0.062337,-0.027258,9.929739,1.769865,-0.399145,16.313143,-0.190267,-0.544682,-49.984409,0.906350,-0.003513,-0.003607,-0.422497
3290,0.068880,-0.020580,9.918033,1.542529,-0.394513,16.546608,-0.136952,-0.549528,-49.436722,0.908361,-0.003091,-0.003856,-0.418158
3291,0.064947,-0.016099,9.920482,0.865037,-0.362415,16.769394,-0.099774,-0.554293,-48.881443,0.910377,-0.002794,-0.004043,-0.413750
3292,0.060869,-0.003288,9.916281,0.088362,-0.340989,17.004387,-0.086743,-0.557216,-48.318535,0.912399,-0.002681,-0.004127,-0.409273
3293,0.064157,-0.019086,9.911436,-0.425865,-0.345502,17.712416,-0.096813,-0.559598,-47.739910,0.914454,-0.002749,-0.004124,-0.404661
3294,0.060026,-0.026940,9.914753,-1.120176,-0.365272,18.640179,-0.130229,-0.561903,-47.133980,0.916579,-0.003002,-0.004040,-0.399821
3295,0.049531,-0.029419,9.921920,-1.065258,-0.392658,20.054712,-0.175033,-0.562607,-46.489006,0.918814,-0.003341,-0.003908,-0.394657
3296,0.057682,-0.047989,9.923556,-0.863859,-0.453611,22.014002,-0.217026,-0.563790,-45.787781,0.921210,-0.003659,-0.003796,-0.389029
3297,0.060466,-0.074072,9.930778,-0.667068,-0.502366,23.343084,-0.256516,-0.567349,-45.031712,0.923756,-0.003964,-0.003716,-0.382944
3298,0.060148,-0.065197,9.935933,-0.708323,-0.552649,24.048063,-0.294166,-0.572071,-44.241726,0.926372,-0.004258,-0.003658,-0.376568
3299,0.065026,-0.065723,9.930600,-0.583230,-0.570891,24.154877,-0.328015,-0.577744,-43.438213,0.928988,-0.004525,-0.003625,-0.370064
3300,0.065587,-0.074189,9.933281,-0.912861,-0.572350,23.370554,-0.364834,-0.583761,-42.645992,0.931523,-0.004818,-0.003588,-0.363634
3301,0.052391,-0.074377,9.925692,-0.722148,-0.572270,21.904139,-0.403224,-0.587741,-41.891277,0.933896,-0.005120,-0.003532,-0.357492
3302,0.049416,-0.077161,9.918414,-0.424609,-0.567595,21.028257,-0.431912,-0.589374,-41.175598,0.936109,-0.005337,-0.003489,-0.351653
3303,0.039172,-0.077676,9.922809,-0.110279,-0.575114,20.834469,-0.449234,-0.589205,-40.477745,0.938232,-0.005457,-0.003468,-0.345947
3304,0.042121,-0.075516,9.924062,0.506194,-0.631455,21.602007,-0.449975,-0.589006,-39.770325,0.940350,-0.005441,-0.003498,-0.340148
3305,0.042725,-0.064699,9.921396,1.160832,-0.658807,22.386335,-0.427877,-0.590587,-39.037045,0.942508,-0.005241,-0.003610,-0.334123
3306,0.055643,-0.070047,9.920197,1.353115,-0.612927,22.024693,-0.391556,-0.593787,-38.296738,0.944648,-0.004928,-0.003774,-0.328026
3307,0.053977,-0.059624,9.917372,1.157807,-0.554850,20.794794,-0.355662,-0.597121,-37.582962,0.946675,-0.004617,-0.003933,-0.322134
3308,0.061548,-0.080238,9.911170,0.599309,-0.469311,18.782101,-0.334535,-0.599311,-36.923233,0.948514,-0.004425,-0.004036,-0.316678
3309,0.056340,-0.105914,9.915233,-0.284267,-0.359358,15.861481,-0.343357,-0.598943,-36.345676,0.950098,-0.004477,-0.004032,-0.311894
3310,0.057698,-0.120760,9.918787,-0.713157,-0.295180,13.418475,-0.378222,-0.595494,-35.857468,0.951417,-0.004740,-0.003928,-0.307844
3311,0.045646,-0.108763,9.919866,-0.520992,-0.310340,12.736390,-0.415886,-0.590093,-35.421360,0.952580,-0.005024,-0.003801,-0.304222
3312,0.042521,-0.106390,9.918117,-0.080074,-0.345323,13.287250,-0.439692,-0.583700,-34.987457,0.953725,-0.005191,-0.003705,-0.300614
3313,0.044856,-0.100074,9.916216,0.563811,-0.366575,14.211962,-0.443303,-0.578112,-34.528973,0.954920,-0.005191,-0.003670,-0.296796
3314,0.037276,-0.086739,9.913276,0.913215,-0.389349,15.483058,-0.427753,-0.572656,-34.033913,0.956194,-0.005032,-0.003686,-0.292667
3315,0.041437,-0.083985,9.912983,0.667522,-0.424329,17.346216,-0.409263,-0.567738,-33.486633,0.957582,-0.004847,-0.003715,-0.288096
3316,0.046267,-0.073969,9.917506,0.240249,-0.466950,19.307030,-0.401755,-0.565056,-32.875618,0.959105,-0.004758,-0.003737,-0.282986
3317,0.057463,-0.074993,9.923616,0.136478,-0.511113,20.774973,-0.403098,-0.565526,-32.207470,0.960739,-0.004749,-0.003766,-0.277389
3318,0.058063,-0.079259,9.927855,-0.046646,-0.532398,21.298363,-0.410328,-0.568272,-31.506123,0.962418,-0.004793,-0.003801,-0.271504
3319,0.066940,-0.081289,9.929467,0.049468,-0.535382,21.255638,-0.419698,-0.572327,-30.796751,0.964080,-0.004857,-0.003843,-0.265541
3320,0.064843,-0.085172,9.929076,0.217297,-0.530740,20.642220,-0.424979,-0.577031,-30.098303,0.965680,-0.004889,-0.003900,-0.259661
3321,0.053166,-0.106293,9.919634,0.372899,-0.492514,19.473358,-0.427321,-0.579367,-29.429541,0.967178,-0.004891,-0.003943,-0.254021
3322,0.046893,-0.104428,9.920601,0.133269,-0.464951,18.745495,-0.432916,-0.578491,-28.792374,0.968576,-0.004914,-0.003950,-0.248639
3323,0.041303,-0.091493,9.921554,0.014200,-0.454162,18.173273,-0.442303,-0.575589,-28.176899,0.969897,-0.004966,-0.003932,-0.243433
3324,0.039233,-0.086200,9.918490,-0.220817,-0.447943,18.040518,-0.454935,-0.571544,-27.573195,0.971166,-0.005044,-0.003898,-0.238321
3325,0.037296,-0.077963,9.920124,-0.358159,-0.443247,17.904713,-0.471598,-0.566855,-26.973986,0.972398,-0.005156,-0.003850,-0.233240
3326,0.047145,-0.074145,9.923427,-0.345944,-0.446191,17.852833,-0.488206,-0.563126,-26.377926,0.973598,-0.005269,-0.003812,-0.228179
3327,0.049703,-0.079838,9.917703,-0.150612,-0.446096,17.497292,-0.500798,-0.561026,-25.788656,0.974758,-0.005353,-0.003797,-0.223170
3328,0.051885,-0.077727,9.913881,-0.022422,-0.458215,17.784166,-0.507798,-0.559738,-25.200527,0.975890,-0.005390,-0.003800,-0.218164
3329,0.043968,-0.086256,9.914240,-0.043775,-0.473379,17.987116,-0.513451,-0.558148,-24.604223,0.977012,-0.005416,-0.003804,-0.213083
3330,0.043405,-0.094895,9.911839,0.035569,-0.490062,18.582228,-0.520049,-0.555936,-23.994606,0.978131,-0.005448,-0.003802,-0.207883
3331,0.040792,-0.099233,9.914454,0.163732,-0.529631,19.667162,-0.524747,-0.554047,-23.356960,0.979273,-0.005463,-0.003808,-0.202437
3332,0.034743,-0.094929,9.914092,0.275112,-0.564615,20.987087,-0.525585,-0.552047,-22.679228,0.980453,-0.005444,-0.003822,-0.196641
3333,0.034904,-0.089571,9.914324,0.282738,-0.598069,22.026243,-0.523516,-0.550210,-21.962183,0.981664,-0.005399,-0.003843,-0.190502
3334,0.040357,-0.084005,9.913084,0.410924,-0.607113,22.758692,-0.518164,-0.549610,-21.215622,0.982885,-0.005327,-0.003882,-0.184103
3335,0.040890,-0.065816,9.916547,0.482671,-0.596326,22.644247,-0.506871,-0.549774,-20.458792,0.984080,-0.005205,-0.003936,-0.177607
3336,0.043795,-0.054562,9.920308,0.368282,-0.579440,22.242926,-0.493003,-0.550140,-19.710592,0.985219,-0.005060,-0.003994,-0.171177
3337,0.044952,-0.079775,9.923039,0.203520,-0.561030,22.084230,-0.485902,-0.550596,-18.971710,0.986303,-0.004974,-0.004040,-0.164821
3338,0.042957,-0.095785,9.919065,0.229455,-0.559405,22.351269,-0.486533,-0.550610,-18.230976,0.987347,-0.004953,-0.004072,-0.158442
3339,0.043794,-0.097964,9.921374,0.255372,-0.556253,22.435196,-0.488677,-0.550342,-17.484377,0.988359,-0.004945,-0.004099,-0.152006
3340,0.039634,-0.124935,9.920398,0.160712,-0.551573,22.331434,-0.495406,-0.549499,-16.738071,0.989327,-0.004975,-0.004115,-0.145566
3341,0.037173,-0.143041,9.917503,0.101107,-0.563671,22.751066,-0.509983,-0.547807,-15.986451,0.990260,-0.005072,-0.004115,-0.139074
3342,0.036141,-0.129559,9.917693,0.151368,-0.577291,23.002846,-0.524916,-0.545889,-15.223639,0.991164,-0.005171,-0.004115,-0.132480
3343,0.031622,-0.136135,9.921723,0.132973,-0.568019,22.828894,-0.537848,-0.543270,-14.459540,0.992025,-0.005253,-0.004112,-0.125868
3344,0.025812,-0.126336,9.924367,0.206142,-0.584678,23.018110,-0.548846,-0.539450,-13.695188,0.992842,-0.005317,-0.004103,-0.119248
3345,0.026851,-0.101849,9.928185,0.192370,-0.604385,23.617800,-0.554296,-0.535569,-12.917730,0.993628,-0.005332,-0.004100,-0.112510
3346,0.028220,-0.095548,9.926749,0.187786,-0.604259,23.350763,-0.556010,-0.532363,-12.134759,0.994373,-0.005316,-0.004107,-0.105718
3347,0.026144,-0.089559,9.923444,0.286979,-0.587348,22.519136,-0.554312,-0.529107,-11.370120,0.995057,-0.005271,-0.004115,-0.099080
3348,0.021478,-0.063240,9.921972,0.535743,-0.565854,21.215994,-0.542554,-0.524972,-10.641094,0.995668,-0.005139,-0.004122,-0.092747
3349,0.025514,-0.062162,9.915174,0.781479,-0.535206,19.972366,-0.519104,-0.520683,-9.954549,0.996207,-0.004907,-0.004134,-0.086779
3350,0.021093,-0.066588,9.910043,0.949383,-0.503031,18.737892,-0.489482,-0.516151,-9.309300,0.996681,-0.004623,-0.004143,-0.081167
3351,0.017464,-0.065600,9.911421,1.015038,-0.475430,18.475435,-0.457205,-0.510386,-8.688998,0.997107,-0.004316,-0.004139,-0.075770
3352,0.018493,-0.068099,9.917471,0.616801,-0.473767,18.547153,-0.431845,-0.504363,-8.071870,0.997502,-0.004069,-0.004125,-0.070397
3353,0.028833,-0.079303,9.918046,0.110200,-0.473644,18.760786,-0.424399,-0.500041,-7.449968,0.997870,-0.003979,-0.004114,-0.064983
3354,0.029938,-0.091605,9.920023,-0.516977,-0.482688,19.047661,-0.439396,-0.497349,-6.819697,0.998212,-0.004086,-0.004104,-0.059494
3355,0.035076,-0.088841,9.918422,-0.916799,-0.510051,19.699232,-0.472609,-0.495766,-6.173775,0.998530,-0.004351,-0.004098,-0.053867
3356,0.036555,-0.093109,9.919785,-1.316614,-0.552681,20.123442,-0.518473,-0.495652,-5.509918,0.998824,-0.004727,-0.004103,-0.048083
3357,0.033579,-0.117507,9.917256,-1.179319,-0.581575,20.465248,-0.570627,-0.495893,-4.833259,0.999088,-0.005158,-0.004114,-0.042186
3358,0.029652,-0.143777,9.916041,-0.825374,-0.595205,20.501871,-0.618705,-0.495374,-4.150242,0.999319,-0.005552,-0.004125,-0.036232
3359,0.027753,-0.137060,9.916473,-0.366143,-0.579835,19.963221,-0.653410,-0.493740,-3.475581,0.999514,-0.005830,-0.004134,-0.030349
3360,0.028662,-0.150543,9.916521,-0.128164,-0.546154,18.621937,-0.675291,-0.491259,-2.832257,0.999667,-0.005997,-0.004140,-0.024738
3361,0.029470,-0.159123,9.918845,0.198307,-0.468224,16.224709,-0.688670,-0.487734,-2.251239,0.999779,-0.006092,-0.004137,-0.019670
3362,0.034528,-0.152970,9.919525,0.532412,-0.370462,12.979067,-0.689753,-0.483172,-1.764295,0.999854,-0.006083,-0.004123,-0.015421
3363,0.033067,-0.126344,9.919919,0.773449,-0.295450,9.824984,-0.678502,-0.459390,-1.384050,0.999901,-0.005969,-0.003937,-0.012101
3364,0.033769,-0.115630,9.918943,0.723074,-0.237094,6.693789,-0.658079,-0.418688,-1.108613,0.999930,-0.005778,-0.003598,-0.009695
3365,0.031324,-0.105309,9.920442,0.492700,-0.168092,4.005111,-0.634014,-0.381595,-0.930250,0.999946,-0.005560,-0.003285,-0.008136
3366,0.029007,-0.093024,9.919407,0.172353,-0.128117,1.972582,-0.611342,-0.347800,-0.830640,0.999955,-0.005357,-0.002996,-0.007265
3367,0.028700,-0.080051,9.911177,-0.201335,-0.115646,0.657236,-0.591634,-0.318410,-0.786885,0.999959,-0.005182,-0.002743,-0.006881
3368,0.031905,-0.083674,9.917027,-0.698616,-0.107805,-0.017221,-0.585288,-0.295695,-0.776299,0.999961,-0.005125,-0.002546,-0.006788
3369,0.031650,-0.109389,9.918408,-0.965612,-0.104588,-0.229324,-0.607869,-0.278697,-0.780405,0.999960,-0.005321,-0.002396,-0.006823
3370,0.030174,-0.123501,9.918174,-0.649846,-0.102918,-0.265944,-0.647432,-0.264140,-0.788570,0.999958,-0.005666,-0.002266,-0.006894
3371,0.034226,-0.120870,9.917276,-0.146394,-0.095175,-0.241527,-0.673696,-0.253303,-0.796936,0.999956,-0.005894,-0.002170,-0.006967
3372,0.033365,-0.128851,9.926800,0.335717,-0.082882,-0.252208,-0.680573,-0.245771,-0.805087,0.999955,-0.005954,-0.002103,-0.007038
3373,0.028071,-0.123163,9.922472,1.199324,-0.105675,-0.305614,-0.663329,-0.236986,-0.814309,0.999956,-0.005803,-0.002027,-0.007118
3374,0.028163,-0.087893,9.923115,1.956266,-0.128458,-0.383436,-0.600250,-0.227841,-0.825782,0.999958,-0.005252,-0.001950,-0.007217
3375,0.029094,-0.066535,9.929227,2.035862,-0.151258,-0.470413,-0.502644,-0.221444,-0.840075,0.999962,-0.004400,-0.001900,-0.007339
3376,0.022363,-0.049431,9.930390,1.880507,-0.154208,-0.552813,-0.401160,-0.213971,-0.857209,0.999964,-0.003515,-0.001841,-0.007487
3377,0.024549,-0.044144,9.931623,1.264276,-0.140365,-0.554339,-0.318352,-0.205267,-0.875724,0.999965,-0.002792,-0.001770,-0.007647
3379,0.027912,-0.051596,9.938691,0.258802,-0.099088,-0.490250,-0.278955,-0.199624,-0.893153,0.999965,-0.002448,-0.001723,-0.007798
3380,0.028415,-0.091013,9.942527,-0.457007,-0.057834,-0.403271,-0.300924,-0.195630,-0.907965,0.999964,-0.002639,-0.001686,-0.007928
3381,0.031200,-0.086467,9.935940,-0.440517,-0.030333,-0.348337,-0.352773,-0.192873,-0.920360,0.999962,-0.003092,-0.001658,-0.008037
3382,0.035861,-0.108044,9.933062,-0.431673,-0.031858,-0.304084,-0.406280,-0.193835,-0.931096,0.999959,-0.003559,-0.001663,-0.008131
3383,0.035303,-0.090044,9.929033,0.141818,-0.056289,-0.272039,-0.443056,-0.197363,-0.940578,0.999957,-0.003880,-0.001691,-0.008215
3384,0.035755,-0.084127,9.925051,0.318723,-0.062405,-0.244572,-0.448341,-0.200983,-0.949128,0.999956,-0.003927,-0.001721,-0.008289
3385,0.030849,-0.059951,9.917193,0.279087,-0.071551,-0.233890,-0.433400,-0.202133,-0.957102,0.999956,-0.003797,-0.001732,-0.008359
3386,0.029674,-0.064146,9.919713,0.060990,-0.073041,-0.183535,-0.413967,-0.200135,-0.964089,0.999957,-0.003627,-0.001716,-0.008419
3387,0.031166,-0.042355,9.919569,-0.057877,-0.057749,-0.139283,-0.394545,-0.198115,-0.969520,0.999957,-0.003458,-0.001700,-0.008466
3388,0.025999,-0.049440,9.919009,-0.585661,-0.036340,-0.128602,-0.382064,-0.194041,-0.974054,0.999957,-0.003348,-0.001665,-0.008506
3389,0.024703,-0.030635,9.915567,-0.724311,-0.045429,-0.105714,-0.377717,-0.187161,-0.978038,0.999957,-0.003310,-0.001605,-0.008540
3390,0.031409,-0.045473,9.922472,-0.923993,-0.039288,-0.069092,-0.378497,-0.183834,-0.981031,0.999957,-0.003317,-0.001576,-0.008566
3391,0.033578,-0.061851,9.921103,-1.001726,-0.049972,-0.053832,-0.399215,-0.185692,-0.983107,0.999956,-0.003498,-0.001591,-0.008585
3392,0.032081,-0.083177,9.921126,-0.901054,-0.072867,-0.050781,-0.435908,-0.188557,-0.984819,0.999954,-0.003818,-0.001613,-0.008600
3393,0.031255,-0.095972,9.924516,-0.484609,-0.088121,-0.030944,-0.475604,-0.190538,-0.986105,0.999953,-0.004165,-0.001627,-0.008612
3394,0.030957,-0.140971,9.931243,-0.524587,-0.072848,-0.035520,-0.530401,-0.191557,-0.987064,0.999951,-0.004643,-0.001632,-0.008621
3395,0.029832,-0.135537,9.929041,-0.346447,-0.065197,-0.050777,-0.594022,-0.191257,-0.988319,0.999948,-0.005198,-0.001624,-0.008633
3396,0.026363,-0.134798,9.927771,-0.302485,-0.060581,-0.061458,-0.641128,-0.188494,-0.990049,0.999946,-0.005609,-0.001596,-0.008649
3397,0.025921,-0.142221,9.932600,-0.397334,-0.037640,-0.062983,-0.683043,-0.183646,-0.992008,0.999943,-0.005974,-0.001551,-0.008666
3398,0.032214,-0.122481,9.925559,-0.547011,-0.019305,-0.069085,-0.715705,-0.181564,-0.994145,0.999942,-0.006259,-0.001530,-0.008685
3399,0.031815,-0.105767,9.920090,-0.264660,-0.016256,-0.073663,-0.722484,-0.182560,-0.996538,0.999941,-0.006318,-0.001538,-0.008706
3400,0.028991,-0.107580,9.918114,-0.127189,-0.020825,-0.066035,-0.711851,-0.182130,-0.998913,0.999941,-0.006226,-0.001535,-0.008727
3401,0.028413,-0.112918,9.921972,-0.088935,-0.008595,-0.064509,-0.702042,-0.179884,-1.001125,0.999942,-0.006140,-0.001516,-0.008746
3402,0.029731,-0.104340,9.913421,-0.030843,-0.020785,-0.064509,-0.690795,-0.178223,-1.003310,0.999942,-0.006042,-0.001502,-0.008765
3403,0.027389,-0.117356,9.922566,-0.052132,-0.019241,-0.078242,-0.682821,-0.176573,-1.005710,0.999942,-0.005972,-0.001489,-0.008785
3404,0.032218,-0.118553,9.921331,-0.070436,-0.025337,-0.084346,-0.683906,-0.176464,-1.008414,0.999942,-0.005981,-0.001487,-0.008809
3405,0.033253,-0.119783,9.925691,-0.090278,-0.025353,-0.091976,-0.687350,-0.179423,-1.011340,0.999942,-0.006012,-0.001513,-0.008835
3406,0.032133,-0.120305,9.920610,-0.091815,-0.034524,-0.104183,-0.691619,-0.182262,-1.014593,0.999941,-0.006049,-0.001537,-0.008863
3407,0.030303,-0.121017,9.923593,-0.090298,-0.037575,-0.102657,-0.695851,-0.183408,-1.018022,0.999941,-0.006086,-0.001546,-0.008893
3408,0.028787,-0.122569,9.922122,-0.065896,-0.049766,-0.085872,-0.700024,-0.182859,-1.021141,0.999940,-0.006123,-0.001541,-0.008921
3409,0.024439,-0.122520,9.924453,-0.055227,-0.051252,-0.076716,-0.703631,-0.179662,-1.023825,0.999940,-0.006154,-0.001513,-0.008944
3410,0.022388,-0.119895,9.922723,-0.052174,-0.061873,-0.079767,-0.705072,-0.173898,-1.026411,0.999940,-0.006166,-0.001462,-0.008966
3411,0.025928,-0.118760,9.925556,-0.059783,-0.061823,-0.069085,-0.704354,-0.169770,-1.028875,0.999940,-0.006160,-0.001426,-0.008987
3412,0.026517,-0.119091,9.926652,-0.055180,-0.054166,-0.062981,-0.703217,-0.168316,-1.031061,0.999940,-0.006150,-0.001414,-0.009006
3413,0.026248,-0.122607,9.923763,-0.071957,-0.052618,-0.066033,-0.704298,-0.167330,-1.033192,0.999939,-0.006159,-0.001405,-0.009025
3414,0.028984,-0.120580,9.923206,-0.068904,-0.054132,-0.069084,-0.706349,-0.167739,-1.035423,0.999939,-0.006177,-0.001408,-0.009044
3415,0.031634,-0.121808,9.923498,-0.058214,-0.051090,-0.062981,-0.707527,-0.170761,-1.037605,0.999939,-0.006188,-0.001434,-0.009064
3416,0.028250,-0.119547,9.923190,-0.047518,-0.051095,-0.050773,-0.707584,-0.173090,-1.039485,0.999939,-0.006188,-0.001454,-0.009080
3417,0.029521,-0.116032,9.923084,-0.044431,-0.052614,-0.062981,-0.704531,-0.173983,-1.041373,0.999939,-0.006162,-0.001462,-0.009097
3418,0.032852,-0.115494,9.924348,-0.024543,-0.058727,-0.056877,-0.699389,-0.176948,-1.043367,0.999939,-0.006117,-0.001488,-0.009114
3419,0.031394,-0.114472,9.924681,-0.019915,-0.054162,-0.059929,-0.693761,-0.180515,-1.045310,0.999939,-0.006068,-0.001520,-0.009131
3420,0.031481,-0.118558,9.922643,-0.022934,-0.045010,-0.052301,-0.690488,-0.182651,-1.047173,0.999939,-0.006040,-0.001539,-0.009148
3421,0.033635,-0.119093,9.923407,-0.021400,-0.046545,-0.072138,-0.690211,-0.185268,-1.049232,0.999939,-0.006038,-0.001562,-0.009166
3422,0.033508,-0.127704,9.924026,-0.019904,-0.058766,-0.082819,-0.694569,-0.188696,-1.051781,0.999938,-0.006076,-0.001591,-0.009188
3423,0.032323,-0.129235,9.924611,-0.032178,-0.054192,-0.096552,-0.703637,-0.191120,-1.054721,0.999937,-0.006155,-0.001611,-0.009214
3424,0.033590,-0.133521,9.924042,-0.036834,-0.064873,-0.102655,-0.714665,-0.193203,-1.057983,0.999936,-0.006252,-0.001628,-0.009243
3425,0.031610,-0.127634,9.922546,-0.036893,-0.066394,-0.117914,-0.723338,-0.194778,-1.061607,0.999936,-0.006328,-0.001641,-0.009275
3426,0.029110,-0.119194,9.921397,-0.036885,-0.064843,-0.105707,-0.723494,-0.193898,-1.065310,0.999935,-0.006329,-0.001633,-0.009307
3427,0.030730,-0.114742,9.921055,-0.032244,-0.061763,-0.095025,-0.716644,-0.192456,-1.068655,0.999936,-0.006269,-0.001621,-0.009336
3428,0.031186,-0.112296,9.920214,-0.023002,-0.063270,-0.095025,-0.706807,-0.192180,-1.071833,0.999936,-0.006183,-0.001619,-0.009364
3429,0.029890,-0.110366,9.916692,-0.018333,-0.055619,-0.093499,-0.696047,-0.191546,-1.074988,0.999936,-0.006090,-0.001614,-0.009391
3430,0.032466,-0.115547,9.917714,-0.030475,-0.061707,-0.087396,-0.688708,-0.191580,-1.078006,0.999936,-0.006026,-0.001615,-0.009417
3431,0.039994,-0.117357,9.921229,-0.025871,-0.060205,-0.095026,-0.686341,-0.196596,-1.081033,0.999936,-0.006005,-0.001659,-0.009444
3432,0.035332,-0.114678,9.917644,-0.027373,-0.052606,-0.093500,-0.684313,-0.202420,-1.084162,0.999936,-0.005988,-0.001710,-0.009471
3433,0.031437,-0.111024,9.918167,-0.024277,-0.046493,-0.095027,-0.679594,-0.202999,-1.087304,0.999936,-0.005947,-0.001715,-0.009499
3434,0.034141,-0.106035,9.925435,-0.028780,-0.035794,-0.091975,-0.671260,-0.202178,-1.090437,0.999936,-0.005874,-0.001708,-0.009526
3435,0.026740,-0.101047,9.926735,-0.019522,-0.037285,-0.082819,-0.659091,-0.198948,-1.093381,0.999936,-0.005768,-0.001681,-0.009551
3436,0.019899,-0.106663,9.924455,-0.010278,-0.029567,-0.085870,-0.648630,-0.189101,-1.096216,0.999937,-0.005676,-0.001596,-0.009575
3437,0.025266,-0.111749,9.931553,-0.008721,-0.020326,-0.081291,-0.644996,-0.179345,-1.099005,0.999937,-0.005643,-0.001511,-0.009599
3438,0.025432,-0.112809,9.929269,-0.031612,-0.024853,-0.081291,-0.645823,-0.173800,-1.101705,0.999937,-0.005650,-0.001462,-0.009622
3439,0.022190,-0.116162,9.924518,-0.022476,-0.029379,-0.073660,-0.649275,-0.168207,-1.104270,0.999936,-0.005680,-0.001413,-0.009645
3440,0.031139,-0.119845,9.922641,-0.014892,-0.009519,-0.079764,-0.655513,-0.166041,-1.106803,0.999936,-0.005734,-0.001394,-0.009667
3441,0.033916,-0.120611,9.921969,-0.036310,-0.014125,-0.081290,-0.663329,-0.169915,-1.109462,0.999935,-0.005803,-0.001427,-0.009690
3442,0.027857,-0.121792,9.919332,-0.031788,-0.030923,-0.084342,-0.671211,-0.172429,-1.112193,0.999935,-0.005872,-0.001448,-0.009714
3443,0.031199,-0.128253,9.918323,-0.022704,-0.027871,-0.075185,-0.681258,-0.173337,-1.114813,0.999934,-0.005959,-0.001455,-0.009737
3444,0.034044,-0.130379,9.922717,-0.009065,-0.035521,-0.081289,-0.693544,-0.177009,-1.117372,0.999933,-0.006067,-0.001486,-0.009760
3445,0.028184,-0.127896,9.927787,-0.001513,-0.050786,-0.084341,-0.703384,-0.179219,-1.120085,0.999932,-0.006153,-0.001504,-0.009784
3446,0.025915,-0.125863,9.925090,0.018279,-0.056861,-0.072133,-0.708738,-0.177379,-1.122654,0.999932,-0.006200,-0.001487,-0.009806
3447,0.031841,-0.114910,9.927462,0.022872,-0.053793,-0.066030,-0.706178,-0.177314,-1.124939,0.999932,-0.006177,-0.001487,-0.009826
3448,0.028017,-0.115335,9.927032,0.025982,-0.058365,-0.069082,-0.698181,-0.178440,-1.127190,0.999932,-0.006108,-0.001497,-0.009846
3449,0.025701,-0.107501,9.921910,0.013852,-0.059861,-0.062977,-0.687681,-0.176633,-1.129397,0.999932,-0.006016,-0.001482,-0.009865
3450,0.032895,-0.105862,9.920109,0.012428,-0.061376,-0.062978,-0.674429,-0.177287,-1.131511,0.999933,-0.005900,-0.001489,-0.009883
3451,0.033271,-0.104880,9.926500,0.020155,-0.065971,-0.078237,-0.661765,-0.181778,-1.133878,0.999933,-0.005790,-0.001529,-0.009904
3452,0.028893,-0.112678,9.921740,0.026313,-0.062920,-0.085867,-0.654300,-0.183941,-1.136609,0.999933,-0.005725,-0.001548,-0.009928
3453,0.033781,-0.109914,9.920858,0.029384,-0.064443,-0.079763,-0.650809,-0.185779,-1.139353,0.999933,-0.005695,-0.001565,-0.009952
3454,0.032561,-0.111083,9.923491,0.012618,-0.061401,-0.085868,-0.647682,-0.189020,-1.142097,0.999933,-0.005668,-0.001593,-0.009976
3455,0.029201,-0.123282,9.918999,0.006478,-0.059862,-0.075185,-0.651933,-0.189559,-1.144744,0.999932,-0.005705,-0.001597,-0.009999
3456,0.036069,-0.121088,9.914298,-0.001226,-0.058336,-0.075185,-0.661189,-0.191433,-1.147196,0.999932,-0.005786,-0.001613,-0.010020
3457,0.037706,-0.120112,9.916253,0.000246,-0.062944,-0.066030,-0.667913,-0.197256,-1.149504,0.999931,-0.005846,-0.001663,-0.010041
3458,0.036136,-0.120945,9.917913,-0.005900,-0.059917,-0.069082,-0.673294,-0.202488,-1.151713,0.999931,-0.005893,-0.001708,-0.010061
3459,0.040338,-0.126128,9.914145,0.001672,-0.043160,-0.066031,-0.680551,-0.207740,-1.153919,0.999930,-0.005957,-0.001753,-0.010080
3460,0.034572,-0.117274,9.914623,-0.009044,-0.052330,-0.090445,-0.685058,-0.211250,-1.156492,0.999929,-0.005997,-0.001783,-0.010103
3461,0.022412,-0.124588,9.917192,-0.016695,-0.040063,-0.079763,-0.688130,-0.205345,-1.159301,0.999929,-0.006023,-0.001731,-0.010127
3462,0.024443,-0.123621,9.916744,-0.042677,-0.030810,-0.079762,-0.694175,-0.194399,-1.161928,0.999929,-0.006075,-0.001635,-0.010150
3463,0.027063,-0.120558,9.914856,-0.033540,-0.030742,-0.081287,-0.697815,-0.186945,-1.164592,0.999928,-0.006106,-0.001569,-0.010173
3464,0.027385,-0.127989,9.916446,-0.024415,-0.052060,-0.076708,-0.702449,-0.182794,-1.167196,0.999928,-0.006146,-0.001533,-0.010195
3465,0.035921,-0.134543,9.921315,-0.012284,-0.041377,-0.064501,-0.712731,-0.184039,-1.169499,0.999927,-0.006236,-0.001542,-0.010215
3466,0.044211,-0.130927,9.916276,-0.010837,-0.049070,-0.062975,-0.722960,-0.193574,-1.171572,0.999926,-0.006326,-0.001625,-0.010234
3467,0.045975,-0.138968,9.926810,-0.006342,-0.052217,-0.069080,-0.733472,-0.207219,-1.173716,0.999925,-0.006419,-0.001743,-0.010254
3468,0.043596,-0.135843,9.930857,-0.007954,-0.043139,-0.078236,-0.744477,-0.218510,-1.176111,0.999924,-0.006516,-0.001840,-0.010275
3469,0.042623,-0.126665,9.931179,-0.015607,-0.026401,-0.079763,-0.747899,-0.225674,-1.178717,0.999924,-0.006546,-0.001902,-0.010299
3470,0.035132,-0.119613,9.928255,-0.017085,-0.024878,-0.087392,-0.742483,-0.226934,-1.181515,0.999924,-0.006499,-0.001913,-0.010323
3471,0.031371,-0.124344,9.927716,-0.018557,-0.029410,-0.091970,-0.736187,-0.222140,-1.184519,0.999924,-0.006444,-0.001872,-0.010349
3472,0.025361,-0.118498,9.914459,-0.003246,-0.038485,-0.090443,-0.730179,-0.213187,-1.187569,0.999924,-0.006391,-0.001794,-0.010375
3473,0.026359,-0.119076,9.912310,-0.015391,-0.047550,-0.073658,-0.722702,-0.203287,-1.190314,0.999925,-0.006325,-0.001708,-0.010398
3474,0.022534,-0.121927,9.914416,-0.015351,-0.068823,-0.079760,-0.718202,-0.194099,-1.192864,0.999925,-0.006285,-0.001628,-0.010420
3475,0.026617,-0.118849,9.910748,-0.004637,-0.076378,-0.066026,-0.714422,-0.187107,-1.195276,0.999925,-0.006251,-0.001568,-0.010441
3476,0.026828,-0.118368,9.912316,-0.003070,-0.073278,-0.062973,-0.709426,-0.183605,-1.197412,0.999925,-0.006207,-0.001537,-0.010459
3477,0.023768,-0.119205,9.917685,-0.009139,-0.057966,-0.064499,-0.705369,-0.179289,-1.199522,0.999925,-0.006171,-0.001500,-0.010477
3478,0.025535,-0.127883,9.920026,0.012215,-0.048758,-0.058394,-0.706346,-0.174583,-1.201545,0.999925,-0.006180,-0.001459,-0.010494
3479,0.029861,-0.125726,9.917088,0.016757,-0.041107,-0.055342,-0.710291,-0.173280,-1.203409,0.999924,-0.006214,-0.001447,-0.010511
3480,0.030502,-0.130473,9.918918,-0.004648,-0.038055,-0.076704,-0.715360,-0.174695,-1.205577,0.999924,-0.006258,-0.001459,-0.010530
3482,0.029081,-0.129006,9.916238,-0.006223,-0.033475,-0.064497,-0.721644,-0.175601,-1.207896,0.999923,-0.006313,-0.001466,-0.010550
3483,0.034703,-0.130280,9.918391,-0.004738,-0.048746,-0.066023,-0.726895,-0.178513,-1.210039,0.999923,-0.006359,-0.001491,-0.010569
3484,0.030299,-0.124657,9.919022,-0.006280,-0.060968,-0.087386,-0.729073,-0.182152,-1.212566,0.999922,-0.006379,-0.001522,-0.010591
3485,0.028949,-0.126517,9.923099,-0.007802,-0.053326,-0.082808,-0.728843,-0.182549,-1.215379,0.999922,-0.006377,-0.001525,-0.010616
3486,0.026475,-0.123059,9.925094,-0.000161,-0.050244,-0.066022,-0.727544,-0.180578,-1.217842,0.999922,-0.006365,-0.001508,-0.010637
3487,0.029837,-0.117507,9.927672,0.005989,-0.047167,-0.076703,-0.721782,-0.179055,-1.220218,0.999922,-0.006315,-0.001495,-0.010658
3488,0.030496,-0.113998,9.928399,0.010641,-0.033426,-0.069073,-0.712052,-0.179473,-1.222660,0.999923,-0.006230,-0.001500,-0.010679
3489,0.030013,-0.111463,9.926095,-0.004529,-0.025790,-0.073652,-0.700890,-0.179712,-1.225061,0.999923,-0.006133,-0.001503,-0.010700
3490,0.029070,-0.110680,9.924148,-0.004442,-0.039511,-0.084334,-0.690148,-0.179322,-1.227715,0.999923,-0.006039,-0.001500,-0.010723
3491,0.032177,-0.113159,9.927343,0.004779,-0.036456,-0.084334,-0.681883,-0.180162,-1.230536,0.999923,-0.005967,-0.001508,-0.010747
3492,0.030309,-0.116802,9.927438,0.001758,-0.047138,-0.076704,-0.678026,-0.181681,-1.233215,0.999923,-0.005934,-0.001522,-0.010771
3493,0.024560,-0.113561,9.923832,-0.002800,-0.054738,-0.088912,-0.675518,-0.179649,-1.235963,0.999923,-0.005912,-0.001504,-0.010795
3494,0.028872,-0.113477,9.924030,0.007911,-0.059280,-0.082808,-0.671858,-0.177178,-1.238814,0.999923,-0.005879,-0.001483,-0.010819
3495,0.028119,-0.114053,9.927031,0.009459,-0.047054,-0.073651,-0.668727,-0.176659,-1.241409,0.999923,-0.005852,-0.001478,-0.010842
3496,0.027113,-0.115032,9.922797,0.004893,-0.047030,-0.078229,-0.666967,-0.175339,-1.243926,0.999923,-0.005837,-0.001467,-0.010864
3497,0.033595,-0.118034,9.925211,0.004887,-0.043977,-0.084333,-0.667616,-0.176759,-1.246616,0.999923,-0.005842,-0.001479,-0.010887
3498,0.039422,-0.118999,9.920981,0.006389,-0.044024,-0.072126,-0.670251,-0.184046,-1.249197,0.999922,-0.005866,-0.001542,-0.010910
3499,0.035798,-0.119864,9.923810,0.004836,-0.041022,-0.072126,-0.673502,-0.191618,-1.251573,0.999922,-0.005895,-0.001608,-0.010931
3500,0.037771,-0.117079,9.917091,0.012449,-0.051735,-0.066023,-0.675260,-0.197291,-1.253850,0.999921,-0.005911,-0.001657,-0.010952
3501,0.035798,-0.114316,9.918254,0.017035,-0.054811,-0.070602,-0.673759,-0.202100,-1.256110,0.999921,-0.005899,-0.001699,-0.010972
3502,0.029898,-0.113606,9.919351,0.023161,-0.039538,-0.075179,-0.670373,-0.202041,-1.258530,0.999921,-0.005869,-0.001699,-0.010993
3503,0.031721,-0.117398,9.921441,0.020116,-0.037981,-0.081282,-0.668808,-0.199339,-1.261126,0.999921,-0.005855,-0.001675,-0.011015
3504,0.031791,-0.121996,9.912536,0.012456,-0.044061,-0.084334,-0.671912,-0.197867,-1.263857,0.999920,-0.005882,-0.001662,-0.011039
3505,0.032113,-0.119544,9.912777,0.010894,-0.025731,-0.090437,-0.676123,-0.196742,-1.266740,0.999920,-0.005919,-0.001652,-0.011064
3506,0.033071,-0.121722,9.914968,-0.001344,-0.028771,-0.085859,-0.679809,-0.196192,-1.269655,0.999919,-0.005951,-0.001646,-0.011090
3507,0.032904,-0.119275,9.915923,0.001684,-0.040972,-0.078229,-0.682843,-0.196409,-1.272365,0.999919,-0.005978,-0.001648,-0.011113
3508,0.027447,-0.121834,9.914384,-0.002915,-0.036364,-0.076703,-0.685401,-0.194072,-1.274923,0.999919,-0.006000,-0.001627,-0.011135
3509,0.030868,-0.121510,9.918060,0.007742,-0.028699,-0.081280,-0.688455,-0.190724,-1.277532,0.999918,-0.006026,-0.001597,-0.011158
3510,0.026685,-0.131363,9.918489,0.003106,-0.031716,-0.084331,-0.695503,-0.187401,-1.280257,0.999918,-0.006087,-0.001567,-0.011182
3511,0.026463,-0.130683,9.916556,0.001493,-0.019460,-0.088909,-0.706239,-0.182364,-1.283099,0.999917,-0.006180,-0.001522,-0.011206
3512,0.028817,-0.132640,9.913109,-0.007743,-0.014850,-0.101115,-0.716321,-0.178780,-1.286227,0.999916,-0.006268,-0.001490,-0.011234
3513,0.032272,-0.132796,9.914739,-0.013920,-0.016370,-0.110271,-0.725954,-0.178668,-1.289714,0.999915,-0.006352,-0.001488,-0.011264
3514,0.029668,-0.122805,9.919368,-0.016995,-0.010267,-0.090433,-0.729324,-0.179186,-1.293045,0.999915,-0.006382,-0.001492,-0.011293
3515,0.034443,-0.121086,9.919088,-0.026120,-0.010275,-0.099589,-0.726152,-0.180605,-1.296219,0.999915,-0.006354,-0.001504,-0.011321
3516,0.037359,-0.124517,9.919752,-0.019991,-0.011838,-0.085857,-0.723834,-0.185589,-1.299315,0.999914,-0.006335,-0.001548,-0.011348
3517,0.036686,-0.120102,9.920573,-0.021492,-0.013405,-0.072123,-0.721415,-0.191162,-1.301952,0.999914,-0.006314,-0.001597,-0.011372
3518,0.032948,-0.118197,9.920259,-0.016868,-0.022577,-0.061443,-0.716296,-0.193905,-1.304190,0.999914,-0.006270,-0.001621,-0.011391
3519,0.033576,-0.128198,9.919692,-0.012281,-0.030206,-0.072124,-0.715554,-0.194741,-1.306409,0.999914,-0.006263,-0.001628,-0.011411
3520,0.033369,-0.126772,9.924505,-0.012308,-0.031731,-0.066020,-0.719323,-0.195627,-1.308687,0.999914,-0.006296,-0.001635,-0.011431
3521,0.034634,-0.123948,9.925486,-0.016893,-0.031732,-0.067547,-0.720838,-0.196893,-1.310896,0.999913,-0.006310,-0.001646,-0.011450
3522,0.034000,-0.124117,9.919569,-0.016888,-0.030209,-0.076702,-0.720740,-0.198269,-1.313289,0.999913,-0.006309,-0.001658,-0.011471
3523,0.035722,-0.125262,9.917555,-0.004680,-0.018007,-0.087383,-0.720999,-0.199737,-1.316014,0.999913,-0.006311,-0.001671,-0.011495
3524,0.034914,-0.125639,9.915733,0.005995,-0.025642,-0.090434,-0.721619,-0.201342,-1.318966,0.999912,-0.006317,-0.001684,-0.011521
3525,0.032911,-0.125579,9.913166,0.012093,-0.027162,-0.087383,-0.722065,-0.201496,-1.321916,0.999912,-0.006321,-0.001686,-0.011546
3526,0.029136,-0.127529,9.910812,0.021237,-0.031711,-0.084331,-0.723110,-0.198829,-1.324759,0.999912,-0.006330,-0.001662,-0.011571
3527,0.030141,-0.130017,9.918549,0.022733,-0.028620,-0.076700,-0.725956,-0.195052,-1.327418,0.999911,-0.006354,-0.001629,-0.011594
3528,0.031855,-0.126014,9.920499,0.024239,-0.039278,-0.072122,-0.727641,-0.193230,-1.329875,0.999911,-0.006369,-0.001612,-0.011616
3529,0.031909,-0.122282,9.921454,0.005943,-0.025531,-0.062967,-0.725488,-0.192667,-1.332119,0.999911,-0.006350,-0.001608,-0.011635
3530,0.033875,-0.127122,9.922948,0.009003,-0.027053,-0.058389,-0.724147,-0.193064,-1.334133,0.999911,-0.006339,-0.001611,-0.011653
3531,0.031408,-0.125517,9.926273,0.027308,-0.020943,-0.072122,-0.724267,-0.193151,-1.336296,0.999911,-0.006340,-0.001612,-0.011672
3532,0.035325,-0.129065,9.924063,0.048657,-0.030098,-0.085856,-0.724755,-0.193951,-1.338912,0.999910,-0.006344,-0.001618,-0.011694
3533,0.030923,-0.135060,9.927732,0.069970,-0.027043,-0.073648,-0.729061,-0.194543,-1.341537,0.999910,-0.006382,-0.001623,-0.011717
3534,0.028274,-0.138861,9.923838,0.083618,-0.034642,-0.078225,-0.737099,-0.191702,-1.344019,0.999909,-0.006452,-0.001597,-0.011739
3535,0.027530,-0.136320,9.923096,0.048440,-0.033073,-0.081276,-0.745103,-0.187525,-1.346629,0.999908,-0.006521,-0.001560,-0.011762
3536,0.028931,-0.135872,9.916733,0.019388,-0.048297,-0.073647,-0.751451,-0.184486,-1.349169,0.999908,-0.006576,-0.001533,-0.011784
3537,0.025086,-0.134438,9.915937,-0.029485,-0.045205,-0.073646,-0.757043,-0.181082,-1.351586,0.999907,-0.006625,-0.001502,-0.011805
3538,0.028382,-0.125793,9.911518,-0.037112,-0.051271,-0.084326,-0.757761,-0.178010,-1.354198,0.999907,-0.006631,-0.001475,-0.011827
3539,0.031199,-0.115943,9.914439,-0.035507,-0.048210,-0.091957,-0.749157,-0.178477,-1.357145,0.999907,-0.006556,-0.001480,-0.011853
3540,0.029054,-0.108419,9.914503,-0.061308,-0.054308,-0.093482,-0.733229,-0.179533,-1.360268,0.999908,-0.006417,-0.001491,-0.011880
3541,0.028489,-0.106192,9.918344,-0.128287,-0.043609,-0.087379,-0.716177,-0.179074,-1.363324,0.999908,-0.006268,-0.001488,-0.011906
3542,0.027847,-0.098901,9.914097,-0.273074,-0.042061,-0.062963,-0.700822,-0.177773,-1.365880,0.999909,-0.006134,-0.001478,-0.011929
3543,0.029066,-0.095940,9.918209,-0.405635,-0.031361,-0.032446,-0.687859,-0.176681,-1.367530,0.999910,-0.006021,-0.001470,-0.011943
3544,0.026338,-0.088782,9.917420,-0.408473,-0.022182,0.008754,-0.674630,-0.174711,-1.367997,0.999910,-0.005905,-0.001454,-0.011946
3545,0.028769,-0.102218,9.920026,-0.396092,-0.016056,0.036220,-0.666440,-0.172583,-1.367305,0.999911,-0.005833,-0.001437,-0.011940
3546,0.026188,-0.105530,9.919384,-0.128962,-0.017562,-0.000403,-0.663429,-0.170646,-1.366737,0.999911,-0.005807,-0.001420,-0.011935
3547,0.025369,-0.112490,9.924929,0.341071,-0.023636,-0.055335,-0.653977,-0.167549,-1.367676,0.999911,-0.005724,-0.001394,-0.011943
3548,0.025667,-0.117483,9.925790,0.687449,-0.044970,-0.119424,-0.637667,-0.165092,-1.370572,0.999912,-0.005581,-0.001374,-0.011968
3549,0.028033,-0.127884,9.929955,0.821648,-0.061740,-0.207927,-0.622861,-0.165034,-1.375977,0.999912,-0.005452,-0.001375,-0.012015
3550,0.027150,-0.119557,9.924737,0.992441,-0.061732,-0.310164,-0.606559,-0.166213,-1.384549,0.999912,-0.005310,-0.001386,-0.012090
3551,0.028496,-0.104172,9.924364,0.935939,-0.073933,-0.380356,-0.579564,-0.167758,-1.396019,0.999912,-0.005075,-0.001402,-0.012189
3552,0.029473,-0.095435,9.922795,0.430881,-0.081562,-0.462756,-0.553935,-0.170547,-1.410052,0.999911,-0.004852,-0.001429,-0.012312
3553,0.026390,-0.101694,9.918175,-0.119982,-0.067819,-0.577200,-0.549117,-0.171897,-1.427359,0.999910,-0.004810,-0.001440,-0.012463
3554,0.028074,-0.116345,9.915467,-0.448160,-0.057120,-0.777096,-0.571574,-0.171885,-1.449870,0.999906,-0.005006,-0.001437,-0.012659
3555,0.027486,-0.109599,9.916405,-0.693958,-0.070837,-1.088385,-0.605915,-0.172441,-1.480893,0.999901,-0.005307,-0.001436,-0.012931
3556,0.036334,-0.138318,9.912776,-1.280083,-0.006765,-2.859983,-0.659879,-0.176499,-1.546617,0.999891,-0.005779,-0.001462,-0.013505
3557,0.040471,-0.150811,9.912398,-1.313818,0.165630,-7.720056,-0.723098,-0.180303,-1.722903,0.999866,-0.006333,-0.001478,-0.015044
3558,0.040977,-0.138908,9.915633,-0.853036,0.281582,-10.955018,-0.764308,-0.179231,-2.034204,0.999819,-0.006697,-0.001445,-0.017761
3559,0.041851,-0.107236,9.915455,-0.672967,0.397532,-14.525684,-0.787068,-0.176119,-2.458996,0.999745,-0.006900,-0.001389,-0.021467
3560,0.042016,-0.147133,9.918202,-0.708049,0.527214,-18.201639,-0.806728,-0.170964,-3.004610,0.999630,-0.007077,-0.001307,-0.026227
3561,0.038205,-0.137970,9.924257,-0.099214,0.557713,-19.069891,-0.819462,-0.164125,-3.625977,0.999472,-0.007193,-0.001205,-0.031647
3562,0.036207,-0.125659,9.926121,0.474551,0.464616,-16.031771,-0.809391,-0.157339,-4.211178,0.999299,-0.007109,-0.001113,-0.036750
3563,0.036804,-0.137553,9.921218,0.488302,0.417296,-14.673697,-0.789687,-0.151836,-4.723086,0.999126,-0.006940,-0.001040,-0.041213
3564,0.035533,-0.171121,9.917418,0.607294,0.354714,-13.242380,-0.774039,-0.147583,-5.188469,0.998951,-0.006806,-0.000981,-0.045270
3565,0.035394,-0.141812,9.914936,0.900231,0.282978,-11.455522,-0.752950,-0.144744,-5.600188,0.998783,-0.006625,-0.000941,-0.048859
3566,0.034887,-0.132851,9.916352,0.576725,0.279907,-12.097937,-0.728598,-0.142791,-5.992828,0.998611,-0.006415,-0.000912,-0.052280
3567,0.033051,-0.132520,9.918729,0.121991,0.318038,-13.849699,-0.716955,-0.140476,-6.425375,0.998408,-0.006315,-0.000873,-0.056049
3568,0.032839,-0.126238,9.918951,-0.013824,0.325651,-14.777464,-0.715017,-0.137755,-6.902582,0.998166,-0.006301,-0.000824,-0.060206
3569,0.034954,-0.111959,9.924740,-0.018393,0.337839,-15.374100,-0.713179,-0.135323,-7.405202,0.997892,-0.006287,-0.000777,-0.064584
3570,0.034369,-0.100650,9.929403,-0.065662,0.379018,-16.297285,-0.709155,-0.132570,-7.933168,0.997584,-0.006254,-0.000726,-0.069180
3571,0.031771,-0.119559,9.928556,0.190718,0.400362,-16.585684,-0.702662,-0.128702,-8.481330,0.997242,-0.006198,-0.000667,-0.073951
3572,0.034393,-0.122681,9.924273,0.732424,0.385083,-16.672661,-0.685767,-0.124837,-9.035744,0.996874,-0.006052,-0.000615,-0.078775
3573,0.036626,-0.109035,9.922234,1.127647,0.409471,-17.633995,-0.652481,-0.121512,-9.607625,0.996470,-0.005763,-0.000580,-0.083749
3574,0.030455,-0.102421,9.919696,1.240585,0.424708,-18.334396,-0.609323,-0.117132,-10.207208,0.996020,-0.005387,-0.000545,-0.088961
3575,0.034721,-0.089312,9.918538,1.658714,0.395692,-18.564810,-0.556555,-0.112584,-10.822293,0.995531,-0.004928,-0.000520,-0.094306
3576,0.040225,-0.033720,9.914532,1.962449,0.354458,-18.073465,-0.485534,-0.109851,-11.433025,0.995017,-0.004311,-0.000532,-0.099610
3577,0.039393,-0.029174,9.918000,1.562769,0.326952,-17.630947,-0.411508,-0.108072,-12.028187,0.994489,-0.003670,-0.000562,-0.104776
3578,0.043094,-0.034182,9.924105,1.083717,0.317753,-17.513451,-0.355237,-0.106648,-12.613996,0.993942,-0.003183,-0.000584,-0.109858
3579,0.050779,-0.025778,9.923260,0.842692,0.328380,-18.456472,-0.313254,-0.106220,-13.213551,0.993355,-0.002822,-0.000606,-0.115057
3580,0.049874,-0.027439,9.921079,0.236959,0.375622,-19.683317,-0.286559,-0.105502,-13.849270,0.992702,-0.002593,-0.000612,-0.120566
3581,0.046821,-0.060644,9.924355,-0.364240,0.424395,-21.332846,-0.285539,-0.102835,-14.532911,0.991965,-0.002585,-0.000575,-0.126486
3582,0.043684,-0.043702,9.925824,-0.365771,0.468594,-23.038828,-0.297041,-0.098300,-15.272477,0.991128,-0.002683,-0.000506,-0.132885
3583,0.037787,-0.036694,9.928954,-0.492403,0.482282,-24.099346,-0.307569,-0.092195,-16.058149,0.990193,-0.002770,-0.000422,-0.139677
3585,0.036041,-0.029297,9.926375,-1.027966,0.535650,-25.582546,-0.326970,-0.084726,-16.886225,0.989157,-0.002931,-0.000312,-0.146829
3586,0.034519,-0.043965,9.929996,-1.192731,0.573761,-26.804815,-0.358344,-0.076281,-17.759399,0.988009,-0.003192,-0.000175,-0.154362
3587,0.034388,-0.051186,9.929528,-1.037064,0.573721,-26.688841,-0.391546,-0.067934,-18.651011,0.986777,-0.003468,-0.000031,-0.162044
3588,0.038744,-0.086147,9.927641,-1.253752,0.588934,-26.971136,-0.429608,-0.060744,-19.545395,0.985482,-0.003785,0.000114,-0.169741
3589,0.044146,-0.091539,9.924015,-1.140867,0.634654,-28.362785,-0.472843,-0.054929,-20.467690,0.984082,-0.004146,0.000261,-0.177666
3590,0.044753,-0.111990,9.926966,-0.693817,0.643742,-28.791569,-0.508220,-0.050046,-21.420332,0.982570,-0.004439,0.000395,-0.185841
3591,0.047764,-0.111477,9.925452,-0.289498,0.632990,-28.815987,-0.530231,-0.046382,-22.380524,0.980977,-0.004618,0.000501,-0.194067
3592,0.049528,-0.089119,9.922420,0.038556,0.631386,-29.446190,-0.536136,-0.044007,-23.351635,0.979297,-0.004660,0.000571,-0.202374
3593,0.055471,-0.069794,9.923688,0.262892,0.631300,-29.295130,-0.527269,-0.042758,-24.330736,0.977533,-0.004577,0.000605,-0.210733
3594,0.053292,-0.069363,9.924732,0.653572,0.594588,-27.836342,-0.505870,-0.042160,-25.283007,0.975749,-0.004388,0.000607,-0.218850
3595,0.058394,-0.030750,9.923771,0.992404,0.513621,-25.223959,-0.468299,-0.042843,-26.167418,0.974032,-0.004065,0.000561,-0.226374
3596,0.058199,-0.017598,9.924459,0.850608,0.467745,-23.284510,-0.422479,-0.044980,-26.975969,0.972412,-0.003677,0.000478,-0.233241
3597,0.062920,-0.018340,9.921896,0.693551,0.434072,-21.508333,-0.381902,-0.047929,-27.722580,0.970873,-0.003336,0.000392,-0.239572
3598,0.055555,-0.018974,9.917788,0.382360,0.392773,-20.380672,-0.351098,-0.050941,-28.420795,0.969396,-0.003079,0.000321,-0.245483
3599,0.055776,-0.016187,9.916339,-0.491906,0.394209,-20.061754,-0.341273,-0.053254,-29.094891,0.967935,-0.002999,0.000298,-0.251182
3600,0.046795,-0.040462,9.914425,-1.469963,0.441431,-20.959002,-0.365728,-0.053765,-29.778624,0.966419,-0.003205,0.000367,-0.256953
3601,0.047504,-0.076796,9.909100,-2.466387,0.534439,-22.948809,-0.430057,-0.051766,-30.510479,0.964756,-0.003740,0.000552,-0.263119
3602,0.031098,-0.104684,9.910313,-4.262444,0.743433,-30.795118,-0.546725,-0.045429,-31.406288,0.962665,-0.004700,0.000910,-0.270652
3603,0.031517,-0.149495,9.908497,-7.105325,1.188959,-40.129200,-0.745658,-0.032131,-32.588531,0.959813,-0.006324,0.001557,-0.280566
3604,0.042410,-0.211468,9.903658,-8.396390,1.185849,-44.093559,-1.019924,-0.021599,-33.992447,0.956286,-0.008567,0.002421,-0.292299
3605,0.045946,-0.267953,9.905058,-7.908261,1.280380,-44.804642,-1.312056,-0.020252,-35.474293,0.952401,-0.010959,0.003320,-0.304633
3606,0.046269,-0.285036,9.907755,-7.002007,1.379483,-45.137287,-1.577982,-0.023911,-36.973629,0.948306,-0.013126,0.004168,-0.317059
3607,0.064260,-0.320763,9.908888,-5.399887,1.408377,-40.889118,-1.796708,-0.031940,-38.407818,0.944236,-0.014898,0.004894,-0.328895
3608,0.065384,-0.318972,9.912399,-2.367926,1.208366,-34.846458,-1.932038,-0.043751,-39.670578,0.940536,-0.015989,0.005362,-0.339275
3609,0.055866,-0.304912,9.918701,-0.399462,1.313550,-32.740685,-1.974598,-0.052905,-40.797661,0.937147,-0.016311,0.005573,-0.348509
3610,0.061403,-0.297131,9.917819,0.148417,1.186802,-32.083015,-1.968778,-0.060345,-41.878750,0.933818,-0.016234,0.005648,-0.357336
3611,0.064270,-0.279502,9.917830,0.313319,1.101248,-31.005714,-1.947096,-0.070864,-42.930832,0.930500,-0.016039,0.005642,-0.365896
3612,0.070525,-0.264945,9.918754,0.171536,1.006532,-28.956402,-1.921595,-0.082946,-43.930748,0.927275,-0.015822,0.005601,-0.374005
3613,0.079451,-0.270523,9.928929,-0.257119,1.105599,-27.157337,-1.905368,-0.093819,-44.866596,0.924191,-0.015681,0.005588,-0.381567
3614,0.084388,-0.269746,9.926607,-0.409594,1.175664,-26.492039,-1.900175,-0.101549,-45.761478,0.921183,-0.015621,0.005631,-0.388774
3615,0.082369,-0.273955,9.929473,-0.552919,1.314395,-26.255526,-1.900705,-0.105206,-46.641468,0.918171,-0.015594,0.005723,-0.395837
3616,0.083381,-0.271591,9.931895,-0.731343,1.314270,-25.828272,-1.906893,-0.105877,-47.510475,0.915141,-0.015602,0.005858,-0.402788
3617,0.079250,-0.275169,9.930864,-0.752597,1.283631,-25.314039,-1.916421,-0.106188,-48.363789,0.912115,-0.015635,0.006005,-0.409591
3618,0.076110,-0.256666,9.922450,-0.345050,1.054628,-24.387808,-1.917441,-0.109207,-49.192974,0.909127,-0.015610,0.006098,-0.416181
3619,0.067907,-0.266795,9.927748,-0.376959,0.976704,-23.208269,-1.910982,-0.114662,-49.986916,0.906222,-0.015537,0.006139,-0.422471
3620,0.073616,-0.241293,9.930924,-0.596543,0.935405,-22.929028,-1.906936,-0.120775,-50.756512,0.903365,-0.015486,0.006180,-0.428549
3621,0.073264,-0.255637,9.927698,-0.567391,0.915466,-22.048573,-1.904892,-0.127625,-51.506752,0.900540,-0.015455,0.006219,-0.434455
3622,0.070876,-0.257189,9.928622,-0.378034,0.892480,-21.248993,-1.901234,-0.133626,-52.228989,0.897784,-0.015410,0.006256,-0.440123
3623,0.070691,-0.284325,9.926393,-0.283314,0.877129,-20.875143,-1.896387,-0.138974,-52.931656,0.895068,-0.015354,0.006289,-0.445621
3624,0.078598,-0.260593,9.919974,-0.222168,0.889237,-21.349709,-1.889481,-0.145074,-53.636005,0.892313,-0.015286,0.006309,-0.451115
3625,0.075477,-0.280705,9.914903,-0.174754,0.905922,-21.804441,-1.880494,-0.151437,-54.355843,0.889462,-0.015201,0.006320,-0.456713
3626,0.077535,-0.279404,9.912166,-0.142622,0.934817,-22.588770,-1.872674,-0.157248,-55.096333,0.886493,-0.015123,0.006341,-0.462452
3627,0.078844,-0.271919,9.913859,-0.107429,0.951503,-23.118267,-1.862890,-0.163045,-55.858738,0.883397,-0.015029,0.006357,-0.468341
3628,0.082411,-0.252071,9.913034,-0.145461,0.942245,-22.845131,-1.850137,-0.169049,-56.625427,0.880245,-0.014913,0.006359,-0.474242
3629,0.081492,-0.267713,9.908836,-0.271995,0.905520,-21.926527,-1.840086,-0.175104,-57.372242,0.877137,-0.014820,0.006367,-0.479970
3630,0.084310,-0.296760,9.908112,-0.282605,0.885581,-21.389406,-1.838185,-0.181245,-58.094753,0.874093,-0.014791,0.006406,-0.485492
3631,0.085949,-0.311505,9.908658,-0.261214,0.926676,-22.198149,-1.841533,-0.187469,-58.821800,0.870994,-0.014802,0.006466,-0.491028
3632,0.082334,-0.326475,9.908025,-0.339038,1.030339,-24.448893,-1.849128,-0.192489,-59.599854,0.867638,-0.014837,0.006562,-0.496931
3633,0.081664,-0.343619,9.904678,-0.395529,1.152318,-27.125368,-1.862283,-0.195807,-60.460098,0.863882,-0.014901,0.006706,-0.503430
3634,0.083491,-0.351920,9.910996,-0.337594,1.269720,-29.780483,-1.877681,-0.198213,-61.409260,0.859680,-0.014971,0.006879,-0.510567
3635,0.082443,-0.314331,9.913661,-0.339139,1.391700,-32.234173,-1.887655,-0.199592,-62.443638,0.855035,-0.014989,0.007049,-0.518306
3636,0.076068,-0.270922,9.914167,-0.316185,1.460281,-33.125317,-1.886793,-0.198724,-63.533871,0.850065,-0.014911,0.007194,-0.526417
3637,0.080913,-0.260798,9.917485,-0.407624,1.405263,-32.357780,-1.880446,-0.197428,-64.626183,0.845010,-0.014789,0.007316,-0.534497
3638,0.081639,-0.252754,9.917480,-0.300676,1.350239,-30.975296,-1.871920,-0.197392,-65.682648,0.840047,-0.014658,0.007412,-0.542265
3639,0.078331,-0.230011,9.916764,0.212196,1.360832,-28.901566,-1.849891,-0.195648,-66.681519,0.835291,-0.014424,0.007446,-0.549568
3640,0.071811,-0.211040,9.918048,0.351250,1.290560,-26.751535,-1.812916,-0.190952,-67.610023,0.830816,-0.014072,0.007417,-0.556320
3641,0.076342,-0.231806,9.915046,0.327019,1.163831,-24.575573,-1.775786,-0.186604,-68.466385,0.826640,-0.013727,0.007371,-0.562515
3642,0.072578,-0.223995,9.910621,0.580482,1.146965,-23.135103,-1.738204,-0.182560,-69.262398,0.822718,-0.013386,0.007309,-0.568246
3643,0.074368,-0.215115,9.910753,0.786645,1.145359,-22.388929,-1.692711,-0.177069,-70.021973,0.818939,-0.012985,0.007209,-0.573689
3644,0.066575,-0.208616,9.912887,0.756289,1.082720,-22.123417,-1.644286,-0.171014,-70.764648,0.815209,-0.012563,0.007092,-0.578987
3645,0.071592,-0.226833,9.906874,0.934960,0.963623,-21.273481,-1.596888,-0.166765,-71.488632,0.811540,-0.012160,0.006959,-0.584128
3646,0.068834,-0.230122,9.910206,1.430985,0.881144,-20.472372,-1.542949,-0.164965,-72.185005,0.807982,-0.011728,0.006769,-0.589052
3647,0.070054,-0.222538,9.909608,1.792716,0.777303,-19.974922,-1.476379,-0.164884,-72.859634,0.804506,-0.011220,0.006493,-0.593803
3648,0.062404,-0.186225,9.914205,1.904218,0.671942,-19.619385,-1.399170,-0.166352,-73.519974,0.801078,-0.010651,0.006144,-0.598433
3649,0.070084,-0.184349,9.911689,1.571689,0.560477,-18.835062,-1.324065,-0.170081,-74.161224,0.797724,-0.010113,0.005783,-0.602911
3650,0.066980,-0.184241,9.919224,0.616559,0.593971,-19.369137,-1.273305,-0.174780,-74.798256,0.794364,-0.009754,0.005537,-0.607339
3651,0.070543,-0.183925,9.921336,-0.179895,0.644252,-20.286221,-1.254177,-0.178134,-75.459496,0.790847,-0.009607,0.005468,-0.611914
3652,0.073519,-0.183743,9.922595,-0.610139,0.702157,-20.478489,-1.256789,-0.180604,-76.139236,0.787203,-0.009606,0.005522,-0.616594
3653,0.077575,-0.204867,9.919704,-0.829828,0.731064,-20.312166,-1.273073,-0.182454,-76.819435,0.783528,-0.009694,0.005655,-0.621255
3654,0.082745,-0.213041,9.918251,-0.933571,0.746230,-20.852345,-1.297840,-0.184973,-77.505867,0.779790,-0.009843,0.005831,-0.625937
3655,0.083561,-0.216656,9.915020,-0.478832,0.733923,-20.840139,-1.317266,-0.188531,-78.201111,0.775976,-0.009958,0.005973,-0.630655
3656,0.083216,-0.208636,9.914392,0.136144,0.735351,-20.702810,-1.317388,-0.192236,-78.893860,0.772149,-0.009943,0.006009,-0.635335
3657,0.087190,-0.184123,9.914046,0.905271,0.704732,-20.834042,-1.290075,-0.196536,-79.586502,0.768297,-0.009748,0.005887,-0.639993
3658,0.086994,-0.156175,9.916990,1.686652,0.689370,-20.455614,-1.231126,-0.201265,-80.275055,0.764442,-0.009345,0.005583,-0.644601
3659,0.086112,-0.123690,9.921477,2.521483,0.638914,-18.822876,-1.139822,-0.205167,-80.930069,0.760752,-0.008729,0.005093,-0.648964
3660,0.090681,-0.106965,9.920798,3.222057,0.570146,-16.483635,-1.020327,-0.208855,-81.518867,0.757416,-0.007934,0.004433,-0.652870
3661,0.092574,-0.081314,9.922339,3.028442,0.487638,-14.971448,-0.891869,-0.213346,-82.043434,0.754427,-0.007094,0.003704,-0.656335
3662,0.078013,-0.097514,9.925608,2.077938,0.412774,-13.152546,-0.786672,-0.216920,-82.512421,0.751741,-0.006409,0.003104,-0.659420
3663,0.077374,-0.111147,9.925025,1.118210,0.316563,-11.736489,-0.721948,-0.219977,-82.927422,0.749351,-0.005992,0.002733,-0.662140
3664,0.077301,-0.115217,9.925756,0.245414,0.276813,-11.309231,-0.693522,-0.224360,-83.311630,0.747128,-0.005823,0.002560,-0.664650
3665,0.074250,-0.120739,9.926678,-0.642665,0.244696,-11.399261,-0.697527,-0.229255,-83.690178,0.744928,-0.005869,0.002570,-0.667114
3666,0.071451,-0.148051,9.922956,-1.361403,0.192750,-11.756329,-0.732711,-0.234879,-84.076149,0.742674,-0.006121,0.002759,-0.669619
3667,0.081070,-0.164181,9.920034,-1.550680,0.201836,-12.964863,-0.787293,-0.242471,-84.488190,0.740259,-0.006509,0.003052,-0.672284
3668,0.078849,-0.161649,9.922037,-1.402725,0.285688,-14.011647,-0.842114,-0.250035,-84.937828,0.737611,-0.006894,0.003352,-0.675182
3669,0.080140,-0.172245,9.917626,-1.427191,0.310032,-14.936357,-0.893378,-0.256270,-85.420349,0.734758,-0.007245,0.003645,-0.678281
3670,0.087729,-0.164202,9.915456,-1.070158,0.349629,-15.816816,-0.937016,-0.263117,-85.932983,0.731713,-0.007548,0.003893,-0.681560
3671,0.088938,-0.146209,9.922184,-0.307190,0.428893,-15.455175,-0.956769,-0.269172,-86.454323,0.728603,-0.007692,0.004007,-0.684881
3672,0.081425,-0.148277,9.930005,0.060591,0.456285,-14.483163,-0.954482,-0.272103,-86.953484,0.725613,-0.007678,0.004008,-0.688049
3673,0.093196,-0.163901,9.927002,0.004150,0.405851,-13.884999,-0.948858,-0.275289,-87.426460,0.722767,-0.007645,0.003986,-0.691038
3674,0.093364,-0.168660,9.928342,0.498547,0.422548,-13.270056,-0.938611,-0.279968,-87.879196,0.720031,-0.007593,0.003924,-0.693889
3675,0.085891,-0.155952,9.935527,0.818994,0.396528,-12.066100,-0.914265,-0.283103,-88.301651,0.717470,-0.007445,0.003785,-0.696539
3676,0.090913,-0.147528,9.928007,0.721352,0.332363,-10.950650,-0.884556,-0.286480,-88.685410,0.715135,-0.007268,0.003607,-0.698939
3677,0.100206,-0.120392,9.921846,0.700031,0.292600,-10.311291,-0.853817,-0.292557,-89.039909,0.712971,-0.007103,0.003404,-0.701149
3678,0.097029,-0.100773,9.923430,0.729100,0.257411,-9.613944,-0.818667,-0.299894,-89.372169,0.710937,-0.006920,0.003163,-0.703215
3679,0.093513,-0.133301,9.924889,0.094369,0.217653,-9.197368,-0.796591,-0.306965,-89.685814,0.709010,-0.006818,0.003003,-0.705159
3680,0.096416,-0.151059,9.923778,-0.679279,0.222148,-11.153605,-0.805047,-0.314594,-90.025070,0.706918,-0.006908,0.003028,-0.707255
3682,0.091866,-0.152189,9.924541,-0.725082,0.237330,-11.356553,-0.829473,-0.322003,-90.400276,0.704597,-0.007094,0.003156,-0.709565
3683,0.092922,-0.160884,9.926388,-0.508429,0.208266,-10.144969,-0.851592,-0.328792,-90.758682,0.702372,-0.007262,0.003274,-0.711765
3684,0.087723,-0.157378,9.926044,-0.194115,0.188364,-8.739593,-0.864723,-0.335055,-91.073479,0.700413,-0.007372,0.003338,-0.713692
3685,0.089290,-0.129670,9.923116,-0.065927,0.166941,-7.933905,-0.866183,-0.340782,-91.351440,0.698679,-0.007409,0.003330,-0.715389
3686,0.087119,-0.117163,9.920035,0.315605,0.154676,-6.215714,-0.854241,-0.346097,-91.587357,0.697205,-0.007363,0.003238,-0.716826
3687,0.087596,-0.110737,9.922318,0.501836,0.119526,-5.423761,-0.831014,-0.351080,-91.781464,0.695992,-0.007247,0.003075,-0.718007
3688,0.085844,-0.103800,9.920584,0.509655,0.099566,-4.723363,-0.789327,-0.365198,-91.950775,0.694932,-0.007078,0.002738,-0.719036
3689,0.085860,-0.096814,9.920929,0.236822,0.073443,-4.222865,-0.737420,-0.387230,-92.100159,0.693995,-0.006899,0.002288,-0.719943
3690,0.086256,-0.081914,9.920419,0.029626,0.029029,-3.144039,-0.690915,-0.407183,-92.223236,0.693223,-0.006741,0.001882,-0.720689
3691,0.083701,-0.126734,9.925538,-0.498195,-0.045866,-1.865317,-0.679476,-0.424030,-92.306847,0.692697,-0.006776,0.001713,-0.721195
3692,0.079699,-0.257055,9.957461,-0.555214,0.031883,-2.957876,-0.766421,-0.434486,-92.386696,0.692188,-0.007366,0.002202,-0.721676
3693,0.076713,-0.219897,9.953465,-0.112036,0.089841,-3.923780,-0.884876,-0.437578,-92.500603,0.691462,-0.008098,0.002938,-0.722361
3694,0.074471,-0.234809,9.957436,-0.330887,0.082212,-4.218280,-0.971653,-0.436702,-92.635727,0.690604,-0.008612,0.003500,-0.723174
3695,0.073904,-0.229692,9.958498,-0.059816,0.073070,-3.993965,-1.045092,-0.434788,-92.772110,0.689737,-0.009038,0.003986,-0.723993
3696,0.072736,-0.146217,9.949123,0.893789,0.097503,-3.186748,-1.042497,-0.431821,-92.891731,0.688981,-0.008999,0.003997,-0.724712
3697,0.080413,-0.029041,9.924769,0.270404,-0.021530,-1.035199,-0.932738,-0.433108,-92.962776,0.688540,-0.008345,0.003300,-0.725143
3698,0.099204,-0.143566,9.922606,-1.715698,-0.354296,0.193164,-0.875165,-0.453901,-92.977348,0.688451,-0.008131,0.002812,-0.725232
3699,0.066961,-0.046101,9.935289,0.265428,-0.090359,0.559382,-0.840010,-0.467117,-92.965164,0.688529,-0.008003,0.002509,-0.725160
3700,0.053604,-0.018935,9.945708,0.299893,-0.070370,0.428147,-0.719033,-0.450740,-92.949547,0.688637,-0.007173,0.001841,-0.725068
3701,0.058739,0.048270,9.939259,-0.167415,-0.065613,0.289281,-0.572903,-0.430341,-92.938667,0.688716,-0.006166,0.001038,-0.725005
3702,0.057115,0.058847,9.924744,0.183295,-0.045634,0.206873,-0.413547,-0.414403,-92.931564,0.688769,-0.005107,0.000125,-0.724963
3703,0.039564,0.133381,9.930036,1.504618,0.220068,0.010020,-0.210805,-0.387588,-92.929176,0.688793,-0.003719,-0.000996,-0.724948
3704,0.072162,0.039855,9.913734,-0.328463,-0.031605,-0.011350,-0.055855,-0.371398,-92.930092,0.688792,-0.002685,-0.001879,-0.724952
3705,0.086950,-0.003694,9.903258,-0.340352,-0.040868,-0.040345,-0.027361,-0.386032,-92.931229,0.688785,-0.002607,-0.002147,-0.724958
3706,0.087221,-0.109293,9.913391,-0.174406,-0.041034,-0.057127,-0.083411,-0.408207,-92.932518,0.688775,-0.003084,-0.001926,-0.724966
3707,0.082607,-0.121777,9.921651,-0.027207,-0.044211,-0.061700,-0.188761,-0.425203,-92.933769,0.688764,-0.003825,-0.001362,-0.724975
3708,0.080711,-0.123442,9.921741,-0.021866,-0.051913,-0.060169,-0.284882,-0.435951,-92.935074,0.688751,-0.004470,-0.000818,-0.724983
3709,0.078677,-0.124754,9.922791,-0.025556,-0.064161,-0.069320,-0.365612,-0.442827,-92.936623,0.688738,-0.004999,-0.000348,-0.724993
3710,0.078771,-0.115782,9.924097,-0.006212,-0.064181,-0.072368,-0.427643,-0.447501,-92.938499,0.688723,-0.005402,0.000016,-0.725004
3711,0.078922,-0.116025,9.922173,-0.001997,-0.058090,-0.084573,-0.473186,-0.451235,-92.940742,0.688707,-0.005699,0.000282,-0.725018
3712,0.078601,-0.108132,9.919979,0.005370,-0.044365,-0.081519,-0.505913,-0.453875,-92.943245,0.688689,-0.005912,0.000473,-0.725033
3713,0.084378,-0.099422,9.918136,0.025060,-0.035233,-0.076940,-0.523697,-0.458245,-92.945724,0.688672,-0.006047,0.000559,-0.725047
3714,0.087097,-0.103340,9.916266,0.023440,-0.032233,-0.069311,-0.534685,-0.465933,-92.948067,0.688656,-0.006161,0.000583,-0.725061
3715,0.086163,-0.107531,9.918669,0.014178,-0.039914,-0.067784,-0.547358,-0.473549,-92.950226,0.688642,-0.006286,0.000617,-0.725074
3716,0.087383,-0.106189,9.924352,0.018654,-0.046059,-0.061680,-0.559470,-0.480223,-92.952263,0.688628,-0.006401,0.000654,-0.725087
3717,0.091483,-0.110977,9.927450,0.003298,-0.059845,-0.067784,-0.571309,-0.488560,-92.954308,0.688614,-0.006525,0.000679,-0.725099
3718,0.086133,-0.115493,9.928809,-0.010554,-0.067513,-0.069308,-0.586088,-0.495386,-92.956451,0.688599,-0.006657,0.000732,-0.725112
3719,0.088685,-0.115808,9.926688,0.000009,-0.070581,-0.063204,-0.601032,-0.499784,-92.958496,0.688585,-0.006774,0.000800,-0.725124
3720,0.092229,-0.110283,9.924811,0.001456,-0.061458,-0.064730,-0.610815,-0.506094,-92.960518,0.688571,-0.006873,0.000824,-0.725136
3721,0.090646,-0.107180,9.923450,-0.021460,-0.063017,-0.052522,-0.614765,-0.512343,-92.962418,0.688558,-0.006936,0.000812,-0.725147
3722,0.086283,-0.101577,9.921188,-0.010767,-0.059967,-0.061678,-0.613604,-0.514675,-92.964317,0.688546,-0.006944,0.000790,-0.725159
3723,0.090544,-0.097308,9.920774,-0.012239,-0.050808,-0.069307,-0.607318,-0.516054,-92.966545,0.688532,-0.006915,0.000742,-0.725172
3724,0.093094,-0.100743,9.921912,-0.019816,-0.049302,-0.072360,-0.601396,-0.520222,-92.968948,0.688517,-0.006906,0.000680,-0.725187
3725,0.090020,-0.103827,9.921985,-0.022850,-0.049316,-0.070835,-0.599799,-0.523645,-92.971336,0.688502,-0.006918,0.000649,-0.725201
3726,0.089847,-0.105828,9.919214,-0.001493,-0.049313,-0.069309,-0.600985,-0.524885,-92.973648,0.688487,-0.006933,0.000650,-0.725215
3727,0.096285,-0.110832,9.918259,-0.007631,-0.043226,-0.055575,-0.605343,-0.528663,-92.975677,0.688474,-0.006983,0.000655,-0.725227
3728,0.092777,-0.112039,9.921692,0.002996,-0.046304,-0.047946,-0.612144,-0.533369,-92.977325,0.688463,-0.007053,0.000670,-0.725237
3729,0.089175,-0.102684,9.921244,0.016716,-0.046297,-0.058626,-0.613672,-0.533984,-92.979065,0.688452,-0.007067,0.000676,-0.725248
3730,0.091269,-0.099146,9.922236,0.018281,-0.032546,-0.063205,-0.608042,-0.533202,-92.981125,0.688439,-0.007028,0.000645,-0.725260
3731,0.091772,-0.101806,9.923216,0.006114,-0.026435,-0.073886,-0.602496,-0.533346,-92.983452,0.688425,-0.006995,0.000609,-0.725274
3732,0.088835,-0.099868,9.925569,0.004619,-0.034049,-0.076938,-0.598439,-0.532385,-92.985985,0.688409,-0.006965,0.000589,-0.725289
3733,0.091176,-0.105287,9.926467,-0.009103,-0.038609,-0.084568,-0.597091,-0.531396,-92.988670,0.688392,-0.006950,0.000587,-0.725305
3734,0.092460,-0.111199,9.926384,-0.024397,-0.032502,-0.089146,-0.602122,-0.532284,-92.991516,0.688374,-0.006986,0.000614,-0.725322
3735,0.092565,-0.109456,9.925659,-0.021395,-0.047765,-0.078463,-0.609061,-0.534005,-92.994240,0.688356,-0.007039,0.000647,-0.725339
3736,0.094798,-0.116270,9.927161,-0.019930,-0.047775,-0.083041,-0.617363,-0.536883,-92.996849,0.688339,-0.007107,0.000683,-0.725354
3737,0.092523,-0.119378,9.921584,-0.023071,-0.044730,-0.083040,-0.629218,-0.539325,-92.999496,0.688321,-0.007194,0.000743,-0.725370
3738,0.090095,-0.117675,9.922018,-0.017050,-0.041664,-0.079987,-0.640051,-0.538983,-93.002098,0.688304,-0.007256,0.000814,-0.725386
3739,0.089095,-0.108369,9.924148,-0.017074,-0.046212,-0.070831,-0.643584,-0.536829,-93.004562,0.688288,-0.007264,0.000849,-0.725401
3740,0.087526,-0.115271,9.923292,-0.015553,-0.046175,-0.064727,-0.644734,-0.533714,-93.006798,0.688274,-0.007251,0.000876,-0.725414
3741,0.083179,-0.111871,9.922121,-0.007938,-0.050695,-0.058622,-0.647039,-0.528273,-93.008820,0.688262,-0.007231,0.000923,-0.725426
3742,0.085670,-0.106320,9.926973,-0.006391,-0.056741,-0.063200,-0.644579,-0.522812,-93.010857,0.688249,-0.007181,0.000940,-0.725438
3743,0.086994,-0.109361,9.921100,-0.015516,-0.062809,-0.054044,-0.641056,-0.520302,-93.012825,0.688237,-0.007144,0.000933,-0.725450
3744,0.085550,-0.116032,9.919642,-0.014000,-0.061252,-0.061673,-0.642871,-0.518502,-93.014717,0.688225,-0.007144,0.000956,-0.725461
3745,0.083678,-0.110715,9.919597,-0.018595,-0.059685,-0.069303,-0.645537,-0.515423,-93.016846,0.688212,-0.007140,0.000991,-0.725474
3746,0.084509,-0.099541,9.917417,-0.024649,-0.059643,-0.066250,-0.640081,-0.512233,-93.019135,0.688198,-0.007087,0.000976,-0.725488
3747,0.088528,-0.104813,9.918223,-0.020001,-0.055047,-0.069303,-0.632047,-0.511829,-93.021454,0.688184,-0.007036,0.000928,-0.725502
3748,0.087365,-0.101326,9.920726,-0.003162,-0.048938,-0.086089,-0.625619,-0.512909,-93.024086,0.688167,-0.007005,0.000881,-0.725518
3749,0.089240,-0.097455,9.919907,0.004540,-0.047409,-0.079985,-0.616436,-0.514144,-93.026924,0.688150,-0.006957,0.000815,-0.725535
3750,0.090890,-0.102554,9.918503,0.009176,-0.050470,-0.086090,-0.608950,-0.516916,-93.029739,0.688132,-0.006930,0.000751,-0.725552
3751,0.086628,-0.108902,9.921091,0.019859,-0.055043,-0.087616,-0.608099,-0.518221,-93.032623,0.688114,-0.006933,0.000738,-0.725569
3752,0.083664,-0.099207,9.917521,0.016818,-0.047379,-0.086090,-0.606210,-0.515660,-93.035515,0.688096,-0.006905,0.000742,-0.725587
3753,0.089030,-0.095509,9.915802,0.016878,-0.054984,-0.079986,-0.598179,-0.514381,-93.038330,0.688079,-0.006849,0.000699,-0.725604
3754,0.088204,-0.097958,9.917358,0.021513,-0.051929,-0.081512,-0.590297,-0.515682,-93.041069,0.688062,-0.006810,0.000641,-0.725620
3755,0.091087,-0.094380,9.921862,0.027668,-0.045829,-0.084565,-0.582990,-0.517794,-93.043877,0.688044,-0.006779,0.000583,-0.725637
3756,0.096818,-0.093336,9.922445,0.013995,-0.044337,-0.086092,-0.574824,-0.523617,-93.046776,0.688026,-0.006767,0.000496,-0.725654
3757,0.095832,-0.102184,9.924737,0.010962,-0.047436,-0.086092,-0.571966,-0.531075,-93.049637,0.688008,-0.006797,0.000433,-0.725672
3758,0.090702,-0.106801,9.927668,0.004818,-0.041347,-0.083040,-0.576632,-0.534411,-93.052406,0.687990,-0.006846,0.000443,-0.725688
3759,0.090566,-0.107143,9.929112,-0.007446,-0.050489,-0.081513,-0.583818,-0.534344,-93.055069,0.687972,-0.006889,0.000489,-0.725704
3760,0.088283,-0.106952,9.929311,-0.005971,-0.058095,-0.063201,-0.590262,-0.533112,-93.057411,0.687957,-0.006920,0.000537,-0.725718
3761,0.088922,-0.102740,9.930758,0.004687,-0.058065,-0.061675,-0.593247,-0.531312,-93.059433,0.687944,-0.006926,0.000567,-0.725730
3762,0.084722,-0.102587,9.930923,0.009264,-0.064127,-0.063201,-0.593085,-0.528148,-93.061501,0.687931,-0.006905,0.000585,-0.725743
3763,0.082693,-0.098699,9.926418,0.006229,-0.064064,-0.063200,-0.590741,-0.522521,-93.063591,0.687919,-0.006856,0.000604,-0.725755
3764,0.079524,-0.097058,9.919971,0.013895,-0.063988,-0.064726,-0.585921,-0.515167,-93.065742,0.687906,-0.006780,0.000618,-0.725768
3765,0.079874,-0.098088,9.921666,0.010876,-0.059332,-0.079985,-0.581348,-0.507482,-93.068169,0.687891,-0.006704,0.000636,-0.725783
3766,0.079214,-0.107434,9.918302,0.001707,-0.068419,-0.089140,-0.582759,-0.500985,-93.070961,0.687874,-0.006671,0.000684,-0.725799
3767,0.080889,-0.104627,9.915675,-0.009015,-0.068363,-0.087613,-0.587942,-0.496333,-93.073845,0.687855,-0.006673,0.000745,-0.725817
3768,0.082580,-0.108877,9.919090,-0.002952,-0.069854,-0.095241,-0.593342,-0.494253,-93.076820,0.687836,-0.006692,0.000791,-0.725835
3769,0.085175,-0.111812,9.925049,-0.016748,-0.065261,-0.095240,-0.601397,-0.494708,-93.079895,0.687816,-0.006743,0.000840,-0.725853
3770,0.079744,-0.110685,9.917958,-0.018335,-0.057607,-0.090662,-0.609464,-0.493733,-93.082909,0.687797,-0.006786,0.000897,-0.725871
3771,0.078766,-0.109769,9.918421,-0.019901,-0.045351,-0.084558,-0.615294,-0.489411,-93.085770,0.687779,-0.006793,0.000960,-0.725888
3772,0.078013,-0.115489,9.918059,-0.013849,-0.049877,-0.086083,-0.622204,-0.484567,-93.088547,0.687761,-0.006804,0.001033,-0.725905
3773,0.080418,-0.114638,9.916655,-0.010859,-0.048311,-0.079978,-0.630256,-0.481338,-93.091232,0.687744,-0.006832,0.001104,-0.725921
3774,0.078954,-0.115405,9.910725,-0.003280,-0.046756,-0.081503,-0.636887,-0.479210,-93.093857,0.687727,-0.006858,0.001159,-0.725936
3775,0.082617,-0.115194,9.914285,-0.014006,-0.048264,-0.083028,-0.642627,-0.478597,-93.096535,0.687710,-0.006889,0.001199,-0.725952
3776,0.079090,-0.110845,9.913487,0.005813,-0.054352,-0.072347,-0.644974,-0.478392,-93.099091,0.687693,-0.006901,0.001215,-0.725968
3777,0.081912,-0.108799,9.915341,0.024137,-0.054334,-0.075398,-0.642928,-0.478011,-93.101532,0.687678,-0.006887,0.001204,-0.725982
3778,0.083162,-0.114464,9.917426,0.025661,-0.060437,-0.081502,-0.642245,-0.479728,-93.104141,0.687661,-0.006894,0.001190,-0.725998
3779,0.083552,-0.112679,9.922008,0.024117,-0.068070,-0.081502,-0.643621,-0.482326,-93.106796,0.687644,-0.006918,0.001183,-0.726014
3780,0.085957,-0.114256,9.923019,0.036308,-0.069607,-0.073873,-0.644632,-0.486037,-93.109344,0.687628,-0.006948,0.001168,-0.726029
3781,0.088140,-0.119081,9.926083,0.022536,-0.068106,-0.083028,-0.648526,-0.491414,-93.111893,0.687611,-0.007005,0.001160,-0.726045
3782,0.087780,-0.114637,9.930162,0.020973,-0.055923,-0.076924,-0.652410,-0.496653,-93.114487,0.687594,-0.007062,0.001153,-0.726060
3783,0.086995,-0.108494,9.928688,0.027086,-0.046781,-0.084554,-0.650464,-0.500091,-93.117180,0.687577,-0.007072,0.001121,-0.726076
3785,0.085294,-0.115740,9.929036,0.024040,-0.045254,-0.079976,-0.648842,-0.501437,-93.119904,0.687560,-0.007070,0.001102,-0.726093
3786,0.080537,-0.116888,9.927506,0.020959,-0.043698,-0.089131,-0.651661,-0.499234,-93.122681,0.687542,-0.007073,0.001134,-0.726109
3787,0.084216,-0.116338,9.929621,0.017877,-0.040613,-0.084553,-0.654767,-0.496505,-93.125519,0.687524,-0.007075,0.001170,-0.726126
3788,0.082726,-0.117787,9.926223,0.005640,-0.042117,-0.078448,-0.658075,-0.495217,-93.128189,0.687507,-0.007086,0.001199,-0.726142
3789,0.080551,-0.116779,9.926422,-0.002017,-0.045136,-0.069292,-0.661413,-0.492586,-93.130608,0.687492,-0.007090,0.001236,-0.726157
3790,0.081982,-0.116633,9.926809,-0.002035,-0.035947,-0.070817,-0.663769,-0.489818,-93.132904,0.687477,-0.007086,0.001268,-0.726170
3791,0.081903,-0.113534,9.920775,-0.002038,-0.052708,-0.061662,-0.664121,-0.488297,-93.135094,0.687463,-0.007079,0.001279,-0.726184
3792,0.084606,-0.115132,9.917695,0.005596,-0.048120,-0.050980,-0.663453,-0.488632,-93.136963,0.687451,-0.007077,0.001273,-0.726195
3793,0.087879,-0.120751,9.920780,0.013203,-0.046607,-0.055558,-0.666030,-0.491839,-93.138695,0.687440,-0.007113,0.001270,-0.726205
3794,0.091653,-0.117645,9.922047,-0.003613,-0.051221,-0.055558,-0.669786,-0.498175,-93.140488,0.687428,-0.007175,0.001256,-0.726216
