seq,ax,ay,az,wroll,wpitch,wyaw,roll,pitch,yaw,q0,q1,q2,q3
61,-0.116691,-1.932035,9.720602,-2.314100,2.031115,-1.017442,-11.241419,0.674578,-0.134074,0.995175,-0.097934,0.005973,-0.000588
62,-0.105364,-1.989696,9.565307,12.701730,12.426644,-38.533485,-11.077113,0.783409,-0.827474,0.995287,-0.096462,0.007501,-0.006527
63,-0.309290,-1.800108,9.725891,15.444161,14.864696,-39.745285,-10.628971,0.984732,-2.194365,0.995497,-0.092438,0.010328,-0.018269
64,-0.444758,-1.612274,10.118002,21.977249,14.396962,-39.347187,-10.032285,1.228310,-3.578688,0.995656,-0.087055,0.013403,-0.030167
65,-0.724622,-1.559147,10.582036,24.266258,14.713545,-34.579536,-9.292504,1.500437,-4.874710,0.995772,-0.080368,0.016483,-0.041324
66,-0.855216,-1.418848,10.598138,23.196037,14.000236,-27.719130,-8.533582,1.812777,-5.974884,0.995810,-0.073468,0.019631,-0.050791
67,-0.791670,-1.353313,10.761696,17.114304,11.555741,-22.595625,-7.892550,2.114820,-6.866138,0.995745,-0.067583,0.022498,-0.058463
68,-0.738335,-1.432978,10.740074,12.283566,9.312388,-18.341148,-7.430917,2.368403,-7.589231,0.995587,-0.063281,0.024866,-0.064691
69,-0.711840,-1.430583,10.524127,7.193676,7.525987,-14.181199,-7.131069,2.577981,-8.162998,0.995381,-0.060419,0.026820,-0.069624
70,-0.627730,-1.312937,10.186888,2.387156,5.906979,-11.811583,-6.992682,2.746792,-8.620977,0.995139,-0.058997,0.028438,-0.073542
71,-0.680348,-1.293101,9.782445,-2.877543,4.971437,-10.135940,-7.019779,2.881995,-9.006656,0.994849,-0.059042,0.029828,-0.076810
72,-0.755642,-1.338343,9.607059,-7.394171,2.714528,-7.747881,-7.206908,2.972049,-9.318745,0.994523,-0.060519,0.030900,-0.079419
73,-0.705413,-1.176292,9.102567,-8.114588,0.196054,-7.463631,-7.478773,2.987623,-9.576790,0.994192,-0.062797,0.031365,-0.081576
74,-0.471030,-1.324735,8.917013,-13.534192,-4.177817,-6.083159,-7.850576,2.891716,-9.792027,0.993845,-0.066036,0.030922,-0.083399
75,-0.090987,-1.526239,8.903411,-12.870076,-10.370126,-3.009059,-8.296159,2.630240,-9.908215,0.993536,-0.070068,0.029051,-0.084455
76,0.231222,-1.516809,9.125296,-5.790844,-15.489102,-1.645335,-8.607616,2.192421,-9.921803,0.993387,-0.073100,0.025494,-0.084786
77,0.289270,-1.404640,9.129823,1.830914,-16.457663,-1.768412,-8.672753,1.657441,-9.898386,0.993410,-0.074078,0.020891,-0.084927
78,0.250578,-1.479230,9.424767,3.525347,-16.810230,0.248859,-8.582091,1.105451,-9.840539,0.993538,-0.073719,0.016001,-0.084806
79,0.079044,-1.374638,9.523958,6.316247,-15.626384,2.554792,-8.416135,0.577704,-9.714483,0.993741,-0.072688,0.011223,-0.084075
80,-0.050541,-1.317621,9.611731,4.287697,-14.068061,4.724966,-8.238166,0.105598,-9.522883,0.993980,-0.071505,0.006878,-0.082727
81,-0.048328,-1.279517,9.646266,-0.830336,-13.225584,9.932283,-8.181000,-0.309690,-9.216104,0.994209,-0.071318,0.003044,-0.080326
82,0.131828,-1.289215,9.563278,-5.762535,-14.243366,17.431734,-8.295236,-0.697290,-8.698990,0.994457,-0.072577,-0.000566,-0.076079
83,0.310110,-1.470027,9.700450,-9.887678,-14.174037,24.594196,-8.567563,-1.062955,-7.936491,0.994725,-0.075154,-0.004059,-0.069699
84,0.432547,-1.554067,9.747574,-11.344968,-13.493468,30.235788,-8.941927,-1.379503,-6.962846,0.994988,-0.078533,-0.007246,-0.061472
85,0.345853,-1.565529,9.692645,-14.454857,-12.254491,35.949825,-9.402036,-1.627333,-5.805111,0.995198,-0.082559,-0.009985,-0.051624
86,0.162453,-1.623680,9.801761,-17.962215,-11.646381,41.370075,-9.982033,-1.802932,-4.467256,0.995275,-0.087534,-0.012271,-0.040189
87,-0.097008,-1.939502,9.969626,-21.673996,-10.957982,46.600792,-10.691277,-1.910323,-2.956675,0.995141,-0.093548,-0.014189,-0.027236
88,-0.120451,-2.024655,9.752857,-23.127899,-12.208123,49.323086,-11.493449,-1.981448,-1.312887,0.994740,-0.100307,-0.016055,-0.013129
89,-0.088902,-2.211907,9.632400,-25.202860,-13.712868,51.133629,-12.359772,-2.058102,0.415072,0.994029,-0.107568,-0.018245,0.001667
90,0.018012,-2.377252,9.492533,-23.800247,-13.875219,50.418274,-13.240507,-2.131341,2.167976,0.993023,-0.114898,-0.020652,0.016645
91,0.127648,-2.576341,9.312304,-24.561497,-12.623317,46.745071,-14.109507,-2.177747,3.846510,0.991769,-0.122093,-0.022970,0.030968
92,0.372529,-2.560997,9.221636,-23.903744,-11.623952,40.746067,-14.974902,-2.202457,5.360149,0.990323,-0.129251,-0.025126,0.043850
93,0.415154,-2.595179,9.344919,-23.502819,-9.196548,34.611713,-15.815058,-2.203308,6.663789,0.988788,-0.136210,-0.027006,0.054916
94,0.211519,-2.578586,9.564959,-21.820059,-5.189648,27.157711,-16.610338,-2.145773,7.719886,0.987277,-0.142845,-0.028208,0.063902
95,-0.058215,-2.613634,9.567256,-19.611389,-1.236341,20.710152,-17.329477,-2.015043,8.514726,0.985903,-0.148923,-0.028517,0.070736
96,-0.292026,-2.532925,9.396172,-15.797409,2.808820,14.733759,-17.937944,-1.810888,9.070134,0.984752,-0.154158,-0.027886,0.075637
97,-0.540967,-2.631063,9.406825,-13.474414,7.609256,8.225029,-18.434618,-1.526368,9.379729,0.983870,-0.158554,-0.026199,0.078573
98,-0.800140,-2.825948,9.424027,-8.189991,13.004952,1.378598,-18.796450,-1.149469,9.421887,0.983329,-0.161923,-0.023273,0.079390
99,-0.798880,-2.868787,9.317625,-4.903841,17.227966,-5.168029,-19.010857,-0.693034,9.199085,0.983156,-0.164128,-0.019188,0.078093
100,-0.866812,-3.143507,9.497546,-6.454567,22.103964,-11.878474,-19.196320,-0.166426,8.716225,0.983168,-0.166146,-0.014098,0.074685
101,-0.867412,-3.411859,9.485869,-6.462501,24.457718,-17.429710,-19.412867,0.404515,7.998686,0.983237,-0.168431,-0.008288,0.069340
102,-0.770953,-3.383665,9.323791,-7.794473,23.854731,-20.183805,-19.660437,0.953784,7.138633,0.983284,-0.170903,-0.002443,0.062758
103,-0.607209,-3.252044,8.952777,-13.312609,20.930063,-20.566031,-20.030540,1.425224,6.246224,0.983105,-0.174306,0.002755,0.055807
104,-0.454170,-3.463772,8.895555,-19.466028,15.769268,-19.489155,-20.600012,1.766650,5.407304,0.982543,-0.179298,0.006718,0.049158
105,-0.082767,-3.351045,8.703082,-20.886000,7.612035,-19.378508,-21.296122,1.898477,4.662371,0.981708,-0.185260,0.008753,0.043028
106,0.074406,-3.437239,8.831216,-23.891163,2.588699,-18.694639,-22.063175,1.821823,4.009233,0.980691,-0.191755,0.008902,0.037369
107,0.161916,-3.747948,8.981505,-23.031284,-1.534577,-17.338270,-22.861761,1.608335,3.447118,0.979541,-0.198490,0.007790,0.032258
108,0.235825,-3.789783,9.377228,-15.391600,-5.419535,-16.016699,-23.513666,1.282800,2.981436,0.978569,-0.203962,0.005655,0.027748
109,0.288979,-3.820977,9.567213,-4.602157,-8.573456,-13.608681,-23.853458,0.871037,2.622577,0.978092,-0.206771,0.002706,0.023960
110,0.174914,-3.789356,9.608330,3.596125,-10.770391,-8.552677,-23.872421,0.426983,2.414845,0.978138,-0.206852,-0.000713,0.021387
111,0.269164,-3.877106,9.583613,7.257887,-14.397701,-2.534078,-23.691349,-0.031254,2.414645,0.978488,-0.205225,-0.004592,0.020566
112,0.417610,-3.871251,9.497965,9.448127,-17.569080,2.484037,-23.413706,-0.519879,2.626662,0.978952,-0.202747,-0.009092,0.021523
113,0.348287,-3.835298,9.097399,4.120206,-18.980303,7.340781,-23.192617,-1.014465,3.017993,0.979257,-0.200709,-0.013962,0.024016
114,0.307289,-4.027235,8.582196,-6.663770,-18.581207,11.437597,-23.246384,-1.466143,3.552715,0.979023,-0.200973,-0.018771,0.027784
115,0.310420,-4.270913,8.391102,-13.987135,-16.156420,13.183451,-23.607849,-1.833806,4.160005,0.978202,-0.203834,-0.023077,0.032252
116,0.326790,-4.239364,8.448443,-14.043860,-12.634587,12.194442,-24.094830,-2.101320,4.741458,0.977132,-0.207766,-0.026550,0.036623
117,0.357271,-4.288500,8.512615,-14.241980,-7.708512,9.227543,-24.583891,-2.262998,5.206904,0.976068,-0.211755,-0.028943,0.040174
118,0.294230,-4.664191,8.821316,-11.449742,-0.131589,5.890014,-25.023262,-2.275742,5.490763,0.975145,-0.215418,-0.029739,0.042454
119,0.186211,-4.432672,9.075727,-3.237826,6.653468,1.552547,-25.270489,-2.124501,5.557073,0.974664,-0.217572,-0.028670,0.043243
120,0.138562,-4.204786,9.243276,4.045962,10.879436,-1.524206,-25.252604,-1.859948,5.432888,0.974760,-0.217566,-0.026178,0.042697
121,-0.077267,-4.058708,9.219738,10.140971,15.158790,-3.203999,-25.008598,-1.500466,5.177276,0.975328,-0.215696,-0.022548,0.041258
122,-0.448945,-3.783865,9.246696,16.763859,18.949852,-3.484506,-24.552664,-1.031017,4.837825,0.976304,-0.212058,-0.017757,0.039327
123,-0.427179,-3.454525,9.149440,22.001308,17.819492,-3.311813,-23.901829,-0.518578,4.483162,0.977603,-0.206740,-0.012523,0.037328
124,-0.386761,-3.443592,9.222328,21.953979,15.543768,-3.054150,-23.167694,-0.051017,4.164117,0.978988,-0.200653,-0.007731,0.035501
125,-0.345642,-3.410851,9.231915,19.559999,13.647106,-2.546812,-22.476576,0.361231,3.889496,0.980235,-0.194882,-0.003524,0.033899
126,-0.393031,-3.372772,9.332911,14.725307,11.785969,-1.443783,-21.907297,0.728586,3.667817,0.981220,-0.190113,0.000158,0.032626
127,-0.261927,-3.205150,9.278023,23.238796,11.361044,1.061152,-21.276951,1.084929,3.519834,0.982250,-0.184802,0.003631,0.031929
128,-0.126960,-3.236566,9.293318,13.371210,3.773530,0.239785,-20.668356,1.328413,3.449984,0.983204,-0.179639,0.005999,0.031691
129,-0.011326,-3.243825,9.337971,5.193272,-1.958457,-0.911283,-20.359440,1.352857,3.429050,0.983687,-0.176993,0.006327,0.031532
130,0.156041,-3.283720,9.265546,-3.259643,0.546908,-1.492323,-20.327888,1.316880,3.399774,0.983749,-0.176712,0.006072,0.031224
131,0.537900,-3.367708,9.158072,-5.017612,-4.891078,-3.366000,-20.466974,1.220775,3.349119,0.983561,-0.177880,0.005288,0.030648
132,0.709062,-3.670981,9.327937,-9.282767,-8.792588,-5.167712,-20.706301,0.957260,3.296110,0.983234,-0.179871,0.003046,0.029791
133,0.620962,-3.511979,9.474668,-5.104810,-9.942711,-7.195296,-20.947180,0.592142,3.214544,0.982912,-0.181851,-0.000019,0.028520
134,0.648173,-3.482515,9.351215,-1.000491,-11.674320,-7.213084,-21.049597,0.169789,3.119314,0.982803,-0.182633,-0.003515,0.027030
135,0.485186,-3.643416,9.219937,-2.267090,-12.227951,-4.635281,-21.103992,-0.272915,3.078177,0.982743,-0.182998,-0.007259,0.025969
136,-0.028603,-3.552150,9.043265,-2.089470,-8.675695,-0.543997,-21.176868,-0.629003,3.123359,0.982620,-0.183535,-0.010401,0.025780
137,-0.238606,-3.570842,8.753667,-2.723179,-5.828750,4.761635,-21.258945,-0.828927,3.276409,0.982451,-0.184173,-0.012380,0.026763
138,-0.186762,-3.911458,8.648396,-7.325080,-4.978885,9.089967,-21.430576,-0.912686,3.557063,0.982105,-0.185590,-0.013592,0.029014
139,-0.173253,-4.037521,8.675446,-9.264094,-4.113995,11.475824,-21.713005,-0.927548,3.931638,0.981544,-0.187960,-0.014406,0.032165
140,-0.017980,-4.140742,8.938910,-8.809430,-3.221712,11.695349,-22.020613,-0.897163,4.335654,0.980917,-0.190552,-0.014904,0.035635
141,0.219481,-4.264007,9.055090,-6.788566,-2.354735,9.146836,-22.285994,-0.852266,4.692482,0.980357,-0.192792,-0.015202,0.038729
142,0.326717,-4.203392,9.194026,-3.784991,-0.813561,5.160751,-22.465704,-0.810320,4.933115,0.979970,-0.194313,-0.015313,0.040835
143,0.259540,-4.061953,9.148976,-6.835078,-1.475646,1.438475,-22.644329,-0.803365,5.049341,0.979624,-0.195827,-0.015515,0.041816
144,0.017665,-3.981544,9.125602,-1.631297,6.859415,1.867801,-22.785664,-0.699251,5.065498,0.979373,-0.197074,-0.014705,0.042115
145,-0.272225,-3.543524,8.994601,11.968095,16.135489,3.174064,-22.612734,-0.313240,4.995245,0.979681,-0.195751,-0.011222,0.042197
147,-0.221393,-3.647693,8.953952,7.246725,11.737453,2.227329,-22.292339,0.150503,4.901295,0.980228,-0.193191,-0.006978,0.042206
148,-0.338115,-3.628303,9.068435,7.052569,11.367959,2.637223,-22.054440,0.537691,4.830981,0.980616,-0.191297,-0.003460,0.042264
149,-0.290425,-3.591839,9.144167,6.687737,6.556900,1.487561,-21.826027,0.840491,4.783121,0.980976,-0.189449,-0.000704,0.042360
150,0.002637,-3.645086,9.319397,3.593620,-4.997596,-2.393850,-21.655024,0.859046,4.759535,0.981264,-0.187991,-0.000443,0.042189
151,0.247258,-3.829867,9.405846,-0.788848,-5.438886,-2.003162,-21.608309,0.670343,4.755681,0.981366,-0.187526,-0.002036,0.041849
152,0.274780,-3.601668,9.427263,0.682288,-6.003896,-3.517787,-21.610226,0.459148,4.740427,0.981391,-0.187470,-0.003821,0.041373
153,0.473946,-3.561336,9.340165,-0.345581,-7.827889,-4.089926,-21.604818,0.198129,4.707411,0.981436,-0.187334,-0.006000,0.040664
154,0.372657,-3.735320,9.250284,-1.927863,-6.925095,-5.258575,-21.642756,-0.087867,4.653199,0.981413,-0.187562,-0.008374,0.039730
155,0.018818,-3.499849,9.019783,-0.616271,-3.146012,-5.719469,-21.684814,-0.311408,4.545154,0.981393,-0.187854,-0.010126,0.038435
156,-0.234461,-3.462129,8.980757,-2.139592,0.401292,-4.109755,-21.729940,-0.414485,4.409857,0.981367,-0.188218,-0.010802,0.037103
157,-0.373328,-3.572693,9.078632,-3.595136,1.941548,-1.417709,-21.824835,-0.412418,4.309843,0.981243,-0.189040,-0.010650,0.036241
158,-0.385238,-3.647859,9.063409,-2.142355,12.798775,3.888504,-21.920206,-0.169114,4.256551,0.981092,-0.189940,-0.008509,0.036179
159,-0.352606,-3.552351,9.119088,2.742879,11.721554,5.094128,-21.910276,0.265899,4.243022,0.981084,-0.189994,-0.004759,0.036785
160,-0.169150,-3.693891,9.232404,1.273583,4.268978,3.371414,-21.843151,0.565790,4.274806,0.981157,-0.189512,-0.002222,0.037555
161,-0.064594,-3.637073,9.216093,3.695356,0.462444,3.160039,-21.759598,0.679444,4.346600,0.981259,-0.188831,-0.001339,0.038358
162,0.044435,-3.563314,9.180061,5.120761,0.750294,2.929616,-21.611618,0.735723,4.433490,0.981466,-0.187581,-0.000950,0.039196
163,-0.169737,-3.517472,9.079667,5.175174,3.161985,4.366775,-21.438791,0.840986,4.522702,0.981704,-0.186134,-0.000134,0.040132
164,-0.215432,-3.319172,9.018365,11.224141,5.262617,7.276724,-21.163322,1.042304,4.652480,0.982076,-0.183841,0.001480,0.041566
165,-0.183219,-3.245207,8.971902,4.572232,2.148956,10.817790,-20.895275,1.265800,4.889715,0.982381,-0.181624,0.003118,0.043949
166,-0.239653,-3.145146,9.040054,3.451776,0.137626,14.388034,-20.752653,1.450961,5.268847,0.982423,-0.180480,0.004164,0.047486
167,-0.269616,-2.975631,9.014171,3.867051,-1.963248,17.559601,-20.617149,1.610644,5.777894,0.982384,-0.179401,0.004792,0.052094
168,-0.153350,-2.760778,9.234130,3.306241,-4.404882,18.371233,-20.480276,1.721474,6.376142,0.982289,-0.178301,0.004874,0.057388
169,0.036742,-2.370918,9.211002,6.580421,-6.091414,14.362779,-20.298271,1.747607,6.948732,0.982266,-0.176776,0.004306,0.062329
170,0.154275,-2.353571,9.223699,7.985574,-6.261309,8.371891,-20.042841,1.684835,7.375615,0.982433,-0.174568,0.003257,0.065885
171,0.357988,-2.388810,9.016839,8.397216,-6.341117,1.620331,-19.763468,1.543895,7.603828,0.982754,-0.172102,0.001865,0.067625
172,0.389956,-2.384832,9.015602,8.655856,-4.549503,-5.469057,-19.479342,1.351254,7.604402,0.983217,-0.169558,0.000379,0.067342
173,0.290364,-2.471408,8.921812,9.366212,-3.443104,-6.868476,-19.182360,1.157339,7.454439,0.983777,-0.166903,-0.000893,0.065774
174,0.232439,-3.135035,9.164518,4.160407,-14.301277,-6.407963,-18.958874,0.805508,7.341899,0.984223,-0.164796,-0.003625,0.064306
175,0.366770,-3.273127,9.272717,-0.658768,-17.093067,-6.239383,-18.900597,0.242219,7.312551,0.984396,-0.163990,-0.008390,0.063251
176,0.158819,-3.445654,9.589160,0.269075,-3.757687,0.125921,-18.907032,-0.119557,7.328953,0.984413,-0.163846,-0.011525,0.062875
177,0.299037,-3.916174,9.945512,-1.976950,-4.425020,3.969679,-18.935760,-0.226433,7.437732,0.984320,-0.164022,-0.012614,0.063653
178,0.561835,-4.116836,9.940145,-2.593889,-4.396057,0.436480,-19.012486,-0.341576,7.554999,0.984153,-0.164602,-0.013814,0.064486
179,0.399695,-4.155776,9.839204,-3.046083,-1.409698,-3.809666,-19.106375,-0.451368,7.533458,0.984037,-0.165348,-0.014779,0.064131
180,0.048234,-4.297346,9.810142,-4.414851,1.772936,-4.183011,-19.229715,-0.489355,7.405653,0.983932,-0.166402,-0.014988,0.062962
181,0.079311,-4.290539,9.630539,-4.715725,2.002219,-4.968163,-19.380526,-0.480397,7.240932,0.983801,-0.167723,-0.014753,0.061541
182,-0.070395,-4.169508,9.149146,-5.754972,2.693231,-7.040446,-19.553246,-0.473307,7.026142,0.983660,-0.169237,-0.014468,0.059686
183,-0.277424,-4.205760,8.853255,-7.154748,3.419404,-5.397888,-19.766563,-0.447103,6.796641,0.983459,-0.171111,-0.014011,0.057728
184,-0.284613,-4.111178,8.783495,-7.358681,2.907870,-3.995227,-20.007114,-0.401234,6.613565,0.983186,-0.173220,-0.013462,0.056198
185,-0.246164,-3.982655,8.699059,-7.291882,1.735540,-2.817210,-20.250404,-0.367673,6.480326,0.982879,-0.175339,-0.013090,0.055078
186,-0.158652,-4.033353,8.783913,-26.015629,5.361190,0.496247,-20.805086,-0.270497,6.402611,0.982050,-0.180151,-0.012401,0.054501
187,-0.167156,-3.948955,8.928886,-19.152493,4.413763,2.156853,-21.557840,-0.102797,6.385032,0.980841,-0.186680,-0.011295,0.054541
188,-0.125802,-3.939022,9.175077,-7.373932,-1.686477,-0.040866,-21.999971,-0.047599,6.400985,0.980101,-0.190488,-0.011060,0.054725
189,0.095317,-3.950657,8.866051,-7.178778,-3.201563,-1.810914,-22.242529,-0.134713,6.402911,0.979702,-0.192521,-0.011924,0.054572
190,0.143579,-4.062462,9.058665,-8.845261,-2.991743,-2.190129,-22.509521,-0.255529,6.380504,0.979271,-0.194747,-0.013045,0.054147
191,0.095004,-4.068400,9.057919,-6.761872,-1.266033,-3.172606,-22.769352,-0.355422,6.325345,0.978860,-0.196926,-0.013926,0.053474
192,0.137598,-4.083735,9.062101,-4.541473,0.040539,-5.832701,-22.956856,-0.432517,6.194987,0.978602,-0.198507,-0.014446,0.052204
193,0.101265,-4.017664,9.107321,-0.268353,1.538848,-5.552781,-23.035561,-0.482357,6.010010,0.978551,-0.199179,-0.014586,0.050528
194,-0.042923,-4.068365,9.344622,3.343429,2.727041,-3.080560,-22.982996,-0.473100,5.849766,0.978711,-0.198755,-0.014206,0.049182
195,-0.100021,-3.931197,9.175165,7.986627,7.307871,0.172763,-22.793409,-0.337820,5.740061,0.979078,-0.197208,-0.012780,0.048501
196,-0.139625,-3.803048,9.134865,10.619969,7.395810,1.243325,-22.483082,-0.102503,5.667490,0.979623,-0.194664,-0.010514,0.048315
197,-0.182924,-3.770047,9.146052,11.102676,6.890479,4.565814,-22.121061,0.154563,5.666742,0.980212,-0.191677,-0.008161,0.048772
198,-0.209740,-3.518711,9.061351,16.583549,6.170442,6.049625,-21.659275,0.422593,5.749740,0.980913,-0.187833,-0.005806,0.049953
199,-0.144251,-3.356349,9.168444,18.432068,2.593433,6.786156,-21.074377,0.636575,5.895861,0.981768,-0.182910,-0.003951,0.051575
200,-0.077172,-3.343200,9.218554,15.003787,-0.733975,7.080261,-20.514721,0.747653,6.101079,0.982541,-0.178155,-0.003065,0.053525
201,0.011293,-3.301697,9.253802,12.367568,-4.062252,6.939914,-20.055363,0.753793,6.348079,0.983128,-0.174212,-0.003173,0.055666
202,0.034753,-3.142303,9.215416,11.606683,-4.747488,6.924578,-19.652475,0.694251,6.615405,0.983611,-0.170718,-0.003887,0.057883
203,0.112166,-3.398993,9.159698,-2.491413,-6.681124,6.336460,-19.497524,0.588854,6.887502,0.983715,-0.169324,-0.005116,0.060069
204,0.054117,-3.366620,9.120732,-4.664916,-4.273192,5.136948,-19.614586,0.481103,7.128946,0.983427,-0.170261,-0.006461,0.061976
205,0.007291,-3.339562,9.056194,-6.195005,-2.142588,4.226129,-19.794102,0.433105,7.311950,0.983065,-0.171765,-0.007244,0.063464
206,0.015403,-3.460585,9.035657,-6.126982,-0.415373,3.903904,-19.998367,0.439172,7.453901,0.982677,-0.173511,-0.007520,0.064678
207,0.012626,-3.617881,9.118517,-7.083941,-0.376577,2.330240,-20.217733,0.462510,7.556035,0.982282,-0.175398,-0.007600,0.065575
208,0.010818,-3.637269,9.164321,-5.854915,-0.648686,0.450784,-20.432981,0.462617,7.605426,0.981922,-0.177240,-0.007799,0.065984
209,-0.016291,-3.759951,9.169538,-6.532670,-0.567374,-0.541422,-20.639397,0.443129,7.611105,0.981601,-0.178997,-0.008093,0.065988
210,-0.013078,-3.843051,9.075557,-7.731476,-0.850388,-1.136610,-20.877270,0.411137,7.593328,0.981242,-0.181017,-0.008476,0.065768
211,-0.058846,-3.825491,9.133009,-8.155910,-0.701580,-1.532207,-21.142275,0.371049,7.561069,0.980844,-0.183266,-0.008920,0.065408
212,-0.056739,-3.755436,9.159996,-7.384324,-0.866934,-1.564749,-21.401516,0.327970,7.522455,0.980455,-0.185463,-0.009374,0.064988
213,-0.066905,-3.644902,9.234868,-5.592964,-0.486343,-1.246495,-21.617992,0.289808,7.487129,0.980128,-0.187297,-0.009765,0.064606
214,-0.026841,-3.652246,9.206329,-4.963029,-0.574396,-0.699008,-21.794043,0.261393,7.463545,0.979856,-0.188789,-0.010069,0.064342
215,0.049015,-3.533354,9.259124,-3.229854,-0.352423,-2.107507,-21.930748,0.229633,7.425885,0.979655,-0.189943,-0.010355,0.063956
216,0.123830,-3.525704,9.165147,-2.516172,0.579987,-4.020543,-22.026873,0.194944,7.329746,0.979553,-0.190755,-0.010545,0.063067
217,0.136519,-3.650122,9.095294,-4.538162,1.659135,-5.887901,-22.144981,0.167452,7.162692,0.979450,-0.191765,-0.010565,0.061583
218,0.134008,-3.590649,9.034979,-5.688321,2.623836,-8.445181,-22.316101,0.143144,6.914563,0.979296,-0.193238,-0.010447,0.059406
219,0.040380,-3.518329,9.065045,-5.718698,4.344456,-9.989687,-22.507010,0.133383,6.586246,0.979140,-0.194894,-0.010071,0.056566
220,-0.056564,-3.535491,9.207929,-7.363640,5.075205,-9.914417,-22.725986,0.150760,6.219667,0.978940,-0.196804,-0.009401,0.053446
221,-0.052202,-3.504221,9.224323,-7.925328,4.001923,-10.593408,-22.981817,0.157381,5.845958,0.978666,-0.199022,-0.008814,0.050245
222,-0.117918,-3.297221,9.248315,-4.973037,3.941411,-11.029510,-23.197742,0.137821,5.462509,0.978454,-0.200886,-0.008404,0.046920
223,-0.165434,-3.438541,9.257181,-6.648104,3.816817,-10.849451,-23.392265,0.112466,5.076447,0.978267,-0.202565,-0.008018,0.043565
224,-0.063908,-3.322360,9.115233,-6.372049,2.592305,-12.470070,-23.609848,0.055391,4.677440,0.978030,-0.204429,-0.007876,0.040043
225,-0.025232,-3.421142,8.876367,-10.214471,2.865468,-13.274857,-23.886316,-0.034122,4.248037,0.977683,-0.206788,-0.007961,0.036199
226,-0.143984,-3.490059,8.797492,-15.733772,4.133245,-11.002026,-24.318317,-0.092979,3.831099,0.977025,-0.210484,-0.007833,0.032506
227,-0.162180,-3.740715,8.936927,-23.564402,4.011525,-7.339912,-24.972767,-0.097291,3.496746,0.975898,-0.216082,-0.007425,0.029605
228,-0.108933,-4.234150,8.876986,-31.550541,2.355681,-2.514928,-25.891050,-0.072340,3.302932,0.974183,-0.223914,-0.007071,0.027946
229,-0.201189,-4.417499,9.109273,-29.676067,1.858465,3.056661,-26.911413,-0.005871,3.279825,0.972152,-0.232597,-0.006709,0.027820
230,-0.285313,-4.437881,9.272882,-19.267099,-0.102759,9.769691,-27.726921,0.117847,3.456480,0.970420,-0.239530,-0.006228,0.029527
231,-0.318506,-4.603288,9.293271,-6.458517,-1.959823,15.622826,-28.154331,0.285229,3.846628,0.969399,-0.243172,-0.005750,0.033159
232,-0.131223,-4.760735,8.894197,3.302984,-5.288074,18.403667,-28.203407,0.445997,4.403756,0.969105,-0.243607,-0.005589,0.038210
233,-0.154319,-4.415522,8.928159,14.328979,-6.645794,21.109608,-27.903624,0.579769,5.078588,0.969480,-0.241083,-0.005777,0.044216
234,-0.060323,-4.491952,8.756519,15.627508,-7.989820,23.834621,-27.395641,0.710831,5.855418,0.970196,-0.236795,-0.006076,0.051089
235,0.147751,-4.494298,8.632809,12.257948,-8.154263,22.175909,-26.920168,0.821478,6.660551,0.970768,-0.232774,-0.006561,0.058160
236,0.190394,-4.541152,8.639597,5.231737,-6.141952,21.017754,-26.617245,0.933120,7.410653,0.970957,-0.230219,-0.006968,0.064758
237,0.002310,-4.318548,9.021634,4.869658,-2.645214,18.890139,-26.437098,1.099484,8.071159,0.970892,-0.228746,-0.006775,0.070697
238,-0.033213,-4.187316,9.012008,9.110259,-0.800438,15.062613,-26.192804,1.298834,8.603918,0.970991,-0.226765,-0.005988,0.075618
239,0.039039,-4.323539,8.989174,12.952675,0.893161,9.059840,-25.816305,1.476254,8.964735,0.971443,-0.223668,-0.004938,0.079040
240,-0.055560,-4.210020,9.089621,17.318573,-1.841979,-0.094429,-25.308027,1.526195,9.106475,0.972313,-0.219384,-0.004435,0.080359
241,-0.096254,-3.929651,9.118835,18.482763,4.144158,-5.578825,-24.714098,1.520683,9.004779,0.973510,-0.214342,-0.003875,0.079506
242,-0.093540,-3.890871,8.895142,14.036706,4.494820,-12.190543,-24.180916,1.528873,8.675344,0.974719,-0.209824,-0.002832,0.076737
243,-0.266291,-4.058564,8.970845,11.072811,7.888130,-14.923338,-23.775652,1.533448,8.178501,0.975778,-0.206387,-0.001627,0.072524
244,-0.316574,-3.844144,9.049206,14.304291,7.191883,-19.052858,-23.369390,1.537127,7.558713,0.976880,-0.202933,-0.000241,0.067253
245,-0.083320,-3.821852,8.985663,20.462368,1.353378,-24.317425,-22.808247,1.384717,6.837804,0.978298,-0.198068,0.000033,0.060839
246,-0.407970,-3.635882,9.125027,28.910955,2.629809,-20.984453,-22.001102,1.158546,6.114603,0.980075,-0.191066,-0.000267,0.054278
247,-0.280907,-3.524469,9.115624,37.655888,1.141338,-16.100784,-20.903084,0.991618,5.516048,0.982157,-0.181596,-0.000229,0.048886
248,0.122878,-3.464459,9.239577,35.111946,-4.039002,-15.733518,-19.697767,0.763074,5.035089,0.984239,-0.171169,-0.000959,0.044415
250,-0.155710,-3.478811,9.382051,29.630575,-0.871917,-9.875981,-18.622955,0.545795,4.659272,0.985965,-0.161857,-0.001881,0.040883
251,-0.465296,-3.337967,9.433104,27.283890,4.909684,-0.765831,-17.676361,0.554702,4.469491,0.987334,-0.153712,-0.001212,0.039273
252,-0.324897,-3.357108,9.356646,19.166231,2.336210,2.534034,-16.902456,0.679209,4.461171,0.988341,-0.147082,0.000138,0.039368
253,-0.307439,-3.214751,9.412785,17.828125,0.843418,5.290920,-16.284554,0.767453,4.571039,0.989072,-0.141780,0.000976,0.040424
254,-0.449783,-3.071382,9.400348,18.150154,1.711472,7.989086,-15.682092,0.869479,4.772128,0.989720,-0.136616,0.001831,0.042276
255,-0.218291,-2.766578,9.434084,17.325886,-2.058971,9.170499,-15.086460,0.939862,5.049369,0.990303,-0.131501,0.002340,0.044743
256,-0.127932,-2.512979,9.488032,18.323881,-4.328965,10.522435,-14.486799,0.920797,5.394058,0.990841,-0.126316,0.002030,0.047690
257,0.188527,-2.542282,9.475526,16.071491,-6.351865,5.908917,-13.908921,0.815449,5.703311,0.991346,-0.121279,0.001031,0.050244
258,0.040660,-2.750224,9.535507,11.226011,-3.171912,1.478462,-13.452009,0.690230,5.860635,0.991765,-0.117272,-0.000013,0.051473
259,-0.077849,-2.531273,9.328956,12.011292,-1.076334,-0.066861,-13.064301,0.626598,5.899750,0.992145,-0.113888,-0.000429,0.051749
260,-0.227643,-2.439475,9.284330,3.329356,4.100127,-0.577964,-12.808879,0.673251,5.877940,0.992401,-0.111697,0.000112,0.051606
261,-0.459554,-2.556304,9.355950,-6.019875,11.744619,0.679774,-12.854524,0.931067,5.820820,0.992354,-0.112204,0.002380,0.051362
262,-0.625797,-2.584728,9.340226,0.634075,3.008701,4.528212,-12.943760,1.190087,5.850392,0.992219,-0.113089,0.004554,0.051873
263,-0.450583,-2.422387,9.376286,-8.584748,5.217513,9.975977,-13.071808,1.378032,6.055192,0.991970,-0.114290,0.005919,0.053837
264,-0.434685,-2.357095,9.484512,-4.708256,-1.950182,10.631963,-13.285258,1.509447,6.377203,0.991579,-0.116215,0.006630,0.056766
265,-0.347941,-2.526437,9.547094,-9.094813,-3.441644,11.303943,-13.505577,1.506599,6.753724,0.991162,-0.118140,0.006108,0.060033
266,-0.175034,-2.682754,9.470462,-11.411439,-4.818410,11.736525,-13.836861,1.463695,7.159497,0.990605,-0.121003,0.005135,0.063514
267,0.040101,-2.605073,9.557331,-9.622907,-4.845582,8.649245,-14.178280,1.389709,7.528224,0.990044,-0.123928,0.003907,0.066636
268,-0.030816,-2.516746,9.567407,-9.226682,-3.075607,5.940048,-14.486124,1.322019,7.796532,0.989560,-0.126557,0.002847,0.068889
269,-0.028058,-2.588241,9.605100,-10.529506,-2.389406,4.643940,-14.810985,1.278568,7.990299,0.989087,-0.129340,0.002058,0.070521
270,0.031597,-2.462258,9.515512,-9.145460,-1.810660,2.512894,-15.135966,1.241816,8.123659,0.988640,-0.132125,0.001387,0.071635
271,0.061973,-2.401827,9.553760,-9.878565,-1.096709,0.769309,-15.451631,1.209544,8.189215,0.988237,-0.134829,0.000834,0.072167
272,-0.125178,-2.467378,9.578955,-12.756737,1.299997,-0.358752,-15.828765,1.214698,8.194900,0.987783,-0.138084,0.000634,0.072224
273,-0.184609,-2.504120,9.579890,-12.557558,2.425643,-1.134675,-16.251551,1.267546,8.153866,0.987283,-0.141759,0.000874,0.071937
274,-0.236314,-2.438791,9.593742,-11.601799,3.287931,-1.951433,-16.655941,1.344336,8.077574,0.986810,-0.145287,0.001378,0.071379
275,-0.230326,-2.515079,9.585594,-11.868727,2.844800,-1.685954,-17.049225,1.424618,7.989920,0.986345,-0.148719,0.001938,0.070732
276,-0.350200,-2.596993,9.616748,-11.942926,3.300502,-1.054464,-17.447975,1.508876,7.915897,0.985850,-0.152198,0.002515,0.070212
277,-0.245117,-2.565445,9.596890,-10.746821,1.526346,-0.623350,-17.827511,1.577054,7.864872,0.985357,-0.155501,0.002938,0.069873
278,-0.234730,-2.634004,9.583502,-11.068185,0.563069,0.703983,-18.191357,1.610565,7.855344,0.984857,-0.158647,0.003018,0.069846
279,-0.159540,-2.594160,9.532836,-10.066504,-0.977695,1.702800,-18.542467,1.616604,7.895593,0.984341,-0.161669,0.002799,0.070209
280,-0.111763,-2.860758,9.540230,-11.606503,-2.042551,2.749004,-18.901268,1.592706,7.982025,0.983782,-0.164738,0.002250,0.070925
281,-0.044279,-2.805842,9.536506,-9.122669,-2.595371,2.635410,-19.243727,1.548949,8.092122,0.983226,-0.167653,0.001501,0.071813
282,-0.080442,-2.798456,9.526313,-7.962332,-2.324123,3.070282,-19.525366,1.503147,8.209058,0.982747,-0.170043,0.000758,0.072752
283,-0.051294,-2.859983,9.518670,-7.180121,-2.365280,2.934158,-19.774618,1.463178,8.329630,0.982307,-0.172157,0.000076,0.073728
284,-0.048282,-3.029793,9.492128,-7.173128,-2.073424,2.324357,-20.011126,1.423430,8.437244,0.981888,-0.174160,-0.000581,0.074590
285,-0.127780,-2.816532,9.432709,-3.620120,-1.043371,2.384693,-20.188759,1.401631,8.528830,0.981562,-0.175667,-0.001023,0.075341
286,-0.110680,-2.921490,9.404705,-4.060834,-1.153717,2.261403,-20.314684,1.394061,8.614184,0.981314,-0.176740,-0.001303,0.076059
287,-0.056424,-3.010135,9.394810,-3.645546,-1.335143,1.120981,-20.441500,1.374809,8.681493,0.981077,-0.177813,-0.001656,0.076604
288,-0.082517,-3.014523,9.370849,-2.895810,-1.038515,0.525096,-20.549585,1.347366,8.721047,0.980888,-0.178720,-0.002025,0.076899
289,-0.139685,-3.065430,9.421144,-2.980467,-0.675821,0.407638,-20.646950,1.326092,8.745654,0.980724,-0.179540,-0.002311,0.077075
290,-0.070659,-3.110805,9.451302,-3.168207,-1.278681,-1.051404,-20.749393,1.291829,8.747134,0.980570,-0.180395,-0.002676,0.077032
291,-0.117206,-3.128951,9.463513,-2.476790,-0.805198,-1.500154,-20.844091,1.244270,8.719697,0.980449,-0.181175,-0.003103,0.076720
292,-0.175319,-3.172720,9.454488,-2.125920,-0.521933,-1.247542,-20.921549,1.207286,8.684784,0.980357,-0.181816,-0.003416,0.076361
293,-0.197598,-3.080105,9.411330,-0.255587,-0.733988,-0.963375,-20.961803,1.174566,8.657846,0.980318,-0.182140,-0.003680,0.076078
294,-0.072335,-3.178575,9.433956,-0.196358,-1.890618,-1.244431,-20.969709,1.120555,8.639130,0.980329,-0.182174,-0.004118,0.075832
295,-0.091745,-3.069483,9.460102,14.810305,-4.225986,-2.318857,-20.726496,1.004151,8.619905,0.980749,-0.180020,-0.004923,0.075495
296,-0.078905,-3.002728,9.400531,17.500181,-4.294409,-1.078633,-20.188051,0.851331,8.616404,0.981615,-0.175313,-0.005872,0.075255
297,-0.092576,-2.981949,9.379990,18.059856,-3.464577,0.423627,-19.594925,0.726067,8.650095,0.982508,-0.170149,-0.006607,0.075388
298,-0.019334,-3.172258,9.460570,11.548403,-4.725387,-0.337084,-19.100918,0.597807,8.696622,0.983222,-0.165826,-0.007450,0.075631
299,-0.084503,-2.963665,9.443959,17.973793,-1.874776,0.420501,-18.608545,0.494168,8.733599,0.983917,-0.161531,-0.008067,0.075834
300,-0.113659,-2.931961,9.362741,17.916922,0.208690,1.864568,-18.009991,0.479747,8.778322,0.984719,-0.156377,-0.007856,0.076240
301,-0.032297,-3.059797,9.451035,8.511415,-2.196353,-0.052194,-17.569208,0.457465,8.817102,0.985291,-0.152570,-0.007806,0.076573
302,-0.105609,-2.997915,9.649715,7.967845,-0.247335,-0.480107,-17.294537,0.415942,8.820947,0.985657,-0.150181,-0.007984,0.076571
303,-0.153852,-2.867215,9.530563,12.844417,1.409219,1.875227,-16.947544,0.441274,8.837432,0.986092,-0.147211,-0.007556,0.076769
304,-0.182856,-2.850141,9.538553,11.627668,1.414172,3.258099,-16.539116,0.511020,8.905759,0.986556,-0.143737,-0.006767,0.077471
305,-0.105014,-2.959417,9.560103,7.016228,-2.071223,2.783596,-16.227486,0.528961,9.005437,0.986873,-0.141060,-0.006524,0.078369
306,-0.161544,-2.961613,9.550165,13.100739,-1.912737,3.456109,-15.891178,0.493967,9.123820,0.987206,-0.138133,-0.006739,0.079366
307,-0.034142,-2.917118,9.404758,13.680176,-2.606296,3.331370,-15.443765,0.451961,9.253058,0.987653,-0.134241,-0.006942,0.080457
308,0.036278,-3.095823,9.623357,12.102523,-2.345950,1.594517,-15.013322,0.393884,9.353977,0.988086,-0.130484,-0.007256,0.081286
309,0.106568,-3.085776,9.738122,12.952374,-2.245792,-1.360744,-14.595609,0.320849,9.377311,0.988547,-0.126828,-0.007615,0.081433
310,-0.001271,-3.213069,10.007833,9.291474,-1.569557,-2.380243,-14.225121,0.243656,9.332763,0.988992,-0.123580,-0.007970,0.080990
311,0.008225,-2.522635,10.446471,10.257621,-0.764690,-4.401263,-13.899680,0.178413,9.232588,0.989416,-0.120732,-0.008198,0.080079
312,-0.291459,-2.476911,11.868157,-4.904488,3.292638,-0.678772,-13.810779,0.199000,9.140282,0.989572,-0.119985,-0.007861,0.079309
313,-0.935399,-4.072597,12.746128,-30.313150,12.950373,11.771064,-14.397072,0.506517,9.253558,0.988831,-0.125252,-0.005737,0.080580
314,-0.653574,-4.835466,14.315695,-36.171333,7.537169,9.684949,-15.501966,0.928423,9.510933,0.987330,-0.135065,-0.003180,0.083232
315,-0.488518,-5.919493,14.408462,-25.399874,6.357932,10.890427,-16.523090,1.245723,9.776034,0.985832,-0.144078,-0.001524,0.085876
316,-0.409240,-6.671234,13.642727,-0.784324,6.422490,6.429875,-16.954285,1.532504,9.991364,0.985058,-0.147994,0.000341,0.088086
317,-0.292112,-6.940639,12.001346,24.820274,6.356702,1.751904,-16.551605,1.775504,10.061048,0.985461,-0.144711,0.002653,0.088984
318,0.081606,-5.227456,11.612860,64.156120,4.078936,-8.892698,-15.073895,1.910136,9.899568,0.987338,-0.132084,0.005147,0.087703
319,-0.276483,-5.089493,10.281117,72.965401,11.226465,-6.582810,-12.799919,2.094923,9.588632,0.989955,-0.112578,0.008788,0.085075
320,-0.439873,-4.163973,9.964617,82.099602,10.915093,-7.126084,-10.228672,2.411055,9.289909,0.992376,-0.090528,0.013669,0.082510
321,-0.556392,-2.448856,9.459743,96.770615,7.980807,-5.416807,-7.260651,2.690439,9.035653,0.994501,-0.064950,0.018370,0.080071
322,-0.509889,-1.591347,9.365801,89.743187,4.511817,-5.177761,-4.164051,2.880539,8.840087,0.995982,-0.038147,0.022244,0.077903
323,-0.454290,-0.580560,8.384768,78.263885,-2.682834,-5.372828,-1.374902,2.902434,8.663586,0.996729,-0.013873,0.024346,0.075805
324,-0.445755,0.658183,7.495378,69.974243,-4.112944,-5.563031,1.085397,2.788592,8.482944,0.996938,0.007643,0.024965,0.073705
325,-0.361331,2.359983,6.865003,58.677094,-1.729506,-4.785340,3.220192,2.697647,8.307144,0.996751,0.026312,0.025503,0.071722
326,-0.811883,1.927043,7.219707,6.094588,7.026653,-0.015050,4.295755,2.790967,8.232744,0.996489,0.035624,0.026963,0.070800
327,-1.045146,2.510030,7.178566,-7.751395,9.168269,1.591894,4.270373,3.058303,8.278154,0.996416,0.035222,0.029286,0.071110
328,-0.304326,1.937278,6.756522,-27.428196,0.033353,3.712018,3.689417,3.205196,8.376863,0.996488,0.030051,0.030228,0.072073
329,-0.241356,1.982066,6.376050,-26.387932,-0.356080,6.333888,2.801732,3.190417,8.543366,0.996588,0.022297,0.029573,0.073756
330,-0.603577,0.705480,5.336255,-37.200150,5.265884,3.776471,1.751679,3.265298,8.715212,0.996621,0.013071,0.029567,0.075507
331,0.105584,-0.199283,4.566279,-38.405815,-7.482801,-0.786453,0.494613,3.227702,8.764759,0.996681,0.002150,0.028410,0.076260
332,0.154736,-0.929969,3.679688,-37.648239,-9.050694,-4.662043,-0.777773,2.952384,8.673345,0.996770,-0.008714,0.025174,0.075764
333,-0.198619,-0.767336,3.061348,-23.894003,0.787129,-8.528528,-1.814321,2.810098,8.456257,0.996825,-0.017592,0.023284,0.074084
334,-0.323077,-1.299234,2.489028,-28.963593,3.018401,-9.996145,-2.710790,2.861812,8.145469,0.996843,-0.025360,0.023222,0.071570
335,-0.009926,-1.096099,2.742712,-12.778852,-8.731294,-8.428436,-3.421263,2.750303,7.843704,0.996877,-0.031414,0.021891,0.069060
336,-0.087550,-0.712337,2.796563,1.737913,-8.786764,-6.703592,-3.615634,2.443655,7.608940,0.997028,-0.032885,0.019173,0.066975
337,0.051394,-0.932590,3.230755,-0.731905,-13.170979,-0.827791,-3.602872,2.070745,7.506305,0.997162,-0.032545,0.015965,0.065982
338,-0.005440,-1.159752,4.168485,4.654575,-13.820333,-0.946694,-3.537343,1.619916,7.504870,0.997253,-0.031720,0.012079,0.065843
339,-0.097179,-0.690001,5.797809,11.819214,-10.488562,0.720279,-3.262289,1.215266,7.524960,0.997364,-0.029098,0.008710,0.065891
340,0.381312,-0.168268,8.408246,11.119785,-11.616692,-3.191417,-2.880320,0.845196,7.503292,0.997503,-0.025561,0.005713,0.065594
341,-0.032599,0.350344,10.624844,1.705757,-5.368955,-6.321131,-2.668433,0.554659,7.358686,0.997649,-0.023547,0.003335,0.064267
342,-0.412964,0.585244,12.684373,-8.061134,1.031404,-10.122044,-2.776906,0.469278,7.088471,0.997780,-0.024437,0.002588,0.061900
343,-0.233435,0.592149,14.643247,-23.584908,1.606139,-13.107085,-3.307745,0.492468,6.699636,0.997859,-0.029063,0.002602,0.058531
344,-0.494078,0.254520,15.907111,-30.241280,4.479063,-14.198644,-4.209055,0.563512,6.238876,0.997823,-0.036935,0.002909,0.054561
345,-1.038930,0.037342,15.862666,-28.748138,4.100960,-8.369147,-5.196391,0.675045,5.852459,0.997638,-0.045572,0.003563,0.051263
347,-0.921695,-1.423029,15.957852,-28.670565,2.792101,-0.202672,-6.155281,0.774853,5.698966,0.997282,-0.053957,0.004075,0.050002
348,-0.161475,-1.726397,16.017179,-25.289633,-3.410090,-3.519926,-7.055414,0.756910,5.638496,0.996855,-0.061780,0.003558,0.049497
349,-0.718963,-1.936633,15.849817,-25.792942,0.848817,-0.562775,-7.907506,0.705908,5.576155,0.996400,-0.069167,0.002784,0.048949
350,-0.099236,-2.735904,15.622885,-36.082302,-3.632333,-0.419116,-8.938812,0.657476,5.567052,0.995745,-0.078111,0.001929,0.048861
351,0.039041,-4.043590,15.235726,-49.205376,-4.037328,-4.008974,-10.360635,0.519034,5.515433,0.994732,-0.090402,0.000162,0.048324
352,0.193005,-3.855731,14.591225,-40.155823,-2.239469,-10.859469,-11.851465,0.368986,5.292475,0.993575,-0.103277,-0.001567,0.046254
353,-0.206334,-4.564129,13.335178,-36.503700,1.203844,-8.769355,-13.130790,0.282306,4.976786,0.992490,-0.114335,-0.002519,0.043414
354,0.000199,-4.977230,12.718940,-24.232212,3.032414,-5.559455,-14.144252,0.294582,4.728417,0.991531,-0.123119,-0.002530,0.041254
355,-0.208968,-4.597208,12.019924,5.481084,5.238249,-4.517410,-14.457960,0.386692,4.531829,0.991253,-0.125868,-0.001630,0.039647
356,-0.450743,-3.783705,11.371483,42.021164,9.846259,0.102398,-13.667459,0.613093,4.399616,0.992125,-0.119103,0.000741,0.038747
357,-0.382318,-3.167500,10.804444,55.737263,8.314649,4.411891,-12.038383,0.925415,4.405933,0.993687,-0.105089,0.003995,0.039073
358,0.037741,-2.046206,10.477346,69.566658,5.919829,3.477209,-9.949110,1.183805,4.490142,0.995380,-0.087045,0.006887,0.039919
359,-0.244689,-0.528293,9.326319,84.354828,6.863677,3.451442,-7.382988,1.411528,4.572818,0.997023,-0.064818,0.009714,0.040601
360,-0.398849,0.409464,8.733043,73.468613,9.772111,5.141540,-4.751057,1.702056,4.685960,0.998170,-0.042016,0.013133,0.041457
361,-0.213448,1.168390,8.032469,54.747883,6.879543,4.438576,-2.610694,1.989480,4.826673,0.998687,-0.023488,0.016382,0.042486
362,-0.563543,1.971496,7.459449,35.670204,12.071894,7.885700,-1.096897,2.311835,5.021901,0.998782,-0.010445,0.019734,0.043992
363,-0.806678,2.651863,7.272095,11.382009,11.808069,10.856937,-0.299371,2.714201,5.328642,0.998632,-0.003710,0.023537,0.046533
364,-0.781682,1.943083,7.724640,-25.062744,9.605382,11.925067,-0.508446,3.074461,5.705588,0.998385,-0.005765,0.026572,0.049871
365,-0.018459,1.536108,7.230675,-34.426781,-1.558159,13.069212,-1.477276,3.216739,6.119368,0.998079,-0.014366,0.027337,0.053712
366,-0.116823,0.957447,6.622788,-42.148911,-0.190759,13.426547,-2.728988,3.203980,6.561460,0.997650,-0.025364,0.026540,0.057854
367,-0.363808,0.358837,5.862707,-39.397671,1.473417,12.166281,-4.063896,3.250799,6.986716,0.997052,-0.037104,0.026135,0.061874
368,0.119464,-0.971522,4.926826,-40.675083,-7.950945,10.231668,-5.376794,3.173988,7.368325,0.996369,-0.048567,0.024594,0.065457
369,0.350600,-1.479636,3.559201,-32.654579,-13.684491,5.822568,-6.583130,2.843417,7.671446,0.995712,-0.058928,0.020875,0.068186
370,-0.323677,-1.693920,2.536211,-30.213968,4.851850,0.171366,-7.625384,2.709858,7.788157,0.995098,-0.067925,0.019024,0.069312
371,-0.207276,-1.558829,1.853915,-30.431561,-0.056930,-3.227215,-8.638881,2.782358,7.727684,0.994477,-0.076755,0.019080,0.068999
372,0.276475,-1.649049,1.454159,-34.452980,-19.097157,-5.139362,-9.724135,2.445188,7.640486,0.993841,-0.085966,0.015567,0.068176
373,-0.378288,-1.499504,1.884656,-19.627748,3.795450,-0.788520,-10.627394,2.176613,7.586857,0.993225,-0.093640,0.012745,0.067618
374,-0.395516,-1.614409,2.586658,-9.487165,-1.078198,3.037404,-11.111568,2.228204,7.616385,0.992792,-0.097868,0.012881,0.067970
375,0.283054,-1.344780,4.536983,5.115764,-18.539181,-1.423654,-11.181213,1.912433,7.705932,0.992746,-0.098302,0.010026,0.068489
376,-0.414386,-0.903479,6.944072,9.889033,-6.972453,2.881245,-10.928151,1.499705,7.810918,0.992975,-0.095880,0.006512,0.069038
377,-0.485481,-0.625591,10.095802,4.126415,-2.069975,-3.888536,-10.694128,1.348528,7.822334,0.993186,-0.093764,0.005333,0.069002
378,-0.484053,-1.396323,12.518880,-24.361118,-0.471193,-4.619969,-11.034462,1.280083,7.691020,0.992992,-0.096668,0.004646,0.067823
379,-0.568508,-0.998397,14.700284,-18.782423,0.172274,-6.283749,-11.757410,1.239048,7.514000,0.992473,-0.102902,0.004022,0.066282
380,-0.712038,-0.607541,15.308439,-7.788238,0.337861,-2.729348,-12.203433,1.216348,7.365259,0.992153,-0.106746,0.003706,0.064988
381,-0.342983,-1.263672,15.877362,-11.550789,-1.410460,-4.993905,-12.528290,1.171329,7.243337,0.991922,-0.109531,0.003248,0.063901
382,0.041721,-2.344446,15.494748,-12.326992,-5.694765,-2.403914,-12.928047,1.028664,7.149107,0.991607,-0.112912,0.001884,0.062957
383,-0.007578,-1.682962,14.951015,13.022822,-6.203253,-2.633088,-12.916993,0.816509,7.111530,0.991666,-0.112703,0.000090,0.062425
384,0.362275,-2.145209,14.721896,-1.668800,-4.956975,-5.044291,-12.728803,0.606816,7.027649,0.991919,-0.110964,-0.001541,0.061497
385,0.135484,-2.965667,15.102651,-24.830069,-0.906150,-5.942391,-13.171960,0.470423,6.871305,0.991579,-0.114731,-0.002802,0.060002
386,-0.037175,-3.887296,15.716832,-39.237377,5.218306,-5.506442,-14.241462,0.494830,6.669254,0.990567,-0.123999,-0.002933,0.058253
387,-0.233457,-4.708931,16.213947,-41.157764,7.268794,-3.751607,-15.583334,0.656087,6.467060,0.989130,-0.135673,-0.001983,0.056659
388,-0.255912,-5.431269,15.893603,-26.593534,9.743192,-4.391135,-16.715227,0.890515,6.258073,0.987814,-0.145550,-0.000257,0.055131
389,-0.470936,-5.256564,14.751390,-0.487715,11.042519,-3.809822,-17.170729,1.182388,6.026772,0.987294,-0.149605,0.002341,0.053516
390,-0.928144,-5.455819,13.330910,16.109808,12.208161,2.394868,-16.913616,1.546400,5.891219,0.987628,-0.147542,0.005773,0.052806
391,-0.610043,-4.850554,11.411088,36.748959,8.550178,5.573873,-16.031946,1.916079,5.920876,0.988649,-0.140099,0.009334,0.053463
392,-0.528516,-3.609791,10.426614,46.541527,5.523989,7.825048,-14.638501,2.201517,6.075010,0.990146,-0.128205,0.012278,0.054992
393,-0.547093,-3.601175,10.613999,30.568052,5.507830,14.359802,-13.340818,2.469438,6.389991,0.991317,-0.117143,0.014897,0.057843
394,-0.501171,-3.490507,10.484914,30.637318,3.171280,17.530838,-12.298888,2.729349,6.876153,0.992022,-0.108319,0.017214,0.062154
395,-0.636086,-2.505825,10.044554,52.429234,2.160999,19.512127,-10.885672,2.940700,7.463840,0.992895,-0.096283,0.019318,0.067202
396,-0.297948,-1.419794,10.046349,67.020287,-4.321943,18.312147,-8.862767,3.012569,8.092105,0.994039,-0.078895,0.020693,0.072349
397,-0.188339,-0.958610,9.246524,71.735039,-3.700058,17.741150,-6.519366,2.959797,8.707018,0.995058,-0.058636,0.021395,0.077226
398,-0.315079,0.751746,7.571037,86.442627,-1.079546,12.216206,-3.858458,2.925319,9.211686,0.995812,-0.035594,0.022726,0.081085
399,-0.736049,1.638017,7.001719,64.917206,5.944924,10.379174,-1.317969,3.021666,9.583953,0.996067,-0.013659,0.025312,0.083806
400,-0.229665,1.688531,7.033805,22.789282,2.404019,7.730701,0.159499,3.164036,9.883236,0.995906,-0.000992,0.027625,0.086069
401,-0.403706,1.789188,6.974017,-4.838102,4.595706,5.128282,0.470684,3.280157,10.098465,0.995713,0.001571,0.028871,0.087858
402,-0.778003,1.908079,6.636049,-20.315426,7.801678,2.666840,0.059238,3.486550,10.229282,0.995559,-0.002197,0.030346,0.089092
403,-0.153223,1.454004,6.700622,-36.532215,-1.039402,4.003256,-0.881295,3.600262,10.339707,0.995389,-0.010486,0.030592,0.090302
404,0.050232,0.889208,5.713655,-37.852242,-6.386446,4.575923,-2.111997,3.480306,10.485394,0.995137,-0.021118,0.028551,0.091874
405,-0.183350,-0.023870,5.186155,-36.670403,-4.677720,0.778024,-3.348156,3.300327,10.582994,0.994823,-0.031732,0.025969,0.092983
406,-0.102297,-0.718892,4.066285,-28.331738,-5.702030,-0.417477,-4.430431,3.128501,10.600865,0.994512,-0.040993,0.023592,0.093325
407,0.202897,-0.987695,2.903456,-23.594852,-13.117627,-4.027446,-5.298275,2.809789,10.553392,0.994295,-0.048262,0.020138,0.092968
408,-0.301039,-1.509437,2.053218,-30.922440,0.676985,-5.226743,-6.213160,2.588237,10.419992,0.994040,-0.056004,0.017538,0.091869
409,-0.062047,-1.364321,2.148918,-15.900764,-7.463204,-5.735351,-7.001036,2.454983,10.252384,0.993797,-0.062710,0.015842,0.090465
410,0.047081,-1.066020,2.084769,-3.139660,-11.761631,-8.405697,-7.326009,2.107848,10.057740,0.993844,-0.065240,0.012686,0.088634
411,-0.224541,-1.606078,2.848942,-7.842332,-3.301082,-6.462965,-7.516369,1.827130,9.843879,0.993954,-0.066661,0.010228,0.086644
412,-0.174383,-1.007600,4.880247,13.935708,-8.725128,-9.104205,-7.421828,1.594585,9.612792,0.994222,-0.065652,0.008414,0.084503
413,-0.685860,-0.438531,7.258599,14.394691,-2.064388,-8.143872,-6.956428,1.380556,9.349681,0.994706,-0.061443,0.007041,0.082073
414,0.076152,-0.702123,9.676340,1.908157,-10.748937,-17.473040,-6.693543,1.117796,8.950815,0.995159,-0.058958,0.005153,0.078462
415,-0.760754,-0.510809,11.980259,-4.308050,-1.311771,-13.584629,-6.741863,0.857095,8.460625,0.995490,-0.059189,0.003109,0.074075
416,-0.231434,0.155995,14.086135,-10.515268,-5.331932,-14.530684,-6.995319,0.690895,8.008759,0.995657,-0.061278,0.001743,0.070068
417,-0.530256,-0.645755,14.882357,-22.265289,0.888332,-11.738820,-7.546165,0.561829,7.583819,0.995615,-0.065984,0.000530,0.066311
418,0.193637,-1.307540,15.217209,-28.286083,-4.959651,-10.514987,-8.391965,0.442777,7.226296,0.995312,-0.073265,-0.000765,0.063132
419,-0.473899,-1.242433,15.319302,-27.446915,2.086667,-4.053813,-9.322243,0.357805,6.993480,0.994817,-0.081300,-0.001850,0.061043
420,0.056408,-1.645920,14.676742,-28.660032,-1.344374,-3.063236,-10.258123,0.349490,6.875033,0.994183,-0.089420,-0.002328,0.059992
421,0.020876,-2.628411,14.217827,-32.223614,-0.110084,-4.646631,-11.273439,0.301560,6.753119,0.993418,-0.098204,-0.003171,0.058871
422,-0.147138,-3.222927,14.069876,-31.799208,-0.602575,-1.972099,-12.340928,0.267466,6.647661,0.992517,-0.107440,-0.003915,0.057894
423,-0.031086,-2.983301,14.237474,-24.661860,-0.923532,-6.057082,-13.282376,0.212788,6.522829,0.991667,-0.115569,-0.004738,0.056724
424,-0.303161,-3.515674,14.394650,-25.351658,0.122882,-5.913630,-14.116493,0.152909,6.332050,0.990897,-0.122764,-0.005464,0.054975
425,0.062054,-3.988263,14.975489,-25.250879,-0.869220,-6.870408,-14.960262,0.087384,6.129008,0.990067,-0.130037,-0.006205,0.053104
426,-0.258335,-3.868025,14.937341,-17.889648,2.300770,-8.518008,-15.679501,0.042678,5.875285,0.989349,-0.136243,-0.006622,0.050821
427,-0.323432,-3.682317,14.571690,-0.503949,4.935376,-7.165362,-15.986423,0.087652,5.591027,0.989101,-0.138927,-0.006025,0.048404
428,-0.379725,-4.035697,13.165832,12.619786,6.500472,-3.333617,-15.785157,0.223420,5.370679,0.989425,-0.137256,-0.004504,0.046674
429,-0.184745,-3.931653,12.032548,15.048757,5.923980,-1.402303,-15.324811,0.401997,5.239203,0.990008,-0.133355,-0.002621,0.045764
430,-0.216592,-3.405100,10.757634,20.151833,4.074187,-0.210296,-14.738751,0.556047,5.170062,0.990691,-0.128351,-0.000978,0.045351
431,-0.422488,-3.047865,9.985225,15.516732,4.336485,7.339083,-14.143410,0.721514,5.250288,0.991296,-0.123266,0.000603,0.046226
432,0.050495,-3.168020,10.288233,-0.533864,0.974737,8.900995,-13.890426,0.873294,5.491329,0.991450,-0.121140,0.001764,0.048470
433,-0.360983,-3.329953,10.882693,1.675344,4.218551,13.357083,-13.865792,1.046624,5.830627,0.991306,-0.121007,0.002916,0.051587
434,-0.175432,-2.584430,10.449549,29.734346,1.611840,13.102930,-13.334131,1.244716,6.236504,0.991640,-0.116508,0.004457,0.055285
435,-0.072089,-2.013715,10.514682,41.460045,1.494855,15.634440,-12.137194,1.399972,6.692832,0.992551,-0.106240,0.005957,0.059331
436,-0.013116,-1.057242,9.766286,61.242401,1.992957,13.877337,-10.413650,1.552940,7.163970,0.993760,-0.091409,0.007800,0.063441
437,-0.314269,-0.067521,8.422865,69.019218,5.081431,9.744964,-8.232695,1.732094,7.533549,0.995081,-0.072609,0.010328,0.066601
438,-0.118183,1.028762,7.552514,54.578381,3.101259,4.731711,-6.166421,1.896635,7.755520,0.996070,-0.054773,0.012852,0.068409
439,-0.501441,1.386203,7.015119,22.963034,8.025208,6.054837,-4.868816,2.097973,7.916877,0.996493,-0.043630,0.015315,0.069735
440,-0.601623,1.859171,6.835662,-0.861441,9.091763,5.602868,-4.493798,2.398600,8.086425,0.996468,-0.040574,0.018098,0.071258
441,-0.278466,1.306771,7.418694,-33.329472,3.238881,4.797459,-5.056824,2.618102,8.241651,0.996111,-0.045629,0.019595,0.072776
442,0.170906,0.935600,7.299740,-44.305508,-3.899128,6.558948,-6.342065,2.626313,8.430489,0.995413,-0.056834,0.018755,0.074636
443,0.147474,0.961746,6.953171,-39.786285,-4.469716,6.914857,-7.732729,2.515315,8.669990,0.994518,-0.068876,0.016740,0.076873
444,0.178141,0.115903,6.380421,-36.708107,-5.333095,3.777687,-8.998895,2.379496,8.870131,0.993593,-0.079798,0.014572,0.078698
445,0.406420,-1.162505,5.871553,-32.861969,-9.955904,-0.826851,-10.154720,2.136674,8.960922,0.992731,-0.089666,0.011603,0.079444
446,0.007829,-1.225034,3.963783,-19.164982,-5.508076,-0.168751,-11.020776,1.880592,8.991458,0.992059,-0.096998,0.008758,0.079583
447,-0.307598,-1.398191,3.236052,-13.452894,0.384041,-1.573336,-11.564749,1.791144,8.979731,0.991614,-0.101646,0.007617,0.079445
448,0.132891,-2.159485,2.750916,-18.712994,-9.503153,-8.611914,-12.104856,1.607685,8.844878,0.991253,-0.106190,0.005780,0.078147
450,0.435638,-1.858243,3.151557,0.725308,-18.361454,-8.860509,-12.408987,1.092190,8.658492,0.991183,-0.108479,0.001290,0.076069
451,-0.138420,-1.840346,3.473445,11.873290,-6.448767,-4.006747,-12.200687,0.642723,8.536159,0.991520,-0.106389,-0.002347,0.074595
452,0.133024,-1.671284,5.723537,23.989199,-12.716379,-6.363682,-11.603879,0.294672,8.432355,0.992163,-0.101004,-0.004881,0.073402
453,-0.013753,-1.451755,7.725161,23.575756,-11.389416,-5.241014,-10.811297,-0.136946,8.320709,0.992937,-0.093872,-0.008021,0.072113
454,-0.607150,-0.709214,10.171152,21.099907,-7.678157,0.981945,-10.066672,-0.462270,8.308409,0.993544,-0.087213,-0.010364,0.071808
455,-0.384346,-1.091808,12.487684,2.652664,-8.418728,0.346656,-9.671388,-0.722480,8.376010,0.993799,-0.083613,-0.012422,0.072238
456,-0.227590,-0.388767,14.027705,-2.284507,-9.336384,1.582490,-9.666502,-1.008716,8.457789,0.993747,-0.083377,-0.014960,0.072736
457,0.437845,-0.487165,14.962092,-13.381294,-8.337729,-0.833842,-9.928832,-1.296832,8.520327,0.993505,-0.085455,-0.017671,0.073025
458,0.262351,-0.571314,15.550048,-15.527993,-4.214508,-0.864851,-10.410924,-1.507643,8.529644,0.993121,-0.089494,-0.019812,0.072863
459,1.080245,-1.401701,14.986485,-17.781706,-4.898583,-2.919318,-10.965151,-1.668555,8.496001,0.992689,-0.094197,-0.021530,0.072340
460,0.686033,-1.267306,14.369517,-11.398714,0.336006,-4.182812,-11.448459,-1.766079,8.394608,0.992339,-0.098339,-0.022593,0.071285
461,0.749594,-1.954997,13.856042,-16.696348,3.544423,-7.848985,-11.910342,-1.743211,8.185170,0.992065,-0.102394,-0.022495,0.069401
462,0.316187,-2.473410,12.820176,-13.106837,4.623755,-5.733306,-12.399659,-1.657728,7.935178,0.991773,-0.106731,-0.021819,0.067222
463,0.468370,-3.290681,12.408990,-18.616446,3.411870,-3.682520,-12.923283,-1.561458,7.752718,0.991386,-0.111355,-0.021116,0.065638
464,0.082180,-3.139440,13.371554,-17.946911,4.705306,-3.827541,-13.528631,-1.458562,7.599806,0.990875,-0.116679,-0.020417,0.064310
465,-0.213517,-3.594021,14.193414,-20.920309,6.924280,-2.026682,-14.173018,-1.293708,7.458694,0.990287,-0.122370,-0.019203,0.063153
466,-0.197787,-4.574995,14.674863,-24.022549,8.319640,-2.122826,-14.919387,-1.065255,7.328010,0.989544,-0.128969,-0.017495,0.062157
467,-0.676795,-4.872773,14.692052,-7.884708,11.360543,0.491111,-15.449368,-0.755846,7.215863,0.988996,-0.133732,-0.014981,0.061471
468,-0.501350,-4.450977,13.938581,10.123333,10.083112,0.078688,-15.411258,-0.408747,7.130428,0.989076,-0.133603,-0.011866,0.061145
469,-0.338851,-4.611831,12.132681,15.398652,7.536464,-0.108998,-14.985527,-0.125386,7.053413,0.989592,-0.130087,-0.009104,0.060846
470,0.002821,-4.598472,10.504234,18.494619,3.244530,-1.454559,-14.420594,0.041836,6.982790,0.990248,-0.125301,-0.007282,0.060463
471,0.035280,-3.483700,9.325036,21.870810,0.350202,-4.538132,-13.747950,0.075644,6.871562,0.991022,-0.119510,-0.006519,0.059578
472,0.156331,-3.252896,8.974947,1.803174,0.167401,-7.044297,-13.353550,0.038714,6.682060,0.991527,-0.116090,-0.006441,0.057923
473,0.125869,-3.413761,9.410868,-13.271947,1.802815,-4.625272,-13.544802,0.025070,6.485342,0.991431,-0.117749,-0.006454,0.056196
474,-0.219824,-3.781088,10.282106,-4.293201,6.948397,-1.728155,-13.837780,0.141472,6.347985,0.991186,-0.120347,-0.005446,0.055114
475,-0.454280,-3.756550,10.930316,21.089792,9.749829,0.241583,-13.558338,0.406046,6.258207,0.991499,-0.118058,-0.002930,0.054622
476,-0.455374,-3.344232,11.352901,50.555031,8.403755,7.888819,-12.363720,0.731452,6.322826,0.992614,-0.107868,0.000398,0.055514
477,-0.357972,-2.439481,11.539095,78.700195,5.929622,12.904683,-10.205598,1.033964,6.616567,0.994290,-0.089310,0.003840,0.058278
478,0.012998,-1.098764,10.509151,101.605675,1.882243,11.148034,-7.194814,1.223371,6.993820,0.996074,-0.063275,0.006808,0.061540
479,-0.080389,-0.115060,9.050578,96.860291,2.949774,11.589828,-3.881679,1.339039,7.364170,0.997270,-0.034545,0.009479,0.064574
480,-0.606897,1.418566,7.816519,80.684669,7.403213,10.350190,-0.916180,1.526787,7.721751,0.997603,-0.008873,0.012754,0.067432
481,-0.146964,1.866876,6.659042,49.626244,1.142895,8.711188,1.263249,1.668319,8.038623,0.997386,0.009975,0.015294,0.069921
482,-0.202147,2.403759,6.053555,21.646040,2.597205,7.092876,2.458501,1.722499,8.304626,0.997056,0.020306,0.016541,0.072062
483,-0.650904,2.390800,6.566374,-14.498107,7.980428,2.350711,2.582842,1.892097,8.469459,0.996908,0.021254,0.018126,0.073443
484,-0.157666,2.483943,6.825751,-35.232803,-1.671500,4.479468,1.758107,1.993247,8.586761,0.996946,0.013994,0.018491,0.074577
485,0.704714,2.080909,7.051651,-48.016552,-12.139330,10.416445,0.378621,1.758559,8.830052,0.996914,0.002113,0.015554,0.076920
486,0.147512,1.892600,7.516036,-48.127342,-3.404515,8.698911,-1.214459,1.501510,9.149734,0.996661,-0.011608,0.012215,0.079889
487,0.569828,0.562139,6.345516,-44.019260,-8.684370,2.963236,-2.744776,1.307138,9.351968,0.996299,-0.024799,0.009413,0.081764
488,0.350940,-0.236823,5.160677,-28.798904,-8.282403,3.293065,-3.955904,1.031539,9.471907,0.995926,-0.035138,0.006116,0.082821
489,0.177753,-0.215803,4.113212,-9.254799,-5.221935,1.073073,-4.588623,0.812368,9.560973,0.995674,-0.040483,0.003723,0.083552
490,0.083110,-0.973066,3.061757,-11.103309,-5.922230,-1.127754,-4.927759,0.627184,9.575295,0.995555,-0.043295,0.001861,0.083619
491,0.052232,-1.965310,2.187458,-24.632788,-7.181036,-1.750371,-5.523632,0.405394,9.547421,0.995353,-0.048311,-0.000489,0.083293
492,-0.417974,-1.617259,2.336455,-1.975111,3.676564,2.096330,-5.967007,0.347857,9.559165,0.995154,-0.052120,-0.001316,0.083367
493,-0.288200,-1.614224,2.755139,3.973522,-0.827655,-0.558475,-5.933542,0.397633,9.580001,0.995151,-0.051865,-0.000869,0.083570
494,-0.451588,-1.684632,4.950784,15.432465,-3.308175,-3.556000,-5.610495,0.322141,9.518738,0.995342,-0.049005,-0.001263,0.083009
495,-0.666976,-1.344003,6.543461,18.808886,-0.665717,-8.742215,-5.040784,0.237159,9.320805,0.995720,-0.043997,-0.001512,0.081262
496,-1.359898,-0.524637,8.709469,14.075459,4.559784,-7.045942,-4.494001,0.279791,9.053079,0.996104,-0.039278,-0.000662,0.078955
497,-0.715454,-0.033987,11.382035,-1.939476,-6.648024,-4.245529,-4.292674,0.230633,8.867882,0.996300,-0.037495,-0.000890,0.077330
498,-0.464064,0.268998,13.209694,-13.749139,-9.354018,2.820857,-4.553994,-0.037265,8.864996,0.996223,-0.039587,-0.003395,0.077211
499,-0.328650,-0.019584,14.040796,-27.524620,-9.691800,9.544260,-5.242491,-0.336068,9.097617,0.995813,-0.045357,-0.006547,0.079091
500,0.380576,-0.003536,15.113445,-33.992691,-11.926278,12.926241,-6.271106,-0.657058,9.506670,0.995078,-0.054035,-0.010238,0.082428
501,1.315521,-0.484527,15.022355,-32.438038,-15.464683,9.692721,-7.384575,-1.065540,9.935252,0.994185,-0.063350,-0.014820,0.085813
502,1.351138,-0.969830,14.451265,-31.614056,-8.173585,3.707054,-8.458169,-1.424752,10.210407,0.993326,-0.072343,-0.018912,0.087822
503,1.189356,-1.579899,14.156931,-30.078382,-3.530076,-1.660589,-9.488037,-1.611555,10.275000,0.992577,-0.081109,-0.021364,0.088072
504,1.109674,-1.815159,13.085491,-21.220785,1.173288,-9.451349,-10.337973,-1.681674,10.099515,0.992077,-0.088448,-0.022488,0.086336
505,0.580992,-2.410460,12.167855,-22.279387,6.488849,-11.088623,-11.052653,-1.619081,9.739452,0.991776,-0.094752,-0.022187,0.083132
506,0.496839,-2.669214,11.685766,-21.820210,9.192498,-10.127312,-11.777120,-1.432774,9.341257,0.991447,-0.101233,-0.020749,0.079713
507,-0.227589,-2.932647,11.304137,-21.087685,13.525622,-7.291236,-12.484193,-1.123623,8.977954,0.991058,-0.107628,-0.018227,0.076737
508,-0.122422,-3.009301,10.798306,-20.570890,11.848805,-3.802451,-13.174151,-0.752426,8.704024,0.990570,-0.113885,-0.015209,0.074630
509,-0.107522,-3.136603,10.556906,-20.521189,9.770920,-0.170153,-13.857553,-0.417751,8.555409,0.989958,-0.120029,-0.012607,0.073607
510,-0.254326,-3.203453,10.433414,-17.312222,7.833149,3.007784,-14.488041,-0.121916,8.529371,0.989281,-0.125668,-0.010429,0.073637
511,-0.247432,-3.065821,10.119911,-13.134834,4.607744,5.564546,-14.995559,0.114797,8.614799,0.988639,-0.130194,-0.008810,0.074596
512,-0.154621,-3.135984,9.898348,-10.714037,1.210517,7.686670,-15.392477,0.266109,8.802495,0.988043,-0.133702,-0.007983,0.076359
513,-0.287327,-3.041536,9.667127,-6.646947,0.487613,7.782510,-15.680573,0.362315,9.043262,0.987530,-0.136234,-0.007632,0.078528
514,-0.237882,-2.960817,9.573361,-5.555270,-1.287083,8.346085,-15.882154,0.422523,9.305581,0.987099,-0.137995,-0.007567,0.080847
515,-0.166344,-2.734861,9.518701,-3.098270,-2.101418,8.029400,-16.024317,0.443201,9.583507,0.986725,-0.139215,-0.007827,0.083256
516,-0.127141,-2.545543,9.404735,2.164600,-1.147508,6.134808,-16.037991,0.456301,9.825346,0.986529,-0.139325,-0.008018,0.085353
517,-0.014202,-2.500524,9.409451,-2.261484,-2.212557,4.278865,-16.038157,0.450341,10.007635,0.986392,-0.139310,-0.008291,0.086915
518,0.190825,-2.455789,9.455362,-2.837012,-3.307980,2.712042,-16.122139,0.394263,10.145082,0.986193,-0.139980,-0.009005,0.088023
519,0.172234,-2.432667,9.535226,-2.094534,-1.677733,-0.338589,-16.203968,0.325477,10.206202,0.986055,-0.140626,-0.009735,0.088459
520,0.138288,-2.370070,9.593269,-2.122477,0.041210,-2.161004,-16.274435,0.287657,10.173830,0.985998,-0.141207,-0.010075,0.088128
521,0.099189,-2.510251,9.744238,-4.695503,1.667494,-2.906236,-16.388529,0.291250,10.084781,0.985925,-0.142199,-0.010021,0.087356
522,-0.024181,-2.447559,9.827651,-3.236063,2.828748,-4.187088,-16.521461,0.329623,9.950184,0.985856,-0.143383,-0.009624,0.086234
523,-0.121171,-2.263471,9.822449,-0.362484,3.614546,-4.651829,-16.582520,0.390622,9.778388,0.985900,-0.143967,-0.008929,0.084827
524,-0.093673,-2.183857,9.713467,0.855787,3.209605,-3.546066,-16.575516,0.460682,9.614995,0.986019,-0.143970,-0.008116,0.083510
525,-0.132228,-2.227150,9.668523,1.146707,3.398530,-3.891402,-16.543444,0.530936,9.464787,0.986158,-0.143754,-0.007300,0.082307
526,-0.209140,-1.964514,9.639884,5.141331,3.406648,-3.572700,-16.440142,0.604376,9.313300,0.986384,-0.142926,-0.006404,0.081101
527,-0.184329,-1.814816,9.643118,30.052404,4.249918,-1.019790,-15.854834,0.705709,9.204303,0.987163,-0.137961,-0.004986,0.080315
528,-0.063349,-1.881536,9.691259,24.354351,-0.083402,-1.359415,-14.948857,0.762412,9.147755,0.988255,-0.130193,-0.003798,0.079928
529,-0.045103,-1.848828,9.844311,21.991512,-1.127686,-0.595887,-14.176798,0.734710,9.121548,0.989131,-0.123513,-0.003470,0.079696
530,-0.046750,-1.766925,9.793840,21.728453,-1.224567,1.056277,-13.447952,0.698524,9.138412,0.989890,-0.117194,-0.003293,0.079825
531,0.062203,-1.876686,9.743052,14.043673,-4.201976,0.743825,-12.851200,0.617368,9.188189,0.990463,-0.111981,-0.003627,0.080193
532,0.127918,-2.179631,9.610832,1.498589,-5.212919,-0.936465,-12.591878,0.463643,9.219787,0.990709,-0.109631,-0.004805,0.080328
533,0.007845,-2.263372,9.461716,-2.406896,0.382016,-1.623111,-12.607212,0.375764,9.195884,0.990721,-0.109704,-0.005553,0.080037
534,-0.113554,-2.561260,9.349346,-14.554376,4.998165,-2.675681,-12.890564,0.447407,9.106244,0.990501,-0.112207,-0.005044,0.079318
535,0.016120,-2.817701,9.370493,-7.422184,2.533253,-5.990305,-13.258306,0.536966,8.937181,0.990242,-0.115453,-0.004354,0.077930
536,-0.033010,-2.967925,9.375254,-9.833572,2.518465,-8.738862,-13.548321,0.562121,8.678816,0.990116,-0.117985,-0.004068,0.075712
537,-0.179762,-2.996185,9.379887,-10.657616,3.597759,-8.717593,-13.892907,0.592152,8.371969,0.989953,-0.120992,-0.003712,0.073081
538,-0.227855,-3.161558,9.564974,-12.319225,3.587329,-8.334208,-14.279145,0.639122,8.067186,0.989724,-0.124366,-0.003222,0.070486
539,-0.146301,-3.051368,9.673203,-9.450831,3.283227,-8.356282,-14.645409,0.680482,7.769212,0.989497,-0.127562,-0.002758,0.067949
540,-0.314717,-2.957647,9.689329,-6.002959,5.237113,-6.131514,-14.906345,0.756269,7.499501,0.989351,-0.129863,-0.001953,0.065699
541,-0.335934,-2.949145,9.749055,-3.102076,5.928368,-3.253274,-15.061024,0.895630,7.300340,0.989269,-0.131278,-0.000611,0.064136
542,-0.243708,-2.738203,9.687454,0.587747,5.309786,-2.652555,-15.105419,1.050879,7.156586,0.989275,-0.131744,0.000870,0.063071
543,-0.327504,-2.607857,9.548017,2.062784,8.795044,-0.247771,-15.063424,1.265315,7.048755,0.989348,-0.131492,0.002869,0.062384
544,-0.324465,-2.456869,9.410227,6.304803,6.665453,0.990998,-14.925346,1.517436,6.994047,0.989492,-0.130428,0.005184,0.062191
545,-0.197752,-2.446599,9.536016,7.094963,0.621741,-1.332510,-14.703047,1.633430,6.957573,0.989741,-0.128566,0.006347,0.061995
546,-0.261281,-2.519305,9.429594,5.272875,1.845482,-2.554634,-14.498992,1.656881,6.884595,0.990003,-0.126811,0.006741,0.061378
547,-0.288177,-2.570130,9.475377,3.588760,1.986161,-2.820620,-14.354305,1.696376,6.781862,0.990210,-0.125574,0.007272,0.060525
548,-0.133667,-2.557714,9.497552,4.470497,-3.877584,-4.735867,-14.223306,1.634728,6.667543,0.990424,-0.124404,0.006933,0.059462
549,-0.275475,-2.643290,9.412755,0.965830,0.292931,-4.031707,-14.136172,1.541012,6.540513,0.990601,-0.123599,0.006305,0.058259
550,-0.308458,-2.718767,9.157108,4.591014,0.231576,-2.958291,-14.046678,1.521092,6.425345,0.990758,-0.122809,0.006301,0.057237
551,-0.145799,-2.690939,9.163971,0.665942,-0.874095,-3.389736,-13.961689,1.485136,6.325240,0.990905,-0.122052,0.006140,0.056329
553,-0.265415,-2.602591,9.244500,-7.281273,0.942021,-2.034742,-14.074200,1.464306,6.237238,0.990831,-0.123011,0.005999,0.055552
554,-0.270099,-2.586651,9.493577,-7.554450,1.286118,0.119347,-14.322510,1.492419,6.197198,0.990577,-0.125168,0.006165,0.055249
555,-0.102807,-2.695783,9.794870,-5.930615,0.112060,1.034277,-14.546928,1.519743,6.210029,0.990319,-0.127121,0.006279,0.055402
556,-0.256257,-2.708041,9.978652,-8.728337,1.567707,2.180615,-14.790043,1.560373,6.254779,0.990018,-0.129242,0.006462,0.055847
557,-0.369849,-2.653979,10.099980,-11.344339,1.632812,5.532438,-15.121491,1.645079,6.365273,0.989570,-0.132151,0.006905,0.056917
558,-0.120271,-3.257084,9.810684,-19.696136,-0.041600,2.690231,-15.635175,1.706934,6.490436,0.988893,-0.136622,0.007034,0.058100
559,-0.207388,-3.685538,9.317730,-26.141171,1.262204,-0.752919,-16.398355,1.735557,6.515740,0.987943,-0.143220,0.006862,0.058399
560,-0.479903,-3.985296,8.896788,-30.869715,3.615626,-1.980411,-17.350546,1.800341,6.448519,0.986739,-0.151450,0.007023,0.057960
561,-0.402760,-4.258755,8.535872,-34.004551,2.350622,-3.285368,-18.435345,1.868105,6.334508,0.985304,-0.160809,0.007217,0.057137
562,-0.234055,-4.727027,8.142005,-39.433846,-0.249660,-7.109248,-19.664854,1.844698,6.159110,0.983613,-0.171351,0.006665,0.055671
563,-0.567523,-4.686204,8.184663,-39.967583,0.714154,-5.090531,-20.994123,1.781497,5.965367,0.981666,-0.182712,0.005786,0.053986
564,-0.605824,-4.854959,8.324626,-39.303413,-0.938079,-2.714244,-22.318783,1.729876,5.845972,0.979556,-0.194020,0.004923,0.052941
565,-0.391780,-4.986331,8.494627,-38.018597,-4.935279,-2.220482,-23.608377,1.607409,5.808367,0.977354,-0.204980,0.003349,0.052455
566,-0.356063,-5.167515,8.719953,-35.480980,-6.568286,-0.659156,-24.832270,1.412707,5.842929,0.975133,-0.215328,0.001066,0.052418
567,-0.411627,-5.200837,8.868807,-28.982164,-6.731819,1.616088,-25.903992,1.219075,5.952219,0.973065,-0.224358,-0.001283,0.052977
568,-0.141237,-5.218404,8.744696,-23.995047,-8.578101,0.558829,-26.784000,1.006296,6.097926,0.971286,-0.231730,-0.003788,0.053772
569,-0.024452,-5.217998,8.665595,-20.826628,-8.581489,-0.461186,-27.528988,0.752542,6.229702,0.969741,-0.237922,-0.006559,0.054336
570,0.075871,-5.243846,8.402249,-18.886736,-7.775323,-1.444445,-28.189785,0.496714,6.328932,0.968347,-0.243387,-0.009245,0.054594
571,0.067472,-5.307817,8.228240,-19.146000,-5.228379,-2.579689,-28.823360,0.274308,6.373404,0.966999,-0.248631,-0.011521,0.054435
572,0.012332,-5.145119,8.465455,-18.213509,-0.903855,-4.448563,-29.446217,0.128115,6.320930,0.965678,-0.253821,-0.012932,0.053606
573,-0.001573,-4.807621,8.655050,-13.687117,2.147570,-6.134227,-29.978189,0.058874,6.157588,0.964574,-0.258289,-0.013396,0.052014
574,-0.161349,-4.325705,8.706700,-6.854886,4.536305,-5.143085,-30.320814,0.060969,5.939159,0.963894,-0.261198,-0.013036,0.050142
575,-0.362524,-4.034812,8.782867,-1.436288,6.768940,-2.842518,-30.459438,0.156288,5.729100,0.963656,-0.262427,-0.011814,0.048578
576,-0.153915,-3.756624,8.902168,4.650786,5.056482,-3.432721,-30.406626,0.273321,5.539157,0.963841,-0.262049,-0.010372,0.047253
577,-0.158039,-3.728949,8.724167,10.988083,3.887890,-1.451488,-30.146765,0.361103,5.393756,0.964481,-0.259910,-0.009197,0.046251
578,-0.145600,-3.757426,8.695057,17.200640,2.373307,1.200692,-29.677366,0.449581,5.338136,0.965548,-0.255995,-0.008137,0.046018
579,0.178120,-3.797661,8.697168,25.248848,-0.055227,-0.353068,-28.969967,0.490311,5.331573,0.967107,-0.250046,-0.007495,0.046100
580,0.356031,-3.718452,8.923502,35.943581,-0.318025,-3.262269,-27.950563,0.456122,5.281739,0.969317,-0.241423,-0.007269,0.045672
581,0.181112,-3.625529,8.993739,48.852562,2.129256,-4.976719,-26.538488,0.419959,5.145940,0.972277,-0.229455,-0.006740,0.044533
582,0.090795,-3.011657,8.883421,62.680000,3.753057,-7.385143,-24.681696,0.419171,4.917644,0.975954,-0.213682,-0.005599,0.042691
583,-0.330853,-2.846701,9.096508,63.095585,6.438035,-4.156404,-22.588085,0.497476,4.673349,0.979776,-0.195853,-0.003731,0.040831
584,-0.558484,-3.182765,9.109550,50.499062,5.885525,-0.640384,-20.697105,0.659156,4.522782,0.982910,-0.179716,-0.001434,0.039848
585,0.088307,-3.120732,9.579893,39.648769,-0.600500,-3.597606,-19.196245,0.718186,4.426113,0.985206,-0.166847,-0.000264,0.039118
586,-0.639871,-2.609237,10.366830,31.470724,3.422879,1.229598,-18.011717,0.750022,4.374437,0.986893,-0.156665,0.000486,0.038717
587,-1.143557,-3.077036,10.758729,15.347105,5.216996,9.128770,-17.229748,0.939765,4.494914,0.987876,-0.149990,0.002228,0.039999
588,-0.426609,-2.849030,10.308958,12.915170,-0.895388,8.340200,-16.754229,1.094269,4.751886,0.988377,-0.145948,0.003400,0.042402
589,-0.136528,-1.772016,10.199522,24.043892,-1.458467,7.393329,-16.133286,1.130950,5.014715,0.989049,-0.140611,0.003624,0.044696
590,-0.851595,-1.523489,10.095713,28.641901,4.750819,14.451215,-15.248176,1.281985,5.350502,0.989948,-0.133038,0.004884,0.047742
591,-0.021521,-1.387648,9.519272,30.357653,-1.305304,12.753081,-14.254683,1.453170,5.773969,0.990855,-0.124541,0.006318,0.051544
592,0.731687,-0.821551,9.510408,36.887867,-6.947625,5.147138,-13.126211,1.390076,6.096912,0.991894,-0.114768,0.005956,0.054213
593,0.347272,-0.690175,10.033820,37.003994,-3.063184,1.605619,-11.891650,1.250927,6.243491,0.993024,-0.104019,0.005200,0.055291
594,0.326070,-0.771660,10.208474,34.981098,-3.172199,-2.877878,-10.692075,1.144495,6.242760,0.994073,-0.093569,0.004856,0.055141
595,0.415100,-0.587401,9.880689,33.384872,-4.538037,-9.201298,-9.556064,0.982242,6.067245,0.995054,-0.083628,0.004122,0.053449
596,0.463068,-0.762828,9.910769,28.480288,-6.839371,-14.205286,-8.530443,0.733165,5.712002,0.995948,-0.074597,0.002667,0.050162
597,0.311685,-0.926147,9.903100,26.186832,-6.974628,-18.117390,-7.624492,0.429076,5.211322,0.996737,-0.066588,0.000710,0.045609
598,0.293733,-0.836589,9.674335,24.837984,-6.507801,-21.813366,-6.777254,0.122408,4.579373,0.997451,-0.059104,-0.001296,0.039945
599,0.073643,-1.016962,9.966836,16.943792,-4.201516,-23.903276,-6.080919,-0.140544,3.842308,0.998033,-0.052970,-0.003002,0.033412
600,-0.124565,-0.850543,10.076486,17.736883,-2.313760,-24.792892,-5.499826,-0.330986,3.045906,0.998495,-0.047883,-0.004159,0.026408
601,-0.339323,-0.724962,9.980232,20.255928,1.706553,-22.613413,-4.861676,-0.412401,2.259909,0.998902,-0.042334,-0.004431,0.019550
602,-0.416210,-0.605900,9.923611,19.784660,2.841389,-18.714090,-4.189751,-0.390959,1.567123,0.999234,-0.036504,-0.003909,0.013541
603,-0.347452,-0.640572,10.004711,20.402420,2.299680,-14.709242,-3.516491,-0.342743,1.005533,0.999487,-0.030655,-0.003259,0.008679
604,-0.368486,-0.513457,9.897871,25.388571,2.141487,-10.469425,-2.751010,-0.291556,0.582512,0.999696,-0.023991,-0.002666,0.005021
605,-0.297956,-0.598665,9.784148,25.606310,0.996272,-6.244591,-1.899841,-0.250221,0.302092,0.999857,-0.016573,-0.002227,0.002600
606,-0.160726,-0.406254,9.729072,25.864403,-1.627979,-4.283253,-1.041256,-0.264981,0.127034,0.999956,-0.009084,-0.002322,0.001088
607,-0.011057,-0.329876,9.690156,23.326639,-3.633351,-1.789059,-0.220881,-0.353646,0.026970,0.999993,-0.001927,-0.003087,0.000229
608,0.045796,-0.194376,9.790526,18.574366,-4.201466,-0.705345,0.477769,-0.483997,-0.014758,0.999982,0.004169,-0.004224,-0.000111
609,0.169739,-0.158563,9.712317,12.422798,-5.140177,-0.373842,0.994577,-0.639402,-0.034669,0.999947,0.008677,-0.005582,-0.000254
610,0.206244,-0.217013,9.877603,-3.269518,-7.160259,0.010372,1.147259,-0.844254,-0.044453,0.999923,0.010008,-0.007371,-0.000314
611,0.213482,-0.219553,9.928109,-5.827622,-5.956963,0.582178,0.995547,-1.063028,-0.038409,0.999919,0.008684,-0.009279,-0.000255
612,0.264884,-0.117365,9.972064,-3.847401,-5.371531,-0.148382,0.834221,-1.251932,-0.034140,0.999914,0.007276,-0.010927,-0.000218
613,0.241319,-0.146793,9.955437,-4.627064,-2.866468,-0.204782,0.693149,-1.389132,-0.041878,0.999908,0.006044,-0.012124,-0.000292
614,0.176731,-0.219751,9.984441,-7.230211,1.054870,-0.718985,0.495911,-1.419164,-0.057558,0.999914,0.004321,-0.012386,-0.000449
615,0.189696,-0.117797,9.965880,-4.652395,1.348192,-2.417141,0.299131,-1.378747,-0.109501,0.999924,0.002599,-0.012034,-0.000924
616,0.028794,-0.350744,9.946393,-6.364179,1.907541,-4.415909,0.118207,-1.324037,-0.223206,0.999931,0.001009,-0.011556,-0.001936
617,0.063455,-0.342405,9.979418,-11.879566,1.346409,-7.379204,-0.181399,-1.269901,-0.419869,0.999931,-0.001624,-0.011076,-0.003681
618,0.090838,-0.417695,9.735711,-21.041454,0.767868,-10.719541,-0.723448,-1.237060,-0.721884,0.999902,-0.006381,-0.010755,-0.006367
619,0.141064,-0.384945,9.873557,-33.040657,-0.454358,-13.186042,-1.616139,-1.240039,-1.120448,0.999793,-0.014207,-0.010682,-0.009929
620,0.051123,-0.549154,9.853510,-35.926907,0.278830,-11.624222,-2.756442,-1.258923,-1.533666,0.999557,-0.024196,-0.010660,-0.013643
621,0.191977,-0.571633,9.679702,-36.515812,-0.578147,-9.371807,-3.955948,-1.284600,-1.882666,0.999200,-0.034693,-0.010635,-0.016805
622,0.226463,-0.805667,9.619177,-41.708328,-0.114587,-6.200415,-5.253636,-1.317157,-2.140520,0.998699,-0.046034,-0.010624,-0.019184
623,0.351263,-1.148081,9.997003,-42.671623,-0.769523,-3.295995,-6.656133,-1.348619,-2.296332,0.998030,-0.058273,-0.010583,-0.020686
624,0.260868,-1.392778,9.714681,-33.592495,0.069523,-1.165848,-7.925273,-1.369937,-2.368645,0.997308,-0.069333,-0.010495,-0.021444
625,0.353567,-1.334461,9.627898,-33.979073,-0.691482,-1.058686,-9.050494,-1.385797,-2.403697,0.996571,-0.079128,-0.010398,-0.021862
626,0.366391,-1.391866,10.078341,-27.966545,-0.470156,3.389140,-10.083820,-1.398450,-2.362228,0.995823,-0.088110,-0.010342,-0.021604
627,0.385051,-1.640804,10.297490,1.550687,0.699447,11.714779,-10.529969,-1.349996,-2.115113,0.995522,-0.091957,-0.010035,-0.019458
628,0.227582,-1.562634,9.968130,38.685665,2.501215,18.949129,-9.870375,-1.207781,-1.621277,0.996125,-0.086164,-0.009283,-0.015001
629,0.197215,-1.399637,9.909358,57.644901,2.820637,23.560783,-8.278288,-1.009490,-0.935408,0.997315,-0.072245,-0.008197,-0.008777
630,0.241294,-1.476854,10.066268,63.206738,2.176866,24.586105,-6.277282,-0.825706,-0.150033,0.998473,-0.054760,-0.007123,-0.001702
631,0.206928,-1.288435,9.856977,62.405087,1.330078,19.427193,-4.194263,-0.700781,0.574992,0.999300,-0.036562,-0.006295,0.004790
632,0.034848,-0.868576,9.601026,45.201836,0.756508,10.479633,-2.407299,-0.638125,1.070595,0.999721,-0.020953,-0.005763,0.009223
633,0.070513,-0.551203,9.789398,19.150745,-0.277407,3.126949,-1.337493,-0.623282,1.296990,0.999854,-0.011609,-0.005571,0.011254
634,0.160508,-0.455434,10.028076,-0.073484,-2.285306,-1.381974,-1.019913,-0.665528,1.327011,0.999877,-0.008832,-0.005910,0.011528
635,0.110227,-0.269231,9.912855,3.791521,-0.751119,-4.201239,-0.956852,-0.717794,1.234944,0.999888,-0.008282,-0.006353,0.010724
636,0.112291,-0.209856,9.825631,6.415736,-0.609803,-4.825986,-0.784839,-0.742747,1.084820,0.999911,-0.006787,-0.006546,0.009422
637,0.106453,-0.137564,9.878378,6.574678,-0.740236,-5.044256,-0.566171,-0.767164,0.920572,0.999933,-0.004887,-0.006734,0.008000
638,0.093974,-0.068380,9.937639,6.767723,-0.632499,-4.948225,-0.341535,-0.791363,0.754205,0.999950,-0.002935,-0.006925,0.006561
639,0.101740,0.005235,9.908085,8.863560,-1.055717,-4.868690,-0.078717,-0.820096,0.590677,0.999961,-0.000650,-0.007160,0.005150
640,0.139416,0.125856,9.912223,10.854126,-2.217491,-4.402325,0.252200,-0.874388,0.436066,0.999961,0.002230,-0.007622,0.003822
641,0.175561,0.214996,9.929059,10.457996,-2.858174,-3.976050,0.609655,-0.957896,0.295799,0.999948,0.005342,-0.008345,0.002626
642,0.218505,0.270991,9.930430,9.457108,-3.083786,-3.600218,0.943821,-1.055200,0.168198,0.999923,0.008249,-0.009196,0.001544
643,0.229475,0.276195,9.895190,7.638259,-2.147029,-3.159873,1.230935,-1.140226,0.053888,0.999893,0.010746,-0.009945,0.000577
644,0.248224,0.307334,9.920160,6.072302,-1.559688,-2.743387,1.461477,-1.199681,-0.045952,0.999864,0.012749,-0.010473,-0.000267
645,0.214910,0.313747,9.912913,4.956739,0.375022,-2.492150,1.647142,-1.217055,-0.133736,0.999840,0.014360,-0.010636,-0.001014
646,0.196879,0.328744,9.909901,4.653645,1.365152,-2.406581,1.808996,-1.185606,-0.214512,0.999820,0.015766,-0.010374,-0.001708
647,0.180603,0.355527,9.906651,4.042862,1.663548,-2.365258,1.955506,-1.132543,-0.292369,0.999803,0.017038,-0.009925,-0.002382
648,0.158307,0.334242,9.936543,1.711642,1.859406,-2.424071,2.052907,-1.071075,-0.370109,0.999791,0.017883,-0.009403,-0.003062
649,0.128315,0.267799,9.953866,-0.038747,2.102447,-2.450732,2.082214,-1.002169,-0.448945,0.999790,0.018135,-0.008815,-0.003758
650,0.164658,0.325230,9.911613,2.872804,0.032150,-2.458952,2.130828,-0.963619,-0.529431,0.999782,0.018554,-0.008493,-0.004463
651,0.178121,0.336856,9.957019,2.148970,-1.093904,-2.563136,2.215965,-0.978111,-0.613740,0.999763,0.019290,-0.008637,-0.005190
652,0.179830,0.317687,9.957094,2.116889,-1.270906,-2.870042,2.288670,-1.013941,-0.705778,0.999744,0.019915,-0.008969,-0.005981
653,0.183417,0.382082,9.918569,5.367286,-1.273590,-3.124867,2.415238,-1.052215,-0.807365,0.999712,0.021009,-0.009328,-0.006850
654,0.189782,0.464090,9.894996,6.866922,-1.197953,-3.400541,2.621204,-1.088567,-0.917855,0.999663,0.022794,-0.009680,-0.007790
656,0.183202,0.463613,9.911628,4.286383,-0.528241,-3.452429,2.809307,-1.111886,-1.033332,0.999614,0.024424,-0.009921,-0.008776
657,0.170347,0.483725,9.893393,4.040296,0.245670,-3.136101,2.950212,-1.111095,-1.143264,0.999574,0.025643,-0.009949,-0.009723
658,0.166889,0.507924,9.884838,3.314163,0.699766,-2.610658,3.074602,-1.090324,-1.238107,0.999539,0.026722,-0.009801,-0.010545
659,0.193849,0.523064,9.896017,2.344940,-0.071246,-2.043736,3.170370,-1.075639,-1.315013,0.999510,0.027552,-0.009700,-0.011211
660,0.191983,0.595651,9.896055,3.515879,0.081907,-1.578334,3.269184,-1.072073,-1.375282,0.999481,0.028410,-0.009693,-0.011729
661,0.176111,0.618665,9.901979,3.077620,0.795582,-1.305409,3.379949,-1.054677,-1.422424,0.999449,0.029374,-0.009565,-0.012135
662,0.156485,0.549156,9.935405,0.162081,1.654324,-1.188550,3.434647,-1.011446,-1.461502,0.999434,0.029852,-0.009204,-0.012483
663,0.141561,0.591205,9.897319,2.375944,2.008890,-1.047269,3.477517,-0.948265,-1.495035,0.999424,0.030231,-0.008666,-0.012789
664,0.125739,0.627084,9.912373,2.283501,2.336393,-0.921351,3.555623,-0.873961,-1.523336,0.999404,0.030919,-0.008035,-0.013050
665,0.114530,0.575869,9.925543,-0.259075,2.409725,-0.817159,3.589711,-0.793207,-1.547330,0.999397,0.031224,-0.007341,-0.013279
666,0.107159,0.550963,9.912091,-0.742835,2.183119,-0.825071,3.573308,-0.715103,-1.569882,0.999403,0.031089,-0.006664,-0.013498
667,0.110193,0.614170,9.871511,1.000550,1.463595,-0.888478,3.577899,-0.652663,-1.594600,0.999402,0.031135,-0.006127,-0.013730
