seq,ax,ay,az,wroll,wpitch,wyaw,roll,pitch,yaw
6682,6.891665,6.985203,0.128531,-0.024759,-0.110295,0.071288,88.945847,-44.608959,-43.873466
6683,6.905237,6.972261,0.114042,0.333527,-0.514666,0.794304,88.961014,-44.623573,-43.887730
6684,6.908142,6.957912,0.120856,0.096526,-0.272187,1.150730,88.980537,-44.656216,-43.905331
6685,6.909021,6.959023,0.124685,-0.066734,-0.108733,0.926176,88.986702,-44.690941,-43.913391
6686,6.907555,6.953561,0.121537,-0.012934,-0.163855,0.810736,88.989380,-44.719971,-43.919071
6687,6.908923,6.952868,0.118671,0.050763,-0.233713,0.670176,88.996132,-44.744762,-43.927780
6689,6.911239,6.957520,0.128344,-0.220954,0.057748,0.433629,88.995888,-44.763214,-43.931461
6690,6.909940,6.968873,0.124078,-0.108851,-0.049808,-0.024782,88.990128,-44.770012,-43.931091
6691,6.907536,6.972644,0.120772,-0.008311,-0.148817,-0.236418,88.991539,-44.765720,-43.935863
6692,6.911250,6.981212,0.120820,-0.002556,-0.149762,-0.341615,88.996460,-44.756180,-43.943108
6693,6.912144,6.976579,0.121570,-0.038003,-0.107646,-0.127097,89.000175,-44.748440,-43.949345
6694,6.904581,6.975803,0.114565,0.151954,-0.287677,-0.249031,89.008713,-44.742298,-43.958775
6696,6.905809,6.976797,0.120008,-0.014607,-0.111258,-0.205132,89.017723,-44.734844,-43.968319
6697,6.909968,6.972904,0.118043,0.010035,-0.131127,0.061308,89.021690,-44.732513,-43.974068
6698,6.907842,6.972677,0.124513,-0.172877,0.058315,0.023921,89.020157,-44.733955,-43.975742
6699,6.904530,6.978200,0.124320,-0.153976,0.051378,-0.226813,89.012947,-44.730541,-43.973248
6700,6.907736,6.977930,0.126790,-0.212255,0.096610,-0.114490,89.004501,-44.724808,-43.969913
6701,6.904729,6.971461,0.125424,-0.155449,0.021355,0.016908,88.996437,-44.723141,-43.967178
6703,6.901023,6.972949,0.131740,-0.295638,0.162453,-0.107866,88.985916,-44.721577,-43.962906
6704,6.898745,6.975102,0.129645,-0.214285,0.080875,-0.227907,88.973503,-44.715904,-43.957336
6705,6.901836,6.969335,0.128750,-0.162893,0.009952,0.042546,88.965767,-44.712788,-43.955280
6706,6.903362,6.971575,0.128773,-0.137042,-0.012626,0.036050,88.960793,-44.714096,-43.955311
6707,6.904196,6.971247,0.129512,-0.130113,-0.004736,0.053884,88.956596,-44.715603,-43.955681
6708,6.905867,6.966599,0.126178,-0.031783,-0.118710,0.207001,88.955864,-44.719986,-43.958469
6710,6.907959,6.960425,0.119963,0.147486,-0.295327,0.410640,88.964447,-44.730404,-43.967918
6711,6.910225,6.960820,0.120365,0.110183,-0.255038,0.398571,88.977585,-44.744057,-43.980492
6712,6.908529,6.959757,0.122747,0.005455,-0.146308,0.297989,88.985931,-44.755775,-43.989605
6713,6.907350,6.957067,0.124057,-0.052429,-0.082204,0.268623,88.988762,-44.765289,-43.994740
6714,6.909902,6.971087,0.124554,-0.066832,-0.053791,-0.102080,88.988968,-44.768101,-43.997860
6715,6.908484,6.969261,0.133451,-0.318788,0.184191,-0.114394,88.980453,-44.764458,-43.994888
6717,6.906878,6.971913,0.134139,-0.305127,0.169170,-0.203833,88.964310,-44.759048,-43.986732
6718,6.910797,6.970327,0.129875,-0.133517,0.003287,-0.018614,88.954216,-44.755295,-43.982780
6719,6.912715,6.975448,0.124716,0.028795,-0.176292,-0.070750,88.955360,-44.753853,-43.986874
6720,6.905073,6.963903,0.125688,-0.003671,-0.144635,0.047212,88.961075,-44.753559,-43.994419
6721,6.899194,6.971653,0.118212,0.193581,-0.310842,-0.300942,88.971855,-44.749474,-44.005222
6722,6.901218,6.969618,0.121266,0.085647,-0.191143,-0.167856,88.984940,-44.741810,-44.017193
6724,6.895711,6.968702,0.121651,0.027377,-0.144277,-0.239948,88.992477,-44.735115,-44.025230
6725,6.896669,6.966872,0.123600,-0.038606,-0.065859,-0.131975,88.995872,-44.728981,-44.030315
6726,6.901602,6.972217,0.125486,-0.084307,-0.001422,-0.098528,88.994987,-44.725147,-44.031975
6727,6.908274,6.964906,0.127190,-0.126293,0.030049,0.295383,88.990944,-44.728416,-44.031223
6728,6.910132,6.966243,0.130113,-0.197314,0.099064,0.297417,88.983246,-44.738262,-44.027950
6729,6.907945,6.967372,0.131035,-0.205565,0.105507,0.134818,88.973038,-44.745403,-44.022968
6731,6.906632,6.967344,0.130649,-0.181496,0.071113,0.047053,88.963615,-44.748383,-44.018749
6732,6.901322,6.972001,0.128494,-0.102479,-0.017162,-0.258791,88.958054,-44.744839,-44.017578
6733,6.902652,6.972251,0.127433,-0.063156,-0.073785,-0.217570,88.956940,-44.736927,-44.019913
6734,6.894500,6.978684,0.121004,0.113953,-0.244603,-0.565649,88.963280,-44.723976,-44.027721
6735,6.895634,6.974402,0.121396,0.089718,-0.226352,-0.346895,88.974709,-44.708904,-44.039139
6736,6.899080,6.977488,0.120487,0.090343,-0.219893,-0.228594,88.985237,-44.699444,-44.049843
6738,6.906734,6.963882,0.118367,0.108069,-0.250175,0.421654,88.996239,-44.702797,-44.060783
6739,6.906820,6.969162,0.124021,-0.090280,-0.060014,0.261730,89.001457,-44.714283,-44.067780
6740,6.908548,6.965356,0.124302,-0.121349,-0.039607,0.331181,88.999413,-44.724194,-44.069874
6741,6.911438,6.963208,0.125564,-0.145075,-0.009740,0.417215,88.995567,-44.736679,-44.070724
6742,6.905544,6.964609,0.125574,-0.139761,-0.029886,0.139609,88.991310,-44.745964,-44.071426
6743,6.905142,6.967628,0.125560,-0.123964,-0.047422,-0.023226,88.988167,-44.747932,-44.073193
6745,6.901416,6.966115,0.119229,0.074648,-0.214192,-0.093164,88.991699,-44.746067,-44.079380
6746,6.906892,6.964966,0.123067,-0.044035,-0.109024,0.106689,88.997536,-44.746387,-44.086956
6747,6.908749,6.969077,0.123333,-0.069939,-0.074619,0.043602,88.998627,-44.748943,-44.091202
6748,6.907708,6.974415,0.123784,-0.086190,-0.049102,-0.140502,88.998093,-44.747364,-44.094139
6749,6.906727,6.985332,0.122899,-0.066130,-0.066573,-0.431168,88.997635,-44.737869,-44.097092
6750,6.904776,6.982192,0.128414,-0.217717,0.062223,-0.330842,88.993202,-44.725178,-44.097511
6752,6.903683,6.977841,0.125270,-0.114469,-0.026338,-0.160537,88.987213,-44.716976,-44.096870
6753,6.898309,6.979232,0.122398,-0.025898,-0.120830,-0.286657,88.987434,-44.709572,-44.100506
6754,6.904925,6.978421,0.121555,0.004870,-0.154239,-0.035400,88.991722,-44.704285,-44.107094
6755,6.902829,6.970607,0.125029,-0.094374,-0.053303,0.146694,88.993614,-44.706200,-44.111912
6756,6.903217,6.969329,0.124316,-0.083506,-0.050875,0.177436,88.992271,-44.711636,-44.114216
6757,6.900571,6.969168,0.125112,-0.100681,-0.035111,0.078052,88.990547,-44.715916,-44.116127
6759,6.903163,6.969818,0.127689,-0.164197,0.027364,0.105713,88.986206,-44.718979,-44.116234
6760,6.898554,6.961608,0.131238,-0.251335,0.121521,0.163868,88.976746,-44.723427,-44.112629
6761,6.894258,6.964291,0.127178,-0.123157,-0.005999,-0.068545,88.968567,-44.724979,-44.109882
6762,6.899569,6.970674,0.126657,-0.086772,-0.050424,-0.112462,88.966057,-44.721981,-44.111282
6763,6.900682,6.982471,0.129423,-0.145795,0.015869,-0.394713,88.962898,-44.713535,-44.112309
6764,6.905511,6.976012,0.124946,-0.013351,-0.118740,-0.043642,88.962082,-44.706272,-44.114910
6766,6.909297,6.977496,0.127060,-0.069957,-0.073805,0.073646,88.963860,-44.706825,-44.119408
6767,6.914230,6.977178,0.134622,-0.268966,0.112982,0.226784,88.957474,-44.711815,-44.118362
6768,6.912101,6.975852,0.133863,-0.225248,0.058472,0.179621,88.946281,-44.718540,-44.114170
6769,6.911985,6.962782,0.129672,-0.088263,-0.088772,0.482896,88.941360,-44.729591,-44.114597
6770,6.904821,6.969226,0.138205,-0.309680,0.123502,0.039411,88.933998,-44.738285,-44.113560
6771,6.904274,6.969190,0.134579,-0.192365,0.004090,-0.026751,88.923508,-44.738445,-44.110546
6773,6.902532,6.967395,0.132382,-0.098162,-0.074000,-0.033621,88.919838,-44.737465,-44.112217
6774,6.905552,6.963742,0.134374,-0.134072,-0.023657,0.151603,88.917542,-44.739464,-44.114452
6775,6.900502,6.972036,0.135710,-0.152212,0.005855,-0.211665,88.913086,-44.738468,-44.114899
6776,6.899370,6.971981,0.130989,0.007963,-0.137344,-0.216282,88.912994,-44.731384,-44.118176
6777,6.897533,6.965665,0.131573,-0.001522,-0.122000,-0.061763,88.917458,-44.726826,-44.124382
6778,6.897548,6.966351,0.129764,0.039055,-0.153331,-0.048345,88.922668,-44.725086,-44.130890
6780,6.894262,6.976545,0.131610,-0.022647,-0.090224,-0.405271,88.927101,-44.717602,-44.136803
6781,6.894752,6.974469,0.132949,-0.075919,-0.051895,-0.300012,88.928024,-44.705891,-44.140446
6782,6.896186,6.969698,0.129490,-0.000245,-0.146509,-0.070015,88.930145,-44.699791,-44.145260
6783,6.897933,6.978139,0.133240,-0.119350,-0.045720,-0.202265,88.931404,-44.695305,-44.149891
6784,6.901777,6.972715,0.129585,-0.038344,-0.141651,0.070786,88.931908,-44.693172,-44.154339
6785,6.898416,6.966122,0.127972,-0.007378,-0.174061,0.165515,88.936272,-44.697208,-44.161636
6787,6.904946,6.965060,0.124960,0.054423,-0.227807,0.359404,88.943535,-44.706085,-44.170830
6788,6.907182,6.971193,0.130290,-0.102466,-0.058918,0.198672,88.947296,-44.715469,-44.177311
6789,6.905461,6.970891,0.125077,0.043933,-0.167129,0.093438,88.949959,-44.720409,-44.182487
6790,6.901761,6.975728,0.127650,-0.027225,-0.087346,-0.170463,88.954445,-44.719193,-44.188480
6791,6.902177,6.978772,0.129097,-0.070352,-0.035978,-0.227809,88.954979,-44.712601,-44.191551
6792,6.899517,6.980236,0.129287,-0.068886,-0.037804,-0.288085,88.954041,-44.704025,-44.193501
6794,6.901062,6.976744,0.125225,0.039006,-0.145008,-0.109846,88.956673,-44.697449,-44.197956
6795,6.902795,6.976864,0.121159,0.136992,-0.252673,-0.020358,88.966202,-44.695408,-44.207333
6796,6.902870,6.977351,0.123931,0.028162,-0.137364,-0.017491,88.975403,-44.694889,-44.216496
6797,6.906906,6.972648,0.122930,0.016595,-0.137751,0.211594,88.980606,-44.698200,-44.222851
6798,6.909297,6.970385,0.125629,-0.080532,-0.049500,0.303067,88.982483,-44.706833,-44.227032
6799,6.909195,6.972400,0.130926,-0.236141,0.099016,0.201207,88.976242,-44.715218,-44.225658
6801,6.907336,6.966672,0.132471,-0.255597,0.115890,0.249297,88.964363,-44.722664,-44.220428
6802,6.910367,6.961103,0.127116,-0.073453,-0.069342,0.430849,88.957909,-44.733982,-44.219048
6803,6.911781,6.965072,0.124843,0.009417,-0.144320,0.291952,88.960159,-44.746101,-44.223759
6804,6.909804,6.964079,0.121555,0.094792,-0.207257,0.186699,88.967560,-44.754185,-44.231800
6805,6.911837,6.966547,0.119417,0.141523,-0.241893,0.123455,88.978828,-44.759487,-44.242214
6806,6.910947,6.964244,0.125311,-0.050706,-0.052882,0.130296,88.985123,-44.763786,-44.249016
6808,6.910739,6.966944,0.128917,-0.165706,0.055433,0.027915,88.981422,-44.766430,-44.248886
6809,6.912645,6.965946,0.130762,-0.209871,0.090602,0.097731,88.972717,-44.768478,-44.245403
6810,6.914610,6.960643,0.132737,-0.235660,0.100728,0.281675,88.962013,-44.774742,-44.240757
6811,6.910743,6.958329,0.128695,-0.089845,-0.048578,0.193552,88.955589,-44.782650,-44.239330
6812,6.908647,6.967911,0.123213,0.080547,-0.217147,-0.167816,88.959824,-44.783161,-44.245556
6813,6.908494,6.966478,0.118513,0.201775,-0.342707,-0.126075,88.973869,-44.778427,-44.258823
6814,6.903071,6.965057,0.113356,0.303337,-0.434576,-0.205843,88.995239,-44.773129,-44.277210
6815,6.904229,6.968567,0.112767,0.253874,-0.378981,-0.246466,89.018112,-44.765831,-44.296497
6816,6.906899,6.968430,0.119082,0.001070,-0.125736,-0.119084,89.030807,-44.759884,-44.308491
6817,6.912226,6.962148,0.121724,-0.122243,-0.013916,0.225613,89.031052,-44.761692,-44.311714
6818,6.912205,6.961349,0.124015,-0.202007,0.063664,0.222470,89.024696,-44.769142,-44.310368
6819,6.914678,6.960263,0.128280,-0.311853,0.161305,0.270913,89.012276,-44.777302,-44.304893
6820,6.910277,6.962881,0.131690,-0.364938,0.210579,0.036282,88.994766,-44.782318,-44.296043
6821,6.908473,6.966317,0.128637,-0.216053,0.065848,-0.130145,88.980537,-44.780674,-44.289593
6822,6.906744,6.973360,0.125215,-0.083057,-0.068155,-0.345878,88.975731,-44.772739,-44.289848
6823,6.907359,6.980127,0.125814,-0.080155,-0.085778,-0.447988,88.975792,-44.759563,-44.293793
6824,6.907013,6.979998,0.124964,-0.049901,-0.111183,-0.378949,88.977127,-44.745846,-44.298763
6825,6.909910,6.978886,0.124658,-0.054190,-0.110392,-0.174373,88.979195,-44.736675,-44.304176
6826,6.913466,6.974984,0.122923,-0.028380,-0.145072,0.077502,88.982063,-44.735138,-44.310211
6827,6.911491,6.969252,0.124226,-0.054270,-0.103249,0.175333,88.984718,-44.739422,-44.315933
6828,6.906215,6.960194,0.124873,-0.067968,-0.060576,0.241511,88.985260,-44.746422,-44.319603
6829,6.902395,6.957572,0.126376,-0.111597,-0.025084,0.176967,88.983566,-44.753418,-44.321442
6830,6.901893,6.959423,0.126122,-0.090663,-0.040909,0.068365,88.981209,-44.757526,-44.322887
6831,6.898964,6.955867,0.124871,-0.037200,-0.084688,0.054595,88.981117,-44.759617,-44.325783
6832,6.904722,6.961119,0.127857,-0.136232,-0.004624,0.057355,88.979675,-44.761509,-44.327839
6833,6.908713,6.970597,0.124293,-0.038473,-0.118539,-0.105349,88.978813,-44.760742,-44.330746
6834,6.916193,6.971176,0.120330,0.088117,-0.235428,0.084034,88.985497,-44.760494,-44.339066
6835,6.917350,6.973762,0.120707,0.055770,-0.210317,0.041985,88.995224,-44.762726,-44.349472
6836,6.921304,6.962682,0.123454,-0.073603,-0.114602,0.430562,89.000160,-44.770695,-44.356907
6837,6.914367,6.963006,0.122002,-0.039849,-0.130091,0.180666,89.002144,-44.780952,-44.362404
6838,6.916544,6.957605,0.126030,-0.154329,-0.006650,0.329427,89.001022,-44.789494,-44.365406
6839,6.908316,6.960841,0.128284,-0.211462,0.062564,-0.034317,88.993919,-44.794392,-44.363972
6840,6.904666,6.960507,0.123880,-0.072769,-0.074485,-0.151461,88.989426,-44.791298,-44.364326
6841,6.897802,6.969931,0.125181,-0.070352,-0.045228,-0.555002,88.989227,-44.779568,-44.367432
6842,6.902342,6.961759,0.126004,-0.097338,-0.034970,-0.136359,88.987968,-44.768074,-44.369606
6843,6.900655,6.963465,0.124885,-0.068333,-0.061910,-0.166605,88.986900,-44.763046,-44.372005
6844,6.904279,6.961439,0.124955,-0.087536,-0.067332,0.013332,88.986488,-44.760532,-44.375099
6845,6.904385,6.960639,0.126767,-0.139988,-0.012943,0.053877,88.984001,-44.761677,-44.376961
6846,6.904315,6.966567,0.125788,-0.117882,-0.054650,-0.115633,88.980835,-44.760662,-44.378571
6847,6.902879,6.967232,0.124917,-0.086746,-0.086135,-0.170317,88.979836,-44.755939,-44.381996
6848,6.897676,6.970510,0.125057,-0.094858,-0.080604,-0.352445,88.979721,-44.747284,-44.386124
6849,6.894741,6.972101,0.127531,-0.149749,-0.008335,-0.413352,88.977341,-44.734543,-44.388531
6850,6.894807,6.967678,0.127301,-0.134867,-0.017590,-0.215449,88.973213,-44.724072,-44.389408
6851,6.897116,6.968283,0.124449,-0.039481,-0.101962,-0.106071,88.972374,-44.718758,-44.392345
6852,6.902956,6.972918,0.122255,0.027721,-0.162141,-0.037774,88.976585,-44.716438,-44.398605
6853,6.908153,6.977561,0.123062,0.009608,-0.135756,-0.013925,88.982124,-44.715664,-44.405605
6854,6.909778,6.979061,0.116822,0.155677,-0.294260,-0.006334,88.991982,-44.715454,-44.415699
6855,6.913432,6.983899,0.116395,0.127896,-0.279895,-0.028897,89.006180,-44.715023,-44.429169
6856,6.912332,6.984930,0.116855,0.070894,-0.216444,-0.094694,89.017715,-44.713108,-44.440861
6857,6.904357,6.979319,0.118410,-0.020566,-0.123385,-0.133193,89.024231,-44.709419,-44.448921
6858,6.905107,6.975389,0.120240,-0.099144,-0.060298,0.007141,89.025299,-44.707371,-44.453281
6859,6.904736,6.975965,0.120473,-0.107168,-0.036910,-0.006388,89.023468,-44.707409,-44.455563
6860,6.899697,6.970034,0.118225,-0.028003,-0.102076,0.014125,89.023506,-44.707584,-44.458820
6861,6.900538,6.969124,0.118966,-0.060741,-0.094740,0.070724,89.025253,-44.709053,-44.463402
6862,6.901712,6.968003,0.121882,-0.130392,-0.016141,0.115292,89.023842,-44.712181,-44.465923
6863,6.900185,6.962234,0.116925,0.006860,-0.149048,0.217022,89.024422,-44.717770,-44.469669
6864,6.905088,6.967594,0.120859,-0.095660,-0.051326,0.178886,89.026115,-44.724415,-44.474201
6865,6.909226,6.968741,0.123824,-0.188280,0.029186,0.225823,89.021637,-44.731167,-44.474552
6866,6.909318,6.963611,0.122391,-0.146492,-0.021374,0.321308,89.015778,-44.740288,-44.474155
6867,6.912592,6.965503,0.117867,-0.009043,-0.169389,0.299415,89.016159,-44.750687,-44.478382
6868,6.913385,6.965888,0.120772,-0.076171,-0.091301,0.233765,89.018890,-44.759647,-44.484283
6869,6.908375,6.960003,0.124913,-0.199520,0.031665,0.185910,89.015167,-44.766655,-44.485516
6870,6.903754,6.958271,0.122784,-0.130780,-0.025214,0.052792,89.009491,-44.770634,-44.485271
6871,6.902893,6.962025,0.129147,-0.260606,0.138072,-0.104672,89.001114,-44.769737,-44.482635
6872,6.901005,6.963884,0.133688,-0.368521,0.242344,-0.203025,88.984436,-44.764500,-44.473839
6873,6.902155,6.961789,0.130701,-0.261829,0.113242,-0.075305,88.968132,-44.759758,-44.465614
6874,6.903640,6.961677,0.127474,-0.122972,-0.030360,0.003732,88.960350,-44.758530,-44.463684
6875,6.908727,6.969495,0.132973,-0.249470,0.084123,-0.065174,88.953278,-44.757492,-44.462456
6876,6.910028,6.977503,0.126230,-0.037653,-0.122813,-0.236088,88.949226,-44.752487,-44.463493
6877,6.907587,6.975801,0.122453,0.088780,-0.243899,-0.212012,88.956276,-44.745132,-44.472290
6878,6.903620,6.978104,0.129486,-0.113468,-0.038238,-0.323040,88.960686,-44.736298,-44.479137
6879,6.905912,6.971607,0.126409,-0.042128,-0.106722,-0.036375,88.960602,-44.730358,-44.482697
6880,6.902000,6.964170,0.122257,0.081804,-0.213735,0.097017,88.966530,-44.731464,-44.490189
6881,6.900224,6.953432,0.122971,0.030309,-0.179042,0.328042,88.974739,-44.738655,-44.499210
6882,6.902366,6.954289,0.123249,-0.003766,-0.143517,0.315105,88.980324,-44.749474,-44.506512
6883,6.905581,6.950024,0.120545,0.051952,-0.184316,0.435412,88.986320,-44.762081,-44.513889
6884,6.903120,6.952668,0.122423,-0.024727,-0.113479,0.225860,88.991508,-44.773186,-44.520607
6885,6.905056,6.955530,0.126790,-0.167264,0.025154,0.138742,88.989662,-44.779289,-44.522530
6886,6.908129,6.956881,0.128530,-0.196789,0.068010,0.151798,88.981972,-44.784103,-44.520222
6887,6.903806,6.963336,0.131089,-0.226805,0.120228,-0.178309,88.971809,-44.783604,-44.515816
6888,6.903014,6.969136,0.130459,-0.181313,0.063024,-0.345964,88.962128,-44.774818,-44.511734
6889,6.902463,6.977714,0.126935,-0.042833,-0.057301,-0.531822,88.958542,-44.760178,-44.511959
6890,6.904491,6.980762,0.124555,0.052774,-0.153487,-0.469718,88.962494,-44.743546,-44.517330
6891,6.899354,6.980541,0.123498,0.065184,-0.165317,-0.488081,88.970009,-44.727688,-44.525219
6892,6.906699,6.973436,0.119791,0.117163,-0.242273,0.009211,88.979919,-44.719822,-44.534981
6893,6.906792,6.974376,0.120755,0.075930,-0.183768,0.041292,88.990150,-44.720795,-44.544945
6894,6.908961,6.969211,0.125144,-0.070790,-0.023578,0.230415,88.993584,-44.725384,-44.549698
6895,6.906708,6.962971,0.121140,0.015345,-0.107106,0.311475,88.994667,-44.734455,-44.552544
6896,6.908205,6.967075,0.121399,0.006759,-0.094827,0.186350,88.998222,-44.742809,-44.557076
6897,6.904792,6.974958,0.126020,-0.110474,0.039687,-0.168770,88.997398,-44.743118,-44.558365
6898,6.902302,6.972702,0.126341,-0.122114,0.052953,-0.180837,88.992096,-44.737267,-44.556335
6899,6.900354,6.976840,0.124248,-0.057011,-0.018421,-0.310738,88.988678,-44.729065,-44.555729
6900,6.896960,6.984022,0.128268,-0.152256,0.081555,-0.543871,88.984406,-44.714806,-44.554604
6901,6.896886,6.980761,0.128274,-0.144595,0.066272,-0.381824,88.977295,-44.699337,-44.551525
6902,6.900339,6.975346,0.126902,-0.092965,-0.001488,-0.050212,88.972374,-44.692108,-44.550171
6903,6.903838,6.974591,0.126003,-0.051447,-0.053114,0.110978,88.970856,-44.693146,-44.551430
6904,6.905933,6.971019,0.125567,-0.037919,-0.082826,0.266769,88.971504,-44.699478,-44.554462
6905,6.909544,6.969693,0.125877,-0.056688,-0.084121,0.355347,88.972488,-44.709892,-44.558117
6906,6.910676,6.971250,0.129027,-0.137984,0.002310,0.290363,88.970406,-44.720680,-44.559765
6907,6.907143,6.969826,0.134510,-0.281227,0.141944,0.173719,88.960907,-44.728371,-44.556179
6908,6.906049,6.970853,0.134488,-0.250489,0.113504,0.063204,88.947746,-44.732243,-44.550087
6909,6.903244,6.968105,0.132153,-0.144297,0.010342,0.030476,88.939095,-44.733757,-44.547138
6910,6.907351,6.966087,0.131991,-0.112536,-0.013293,0.186263,88.934799,-44.737370,-44.547115
6911,6.906230,6.966664,0.134379,-0.170202,0.031482,0.115370,88.929695,-44.742393,-44.546558
6912,6.903153,6.971440,0.126721,0.059969,-0.179934,-0.125068,88.930321,-44.742283,-44.550049
6913,6.903000,6.972263,0.128283,0.014721,-0.136124,-0.141284,88.936859,-44.737942,-44.557579
6914,6.904004,6.972321,0.133604,-0.157767,0.023188,-0.099401,88.936424,-44.733963,-44.560337
6915,6.898456,6.971826,0.127960,0.012358,-0.138928,-0.216174,88.936005,-44.728741,-44.563190
6917,6.900144,6.973701,0.125336,0.091513,-0.204211,-0.188294,88.943527,-44.722111,-44.571415
6918,6.903054,6.970850,0.125877,0.049337,-0.161502,-0.000812,88.951965,-44.719074,-44.580078
6919,6.902478,6.969210,0.125870,0.019499,-0.131297,0.044647,88.957932,-44.719891,-44.586926
6920,6.907158,6.968717,0.125956,0.012604,-0.108748,0.188200,88.962364,-44.723846,-44.592457
6921,6.908496,6.963417,0.129969,-0.112728,0.024858,0.343531,88.961914,-44.732731,-44.594196
6922,6.909761,6.959477,0.129157,-0.082167,0.002198,0.428322,88.957985,-44.745586,-44.593235
6923,6.911663,6.958597,0.131242,-0.113724,0.032021,0.408697,88.953896,-44.759514,-44.592068
6924,6.912004,6.957512,0.125105,0.069144,-0.145338,0.354624,88.954796,-44.772266,-44.594395
6925,6.906902,6.963460,0.123914,0.079854,-0.176362,-0.024779,88.962502,-44.777863,-44.601810
6926,6.908860,6.971511,0.121522,0.106112,-0.218567,-0.227623,88.972214,-44.773777,-44.611195
6927,6.905861,6.970994,0.122191,0.049973,-0.172807,-0.266020,88.981438,-44.765675,-44.620590
6928,6.906178,6.975066,0.121104,0.046419,-0.173014,-0.311461,88.988930,-44.756157,-44.628944
6929,6.902146,6.975837,0.125729,-0.105406,-0.028893,-0.393797,88.991470,-44.744450,-44.633965
6930,6.903270,6.976705,0.130206,-0.215732,0.107790,-0.309052,88.985023,-44.732716,-44.632404
6931,6.903524,6.971965,0.133957,-0.291970,0.179525,-0.093701,88.971931,-44.725922,-44.625835
6932,6.908295,6.962238,0.128401,-0.116225,-0.014454,0.330681,88.962341,-44.729820,-44.621864
6933,6.906639,6.960809,0.128254,-0.086096,-0.046768,0.315168,88.959778,-44.740604,-44.623024
6934,6.913498,6.959653,0.127537,-0.071140,-0.070220,0.459203,88.958862,-44.753548,-44.625443
6935,6.911933,6.950722,0.119936,0.124900,-0.280327,0.565938,88.965256,-44.770733,-44.633236
6936,6.915272,6.950216,0.121685,0.050438,-0.206300,0.555110,88.975876,-44.789555,-44.644176
6937,6.911504,6.957860,0.126179,-0.097209,-0.036808,0.136466,88.978905,-44.801155,-44.649597
6938,6.912482,6.955326,0.127408,-0.150614,0.017512,0.146273,88.975021,-44.805870,-44.649929
6939,6.910297,6.964027,0.129157,-0.162442,0.056281,-0.151802,88.968582,-44.805756,-44.648197
6940,6.912020,6.971555,0.135438,-0.299070,0.205443,-0.297058,88.956696,-44.798199,-44.642246
6941,6.908270,6.974737,0.134640,-0.223439,0.143429,-0.428582,88.942436,-44.786003,-44.634373
6942,6.911224,6.976663,0.135774,-0.209316,0.118348,-0.322044,88.931107,-44.773407,-44.628540
6943,6.910264,6.977108,0.135394,-0.161833,0.074998,-0.272590,88.921913,-44.763435,-44.624260
6944,6.910178,6.969170,0.132397,-0.056591,-0.042159,-0.009446,88.917816,-44.758732,-44.623611
6945,6.909121,6.966883,0.124670,0.162376,-0.278815,0.045870,88.924866,-44.759441,-44.631126
6946,6.907696,6.960894,0.121162,0.226327,-0.347470,0.163449,88.941635,-44.763123,-44.645733
6947,6.904713,6.959791,0.121231,0.181296,-0.287805,0.085050,88.958855,-44.767464,-44.660545
6948,6.901818,6.956217,0.117571,0.223456,-0.334066,0.075453,88.975815,-44.770309,-44.675060
6949,6.900311,6.958998,0.119707,0.122268,-0.206985,-0.057232,88.990517,-44.770782,-44.687752
6950,6.899583,6.958295,0.121021,0.032252,-0.116075,-0.063342,88.998474,-44.768867,-44.695389
6951,6.900316,6.966799,0.120051,0.019569,-0.113702,-0.265693,89.003227,-44.763451,-44.700912
6952,6.901036,6.969585,0.117166,0.075422,-0.173295,-0.291426,89.009712,-44.754250,-44.707874
6953,6.906630,6.968441,0.121247,-0.051801,-0.057460,-0.054409,89.014015,-44.748558,-44.713428
6954,6.906136,6.970287,0.120390,-0.061785,-0.089692,-0.076735,89.014587,-44.746414,-44.716934
6955,6.907299,6.968825,0.124392,-0.178306,0.027471,0.006092,89.011635,-44.745247,-44.718422
6956,6.907401,6.965022,0.129464,-0.296528,0.147217,0.111748,89.000801,-44.747162,-44.714275
6957,6.907440,6.966797,0.133437,-0.370340,0.212301,0.055351,88.983704,-44.749847,-44.705772
6958,6.903435,6.972294,0.131424,-0.268051,0.112796,-0.216322,88.967743,-44.747066,-44.698215
6959,6.902896,6.970982,0.128404,-0.138035,-0.002964,-0.181783,88.959267,-44.740391,-44.695797
6960,6.904010,6.971332,0.125531,-0.032646,-0.117714,-0.118291,88.958496,-44.735428,-44.698753
6961,6.902286,6.970568,0.121043,0.085918,-0.238321,-0.104558,88.965340,-44.731831,-44.707207
6962,6.901151,6.966701,0.120428,0.075235,-0.229451,-0.014149,88.975792,-44.729996,-44.718231
6963,6.900578,6.965174,0.120059,0.044133,-0.214513,0.016121,88.985085,-44.730148,-44.728630
6964,6.901677,6.967672,0.124653,-0.112187,-0.071149,-0.026054,88.988686,-44.730076,-44.735340
6965,6.900667,6.969413,0.126560,-0.174552,-0.001969,-0.085398,88.985138,-44.728241,-44.737103
6966,6.901581,6.966850,0.123810,-0.083908,-0.087580,0.007226,88.982330,-44.726959,-44.739231
6967,6.909897,6.967099,0.120345,0.020374,-0.196438,0.240548,88.985886,-44.731178,-44.745796
6968,6.911180,6.968644,0.121329,-0.004880,-0.144989,0.203618,88.991661,-44.738674,-44.753620
6969,6.911848,6.963305,0.121835,-0.038440,-0.107611,0.328150,88.994949,-44.747608,-44.759327
6970,6.918939,6.968229,0.124122,-0.097822,-0.042746,0.325037,88.994972,-44.758537,-44.762585
6971,6.917802,6.972111,0.132891,-0.330600,0.197826,0.127385,88.985146,-44.766029,-44.758762
6972,6.915103,6.975559,0.133798,-0.325711,0.189234,-0.097255,88.967804,-44.766422,-44.749664
6973,6.918203,6.976550,0.133973,-0.263902,0.128452,-0.027044,88.952751,-44.764259,-44.742260
6974,6.919544,6.971534,0.128946,-0.071158,-0.066175,0.154655,88.946106,-44.766361,-44.740742
6975,6.909005,6.970521,0.129239,-0.065426,-0.063776,-0.114651,88.945969,-44.767067,-44.743774
6976,6.910132,6.969940,0.126369,0.005937,-0.156646,-0.073362,88.948677,-44.764000,-44.749031
6977,6.905347,6.970539,0.125075,0.045977,-0.175871,-0.195249,88.955116,-44.759624,-44.756950
6978,6.899491,6.972384,0.121952,0.100821,-0.234582,-0.369117,88.964516,-44.750351,-44.766823
6979,6.898572,6.987607,0.120817,0.104842,-0.224249,-0.760539,88.975838,-44.731647,-44.778049
6980,6.903571,6.986041,0.116452,0.187479,-0.316134,-0.475629,88.990005,-44.711216,-44.791245
6981,6.901364,6.990993,0.114955,0.183733,-0.302209,-0.530473,89.006676,-44.694633,-44.806160
6982,6.903526,6.987334,0.118377,0.027455,-0.155156,-0.256881,89.017967,-44.681644,-44.817200
6983,6.907678,6.987203,0.121586,-0.073280,-0.048546,-0.068646,89.020653,-44.676277,-44.822105
6984,6.904210,6.983089,0.125148,-0.183132,0.048551,-0.015964,89.016403,-44.674870,-44.822136
6985,6.901154,6.978262,0.125705,-0.188068,0.052496,0.045390,89.008537,-44.675331,-44.819759
6986,6.899531,6.972195,0.127859,-0.220257,0.070101,0.157069,88.999657,-44.678669,-44.816803
6987,6.899273,6.974510,0.126764,-0.154307,-0.008858,0.060010,88.992340,-44.682270,-44.815273
6988,6.899845,6.967887,0.126910,-0.158789,-0.017826,0.230039,88.987480,-44.687111,-44.815784
6989,6.902791,6.966058,0.123834,-0.059133,-0.108982,0.332812,88.985764,-44.696518,-44.818512
6990,6.906464,6.969038,0.123894,-0.053712,-0.112084,0.294008,88.987343,-44.707031,-44.823437
6991,6.909713,6.975972,0.124540,-0.066901,-0.070205,0.138941,88.988220,-44.714302,-44.827538
6992,6.904848,6.978282,0.118662,0.089752,-0.207347,-0.108676,88.993179,-44.714886,-44.834034
6993,6.905881,6.985721,0.114446,0.195108,-0.307150,-0.276629,89.006523,-44.708611,-44.846256
6994,6.905241,6.988041,0.115032,0.127427,-0.250105,-0.309651,89.021255,-44.698997,-44.859554
6995,6.903574,6.985230,0.117057,0.023226,-0.145554,-0.219507,89.030441,-44.690296,-44.869045
6996,6.902402,6.983692,0.116678,-0.003542,-0.126256,-0.159195,89.035362,-44.684063,-44.875568
6997,6.906198,6.980201,0.123021,-0.186187,0.062567,0.080111,89.033272,-44.682766,-44.877098
6998,6.903681,6.974492,0.128773,-0.341774,0.217990,0.166798,89.019775,-44.686798,-44.870419
6999,6.901816,6.968189,0.131283,-0.359155,0.235064,0.253327,89.000504,-44.693668,-44.859631
7000,6.900424,6.970627,0.134145,-0.371945,0.241156,0.112530,88.980370,-44.699631,-44.848320
7001,6.906206,6.966963,0.127268,-0.123518,-0.008468,0.323497,88.968147,-44.706829,-44.842686
7002,6.906619,6.965325,0.125110,-0.024457,-0.111304,0.340122,88.967453,-44.717918,-44.845211
7003,6.906372,6.966826,0.124138,0.006272,-0.139614,0.210540,88.971138,-44.727177,-44.850864
7004,6.908009,6.965662,0.119711,0.113011,-0.238006,0.224349,88.979225,-44.734531,-44.859539
7005,6.909972,6.963827,0.118305,0.126553,-0.255487,0.286620,88.991219,-44.743191,-44.870907
7006,6.906072,6.963847,0.131370,-0.258914,0.127865,0.137629,88.991005,-44.750301,-44.873730
7007,6.905636,6.961505,0.130644,-0.244377,0.111941,0.143809,88.978554,-44.754910,-44.867973
7008,6.904068,6.964601,0.128199,-0.145341,0.016602,0.003295,88.969894,-44.757332,-44.864899
7009,6.908811,6.969977,0.135022,-0.305744,0.173282,-0.034797,88.959251,-44.756756,-44.860462
7010,6.906140,6.968728,0.130155,-0.137324,0.020625,-0.079465,88.948700,-44.754787,-44.855953
7011,6.908005,6.967975,0.117657,0.230649,-0.351848,-0.001535,88.955734,-44.753529,-44.863750
7012,6.909807,6.967545,0.117811,0.200171,-0.322844,0.064014,88.974045,-44.754776,-44.879555
7013,6.909441,6.967310,0.118528,0.129929,-0.253078,0.053406,88.989029,-44.756905,-44.893021
7014,6.906399,6.960104,0.111861,0.267969,-0.384166,0.163339,89.006126,-44.760704,-44.907887
7015,6.909389,6.964154,0.116847,0.083925,-0.196198,0.107341,89.021507,-44.765381,-44.921402
7016,6.906633,6.965896,0.123542,-0.143050,0.042184,-0.046083,89.023048,-44.766441,-44.924988
7017,6.906427,6.974256,0.121230,-0.084965,-0.011393,-0.271145,89.018829,-44.761147,-44.924389
7018,6.908864,6.971162,0.121522,-0.091118,-0.022047,-0.094762,89.016548,-44.755058,-44.925323
7020,6.906198,6.971589,0.123160,-0.127635,0.002704,-0.144754,89.013298,-44.751072,-44.925880
7021,6.901625,6.972837,0.114639,0.110233,-0.235440,-0.274136,89.016968,-44.744156,-44.931507
7022,6.898920,6.977212,0.115062,0.078120,-0.211699,-0.421914,89.027695,-44.732689,-44.942276
7023,6.898920,6.979584,0.121203,-0.123036,-0.020236,-0.419241,89.031006,-44.718739,-44.948055
7024,6.897374,6.980705,0.119244,-0.057719,-0.058063,-0.397024,89.029518,-44.705154,-44.950211
7025,6.896472,6.987076,0.117285,0.001369,-0.096436,-0.495487,89.031380,-44.690334,-44.954193
7026,6.899324,6.987720,0.118420,-0.038069,-0.063078,-0.330106,89.033607,-44.676613,-44.958248
7027,6.901487,6.989261,0.116528,0.015411,-0.105676,-0.223618,89.036156,-44.667431,-44.962418
7028,6.899383,6.983817,0.109632,0.196699,-0.278303,-0.072480,89.046112,-44.662609,-44.971539
7029,6.900933,6.983041,0.110988,0.117955,-0.203448,0.006668,89.059303,-44.661648,-44.982849
7030,6.904367,6.980470,0.116600,-0.074899,-0.020210,0.176352,89.063637,-44.664749,-44.988003
7031,6.904757,6.973759,0.121201,-0.208728,0.121443,0.342938,89.057106,-44.673378,-44.985435
7032,6.908026,6.970684,0.121990,-0.212957,0.123807,0.459855,89.045815,-44.686687,-44.979374
7033,6.907360,6.970474,0.126920,-0.315092,0.215894,0.366579,89.031189,-44.700371,-44.971092
7034,6.905942,6.970552,0.125327,-0.214918,0.112808,0.257966,89.016762,-44.710682,-44.963131
7035,6.906828,6.971761,0.129317,-0.273014,0.171646,0.189402,89.003815,-44.718056,-44.956284
7036,6.908759,6.972022,0.128147,-0.206450,0.089117,0.176701,88.991409,-44.724087,-44.950016
7037,6.908204,6.963723,0.124781,-0.082068,-0.038513,0.352804,88.985596,-44.732883,-44.948601
7038,6.908618,6.957809,0.126850,-0.115601,0.006402,0.450889,88.982597,-44.746281,-44.949020
7039,6.907753,6.952546,0.125520,-0.080076,-0.027736,0.479714,88.979424,-44.761795,-44.949135
7040,6.905029,6.952592,0.123060,-0.007843,-0.103840,0.287292,88.979904,-44.774620,-44.951904
7041,6.904154,6.962247,0.124469,-0.035148,-0.061151,-0.071876,88.981850,-44.778259,-44.955685
7042,6.905009,6.969250,0.124831,-0.041822,-0.064974,-0.267158,88.982750,-44.772648,-44.958786
7043,6.907003,6.974857,0.122324,0.016276,-0.132186,-0.319005,88.985756,-44.762939,-44.963661
7044,6.908854,6.974694,0.127179,-0.132037,-0.002355,-0.209155,88.986198,-44.754177,-44.967033
7045,6.909080,6.970369,0.124059,-0.053081,-0.082301,-0.024527,88.984589,-44.750309,-44.969116
7046,6.908711,6.963488,0.123103,-0.037507,-0.108796,0.154601,88.986191,-44.752529,-44.973545
7047,6.906869,6.966364,0.123305,-0.048365,-0.084840,0.016781,88.987907,-44.755444,-44.978020
7048,6.904199,6.963612,0.119888,0.041393,-0.182738,-0.002008,88.992210,-44.755772,-44.984291
7049,6.908045,6.972177,0.119095,0.066406,-0.188640,-0.127558,89.000183,-44.753723,-44.993061
7050,6.908290,6.975876,0.114994,0.141785,-0.274150,-0.207463,89.011391,-44.748272,-45.004055
7051,6.907888,6.981322,0.112564,0.171430,-0.301466,-0.323024,89.026276,-44.739597,-45.017776
7052,6.908603,6.983594,0.119080,-0.050271,-0.078999,-0.316284,89.034760,-44.729053,-45.026962
7053,6.912227,6.989257,0.119977,-0.101192,-0.021226,-0.296053,89.034050,-44.718872,-45.029552
7054,6.907108,6.988564,0.118078,-0.061857,-0.069847,-0.347980,89.033020,-44.708176,-45.031944
7055,6.908930,6.991768,0.121719,-0.145857,0.027924,-0.319316,89.030441,-44.697060,-45.033195
7056,6.904998,6.991566,0.120202,-0.085980,-0.023352,-0.331112,89.026680,-44.686222,-45.033344
7057,6.905688,6.983152,0.113725,0.103199,-0.208245,-0.008953,89.030884,-44.680626,-45.038906
7058,6.902297,6.976111,0.114764,0.065912,-0.167574,0.120996,89.039848,-44.682587,-45.047665
7059,6.901536,6.977158,0.116676,-0.004013,-0.091399,0.064757,89.045097,-44.685757,-45.053661
7060,6.901045,6.975074,0.119564,-0.090971,-0.005844,0.092962,89.045074,-44.688412,-45.055874
7061,6.905441,6.967373,0.121589,-0.144457,0.037336,0.386178,89.040497,-44.696388,-45.054951
7062,6.903967,6.970945,0.120470,-0.108296,-0.013500,0.198964,89.035728,-44.706131,-45.054161
7063,6.903933,6.973389,0.120464,-0.088304,-0.032642,0.061610,89.033142,-44.710484,-45.055141
7064,6.905381,6.973296,0.119887,-0.071940,-0.056606,0.070123,89.031906,-44.712704,-45.057182
7065,6.908678,6.965639,0.114782,0.054108,-0.187530,0.341384,89.035522,-44.719635,-45.062744
7066,6.910656,6.966168,0.118432,-0.072718,-0.069294,0.341940,89.039268,-44.731094,-45.068501
7067,6.912780,6.965532,0.121485,-0.161466,0.021665,0.343447,89.035957,-44.742531,-45.069351
7068,6.916038,6.968186,0.125877,-0.273798,0.131013,0.297971,89.026009,-44.753174,-45.065517
7069,6.915454,6.965047,0.127922,-0.296232,0.160942,0.297958,89.011513,-44.763027,-45.058422
7070,6.914653,6.970274,0.128499,-0.257216,0.120028,0.084155,88.997543,-44.769314,-45.051678
7071,6.911187,6.970435,0.127592,-0.173233,0.055863,-0.050536,88.987450,-44.769821,-45.047539
7072,6.911931,6.971823,0.124469,-0.049317,-0.046897,-0.077580,88.983635,-44.767689,-45.047382
7073,6.908703,6.967999,0.119116,0.110173,-0.201086,-0.060971,88.988785,-44.765453,-45.053261
7074,6.910534,6.967785,0.116981,0.158301,-0.250125,0.002793,89.000732,-44.764610,-45.063869
7075,6.909322,6.974764,0.119474,0.061404,-0.138135,-0.226950,89.010872,-44.760998,-45.073074
7076,6.914284,6.975703,0.123660,-0.090214,0.008440,-0.107980,89.012611,-44.755444,-45.076241
7077,6.910799,6.973909,0.126131,-0.167983,0.075066,-0.120895,89.007004,-44.751606,-45.074379
7078,6.913336,6.972675,0.125939,-0.154124,0.053109,-0.002683,88.999550,-44.749508,-45.071426
7079,6.912551,6.976046,0.127243,-0.161719,0.068431,-0.108226,88.992317,-44.747627,-45.068619
7080,6.909650,6.970511,0.125997,-0.117791,0.015915,-0.022202,88.986305,-44.745430,-45.066696
7081,6.909144,6.974329,0.124051,-0.048413,-0.058655,-0.120817,88.984283,-44.743061,-45.067757
7082,6.909288,6.972007,0.124662,-0.066987,-0.046190,-0.039629,88.984138,-44.740421,-45.070286
7083,6.908778,6.980164,0.127165,-0.134603,0.020086,-0.243271,88.981293,-44.735714,-45.071014
7084,6.907913,6.981316,0.127870,-0.151355,0.021914,-0.260805,88.975983,-44.727303,-45.070244
7085,6.907729,6.978164,0.127030,-0.109815,-0.017078,-0.113605,88.971657,-44.721058,-45.070286
7086,6.906075,6.974593,0.120380,0.089507,-0.214683,-0.019568,88.975189,-44.718910,-45.075783
7087,6.900558,6.975877,0.119312,0.113521,-0.224816,-0.186947,88.985878,-44.715595,-45.086170
7088,6.896614,6.970536,0.115276,0.186359,-0.304118,-0.140903,88.999702,-44.710293,-45.098709
7089,6.895816,6.969922,0.112973,0.193783,-0.310378,-0.106181,89.016251,-44.706352,-45.113224
7090,6.896548,6.975075,0.115385,0.081313,-0.195997,-0.199024,89.029274,-44.701412,-45.125221
7091,6.891164,6.977687,0.120584,-0.106662,-0.012928,-0.382834,89.032463,-44.691772,-45.130348
7092,6.898849,6.979443,0.117828,-0.040444,-0.080753,-0.153363,89.031685,-44.682858,-45.132751
7093,6.901318,6.979630,0.121126,-0.117650,0.008757,-0.015568,89.030289,-44.680065,-45.134502
7094,6.901488,6.974985,0.122224,-0.146383,0.033177,0.137132,89.025162,-44.682079,-45.133472
7095,6.900600,6.978229,0.122441,-0.132369,0.022934,0.013258,89.019562,-44.684574,-45.132107
7096,6.905156,6.977159,0.123491,-0.144258,0.032415,0.160422,89.013985,-44.687454,-45.130741
7097,6.903718,6.980543,0.128519,-0.275209,0.140263,0.004713,89.004105,-44.690163,-45.126625
7098,6.901829,6.980146,0.126918,-0.204388,0.069765,-0.064475,88.992645,-44.689091,-45.121716
7099,6.905144,6.985084,0.124919,-0.101369,-0.028551,-0.106648,88.986931,-44.686234,-45.120827
7100,6.905219,6.979500,0.125174,-0.104318,-0.045270,0.062580,88.984741,-44.685520,-45.122570
7101,6.905562,6.976564,0.120727,0.019906,-0.163672,0.143976,88.986717,-44.689030,-45.127388
7102,6.903622,6.971856,0.118533,0.087191,-0.205380,0.188593,88.994492,-44.694679,-45.135899
7103,6.903487,6.971399,0.120099,0.026857,-0.140696,0.165501,89.001999,-44.700680,-45.143867
7104,6.899649,6.967514,0.124135,-0.103976,-0.004476,0.131760,89.002998,-44.705662,-45.147137
7105,6.901690,6.969284,0.122119,-0.030728,-0.049291,0.097989,89.001587,-44.709515,-45.148312
7106,6.903737,6.973309,0.126004,-0.121276,0.037054,0.031314,88.999214,-44.711674,-45.148544
7107,6.906388,6.966703,0.123054,-0.047773,-0.059532,0.265144,88.996674,-44.716614,-45.148937
7108,6.909285,6.967441,0.120936,0.010387,-0.128195,0.294282,88.998978,-44.725990,-45.153111
7109,6.909476,6.964866,0.118414,0.049780,-0.184048,0.293708,89.004974,-44.735889,-45.160202
