seq,ax,ay,az,wroll,wpitch,wyaw,roll,pitch,yaw,q0,q1,q2,q3
2874,0.047173,-0.089431,9.914555,-0.006448,-0.061465,-0.087408,-0.516804,-0.272596,0.002459,0.999987,-0.004510,-0.002379,0.000011
2876,0.031015,-0.139438,9.917021,-0.015796,-0.072085,-0.085881,-0.521704,-0.274460,-0.000186,0.999987,-0.004553,-0.002395,-0.000013
2877,0.030694,-0.126632,9.918430,-0.000869,-0.076535,-0.076722,-0.530278,-0.273785,-0.002834,0.999986,-0.004628,-0.002389,-0.000036
2878,0.035469,-0.132600,9.917326,-0.007270,-0.064217,-0.087401,-0.537826,-0.273389,-0.005512,0.999986,-0.004693,-0.002386,-0.000059
2879,0.039186,-0.134495,9.919206,0.004622,-0.059562,-0.082821,-0.545769,-0.273546,-0.008292,0.999986,-0.004763,-0.002387,-0.000084
2880,0.034431,-0.134720,9.916589,-0.001796,-0.050326,-0.075189,-0.553569,-0.273375,-0.010871,0.999985,-0.004831,-0.002385,-0.000106
2881,0.033081,-0.126697,9.919317,0.010137,-0.042591,-0.064506,-0.560265,-0.272330,-0.013151,0.999985,-0.004889,-0.002376,-0.000126
2882,0.024376,-0.132432,9.921824,-0.014533,-0.040923,-0.073659,-0.566705,-0.270180,-0.015410,0.999985,-0.004946,-0.002357,-0.000146
2883,0.027583,-0.122359,9.922340,-0.011712,-0.048391,-0.067552,-0.572870,-0.267650,-0.017722,0.999985,-0.005000,-0.002335,-0.000166
2884,0.028655,-0.121641,9.922117,-0.022572,-0.040619,-0.069076,-0.577919,-0.265605,-0.019964,0.999985,-0.005044,-0.002317,-0.000186
2885,0.025082,-0.127731,9.926526,-0.009032,-0.057255,-0.078229,-0.583248,-0.263544,-0.022380,0.999984,-0.005090,-0.002299,-0.000207
2886,0.030965,-0.126468,9.924581,-0.012288,-0.058644,-0.085856,-0.588693,-0.262076,-0.025072,0.999984,-0.005138,-0.002286,-0.000231
2887,0.033434,-0.128536,9.921618,0.004298,-0.058542,-0.069069,-0.593821,-0.261492,-0.027611,0.999984,-0.005183,-0.002281,-0.000253
2888,0.030230,-0.138381,9.920619,0.014740,-0.058438,-0.066015,-0.599475,-0.260866,-0.029815,0.999984,-0.005232,-0.002275,-0.000272
2889,0.030304,-0.141535,9.918579,0.011406,-0.067479,-0.073643,-0.606085,-0.260110,-0.032088,0.999983,-0.005290,-0.002268,-0.000292
2890,0.034246,-0.140067,9.918044,0.011125,-0.058224,-0.072113,-0.612717,-0.259762,-0.034464,0.999983,-0.005348,-0.002265,-0.000313
2891,0.027684,-0.146910,9.922762,0.006254,-0.061168,-0.073637,-0.619725,-0.259074,-0.036838,0.999983,-0.005409,-0.002259,-0.000334
2892,0.028920,-0.142686,9.924341,0.002911,-0.061040,-0.073634,-0.626886,-0.257937,-0.039238,0.999982,-0.005471,-0.002249,-0.000355
2893,0.026944,-0.139459,9.925261,-0.008026,-0.065488,-0.075157,-0.633329,-0.256830,-0.041666,0.999982,-0.005528,-0.002239,-0.000376
2894,0.023867,-0.139074,9.922071,-0.012836,-0.063814,-0.066000,-0.639463,-0.255321,-0.043969,0.999982,-0.005581,-0.002226,-0.000396
2895,0.020936,-0.134133,9.920922,-0.003883,-0.065171,-0.062945,-0.644813,-0.253271,-0.046071,0.999982,-0.005628,-0.002208,-0.000414
2896,0.023756,-0.135613,9.917964,0.006617,-0.068056,-0.067520,-0.649320,-0.251341,-0.048201,0.999981,-0.005667,-0.002191,-0.000433
2897,0.019980,-0.137563,9.915611,0.004900,-0.060258,-0.082777,-0.653852,-0.249309,-0.050661,0.999981,-0.005707,-0.002173,-0.000455
2898,0.022950,-0.144487,9.915922,0.027571,-0.057038,-0.084300,-0.658740,-0.247085,-0.053399,0.999981,-0.005750,-0.002154,-0.000478
2899,0.027673,-0.147195,9.915291,0.031901,-0.056902,-0.084297,-0.663949,-0.245618,-0.056161,0.999981,-0.005795,-0.002141,-0.000503
2900,0.026936,-0.148587,9.917932,0.033169,-0.064414,-0.091925,-0.669288,-0.244721,-0.059047,0.999981,-0.005842,-0.002133,-0.000528
2901,0.027515,-0.150243,9.912523,0.016121,-0.061245,-0.084292,-0.675011,-0.243920,-0.061931,0.999980,-0.005892,-0.002125,-0.000553
2902,0.035294,-0.145985,9.917715,0.017402,-0.071843,-0.073608,-0.680564,-0.244074,-0.064510,0.999980,-0.005940,-0.002127,-0.000576
2903,0.037506,-0.141288,9.917624,0.003466,-0.071798,-0.073607,-0.685272,-0.245373,-0.066914,0.999980,-0.005981,-0.002138,-0.000597
2904,0.032968,-0.132135,9.924268,0.009428,-0.071743,-0.067502,-0.688600,-0.246418,-0.069222,0.999979,-0.006010,-0.002147,-0.000617
2905,0.035304,-0.135817,9.923837,-0.008998,-0.059470,-0.053767,-0.691468,-0.247002,-0.071204,0.999979,-0.006035,-0.002152,-0.000634
2906,0.035511,-0.131116,9.929976,0.001576,-0.045681,-0.052240,-0.694259,-0.247363,-0.072938,0.999979,-0.006060,-0.002155,-0.000650
2907,0.026456,-0.132586,9.927526,0.003011,-0.039485,-0.056816,-0.696441,-0.246524,-0.074729,0.999979,-0.006079,-0.002147,-0.000665
2908,0.026062,-0.129456,9.926787,-0.003174,-0.033254,-0.061393,-0.698462,-0.244581,-0.076675,0.999979,-0.006097,-0.002130,-0.000682
2909,0.028944,-0.132583,9.921063,0.001326,-0.033138,-0.072072,-0.700448,-0.242822,-0.078878,0.999979,-0.006114,-0.002115,-0.000701
2910,0.027291,-0.126674,9.921864,0.005839,-0.037608,-0.085804,-0.701954,-0.241322,-0.081488,0.999979,-0.006127,-0.002102,-0.000724
2911,0.024856,-0.124737,9.922538,0.013436,-0.052745,-0.098009,-0.702442,-0.239814,-0.084529,0.999979,-0.006131,-0.002088,-0.000750
2912,0.028028,-0.129674,9.923571,0.021022,-0.058732,-0.102586,-0.702928,-0.238783,-0.087845,0.999979,-0.006136,-0.002079,-0.000779
2913,0.023857,-0.138954,9.922673,0.028555,-0.066242,-0.096480,-0.704515,-0.237922,-0.091127,0.999979,-0.006150,-0.002071,-0.000808
2914,0.019521,-0.139835,9.925007,0.011635,-0.056936,-0.102581,-0.707199,-0.236245,-0.094405,0.999979,-0.006173,-0.002056,-0.000837
2915,0.029047,-0.141184,9.922411,0.009969,-0.047651,-0.091897,-0.710337,-0.234798,-0.097610,0.999978,-0.006201,-0.002044,-0.000864
2916,0.027581,-0.144262,9.918897,-0.010023,-0.035348,-0.085793,-0.714175,-0.233818,-0.100539,0.999978,-0.006234,-0.002035,-0.000890
2917,0.028199,-0.150039,9.923381,-0.016310,-0.032198,-0.081212,-0.719185,-0.232536,-0.103289,0.999978,-0.006278,-0.002024,-0.000914
2918,0.033535,-0.143667,9.921173,-0.016485,-0.027547,-0.078159,-0.724096,-0.231734,-0.105915,0.999978,-0.006321,-0.002016,-0.000937
2919,0.031358,-0.142544,9.921372,-0.010521,-0.035117,-0.070527,-0.728028,-0.231317,-0.108366,0.999977,-0.006355,-0.002013,-0.000958
2920,0.023190,-0.143153,9.923154,-0.004548,-0.044173,-0.065949,-0.731562,-0.230199,-0.110610,0.999977,-0.006386,-0.002003,-0.000978
2921,0.027332,-0.146111,9.921428,0.022778,-0.053216,-0.070524,-0.734760,-0.229021,-0.112850,0.999977,-0.006414,-0.001992,-0.000998
2922,0.028470,-0.142073,9.913125,0.007386,-0.057703,-0.067471,-0.737556,-0.228618,-0.115113,0.999977,-0.006438,-0.001989,-0.001017
2923,0.023357,-0.132596,9.917709,0.010362,-0.057597,-0.068994,-0.739164,-0.227932,-0.117355,0.999977,-0.006452,-0.001982,-0.001037
2924,0.025995,-0.140118,9.916690,0.008770,-0.060535,-0.075097,-0.740482,-0.227075,-0.119724,0.999977,-0.006464,-0.001975,-0.001058
2925,0.029365,-0.142372,9.917961,0.008669,-0.057393,-0.087303,-0.742719,-0.226822,-0.122395,0.999977,-0.006483,-0.001972,-0.001081
2926,0.028632,-0.140992,9.917583,0.000937,-0.055788,-0.082724,-0.745109,-0.226763,-0.125194,0.999976,-0.006504,-0.001972,-0.001105
2927,0.027874,-0.139717,9.919013,0.008477,-0.043496,-0.085774,-0.747169,-0.226335,-0.127972,0.999976,-0.006522,-0.001968,-0.001130
2928,0.030586,-0.153052,9.918612,0.014449,-0.047996,-0.097979,-0.750088,-0.225975,-0.131001,0.999976,-0.006548,-0.001964,-0.001156
2929,0.030562,-0.150382,9.917641,0.008174,-0.040301,-0.091875,-0.753957,-0.225837,-0.134129,0.999976,-0.006582,-0.001963,-0.001183
2930,0.029047,-0.151010,9.915204,-0.008769,-0.044806,-0.073562,-0.757909,-0.225500,-0.136852,0.999975,-0.006616,-0.001960,-0.001207
2931,0.031106,-0.147340,9.918487,-0.019592,-0.053893,-0.076612,-0.761902,-0.225448,-0.139319,0.999975,-0.006651,-0.001959,-0.001229
2932,0.032359,-0.144626,9.920431,-0.025806,-0.059941,-0.072033,-0.765423,-0.225971,-0.141760,0.999975,-0.006682,-0.001964,-0.001250
2933,0.031685,-0.132754,9.922319,-0.045693,-0.062939,-0.058299,-0.767847,-0.226688,-0.143900,0.999975,-0.006703,-0.001970,-0.001269
2934,0.035379,-0.132674,9.923832,-0.027381,-0.056791,-0.059824,-0.769044,-0.227619,-0.145842,0.999975,-0.006714,-0.001978,-0.001286
2935,0.035794,-0.136854,9.924090,-0.030446,-0.055236,-0.079661,-0.770318,-0.228793,-0.148140,0.999975,-0.006725,-0.001988,-0.001306
2936,0.037168,-0.137663,9.920984,-0.021320,-0.056738,-0.067454,-0.771932,-0.230106,-0.150564,0.999974,-0.006739,-0.001999,-0.001327
2937,0.037300,-0.145354,9.919317,-0.021382,-0.055193,-0.079660,-0.774172,-0.231524,-0.152984,0.999974,-0.006759,-0.002011,-0.001349
2938,0.038449,-0.149989,9.918987,-0.010807,-0.062807,-0.079660,-0.777360,-0.233124,-0.155602,0.999974,-0.006786,-0.002025,-0.001372
2939,0.035669,-0.148412,9.919053,-0.020078,-0.067361,-0.075081,-0.780731,-0.234719,-0.158140,0.999974,-0.006816,-0.002039,-0.001394
2940,0.032631,-0.149143,9.922736,-0.015607,-0.068838,-0.067451,-0.783987,-0.235797,-0.160473,0.999974,-0.006844,-0.002048,-0.001414
2941,0.025153,-0.150188,9.927062,-0.006560,-0.048909,-0.070501,-0.787067,-0.235508,-0.162734,0.999973,-0.006871,-0.002045,-0.001434
2942,0.023868,-0.149246,9.932219,0.002491,-0.057939,-0.068972,-0.789735,-0.234180,-0.165024,0.999973,-0.006895,-0.002034,-0.001454
2943,0.022113,-0.144850,9.933261,-0.000641,-0.048647,-0.078126,-0.791687,-0.232582,-0.167442,0.999973,-0.006912,-0.002020,-0.001475
2944,0.022611,-0.142017,9.937601,-0.003740,-0.048507,-0.073546,-0.792963,-0.230755,-0.169943,0.999973,-0.006923,-0.002003,-0.001497
2945,0.022572,-0.135873,9.934212,0.000825,-0.040743,-0.075070,-0.793296,-0.228896,-0.172398,0.999973,-0.006926,-0.001987,-0.001518
2946,0.025476,-0.128144,9.933042,-0.000660,-0.045200,-0.081172,-0.792224,-0.227322,-0.174986,0.999973,-0.006916,-0.001973,-0.001541
2947,0.029517,-0.125739,9.933108,-0.011260,-0.037477,-0.081171,-0.790393,-0.226420,-0.177680,0.999973,-0.006900,-0.001965,-0.001564
2948,0.029944,-0.135531,9.929645,-0.011209,-0.043507,-0.076592,-0.789501,-0.225960,-0.180296,0.999973,-0.006893,-0.001961,-0.001587
2949,0.030028,-0.139616,9.927728,-0.064622,-0.051065,-0.093376,-0.790884,-0.225803,-0.183106,0.999973,-0.006905,-0.001959,-0.001611
2950,0.033354,-0.145144,9.926958,-0.139434,-0.055586,-0.090323,-0.795323,-0.226190,-0.186139,0.999973,-0.006944,-0.001963,-0.001638
2951,0.031856,-0.156702,9.925753,-0.167004,-0.061640,-0.091849,-0.803017,-0.226925,-0.189137,0.999972,-0.007011,-0.001969,-0.001664
2952,0.025595,-0.147446,9.918386,-0.099970,-0.063085,-0.087270,-0.810085,-0.227022,-0.192083,0.999972,-0.007073,-0.001969,-0.001690
2953,0.026675,-0.138699,9.918025,-0.077107,-0.056879,-0.091846,-0.813688,-0.226530,-0.195037,0.999971,-0.007104,-0.001965,-0.001716
2954,0.024869,-0.134221,9.914125,-0.017563,-0.055249,-0.065904,-0.814474,-0.225840,-0.197643,0.999971,-0.007111,-0.001959,-0.001739
2955,0.025383,-0.135962,9.913415,0.040465,-0.052089,-0.068955,-0.812971,-0.224961,-0.199869,0.999971,-0.007098,-0.001951,-0.001758
2956,0.031918,-0.135810,9.917390,-0.022059,-0.050484,-0.059797,-0.811704,-0.224705,-0.201994,0.999971,-0.007087,-0.001948,-0.001777
2957,0.034545,-0.150261,9.924099,-0.112108,-0.048914,-0.055220,-0.814388,-0.225291,-0.203886,0.999971,-0.007110,-0.001953,-0.001793
2958,0.031422,-0.149739,9.924041,-0.054193,-0.039713,-0.062848,-0.818915,-0.225643,-0.205826,0.999971,-0.007150,-0.001956,-0.001810
2959,0.034310,-0.152117,9.925665,-0.081733,-0.038139,-0.085736,-0.822990,-0.225784,-0.208276,0.999971,-0.007185,-0.001957,-0.001832
2960,0.033763,-0.147934,9.926248,-0.124519,-0.044204,-0.082683,-0.827916,-0.226221,-0.211057,0.999970,-0.007228,-0.001961,-0.001856
2961,0.029042,-0.149157,9.930744,-0.142872,-0.048721,-0.096415,-0.833418,-0.226320,-0.214015,0.999970,-0.007277,-0.001961,-0.001882
2962,0.029259,-0.138219,9.929879,-0.042158,-0.051696,-0.099466,-0.836433,-0.226104,-0.217256,0.999970,-0.007303,-0.001959,-0.001910
2963,0.031849,-0.137800,9.932817,-0.069573,-0.059259,-0.093361,-0.836990,-0.226335,-0.220447,0.999970,-0.007308,-0.001961,-0.001938
2964,0.032096,-0.137567,9.932098,-0.113768,-0.062255,-0.093361,-0.838616,-0.227012,-0.223535,0.999969,-0.007322,-0.001967,-0.001965
2965,0.031883,-0.140821,9.933428,-0.093885,-0.056095,-0.105568,-0.840900,-0.227627,-0.226826,0.999969,-0.007342,-0.001972,-0.001994
2966,0.031322,-0.138076,9.927989,-0.174712,-0.051457,-0.100989,-0.844187,-0.227970,-0.230247,0.999969,-0.007371,-0.001975,-0.002024
2967,0.034402,-0.138058,9.922019,-0.292148,-0.046828,-0.096411,-0.850437,-0.228386,-0.233518,0.999968,-0.007425,-0.001978,-0.002053
2968,0.036613,-0.146769,9.918465,-0.363833,-0.052901,-0.104040,-0.860529,-0.229328,-0.236837,0.999968,-0.007514,-0.001986,-0.002082
2969,0.036554,-0.142003,9.917850,-0.282930,-0.052878,-0.099462,-0.870580,-0.230557,-0.240205,0.999967,-0.007601,-0.001996,-0.002111
2970,0.036658,-0.153553,9.913541,-0.244766,-0.048276,-0.096410,-0.878972,-0.231678,-0.243445,0.999966,-0.007675,-0.002005,-0.002140
2971,0.037371,-0.143653,9.912566,-0.151663,-0.043675,-0.093358,-0.885035,-0.232685,-0.246586,0.999966,-0.007728,-0.002014,-0.002167
2973,0.038085,-0.154676,9.915497,-0.172999,-0.069597,-0.104039,-0.889765,-0.234151,-0.249849,0.999965,-0.007769,-0.002026,-0.002196
2974,0.043439,-0.169118,9.915869,-0.070826,-0.063495,-0.099461,-0.895415,-0.236492,-0.253199,0.999965,-0.007818,-0.002046,-0.002226
2975,0.042075,-0.179121,9.920568,-0.112177,-0.058934,-0.099461,-0.902224,-0.238972,-0.256467,0.999964,-0.007878,-0.002068,-0.002254
2976,0.040365,-0.163880,9.924598,-0.319824,-0.077245,-0.079624,-0.912458,-0.241297,-0.259403,0.999964,-0.007967,-0.002088,-0.002280
2977,0.041474,-0.183870,9.925508,-0.506116,-0.130647,-0.043001,-0.929425,-0.244662,-0.261377,0.999962,-0.008116,-0.002117,-0.002298
2978,0.038153,-0.183142,9.922193,-0.558181,-0.126051,-0.006378,-0.951774,-0.248515,-0.262110,0.999960,-0.008311,-0.002150,-0.002305
2979,0.028467,-0.175766,9.921638,-0.723109,-0.138187,0.027195,-0.976317,-0.251104,-0.261676,0.999959,-0.008525,-0.002172,-0.002302
2980,0.030985,-0.174678,9.920476,-0.773528,-0.154868,0.028723,-1.002858,-0.253366,-0.260654,0.999957,-0.008756,-0.002191,-0.002294
2981,0.037327,-0.191081,9.920750,-0.666802,-0.174632,0.001258,-1.029083,-0.257014,-0.260048,0.999955,-0.008985,-0.002222,-0.002289
2982,0.033936,-0.179628,9.920180,-0.196890,-0.081485,-0.053674,-1.045288,-0.259650,-0.260837,0.999953,-0.009127,-0.002245,-0.002297
2983,0.038894,-0.180711,9.918223,0.036573,-0.031065,-0.090294,-1.048063,-0.259969,-0.263202,0.999953,-0.009151,-0.002248,-0.002318
2984,0.041716,-0.181209,9.922614,0.169329,-0.003562,-0.128443,-1.044559,-0.259710,-0.266836,0.999953,-0.009121,-0.002245,-0.002349
2985,0.039413,-0.178350,9.921601,0.514201,0.055983,-0.143701,-1.032871,-0.258064,-0.271388,0.999954,-0.009019,-0.002231,-0.002389
2986,0.032947,-0.154492,9.922634,0.930881,0.117087,-0.143700,-1.006171,-0.253599,-0.276240,0.999956,-0.008786,-0.002192,-0.002430
2987,0.035671,-0.155176,9.917141,0.931048,0.089697,-0.128441,-0.970942,-0.248308,-0.280852,0.999959,-0.008478,-0.002146,-0.002469
2988,0.030337,-0.155363,9.921624,0.917438,0.071467,-0.111655,-0.937058,-0.243677,-0.284910,0.999961,-0.008183,-0.002106,-0.002504
2989,0.027400,-0.147993,9.918421,0.931275,0.057839,-0.093342,-0.903631,-0.238935,-0.288371,0.999964,-0.007891,-0.002065,-0.002533
2990,0.030761,-0.146198,9.916308,0.731473,0.015211,-0.076556,-0.873554,-0.235318,-0.291230,0.999966,-0.007628,-0.002034,-0.002557
2991,0.035305,-0.153099,9.915564,0.433949,0.001539,-0.058244,-0.853322,-0.233530,-0.293483,0.999967,-0.007452,-0.002019,-0.002576
2992,0.032125,-0.145557,9.921031,0.330187,-0.009089,-0.065873,-0.840549,-0.232363,-0.295549,0.999968,-0.007340,-0.002009,-0.002594
2993,0.030378,-0.132323,9.921089,0.302779,-0.012071,-0.087235,-0.828503,-0.231004,-0.298101,0.999968,-0.007235,-0.001997,-0.002616
2994,0.031138,-0.124641,9.919036,0.295274,-0.010473,-0.105545,-0.815440,-0.229624,-0.301320,0.999969,-0.007121,-0.001985,-0.002644
2995,0.027176,-0.123673,9.918480,0.231324,-0.013443,-0.120804,-0.803154,-0.228013,-0.305101,0.999970,-0.007014,-0.001971,-0.002676
2996,0.025100,-0.128838,9.917852,0.234483,-0.020969,-0.157425,-0.792707,-0.226056,-0.309740,0.999970,-0.006923,-0.001954,-0.002717
2997,0.030804,-0.131191,9.915190,0.307789,-0.017830,-0.209306,-0.782086,-0.224602,-0.315848,0.999971,-0.006830,-0.001941,-0.002770
2998,0.033290,-0.128470,9.914746,0.332254,-0.029983,-0.239823,-0.770149,-0.224162,-0.323327,0.999972,-0.006726,-0.001937,-0.002835
2999,0.033215,-0.128551,9.920168,0.162922,-0.020784,-0.258133,-0.760740,-0.224042,-0.331618,0.999972,-0.006644,-0.001936,-0.002907
3000,0.038226,-0.120757,9.922530,0.129411,-0.010079,-0.293230,-0.754312,-0.224084,-0.340806,0.999972,-0.006588,-0.001936,-0.002987
3001,0.034314,-0.097677,9.921803,0.016661,-0.014638,-0.320697,-0.747608,-0.224142,-0.351048,0.999972,-0.006530,-0.001936,-0.003076
3002,0.033856,-0.102089,9.924697,-0.562957,-0.048172,-0.349690,-0.750860,-0.224424,-0.362229,0.999972,-0.006559,-0.001938,-0.003174
3003,0.059246,-0.270124,9.924706,-0.990650,-0.010083,-1.889348,-0.787438,-0.227376,-0.399488,0.999968,-0.006879,-0.001960,-0.003500
3004,0.047451,-0.214554,9.914843,-0.184049,0.233979,-8.395892,-0.821688,-0.228205,-0.570883,0.999960,-0.007180,-0.001956,-0.004996
3005,0.040952,-0.234835,9.911519,-0.466511,0.304163,-10.901462,-0.835381,-0.224082,-0.892585,0.999941,-0.007305,-0.001899,-0.007803
3006,0.044376,-0.254915,9.909821,-0.423980,0.348408,-12.552510,-0.853600,-0.219144,-1.283583,0.999908,-0.007470,-0.001829,-0.011215
3007,0.041101,-0.256519,9.905667,0.086994,0.409437,-13.913637,-0.862834,-0.213331,-1.724802,0.999857,-0.007557,-0.001748,-0.015065
3008,0.014695,-0.100497,9.904704,0.331083,0.447603,-14.873443,-0.855563,-0.205768,-2.204736,0.999785,-0.007499,-0.001652,-0.019252
3009,0.030026,-0.158688,9.912951,-0.518820,0.307245,-11.913148,-0.856199,-0.199172,-2.651314,0.999703,-0.007510,-0.001565,-0.023147
3010,0.037329,-0.154441,9.917893,-0.518836,0.356076,-13.631342,-0.872434,-0.194505,-3.077169,0.999609,-0.007656,-0.001492,-0.026862
3011,0.039478,-0.174970,9.922077,-0.743176,0.465935,-17.043308,-0.892480,-0.188886,-3.588556,0.999478,-0.007836,-0.001404,-0.031323
3012,0.043959,-0.169994,9.922388,-0.929378,0.649029,-22.049871,-0.919197,-0.181020,-4.240304,0.999282,-0.008074,-0.001282,-0.037007
3013,0.040332,-0.169933,9.924491,-0.976706,0.798550,-26.046270,-0.949135,-0.170450,-5.042161,0.998996,-0.008340,-0.001122,-0.043998
3014,0.032930,-0.194304,9.921280,-1.155278,0.906879,-29.337690,-0.983001,-0.157884,-5.965520,0.998607,-0.008638,-0.000930,-0.052045
3015,0.033514,-0.183940,9.920423,-0.892861,1.006055,-32.055363,-1.015488,-0.144087,-6.989060,0.998100,-0.008922,-0.000715,-0.060962
3016,0.030060,-0.168297,9.920203,-0.371000,1.059452,-32.952606,-1.034115,-0.129290,-8.072872,0.997478,-0.009081,-0.000490,-0.070398
3017,0.021813,-0.172395,9.922594,-0.067328,1.044189,-32.360546,-1.038767,-0.113990,-9.161778,0.996763,-0.009115,-0.000268,-0.079872
3018,0.027337,-0.156690,9.923140,0.558331,0.951100,-30.183056,-1.027920,-0.099685,-10.204504,0.995996,-0.009012,-0.000069,-0.088938
3019,0.034851,-0.108849,9.920393,1.295441,0.793906,-25.718197,-0.993277,-0.087595,-11.136485,0.995243,-0.008701,0.000080,-0.097034
3020,0.030928,-0.134658,9.918454,1.007143,0.661118,-21.877443,-0.951195,-0.077546,-11.929998,0.994551,-0.008326,0.000190,-0.103923
3021,0.032213,-0.122885,9.917485,0.383116,0.613780,-21.112953,-0.925205,-0.068872,-12.646725,0.993883,-0.008091,0.000292,-0.110141
3022,0.040317,-0.113519,9.920021,-0.114251,0.575587,-20.574306,-0.917804,-0.061393,-13.341718,0.993197,-0.008017,0.000398,-0.116166
3023,0.040843,-0.135377,9.921647,-0.951916,0.601472,-21.126692,-0.933179,-0.054438,-14.036934,0.992473,-0.008140,0.000524,-0.122189
3024,0.035680,-0.173384,9.926342,-1.876616,0.688395,-23.971018,-0.979370,-0.046890,-14.788786,0.991647,-0.008528,0.000694,-0.128697
3025,0.037690,-0.168363,9.923234,-1.849159,0.763112,-25.921150,-1.041094,-0.038749,-15.620578,0.990682,-0.009047,0.000900,-0.135891
3026,0.043761,-0.182444,9.923377,-1.379174,0.758470,-25.661745,-1.094395,-0.031005,-16.480558,0.989630,-0.009490,0.001101,-0.143321
3027,0.040593,-0.194039,9.921659,-1.304411,0.761452,-25.826546,-1.138865,-0.024111,-17.338974,0.988525,-0.009856,0.001290,-0.150729
3028,0.041759,-0.206022,9.918937,-1.389876,0.794952,-26.342306,-1.183773,-0.017546,-18.208748,0.987349,-0.010224,0.001483,-0.158227
3029,0.048250,-0.212323,9.915455,-1.087757,0.834546,-26.529999,-1.225239,-0.010914,-19.090275,0.986099,-0.010560,0.001679,-0.165816
3030,0.048073,-0.208138,9.915321,-0.840561,0.845140,-26.945053,-1.257342,-0.004414,-19.981863,0.984776,-0.010812,0.001866,-0.173482
3031,0.045792,-0.201649,9.917555,-1.127416,0.896934,-27.726328,-1.289642,0.002185,-20.893412,0.983362,-0.011064,0.002059,-0.181309
3032,0.051707,-0.204908,9.917911,-1.034302,0.947196,-27.512703,-1.324938,0.009555,-21.814461,0.981869,-0.011337,0.002270,-0.189206
3033,0.048769,-0.200658,9.917968,-0.394893,0.930312,-27.013725,-1.347839,0.017182,-22.723650,0.980335,-0.011502,0.002464,-0.196989
3034,0.046459,-0.176123,9.921242,0.313218,0.875283,-26.244663,-1.347450,0.024031,-23.611692,0.978779,-0.011467,0.002611,-0.204579
3035,0.046764,-0.175051,9.924016,0.435404,0.847720,-25.553419,-1.332598,0.030184,-24.475370,0.977211,-0.011309,0.002722,-0.211950
3036,0.046584,-0.219412,9.921706,0.165382,0.855251,-25.925747,-1.321404,0.036227,-25.333731,0.975597,-0.011181,0.002837,-0.219264
3037,0.046759,-0.210823,9.917714,0.435499,0.817001,-26.273663,-1.311275,0.041561,-26.204081,0.973905,-0.011063,0.002947,-0.226667
3038,0.051282,-0.184772,9.919422,0.733113,0.780272,-25.211620,-1.291003,0.046024,-27.062498,0.972182,-0.010859,0.003026,-0.233956
3039,0.051913,-0.206333,9.913218,0.447823,0.729803,-23.166880,-1.270570,0.050336,-27.869116,0.970513,-0.010656,0.003096,-0.240794
3040,0.049113,-0.217231,9.910180,-0.011463,0.706801,-23.525476,-1.263536,0.054216,-28.647619,0.968855,-0.010566,0.003186,-0.247382
3041,0.042155,-0.211813,9.905101,-0.432609,0.805880,-25.509178,-1.271518,0.058681,-29.465178,0.967065,-0.010601,0.003317,-0.254287
3042,0.035572,-0.232286,9.907921,-0.647770,0.821046,-26.215689,-1.290589,0.064150,-30.327600,0.965122,-0.010724,0.003486,-0.261557
3043,0.032129,-0.253058,9.909353,-1.175781,0.866738,-28.496948,-1.323059,0.069318,-31.239826,0.963007,-0.010956,0.003691,-0.269230
3044,0.041771,-0.222673,9.917771,-0.835523,0.949044,-30.947586,-1.358382,0.074025,-32.230934,0.960639,-0.011209,0.003911,-0.277547
3045,0.045468,-0.211150,9.924560,0.673647,0.909263,-27.196865,-1.361641,0.079326,-33.200390,0.958256,-0.011189,0.004058,-0.285663
3046,0.053512,-0.162918,9.926400,1.899059,0.610061,-19.938040,-1.317548,0.083364,-33.986290,0.956279,-0.010783,0.004056,-0.292230
3047,0.056345,-0.153769,9.928841,1.635215,0.463439,-15.447246,-1.255956,0.084786,-34.576271,0.954767,-0.010245,0.003964,-0.297151
3048,0.082113,-0.147383,9.922786,0.234555,0.417500,-15.055085,-1.222063,0.084451,-35.084827,0.953442,-0.009946,0.003917,-0.301387
3049,0.075522,-0.176984,9.918276,-2.110692,0.528713,-16.082039,-1.251575,0.084467,-35.603989,0.952064,-0.010174,0.004041,-0.305702
3050,0.065163,-0.292109,9.926672,-4.106641,0.601794,-18.445700,-1.357032,0.086029,-36.179714,0.950507,-0.011024,0.004391,-0.310478
3051,0.067339,-0.338255,9.929109,-5.403848,0.626053,-22.832739,-1.520850,0.085244,-36.867954,0.948608,-0.012355,0.004902,-0.316174
3052,0.071936,-0.355757,9.926702,-5.605457,0.699135,-26.098225,-1.710197,0.080254,-37.683731,0.946311,-0.013898,0.005482,-0.322911
3053,0.055652,-0.372142,9.924758,-4.404716,0.760022,-25.120110,-1.882212,0.074083,-38.537647,0.943857,-0.015291,0.006030,-0.329946
3054,0.056508,-0.376064,9.927554,-2.764467,0.706481,-23.922262,-2.005728,0.067509,-39.355335,0.941461,-0.016282,0.006448,-0.336667
3055,0.069516,-0.290486,9.913854,-1.964876,0.759743,-25.037718,-2.085282,0.059273,-40.171638,0.939027,-0.016912,0.006735,-0.343361
3056,0.068570,-0.249186,9.914102,-1.094936,0.938122,-24.673027,-2.133037,0.053271,-41.000572,0.936511,-0.017272,0.006954,-0.350143
3057,0.065965,-0.218505,9.915067,-0.684209,1.043263,-24.427361,-2.157135,0.051989,-41.819519,0.933981,-0.017422,0.007142,-0.356826
3058,0.068121,-0.238460,9.918164,-0.586275,1.160614,-26.466002,-2.172219,0.053017,-42.668472,0.931310,-0.017488,0.007327,-0.363734
3059,0.074041,-0.254437,9.913851,-0.508206,1.236755,-28.431396,-2.185145,0.054309,-43.584221,0.928371,-0.017529,0.007519,-0.371164
3060,0.077843,-0.250650,9.912466,-0.440825,1.279317,-29.195890,-2.195886,0.055404,-44.545498,0.925224,-0.017549,0.007710,-0.378938
3061,0.078150,-0.272638,9.912764,-0.342940,1.237949,-28.257454,-2.204230,0.056361,-45.503883,0.922021,-0.017547,0.007892,-0.386662
3062,0.082586,-0.281744,9.913348,-0.309171,1.205731,-27.499075,-2.211031,0.056932,-46.433964,0.918851,-0.017535,0.008062,-0.394132
3063,0.084293,-0.250978,9.914513,-0.333362,1.138411,-26.029617,-2.217056,0.057018,-47.326885,0.915751,-0.017520,0.008221,-0.401279
3064,0.081571,-0.253243,9.914227,-0.574206,1.162647,-26.229519,-2.226737,0.057106,-48.198631,0.912671,-0.017534,0.008389,-0.408234
3065,0.055942,-0.253972,9.913281,-0.624309,1.273888,-28.526043,-2.241330,0.058309,-49.112053,0.909385,-0.017578,0.008591,-0.415494
3066,0.063550,-0.281885,9.911798,-0.558466,1.368361,-30.398355,-2.256350,0.060418,-50.095024,0.905786,-0.017614,0.008813,-0.423278
3067,0.060443,-0.315354,9.910614,-0.518618,1.340756,-30.082499,-2.271022,0.062243,-51.103947,0.902022,-0.017645,0.009038,-0.431235
3068,0.056298,-0.344413,9.910606,-0.471195,1.267378,-28.565731,-2.285614,0.063498,-52.082283,0.898305,-0.017676,0.009254,-0.438919
3069,0.054980,-0.343108,9.917809,-0.182697,1.122287,-25.474213,-2.295078,0.064097,-52.983753,0.894823,-0.017675,0.009434,-0.445971
3070,0.081464,-0.339075,9.922860,-0.202427,0.939024,-21.604471,-2.299692,0.063176,-53.769096,0.891745,-0.017649,0.009566,-0.452093
3071,0.077300,-0.332986,9.923012,-0.417464,0.929695,-21.439680,-2.307816,0.061109,-54.487137,0.888893,-0.017660,0.009693,-0.457672
3072,0.077792,-0.323100,9.920708,-0.444794,1.036340,-23.598869,-2.319559,0.059288,-55.238453,0.885871,-0.017694,0.009842,-0.463489
3073,0.081129,-0.321062,9.920041,-0.354613,1.042271,-23.951365,-2.329906,0.057434,-56.031662,0.882640,-0.017713,0.009992,-0.469609
3074,0.083720,-0.330007,9.915289,-0.273590,1.031412,-23.899492,-2.337453,0.055046,-56.829876,0.879346,-0.017711,0.010128,-0.475746
3076,0.082052,-0.317560,9.919086,-0.096429,0.990034,-23.133484,-2.340490,0.052265,-57.614429,0.876068,-0.017676,0.010241,-0.481755
3077,0.083645,-0.302173,9.918235,0.202836,0.858626,-19.930573,-2.334773,0.049353,-58.332787,0.873031,-0.017580,0.010305,-0.487239
3078,0.085690,-0.289076,9.921616,0.785949,0.774521,-15.676299,-2.313543,0.048006,-58.926830,0.870497,-0.017371,0.010295,-0.491760
3079,0.077715,-0.258103,9.929111,1.358420,0.751459,-12.520692,-2.272002,0.050316,-59.397408,0.868476,-0.017004,0.010204,-0.495334
3080,0.075725,-0.229613,9.931177,1.712730,0.661266,-9.181974,-2.213773,0.055620,-59.759747,0.866915,-0.016508,0.010044,-0.498082
3081,0.074017,-0.221540,9.925223,1.969398,0.516141,-5.986692,-2.144822,0.061599,-60.013115,0.865821,-0.015939,0.009825,-0.500003
3082,0.071294,-0.206697,9.924898,2.141093,0.378413,-3.612367,-2.056729,0.060759,-60.173531,0.865133,-0.015264,0.009456,-0.501222
3083,0.068539,-0.183691,9.927204,1.857044,0.185526,-1.972019,-1.957709,0.051429,-60.266869,0.864736,-0.014549,0.008964,-0.501936
3084,0.072145,-0.191719,9.917528,1.359298,0.032317,-0.961876,-1.873361,0.038027,-60.315861,0.864531,-0.013968,0.008500,-0.502313
3085,0.071530,-0.196982,9.915359,1.255066,-0.062902,-0.403407,-1.803375,0.021468,-60.338577,0.864439,-0.013511,0.008071,-0.502492
3086,0.071873,-0.196736,9.916329,1.170548,-0.080279,-0.305767,-1.739583,0.003922,-60.350323,0.864393,-0.013106,0.007660,-0.502587
3087,0.076848,-0.184071,9.916389,1.180599,-0.088498,-0.241695,-1.678015,-0.013903,-60.359371,0.864360,-0.012719,0.007256,-0.502661
3088,0.086111,-0.208243,9.912758,1.549114,-0.078437,-0.224929,-1.613339,-0.032433,-60.367081,0.864332,-0.012312,0.006834,-0.502725
3089,0.084634,-0.223567,9.922407,1.957067,-0.060752,-0.252414,-1.541612,-0.050635,-60.374996,0.864303,-0.011850,0.006383,-0.502791
3090,0.084820,-0.207240,9.926831,2.007869,-0.030831,-0.253957,-1.464384,-0.067298,-60.383423,0.864273,-0.011341,0.005919,-0.502860
3091,0.085562,-0.184292,9.927755,1.962588,-0.013095,-0.223454,-1.385758,-0.082648,-60.391392,0.864245,-0.010815,0.005459,-0.502926
3092,0.081571,-0.183542,9.929488,1.683829,-0.006009,-0.215839,-1.312845,-0.096711,-60.398739,0.864219,-0.010326,0.005033,-0.502986
3093,0.072572,-0.158221,9.930230,1.048003,-0.020215,-0.194488,-1.255189,-0.109133,-60.405598,0.864193,-0.009946,0.004687,-0.503041
3094,0.076643,-0.114334,9.920561,0.613777,-0.037437,-0.145669,-1.210900,-0.121139,-60.411285,0.864171,-0.009664,0.004403,-0.503086
3095,0.078182,-0.117822,9.916862,0.042305,-0.066872,-0.115162,-1.181205,-0.134035,-60.415646,0.864154,-0.009497,0.004175,-0.503121
3096,0.081197,-0.133955,9.914785,-0.228684,-0.082575,-0.098386,-1.168681,-0.147693,-60.419193,0.864138,-0.009462,0.004018,-0.503149
3097,0.080647,-0.137457,9.914783,-0.217482,-0.084537,-0.086190,-1.163084,-0.161431,-60.422237,0.864125,-0.009480,0.003890,-0.503174
3098,0.084462,-0.143096,9.913420,-0.099512,-0.078863,-0.077044,-1.156518,-0.174958,-60.424938,0.864113,-0.009490,0.003759,-0.503195
3099,0.080906,-0.150465,9.917952,-0.062474,-0.080802,-0.089261,-1.148818,-0.187991,-60.427681,0.864100,-0.009489,0.003627,-0.503217
3100,0.080117,-0.133513,9.914403,0.050888,-0.082706,-0.077062,-1.137925,-0.200227,-60.430439,0.864089,-0.009460,0.003487,-0.503239
3101,0.075424,-0.127409,9.918038,0.150592,-0.058631,-0.078597,-1.121572,-0.211140,-60.433041,0.864078,-0.009385,0.003334,-0.503260
3102,0.074744,-0.120101,9.916443,0.137413,-0.054357,-0.081657,-1.102935,-0.220677,-60.435722,0.864067,-0.009286,0.003180,-0.503281
3103,0.075304,-0.127989,9.918641,0.060117,-0.059225,-0.063353,-1.086445,-0.229865,-60.438148,0.864057,-0.009202,0.003039,-0.503300
3104,0.071811,-0.115622,9.915897,0.078950,-0.051861,-0.054205,-1.071086,-0.238409,-60.440128,0.864049,-0.009124,0.002907,-0.503316
3105,0.072807,-0.122671,9.920390,0.184759,-0.035321,-0.069471,-1.053666,-0.246018,-60.442223,0.864041,-0.009026,0.002773,-0.503333
3106,0.074250,-0.127212,9.916089,0.169956,-0.041668,-0.080159,-1.036389,-0.253430,-60.444740,0.864031,-0.008928,0.002641,-0.503353
3107,0.070448,-0.128572,9.915059,0.155104,-0.035788,-0.081691,-1.020757,-0.260379,-60.447453,0.864020,-0.008841,0.002521,-0.503374
3108,0.067817,-0.128857,9.914892,0.094447,-0.035978,-0.083222,-1.007092,-0.266375,-60.450226,0.864008,-0.008764,0.002416,-0.503396
3109,0.071362,-0.143097,9.915833,0.024558,-0.054474,-0.087804,-0.997487,-0.272556,-60.453087,0.863996,-0.008718,0.002327,-0.503418
3110,0.069929,-0.146017,9.918344,0.030885,-0.063814,-0.081705,-0.990978,-0.279197,-60.455906,0.863984,-0.008698,0.002249,-0.503439
3111,0.070011,-0.138195,9.921702,0.078419,-0.065511,-0.063398,-0.983360,-0.285668,-60.458313,0.863973,-0.008669,0.002166,-0.503458
3112,0.073879,-0.135767,9.925502,0.115303,-0.067214,-0.057298,-0.973577,-0.292344,-60.460323,0.863965,-0.008625,0.002073,-0.503474
3113,0.074898,-0.129939,9.923940,0.185778,-0.067401,-0.071037,-0.961497,-0.299303,-60.462460,0.863956,-0.008564,0.001968,-0.503490
3114,0.076472,-0.139222,9.923629,0.279114,-0.058434,-0.071041,-0.947384,-0.306143,-60.464821,0.863946,-0.008488,0.001855,-0.503509
3115,0.073535,-0.154565,9.917706,0.221270,-0.057082,-0.069519,-0.935495,-0.312453,-60.467152,0.863937,-0.008426,0.001755,-0.503527
3116,0.073553,-0.153533,9.915415,0.199976,-0.060288,-0.081729,-0.926745,-0.318302,-60.469654,0.863926,-0.008386,0.001673,-0.503546
3117,0.071681,-0.143939,9.911020,0.125301,-0.063478,-0.075628,-0.918925,-0.323883,-60.472260,0.863915,-0.008351,0.001596,-0.503566
3118,0.070296,-0.144049,9.915816,-0.031749,-0.066649,-0.069527,-0.914330,-0.329062,-60.474659,0.863904,-0.008339,0.001537,-0.503585
3119,0.068732,-0.135696,9.916370,-0.368833,-0.072853,-0.068004,-0.917377,-0.333928,-60.476936,0.863894,-0.008384,0.001514,-0.503602
3120,0.070660,-0.118788,9.915764,-0.621896,-0.082104,-0.063429,-0.927854,-0.338918,-60.479118,0.863883,-0.008485,0.001523,-0.503619
3121,0.070984,-0.131190,9.922185,-1.073303,-0.121875,-0.045121,-0.949408,-0.344768,-60.480904,0.863873,-0.008673,0.001573,-0.503632
3122,0.079021,-0.178663,9.918344,-1.364696,-0.157092,-0.025286,-0.988572,-0.352479,-60.482018,0.863865,-0.009002,0.001688,-0.503640
3123,0.079229,-0.188931,9.913914,-0.778864,-0.123667,-0.042073,-1.027387,-0.360794,-60.483028,0.863857,-0.009331,0.001796,-0.503648
3124,0.076877,-0.166169,9.913336,-0.136474,-0.094800,-0.051230,-1.043235,-0.367609,-60.484516,0.863849,-0.009480,0.001814,-0.503659
3125,0.081753,-0.169641,9.919578,-0.404950,-0.130021,-0.046656,-1.050073,-0.374518,-60.486095,0.863841,-0.009562,0.001792,-0.503671
3126,0.068421,-0.179648,9.922975,-1.151076,-0.066015,-0.040554,-1.074725,-0.379895,-60.487488,0.863832,-0.009772,0.001860,-0.503682
3127,0.055163,-0.267481,9.931133,-2.243942,0.040826,-0.063440,-1.138884,-0.379660,-60.489166,0.863819,-0.010254,0.002144,-0.503693
3128,0.056161,-0.260835,9.930171,-2.906751,-0.017081,-0.003924,-1.238618,-0.377330,-60.490211,0.863806,-0.010996,0.002600,-0.503699
3129,0.060591,-0.304383,9.931678,-3.334597,-0.087217,1.001666,-1.357460,-0.377297,-60.473446,0.863867,-0.011892,0.003121,-0.503569
3130,0.054287,-0.324292,9.931129,-2.872929,-0.102416,1.930961,-1.478401,-0.377718,-60.424404,0.864070,-0.012807,0.003644,-0.503196
3131,0.069929,-0.334427,9.920109,-2.102980,-0.218360,2.483351,-1.577908,-0.380472,-60.350613,0.864382,-0.013572,0.004051,-0.502636
3132,0.080973,-0.260710,9.913148,-0.954211,-0.346614,2.637468,-1.635786,-0.389388,-60.264984,0.864749,-0.014051,0.004227,-0.501989
3133,0.077667,-0.275073,9.915411,-0.421585,-0.258207,2.590162,-1.657351,-0.399415,-60.177620,0.865128,-0.014261,0.004235,-0.501330
3134,0.074520,-0.279800,9.913799,-0.198742,-0.175868,1.625775,-1.666727,-0.406117,-60.107189,0.865435,-0.014364,0.004217,-0.500798
3135,0.077490,-0.282793,9.910245,0.063766,-0.085886,0.678173,-1.668036,-0.410574,-60.068687,0.865602,-0.014394,0.004184,-0.500508
3136,0.070357,-0.270704,9.910931,0.643708,0.034637,0.090691,-1.654076,-0.411685,-60.055859,0.865660,-0.014294,0.004113,-0.500412
3137,0.069911,-0.245183,9.917009,0.894188,0.092630,-0.060377,-1.622759,-0.409353,-60.055458,0.865666,-0.014048,0.003994,-0.500409
3138,0.074917,-0.250565,9.915908,0.538922,0.023953,-0.061906,-1.591974,-0.407727,-60.057590,0.865660,-0.013808,0.003872,-0.500427
3139,0.078069,-0.243298,9.914622,0.351475,-0.006610,-0.098530,-1.571090,-0.408623,-60.060326,0.865651,-0.013654,0.003774,-0.500448
3140,0.080958,-0.238105,9.917072,0.180825,-0.041775,-0.086327,-1.555830,-0.411217,-60.063419,0.865639,-0.013550,0.003688,-0.500472
3141,0.087330,-0.241923,9.919607,-0.078346,-0.075446,-0.068021,-1.548197,-0.415773,-60.065990,0.865628,-0.013512,0.003621,-0.500492
3142,0.085389,-0.241487,9.920775,-0.191055,-0.101501,-0.055817,-1.547463,-0.421615,-60.068016,0.865619,-0.013532,0.003574,-0.500508
3143,0.088068,-0.258101,9.917489,-0.116145,-0.092454,-0.031406,-1.549065,-0.427622,-60.069401,0.865612,-0.013570,0.003536,-0.500519
3144,0.084116,-0.271182,9.921785,0.297408,-0.068136,-0.060402,-1.545364,-0.432755,-60.070869,0.865606,-0.013565,0.003481,-0.500530
3145,0.080658,-0.256229,9.922531,0.935278,-0.098715,-0.090922,-1.523974,-0.437115,-60.073322,0.865597,-0.013422,0.003355,-0.500550
3146,0.075305,-0.235603,9.924435,1.178053,-0.113994,-0.078717,-1.484894,-0.441238,-60.076084,0.865589,-0.013145,0.003153,-0.500572
3147,0.076887,-0.214663,9.918751,0.880770,-0.088054,-0.072615,-1.443743,-0.444674,-60.078568,0.865583,-0.012849,0.002948,-0.500592
3148,0.066757,-0.184310,9.926691,0.121276,-0.074283,-0.083299,-1.416603,-0.446499,-60.081169,0.865574,-0.012652,0.002816,-0.500613
3149,0.070583,-0.188336,9.922914,-0.810592,-0.208499,0.032670,-1.416265,-0.449591,-60.081989,0.865570,-0.012663,0.002791,-0.500619
3150,0.069031,-0.210966,9.919564,-1.713588,-0.226750,0.108965,-1.449568,-0.455285,-60.079525,0.865577,-0.012939,0.002893,-0.500600
3151,0.076708,-0.249372,9.915215,-1.870620,-0.220604,0.363793,-1.505924,-0.461483,-60.071491,0.865605,-0.013392,0.003092,-0.500539
3152,0.074200,-0.285257,9.916457,-1.095539,-0.135122,0.391262,-1.557678,-0.466322,-60.058739,0.865654,-0.013805,0.003280,-0.500441
3153,0.079452,-0.281217,9.914013,0.082337,-0.057273,0.351590,-1.578148,-0.468518,-60.046234,0.865706,-0.013969,0.003351,-0.500346
3154,0.077623,-0.264245,9.916230,0.494326,0.049560,0.284449,-1.568880,-0.467897,-60.035629,0.865754,-0.013897,0.003314,-0.500267
3155,0.081577,-0.267520,9.919683,0.708006,0.080090,0.307339,-1.547658,-0.465185,-60.025837,0.865799,-0.013725,0.003240,-0.500193
3156,0.076994,-0.246210,9.917260,0.811869,0.115199,0.041827,-1.519881,-0.461486,-60.020130,0.865828,-0.013499,0.003146,-0.500150
3157,0.077990,-0.233263,9.918694,0.416853,0.028242,0.000626,-1.494438,-0.458551,-60.019531,0.865834,-0.013294,0.003058,-0.500146
3158,0.077962,-0.252958,9.914884,-0.080463,-0.072457,0.031143,-1.485408,-0.458953,-60.019009,0.865837,-0.013227,0.003015,-0.500143
3159,0.081544,-0.261264,9.915690,0.044671,-0.069407,0.009780,-1.485859,-0.461363,-60.018269,0.865840,-0.013241,0.002999,-0.500137
3160,0.081468,-0.246837,9.915174,0.172872,-0.029747,-0.072621,-1.481628,-0.463397,-60.019283,0.865836,-0.013218,0.002965,-0.500145
3161,0.077466,-0.247815,9.919441,0.034086,-0.054158,-0.090931,-1.476318,-0.464752,-60.021984,0.865824,-0.013184,0.002932,-0.500166
3162,0.076453,-0.244110,9.919536,-0.008562,-0.066338,-0.107717,-1.473914,-0.466188,-60.025257,0.865810,-0.013172,0.002911,-0.500191
3163,0.076482,-0.237824,9.919641,0.014439,-0.058678,-0.113820,-1.471001,-0.467568,-60.028923,0.865795,-0.013156,0.002888,-0.500219
3164,0.073451,-0.233126,9.917406,0.019166,-0.060158,-0.095509,-1.466664,-0.468506,-60.032379,0.865780,-0.013127,0.002863,-0.500245
3165,0.072327,-0.239772,9.918727,-0.064622,-0.082984,-0.098560,-1.463958,-0.469404,-60.035580,0.865766,-0.013111,0.002844,-0.500269
3166,0.079790,-0.239299,9.916090,-0.127076,-0.107359,-0.093983,-1.464403,-0.471668,-60.038731,0.865752,-0.013124,0.002830,-0.500293
3167,0.080259,-0.248012,9.917083,-0.062912,-0.090563,-0.087880,-1.465656,-0.474766,-60.041698,0.865739,-0.013147,0.002812,-0.500316
3168,0.082281,-0.251838,9.913513,0.060717,-0.076825,-0.084828,-1.464965,-0.477503,-60.044514,0.865726,-0.013153,0.002789,-0.500337
3169,0.081166,-0.250917,9.915177,0.249948,-0.069189,-0.133658,-1.459327,-0.479895,-60.048088,0.865711,-0.013121,0.002746,-0.500365
3170,0.079530,-0.236404,9.914632,0.468228,-0.060015,-0.135184,-1.445508,-0.481676,-60.052536,0.865693,-0.013024,0.002673,-0.500399
3171,0.073523,-0.237090,9.916211,0.393571,-0.029444,-0.122976,-1.428288,-0.481984,-60.056824,0.865676,-0.012896,0.002596,-0.500431
3172,0.074943,-0.235320,9.915751,0.199874,-0.032426,-0.092456,-1.415955,-0.481337,-60.060398,0.865662,-0.012799,0.002547,-0.500459
3173,0.078286,-0.236175,9.917622,0.119080,-0.044581,-0.086352,-1.408605,-0.481388,-60.063370,0.865650,-0.012744,0.002515,-0.500481
3174,0.077664,-0.234095,9.917123,-0.089899,-0.052169,-0.058885,-1.406295,-0.482026,-60.065762,0.865640,-0.012729,0.002501,-0.500499
3175,0.079218,-0.248396,9.914775,-0.286725,-0.055183,-0.048202,-1.412099,-0.482905,-60.067505,0.865631,-0.012777,0.002519,-0.500513
3176,0.080578,-0.251396,9.914806,0.174058,-0.052103,-0.063461,-1.415115,-0.484042,-60.069321,0.865623,-0.012805,0.002524,-0.500526
3177,0.077290,-0.278829,9.911919,0.813263,-0.073430,-0.086348,-1.402582,-0.485280,-60.071735,0.865614,-0.012715,0.002460,-0.500545
3179,0.078379,-0.262283,9.911659,0.959546,-0.084064,-0.098551,-1.378167,-0.486816,-60.074703,0.865603,-0.012538,0.002343,-0.500568
3180,0.079902,-0.249349,9.909728,1.148643,-0.100812,-0.101601,-1.345944,-0.489019,-60.077942,0.865592,-0.012304,0.002185,-0.500593
3181,0.080791,-0.236064,9.909834,1.304233,-0.111462,-0.115334,-1.306396,-0.491856,-60.081459,0.865581,-0.012017,0.001992,-0.500621
3182,0.084793,-0.214106,9.910096,1.026547,-0.117550,-0.104652,-1.266685,-0.495357,-60.085045,0.865569,-0.011733,0.001792,-0.500649
3183,0.090597,-0.161253,9.913091,0.520209,-0.100782,-0.103129,-1.234151,-0.499512,-60.088490,0.865557,-0.011505,0.001619,-0.500675
3184,0.080266,-0.165021,9.918455,-0.072966,-0.067206,-0.100080,-1.216406,-0.502255,-60.091900,0.865544,-0.011383,0.001521,-0.500702
3185,0.076518,-0.180566,9.919268,-0.858515,-0.028994,-0.074141,-1.224331,-0.502315,-60.094830,0.865530,-0.011443,0.001555,-0.500724
3186,0.076254,-0.191656,9.915071,-1.288631,-0.001446,-0.055830,-1.255256,-0.500835,-60.097031,0.865518,-0.011670,0.001702,-0.500740
3187,0.073788,-0.210569,9.913383,-1.360246,0.000170,-0.057355,-1.296798,-0.498627,-60.098946,0.865505,-0.011974,0.001900,-0.500753
3188,0.067230,-0.228511,9.911860,-1.367866,0.009449,-0.058878,-1.342007,-0.495435,-60.100895,0.865492,-0.012302,0.002122,-0.500767
3189,0.076177,-0.230343,9.908291,-1.116097,0.001930,-0.051246,-1.383618,-0.492537,-60.102734,0.865480,-0.012603,0.002326,-0.500780
3190,0.080402,-0.232127,9.908010,-0.661337,-0.023955,-0.042090,-1.412365,-0.491562,-60.104290,0.865470,-0.012816,0.002459,-0.500791
3191,0.080303,-0.228267,9.911132,-0.368270,-0.037652,-0.048193,-1.427270,-0.491706,-60.105793,0.865462,-0.012929,0.002524,-0.500802
3192,0.079860,-0.230142,9.910406,-0.320839,-0.043718,-0.039038,-1.435577,-0.492138,-60.107239,0.865454,-0.012994,0.002557,-0.500813
3193,0.076559,-0.243120,9.910978,-0.171214,-0.046716,-0.055822,-1.441643,-0.492353,-60.108807,0.865447,-0.013040,0.002582,-0.500825
3194,0.072569,-0.249132,9.910920,0.457489,-0.093938,-0.064976,-1.436320,-0.492703,-60.110764,0.865439,-0.013002,0.002556,-0.500840
3195,0.070329,-0.218330,9.911410,1.278554,-0.124351,-0.097018,-1.404428,-0.493754,-60.113392,0.865431,-0.012765,0.002409,-0.500860
3196,0.071492,-0.210835,9.914909,1.674010,-0.145601,-0.110752,-1.349179,-0.495552,-60.116795,0.865422,-0.012356,0.002154,-0.500887
3197,0.075168,-0.204331,9.919781,1.745964,-0.147033,-0.126010,-1.286223,-0.498148,-60.120686,0.865411,-0.011892,0.001860,-0.500918
3198,0.081843,-0.188697,9.923842,1.799617,-0.156130,-0.115329,-1.220995,-0.501834,-60.124645,0.865400,-0.011415,0.001547,-0.500949
3199,0.085794,-0.173708,9.926168,1.575582,-0.111857,-0.119909,-1.157786,-0.505841,-60.128529,0.865389,-0.010955,0.001241,-0.500979
3200,0.090217,-0.192690,9.929065,0.886040,-0.084395,-0.112282,-1.112318,-0.509320,-60.132378,0.865376,-0.010627,0.001017,-0.501009
3201,0.088979,-0.191539,9.930726,0.535112,-0.069148,-0.109231,-1.087710,-0.512259,-60.136009,0.865362,-0.010454,0.000887,-0.501037
3202,0.085720,-0.177430,9.926658,0.596198,-0.059984,-0.113808,-1.067638,-0.514254,-60.139706,0.865348,-0.010311,0.000785,-0.501065
3203,0.084562,-0.170594,9.925415,0.439126,-0.063006,-0.106179,-1.047905,-0.515642,-60.143360,0.865334,-0.010168,0.000688,-0.501093
3204,0.078931,-0.175153,9.921227,0.265250,-0.072105,-0.092445,-1.034145,-0.516518,-60.146641,0.865320,-0.010068,0.000622,-0.501118
3205,0.076907,-0.173234,9.918294,0.271400,-0.068965,-0.093970,-1.024007,-0.516722,-60.149727,0.865308,-0.009993,0.000576,-0.501141
3206,0.075882,-0.173395,9.914660,0.176829,-0.056657,-0.095494,-1.015582,-0.516361,-60.152859,0.865295,-0.009927,0.000542,-0.501165
3207,0.072543,-0.174507,9.914482,0.074613,-0.062643,-0.084811,-1.010876,-0.515478,-60.155827,0.865282,-0.009888,0.000529,-0.501187
3208,0.074121,-0.172522,9.911132,0.269945,-0.035054,-0.098542,-1.004759,-0.514088,-60.158855,0.865270,-0.009836,0.000513,-0.501210
3209,0.075499,-0.159925,9.911247,0.416497,-0.028840,-0.097015,-0.991723,-0.512464,-60.162109,0.865257,-0.009730,0.000468,-0.501234
3210,0.074768,-0.156466,9.908575,0.370830,-0.031787,-0.087859,-0.975784,-0.510895,-60.165199,0.865245,-0.009603,0.000410,-0.501258
3211,0.077380,-0.154092,9.908014,0.274811,-0.048476,-0.075650,-0.962136,-0.509885,-60.167931,0.865234,-0.009495,0.000359,-0.501278
3212,0.079776,-0.165894,9.911459,0.233670,-0.052980,-0.078701,-0.952171,-0.509747,-60.170483,0.865224,-0.009420,0.000316,-0.501298
3213,0.076407,-0.153814,9.917274,0.331373,-0.054427,-0.072597,-0.941618,-0.509626,-60.172981,0.865214,-0.009339,0.000271,-0.501316
3214,0.078670,-0.153418,9.917917,0.142238,-0.065026,-0.078700,-0.931719,-0.509598,-60.175495,0.865203,-0.009264,0.000228,-0.501335
3215,0.076775,-0.160169,9.923081,-0.004210,-0.072575,-0.066491,-0.928358,-0.509904,-60.177883,0.865193,-0.009240,0.000212,-0.501354
3216,0.078164,-0.155957,9.922374,0.110257,-0.067914,-0.075646,-0.925989,-0.510200,-60.180214,0.865183,-0.009224,0.000199,-0.501371
3217,0.082080,-0.150547,9.919781,0.018759,-0.070902,-0.066490,-0.922411,-0.510972,-60.182568,0.865173,-0.009200,0.000178,-0.501389
3218,0.083083,-0.159044,9.916686,-0.245186,-0.089169,-0.057334,-0.925165,-0.512552,-60.184593,0.865164,-0.009228,0.000178,-0.501404
3219,0.081900,-0.171269,9.919343,-0.281849,-0.098278,-0.060385,-0.934939,-0.514532,-60.186493,0.865155,-0.009310,0.000206,-0.501419
3220,0.084512,-0.168202,9.918057,-0.103382,-0.078397,-0.083273,-0.943017,-0.516416,-60.188824,0.865144,-0.009380,0.000227,-0.501436
3221,0.080456,-0.167364,9.915813,-0.046964,-0.066137,-0.077168,-0.946509,-0.517569,-60.191444,0.865132,-0.009411,0.000234,-0.501456
3222,0.078158,-0.165433,9.915285,0.000318,-0.058429,-0.072588,-0.947820,-0.517726,-60.193901,0.865121,-0.009422,0.000239,-0.501475
3223,0.077280,-0.175834,9.911438,-0.030252,-0.056812,-0.066483,-0.949596,-0.517400,-60.196178,0.865111,-0.009433,0.000249,-0.501492
3224,0.074141,-0.164729,9.910391,0.004796,-0.046023,-0.063429,-0.951188,-0.516485,-60.198303,0.865102,-0.009442,0.000263,-0.501508
3225,0.072625,-0.171134,9.913873,-0.230223,-0.059632,-0.040538,-0.955603,-0.515180,-60.199997,0.865094,-0.009469,0.000293,-0.501521
3226,0.073656,-0.192013,9.921170,-0.335640,-0.057982,-0.042061,-0.968204,-0.514051,-60.201317,0.865087,-0.009559,0.000357,-0.501531
3227,0.076388,-0.180333,9.919747,-0.174043,-0.047192,-0.057316,-0.980458,-0.513118,-60.202908,0.865079,-0.009648,0.000417,-0.501542
3228,0.075722,-0.161357,9.922462,-0.079451,-0.039463,-0.080203,-0.985071,-0.512120,-60.205177,0.865069,-0.009678,0.000445,-0.501559
3229,0.078455,-0.175280,9.921098,0.006016,-0.034796,-0.083254,-0.985909,-0.511154,-60.207882,0.865057,-0.009680,0.000456,-0.501580
3230,0.079070,-0.166549,9.919764,0.504990,-0.019460,-0.096986,-0.977416,-0.510216,-60.210869,0.865045,-0.009612,0.000427,-0.501602
3231,0.073148,-0.143174,9.916710,0.929314,-0.004107,-0.093933,-0.950578,-0.508292,-60.214066,0.865033,-0.009401,0.000324,-0.501627
3232,0.071996,-0.149460,9.919716,0.876065,-0.010091,-0.095458,-0.916500,-0.505578,-60.217258,0.865022,-0.009132,0.000195,-0.501651
3233,0.074376,-0.156861,9.919896,0.758634,-0.020659,-0.072568,-0.887598,-0.503325,-60.220062,0.865012,-0.008904,0.000086,-0.501672
3234,0.073482,-0.143964,9.919368,0.511478,-0.026660,-0.063412,-0.865299,-0.501565,-60.222321,0.865004,-0.008728,0.000002,-0.501689
3235,0.074158,-0.148611,9.918548,0.018646,-0.043343,-0.054255,-0.855397,-0.500225,-60.224285,0.864996,-0.008647,-0.000031,-0.501704
3236,0.078569,-0.154353,9.917556,-0.278929,-0.056998,-0.042046,-0.860210,-0.499928,-60.225861,0.864989,-0.008682,-0.000008,-0.501715
3237,0.074749,-0.147903,9.918436,-0.292683,-0.058447,-0.042045,-0.870231,-0.499963,-60.227215,0.864982,-0.008758,0.000036,-0.501726
3238,0.074109,-0.159974,9.924959,-0.227099,-0.056828,-0.038991,-0.879672,-0.499565,-60.228539,0.864976,-0.008828,0.000080,-0.501736
3239,0.074287,-0.161327,9.930751,0.212298,-0.039947,-0.045093,-0.881643,-0.498812,-60.229897,0.864970,-0.008839,0.000095,-0.501746
3240,0.071890,-0.142417,9.928735,0.725015,-0.023058,-0.055773,-0.865860,-0.497304,-60.231567,0.864964,-0.008713,0.000037,-0.501758
3241,0.075161,-0.135841,9.928177,0.720531,-0.033641,-0.063402,-0.839387,-0.495818,-60.233555,0.864957,-0.008507,-0.000067,-0.501773
3242,0.076330,-0.142912,9.928937,0.645825,-0.032036,-0.038986,-0.814987,-0.494954,-60.235260,0.864952,-0.008319,-0.000167,-0.501786
3243,0.074450,-0.123779,9.924038,0.516199,-0.039585,-0.040512,-0.793690,-0.494157,-60.236588,0.864948,-0.008155,-0.000255,-0.501796
3244,0.074649,-0.128668,9.923329,-0.029981,-0.065440,-0.032881,-0.783056,-0.493785,-60.237797,0.864943,-0.008073,-0.000298,-0.501805
3245,0.075570,-0.150652,9.922555,-0.384020,-0.085197,-0.035932,-0.790546,-0.494300,-60.238918,0.864938,-0.008132,-0.000269,-0.501814
3246,0.071704,-0.149439,9.923446,-0.287993,-0.083579,-0.045086,-0.804385,-0.494834,-60.240208,0.864931,-0.008239,-0.000213,-0.501823
3247,0.072930,-0.150932,9.922989,-0.195004,-0.081951,-0.060343,-0.814741,-0.495049,-60.241909,0.864923,-0.008318,-0.000169,-0.501836
3248,0.074186,-0.154981,9.923021,0.055150,-0.066597,-0.067971,-0.819505,-0.495212,-60.243980,0.864913,-0.008354,-0.000149,-0.501852
3249,0.072853,-0.156214,9.916735,0.320551,-0.051244,-0.078649,-0.815939,-0.494859,-60.246387,0.864903,-0.008326,-0.000162,-0.501870
3250,0.070732,-0.143441,9.918353,0.416621,-0.048085,-0.081699,-0.805224,-0.493875,-60.249012,0.864892,-0.008241,-0.000201,-0.501890
3251,0.068522,-0.141608,9.920237,0.366249,-0.041858,-0.084749,-0.792573,-0.492338,-60.251774,0.864881,-0.008138,-0.000245,-0.501911
3252,0.062735,-0.135576,9.916502,0.262484,-0.038654,-0.089325,-0.782124,-0.489918,-60.254654,0.864869,-0.008049,-0.000272,-0.501932
3253,0.060130,-0.137607,9.916219,0.056481,-0.047629,-0.093900,-0.776843,-0.486857,-60.257687,0.864857,-0.007996,-0.000272,-0.501955
3254,0.059437,-0.134454,9.919693,-0.059498,-0.053542,-0.086268,-0.777078,-0.483815,-60.260658,0.864844,-0.007984,-0.000248,-0.501977
3255,0.058145,-0.134722,9.918104,-0.283808,-0.067081,-0.078636,-0.782791,-0.481004,-60.263378,0.864832,-0.008015,-0.000201,-0.501998
3256,0.062446,-0.139431,9.915301,-0.347914,-0.069954,-0.075581,-0.793699,-0.478854,-60.265915,0.864820,-0.008088,-0.000137,-0.502017
3257,0.065493,-0.138067,9.918968,-0.259427,-0.071333,-0.067949,-0.804246,-0.477562,-60.268272,0.864809,-0.008162,-0.000081,-0.502035
3258,0.073883,-0.138254,9.919242,-0.276212,-0.072758,-0.042007,-0.813126,-0.477466,-60.270077,0.864801,-0.008228,-0.000041,-0.502048
3259,0.077731,-0.131309,9.919898,-0.209031,-0.074231,-0.023696,-0.820197,-0.478607,-60.271145,0.864795,-0.008287,-0.000019,-0.502056
3260,0.081660,-0.133071,9.923589,-0.096041,-0.068103,0.006823,-0.823501,-0.480388,-60.271404,0.864794,-0.008320,-0.000018,-0.502058
3261,0.084890,-0.143121,9.925599,-0.216555,-0.078787,0.077015,-0.827901,-0.482856,-60.269978,0.864800,-0.008364,-0.000017,-0.502048
3262,0.087793,-0.154117,9.926280,-0.192184,-0.080335,0.154838,-0.835817,-0.486008,-60.266068,0.864816,-0.008437,-0.000006,-0.502018
3263,0.082676,-0.152961,9.922448,0.132765,-0.066611,0.223504,-0.838677,-0.488617,-60.259712,0.864843,-0.008470,-0.000014,-0.501970
3264,0.083958,-0.156444,9.920070,0.472972,-0.040662,0.325742,-0.830530,-0.490064,-60.250523,0.864884,-0.008415,-0.000061,-0.501901
3265,0.085438,-0.145398,9.914527,0.793367,-0.019299,0.435609,-0.810774,-0.490879,-60.237804,0.864941,-0.008269,-0.000155,-0.501805
3266,0.080394,-0.136300,9.914535,0.982591,-0.008603,0.626350,-0.781102,-0.490720,-60.220112,0.865021,-0.008045,-0.000285,-0.501672
3267,0.078830,-0.133437,9.912089,0.916998,-0.023820,1.117698,-0.749141,-0.489848,-60.191044,0.865150,-0.007800,-0.000420,-0.501452
3268,0.074662,-0.128848,9.914052,0.819348,-0.066484,2.201106,-0.720435,-0.489084,-60.135712,0.865394,-0.007579,-0.000544,-0.501034
3269,0.072713,-0.117022,9.912904,0.656107,-0.139643,4.100884,-0.695931,-0.489097,-60.030643,0.865855,-0.007394,-0.000658,-0.500240
3270,0.066149,-0.105833,9.916615,0.544801,-0.223452,6.757521,-0.675320,-0.490049,-59.849621,0.866645,-0.007241,-0.000766,-0.498872
3271,0.066269,-0.106177,9.916980,0.763105,-0.305709,9.415684,-0.653393,-0.492168,-59.579987,0.867818,-0.007082,-0.000895,-0.496831
3272,0.060230,-0.076044,9.915475,1.143137,-0.378859,11.828173,-0.622758,-0.497246,-59.225826,0.869351,-0.006869,-0.001087,-0.494146
3273,0.063048,-0.071108,9.914671,1.147786,-0.430694,13.581461,-0.586510,-0.505118,-58.802216,0.871173,-0.006623,-0.001328,-0.490929
3274,0.060203,-0.075223,9.916557,1.256188,-0.430645,13.860705,-0.548996,-0.513726,-58.344730,0.873128,-0.006368,-0.001579,-0.487447
3276,0.063597,-0.074252,9.912881,1.112796,-0.438225,14.281860,-0.512624,-0.522599,-57.875561,0.875118,-0.006122,-0.001827,-0.483868
3277,0.062099,-0.069050,9.911878,0.795442,-0.444276,14.701489,-0.484294,-0.531807,-57.392399,0.877151,-0.005936,-0.002042,-0.480173
3278,0.067825,-0.076730,9.913084,0.737482,-0.453381,15.136378,-0.462761,-0.541381,-56.894985,0.879228,-0.005801,-0.002230,-0.476361
3279,0.067578,-0.070084,9.915474,0.423158,-0.436548,15.714705,-0.447909,-0.550911,-56.380688,0.881357,-0.005716,-0.002391,-0.472410
3280,0.068045,-0.070994,9.917292,-0.152101,-0.485326,17.806747,-0.448412,-0.560607,-55.821884,0.883650,-0.005748,-0.002491,-0.468106
3281,0.063893,-0.075602,9.918794,-0.007129,-0.538675,19.941521,-0.457075,-0.571221,-55.192627,0.886206,-0.005844,-0.002570,-0.463247
3282,0.063853,-0.080380,9.917960,0.189715,-0.566077,21.339268,-0.460941,-0.582487,-54.504475,0.888971,-0.005904,-0.002677,-0.457917
3283,0.053643,-0.079119,9.926689,0.095108,-0.576678,21.798571,-0.463587,-0.593760,-53.785370,0.891827,-0.005952,-0.002791,-0.452330
3284,0.052916,-0.081902,9.930057,0.725315,-0.608629,22.013727,-0.457575,-0.605301,-53.055023,0.894691,-0.005932,-0.002943,-0.446637
3285,0.050213,-0.078223,9.930964,1.524899,-0.584114,20.950157,-0.427725,-0.617163,-52.338814,0.897466,-0.005725,-0.003187,-0.441035
3286,0.054701,-0.067645,9.933671,1.607306,-0.515344,18.578871,-0.382502,-0.628301,-51.679874,0.899989,-0.005394,-0.003480,-0.435866
3287,0.056943,-0.045565,9.939565,1.618014,-0.472518,16.978174,-0.334644,-0.638562,-51.087147,0.902233,-0.005038,-0.003769,-0.431204
3288,0.062702,-0.039795,9.933390,1.709608,-0.431222,16.425789,-0.284500,-0.648220,-50.530342,0.904319,-0.004660,-0.004056,-0.426813
3289,0.062337,-0.027258,9.929739,1.785942,-0.402135,16.312872,-0.231490,-0.657302,-49.984623,0.906343,-0.004254,-0.004345,-0.422499
3290,0.068880,-0.020580,9.918033,1.558620,-0.397466,16.546337,-0.181075,-0.666377,-49.436901,0.908353,-0.003867,-0.004622,-0.418160
3291,0.064947,-0.016099,9.920482,0.881142,-0.365330,16.769123,-0.146078,-0.675200,-48.881599,0.910370,-0.003598,-0.004837,-0.413752
3292,0.060869,-0.003288,9.916281,0.104481,-0.343864,17.004116,-0.135425,-0.683047,-48.318672,0.912391,-0.003518,-0.004955,-0.409274
3293,0.064157,-0.019086,9.911436,-0.409730,-0.348336,17.712145,-0.146813,-0.690478,-47.740021,0.914445,-0.003610,-0.004992,-0.404662
3294,0.060026,-0.026940,9.914753,-1.104024,-0.368064,18.639908,-0.179316,-0.697939,-47.134090,0.916571,-0.003869,-0.004957,-0.399823
3295,0.049531,-0.029419,9.921920,-1.049091,-0.395405,20.054440,-0.223095,-0.705221,-46.489113,0.918805,-0.004218,-0.004886,-0.394659
3296,0.057682,-0.047989,9.923556,-0.847676,-0.456311,22.013731,-0.263572,-0.713178,-45.787907,0.921201,-0.004540,-0.004839,-0.389031
3297,0.060466,-0.074072,9.930778,-0.650868,-0.505017,23.342812,-0.298928,-0.722434,-45.031853,0.923745,-0.004824,-0.004825,-0.382947
3298,0.060148,-0.065197,9.935933,-0.692108,-0.555250,24.047792,-0.332346,-0.732682,-44.241898,0.926361,-0.005094,-0.004831,-0.376571
3299,0.065026,-0.065723,9.930600,-0.567002,-0.573439,24.154606,-0.364199,-0.743555,-43.438393,0.928977,-0.005354,-0.004852,-0.370068
3300,0.065587,-0.074189,9.933281,-0.896621,-0.574844,23.370283,-0.399410,-0.754411,-42.646172,0.931511,-0.005641,-0.004865,-0.363638
3301,0.052391,-0.074377,9.925692,-0.705896,-0.574708,21.903870,-0.436513,-0.764639,-41.891457,0.933883,-0.005943,-0.004870,-0.357497
3302,0.049416,-0.077161,9.918414,-0.408346,-0.569975,21.027988,-0.464858,-0.774216,-41.175762,0.936095,-0.006173,-0.004898,-0.351658
3303,0.039172,-0.077676,9.922809,-0.094004,-0.577434,20.834198,-0.482686,-0.783304,-40.477890,0.938218,-0.006317,-0.004956,-0.345952
3304,0.042121,-0.075516,9.924062,0.522480,-0.633711,21.601740,-0.485013,-0.792998,-39.770443,0.940335,-0.006334,-0.005068,-0.340153
3305,0.042725,-0.064699,9.921396,1.177129,-0.660997,22.386066,-0.466250,-0.803995,-39.037136,0.942493,-0.006179,-0.005253,-0.334128
3306,0.055643,-0.070047,9.920197,1.369424,-0.615048,22.024424,-0.433549,-0.815196,-38.296783,0.944633,-0.005907,-0.005479,-0.328031
3307,0.053977,-0.059624,9.917372,1.174130,-0.556899,20.794529,-0.400748,-0.825435,-37.582973,0.946659,-0.005631,-0.005693,-0.322139
3308,0.061548,-0.080238,9.911170,0.615647,-0.471284,18.781832,-0.380363,-0.834014,-36.923222,0.948498,-0.005453,-0.005852,-0.316682
3309,0.056340,-0.105914,9.915233,-0.267914,-0.361254,15.861215,-0.384230,-0.839937,-36.345703,0.950082,-0.005472,-0.005918,-0.311898
3310,0.057698,-0.120760,9.918787,-0.696789,-0.296996,13.418210,-0.409745,-0.843259,-35.857574,0.951400,-0.005667,-0.005901,-0.307849
3311,0.045646,-0.108763,9.919866,-0.504612,-0.312075,12.736125,-0.438409,-0.845638,-35.421535,0.952563,-0.005889,-0.005866,-0.304228
3312,0.042521,-0.106390,9.918117,-0.063685,-0.346975,13.286984,-0.455938,-0.848328,-34.987679,0.953707,-0.006020,-0.005865,-0.300621
3313,0.044856,-0.100074,9.916216,0.580206,-0.368140,14.211699,-0.455374,-0.851661,-34.529224,0.954902,-0.006000,-0.005918,-0.296803
3314,0.037276,-0.086739,9.913276,0.929615,-0.390824,15.482797,-0.438286,-0.855366,-34.034180,0.956176,-0.005842,-0.006018,-0.292674
3315,0.041437,-0.083985,9.912983,0.683926,-0.425712,17.345955,-0.419972,-0.859671,-33.486889,0.957563,-0.005671,-0.006128,-0.288103
3316,0.046267,-0.073969,9.917506,0.256657,-0.468236,19.306768,-0.413720,-0.865077,-32.875866,0.959086,-0.005599,-0.006219,-0.282993
3317,0.057463,-0.074993,9.923616,0.152889,-0.512301,20.774712,-0.417134,-0.871864,-32.207680,0.960719,-0.005608,-0.006300,-0.277396
3318,0.058063,-0.079259,9.927855,-0.030230,-0.533485,21.298103,-0.426060,-0.879669,-31.506308,0.962398,-0.005662,-0.006379,-0.271511
3319,0.066940,-0.081289,9.929467,0.065888,-0.536366,21.255381,-0.436755,-0.887857,-30.796907,0.964059,-0.005732,-0.006458,-0.265549
3320,0.064843,-0.085172,9.929076,0.233723,-0.531620,20.641960,-0.443043,-0.896104,-30.098436,0.965659,-0.005764,-0.006548,-0.259668
3321,0.053166,-0.106293,9.919634,0.389331,-0.493288,19.473103,-0.444100,-0.903423,-29.429672,0.967157,-0.005751,-0.006641,-0.254028
3322,0.046893,-0.104428,9.920601,0.149706,-0.465617,18.745237,-0.446569,-0.909370,-28.792519,0.968554,-0.005748,-0.006718,-0.248647
3323,0.041303,-0.091493,9.921554,0.030643,-0.454719,18.173018,-0.454360,-0.914429,-28.177040,0.969875,-0.005788,-0.006775,-0.243442
3324,0.039233,-0.086200,9.918490,-0.204370,-0.448389,18.040266,-0.467436,-0.918960,-27.573313,0.971143,-0.005873,-0.006816,-0.238329
3325,0.037296,-0.077963,9.920124,-0.341708,-0.443579,17.904461,-0.486279,-0.923032,-26.974070,0.972374,-0.006005,-0.006843,-0.233249
3326,0.047145,-0.074145,9.923427,-0.329488,-0.446405,17.852581,-0.506775,-0.927052,-26.377966,0.973573,-0.006151,-0.006867,-0.228189
3327,0.049703,-0.079838,9.917703,-0.134152,-0.446190,17.497042,-0.523628,-0.931253,-25.788639,0.974733,-0.006268,-0.006902,-0.223180
3328,0.051885,-0.077727,9.913881,-0.005955,-0.458186,17.783916,-0.535045,-0.935604,-25.200464,0.975865,-0.006338,-0.006949,-0.218175
3329,0.043968,-0.086256,9.914240,-0.027300,-0.473226,17.986866,-0.544898,-0.940043,-24.604105,0.976986,-0.006394,-0.007002,-0.213094
3330,0.043405,-0.094895,9.911839,0.052054,-0.489783,18.581980,-0.554375,-0.944534,-23.994438,0.978105,-0.006445,-0.007057,-0.207894
3331,0.040792,-0.099233,9.914454,0.180228,-0.529224,19.666916,-0.561138,-0.949489,-23.356752,0.979246,-0.006472,-0.007123,-0.202448
3332,0.034743,-0.094929,9.914092,0.291620,-0.564077,20.986843,-0.564566,-0.954986,-22.678976,0.980425,-0.006469,-0.007202,-0.196653
3333,0.034904,-0.089571,9.914324,0.299258,-0.597398,22.025999,-0.566460,-0.961015,-21.961872,0.981636,-0.006450,-0.007291,-0.190514
3334,0.040357,-0.084005,9.913084,0.427458,-0.606306,22.758450,-0.566382,-0.967526,-21.215235,0.982856,-0.006412,-0.007389,-0.184114
3335,0.040890,-0.065816,9.916547,0.499220,-0.595382,22.644005,-0.562649,-0.974025,-20.458311,0.984051,-0.006341,-0.007493,-0.177618
3336,0.043795,-0.054562,9.920308,0.384848,-0.578355,22.242685,-0.558870,-0.980218,-19.710007,0.985189,-0.006269,-0.007593,-0.171188
3337,0.044952,-0.079775,9.923039,0.220106,-0.559803,22.083992,-0.560026,-0.985961,-18.971024,0.986272,-0.006238,-0.007681,-0.164832
3338,0.042957,-0.095785,9.919065,0.246064,-0.558033,22.351030,-0.564600,-0.991235,-18.230225,0.987316,-0.006235,-0.007760,-0.158453
3339,0.043794,-0.097964,9.921374,0.272006,-0.554735,22.434961,-0.568891,-0.996246,-17.483564,0.988327,-0.006228,-0.007838,-0.152017
3340,0.039634,-0.124935,9.920398,0.177373,-0.549908,22.331198,-0.575049,-1.000935,-16.737226,0.989296,-0.006236,-0.007911,-0.145577
3341,0.037173,-0.143041,9.917503,0.117794,-0.561856,22.750835,-0.584971,-1.005377,-15.985600,0.990228,-0.006275,-0.007978,-0.139086
3342,0.036141,-0.129559,9.917693,0.168081,-0.575325,23.002615,-0.595349,-1.009875,-15.222778,0.991131,-0.006317,-0.008047,-0.132492
3343,0.031622,-0.136135,9.921723,0.149710,-0.565899,22.828663,-0.605025,-1.014131,-14.458658,0.991992,-0.006351,-0.008115,-0.125881
3344,0.025812,-0.126336,9.924367,0.222903,-0.582402,23.017881,-0.613682,-1.018089,-13.694285,0.992809,-0.006376,-0.008182,-0.119262
3345,0.026851,-0.101849,9.928185,0.209152,-0.601951,23.617573,-0.620735,-1.022259,-12.916769,0.993594,-0.006386,-0.008255,-0.112523
3346,0.028220,-0.095548,9.926749,0.204590,-0.601664,23.350538,-0.627444,-1.026615,-12.133715,0.994339,-0.006391,-0.008330,-0.105732
3347,0.026144,-0.089559,9.923444,0.303806,-0.584590,22.518913,-0.631952,-1.030754,-11.368984,0.995022,-0.006378,-0.008404,-0.099094
3348,0.021478,-0.063240,9.921972,0.552595,-0.562930,21.215775,-0.629248,-1.034436,-10.639851,0.995632,-0.006304,-0.008479,-0.092761
3349,0.025514,-0.062162,9.915174,0.798359,-0.532113,19.972147,-0.616912,-1.037764,-9.953181,0.996171,-0.006149,-0.008555,-0.086792
3350,0.021093,-0.066588,9.910043,0.966293,-0.499768,18.737673,-0.597115,-1.040629,-9.307827,0.996645,-0.005930,-0.008628,-0.081180
3351,0.017464,-0.065600,9.911421,1.031983,-0.471992,18.475216,-0.573216,-1.042770,-8.687428,0.997070,-0.005677,-0.008695,-0.075781
3352,0.018493,-0.068099,9.917471,0.633783,-0.470154,18.546938,-0.555038,-1.044585,-8.070212,0.997465,-0.005473,-0.008752,-0.070408
3353,0.028833,-0.079303,9.918046,0.127222,-0.469851,18.760569,-0.552552,-1.046665,-7.448232,0.997832,-0.005405,-0.008801,-0.064993
3354,0.029938,-0.091605,9.920023,-0.499913,-0.478714,19.047447,-0.569790,-1.048979,-6.817899,0.998174,-0.005508,-0.008842,-0.059505
3355,0.035076,-0.088841,9.918422,-0.899692,-0.505895,19.699018,-0.604624,-1.051574,-6.171913,0.998491,-0.005762,-0.008879,-0.053879
3356,0.036555,-0.093109,9.919785,-1.299464,-0.548340,20.123230,-0.652966,-1.054814,-5.507982,0.998784,-0.006134,-0.008920,-0.048097
3357,0.033579,-0.117507,9.917256,-1.162124,-0.577048,20.465038,-0.706302,-1.058439,-4.831254,0.999047,-0.006547,-0.008968,-0.042202
3358,0.029652,-0.143777,9.916041,-0.808134,-0.590491,20.501665,-0.752404,-1.061929,-4.148188,0.999278,-0.006897,-0.009023,-0.036250
3359,0.027753,-0.137060,9.916473,-0.348858,-0.574933,19.963017,-0.784892,-1.064867,-3.473479,0.999472,-0.007128,-0.009081,-0.030369
3360,0.028662,-0.150543,9.916521,-0.110835,-0.541063,18.621735,-0.805039,-1.067062,-2.830109,0.999625,-0.007253,-0.009135,-0.024759
3361,0.029470,-0.159123,9.918845,0.215679,-0.462941,16.224508,-0.814946,-1.068110,-2.249064,0.999737,-0.007293,-0.009179,-0.019690
3362,0.034528,-0.152970,9.919525,0.549827,-0.364987,12.978870,-0.812022,-1.067655,-1.762108,0.999812,-0.007228,-0.009207,-0.015442
3363,0.033067,-0.126344,9.919919,0.790967,-0.289488,9.824793,-0.795631,-1.055015,-1.381891,0.999860,-0.007053,-0.009122,-0.012122
3364,0.033769,-0.115630,9.918943,0.740752,-0.230345,6.693607,-0.771593,-1.030985,-1.106503,0.999890,-0.006820,-0.008931,-0.009716
3365,0.031324,-0.105309,9.920442,0.510531,-0.160538,4.004939,-0.749052,-1.006639,-0.928173,0.999907,-0.006607,-0.008731,-0.008157
3366,0.029007,-0.093024,9.919407,0.190336,-0.119738,1.972417,-0.732843,-0.981873,-0.828586,0.999916,-0.006457,-0.008522,-0.007285
3367,0.028700,-0.080051,9.911177,-0.183194,-0.106428,0.657078,-0.725431,-0.957502,-0.784844,0.999921,-0.006387,-0.008312,-0.006902
3368,0.031905,-0.083674,9.917027,-0.680304,-0.097739,-0.017373,-0.731461,-0.934284,-0.774283,0.999923,-0.006438,-0.008110,-0.006809
3369,0.031650,-0.109389,9.918408,-0.947114,-0.093670,-0.229468,-0.752824,-0.912117,-0.778457,0.999923,-0.006623,-0.007915,-0.006845
3370,0.030174,-0.123501,9.918174,-0.631154,-0.091152,-0.266079,-0.776682,-0.890486,-0.786723,0.999923,-0.006831,-0.007724,-0.006918
3371,0.034226,-0.120870,9.917276,-0.127520,-0.082569,-0.241652,-0.787233,-0.869654,-0.795184,0.999923,-0.006922,-0.007541,-0.006991
3372,0.033365,-0.128851,9.926800,0.354754,-0.069448,-0.252323,-0.781290,-0.849470,-0.803414,0.999924,-0.006870,-0.007365,-0.007061
3373,0.028071,-0.123163,9.922472,1.218504,-0.091427,-0.305719,-0.753038,-0.829534,-0.812700,0.999927,-0.006622,-0.007192,-0.007139
3374,0.028163,-0.087893,9.923115,1.975573,-0.113413,-0.383533,-0.694377,-0.810521,-0.824202,0.999930,-0.006110,-0.007029,-0.007235
3375,0.029094,-0.066535,9.929227,2.055291,-0.135430,-0.470504,-0.617730,-0.793005,-0.838494,0.999935,-0.005441,-0.006880,-0.007354
3376,0.022363,-0.049431,9.930390,1.900075,-0.137610,-0.552900,-0.540858,-0.775952,-0.855626,0.999938,-0.004770,-0.006736,-0.007498
3377,0.024549,-0.044144,9.931623,1.284014,-0.123012,-0.554423,-0.477230,-0.758822,-0.874159,0.999940,-0.004215,-0.006590,-0.007656
3379,0.027912,-0.051596,9.938691,0.278740,-0.080991,-0.490330,-0.443190,-0.741826,-0.891632,0.999941,-0.003918,-0.006443,-0.007806
3380,0.028415,-0.091013,9.942527,-0.436853,-0.039007,-0.403347,-0.443993,-0.724343,-0.906530,0.999941,-0.003924,-0.006290,-0.007935
3381,0.031200,-0.086467,9.935940,-0.420159,-0.010791,-0.348407,-0.460385,-0.706565,-0.919028,0.999941,-0.004067,-0.006133,-0.008045
3382,0.035861,-0.108044,9.933062,-0.411148,-0.011621,-0.304148,-0.477732,-0.689625,-0.929861,0.999940,-0.004218,-0.005984,-0.008139
3383,0.035303,-0.090044,9.929033,0.162462,-0.035379,-0.272097,-0.485174,-0.674062,-0.939421,0.999940,-0.004282,-0.005847,-0.008223
3384,0.035755,-0.084127,9.925051,0.339442,-0.040847,-0.244624,-0.477414,-0.659511,-0.948014,0.999940,-0.004214,-0.005721,-0.008297
3385,0.030849,-0.059951,9.917193,0.299855,-0.049370,-0.233938,-0.464492,-0.645265,-0.955999,0.999941,-0.004100,-0.005597,-0.008365
3386,0.029674,-0.064146,9.919713,0.081797,-0.050259,-0.183579,-0.454302,-0.631062,-0.962984,0.999942,-0.004011,-0.005473,-0.008425
3387,0.031166,-0.042355,9.919569,-0.037022,-0.034383,-0.139324,-0.448437,-0.617100,-0.968409,0.999942,-0.003959,-0.005352,-0.008472
3388,0.025999,-0.049440,9.919009,-0.564743,-0.012408,-0.128641,-0.452210,-0.602615,-0.972937,0.999942,-0.003991,-0.005225,-0.008511
3389,0.024703,-0.030635,9.915567,-0.703311,-0.020946,-0.105750,-0.466002,-0.587756,-0.976919,0.999942,-0.004110,-0.005094,-0.008546
3390,0.031409,-0.045473,9.922472,-0.902888,-0.014265,-0.069127,-0.484765,-0.573930,-0.979917,0.999942,-0.004273,-0.004972,-0.008572
3391,0.033578,-0.061851,9.921103,-0.980490,-0.024422,-0.053865,-0.510618,-0.561486,-0.982022,0.999941,-0.004498,-0.004861,-0.008591
3392,0.032081,-0.083177,9.921126,-0.879674,-0.046807,-0.050810,-0.538973,-0.550085,-0.983789,0.999940,-0.004744,-0.004760,-0.008607
3393,0.031255,-0.095972,9.924516,-0.463086,-0.061569,-0.030969,-0.561086,-0.539473,-0.985142,0.999940,-0.004937,-0.004665,-0.008620
3394,0.030957,-0.140971,9.931243,-0.502938,-0.045823,-0.035540,-0.581630,-0.529099,-0.986195,0.999939,-0.005115,-0.004573,-0.008629
3395,0.029832,-0.135537,9.929041,-0.324707,-0.037714,-0.050791,-0.602955,-0.518542,-0.987554,0.999939,-0.005300,-0.004480,-0.008642
3396,0.026363,-0.134798,9.927771,-0.280705,-0.032655,-0.061466,-0.619285,-0.507678,-0.989359,0.999938,-0.005442,-0.004383,-0.008657
3397,0.025921,-0.142221,9.932600,-0.375563,-0.009283,-0.062984,-0.636472,-0.496324,-0.991373,0.999938,-0.005591,-0.004283,-0.008675
3398,0.032214,-0.122481,9.925559,-0.525285,0.009474,-0.069081,-0.655993,-0.485203,-0.993538,0.999937,-0.005761,-0.004184,-0.008694
3399,0.031815,-0.105767,9.920090,-0.243005,0.012934,-0.073654,-0.669201,-0.474660,-0.995920,0.999936,-0.005876,-0.004091,-0.008715
3400,0.028991,-0.107580,9.918114,-0.105610,0.008762,-0.066021,-0.673444,-0.464181,-0.998266,0.999936,-0.005912,-0.003999,-0.008735
3401,0.028413,-0.112918,9.921972,-0.067417,0.021374,-0.064491,-0.675158,-0.453583,-1.000457,0.999937,-0.005926,-0.003907,-0.008754
3402,0.029731,-0.104340,9.913421,-0.009368,0.009554,-0.064487,-0.674862,-0.443395,-1.002625,0.999937,-0.005923,-0.003818,-0.008772
3403,0.027389,-0.117356,9.922566,-0.030686,0.011458,-0.078215,-0.674354,-0.433622,-1.005017,0.999937,-0.005918,-0.003732,-0.008792
3404,0.032218,-0.118553,9.921331,-0.049006,0.005710,-0.084315,-0.675879,-0.424488,-1.007727,0.999937,-0.005930,-0.003652,-0.008816
3405,0.033253,-0.119783,9.925691,-0.068859,0.006030,-0.091941,-0.678252,-0.416325,-1.010664,0.999937,-0.005951,-0.003581,-0.008841
3406,0.032133,-0.120305,9.920610,-0.070407,-0.002817,-0.104144,-0.681084,-0.408588,-1.013929,0.999937,-0.005975,-0.003513,-0.008869
3407,0.030303,-0.121017,9.923593,-0.068903,-0.005559,-0.102615,-0.683950,-0.401029,-1.017370,0.999936,-0.005999,-0.003446,-0.008899
3408,0.028787,-0.122569,9.922122,-0.044516,-0.017454,-0.085826,-0.686508,-0.393642,-1.020501,0.999936,-0.006021,-0.003382,-0.008926
3409,0.024439,-0.122520,9.924453,-0.033864,-0.018655,-0.076666,-0.688539,-0.386154,-1.023197,0.999936,-0.006038,-0.003316,-0.008949
3410,0.022388,-0.119895,9.922723,-0.030829,-0.028997,-0.079714,-0.690009,-0.378488,-1.025791,0.999936,-0.006051,-0.003249,-0.008971
3411,0.025928,-0.118760,9.925556,-0.038458,-0.028674,-0.069029,-0.691135,-0.371384,-1.028259,0.999936,-0.006060,-0.003187,-0.008992
3412,0.026517,-0.119091,9.926652,-0.033874,-0.020746,-0.062921,-0.692188,-0.364781,-1.030449,0.999936,-0.006069,-0.003129,-0.009011
3413,0.026248,-0.122607,9.923763,-0.050668,-0.018932,-0.065969,-0.693782,-0.358276,-1.032588,0.999936,-0.006082,-0.003072,-0.009030
3414,0.028984,-0.120580,9.923206,-0.047629,-0.020188,-0.069017,-0.695707,-0.352218,-1.034828,0.999936,-0.006099,-0.003019,-0.009049
3415,0.031634,-0.121808,9.923498,-0.036953,-0.016896,-0.062911,-0.697269,-0.346854,-1.037018,0.999936,-0.006112,-0.002972,-0.009068
3416,0.028250,-0.119547,9.923190,-0.026272,-0.016660,-0.050700,-0.698320,-0.341548,-1.038905,0.999936,-0.006121,-0.002925,-0.009084
3417,0.029521,-0.116032,9.923084,-0.023197,-0.017950,-0.062905,-0.698543,-0.336233,-1.040795,0.999936,-0.006122,-0.002879,-0.009100
3418,0.032852,-0.115494,9.924348,-0.003320,-0.023842,-0.056799,-0.697970,-0.331659,-1.042787,0.999936,-0.006117,-0.002839,-0.009117
3419,0.031394,-0.114472,9.924681,0.001304,-0.019066,-0.059849,-0.696844,-0.327448,-1.044729,0.999936,-0.006107,-0.002802,-0.009134
3420,0.031481,-0.118558,9.922643,-0.001715,-0.009713,-0.052218,-0.696016,-0.323015,-1.046596,0.999936,-0.006099,-0.002763,-0.009150
3421,0.033635,-0.119093,9.923407,-0.000175,-0.011056,-0.072053,-0.695690,-0.318811,-1.048664,0.999936,-0.006096,-0.002726,-0.009168
3422,0.033508,-0.127704,9.924026,0.001328,-0.023094,-0.082732,-0.696209,-0.315175,-1.051234,0.999936,-0.006100,-0.002695,-0.009190
3423,0.032323,-0.129235,9.924611,-0.010941,-0.018347,-0.096462,-0.697876,-0.311669,-1.054204,0.999935,-0.006115,-0.002664,-0.009216
3424,0.033590,-0.133521,9.924042,-0.015600,-0.028864,-0.102564,-0.700347,-0.308391,-1.057500,0.999935,-0.006136,-0.002635,-0.009245
3425,0.031610,-0.127634,9.922546,-0.015673,-0.030227,-0.117821,-0.702675,-0.305360,-1.061151,0.999935,-0.006156,-0.002608,-0.009276
3426,0.029110,-0.119194,9.921397,-0.015688,-0.028526,-0.105611,-0.703549,-0.301999,-1.064861,0.999934,-0.006164,-0.002578,-0.009308
3427,0.030730,-0.114742,9.921055,-0.011074,-0.025300,-0.094927,-0.703056,-0.298573,-1.068197,0.999934,-0.006159,-0.002548,-0.009337
3428,0.031186,-0.112296,9.920214,-0.001854,-0.026664,-0.094926,-0.701665,-0.295428,-1.071358,0.999934,-0.006147,-0.002521,-0.009365
3429,0.029890,-0.110366,9.916692,0.002802,-0.018874,-0.093398,-0.699657,-0.292205,-1.074497,0.999934,-0.006129,-0.002493,-0.009392
3430,0.032466,-0.115547,9.917714,-0.009342,-0.024826,-0.087294,-0.698148,-0.289180,-1.077508,0.999934,-0.006116,-0.002466,-0.009418
3431,0.039994,-0.117357,9.921229,-0.004729,-0.023191,-0.094923,-0.697491,-0.287303,-1.080539,0.999934,-0.006110,-0.002450,-0.009444
3432,0.035332,-0.114678,9.917644,-0.006216,-0.015467,-0.093395,-0.696733,-0.285628,-1.083675,0.999934,-0.006103,-0.002435,-0.009472
3433,0.031437,-0.111024,9.918167,-0.003105,-0.009238,-0.094920,-0.695366,-0.282957,-1.086816,0.999933,-0.006091,-0.002412,-0.009499
3434,0.034141,-0.106035,9.925435,-0.007589,0.001569,-0.091867,-0.693218,-0.279958,-1.089938,0.999933,-0.006072,-0.002385,-0.009526
3435,0.026740,-0.101047,9.926735,0.001694,0.000184,-0.082710,-0.690080,-0.276438,-1.092864,0.999933,-0.006045,-0.002355,-0.009551
3436,0.019899,-0.106663,9.924455,0.010974,0.008006,-0.085761,-0.686784,-0.271549,-1.095688,0.999933,-0.006016,-0.002312,-0.009576
3437,0.025266,-0.111749,9.931553,0.012577,0.017353,-0.081181,-0.684437,-0.266370,-1.098484,0.999933,-0.005995,-0.002267,-0.009600
3438,0.025432,-0.112809,9.929269,-0.010263,0.012939,-0.081179,-0.683126,-0.261807,-1.101202,0.999933,-0.005983,-0.002227,-0.009623
3439,0.022190,-0.116162,9.924518,-0.001076,0.008530,-0.073547,-0.682535,-0.257258,-1.103788,0.999933,-0.005978,-0.002187,-0.009645
3440,0.031139,-0.119845,9.922641,0.006556,0.028508,-0.079649,-0.682381,-0.253152,-1.106349,0.999933,-0.005976,-0.002152,-0.009668
3441,0.033916,-0.120611,9.921969,-0.014822,0.024019,-0.081174,-0.682899,-0.250062,-1.109038,0.999933,-0.005980,-0.002124,-0.009691
3442,0.027857,-0.121792,9.919332,-0.010269,0.007332,-0.084225,-0.683882,-0.247131,-1.111798,0.999933,-0.005989,-0.002099,-0.009715
3443,0.031199,-0.128253,9.918323,-0.001164,0.010488,-0.075067,-0.685354,-0.244264,-1.114451,0.999932,-0.006001,-0.002073,-0.009738
3444,0.034044,-0.130379,9.922717,0.012487,0.002934,-0.081170,-0.687227,-0.242161,-1.117048,0.999932,-0.006017,-0.002055,-0.009760
3445,0.028184,-0.127896,9.927787,0.020037,-0.012240,-0.084221,-0.688645,-0.240229,-1.119794,0.999932,-0.006030,-0.002038,-0.009784
3446,0.025915,-0.125863,9.925090,0.039814,-0.018230,-0.072011,-0.689116,-0.237932,-1.122386,0.999932,-0.006034,-0.002017,-0.009807
3447,0.031841,-0.114910,9.927462,0.044385,-0.015082,-0.065907,-0.687902,-0.236101,-1.124677,0.999932,-0.006023,-0.002001,-0.009827
3448,0.028017,-0.115335,9.927032,0.047469,-0.019574,-0.068958,-0.685559,-0.234563,-1.126921,0.999932,-0.006002,-0.001988,-0.009846
3449,0.025701,-0.107501,9.921910,0.035319,-0.020993,-0.062853,-0.682719,-0.232589,-1.129115,0.999932,-0.005978,-0.001971,-0.009865
3450,0.032895,-0.105862,9.920109,0.033883,-0.022433,-0.062852,-0.679289,-0.231192,-1.131211,0.999932,-0.005947,-0.001959,-0.009883
3451,0.033271,-0.104880,9.926500,0.041611,-0.026956,-0.078111,-0.675600,-0.230680,-1.133560,0.999932,-0.005915,-0.001955,-0.009904
3452,0.028893,-0.112678,9.921740,0.047781,-0.023836,-0.085741,-0.672451,-0.229842,-1.136287,0.999932,-0.005888,-0.001947,-0.009927
3453,0.033781,-0.109914,9.920858,0.050873,-0.025295,-0.079636,-0.669752,-0.229049,-1.139038,0.999931,-0.005864,-0.001941,-0.009951
3454,0.032561,-0.111083,9.923491,0.034132,-0.022194,-0.085740,-0.667223,-0.228609,-1.141789,0.999931,-0.005842,-0.001937,-0.009975
3455,0.029201,-0.123282,9.918999,0.028018,-0.020600,-0.075057,-0.666451,-0.227670,-1.144459,0.999931,-0.005835,-0.001929,-0.009998
3456,0.036069,-0.121088,9.914298,0.020336,-0.019022,-0.075056,-0.666937,-0.227040,-1.146948,0.999931,-0.005840,-0.001923,-0.010020
3457,0.037706,-0.120112,9.916253,0.021822,-0.023580,-0.065900,-0.667231,-0.227303,-1.149285,0.999931,-0.005842,-0.001925,-0.010041
3458,0.036136,-0.120945,9.917913,0.015679,-0.020510,-0.068952,-0.667571,-0.227602,-1.151520,0.999930,-0.005845,-0.001928,-0.010060
3459,0.040338,-0.126128,9.914145,0.023247,-0.003716,-0.065899,-0.668459,-0.227814,-1.153757,0.999930,-0.005853,-0.001929,-0.010080
3460,0.034572,-0.117274,9.914623,0.012519,-0.012856,-0.090313,-0.669029,-0.227745,-1.156352,0.999930,-0.005858,-0.001928,-0.010102
3461,0.022412,-0.124588,9.917192,0.004849,-0.000565,-0.079631,-0.669727,-0.225896,-1.159178,0.999930,-0.005864,-0.001912,-0.010127
3462,0.024443,-0.123621,9.916744,-0.021156,0.008713,-0.079629,-0.671575,-0.222742,-1.161828,0.999929,-0.005880,-0.001884,-0.010150
3463,0.027063,-0.120558,9.914856,-0.012046,0.008814,-0.081154,-0.673278,-0.219964,-1.164506,0.999929,-0.005895,-0.001860,-0.010173
3464,0.027385,-0.127989,9.916446,-0.002952,-0.012464,-0.076575,-0.675038,-0.217921,-1.167128,0.999929,-0.005910,-0.001842,-0.010196
3465,0.035921,-0.134543,9.921315,0.009143,-0.001735,-0.064367,-0.677728,-0.216981,-1.169464,0.999929,-0.005933,-0.001833,-0.010216
3466,0.044211,-0.130927,9.916276,0.010549,-0.009383,-0.062840,-0.680402,-0.217657,-1.171570,0.999928,-0.005957,-0.001839,-0.010235
3467,0.045975,-0.138968,9.926810,0.014993,-0.012492,-0.068945,-0.683307,-0.219483,-1.173750,0.999928,-0.005982,-0.001854,-0.010254
3468,0.043596,-0.135843,9.930857,0.013318,-0.003389,-0.078100,-0.686526,-0.221105,-1.176183,0.999927,-0.006011,-0.001868,-0.010275
3469,0.042623,-0.126665,9.931179,0.005593,0.013358,-0.079626,-0.688611,-0.221917,-1.178804,0.999927,-0.006029,-0.001875,-0.010298
3470,0.035132,-0.119613,9.928255,0.004037,0.014880,-0.087255,-0.689204,-0.221573,-1.181588,0.999927,-0.006034,-0.001871,-0.010323
3471,0.031371,-0.124344,9.927716,0.002490,0.010342,-0.091833,-0.689584,-0.220194,-1.184576,0.999927,-0.006037,-0.001859,-0.010349
3472,0.025361,-0.118498,9.914459,0.017734,0.001262,-0.090306,-0.689628,-0.218134,-1.187612,0.999926,-0.006037,-0.001841,-0.010375
3473,0.026359,-0.119076,9.912310,0.005531,-0.007800,-0.073520,-0.689127,-0.215952,-1.190341,0.999926,-0.006033,-0.001822,-0.010399
3474,0.022534,-0.121927,9.914416,0.005521,-0.029062,-0.079622,-0.689168,-0.214071,-1.192885,0.999926,-0.006033,-0.001805,-0.010421
3475,0.026617,-0.118849,9.910748,0.016194,-0.036595,-0.065887,-0.689019,-0.212762,-1.195296,0.999926,-0.006032,-0.001794,-0.010442
3476,0.026828,-0.118368,9.912316,0.017724,-0.033464,-0.062834,-0.688330,-0.211991,-1.197428,0.999926,-0.006026,-0.001787,-0.010460
3477,0.023768,-0.119205,9.917685,0.011624,-0.018117,-0.064359,-0.687757,-0.210669,-1.199537,0.999925,-0.006021,-0.001775,-0.010479
3478,0.025535,-0.127883,9.920026,0.032952,-0.008869,-0.058254,-0.687859,-0.208845,-1.201572,0.999925,-0.006021,-0.001759,-0.010496
3479,0.029861,-0.125726,9.917088,0.037471,-0.001174,-0.055201,-0.688167,-0.207377,-1.203455,0.999925,-0.006024,-0.001747,-0.010513
3480,0.030502,-0.130473,9.918918,0.016039,0.001924,-0.076563,-0.688999,-0.206265,-1.205645,0.999925,-0.006031,-0.001737,-0.010532
3482,0.029081,-0.129006,9.916238,0.014431,0.006548,-0.064355,-0.690513,-0.204994,-1.207988,0.999925,-0.006044,-0.001725,-0.010552
3483,0.034703,-0.130280,9.918391,0.015878,-0.008683,-0.065881,-0.691973,-0.204343,-1.210151,0.999924,-0.006057,-0.001719,-0.010571
3484,0.030299,-0.124657,9.919022,0.014292,-0.020868,-0.087243,-0.692963,-0.204302,-1.212692,0.999924,-0.006066,-0.001719,-0.010593
3485,0.028949,-0.126517,9.923099,0.012723,-0.013194,-0.082665,-0.693595,-0.203795,-1.215513,0.999924,-0.006071,-0.001714,-0.010618
3486,0.026475,-0.123059,9.925094,0.020316,-0.010083,-0.065878,-0.693940,-0.202744,-1.217980,0.999924,-0.006074,-0.001705,-0.010639
3487,0.029837,-0.117507,9.927672,0.026420,-0.006977,-0.076559,-0.693169,-0.201698,-1.220351,0.999923,-0.006067,-0.001696,-0.010660
3488,0.030496,-0.113998,9.928399,0.031031,0.006794,-0.068929,-0.691351,-0.200793,-1.222778,0.999923,-0.006051,-0.001688,-0.010681
3489,0.030013,-0.111463,9.926095,0.015827,0.014459,-0.073506,-0.689173,-0.199579,-1.225161,0.999923,-0.006032,-0.001677,-0.010702
3490,0.029070,-0.110680,9.924148,0.015893,0.000766,-0.084188,-0.686999,-0.198368,-1.227798,0.999923,-0.006013,-0.001667,-0.010725
3491,0.032177,-0.113159,9.927343,0.025104,0.003847,-0.084188,-0.684904,-0.197584,-1.230610,0.999923,-0.005995,-0.001660,-0.010749
3492,0.030309,-0.116802,9.927438,0.022082,-0.006811,-0.076558,-0.683362,-0.197077,-1.233290,0.999923,-0.005982,-0.001656,-0.010772
3493,0.024560,-0.113561,9.923832,0.017530,-0.014389,-0.088765,-0.682050,-0.196164,-1.236044,0.999923,-0.005970,-0.001648,-0.010796
3494,0.028872,-0.113477,9.924030,0.028248,-0.018910,-0.082661,-0.680366,-0.195340,-1.238897,0.999922,-0.005955,-0.001640,-0.010821
3495,0.028119,-0.114053,9.927031,0.029807,-0.006661,-0.073504,-0.678572,-0.194754,-1.241497,0.999922,-0.005940,-0.001635,-0.010844
3496,0.027113,-0.115032,9.922797,0.025253,-0.006613,-0.078082,-0.677038,-0.193818,-1.244023,0.999922,-0.005926,-0.001627,-0.010866
3497,0.033595,-0.118034,9.925211,0.025260,-0.003536,-0.084186,-0.676018,-0.193384,-1.246726,0.999922,-0.005917,-0.001623,-0.010889
3498,0.039422,-0.118999,9.920981,0.026775,-0.003559,-0.071978,-0.675401,-0.194105,-1.249326,0.999922,-0.005912,-0.001630,-0.010912
3499,0.035798,-0.119864,9.923810,0.025232,-0.000539,-0.071978,-0.674989,-0.194982,-1.251723,0.999921,-0.005909,-0.001637,-0.010933
3500,0.037771,-0.117079,9.917091,0.032849,-0.011244,-0.065875,-0.674314,-0.195802,-1.254017,0.999921,-0.005903,-0.001644,-0.010953
3501,0.035798,-0.114316,9.918254,0.037435,-0.014319,-0.070454,-0.672925,-0.196825,-1.256285,0.999921,-0.005891,-0.001653,-0.010973
3502,0.029898,-0.113606,9.919351,0.043560,0.000950,-0.075030,-0.671055,-0.196857,-1.258709,0.999921,-0.005875,-0.001653,-0.010994
3503,0.031721,-0.117398,9.921441,0.040515,0.002500,-0.081134,-0.669480,-0.196199,-1.261312,0.999921,-0.005861,-0.001648,-0.011017
3504,0.031791,-0.121996,9.912536,0.032856,-0.003585,-0.084186,-0.668957,-0.195814,-1.264065,0.999921,-0.005856,-0.001644,-0.011041
3505,0.032113,-0.119544,9.912777,0.031292,0.014741,-0.090290,-0.668838,-0.195284,-1.266971,0.999920,-0.005855,-0.001640,-0.011066
3506,0.033071,-0.121722,9.914968,0.019047,0.011699,-0.085712,-0.668931,-0.194638,-1.269907,0.999920,-0.005856,-0.001634,-0.011092
3507,0.032904,-0.119275,9.915923,0.022062,-0.000504,-0.078081,-0.669149,-0.194338,-1.272635,0.999920,-0.005858,-0.001631,-0.011115
3508,0.027447,-0.121834,9.914384,0.017448,0.004101,-0.076555,-0.669400,-0.193637,-1.275210,0.999920,-0.005860,-0.001625,-0.011138
3509,0.030868,-0.121510,9.918060,0.028085,0.011765,-0.081132,-0.669756,-0.192552,-1.277838,0.999919,-0.005863,-0.001615,-0.011161
3510,0.026685,-0.131363,9.918489,0.023426,0.008749,-0.084184,-0.670914,-0.191347,-1.280590,0.999919,-0.005873,-0.001604,-0.011185
3511,0.026463,-0.130683,9.916556,0.021784,0.021008,-0.088761,-0.673037,-0.189603,-1.283468,0.999919,-0.005891,-0.001589,-0.011210
3512,0.028817,-0.132640,9.913109,0.012510,0.025626,-0.100967,-0.675416,-0.187838,-1.286629,0.999918,-0.005912,-0.001573,-0.011237
3513,0.032272,-0.132796,9.914739,0.006283,0.024118,-0.110122,-0.678183,-0.186643,-1.290147,0.999918,-0.005936,-0.001562,-0.011268
3514,0.029668,-0.122805,9.919368,0.003150,0.030232,-0.090284,-0.680066,-0.185500,-1.293491,0.999917,-0.005953,-0.001552,-0.011297
3515,0.034443,-0.121086,9.919088,-0.006040,0.030233,-0.099439,-0.680945,-0.184499,-1.296662,0.999917,-0.005960,-0.001543,-0.011325
3516,0.037359,-0.124517,9.919752,0.000025,0.028677,-0.085707,-0.681994,-0.184299,-1.299756,0.999917,-0.005969,-0.001541,-0.011352
3517,0.036686,-0.120102,9.920573,-0.001534,0.027112,-0.071973,-0.682841,-0.184381,-1.302392,0.999916,-0.005977,-0.001541,-0.011375
3518,0.032948,-0.118197,9.920259,0.003036,0.017935,-0.061292,-0.682999,-0.184214,-1.304621,0.999916,-0.005978,-0.001540,-0.011394
3519,0.033576,-0.128198,9.919692,0.007576,0.010294,-0.071973,-0.683769,-0.184030,-1.306845,0.999916,-0.005985,-0.001538,-0.011413
3520,0.033369,-0.126772,9.924505,0.007506,0.008756,-0.065870,-0.685268,-0.184045,-1.309140,0.999916,-0.005998,-0.001538,-0.011434
3521,0.034634,-0.123948,9.925486,0.002876,0.008740,-0.067396,-0.686392,-0.184188,-1.311361,0.999915,-0.006008,-0.001539,-0.011453
3522,0.034000,-0.124117,9.919569,0.002835,0.010247,-0.076551,-0.687301,-0.184368,-1.313760,0.999915,-0.006016,-0.001540,-0.011474
3523,0.035722,-0.125262,9.917555,0.014998,0.022432,-0.087233,-0.688108,-0.184426,-1.316493,0.999915,-0.006023,-0.001540,-0.011498
3524,0.034914,-0.125639,9.915733,0.025629,0.014776,-0.090285,-0.688657,-0.184496,-1.319454,0.999914,-0.006028,-0.001541,-0.011524
3525,0.032911,-0.125579,9.913166,0.031683,0.013235,-0.087234,-0.688941,-0.184448,-1.322415,0.999914,-0.006030,-0.001540,-0.011549
3526,0.029136,-0.127529,9.910812,0.040783,0.008664,-0.084182,-0.689148,-0.183945,-1.325271,0.999914,-0.006032,-0.001536,-0.011574
3527,0.030141,-0.130017,9.918549,0.042234,0.011733,-0.076551,-0.689591,-0.183207,-1.327948,0.999913,-0.006036,-0.001529,-0.011598
3528,0.031855,-0.126014,9.920499,0.043694,0.001057,-0.071973,-0.689819,-0.182872,-1.330421,0.999913,-0.006038,-0.001526,-0.011619
3529,0.031909,-0.122282,9.921454,0.025347,0.014790,-0.062818,-0.689569,-0.182670,-1.332667,0.999913,-0.006036,-0.001524,-0.011639
3530,0.033875,-0.127122,9.922948,0.028359,0.013254,-0.058240,-0.689679,-0.182465,-1.334687,0.999913,-0.006037,-0.001522,-0.011656
3531,0.031408,-0.125517,9.926273,0.046617,0.019350,-0.071973,-0.689743,-0.182144,-1.336860,0.999913,-0.006037,-0.001519,-0.011675
3532,0.035325,-0.129065,9.924063,0.067919,0.010181,-0.085707,-0.689328,-0.182026,-1.339489,0.999912,-0.006034,-0.001518,-0.011698
3533,0.030923,-0.135060,9.927732,0.089186,0.013221,-0.073499,-0.689125,-0.181972,-1.342139,0.999912,-0.006032,-0.001517,-0.011721
3534,0.028274,-0.138861,9.923838,0.102784,0.005605,-0.078076,-0.689295,-0.181316,-1.344658,0.999912,-0.006033,-0.001512,-0.011743
3535,0.027530,-0.136320,9.923096,0.067548,0.007159,-0.081127,-0.689953,-0.180450,-1.347303,0.999911,-0.006039,-0.001504,-0.011766
3536,0.028931,-0.135872,9.916733,0.038427,-0.008076,-0.073498,-0.691392,-0.179902,-1.349869,0.999911,-0.006052,-0.001499,-0.011789
3537,0.025086,-0.134438,9.915937,-0.010523,-0.004992,-0.073497,-0.693925,-0.179345,-1.352307,0.999911,-0.006074,-0.001493,-0.011810
3538,0.028382,-0.125793,9.911518,-0.018232,-0.011063,-0.084177,-0.696373,-0.178806,-1.354925,0.999910,-0.006095,-0.001488,-0.011833
3539,0.031199,-0.115943,9.914439,-0.016710,-0.008002,-0.091807,-0.697060,-0.178930,-1.357854,0.999910,-0.006101,-0.001489,-0.011858
3540,0.029054,-0.108419,9.914503,-0.042587,-0.014099,-0.093332,-0.696424,-0.179176,-1.360940,0.999910,-0.006096,-0.001491,-0.011885
3541,0.028489,-0.106192,9.918344,-0.109626,-0.003400,-0.087229,-0.696392,-0.179077,-1.363954,0.999909,-0.006095,-0.001490,-0.011912
3542,0.027847,-0.098901,9.914097,-0.254450,-0.001852,-0.062814,-0.698988,-0.178649,-1.366464,0.999909,-0.006118,-0.001486,-0.011934
3543,0.029066,-0.095940,9.918209,-0.387025,0.008848,-0.032296,-0.705181,-0.178070,-1.368064,0.999909,-0.006172,-0.001480,-0.011948
3544,0.026338,-0.088782,9.917420,-0.389853,0.018029,0.008904,-0.712510,-0.177016,-1.368477,0.999908,-0.006236,-0.001470,-0.011951
3545,0.028769,-0.102218,9.920026,-0.377436,0.024157,0.036370,-0.720060,-0.175691,-1.367748,0.999908,-0.006302,-0.001458,-0.011945
3546,0.026188,-0.105530,9.919384,-0.110244,0.022655,-0.000253,-0.724312,-0.174315,-1.367168,0.999908,-0.006338,-0.001446,-0.011940
3547,0.025369,-0.112490,9.924929,0.359864,0.016586,-0.055186,-0.717058,-0.172801,-1.368109,0.999908,-0.006275,-0.001433,-0.011948
3548,0.025667,-0.117483,9.925790,0.706325,-0.004742,-0.119275,-0.697381,-0.171764,-1.371025,0.999909,-0.006103,-0.001426,-0.011973
3549,0.028033,-0.127884,9.929955,0.840607,-0.021504,-0.207779,-0.671609,-0.171688,-1.376470,0.999910,-0.005878,-0.001428,-0.012020
3550,0.027150,-0.119557,9.924737,1.011472,-0.021488,-0.310015,-0.641699,-0.172087,-1.385088,0.999910,-0.005618,-0.001434,-0.012095
3551,0.028496,-0.104172,9.924364,0.955026,-0.033681,-0.380207,-0.608527,-0.172757,-1.396582,0.999910,-0.005328,-0.001443,-0.012195
3552,0.029473,-0.095435,9.922795,0.450010,-0.041303,-0.462607,-0.583437,-0.173983,-1.410619,0.999910,-0.005110,-0.001455,-0.012317
3553,0.026390,-0.101694,9.918175,-0.100813,-0.027554,-0.577052,-0.576673,-0.174905,-1.427937,0.999909,-0.005051,-0.001463,-0.012468
3554,0.028074,-0.116345,9.915467,-0.428953,-0.016850,-0.776948,-0.587094,-0.175304,-1.450490,0.999906,-0.005142,-0.001465,-0.012665
3555,0.027486,-0.109599,9.916405,-0.674722,-0.030563,-1.088236,-0.607755,-0.175932,-1.481560,0.999901,-0.005323,-0.001467,-0.012937
3556,0.036334,-0.138318,9.912776,-1.260835,0.033514,-2.859835,-0.643775,-0.176894,-1.547346,0.999892,-0.005638,-0.001468,-0.013511
3557,0.040471,-0.150811,9.912398,-1.294572,0.205911,-7.719907,-0.689966,-0.175761,-1.723697,0.999867,-0.006043,-0.001443,-0.015050
3558,0.040977,-0.138908,9.915633,-0.833798,0.321862,-10.954870,-0.725916,-0.171284,-2.035023,0.999821,-0.006360,-0.001382,-0.017767
3559,0.041851,-0.107236,9.915455,-0.653740,0.437810,-14.525536,-0.749490,-0.164620,-2.459820,0.999747,-0.006570,-0.001296,-0.021473
3560,0.042016,-0.147133,9.918202,-0.688836,0.567489,-18.201490,-0.770317,-0.155706,-3.005437,0.999632,-0.006756,-0.001182,-0.026233
3561,0.038205,-0.137970,9.924257,-0.080013,0.597984,-19.069742,-0.782027,-0.145291,-3.626813,0.999475,-0.006861,-0.001051,-0.031653
3562,0.036207,-0.125659,9.926121,0.493740,0.504881,-16.031622,-0.773571,-0.135360,-4.212016,0.999301,-0.006789,-0.000932,-0.036756
3563,0.036804,-0.137553,9.921218,0.507479,0.457554,-14.673551,-0.755564,-0.126710,-4.723926,0.999128,-0.006633,-0.000833,-0.041219
3564,0.035533,-0.171121,9.917418,0.626459,0.394965,-13.242232,-0.736723,-0.119209,-5.189323,0.998953,-0.006470,-0.000748,-0.045276
3565,0.035394,-0.141812,9.914936,0.919385,0.323219,-11.455374,-0.711439,-0.113121,-5.601060,0.998786,-0.006249,-0.000683,-0.048864
3566,0.034887,-0.132851,9.916352,0.595866,0.320139,-12.097789,-0.686006,-0.107897,-5.993709,0.998614,-0.006028,-0.000627,-0.052286
3567,0.033051,-0.132520,9.918729,0.141117,0.358258,-13.849551,-0.673493,-0.102446,-6.426263,0.998410,-0.005918,-0.000563,-0.056055
3568,0.032839,-0.126238,9.918951,0.005287,0.365860,-14.777315,-0.670787,-0.096700,-6.903479,0.998168,-0.005894,-0.000490,-0.060212
3569,0.034954,-0.111959,9.924740,0.000704,0.378035,-15.373951,-0.669993,-0.090989,-7.406101,0.997895,-0.005886,-0.000415,-0.064589
3570,0.034369,-0.100650,9.929403,-0.046580,0.419199,-16.297138,-0.669474,-0.084757,-7.934062,0.997586,-0.005879,-0.000334,-0.069186
3571,0.031771,-0.119559,9.928556,0.209787,0.440528,-16.585537,-0.665691,-0.077674,-8.482225,0.997244,-0.005843,-0.000246,-0.073956
3572,0.034393,-0.122681,9.924273,0.751480,0.425232,-16.672514,-0.649216,-0.070511,-9.036640,0.996876,-0.005696,-0.000167,-0.078780
3573,0.036626,-0.109035,9.922234,1.146690,0.449603,-17.633846,-0.617007,-0.063319,-9.608525,0.996472,-0.005412,-0.000100,-0.083754
3574,0.030455,-0.102421,9.919696,1.259617,0.464820,-18.334249,-0.576094,-0.055362,-10.208105,0.996022,-0.005050,-0.000034,-0.088966
3575,0.034721,-0.089312,9.918538,1.677734,0.435784,-18.564663,-0.526231,-0.047340,-10.823185,0.995532,-0.004611,0.000022,-0.094311
3576,0.040225,-0.033720,9.914532,1.981458,0.394529,-18.073318,-0.463146,-0.040132,-11.433897,0.995018,-0.004056,0.000054,-0.099615
3577,0.039393,-0.029174,9.918000,1.581769,0.367001,-17.630800,-0.400768,-0.033460,-12.029035,0.994489,-0.003509,0.000076,-0.104781
3578,0.043094,-0.034182,9.924105,1.102712,0.357778,-17.513304,-0.353643,-0.026931,-12.614820,0.993942,-0.003093,0.000105,-0.109863
3579,0.050779,-0.025778,9.923260,0.861684,0.368379,-18.456326,-0.318955,-0.020375,-13.214360,0.993354,-0.002785,0.000144,-0.115062
3580,0.049874,-0.027439,9.921079,0.255952,0.415594,-19.683172,-0.298620,-0.012973,-13.850060,0.992701,-0.002601,0.000202,-0.120570
3581,0.046821,-0.060644,9.924355,-0.345244,0.464336,-21.332699,-0.299554,-0.004094,-14.533703,0.991964,-0.002598,0.000295,-0.126490
3582,0.043684,-0.043702,9.925824,-0.346770,0.508504,-23.038681,-0.311118,0.006041,-15.273272,0.991127,-0.002684,0.000413,-0.132890
3583,0.037787,-0.036694,9.928954,-0.473398,0.522158,-24.099201,-0.324335,0.016896,-16.058947,0.990192,-0.002782,0.000541,-0.139682
3585,0.036041,-0.029297,9.926375,-1.008956,0.575490,-25.582401,-0.348307,0.028453,-16.887020,0.989157,-0.002970,0.000692,-0.146833
3586,0.034519,-0.043965,9.929996,-1.173714,0.613564,-26.804670,-0.384171,0.040774,-17.760199,0.988008,-0.003257,0.000869,-0.154365
3587,0.034388,-0.051186,9.929528,-1.018039,0.613486,-26.688696,-0.420665,0.053009,-18.651815,0.986776,-0.003548,0.001051,-0.162047
3588,0.038744,-0.086147,9.927641,-1.234718,0.628659,-26.970993,-0.459077,0.064705,-19.546219,0.985480,-0.003852,0.001236,-0.169743
3589,0.044146,-0.091539,9.924015,-1.121823,0.674338,-28.362640,-0.500092,0.076201,-20.468531,0.984080,-0.004177,0.001430,-0.177669
3590,0.044753,-0.111990,9.926966,-0.674763,0.683384,-28.791424,-0.532294,0.087533,-21.421196,0.982568,-0.004422,0.001614,-0.185843
3591,0.047764,-0.111477,9.925452,-0.270436,0.672587,-28.815842,-0.550675,0.098181,-22.381416,0.980976,-0.004548,0.001773,-0.194069
3592,0.049528,-0.089119,9.922420,0.057626,0.670936,-29.446051,-0.556282,0.108106,-23.352547,0.979296,-0.004563,0.001906,-0.202375
3593,0.055471,-0.069794,9.923688,0.281969,0.670801,-29.294987,-0.551760,0.117640,-24.331654,0.977531,-0.004491,0.002018,-0.210734
3594,0.053292,-0.069363,9.924732,0.672656,0.634036,-27.836199,-0.536612,0.126804,-25.283936,0.975747,-0.004327,0.002105,-0.218850
3595,0.058394,-0.030750,9.923771,1.011497,0.553014,-25.223818,-0.508436,0.134846,-26.168344,0.974029,-0.004055,0.002151,-0.226375
3596,0.058199,-0.017598,9.924459,0.869713,0.507080,-23.284369,-0.475841,0.141705,-26.976887,0.972409,-0.003750,0.002171,-0.233242
3597,0.062920,-0.018340,9.921896,0.712671,0.473347,-21.508192,-0.448119,0.147956,-27.723492,0.970870,-0.003487,0.002190,-0.239573
3598,0.055555,-0.018974,9.917788,0.401501,0.431984,-20.380531,-0.428436,0.153641,-28.421700,0.969392,-0.003295,0.002218,-0.245484
3599,0.055776,-0.016187,9.916339,-0.472742,0.433353,-20.061615,-0.428656,0.159070,-29.095793,0.967932,-0.003272,0.002283,-0.251182
3600,0.046795,-0.040462,9.914425,-1.450771,0.480506,-20.958860,-0.460442,0.165181,-29.779543,0.966415,-0.003513,0.002426,-0.256952
3601,0.047504,-0.076796,9.909100,-2.447165,0.573442,-22.948669,-0.526687,0.172771,-30.511427,0.964752,-0.004038,0.002664,-0.263118
3602,0.031098,-0.104684,9.910313,-4.243190,0.782362,-30.794981,-0.641232,0.182890,-31.407293,0.962661,-0.004955,0.003051,-0.270649
3603,0.031517,-0.149495,9.908497,-7.086039,1.227812,-40.129063,-0.835235,0.198114,-32.589592,0.959807,-0.006511,0.003704,-0.280560
3604,0.042410,-0.211468,9.903658,-8.377074,1.224627,-44.093422,-1.100517,0.211783,-33.993599,0.956281,-0.008644,0.004575,-0.292287
3605,0.045946,-0.267953,9.905058,-7.888917,1.319080,-44.804508,-1.380620,0.218192,-35.475540,0.952397,-0.010895,0.005484,-0.304616
3606,0.046269,-0.285036,9.907755,-6.982638,1.418105,-45.137157,-1.637176,0.220375,-36.974968,0.948303,-0.012940,0.006354,-0.317038
3607,0.064260,-0.320763,9.908888,-5.380497,1.446918,-40.888988,-1.850740,0.220090,-38.409260,0.944235,-0.014620,0.007126,-0.328870
3608,0.065384,-0.318972,9.912399,-2.348517,1.246824,-34.846333,-1.985251,0.217862,-39.672104,0.940536,-0.015651,0.007667,-0.339247
3609,0.055866,-0.304912,9.918701,-0.380035,1.351922,-32.740562,-2.034032,0.217130,-40.799236,0.937147,-0.015976,0.007963,-0.348479
3610,0.061403,-0.297131,9.917819,0.167862,1.225086,-32.082897,-2.039420,0.217181,-41.880360,0.933817,-0.015944,0.008130,-0.357304
3611,0.064270,-0.279502,9.917830,0.332786,1.139441,-31.005598,-2.031934,0.214427,-42.932472,0.930498,-0.015816,0.008230,-0.365864
3612,0.070525,-0.264945,9.918754,0.191030,1.044631,-28.956285,-2.023044,0.210423,-43.932404,0.927271,-0.015685,0.008306,-0.373971
3613,0.079451,-0.270523,9.928929,-0.237595,1.143601,-27.157225,-2.023222,0.208471,-44.868252,0.924186,-0.015625,0.008419,-0.381531
3614,0.084388,-0.269746,9.926607,-0.390033,1.213567,-26.491928,-2.033092,0.210375,-45.763161,0.921177,-0.015631,0.008589,-0.388736
3615,0.082369,-0.273955,9.929473,-0.533316,1.352196,-26.255421,-2.047931,0.216045,-46.643181,0.918162,-0.015664,0.008806,-0.395797
3616,0.083381,-0.271591,9.931895,-0.711694,1.351966,-25.828167,-2.068136,0.224143,-47.512230,0.915132,-0.015730,0.009060,-0.402746
3617,0.079250,-0.275169,9.930864,-0.732896,1.321218,-25.313940,-2.091599,0.231978,-48.365597,0.912105,-0.015821,0.009323,-0.409546
3618,0.076110,-0.256666,9.922450,-0.325292,1.092104,-24.387711,-2.108078,0.236184,-49.194809,0.909115,-0.015868,0.009531,-0.416134
3619,0.067907,-0.266795,9.927748,-0.357141,1.014066,-23.208176,-2.117806,0.236628,-49.988766,0.906209,-0.015877,0.009680,-0.422422
3620,0.073616,-0.241293,9.930924,-0.576658,0.972651,-22.928938,-2.131146,0.235837,-50.758362,0.903349,-0.015920,0.009830,-0.428497
3621,0.073264,-0.255637,9.927698,-0.547435,0.952594,-22.048487,-2.147199,0.234412,-51.508606,0.900522,-0.015987,0.009983,-0.434401
3622,0.070876,-0.257189,9.928622,-0.358000,0.929488,-21.248911,-2.159740,0.233219,-52.230850,0.897765,-0.016026,0.010123,-0.440067
3623,0.070691,-0.284325,9.926393,-0.263196,0.914015,-20.875065,-2.168020,0.232071,-52.933533,0.895048,-0.016033,0.010244,-0.445564
3624,0.078598,-0.260593,9.919974,-0.201962,0.926001,-21.349634,-2.173691,0.230533,-53.637890,0.892291,-0.016020,0.010353,-0.451057
3625,0.075477,-0.280705,9.914903,-0.154455,0.942561,-21.804371,-2.177452,0.228720,-54.357750,0.889440,-0.015991,0.010454,-0.456653
3626,0.077535,-0.279404,9.912166,-0.122226,0.971330,-22.588703,-2.180363,0.226870,-55.098267,0.886470,-0.015953,0.010555,-0.462391
3627,0.078844,-0.271919,9.913859,-0.086933,0.987889,-23.118204,-2.181971,0.224846,-55.860691,0.883373,-0.015903,0.010652,-0.468279
3628,0.082411,-0.252071,9.913034,-0.124860,0.978502,-22.845072,-2.182934,0.222662,-56.627380,0.880220,-0.015848,0.010745,-0.474179
3629,0.081492,-0.267713,9.908836,-0.251285,0.941648,-21.926474,-2.186421,0.220384,-57.374195,0.877111,-0.015814,0.010845,-0.479906
3630,0.084310,-0.296760,9.908112,-0.261782,0.921578,-21.389357,-2.193128,0.217984,-58.096748,0.874066,-0.015807,0.010955,-0.485426
3631,0.085949,-0.311505,9.908658,-0.240275,0.962541,-22.198105,-2.200649,0.215586,-58.823830,0.870967,-0.015804,0.011069,-0.490962
3632,0.082334,-0.326475,9.908025,-0.317979,1.066069,-24.448854,-2.209927,0.213596,-59.601959,0.867612,-0.015808,0.011201,-0.496864
3633,0.081664,-0.343619,9.904678,-0.374350,1.187914,-27.125336,-2.222428,0.212153,-60.462292,0.863855,-0.015824,0.011364,-0.503363
3634,0.083491,-0.351920,9.910996,-0.316295,1.305180,-29.780457,-2.235731,0.211030,-61.411556,0.859654,-0.015834,0.011545,-0.510501
3635,0.082443,-0.314331,9.913661,-0.317719,1.427024,-32.234150,-2.247566,0.210353,-62.446033,0.855009,-0.015820,0.011736,-0.518239
3636,0.076068,-0.270922,9.914167,-0.294647,1.495468,-33.125298,-2.257189,0.210646,-63.536320,0.850038,-0.015778,0.011932,-0.526350
3637,0.080913,-0.260798,9.917485,-0.385964,1.440314,-32.357765,-2.266584,0.210939,-64.628654,0.844981,-0.015731,0.012128,-0.534427
3638,0.081639,-0.252754,9.917480,-0.278890,1.385154,-30.975288,-2.275058,0.210495,-65.685127,0.840017,-0.015683,0.012310,-0.542194
3639,0.078331,-0.230011,9.916764,0.234113,1.395612,-28.901562,-2.272180,0.211618,-66.684021,0.835259,-0.015549,0.012440,-0.549496
3640,0.071811,-0.211040,9.918048,0.373306,1.325204,-26.751537,-2.257190,0.214946,-67.612534,0.830782,-0.015323,0.012517,-0.556247
3641,0.076342,-0.231806,9.915046,0.349219,1.198339,-24.575579,-2.240175,0.218078,-68.468903,0.826604,-0.015091,0.012570,-0.562441
3642,0.072578,-0.223995,9.910621,0.602834,1.181338,-23.135113,-2.219596,0.221380,-69.264961,0.822680,-0.014839,0.012597,-0.568172
3643,0.074368,-0.215115,9.910753,0.809154,1.179597,-22.388943,-2.191027,0.226152,-70.024582,0.818899,-0.014527,0.012586,-0.573615
3644,0.066575,-0.208616,9.912887,0.778962,1.116824,-22.123436,-2.159351,0.230995,-70.767303,0.815169,-0.014195,0.012554,-0.578914
3645,0.071592,-0.226833,9.906874,0.957802,0.997593,-21.273504,-2.125704,0.233937,-71.491341,0.811499,-0.013862,0.012493,-0.584056
3646,0.068834,-0.230122,9.910206,1.454000,0.914980,-20.472401,-2.081508,0.234943,-72.187767,0.807940,-0.013469,0.012357,-0.588982
3647,0.070054,-0.222538,9.909608,1.815910,0.811005,-19.974955,-2.023144,0.234279,-72.862442,0.804465,-0.012990,0.012129,-0.593735
3648,0.062404,-0.186225,9.914205,1.927593,0.705512,-19.619419,-1.956176,0.231503,-73.522789,0.801037,-0.012466,0.011834,-0.598368
3649,0.070084,-0.184349,9.911689,1.595247,0.593914,-18.835100,-1.892366,0.226506,-74.164009,0.797683,-0.011982,0.011533,-0.602848
3650,0.066980,-0.184241,9.919224,0.640304,0.627275,-19.369179,-1.850428,0.220835,-74.801033,0.794323,-0.011657,0.011338,-0.607278
3651,0.070543,-0.183925,9.921336,-0.155959,0.677425,-20.286266,-1.838143,0.216079,-75.462273,0.790806,-0.011532,0.011307,-0.611853
3652,0.073519,-0.183743,9.922595,-0.586009,0.735198,-20.478539,-1.846529,0.212442,-76.142044,0.787162,-0.011542,0.011395,-0.616533
3653,0.077575,-0.204867,9.919704,-0.805503,0.763973,-20.312220,-1.866228,0.209951,-76.822304,0.783486,-0.011622,0.011553,-0.621193
3654,0.082745,-0.213041,9.918251,-0.909049,0.779009,-20.852402,-1.891894,0.207527,-77.508804,0.779748,-0.011741,0.011747,-0.625874
3655,0.083561,-0.216656,9.915020,-0.454112,0.766571,-20.840202,-1.911796,0.204465,-78.204117,0.775933,-0.011821,0.011906,-0.630592
3656,0.083216,-0.208636,9.914392,0.161062,0.767868,-20.702875,-1.913523,0.201208,-78.896919,0.772106,-0.011779,0.011965,-0.635272
3657,0.087190,-0.184123,9.914046,0.930387,0.737119,-20.834112,-1.891261,0.197535,-79.589607,0.768254,-0.011577,0.011887,-0.639930
3658,0.086994,-0.156175,9.916990,1.711968,0.721626,-20.455690,-1.841911,0.193606,-80.278152,0.764400,-0.011199,0.011653,-0.644540
3659,0.086112,-0.123690,9.921477,2.547001,0.671038,-18.822956,-1.764307,0.190454,-80.933159,0.760710,-0.010634,0.011256,-0.648907
3660,0.090681,-0.106965,9.920798,3.247780,0.602138,-16.483719,-1.660200,0.188279,-81.521935,0.757375,-0.009901,0.010703,-0.652817
3661,0.092574,-0.081314,9.922339,3.054377,0.519498,-14.971533,-1.547144,0.186355,-82.046486,0.754388,-0.009118,0.010088,-0.656288
3662,0.078013,-0.097514,9.925608,2.104088,0.444501,-13.152635,-1.453625,0.184485,-82.515450,0.751703,-0.008474,0.009575,-0.659378
3663,0.077374,-0.111147,9.925025,1.144580,0.348157,-11.736581,-1.393325,0.182083,-82.930443,0.749314,-0.008059,0.009242,-0.662101
3664,0.077301,-0.115217,9.925756,0.272007,0.308273,-11.309326,-1.364505,0.178507,-83.314674,0.747092,-0.007861,0.009078,-0.664612
3665,0.074250,-0.120739,9.926678,-0.615848,0.276022,-11.399359,-1.365583,0.174055,-83.693245,0.744892,-0.007864,0.009081,-0.667077
3666,0.071451,-0.148051,9.922956,-1.334363,0.223942,-11.756430,-1.394329,0.168093,-84.079254,0.742638,-0.008054,0.009237,-0.669581
3667,0.081070,-0.164181,9.920034,-1.523418,0.232893,-12.964968,-1.439151,0.160402,-84.491318,0.740222,-0.008356,0.009479,-0.672244
3668,0.078849,-0.161649,9.922037,-1.375244,0.316611,-14.011758,-1.484724,0.152869,-84.940987,0.737574,-0.008656,0.009732,-0.675140
3669,0.080140,-0.172245,9.917626,-1.399493,0.340821,-14.936470,-1.528083,0.146017,-85.423569,0.734721,-0.008934,0.009981,-0.678237
3670,0.087729,-0.164202,9.915456,-1.042248,0.380283,-15.816935,-1.565599,0.138911,-85.936234,0.731676,-0.009171,0.010199,-0.681515
3671,0.088938,-0.146209,9.922184,-0.279070,0.459414,-15.455297,-1.583440,0.133157,-86.457603,0.728565,-0.009272,0.010311,-0.684836
3672,0.081425,-0.148277,9.930005,0.088920,0.486672,-14.483287,-1.581720,0.129938,-86.956802,0.725575,-0.009236,0.010320,-0.688004
3673,0.093196,-0.163901,9.927002,0.032688,0.436104,-13.885129,-1.575074,0.127008,-87.429825,0.722729,-0.009169,0.010300,-0.690994
3674,0.093364,-0.168660,9.928342,0.527294,0.452667,-13.270189,-1.561574,0.123870,-87.882645,0.719994,-0.009062,0.010234,-0.693846
3675,0.085891,-0.155952,9.935527,0.847949,0.426512,-12.066238,-1.534294,0.121774,-88.305138,0.717433,-0.008866,0.010089,-0.696498
3676,0.090913,-0.147528,9.928007,0.750514,0.362213,-10.950792,-1.502856,0.119489,-88.688950,0.715098,-0.008650,0.009912,-0.698900
3677,0.100206,-0.120392,9.921846,0.729400,0.322315,-10.311436,-1.472709,0.116091,-89.043495,0.712934,-0.008453,0.009733,-0.701112
3678,0.097029,-0.100773,9.923430,0.758676,0.286990,-9.614093,-1.441491,0.112074,-89.375732,0.710901,-0.008255,0.009541,-0.703179
3679,0.093513,-0.133301,9.924889,0.124151,0.247094,-9.197519,-1.420867,0.107611,-89.689369,0.708974,-0.008129,0.009409,-0.705125
3680,0.096416,-0.151059,9.923778,-0.649289,0.251452,-11.153761,-1.425153,0.101996,-90.028648,0.706883,-0.008162,0.009425,-0.707221
3682,0.091866,-0.152189,9.924541,-0.694885,0.266496,-11.356713,-1.443639,0.095813,-90.403915,0.704561,-0.008283,0.009528,-0.709531
3683,0.092922,-0.160884,9.926388,-0.478027,0.237292,-10.145134,-1.459345,0.089860,-90.762360,0.702337,-0.008387,0.009615,-0.711730
3684,0.087723,-0.157378,9.926044,-0.163508,0.217251,-8.739762,-1.466074,0.084286,-91.077194,0.700378,-0.008436,0.009646,-0.713657
3685,0.089290,-0.129670,9.923116,-0.035119,0.195688,-7.934077,-1.464496,0.079084,-91.355171,0.698644,-0.008435,0.009625,-0.715355
3686,0.087119,-0.117163,9.920035,0.346613,0.183284,-6.215891,-1.453349,0.074472,-91.591064,0.697171,-0.008377,0.009545,-0.716793
3687,0.087596,-0.110737,9.922318,0.533043,0.147994,-5.423940,-1.432260,0.070272,-91.785141,0.695957,-0.008259,0.009401,-0.717974
3688,0.085844,-0.103800,9.920584,0.541364,0.127683,-4.723551,-1.397273,0.058842,-91.954315,0.694898,-0.008104,0.009125,-0.719005
3689,0.085860,-0.096814,9.920929,0.269337,0.100996,-4.223065,-1.356038,0.040402,-92.103455,0.693963,-0.007959,0.008764,-0.719913
3690,0.086256,-0.081914,9.920419,0.062958,0.056015,-3.144252,-1.321882,0.021928,-92.226250,0.693192,-0.007859,0.008446,-0.720660
3691,0.083701,-0.126734,9.925538,-0.464030,-0.019451,-1.865543,-1.304031,0.003232,-92.309731,0.692667,-0.007862,0.008227,-0.721168
3692,0.079699,-0.257055,9.957461,-0.520212,0.057727,-2.958120,-1.313499,-0.014081,-92.390129,0.692159,-0.008023,0.008187,-0.721654
3693,0.076713,-0.219897,9.953465,-0.076252,0.115120,-3.924044,-1.325514,-0.028664,-92.504860,0.691434,-0.008179,0.008183,-0.722347
3694,0.074471,-0.234809,9.957436,-0.294445,0.106939,-4.218561,-1.331234,-0.041889,-92.640610,0.690576,-0.008287,0.008149,-0.723166
3695,0.073904,-0.229692,9.958498,-0.022841,0.097261,-3.994262,-1.336664,-0.054724,-92.777550,0.689710,-0.008391,0.008116,-0.723991
3696,0.072736,-0.146217,9.949123,0.931199,0.121178,-3.187059,-1.312988,-0.066303,-92.897301,0.688954,-0.008314,0.007905,-0.724714
3697,0.080413,-0.029041,9.924769,0.308189,0.001648,-1.035517,-1.264911,-0.078526,-92.967735,0.688511,-0.008097,0.007533,-0.725141
3698,0.099204,-0.143566,9.922606,-1.677512,-0.331599,0.192838,-1.261356,-0.099195,-92.981697,0.688422,-0.008206,0.007387,-0.725227
3699,0.066961,-0.046101,9.935289,0.304093,-0.068134,0.559047,-1.260412,-0.118602,-92.969055,0.688500,-0.008324,0.007264,-0.725152
3700,0.053604,-0.018935,9.945708,0.339095,-0.048614,0.427808,-1.213949,-0.128148,-92.952660,0.688607,-0.008106,0.006911,-0.725057
3701,0.058739,0.048270,9.939259,-0.127603,-0.044304,0.288939,-1.166397,-0.136127,-92.940773,0.688684,-0.007871,0.006562,-0.724989
3702,0.057115,0.058847,9.924744,0.223833,-0.024736,0.206529,-1.114848,-0.143849,-92.932632,0.688739,-0.007611,0.006188,-0.724943
3703,0.039564,0.133381,9.930036,1.546019,0.240589,0.009676,-1.028860,-0.144821,-92.929222,0.688766,-0.007100,0.005638,-0.724927
3704,0.072162,0.039855,9.913734,-0.286049,-0.011425,-0.011697,-0.955475,-0.146950,-92.929466,0.688769,-0.006673,0.005161,-0.724932
3705,0.086950,-0.003694,9.903258,-0.296793,-0.021000,-0.040701,-0.928635,-0.157977,-92.930443,0.688763,-0.006581,0.004925,-0.724940
3706,0.087221,-0.109293,9.913391,-0.129647,-0.021468,-0.057496,-0.915221,-0.170414,-92.932129,0.688753,-0.006579,0.004766,-0.724951
3707,0.082607,-0.121777,9.921651,0.018707,-0.024955,-0.062082,-0.908580,-0.182098,-92.934128,0.688740,-0.006613,0.004654,-0.724964
3708,0.080711,-0.123442,9.921741,0.025082,-0.032978,-0.060563,-0.901048,-0.192937,-92.936188,0.688727,-0.006636,0.004541,-0.724977
3709,0.078677,-0.124754,9.922791,0.022283,-0.045549,-0.069725,-0.893976,-0.203368,-92.938354,0.688713,-0.006660,0.004434,-0.724990
3710,0.078771,-0.115782,9.924097,0.042390,-0.045891,-0.072784,-0.886118,-0.213473,-92.940735,0.688697,-0.006676,0.004323,-0.725005
3711,0.078922,-0.116025,9.922173,0.047263,-0.040116,-0.084997,-0.877253,-0.223173,-92.943375,0.688681,-0.006684,0.004209,-0.725022
3712,0.078601,-0.108132,9.919979,0.055205,-0.026698,-0.081951,-0.867719,-0.232212,-92.946159,0.688663,-0.006684,0.004095,-0.725039
3713,0.084378,-0.099422,9.918136,0.075405,-0.017866,-0.077379,-0.856430,-0.241094,-92.948837,0.688646,-0.006672,0.003970,-0.725056
3714,0.087097,-0.103340,9.916266,0.074248,-0.015159,-0.069757,-0.844713,-0.250303,-92.951324,0.688631,-0.006660,0.003841,-0.725072
3715,0.086163,-0.107531,9.918669,0.065414,-0.023129,-0.068237,-0.834326,-0.259466,-92.953659,0.688616,-0.006656,0.003720,-0.725086
3716,0.087383,-0.106189,9.924352,0.070289,-0.029560,-0.062139,-0.824640,-0.268582,-92.955841,0.688602,-0.006655,0.003604,-0.725100
3717,0.091483,-0.110977,9.927450,0.055301,-0.043630,-0.068250,-0.815779,-0.278238,-92.958038,0.688588,-0.006663,0.003490,-0.725114
3718,0.086133,-0.115493,9.928809,0.041788,-0.051579,-0.069780,-0.808591,-0.287826,-92.960342,0.688573,-0.006680,0.003387,-0.725128
3719,0.088685,-0.115808,9.926688,0.052662,-0.054926,-0.063682,-0.802181,-0.297012,-92.962570,0.688559,-0.006700,0.003292,-0.725142
3720,0.092229,-0.110283,9.924811,0.054392,-0.046076,-0.065214,-0.795290,-0.306381,-92.964714,0.688545,-0.006718,0.003192,-0.725155
3721,0.090646,-0.107180,9.923450,0.031733,-0.047903,-0.053011,-0.788143,-0.315513,-92.966690,0.688533,-0.006732,0.003092,-0.725167
3722,0.086283,-0.101577,9.921188,0.042665,-0.045118,-0.062172,-0.780593,-0.323751,-92.968628,0.688520,-0.006739,0.002995,-0.725179
3723,0.090544,-0.097308,9.920774,0.041419,-0.036217,-0.069806,-0.772176,-0.331501,-92.970863,0.688506,-0.006738,0.002895,-0.725193
3724,0.093094,-0.100743,9.921912,0.034063,-0.034961,-0.072863,-0.764087,-0.339472,-92.973259,0.688491,-0.006739,0.002796,-0.725208
3725,0.090020,-0.103827,9.921985,0.031248,-0.035219,-0.071343,-0.757068,-0.347113,-92.975677,0.688476,-0.006745,0.002706,-0.725223
3726,0.089847,-0.105828,9.919214,0.052817,-0.035453,-0.069821,-0.750480,-0.354191,-92.978043,0.688461,-0.006751,0.002622,-0.725237
3727,0.096285,-0.110832,9.918259,0.046884,-0.029599,-0.056092,-0.744537,-0.361532,-92.980156,0.688447,-0.006761,0.002540,-0.725250
3728,0.092777,-0.112039,9.921692,0.057704,-0.032902,-0.048467,-0.739320,-0.368866,-92.981911,0.688436,-0.006776,0.002463,-0.725261
3729,0.089175,-0.102684,9.921244,0.071601,-0.033115,-0.059152,-0.733088,-0.375327,-92.983711,0.688425,-0.006780,0.002385,-0.725272
3730,0.091269,-0.099146,9.922236,0.073330,-0.019579,-0.063733,-0.725544,-0.381193,-92.985786,0.688412,-0.006772,0.002302,-0.725285
3731,0.091772,-0.101806,9.923216,0.061322,-0.013677,-0.074418,-0.718312,-0.386782,-92.988121,0.688397,-0.006763,0.002223,-0.725299
3732,0.088835,-0.099868,9.925569,0.059983,-0.021489,-0.077474,-0.711614,-0.391977,-92.990677,0.688381,-0.006756,0.002149,-0.725315
3733,0.091176,-0.105287,9.926467,0.046414,-0.026240,-0.085107,-0.705726,-0.397143,-92.993401,0.688364,-0.006753,0.002081,-0.725331
3734,0.092460,-0.111199,9.926384,0.031266,-0.020317,-0.089688,-0.701614,-0.402467,-92.996330,0.688345,-0.006762,0.002023,-0.725349
3735,0.092565,-0.109456,9.925659,0.034408,-0.035755,-0.079009,-0.698271,-0.407908,-92.999130,0.688327,-0.006777,0.001970,-0.725366
3736,0.094798,-0.116270,9.927161,0.035999,-0.035936,-0.083590,-0.695461,-0.413652,-93.001846,0.688310,-0.006796,0.001918,-0.725382
3737,0.092523,-0.119378,9.921584,0.032969,-0.033057,-0.083592,-0.693736,-0.419165,-93.004631,0.688292,-0.006820,0.001874,-0.725399
3738,0.090095,-0.117675,9.922018,0.039085,-0.030153,-0.080542,-0.692176,-0.423946,-93.007355,0.688275,-0.006841,0.001835,-0.725416
3739,0.089095,-0.108369,9.924148,0.039139,-0.034859,-0.071388,-0.689507,-0.428250,-93.009872,0.688258,-0.006852,0.001793,-0.725431
3740,0.087526,-0.115271,9.923292,0.040725,-0.034970,-0.065286,-0.686650,-0.432232,-93.012154,0.688244,-0.006860,0.001751,-0.725445
3741,0.083179,-0.111871,9.922121,0.048398,-0.039631,-0.059184,-0.684072,-0.435586,-93.014221,0.688231,-0.006866,0.001715,-0.725457
3742,0.085670,-0.106320,9.926973,0.049999,-0.045806,-0.063763,-0.680564,-0.438815,-93.016273,0.688218,-0.006866,0.001673,-0.725470
3743,0.086994,-0.109361,9.921100,0.040923,-0.051992,-0.054609,-0.677043,-0.442508,-93.018242,0.688205,-0.006868,0.001629,-0.725482
3744,0.085550,-0.116032,9.919642,0.042486,-0.050542,-0.062240,-0.674706,-0.446159,-93.020180,0.688193,-0.006877,0.001592,-0.725493
3745,0.083678,-0.110715,9.919597,0.037937,-0.049075,-0.069871,-0.672647,-0.449323,-93.022354,0.688179,-0.006884,0.001560,-0.725506
3746,0.084509,-0.099541,9.917417,0.031921,-0.049126,-0.066820,-0.669251,-0.452253,-93.024635,0.688165,-0.006883,0.001521,-0.725520
3747,0.088528,-0.104813,9.918223,0.036607,-0.044613,-0.069874,-0.665402,-0.455475,-93.026924,0.688150,-0.006880,0.001478,-0.725534
3748,0.087365,-0.101326,9.920726,0.053488,-0.038582,-0.086661,-0.661479,-0.458695,-93.029526,0.688134,-0.006877,0.001434,-0.725550
3749,0.089240,-0.097455,9.919907,0.061236,-0.037127,-0.080558,-0.656564,-0.461751,-93.032326,0.688116,-0.006866,0.001384,-0.725567
3750,0.090890,-0.102554,9.918503,0.065922,-0.040259,-0.086664,-0.651709,-0.465071,-93.035126,0.688099,-0.006858,0.001334,-0.725583
3751,0.086628,-0.108902,9.921091,0.076661,-0.044902,-0.088191,-0.647860,-0.468164,-93.038025,0.688080,-0.006855,0.001291,-0.725601
3752,0.083664,-0.099207,9.917521,0.073676,-0.037306,-0.086666,-0.643705,-0.470406,-93.040939,0.688062,-0.006844,0.001251,-0.725619
3753,0.089030,-0.095509,9.915802,0.073787,-0.044974,-0.080563,-0.638448,-0.472794,-93.043732,0.688045,-0.006827,0.001204,-0.725635
3754,0.088204,-0.097958,9.917358,0.078473,-0.041977,-0.082091,-0.633148,-0.475619,-93.046455,0.688028,-0.006813,0.001154,-0.725652
3755,0.091087,-0.094380,9.921862,0.084685,-0.035931,-0.085144,-0.627728,-0.478399,-93.049240,0.688010,-0.006799,0.001103,-0.725669
3756,0.096818,-0.093336,9.922445,0.071069,-0.034493,-0.086672,-0.622159,-0.481787,-93.052109,0.687992,-0.006786,0.001047,-0.725686
3757,0.095832,-0.102184,9.924737,0.068098,-0.037646,-0.086674,-0.617798,-0.485554,-93.055008,0.687974,-0.006784,0.000997,-0.725703
3758,0.090702,-0.106801,9.927668,0.062016,-0.031615,-0.083623,-0.615043,-0.488560,-93.057838,0.687956,-0.006787,0.000962,-0.725720
3759,0.090566,-0.107143,9.929112,0.049808,-0.040818,-0.082097,-0.613185,-0.490995,-93.060600,0.687938,-0.006791,0.000936,-0.725737
3760,0.088283,-0.106952,9.929311,0.051328,-0.048483,-0.063787,-0.611598,-0.493382,-93.062996,0.687923,-0.006796,0.000911,-0.725751
3761,0.088922,-0.102740,9.930758,0.062020,-0.048508,-0.062261,-0.609442,-0.495655,-93.065094,0.687910,-0.006798,0.000884,-0.725764
3762,0.084722,-0.102587,9.930923,0.066623,-0.054620,-0.063787,-0.606673,-0.497608,-93.067184,0.687896,-0.006794,0.000855,-0.725777
3763,0.082693,-0.098699,9.926418,0.063607,-0.054602,-0.063788,-0.603574,-0.498997,-93.069290,0.687883,-0.006784,0.000827,-0.725789
3764,0.079524,-0.097058,9.919971,0.071290,-0.054562,-0.065314,-0.599974,-0.499838,-93.071434,0.687870,-0.006767,0.000800,-0.725802
3765,0.079874,-0.098088,9.921666,0.068290,-0.049932,-0.080573,-0.596351,-0.500299,-93.073860,0.687855,-0.006749,0.000774,-0.725817
3766,0.079214,-0.107434,9.918302,0.059140,-0.059034,-0.089728,-0.594047,-0.500789,-93.076683,0.687837,-0.006738,0.000757,-0.725834
3767,0.080889,-0.104627,9.915675,0.048436,-0.058983,-0.088201,-0.592807,-0.501517,-93.079613,0.687818,-0.006735,0.000745,-0.725851
3768,0.082580,-0.108877,9.919090,0.054509,-0.060470,-0.095830,-0.591841,-0.502573,-93.082649,0.687799,-0.006736,0.000732,-0.725870
3769,0.085175,-0.111812,9.925049,0.040715,-0.055869,-0.095829,-0.591721,-0.503954,-93.085808,0.687779,-0.006744,0.000723,-0.725889
3770,0.079744,-0.110685,9.917958,0.039121,-0.048203,-0.091250,-0.592051,-0.504817,-93.088905,0.687759,-0.006751,0.000721,-0.725907
3771,0.078766,-0.109769,9.918421,0.037537,-0.035934,-0.085146,-0.592243,-0.504697,-93.091812,0.687741,-0.006752,0.000723,-0.725925
3772,0.078013,-0.115489,9.918059,0.043562,-0.040441,-0.086671,-0.592815,-0.504268,-93.094643,0.687723,-0.006752,0.000729,-0.725942
3773,0.080418,-0.114638,9.916655,0.046517,-0.038853,-0.080565,-0.593696,-0.504056,-93.097389,0.687705,-0.006756,0.000736,-0.725958
3774,0.078954,-0.115405,9.910725,0.054052,-0.037269,-0.082089,-0.594378,-0.503897,-93.100067,0.687688,-0.006759,0.000741,-0.725974
3775,0.082617,-0.115194,9.914285,0.043274,-0.038745,-0.083614,-0.595145,-0.503957,-93.102798,0.687671,-0.006764,0.000746,-0.725990
3776,0.079090,-0.110845,9.913487,0.063033,-0.044800,-0.072932,-0.595297,-0.504153,-93.105377,0.687655,-0.006767,0.000746,-0.726006
3777,0.081912,-0.108799,9.915341,0.081292,-0.044749,-0.075982,-0.594184,-0.504376,-93.107826,0.687639,-0.006761,0.000738,-0.726021
3778,0.083162,-0.114464,9.917426,0.082750,-0.050816,-0.082085,-0.593101,-0.505082,-93.110428,0.687623,-0.006759,0.000727,-0.726036
3779,0.083552,-0.112679,9.922008,0.081141,-0.058415,-0.082084,-0.592422,-0.506154,-93.113129,0.687606,-0.006762,0.000716,-0.726053
3780,0.085957,-0.114256,9.923019,0.093265,-0.059919,-0.074454,-0.591573,-0.507611,-93.115707,0.687589,-0.006766,0.000702,-0.726068
3781,0.088140,-0.119081,9.926083,0.079423,-0.058387,-0.083608,-0.591389,-0.509463,-93.118301,0.687573,-0.006777,0.000690,-0.726084
3782,0.087780,-0.114637,9.930162,0.077787,-0.046178,-0.077503,-0.591508,-0.511202,-93.120941,0.687556,-0.006788,0.000681,-0.726099
3783,0.086995,-0.108494,9.928688,0.083821,-0.037015,-0.085132,-0.590533,-0.512412,-93.123611,0.687539,-0.006790,0.000667,-0.726115
3785,0.085294,-0.115740,9.929036,0.080694,-0.035469,-0.080553,-0.589631,-0.513157,-93.126343,0.687522,-0.006789,0.000657,-0.726132
3786,0.080537,-0.116888,9.927506,0.077535,-0.033898,-0.089708,-0.589673,-0.513198,-93.129150,0.687504,-0.006790,0.000658,-0.726149
3787,0.084216,-0.116338,9.929621,0.074371,-0.030795,-0.085128,-0.589891,-0.513045,-93.132027,0.687486,-0.006790,0.000660,-0.726166
3788,0.082726,-0.117787,9.926223,0.062050,-0.032279,-0.079023,-0.590452,-0.513076,-93.134727,0.687469,-0.006794,0.000664,-0.726182
3789,0.080551,-0.116779,9.926422,0.054305,-0.035275,-0.069866,-0.591383,-0.512832,-93.137177,0.687453,-0.006798,0.000671,-0.726197
3790,0.081982,-0.116633,9.926809,0.054195,-0.026061,-0.071390,-0.592309,-0.512414,-93.139496,0.687438,-0.006801,0.000680,-0.726211
3791,0.081903,-0.113534,9.920775,0.054098,-0.042793,-0.062233,-0.592903,-0.512266,-93.141693,0.687424,-0.006803,0.000684,-0.726224
3792,0.084606,-0.115132,9.917695,0.061636,-0.038174,-0.051550,-0.593217,-0.512585,-93.143547,0.687412,-0.006807,0.000685,-0.726235
3793,0.087879,-0.120751,9.920780,0.069149,-0.036629,-0.056127,-0.593960,-0.513373,-93.145309,0.687401,-0.006817,0.000685,-0.726246
3794,0.091653,-0.117645,9.922047,0.052238,-0.041213,-0.056126,-0.595078,-0.514868,-93.147141,0.687389,-0.006833,0.000683,-0.726257
3795,0.095824,-0.109058,9.923668,0.058261,-0.042775,-0.060703,-0.595218,-0.517191,-93.149055,0.687377,-0.006848,0.000670,-0.726268
3796,0.096116,-0.110984,9.930427,0.058208,-0.030619,-0.056125,-0.594587,-0.519696,-93.150978,0.687365,-0.006860,0.000651,-0.726280
3797,0.090614,-0.109592,9.928154,0.053576,-0.039801,-0.080540,-0.594086,-0.521568,-93.153236,0.687351,-0.006869,0.000637,-0.726293
