seq,ax,ay,az,wroll,wpitch,wyaw,roll,pitch,yaw,q0,q1,q2,q3
30,0.031221,-1.282551,9.935888,-12.446948,-0.621679,3.947021,-7.355219,-0.178554,0.023048,0.997940,-0.064142,-0.001568,0.000101
31,-0.044829,-2.461391,6.387448,-72.963661,4.504272,-0.806083,-9.627768,-0.072507,0.067226,0.996472,-0.083919,-0.000680,0.000531
32,-0.044983,-2.379031,6.230238,-52.066227,4.054433,-3.422982,-13.257820,0.117389,-0.029755,0.993314,-0.115438,0.001048,-0.000140
33,-0.144987,-2.551090,6.686975,-22.496618,4.303617,-3.567847,-15.673800,0.317660,-0.181113,0.990656,-0.136349,0.002962,-0.001188
34,-0.357283,-2.797610,7.830881,8.746137,6.269975,-1.098655,-16.627413,0.664787,-0.310533,0.989473,-0.144574,0.006132,-0.001843
35,-0.370645,-3.308485,10.004367,33.969444,2.605755,-1.086159,-16.269836,1.014903,-0.389894,0.989897,-0.141468,0.009249,-0.002115
36,-0.603171,-3.853410,10.849032,47.014561,0.536080,-4.371206,-15.231436,1.249298,-0.493053,0.991117,-0.132473,0.011376,-0.002820
37,-0.518553,-3.321198,11.577642,42.684242,-1.135365,-8.368878,-13.994426,1.386022,-0.696146,0.992470,-0.121737,0.012745,-0.004556
38,0.113094,-3.147498,11.861636,36.476269,-3.242878,-12.652206,-12.784937,1.190093,-1.020751,0.993700,-0.111236,0.011312,-0.007696
39,0.442667,-2.967292,11.071759,27.025249,-8.144236,-18.727316,-11.926297,0.560435,-1.498819,0.994499,-0.103815,0.006223,-0.012500
40,0.504307,-2.682814,9.452541,14.358155,-6.699758,-23.288792,-11.620991,-0.256172,-2.142012,0.994682,-0.101262,-0.000331,-0.018822
41,0.792370,-2.190089,9.391788,6.481162,-6.813575,-20.681499,-11.603996,-1.120933,-2.816577,0.994505,-0.101295,-0.007244,-0.025438
42,1.084973,-2.464148,9.258556,7.648528,-7.336910,-15.338303,-11.651711,-2.083448,-3.352674,0.994191,-0.101974,-0.015110,-0.030942
44,0.776387,-2.234957,9.004550,2.829446,-4.833811,-11.839816,-11.806713,-2.876462,-3.744761,0.993768,-0.103579,-0.021593,-0.035070
45,0.768705,-2.269355,9.236096,-3.713528,1.086933,-7.979452,-12.072244,-3.283810,-4.042681,0.993323,-0.106052,-0.024769,-0.038073
46,0.624917,-2.697051,9.636361,-6.806784,7.295280,-1.566026,-12.584285,-3.308960,-4.207785,0.992776,-0.110532,-0.024657,-0.039637
47,0.280277,-3.251302,9.724669,-6.739538,13.208640,2.500829,-13.397964,-2.883098,-4.235454,0.992072,-0.117460,-0.020659,-0.039622
48,-0.418203,-3.362839,9.476433,-5.751435,19.442595,6.224782,-14.357819,-1.884229,-4.188870,0.991289,-0.125464,-0.011736,-0.038309
49,-0.622632,-3.289248,9.559072,-2.977604,21.096836,14.703759,-15.177648,-0.477240,-4.003908,0.990609,-0.132125,0.000488,-0.035177
50,-0.686417,-3.132369,9.820244,2.501295,19.897318,21.867273,-15.629590,0.947445,-3.593149,0.990227,-0.135643,0.012450,-0.029935
51,-0.718742,-2.553553,9.849518,5.558807,17.061316,21.950296,-15.569682,2.197169,-3.053461,0.990319,-0.134874,0.022598,-0.023797
52,-0.718519,-2.042355,9.771690,6.498764,13.843110,17.725477,-15.042341,3.181165,-2.537840,0.990852,-0.130201,0.030409,-0.018314
53,-0.703193,-1.899475,9.791398,11.443672,9.525550,12.469008,-14.230896,3.858268,-2.122153,0.991643,-0.123159,0.035691,-0.014196
54,-1.062336,-1.993907,9.801008,15.823663,5.661277,4.198856,-13.337441,4.361155,-1.883527,0.992454,-0.115408,0.039694,-0.011895
55,-1.309289,-2.040076,9.933647,17.167858,3.322064,-5.389579,-12.513349,4.827075,-1.912373,0.993100,-0.108172,0.043672,-0.011985
56,-1.383591,-2.221591,9.824632,22.950056,1.857466,-12.361079,-11.777479,5.222746,-2.208811,0.993596,-0.101598,0.047288,-0.014479
57,-1.410007,-2.037704,9.864695,27.498800,0.420271,-16.270126,-10.988274,5.523898,-2.681753,0.994085,-0.094484,0.050190,-0.018654
58,-1.037351,-2.078690,10.027722,24.283485,1.197890,-20.107655,-10.221939,5.626596,-3.285252,0.994540,-0.087540,0.051417,-0.024146
59,-0.650323,-2.074737,9.950263,18.526989,4.589511,-25.534004,-9.725162,5.483007,-4.068351,0.994777,-0.082924,0.050633,-0.031276
60,-0.361612,-2.081560,9.577863,15.309066,7.358974,-31.157450,-9.507722,5.188014,-5.063433,0.994733,-0.080717,0.048716,-0.040228
61,-0.159092,-2.060741,9.706811,12.223613,9.637907,-35.444317,-9.462992,4.807483,-6.239201,0.994428,-0.080017,0.046221,-0.050733
62,-0.105364,-1.989696,9.565307,13.354365,12.505590,-38.507408,-9.438637,4.441236,-7.545873,0.993913,-0.079494,0.043942,-0.062349
63,-0.309290,-1.800108,9.725891,14.583223,13.509086,-40.020035,-9.285606,4.229420,-8.929299,0.993250,-0.077780,0.042964,-0.074558
64,-0.444758,-1.612274,10.118002,19.765011,12.375498,-39.762394,-8.866488,4.171781,-10.319553,0.992563,-0.073670,0.043089,-0.086803
65,-0.724622,-1.559147,10.582036,21.953411,11.137341,-35.259476,-8.222075,4.247087,-11.615875,0.991894,-0.067533,0.044019,-0.098222
66,-0.855216,-1.418848,10.598138,20.862711,9.840309,-28.458401,-7.525109,4.450291,-12.714165,0.991243,-0.060879,0.045765,-0.107870
67,-0.791670,-1.353313,10.761696,15.192669,8.351019,-23.134424,-6.935734,4.646252,-13.603411,0.990620,-0.055222,0.047334,-0.115685
68,-0.738335,-1.432978,10.740074,11.832488,6.882762,-18.690979,-6.563782,4.752315,-14.329844,0.990008,-0.051590,0.048203,-0.122059
69,-0.711840,-1.430583,10.524127,7.568479,5.521125,-14.423074,-6.403296,4.791158,-14.913408,0.989433,-0.049913,0.048622,-0.127146
70,-0.627730,-1.312937,10.186888,2.628400,4.646091,-11.954260,-6.403990,4.772219,-15.381946,0.988911,-0.049743,0.048663,-0.131201
71,-0.680348,-1.293101,9.782445,-2.192640,3.327038,-10.300282,-6.557853,4.729736,-15.777390,0.988397,-0.050953,0.048649,-0.134570
72,-0.755642,-1.338343,9.607059,-6.198970,0.554098,-7.948935,-6.879472,4.689358,-16.100645,0.987878,-0.053639,0.048830,-0.137243
73,-0.705413,-1.176292,9.102567,-7.952835,-1.753273,-7.697224,-7.252195,4.601699,-16.367144,0.987401,-0.056847,0.048654,-0.139432
74,-0.471030,-1.324735,8.917013,-12.254942,-4.199915,-6.014246,-7.710866,4.354550,-16.589413,0.986955,-0.061019,0.047202,-0.141307
75,-0.090987,-1.526239,8.903411,-10.347009,-7.247320,-2.445405,-8.296561,3.809381,-16.715927,0.986592,-0.066712,0.043307,-0.142518
76,0.231222,-1.516809,9.125296,-4.277862,-9.989132,-0.768878,-8.737999,2.954272,-16.736511,0.986436,-0.071603,0.036513,-0.143121
77,0.289270,-1.404640,9.129823,1.967393,-11.057308,-0.941792,-8.847006,1.979769,-16.713535,0.986482,-0.073794,0.028249,-0.143564
78,0.250578,-1.479230,9.424767,3.810686,-12.530839,0.913340,-8.754206,1.077196,-16.654613,0.986631,-0.074155,0.020327,-0.143689
79,0.079044,-1.374638,9.523958,5.754861,-13.498304,2.867812,-8.563796,0.343502,-16.527523,0.986882,-0.073458,0.013690,-0.143107
80,-0.050541,-1.317621,9.611731,3.394661,-13.703272,4.772096,-8.329678,-0.185762,-16.334909,0.987225,-0.072119,0.008717,-0.141808
81,-0.048328,-1.279517,9.646266,-1.821999,-13.484933,9.894647,-8.209609,-0.572383,-16.027725,0.987632,-0.071576,0.005046,-0.139407
82,0.131828,-1.289215,9.563278,-6.507709,-13.616080,17.527334,-8.273437,-0.937473,-15.510950,0.988159,-0.072576,0.001649,-0.135174
83,0.310110,-1.470027,9.700450,-9.498464,-12.674920,24.809002,-8.543411,-1.335275,-14.748402,0.988796,-0.075357,-0.001964,-0.128845
84,0.432547,-1.554067,9.747574,-10.724049,-11.541791,30.518927,-8.959886,-1.721558,-13.773339,0.989500,-0.079334,-0.005504,-0.120691
85,0.345853,-1.565529,9.692645,-14.188129,-11.403386,36.077808,-9.458208,-2.013256,-12.613859,0.990252,-0.083856,-0.008347,-0.110903
86,0.162453,-1.623680,9.801761,-18.010620,-12.599472,41.214119,-10.052979,-2.140413,-11.275434,0.991002,-0.089005,-0.009910,-0.099472
87,-0.097008,-1.939502,9.969626,-20.316578,-14.147131,45.996582,-10.803222,-2.080497,-9.764422,0.991638,-0.095318,-0.009998,-0.086419
88,-0.120451,-2.024655,9.752857,-21.757639,-15.729368,48.612347,-11.678562,-1.919959,-8.120451,0.992054,-0.102649,-0.009423,-0.072128
89,-0.088902,-2.211907,9.632400,-23.279665,-17.075169,50.382763,-12.621002,-1.781850,-6.392699,0.992179,-0.110594,-0.009303,-0.057120
90,0.018012,-2.377252,9.492533,-21.519588,-16.491014,49.762005,-13.589062,-1.691204,-4.639443,0.991984,-0.118793,-0.009854,-0.041932
91,0.127648,-2.576341,9.312304,-21.561825,-14.447014,46.202232,-14.562990,-1.639362,-2.959555,0.991456,-0.127055,-0.010913,-0.027426
92,0.372529,-2.560997,9.221636,-22.022013,-11.549182,40.692162,-15.509922,-1.660072,-1.444450,0.990647,-0.135093,-0.012652,-0.014443
93,0.415154,-2.595179,9.344919,-22.809694,-8.871601,34.672283,-16.356476,-1.728707,-0.140264,0.989714,-0.142255,-0.014758,-0.003357
94,0.211519,-2.578586,9.564959,-22.874916,-6.509551,26.827469,-17.070728,-1.697200,0.913899,0.988802,-0.148282,-0.015829,0.005688
95,-0.058215,-2.613634,9.567256,-21.494522,-4.537289,19.800783,-17.640574,-1.482550,1.704152,0.988012,-0.153116,-0.015063,0.012710
96,-0.292026,-2.532925,9.396172,-18.931139,-2.130860,13.309952,-18.054909,-1.092288,2.253983,0.987407,-0.156685,-0.012498,0.017929
97,-0.540967,-2.631063,9.406825,-16.698679,1.062078,6.215080,-18.341763,-0.541700,2.559363,0.986977,-0.159234,-0.008225,0.021294
98,-0.800140,-2.825948,9.424027,-10.628803,4.936159,-1.239688,-18.542707,0.169502,2.600340,0.986676,-0.161102,-0.002196,0.022632
99,-0.798880,-2.868787,9.317625,-7.261652,9.625150,-7.702553,-18.650826,0.957941,2.379506,0.986509,-0.162172,0.004883,0.021843
100,-0.866812,-3.143507,9.497546,-7.460999,14.766984,-14.389833,-18.797079,1.756142,1.899729,0.986283,-0.163510,0.012410,0.018855
101,-0.867412,-3.411859,9.485869,-5.710964,17.859102,-19.725285,-19.083376,2.532738,1.181468,0.985834,-0.165941,0.020085,0.013828
102,-0.770953,-3.383665,9.323791,-7.115391,18.612890,-22.021309,-19.454929,3.193807,0.316596,0.985223,-0.168971,0.027000,0.007431
103,-0.607209,-3.252044,8.952777,-12.949430,17.435581,-21.802877,-19.927916,3.661125,-0.580733,0.984430,-0.172779,0.032338,0.000538
104,-0.454170,-3.463772,8.895555,-17.810080,14.070786,-20.058830,-20.611330,3.881458,-1.426422,0.983302,-0.178368,0.035542,-0.006182
105,-0.082767,-3.351045,8.703082,-20.308578,9.217094,-18.750093,-21.407810,3.741982,-2.176140,0.982014,-0.184992,0.035600,-0.012586
106,0.074406,-3.437239,8.831216,-23.984629,5.587768,-17.522577,-22.204092,3.273988,-2.826061,0.980723,-0.191729,0.032770,-0.018689
107,0.161916,-3.747948,8.981505,-22.277214,1.979568,-15.881662,-23.022528,2.650552,-3.383069,0.979333,-0.198751,0.028542,-0.024304
108,0.235825,-3.789783,9.377228,-16.620430,-1.691127,-14.475739,-23.653332,1.941607,-3.842050,0.978198,-0.204251,0.023443,-0.029335
109,0.288979,-3.820977,9.567213,-7.048921,-4.925211,-12.074831,-23.876223,1.192246,-4.192783,0.977743,-0.206333,0.017739,-0.033637
110,0.174914,-3.789356,9.608330,0.342458,-8.451745,-7.575563,-23.726332,0.499780,-4.395736,0.977947,-0.205258,0.012149,-0.036635
111,0.269164,-3.877106,9.583613,4.669723,-11.994613,-1.486100,-23.389418,-0.132214,-4.395610,0.978512,-0.202591,0.006644,-0.037787
112,0.417610,-3.871251,9.497965,7.315061,-14.690598,3.753408,-23.009010,-0.787760,-4.186608,0.979182,-0.199553,0.000553,-0.037162
113,0.348287,-3.835298,9.097399,3.308406,-17.107122,8.164433,-22.753981,-1.413061,-3.799191,0.979657,-0.197541,-0.005544,-0.034925
114,0.307289,-4.027235,8.582196,-4.041147,-17.515034,11.847828,-22.920965,-1.919890,-3.263984,0.979432,-0.199051,-0.010755,-0.031235
115,0.310420,-4.270913,8.391102,-8.920014,-15.584884,13.291360,-23.561049,-2.286859,-2.647896,0.978387,-0.204520,-0.014813,-0.026687
116,0.326790,-4.239364,8.448443,-9.924774,-12.410894,12.151608,-24.345198,-2.519776,-2.053985,0.977041,-0.211158,-0.017711,-0.022152
117,0.357271,-4.288500,8.512615,-10.668082,-7.611697,9.130427,-25.051435,-2.632372,-1.577970,0.975780,-0.217109,-0.019435,-0.018420
118,0.294230,-4.664191,8.821316,-6.998332,-0.787417,5.399778,-25.684004,-2.572822,-1.284838,0.974624,-0.222439,-0.019396,-0.015918
119,0.186211,-4.432672,9.075727,-1.908832,5.141477,0.791854,-26.032570,-2.308634,-1.215325,0.974005,-0.225378,-0.017238,-0.014868
120,0.138562,-4.204786,9.243276,2.878380,9.176887,-2.276380,-25.935015,-1.914706,-1.345189,0.974250,-0.224543,-0.013647,-0.015187
121,-0.077267,-4.058708,9.219738,8.035650,12.257312,-4.493058,-25.511419,-1.399365,-1.609095,0.975114,-0.220924,-0.008809,-0.016390
122,-0.448945,-3.783865,9.246696,12.930988,13.824711,-5.760288,-24.816717,-0.683585,-1.954529,0.976460,-0.214942,-0.002160,-0.017939
123,-0.427179,-3.454525,9.149440,16.641293,13.355238,-5.240559,-23.861300,0.100442,-2.309422,0.978203,-0.206668,0.005023,-0.019536
124,-0.386761,-3.443592,9.222328,17.199072,12.036836,-4.556267,-22.830643,0.757549,-2.622772,0.979970,-0.197715,0.011008,-0.021125
125,-0.345642,-3.410851,9.231915,15.540720,11.027643,-3.658588,-21.919003,1.273507,-2.888873,0.981443,-0.189768,0.015699,-0.022634
126,-0.393031,-3.372772,9.332911,11.095611,9.360448,-2.466549,-21.193218,1.692505,-3.101543,0.982553,-0.183413,0.019488,-0.023883
127,-0.261927,-3.205150,9.278023,7.530828,7.337299,-0.766539,-20.626091,1.985167,-3.243520,0.983390,-0.178445,0.022102,-0.024740
128,-0.126960,-3.236566,9.293318,1.911958,5.608002,0.727219,-20.248888,2.099100,-3.312716,0.983945,-0.175163,0.023105,-0.025231
129,-0.011326,-3.243825,9.337971,-3.171640,4.592291,1.358621,-20.113441,2.065777,-3.333846,0.984150,-0.174004,0.022821,-0.025491
130,0.156041,-3.283720,9.265546,-4.472726,3.458580,-0.436388,-20.136148,1.884150,-3.361933,0.984128,-0.174244,0.021309,-0.026006
131,0.537900,-3.367708,9.158072,-5.258407,0.856051,-1.236828,-20.265722,1.441591,-3.411046,0.983954,-0.175471,0.017614,-0.027084
132,0.709062,-3.670981,9.327937,-7.942905,-2.044761,-2.612832,-20.565859,0.743659,-3.463851,0.983503,-0.178231,0.011777,-0.028579
133,0.620962,-3.511979,9.474668,-5.661955,-4.209845,-5.032492,-20.854713,-0.007341,-3.544316,0.983014,-0.180904,0.005534,-0.030426
134,0.648173,-3.482515,9.351215,-1.767588,-6.163833,-5.106614,-20.937084,-0.726701,-3.639022,0.982803,-0.181798,-0.000464,-0.032374
135,0.485186,-3.643416,9.219937,-1.615057,-8.437625,-3.169331,-21.004972,-1.364581,-3.679929,0.982601,-0.182547,-0.005850,-0.033737
136,-0.028603,-3.552150,9.043265,-1.673376,-9.261784,-0.767580,-21.127409,-1.697311,-3.633572,0.982364,-0.183678,-0.008741,-0.033877
137,-0.238606,-3.570842,8.753667,-1.380867,-8.502041,3.714601,-21.276690,-1.663450,-3.478495,0.982174,-0.184938,-0.008657,-0.032505
138,-0.186762,-3.911458,8.648396,-3.150702,-7.479483,8.056563,-21.617426,-1.469103,-3.192413,0.981730,-0.187793,-0.007364,-0.029762
139,-0.173253,-4.037521,8.675446,-4.474151,-6.595979,10.423928,-22.153061,-1.241173,-2.810853,0.980968,-0.192312,-0.005914,-0.026149
140,-0.017980,-4.140742,8.938910,-4.547756,-4.528776,11.104980,-22.688808,-1.035198,-2.401980,0.980170,-0.196840,-0.004733,-0.022326
141,0.219481,-4.264007,9.055090,-2.455820,-1.885561,9.267927,-23.138325,-0.931345,-2.042164,0.979466,-0.200654,-0.004387,-0.019087
142,0.326717,-4.203392,9.194026,-0.705293,0.459449,5.637632,-23.442190,-0.926278,-1.800069,0.978970,-0.203240,-0.004723,-0.017022
143,0.259540,-4.061953,9.148976,1.213719,1.983421,2.750407,-23.556070,-0.925627,-1.685769,0.978784,-0.204208,-0.004904,-0.016049
144,0.017665,-3.981544,9.125602,3.413943,3.309524,0.315066,-23.511215,-0.807805,-1.673541,0.978876,-0.203812,-0.003925,-0.015733
145,-0.272225,-3.543524,8.994601,4.859616,4.364871,-1.671292,-23.248003,-0.496662,-1.746280,0.979355,-0.201528,-0.001174,-0.015799
147,-0.221393,-3.647693,8.953952,4.730879,3.465792,-1.197742,-22.894512,-0.131099,-1.842175,0.979977,-0.198458,0.002069,-0.015983
148,-0.338115,-3.628303,9.068435,4.327186,2.031025,-1.192687,-22.607973,0.183047,-1.913796,0.980468,-0.195961,0.004840,-0.016063
149,-0.290425,-3.591839,9.144167,3.282630,0.660262,-0.929789,-22.340809,0.437431,-1.962370,0.980917,-0.193634,0.007062,-0.016060
150,0.002637,-3.645086,9.319397,0.986782,-0.633418,-0.680932,-22.136023,0.493793,-1.986079,0.981258,-0.191870,0.007555,-0.016181
151,0.247258,-3.829867,9.405846,-0.155837,-2.581177,-0.852110,-22.062201,0.288256,-1.989221,0.981381,-0.191270,0.005790,-0.016556
152,0.274780,-3.601668,9.427263,-0.332490,-3.168215,-2.401363,-21.999527,-0.054386,-2.003358,0.981476,-0.190784,0.002870,-0.017251
153,0.473946,-3.561336,9.340165,-1.413659,-3.789046,-2.493444,-21.886063,-0.474094,-2.035908,0.981639,-0.189873,-0.000689,-0.018228
154,0.372657,-3.735320,9.250284,-1.453013,-3.958152,-4.076335,-21.869204,-0.904972,-2.089725,0.981623,-0.189792,-0.004294,-0.019401
155,0.018818,-3.499849,9.019783,-1.268201,-3.135930,-5.709178,-21.877766,-1.129944,-2.197526,0.981566,-0.189903,-0.006041,-0.020697
156,-0.234461,-3.462129,8.980757,-3.021035,-1.799779,-4.974830,-21.855665,-1.065214,-2.333813,0.981585,-0.189711,-0.005265,-0.021757
157,-0.373328,-3.572693,9.078632,-3.989631,-1.404413,-2.743261,-21.897831,-0.801512,-2.434803,0.981523,-0.190032,-0.002830,-0.022187
158,-0.385238,-3.647859,9.063409,-1.650280,-0.847144,-1.575194,-21.969536,-0.468678,-2.488397,0.981421,-0.190589,0.000123,-0.022095
159,-0.352606,-3.552351,9.119088,-0.809289,0.311129,0.519025,-21.969261,-0.134217,-2.501925,0.981439,-0.190525,0.003010,-0.021655
160,-0.169150,-3.693891,9.232404,0.649762,0.635680,1.912619,-21.918928,0.123063,-2.470419,0.981538,-0.190047,0.005152,-0.020960
161,-0.064594,-3.637073,9.216093,3.221116,0.691007,3.252540,-21.820120,0.260601,-2.398596,0.981717,-0.189179,0.006194,-0.020121
162,0.044435,-3.563314,9.180061,4.318566,1.933033,3.397473,-21.632256,0.325456,-2.311548,0.982041,-0.187563,0.006574,-0.019279
163,-0.169737,-3.517472,9.079667,4.524898,2.810484,4.224544,-21.417912,0.455223,-2.222102,0.982406,-0.185708,0.007506,-0.018314
164,-0.215432,-3.319172,9.018365,4.394189,3.010815,6.290823,-21.163713,0.703157,-2.092991,0.982832,-0.183496,0.009385,-0.016826
165,-0.183219,-3.245207,8.971902,2.763753,2.068147,10.757353,-20.885414,0.960750,-1.856100,0.983298,-0.181089,0.011180,-0.014409
166,-0.239653,-3.145146,9.040054,1.048017,-0.078580,14.254884,-20.628643,1.194042,-1.474982,0.983729,-0.178892,0.012555,-0.010797
167,-0.269616,-2.975631,9.014171,0.403819,-2.177997,17.390783,-20.339239,1.400172,-0.962486,0.984199,-0.176442,0.013509,-0.006109
168,-0.153350,-2.760778,9.234130,-2.197520,-3.473538,18.562733,-19.975880,1.514965,-0.358449,0.984761,-0.173384,0.013562,-0.000787
169,0.036742,-2.370918,9.211002,-1.761275,-3.532199,15.057511,-19.450739,1.455477,0.222680,0.985543,-0.168936,0.012190,0.004061
170,0.154275,-2.353571,9.223699,-0.268642,-2.755214,9.406659,-18.808559,1.232859,0.657371,0.986477,-0.163448,0.009676,0.007417
171,0.357988,-2.388810,9.016839,1.214347,-1.285959,3.245970,-18.220631,0.872881,0.888851,0.987318,-0.158385,0.006293,0.008865
172,0.389956,-2.384832,9.015602,1.827017,0.576726,-3.816635,-17.710100,0.440322,0.888218,0.988039,-0.153959,0.002603,0.008250
173,0.290364,-2.471408,8.921812,3.836892,0.652907,-5.552125,-17.265137,0.068918,0.734323,0.988650,-0.150098,-0.000367,0.006426
174,0.232439,-3.135035,9.164518,2.482060,-1.162516,-1.867355,-17.121897,-0.205784,0.618232,0.988844,-0.148849,-0.002579,0.005068
175,0.366770,-3.273127,9.272717,1.952860,-1.830353,-0.952110,-17.293821,-0.478266,0.588881,0.988615,-0.150320,-0.004899,0.004453
176,0.158819,-3.445654,9.589160,1.411187,-2.301041,0.634644,-17.537155,-0.692137,0.606959,0.988285,-0.152407,-0.006777,0.004314
177,0.299037,-3.916174,9.945512,1.528202,-2.512021,4.621783,-17.890892,-0.824849,0.719585,0.987799,-0.155442,-0.008087,0.005084
178,0.561835,-4.116836,9.940145,2.244242,-0.816119,1.649020,-18.364101,-1.037459,0.844478,0.987130,-0.159495,-0.010113,0.005830
179,0.399695,-4.155776,9.839204,2.236815,0.923974,-3.034318,-18.859257,-1.247619,0.833167,0.986416,-0.163744,-0.011931,0.005388
180,0.048234,-4.297346,9.810142,1.780704,1.520555,-4.317575,-19.371996,-1.256693,0.716442,0.985678,-0.168167,-0.011862,0.004318
181,0.079311,-4.290539,9.630539,1.799121,1.928490,-5.048248,-19.898232,-1.141935,0.562180,0.984909,-0.172715,-0.010663,0.003110
182,-0.070395,-4.169508,9.149146,1.217910,1.553787,-7.498578,-20.421011,-1.011832,0.356767,0.984125,-0.177230,-0.009242,0.001499
183,-0.277424,-4.205760,8.853255,0.822755,0.714204,-6.423824,-20.981977,-0.797858,0.135448,0.983261,-0.182068,-0.007061,-0.000106
184,-0.284613,-4.111178,8.783495,-0.123103,0.160244,-5.037678,-21.535488,-0.534526,-0.041833,0.982382,-0.186828,-0.004514,-0.001230
185,-0.246164,-3.982655,8.699059,-1.046998,-0.685349,-3.740109,-22.001291,-0.316699,-0.171714,0.981619,-0.190823,-0.002427,-0.001998
186,-0.158652,-4.033353,8.783913,-1.831585,-1.343605,-2.137497,-22.406569,-0.181049,-0.248690,0.980940,-0.194293,-0.001128,-0.002436
187,-0.167156,-3.948955,8.928886,-2.427981,-2.005160,-0.361029,-22.734516,-0.097463,-0.265578,0.980381,-0.197098,-0.000377,-0.002440
188,-0.125802,-3.939022,9.175077,-5.124902,-2.755345,-0.461501,-22.982395,-0.052124,-0.247716,0.979953,-0.199218,-0.000015,-0.002209
189,0.095317,-3.950657,8.866051,-4.461603,-2.559937,-1.547924,-23.238123,-0.127455,-0.243934,0.979505,-0.201406,-0.000661,-0.002309
190,0.143579,-4.062462,9.058665,-6.273487,-2.122345,-1.834944,-23.538914,-0.297165,-0.264266,0.978969,-0.203979,-0.002068,-0.002787
191,0.095004,-4.068400,9.057919,-4.511532,-0.906456,-3.028335,-23.816111,-0.435443,-0.317507,0.978467,-0.206350,-0.003146,-0.003495
192,0.137598,-4.083735,9.062101,-2.551058,0.584198,-5.611802,-24.000902,-0.536712,-0.446404,0.978124,-0.207933,-0.003771,-0.004784
193,0.101265,-4.017664,9.107321,0.840996,1.716319,-5.480623,-24.042948,-0.602123,-0.630728,0.978035,-0.208301,-0.003993,-0.006478
194,-0.042923,-4.068365,9.344622,3.963263,1.797421,-3.475456,-23.916754,-0.559374,-0.791338,0.978256,-0.207227,-0.003345,-0.007767
195,-0.100021,-3.931197,9.175165,9.087708,1.993307,-2.085092,-23.620878,-0.415294,-0.901990,0.978787,-0.204695,-0.001936,-0.008446
196,-0.139625,-3.803048,9.134865,9.518562,1.565197,-1.193659,-23.201574,-0.235200,-0.975676,0.979531,-0.201101,-0.000298,-0.008753
197,-0.182924,-3.770047,9.146052,10.601011,0.969284,2.122488,-22.752680,-0.032860,-0.977392,0.980317,-0.197248,0.001401,-0.008418
198,-0.209740,-3.518711,9.061351,11.587487,0.648051,3.796739,-22.237219,0.190088,-0.895493,0.981201,-0.192822,0.003135,-0.007348
199,-0.144251,-3.356349,9.168444,9.839921,0.431925,5.866127,-21.650661,0.387321,-0.751075,0.982182,-0.187789,0.004551,-0.005803
200,-0.077172,-3.343200,9.218554,8.676842,0.226131,7.381461,-21.100082,0.523081,-0.547583,0.983078,-0.183069,0.005362,-0.003862
201,0.011293,-3.301697,9.253802,7.481662,0.132835,8.448010,-20.599192,0.577574,-0.301431,0.983873,-0.178779,0.005429,-0.001687
202,0.034753,-3.142303,9.215416,4.806537,0.216223,8.647716,-20.122282,0.567978,-0.034522,0.984610,-0.174695,0.004933,0.000569
203,0.112166,-3.398993,9.159698,1.340273,0.288681,8.880898,-19.889496,0.508566,0.237559,0.984961,-0.172705,0.004013,0.002808
204,0.054117,-3.366620,9.120732,-0.524661,0.402322,6.843493,-19.924534,0.437808,0.479319,0.984903,-0.173013,0.003039,0.004781
205,0.007291,-3.339562,9.056194,-2.797017,0.548346,5.221262,-20.029215,0.422425,0.662614,0.984737,-0.173916,0.002625,0.006335
206,0.015403,-3.460585,9.035657,-4.581213,0.242870,4.159110,-20.228899,0.426475,0.804470,0.984423,-0.175635,0.002431,0.007565
207,0.012626,-3.617881,9.118517,-4.877974,0.263938,2.587293,-20.532024,0.410249,0.906115,0.983949,-0.178240,0.002113,0.008419
208,0.010818,-3.637269,9.164321,-3.941845,0.007299,0.714871,-20.836687,0.373142,0.955169,0.983469,-0.180853,0.001695,0.008787
209,-0.016291,-3.759951,9.169538,-4.025050,-0.116519,-0.345735,-21.130367,0.326679,0.960726,0.983004,-0.183370,0.001265,0.008764
210,-0.013078,-3.843051,9.075557,-4.608979,-0.403545,-0.936333,-21.479279,0.277773,0.942925,0.982444,-0.186359,0.000848,0.008536
211,-0.058846,-3.825491,9.133009,-5.667403,-0.634012,-1.481114,-21.842396,0.235102,0.910966,0.981853,-0.189468,0.000508,0.008194
212,-0.056739,-3.755436,9.159996,-5.857148,-0.832337,-1.534506,-22.140743,0.203385,0.872987,0.981360,-0.192022,0.000279,0.007817
213,-0.066905,-3.644902,9.234868,-5.458834,-0.577427,-1.275067,-22.319969,0.181176,0.838483,0.981061,-0.193555,0.000135,0.007485
214,-0.026841,-3.652246,9.206329,-4.988449,-0.418686,-0.631106,-22.413958,0.163546,0.815647,0.980904,-0.194359,0.000017,0.007259
215,0.049015,-3.533354,9.259124,-4.529982,0.328881,-1.835115,-22.434706,0.116934,0.778634,0.980872,-0.194534,-0.000321,0.006864
216,0.123830,-3.525704,9.165147,-3.792046,1.779663,-3.536673,-22.391041,0.034911,0.682884,0.980953,-0.194156,-0.000858,0.005905
217,0.136519,-3.650122,9.095294,-4.810765,2.908364,-5.377137,-22.414532,-0.053995,0.515935,0.980921,-0.194355,-0.001337,0.004325
218,0.134008,-3.590649,9.034979,-6.388176,3.826519,-7.951560,-22.521723,-0.133252,0.267873,0.980746,-0.195273,-0.001597,0.002066
219,0.040380,-3.518329,9.065045,-7.287833,4.813550,-9.794980,-22.620684,-0.166326,-0.060614,0.980578,-0.196124,-0.001320,-0.000803
220,-0.056564,-3.535491,9.207929,-9.479672,4.812138,-10.022299,-22.716484,-0.121158,-0.427690,0.980407,-0.196945,-0.000302,-0.003867
221,-0.052202,-3.504221,9.224323,-10.621489,3.794611,-10.681390,-22.830296,-0.065052,-0.802017,0.980194,-0.197916,0.000829,-0.006973
222,-0.117918,-3.297221,9.248315,-9.638717,3.257825,-11.326715,-22.847563,-0.025523,-1.186235,0.980136,-0.198056,0.001832,-0.010191
223,-0.165434,-3.438541,9.257181,-10.572335,2.765452,-11.303616,-22.829727,0.029401,-1.573073,0.980128,-0.197890,0.002968,-0.013405
224,-0.063908,-3.322360,9.115233,-11.045251,2.245496,-12.623382,-22.860779,0.034765,-1.972992,0.980022,-0.198143,0.003709,-0.016815
225,-0.025232,-3.421142,8.876367,-13.741653,2.729347,-13.331354,-22.987236,-0.028258,-2.403590,0.979730,-0.199220,0.003938,-0.020602
226,-0.143984,-3.490059,8.797492,-18.869310,2.978366,-11.504697,-23.334801,-0.040236,-2.821728,0.979039,-0.202177,0.004635,-0.024184
227,-0.162180,-3.740715,8.936927,-25.817762,2.676779,-7.932271,-23.956526,0.034610,-3.157218,0.977857,-0.207454,0.006013,-0.026886
228,-0.108933,-4.234150,8.876986,-30.871910,1.429030,-2.940771,-24.959202,0.121411,-3.352105,0.975961,-0.215969,0.007354,-0.028329
229,-0.201189,-4.417499,9.109273,-29.751123,0.346083,2.329985,-26.122999,0.244182,-3.376016,0.973717,-0.225837,0.008732,-0.028213
230,-0.285313,-4.437881,9.272882,-21.151123,-2.073369,8.777339,-26.993006,0.448373,-3.199671,0.972023,-0.233187,0.010319,-0.026235
231,-0.318506,-4.603288,9.293271,-8.397066,-3.969353,14.570125,-27.407267,0.702035,-2.808618,0.971260,-0.236678,0.011756,-0.022358
232,-0.131223,-4.760735,8.894197,3.260969,-5.859597,18.105885,-27.492022,0.891763,-2.250425,0.971178,-0.237417,0.012224,-0.017226
233,-0.154319,-4.415522,8.928159,11.685736,-7.185616,20.805256,-27.205414,0.998741,-1.573813,0.971850,-0.235041,0.011700,-0.011298
234,-0.060323,-4.491952,8.756519,14.553332,-7.721400,23.972988,-26.677511,1.073949,-0.794730,0.972972,-0.230629,0.010719,-0.004586
235,0.147751,-4.494298,8.632809,12.355757,-6.240447,23.177610,-26.262671,1.054194,0.010706,0.973811,-0.227175,0.008938,0.002181
236,0.190394,-4.541152,8.639597,6.292541,-3.787904,22.238583,-26.081791,0.981223,0.760017,0.974139,-0.225689,0.006845,0.008393
237,0.002310,-4.318548,9.021634,3.394509,-1.487693,19.451801,-25.968952,1.009705,1.421315,0.974294,-0.224768,0.005799,0.014065
238,-0.033213,-4.187316,9.012008,6.977865,0.318489,15.581812,-25.688993,1.133038,1.956704,0.974750,-0.222427,0.005843,0.018844
239,0.039039,-4.323539,8.989174,12.207541,2.762408,9.969170,-25.296078,1.226411,2.319535,0.975430,-0.219115,0.006009,0.022091
240,-0.055560,-4.210020,9.089621,11.968109,3.935204,2.555921,-24.862177,1.274184,2.460870,0.976219,-0.215435,0.006234,0.023362
241,-0.096254,-3.929651,9.118835,15.691990,5.364529,-5.075435,-24.278902,1.295753,2.360022,0.977320,-0.210461,0.006722,0.022509
242,-0.093540,-3.890871,8.895142,12.491286,5.704389,-11.670661,-23.678871,1.259225,2.032165,0.978473,-0.205316,0.007115,0.019609
243,-0.266291,-4.058564,8.970845,11.246130,7.843607,-14.930096,-23.294786,1.260840,1.535010,0.979232,-0.202002,0.008071,0.015340
244,-0.316574,-3.844144,9.049206,13.211400,6.795548,-19.251411,-22.925343,1.315903,0.914772,0.979940,-0.198800,0.009667,0.010105
245,-0.083320,-3.821852,8.985663,19.962145,2.664798,-23.757496,-22.377892,1.170273,0.192843,0.980937,-0.194052,0.009692,0.003632
246,-0.407970,-3.635882,9.125027,27.373732,1.367871,-21.547909,-21.568514,0.974066,-0.531873,0.982300,-0.187064,0.009218,-0.002969
247,-0.280907,-3.524469,9.115624,36.421280,0.512369,-16.374796,-20.447861,0.894923,-1.130202,0.984057,-0.177406,0.009436,-0.008320
248,0.122878,-3.464459,9.239577,34.582642,-1.862247,-14.905425,-19.250772,0.639035,-1.612277,0.985822,-0.167109,0.007850,-0.012939
250,-0.155710,-3.478811,9.382051,30.469898,-1.058480,-9.924957,-18.244617,0.375326,-1.991205,0.987207,-0.158462,0.005988,-0.016637
251,-0.465296,-3.337967,9.433104,28.419851,2.132986,-1.684719,-17.410677,0.491966,-2.181248,0.988304,-0.151243,0.007124,-0.018165
252,-0.324897,-3.357108,9.356646,21.947289,0.586790,2.009892,-16.794434,0.766426,-2.188659,0.989096,-0.145879,0.009404,-0.017917
253,-0.307439,-3.214751,9.412785,20.461193,-0.616449,4.884941,-16.360180,0.947957,-2.079886,0.989650,-0.142108,0.010769,-0.016787
254,-0.449783,-3.071382,9.400348,20.582081,-0.736194,7.312907,-15.909535,1.149210,-1.880637,0.990217,-0.138203,0.012202,-0.014865
255,-0.218291,-2.766578,9.434084,18.182652,-2.609494,9.034296,-15.392945,1.280284,-1.604284,0.990853,-0.133749,0.012945,-0.012376
256,-0.127932,-2.512979,9.488032,17.924807,-4.085189,10.586129,-14.776019,1.232017,-1.258984,0.991596,-0.128456,0.012074,-0.009512
257,0.188527,-2.542282,9.475526,16.749943,-3.678633,6.615444,-14.172469,0.999279,-0.949712,0.992299,-0.123282,0.009676,-0.007148
258,0.040660,-2.750224,9.535507,14.168929,-1.796716,1.866472,-13.789956,0.721981,-0.794780,0.992730,-0.120001,0.007087,-0.006129
259,-0.077849,-2.531273,9.328956,14.334222,-0.793106,0.033706,-13.521156,0.594143,-0.757686,0.993016,-0.117683,0.005927,-0.005956
260,-0.227643,-2.439475,9.284330,12.387857,0.139389,-1.391480,-13.237946,0.609780,-0.779154,0.993302,-0.115226,0.006069,-0.006141
261,-0.459554,-2.556304,9.355950,7.508461,0.753687,-1.652218,-13.109585,0.791891,-0.833735,0.993419,-0.114098,0.007696,-0.006439
262,-0.625797,-2.584728,9.340226,4.166837,-0.724934,3.739217,-13.189138,1.113051,-0.803440,0.993320,-0.114767,0.010454,-0.005849
263,-0.450583,-2.422387,9.376286,-0.167931,-2.739322,8.331024,-13.346146,1.381312,-0.598669,0.993147,-0.116131,0.012579,-0.003788
264,-0.434685,-2.357095,9.484512,-3.545398,-3.538079,10.296598,-13.519055,1.521381,-0.275388,0.992962,-0.117660,0.013467,-0.000824
265,-0.347941,-2.526437,9.547094,-7.035787,-4.150992,11.197000,-13.804771,1.585333,0.099514,0.992656,-0.120179,0.013630,0.002525
266,-0.175034,-2.682754,9.470462,-8.289607,-4.202887,11.973662,-14.256274,1.539692,0.502198,0.992165,-0.124135,0.012788,0.006015
267,0.040101,-2.605073,9.557331,-7.738160,-2.610523,9.254261,-14.701692,1.372205,0.868846,0.991670,-0.128022,0.010906,0.009051
268,-0.030816,-2.516746,9.567407,-8.510598,-1.482233,6.365445,-15.030787,1.187741,1.137521,0.991294,-0.130881,0.008977,0.011196
269,-0.028058,-2.588241,9.605100,-9.764935,-0.866429,5.060600,-15.336952,1.061131,1.332298,0.990933,-0.133533,0.007625,0.012757
270,0.031597,-2.462258,9.515512,-9.615152,0.118632,3.017205,-15.608921,0.943144,1.466998,0.990608,-0.135881,0.006415,0.013800
271,0.061973,-2.401827,9.553760,-11.338719,1.019684,1.314071,-15.811778,0.821709,1.534472,0.990368,-0.137626,0.005260,0.014249
272,-0.125178,-2.467378,9.578955,-14.192832,1.931763,-0.210432,-16.058231,0.786622,1.541892,0.990071,-0.139752,0.004917,0.014282
273,-0.184609,-2.504120,9.579890,-14.230113,2.610851,-1.113752,-16.359045,0.864787,1.502090,0.989700,-0.142357,0.005604,0.014048
274,-0.236314,-2.438791,9.593742,-14.384663,3.154312,-2.049061,-16.618189,0.991062,1.427286,0.989374,-0.144603,0.006757,0.013574
275,-0.230326,-2.515079,9.585594,-14.603144,2.861581,-1.742255,-16.852266,1.121698,1.341727,0.989074,-0.146631,0.007967,0.013016
276,-0.350200,-2.596993,9.616748,-14.652357,2.527766,-1.356065,-17.113010,1.269597,1.270004,0.988730,-0.148888,0.009306,0.012607
277,-0.245117,-2.565445,9.596890,-14.204046,1.659818,-0.670806,-17.352371,1.391069,1.221786,0.988408,-0.150958,0.010391,0.012370
278,-0.234730,-2.634004,9.583502,-14.494208,0.866360,0.708669,-17.572845,1.438151,1.215640,0.988111,-0.152863,0.010782,0.012400
279,-0.159540,-2.594160,9.532836,-14.190721,-0.066155,1.886663,-17.779165,1.429672,1.259562,0.987830,-0.154645,0.010627,0.012786
280,-0.111763,-2.860758,9.540230,-14.195752,-0.768474,3.105779,-18.035446,1.360878,1.348682,0.987480,-0.156856,0.009883,0.013484
281,-0.044279,-2.805842,9.536506,-12.612515,-0.843814,3.139188,-18.309299,1.249614,1.460612,0.987101,-0.159215,0.008737,0.014318
282,-0.080442,-2.798456,9.526313,-11.955248,-0.900842,3.459472,-18.492701,1.138622,1.579711,0.986842,-0.160792,0.007591,0.015202
283,-0.051294,-2.859983,9.518670,-11.075158,-0.786888,3.392195,-18.642551,1.046626,1.702072,0.986624,-0.162079,0.006606,0.016135
284,-0.048282,-3.029793,9.492128,-10.065675,-0.534066,2.806094,-18.823729,0.958266,1.810554,0.986359,-0.163634,0.005665,0.016954
285,-0.127780,-2.816532,9.432709,-8.315984,-0.146778,2.593908,-18.932497,0.915262,1.902995,0.986193,-0.164569,0.005146,0.017693
286,-0.110680,-2.921490,9.404705,-8.133189,-0.162187,2.526737,-18.963234,0.907765,1.989400,0.986136,-0.164837,0.004953,0.018427
287,-0.056424,-3.010135,9.394810,-7.192321,0.049660,1.548546,-19.038088,0.874943,2.057142,0.986020,-0.165479,0.004560,0.018966
288,-0.082517,-3.014523,9.370849,-6.524741,0.124140,0.872473,-19.115963,0.829986,2.096753,0.985905,-0.166144,0.004103,0.019245
289,-0.139685,-3.065430,9.421144,-6.495029,0.027879,0.590145,-19.189034,0.814349,2.121142,0.985796,-0.166771,0.003921,0.019434
290,-0.070659,-3.110805,9.451302,-6.549318,-0.088221,-0.679460,-19.277529,0.786075,2.121948,0.985669,-0.167528,0.003662,0.019403
291,-0.117206,-3.128951,9.463513,-5.892561,-0.002925,-1.271566,-19.363268,0.741418,2.093518,0.985552,-0.168258,0.003305,0.019096
292,-0.175319,-3.172720,9.454488,-5.321304,-0.211934,-1.196773,-19.438505,0.733980,2.057409,0.985448,-0.168903,0.003281,0.018776
293,-0.197598,-3.080105,9.411330,-4.145677,-0.642049,-1.009006,-19.463633,0.750515,2.029168,0.985415,-0.169121,0.003461,0.018559
294,-0.072335,-3.178575,9.433956,-3.458335,-0.912118,-0.934219,-19.455671,0.720011,2.008996,0.985432,-0.169047,0.003230,0.018340
295,-0.091745,-3.069483,9.460102,-1.686010,-1.095387,-1.457657,-19.396564,0.642360,1.984363,0.985529,-0.168528,0.002608,0.018012
296,-0.078905,-3.002728,9.400531,0.898370,-1.406791,-0.290353,-19.212288,0.569920,1.972919,0.985806,-0.166932,0.002030,0.017804
297,-0.092576,-2.981949,9.379990,3.980231,-1.800546,0.818983,-18.927099,0.508863,2.000782,0.986218,-0.164470,0.001509,0.017951
298,-0.019334,-3.172258,9.460570,5.680726,-1.530586,0.727390,-18.642832,0.437822,2.044158,0.986620,-0.162013,0.000880,0.018221
299,-0.084503,-2.963665,9.443959,8.694932,-1.295697,0.524411,-18.302366,0.378106,2.079521,0.987095,-0.159072,0.000371,0.018440
300,-0.113659,-2.931961,9.362741,11.153865,-0.673022,1.511722,-17.837879,0.378478,2.122953,0.987724,-0.155070,0.000390,0.018813
301,-0.032297,-3.059797,9.451035,8.071749,-0.676047,0.443586,-17.466417,0.372792,2.161264,0.988216,-0.151867,0.000351,0.019135
302,-0.105609,-2.997915,9.649715,7.488879,-0.447148,-0.542159,-17.200418,0.356537,2.165303,0.988566,-0.149570,0.000250,0.019147
303,-0.153852,-2.867215,9.530563,9.762715,-1.066447,1.086074,-16.871262,0.382248,2.181794,0.988987,-0.146734,0.000506,0.019322
304,-0.182856,-2.850141,9.538553,9.863643,-1.812267,2.265725,-16.500448,0.427308,2.249772,0.989443,-0.143540,0.000873,0.019963
305,-0.105014,-2.959417,9.560103,10.600519,-2.571926,2.673222,-16.187695,0.433139,2.349506,0.989813,-0.140841,0.000855,0.020830
306,-0.161544,-2.961613,9.550165,14.425469,-2.455754,3.315692,-15.878559,0.421862,2.467993,0.990168,-0.138169,0.000671,0.021837
307,-0.034142,-2.917118,9.404758,15.471508,-2.235939,3.457621,-15.529046,0.393978,2.596901,0.990561,-0.135144,0.000344,0.022917
308,0.036278,-3.095823,9.623357,15.333031,-1.497636,1.859900,-15.243612,0.306111,2.697097,0.990879,-0.132659,-0.000474,0.023681
309,0.106568,-3.085776,9.738122,16.428720,-0.951805,-0.984558,-15.004234,0.176585,2.719726,0.991155,-0.130562,-0.001571,0.023730
310,-0.001271,-3.213069,10.007833,13.639252,-1.174912,-2.248118,-14.823969,0.061363,2.675140,0.991372,-0.128980,-0.002480,0.023217
311,0.008225,-2.522635,10.446471,9.309718,-0.396773,-4.308142,-14.538192,-0.008862,2.575553,0.991713,-0.126496,-0.002920,0.022284
312,-0.291459,-2.476911,11.868157,-7.860272,1.678874,-1.083761,-14.264371,0.069558,2.483349,0.992028,-0.124143,-0.002088,0.021577
313,-0.935399,-4.072597,12.746128,-25.010363,7.860480,10.542675,-14.855193,0.595037,2.594147,0.991326,-0.129355,0.002222,0.023117
314,-0.653574,-4.835466,14.315695,-30.371677,4.885160,9.061441,-16.227224,1.249996,2.841662,0.989589,-0.141352,0.007296,0.026085
315,-0.488518,-5.919493,14.408462,-16.090584,5.145317,10.715692,-17.613489,1.657892,3.091537,0.987688,-0.153416,0.010162,0.028869
316,-0.409240,-6.671234,13.642727,12.198592,5.913030,6.578835,-18.578476,1.950455,3.283491,0.986259,-0.161810,0.012166,0.031016
317,-0.292112,-6.940639,12.001346,42.585789,6.579683,2.322762,-18.900692,2.144912,3.318139,0.985753,-0.164630,0.013702,0.031626
318,0.081606,-5.227456,11.612860,74.617378,6.774113,-7.747316,-17.998260,2.127243,3.124011,0.987074,-0.156834,0.014064,0.029821
319,-0.276483,-5.089493,10.281117,88.271675,11.732465,-5.912102,-16.147995,2.154579,2.778803,0.989557,-0.140837,0.015204,0.026643
320,-0.439873,-4.163973,9.964617,95.525879,10.430744,-6.727164,-14.024672,2.424484,2.440900,0.992018,-0.122475,0.018393,0.023717
321,-0.556392,-2.448856,9.459743,102.571945,6.765804,-5.382824,-11.173944,2.725413,2.166775,0.994747,-0.097759,0.021824,0.021127
322,-0.509889,-1.591347,9.365801,92.940620,3.953881,-5.092799,-7.862749,2.947376,1.973880,0.997139,-0.068971,0.024473,0.018941
323,-0.454290,-0.580560,8.384768,77.918053,-2.988938,-5.408553,-4.687506,2.974792,1.818347,0.998684,-0.041287,0.025283,0.016910
324,-0.445755,0.658183,7.495378,61.164566,-4.812251,-6.023265,-1.534045,2.871002,1.682187,0.999484,-0.013749,0.024850,0.015009
325,-0.361331,2.359983,6.865003,34.482346,-2.034895,-5.955642,1.905113,2.791764,1.578910,0.999476,0.016282,0.024584,0.013367
326,-0.811883,1.927043,7.219707,-9.853828,2.087764,-0.487777,4.366737,3.020333,1.578420,0.998846,0.037718,0.026857,0.012755
327,-1.045146,2.510030,7.178566,-27.942738,2.059883,1.140668,5.456577,3.609892,1.692698,0.998284,0.047106,0.032161,0.013248
328,-0.304326,1.937278,6.756522,-43.445946,0.664893,2.808865,5.842060,3.886924,1.858025,0.998023,0.050374,0.034691,0.014455
329,-0.241356,1.982066,6.376050,-44.881142,0.999768,5.211203,5.745206,3.725644,2.083306,0.998080,0.049490,0.033371,0.016518
330,-0.603577,0.705480,5.336255,-43.680729,0.818501,3.635168,5.100646,3.800572,2.288465,0.998290,0.043802,0.034009,0.018463
331,0.105584,-0.199283,4.566279,-32.614998,-1.198008,-0.645115,3.469434,3.640342,2.314415,0.998853,0.029609,0.032353,0.019215
332,0.154736,-0.929969,3.679688,-17.777046,-1.564603,-3.602608,1.066194,2.915778,2.161326,0.999460,0.008820,0.025612,0.018616
333,-0.198619,-0.767336,3.061348,-5.887954,-0.241686,-7.610165,-1.355487,2.568647,1.880534,0.999540,-0.012192,0.022215,0.016670
334,-0.323077,-1.299234,2.489028,4.939711,-2.585454,-8.504919,-3.890735,2.820760,1.491340,0.999025,-0.034254,0.024155,0.013838
335,-0.009926,-1.096099,2.742712,12.867285,-5.357482,-6.981164,-6.279881,2.769733,1.108796,0.998148,-0.054990,0.023601,0.010982
336,-0.087550,-0.712337,2.796563,16.500156,-7.522301,-5.913492,-7.397958,2.310045,0.846345,0.997677,-0.064648,0.019639,0.008669
337,0.051394,-0.932590,3.230755,16.211138,-8.759563,0.179138,-7.895969,1.768112,0.743064,0.997480,-0.068941,0.014946,0.007531
338,-0.005440,-1.159752,4.168485,20.875380,-11.193364,-0.190516,-8.295155,1.135984,0.755741,0.997306,-0.072386,0.009410,0.007294
339,-0.097179,-0.690001,5.797809,16.208714,-9.602391,0.901902,-8.058659,0.678140,0.804124,0.997483,-0.070306,0.005410,0.007416
340,0.381312,-0.168268,8.408246,8.143770,-6.403598,-2.955753,-7.127977,0.193502,0.809498,0.998039,-0.062173,0.001246,0.007155
341,-0.032599,0.350344,10.624844,-4.910141,-4.466692,-6.372410,-6.082619,-0.209843,0.677887,0.998573,-0.053044,-0.002142,0.005810
342,-0.412964,0.585244,12.684373,-15.410617,-0.782470,-10.277185,-5.316570,-0.196398,0.410325,0.998916,-0.046373,-0.001878,0.003497
343,-0.233435,0.592149,14.643247,-30.635788,0.980963,-13.194672,-5.065041,-0.030395,0.018359,0.999023,-0.044186,-0.000272,0.000148
344,-0.494078,0.254520,15.907111,-36.097412,2.698537,-14.351252,-5.329188,0.170730,-0.446536,0.998910,-0.046483,0.001669,-0.003823
345,-1.038930,0.037342,15.862666,-34.755608,-0.275343,-8.749420,-5.799237,0.509692,-0.834812,0.998685,-0.050552,0.004811,-0.007051
347,-0.921695,-1.423029,15.957852,-28.860559,-0.804388,-0.530588,-6.477468,0.872317,-0.989319,0.998340,-0.056427,0.008088,-0.008189
348,-0.161475,-1.726397,16.017179,-25.346035,-3.148963,-3.490803,-7.317797,0.953516,-1.050879,0.997890,-0.063735,0.008889,-0.008621
349,-0.718963,-1.936633,15.849817,-25.966875,-1.648569,-0.872257,-8.131618,0.947562,-1.112690,0.997408,-0.070816,0.008936,-0.009099
350,-0.099236,-2.735904,15.622885,-33.349754,-3.177223,-0.319841,-9.210974,0.929620,-1.123216,0.996697,-0.080209,0.008873,-0.009118
351,0.039041,-4.043590,15.235726,-41.126671,-2.983936,-3.747186,-10.918003,0.713027,-1.178097,0.995399,-0.095063,0.007172,-0.009642
352,0.193005,-3.855731,14.591225,-34.110390,-0.572213,-10.496536,-12.768955,0.449585,-1.402368,0.993721,-0.111143,0.005260,-0.011725
353,-0.206334,-4.564129,13.335178,-26.901989,0.541395,-8.842521,-14.412196,0.308702,-1.717966,0.991991,-0.125384,0.004553,-0.014535
354,0.000199,-4.977230,12.718940,-12.998785,3.381175,-5.418366,-15.894359,0.314646,-1.969511,0.990252,-0.138192,0.005095,-0.016642
355,-0.208968,-4.597208,12.019924,14.728117,4.362443,-4.685914,-16.614889,0.410590,-2.170855,0.989333,-0.144391,0.006282,-0.018227
356,-0.450743,-3.783705,11.371483,47.377735,7.469938,-0.469586,-16.007263,0.723704,-2.310453,0.990056,-0.139079,0.009060,-0.019085
357,-0.382318,-3.167500,10.804444,59.346432,6.512547,4.016891,-14.361353,1.149863,-2.311019,0.991930,-0.124766,0.012474,-0.018753
358,0.037741,-2.046206,10.477346,68.148895,7.428055,3.778866,-12.049487,1.397920,-2.230932,0.994239,-0.104694,0.014172,-0.018078
359,-0.244689,-0.528293,9.326319,75.101738,6.443441,3.186795,-8.906896,1.568527,-2.144979,0.996733,-0.077373,0.015097,-0.017596
360,-0.398849,0.409464,8.733043,59.662655,8.136033,4.589344,-5.393603,1.898226,-2.011702,0.998615,-0.046747,0.017369,-0.016753
361,-0.213448,1.168390,8.032469,36.955551,7.118438,3.930422,-2.216041,2.204838,-1.835461,0.999506,-0.019023,0.019543,-0.015639
362,-0.563543,1.971496,7.459449,12.125988,8.966853,6.927696,0.500381,2.580381,-1.587844,0.999640,0.004677,0.022453,-0.013951
363,-0.806678,2.651863,7.272095,-16.879839,6.607985,9.618386,2.673887,3.177941,-1.200717,0.999282,0.023612,0.027476,-0.011118
364,-0.781682,1.943083,7.724640,-44.594898,5.509681,10.979930,3.572324,3.734102,-0.743521,0.998956,0.031363,0.032362,-0.007497
365,-0.018459,1.536108,7.230675,-51.484406,2.367490,12.190388,3.230970,3.777501,-0.275236,0.999054,0.028256,0.032878,-0.003329
366,-0.116823,0.957447,6.622788,-55.430855,2.798901,12.759949,2.312805,3.450268,0.203608,0.999343,0.020119,0.030134,0.001168
367,-0.363808,0.358837,5.862707,-47.945789,0.989855,11.667559,1.001317,3.336228,0.643374,0.999524,0.008571,0.029157,0.005358
368,0.119464,-0.971522,4.926826,-30.997675,-1.717027,11.229445,-0.972874,3.041256,0.991666,0.999572,-0.008716,0.026461,0.008876
369,0.350600,-1.479636,3.559201,-9.530597,-2.595324,8.158698,-3.700365,2.192163,1.230520,0.999232,-0.032484,0.018771,0.011348
370,-0.323677,-1.693920,2.536211,5.450737,-0.182484,1.378365,-6.856923,1.916189,1.283730,0.997997,-0.059977,0.016020,0.012181
371,-0.207276,-1.558829,1.853915,11.560184,-3.882003,-1.728878,-10.309629,2.307008,1.137589,0.995687,-0.090024,0.019157,0.011694
372,0.276475,-1.649049,1.454159,15.613645,-6.897315,-0.819038,-14.010624,1.760423,0.977506,0.992366,-0.122073,0.014207,0.010339
373,-0.378288,-1.499504,1.884656,17.730083,-5.660191,-0.784544,-17.118446,1.441415,0.900984,0.988739,-0.148913,0.011268,0.009646
374,-0.395516,-1.614409,2.586658,18.838234,-8.527891,2.741119,-18.883984,2.053219,0.912723,0.986239,-0.164158,0.016367,0.010795
375,0.283054,-1.344780,4.536983,12.420959,-11.008850,0.351434,-19.120892,1.792866,1.039084,0.985926,-0.166201,0.013921,0.011539
376,-0.414386,-0.903479,6.944072,4.640053,-8.946979,2.318098,-17.959389,1.251208,1.212162,0.987612,-0.156180,0.009133,0.012152
377,-0.485481,-0.625591,10.095802,-6.057764,-3.735073,-4.476333,-16.366089,1.235397,1.283583,0.989682,-0.142438,0.009076,0.012621
378,-0.484053,-1.396323,12.518880,-30.373457,-1.614859,-4.974919,-15.463956,1.262142,1.192953,0.990779,-0.134637,0.009513,0.011797
379,-0.568508,-0.998397,14.700284,-28.642467,-1.066504,-6.744684,-15.111439,1.289167,1.046772,0.991200,-0.131578,0.009951,0.010534
380,-0.712038,-0.607541,15.308439,-20.813005,-1.554128,-3.405601,-14.425715,1.352097,0.929274,0.991973,-0.125638,0.010687,0.009526
381,-0.342983,-1.263672,15.877362,-22.092319,-1.413391,-5.218137,-13.734576,1.350602,0.835745,0.992720,-0.119644,0.010829,0.008650
382,0.041721,-2.344446,15.494748,-17.769281,-3.910316,-2.115944,-13.466576,1.135456,0.759814,0.993024,-0.117305,0.009063,0.007746
383,-0.007578,-1.682962,14.951015,4.049143,-4.849567,-2.482278,-12.936392,0.813481,0.733946,0.993584,-0.112692,0.006332,0.007164
384,0.362275,-2.145209,14.721896,-8.067636,-1.991003,-4.452418,-12.275273,0.470482,0.656330,0.994241,-0.106938,0.003470,0.006134
385,0.135484,-2.965667,15.102651,-27.101742,0.574629,-5.627577,-12.499640,0.212366,0.501431,0.994045,-0.108871,0.001366,0.004552
386,-0.037175,-3.887296,15.716832,-38.292950,5.655637,-5.391128,-13.604546,0.205772,0.300958,0.992955,-0.118447,0.001472,0.002821
387,-0.233457,-4.708931,16.213947,-38.520027,6.852118,-3.828547,-15.134570,0.400941,0.099861,0.991284,-0.131693,0.003354,0.001325
388,-0.255912,-5.431269,15.893603,-22.130516,9.426678,-4.420535,-16.542072,0.690328,-0.110030,0.989581,-0.143848,0.006100,-0.000084
389,-0.470936,-5.256564,14.751390,3.443396,9.913904,-4.078617,-17.281788,1.051843,-0.344152,0.988608,-0.150207,0.009526,-0.001590
390,-0.928144,-5.455819,13.330910,23.027664,8.857548,1.515725,-17.345531,1.567676,-0.486154,0.988473,-0.150718,0.014163,-0.002131
391,-0.610043,-4.850554,11.411088,45.075497,6.789577,5.280471,-16.874170,2.093798,-0.468676,0.989015,-0.146624,0.018673,-0.001364
392,-0.528516,-3.609791,10.426614,50.691490,4.377680,7.647288,-15.765302,2.452409,-0.326099,0.990329,-0.137052,0.021588,0.000117
393,-0.547093,-3.601175,10.613999,36.138641,4.645034,14.362910,-14.628710,2.756117,-0.022044,0.991576,-0.127272,0.023878,0.002871
394,-0.501171,-3.490507,10.484914,37.532753,2.907087,17.780907,-13.798718,3.022827,0.447710,0.992393,-0.120185,0.025716,0.007046
395,-0.636086,-2.505825,10.044554,54.714958,1.066940,19.392252,-12.478796,3.249931,1.024987,0.993609,-0.108887,0.027216,0.011970
396,-0.297948,-1.419794,10.046349,63.066139,-2.601727,18.443130,-10.216655,3.281028,1.663881,0.995478,-0.089407,0.027219,0.017005
397,-0.188339,-0.958610,9.246524,67.642059,-1.170038,17.924246,-7.460850,3.080564,2.296552,0.997285,-0.065563,0.025514,0.021739
398,-0.315079,0.751746,7.571037,69.794434,-0.282835,11.446842,-4.064980,2.932164,2.833889,0.998716,-0.036076,0.024685,0.025611
399,-0.736049,1.638017,7.001719,41.955624,1.832803,8.931119,-0.317765,3.113616,3.270456,0.999218,-0.003546,0.027078,0.028601
400,-0.229665,1.688531,7.033805,2.642063,3.931502,6.706887,2.351684,3.313328,3.643700,0.998885,0.019583,0.029542,0.031179
401,-0.403706,1.789188,6.974017,-24.177240,4.384323,4.064430,3.605764,3.362773,3.917511,0.998522,0.030427,0.030385,0.033226
402,-0.778003,1.908079,6.636049,-41.325676,3.288176,1.504305,4.035140,3.677782,4.107125,0.998264,0.034016,0.033310,0.034664
403,-0.153223,1.454004,6.700622,-53.151321,1.872387,2.992460,3.746185,3.807473,4.266455,0.998262,0.031409,0.034396,0.036098
404,0.050232,0.889208,5.713655,-51.161953,-0.829028,3.829076,2.845877,3.403882,4.438476,0.998530,0.023653,0.030630,0.037957
405,-0.183350,-0.023870,5.186155,-39.231651,-2.689366,0.701085,1.468230,2.989416,4.529524,0.998810,0.011767,0.026568,0.039167
406,-0.102297,-0.718892,4.066285,-19.219093,-3.196882,0.261409,-0.413167,2.710707,4.502404,0.998939,-0.004531,0.023493,0.039355
407,0.202897,-0.987695,2.903456,-4.168923,-3.895160,-2.241563,-2.644224,2.098516,4.394827,0.998815,-0.023754,0.017409,0.038748
408,-0.301039,-1.509437,2.053218,9.304777,-5.441331,-3.804681,-5.659643,1.846911,4.195277,0.997953,-0.049919,0.014279,0.037348
409,-0.062047,-1.364321,2.148918,18.775074,-6.382835,-4.034125,-8.778882,1.923290,3.951812,0.996289,-0.077056,0.014085,0.035657
410,0.047081,-1.066020,2.084769,23.813742,-7.203199,-6.674570,-10.808408,1.463774,3.724974,0.994909,-0.094537,0.009649,0.033556
411,-0.224541,-1.606078,2.848942,21.617302,-6.147343,-5.728818,-12.318855,1.175786,3.504378,0.993676,-0.107551,0.006916,0.031499
412,-0.174383,-1.007600,4.880247,19.554861,-9.011973,-8.954560,-12.735672,1.085529,3.289529,0.993346,-0.111131,0.006227,0.029574
413,-0.685860,-0.438531,7.258599,8.902402,-7.232714,-8.964832,-11.649937,1.080113,3.068414,0.994410,-0.101700,0.006656,0.027591
414,0.076152,-0.702123,9.676340,-2.014961,-8.255781,-17.257938,-10.499684,0.917238,2.714471,0.995477,-0.091659,0.005801,0.024318
415,-0.760754,-0.510809,11.980259,-10.199761,-4.745800,-14.097606,-9.741014,0.685695,2.255752,0.996168,-0.085003,0.004290,0.020120
416,-0.231434,0.155995,14.086135,-20.686295,-5.451398,-14.692471,-9.115629,0.625889,1.828236,0.996689,-0.079541,0.004176,0.016337
417,-0.530256,-0.645755,14.882357,-28.512056,-0.957039,-12.035690,-8.881506,0.555747,1.418042,0.996905,-0.077481,0.003877,0.012713
418,0.193637,-1.307540,15.217209,-31.960390,-3.212321,-10.314403,-9.231515,0.436383,1.068322,0.996703,-0.080504,0.003045,0.009599
419,-0.473899,-1.242433,15.319302,-32.655064,0.279009,-4.355637,-9.775025,0.350595,0.840129,0.996331,-0.085219,0.002424,0.007565
420,0.056408,-1.645920,14.676742,-32.727352,-0.570700,-2.956309,-10.368034,0.371987,0.723984,0.995883,-0.090373,0.002662,0.006585
421,0.020876,-2.628411,14.217827,-31.975576,0.462036,-4.535692,-11.242727,0.282754,0.603441,0.995173,-0.097965,0.001940,0.005482
422,-0.147138,-3.222927,14.069876,-29.609415,-0.998322,-2.033184,-12.379845,0.242031,0.498244,0.994157,-0.107832,0.001631,0.004550
423,-0.031086,-2.983301,14.237474,-25.407364,-0.740384,-6.014315,-13.366763,0.195003,0.373293,0.993197,-0.116387,0.001311,0.003433
424,-0.303161,-3.515674,14.394650,-24.792358,-1.173486,-6.211097,-14.192266,0.169476,0.182615,0.992338,-0.123537,0.001271,0.001764
425,0.062054,-3.988263,14.975489,-24.205212,-0.372199,-6.735975,-15.076829,0.126123,-0.020791,0.991357,-0.131191,0.001115,-0.000035
426,-0.258335,-3.868025,14.937341,-18.547134,1.130969,-8.824930,-15.799850,0.096440,-0.274262,0.990507,-0.137441,0.001163,-0.002255
427,-0.323432,-3.682317,14.571690,-2.611214,3.348732,-7.605550,-16.017351,0.216580,-0.558451,0.990235,-0.139312,0.002551,-0.004563
428,-0.379725,-4.035697,13.165832,14.021558,4.516816,-3.892760,-15.791448,0.446739,-0.778482,0.990493,-0.137340,0.004795,-0.006193
429,-0.184745,-3.931653,12.032548,18.174088,5.098721,-1.615935,-15.464170,0.686040,-0.910726,0.990865,-0.134487,0.007001,-0.007070
430,-0.216592,-3.405100,10.757634,23.179274,3.132049,-0.439392,-15.051013,0.859662,-0.982203,0.991331,-0.130895,0.008560,-0.007515
431,-0.422488,-3.047865,9.985225,18.536152,1.975967,6.755482,-14.605706,1.086005,-0.904831,0.991822,-0.127030,0.010404,-0.006627
432,0.050495,-3.168020,10.288233,3.498299,2.270507,9.286982,-14.510592,1.228512,-0.668060,0.991927,-0.126219,0.011371,-0.004429
433,-0.360983,-3.329953,10.882693,5.912275,2.931010,13.112386,-14.659431,1.358964,-0.335032,0.991759,-0.127535,0.012135,-0.001387
434,-0.175432,-2.584430,10.449549,29.717693,1.751522,13.144431,-14.163502,1.553628,0.067368,0.992279,-0.123282,0.013382,0.002255
435,-0.072089,-2.013715,10.514682,37.983383,2.648276,15.837600,-12.767280,1.636892,0.526163,0.993681,-0.111238,0.013685,0.006151
436,-0.013116,-1.057242,9.766286,53.016842,3.791875,14.065888,-10.619215,1.672625,1.005126,0.995553,-0.092652,0.013721,0.010083
437,-0.314269,-0.067521,8.422865,55.368923,4.314916,9.234878,-7.760844,1.799561,1.391816,0.997498,-0.067851,0.014844,0.013179
438,-0.118183,1.028762,7.552514,32.848099,4.239997,4.239230,-4.695821,1.939833,1.647403,0.998904,-0.041200,0.016323,0.015055
439,-0.501441,1.386203,7.015119,-0.488277,5.088783,4.962852,-2.216957,2.181487,1.854241,0.999495,-0.019647,0.018717,0.016543
440,-0.601623,1.859171,6.835662,-27.830265,5.215421,4.287323,-0.634973,2.662206,2.085202,0.999547,-0.005961,0.023125,0.018319
441,-0.278466,1.306771,7.418694,-53.028389,3.574225,4.002363,-0.244983,2.950606,2.297994,0.999464,-0.002653,0.025698,0.020101
442,0.170906,0.935600,7.299740,-61.171185,1.477643,6.267103,-1.008472,2.740640,2.524452,0.999428,-0.009323,0.023714,0.022231
443,0.147474,0.961746,6.953171,-59.132019,0.735017,6.607610,-1.979876,2.274186,2.796114,0.999348,-0.017752,0.019414,0.024733
444,0.178141,0.115903,6.380421,-48.729134,0.283962,4.015170,-3.028930,1.813671,3.014663,0.999169,-0.026833,0.015120,0.026711
445,0.406420,-1.162505,5.871553,-29.870291,-1.504345,0.645748,-4.655630,1.203278,3.098180,0.998743,-0.040883,0.009390,0.027436
446,0.007829,-1.225034,3.963783,-9.572747,-2.573125,0.729387,-6.595972,0.703601,3.112658,0.997947,-0.057673,0.004565,0.027467
447,-0.307598,-1.398191,3.236052,3.284829,-3.986706,-1.855552,-8.505952,0.781092,3.081077,0.996849,-0.074314,0.004801,0.027315
448,0.132891,-2.159485,2.750916,16.434998,-4.654580,-6.488420,-10.976600,0.705474,2.923417,0.995058,-0.095766,0.003686,0.025980
450,0.435638,-1.858243,3.151557,25.380436,-7.384539,-5.788786,-13.237407,-0.177294,2.742283,0.993054,-0.115192,-0.004294,0.023591
451,-0.138420,-1.840346,3.473445,32.859200,-7.848499,-3.895457,-14.361723,-0.790035,2.649806,0.991888,-0.124807,-0.009729,0.022078
452,0.133024,-1.671284,5.723537,29.526022,-10.168919,-5.740161,-14.347435,-1.014498,2.572320,0.991908,-0.124645,-0.011584,0.021164
453,-0.013753,-1.451755,7.725161,22.192980,-11.143794,-5.189265,-13.371843,-1.363709,2.477716,0.992927,-0.116136,-0.014334,0.020087
454,-0.607150,-0.709214,10.171152,11.698684,-12.481756,0.095355,-11.992988,-1.399834,2.468253,0.994251,-0.104174,-0.014396,0.020143
455,-0.384346,-1.091808,12.487684,-4.361165,-11.443220,-0.125476,-10.853921,-1.296628,2.532906,0.995234,-0.094299,-0.013352,0.020932
456,-0.227590,-0.388767,14.027705,-13.412469,-11.601781,1.345734,-10.139629,-1.335707,2.605423,0.995786,-0.088077,-0.013616,0.021614
457,0.437845,-0.487165,14.962092,-24.117485,-7.465929,-0.486915,-9.674892,-1.530067,2.651531,0.996108,-0.083991,-0.015252,0.021927
458,0.262351,-0.571314,15.550048,-26.294624,-4.700871,-0.696078,-9.528293,-1.720873,2.641544,0.996197,-0.082678,-0.016875,0.021721
459,1.080245,-1.401701,14.986485,-24.763512,-1.425259,-2.087917,-9.645611,-1.944100,2.592555,0.996093,-0.083658,-0.018802,0.021113
460,0.686033,-1.267306,14.369517,-19.560421,1.712607,-3.667500,-9.832745,-2.153981,2.480303,0.995946,-0.085261,-0.020577,0.019949
461,0.749594,-1.954997,13.856042,-21.424631,5.258346,-7.346665,-10.108434,-2.177458,2.265704,0.995770,-0.087691,-0.020665,0.018017
462,0.316187,-2.473410,12.820176,-14.508827,4.123021,-5.788712,-10.636577,-2.070926,2.020126,0.995407,-0.092342,-0.019624,0.015875
463,0.468370,-3.290681,12.408990,-15.291669,4.001172,-3.644690,-11.440993,-1.920309,1.850629,0.994778,-0.099379,-0.018281,0.014396
464,0.082180,-3.139440,13.371554,-17.593107,3.061665,-4.207594,-12.358080,-1.735194,1.710391,0.993990,-0.107387,-0.016659,0.013207
465,-0.213517,-3.594021,14.193414,-20.029615,3.851829,-2.782076,-13.207726,-1.389338,1.575388,0.993217,-0.114819,-0.013623,0.012261
466,-0.197787,-4.574995,14.674863,-19.752234,5.627899,-2.894623,-14.240235,-0.965140,1.450909,0.992187,-0.123830,-0.009926,0.011519
467,-0.676795,-4.872773,14.692052,-3.225973,6.636692,-0.849414,-15.134478,-0.434046,1.343896,0.991222,-0.131636,-0.005299,0.011126
468,-0.501350,-4.450977,13.938581,13.178691,6.484339,-0.949637,-15.385551,0.135283,1.259834,0.990938,-0.133866,-0.000302,0.011053
469,-0.338851,-4.611831,12.132681,22.760532,5.020582,-0.848616,-15.286379,0.547157,1.181023,0.991045,-0.133044,0.003361,0.010850
470,0.002821,-4.598472,10.504234,30.298885,3.096641,-1.512354,-15.261860,0.717621,1.101814,0.991071,-0.132842,0.004930,0.010361
471,0.035280,-3.483700,9.325036,30.137484,0.665410,-4.442296,-15.102339,0.660069,0.980384,0.991269,-0.131453,0.004586,0.009238
472,0.156331,-3.252896,8.974947,10.217973,1.508497,-6.696330,-15.058506,0.489758,0.783934,0.991342,-0.131057,0.003341,0.007342
473,0.125869,-3.413761,9.410868,-4.298130,2.806222,-4.372602,-15.566710,0.334859,0.581877,0.990768,-0.135440,0.002208,0.005427
474,-0.219824,-3.781088,10.282106,4.761375,5.433752,-2.080714,-16.153101,0.412713,0.437684,0.990066,-0.140508,0.003029,0.004288
475,-0.454280,-3.756550,10.930316,28.066038,6.919279,-0.429447,-16.071371,0.764798,0.337511,0.990152,-0.139806,0.006197,0.003849
476,-0.455374,-3.344232,11.352901,54.414734,5.984873,7.342368,-14.892881,1.207813,0.392598,0.991501,-0.129627,0.010007,0.004763
477,-0.357972,-2.439481,11.539095,78.053665,4.569401,12.606995,-12.515688,1.580856,0.683139,0.993920,-0.109072,0.013063,0.007429
478,0.012998,-1.098764,10.509151,95.728371,3.381874,11.319118,-9.018242,1.715560,1.065959,0.996739,-0.078744,0.014192,0.010449
479,-0.080389,-0.115060,9.050578,87.935509,3.927264,11.529659,-5.026589,1.703801,1.445575,0.998840,-0.044030,0.014299,0.013253
480,-0.606897,1.418566,7.816519,61.413063,3.213588,9.622484,-1.071676,1.935092,1.831772,0.999683,-0.009619,0.016734,0.016139
481,-0.146964,1.866876,6.659042,27.118593,1.480771,8.124410,2.385831,2.135682,2.202523,0.999432,0.020453,0.019029,0.018824
482,-0.202147,2.403759,6.053555,-5.819658,2.275511,6.307426,4.960973,2.124528,2.524720,0.998667,0.042853,0.019470,0.021204
483,-0.650904,2.390800,6.566374,-38.169430,2.889899,1.864237,6.341448,2.383481,2.748237,0.997994,0.054785,0.022087,0.022789
484,-0.157666,2.483943,6.825751,-58.818562,-0.944033,3.674279,6.501888,2.541904,2.915980,0.997854,0.056113,0.023580,0.024139
485,0.704714,2.080909,7.051651,-67.905777,-2.025629,9.421542,5.859455,1.905707,3.193188,0.998191,0.050621,0.018025,0.026972
486,0.147512,1.892600,7.516036,-66.868607,0.424689,8.106792,4.751907,1.170305,3.538018,0.998625,0.041119,0.011479,0.030419
487,0.569828,0.562139,6.345516,-52.616844,0.363835,2.938828,3.298724,0.593868,3.752976,0.999041,0.028597,0.006120,0.032582
488,0.350940,-0.236823,5.160677,-28.983538,-1.176120,3.639453,1.589684,-0.094276,3.877762,0.999331,0.013892,-0.000353,0.033842
489,0.177753,-0.215803,4.113212,-10.590258,-0.436659,1.390323,0.274616,-0.550293,3.971629,0.999385,0.002561,-0.004716,0.034663
490,0.083110,-0.973066,3.061757,6.635084,-2.845611,-0.617717,-1.178544,-0.812922,4.002074,0.999315,-0.010030,-0.007448,0.034842
491,0.052232,-1.965310,2.187458,22.736244,-5.163919,-1.044760,-4.126332,-1.030688,4.028877,0.998705,-0.035662,-0.010248,0.034804
492,-0.417974,-1.617259,2.336455,35.952957,-7.297484,1.316379,-7.285107,-0.682992,4.106400,0.997335,-0.063277,-0.008220,0.035376
493,-0.288200,-1.614224,2.755139,36.318436,-7.472904,-1.043547,-9.278780,0.011350,4.156278,0.996068,-0.080835,-0.002834,0.036152
494,-0.451588,-1.684632,4.950784,32.827866,-9.544866,-4.070424,-10.113909,0.386187,4.118434,0.995448,-0.088209,0.000188,0.036089
495,-0.666976,-1.344003,6.543461,26.925224,-8.032574,-9.407575,-9.802074,0.698212,3.945230,0.995717,-0.085592,0.003126,0.034816
496,-1.359898,-0.524637,8.709469,11.839893,-7.210542,-8.080801,-8.861105,1.240658,3.712142,0.996403,-0.077555,0.008287,0.033126
497,-0.715454,-0.033987,11.382035,-7.932969,-11.196087,-4.619375,-7.868185,1.562934,3.577591,0.997036,-0.068994,0.011459,0.032074
498,-0.464064,0.268998,13.209694,-21.302197,-11.799496,2.619884,-7.252425,1.355744,3.627096,0.997405,-0.063585,0.009800,0.032329
499,-0.328650,-0.019584,14.040796,-33.727341,-11.585740,9.410399,-7.155159,1.023375,3.901675,0.997414,-0.062665,0.006784,0.034531
500,0.380576,-0.003536,15.113445,-41.225857,-10.419183,13.119920,-7.506338,0.554176,4.340402,0.997116,-0.065593,0.002343,0.038103
501,1.315521,-0.484527,15.022355,-38.543873,-9.544263,10.426396,-8.037898,-0.222231,4.788872,0.996674,-0.069944,-0.004861,0.041540
502,1.351138,-0.969830,14.451265,-36.514381,-2.383340,4.561828,-8.679727,-1.047586,5.073967,0.996144,-0.075192,-0.012456,0.043444
503,1.189356,-1.579899,14.156931,-32.990520,0.999962,-0.901401,-9.434969,-1.611792,5.141979,0.995563,-0.081523,-0.017692,0.043545
504,1.109674,-1.815159,13.085491,-23.447710,5.474899,-8.656519,-10.130696,-1.964137,4.967507,0.995078,-0.087456,-0.020882,0.041649
505,0.580992,-2.410460,12.167855,-21.137316,7.834301,-10.864739,-10.832871,-2.048827,4.610632,0.994638,-0.093586,-0.021581,0.038352
506,0.496839,-2.669214,11.685766,-19.378893,10.211367,-9.985830,-11.688889,-1.886930,4.219381,0.994055,-0.101142,-0.020117,0.034941
507,-0.227589,-2.932647,11.304137,-17.337204,10.103832,-8.087357,-12.595604,-1.452133,3.863189,0.993367,-0.109200,-0.016285,0.032111
508,-0.122422,-3.009301,10.798306,-16.379219,9.508736,-4.391182,-13.516484,-0.863579,3.592611,0.992563,-0.117385,-0.011169,0.030241
509,-0.107522,-3.136603,10.556906,-15.938577,8.018963,-0.627968,-14.428719,-0.381937,3.444457,0.991642,-0.125425,-0.007079,0.029398
510,-0.254326,-3.203453,10.433414,-12.954112,5.491451,2.411931,-15.264418,0.039186,3.416427,0.990699,-0.132765,-0.003620,0.029591
511,-0.247432,-3.065821,10.119911,-9.937153,2.652615,5.067287,-15.909895,0.391776,3.498530,0.989896,-0.138432,-0.000840,0.030705
512,-0.154621,-3.135984,9.898348,-7.217446,0.217769,7.443295,-16.397905,0.605686,3.683344,0.989230,-0.142703,0.000646,0.032562
513,-0.287327,-3.041536,9.667127,-3.853634,-1.326021,7.312189,-16.750660,0.750473,3.922250,0.988702,-0.145790,0.001491,0.034809
514,-0.237882,-2.960817,9.573361,-3.541289,-2.621043,8.000521,-16.964045,0.863146,4.184027,0.988334,-0.147669,0.002061,0.037214
515,-0.166344,-2.734861,9.518701,-2.949074,-2.825305,7.840365,-17.036802,0.897752,4.463410,0.988143,-0.148312,0.001974,0.039670
516,-0.127141,-2.545543,9.404735,-2.723880,-2.756657,5.649144,-16.951078,0.871223,4.708360,0.988169,-0.147567,0.001459,0.041746
517,-0.014202,-2.500524,9.409451,-3.903710,-1.726944,4.420707,-16.811424,0.789822,4.894411,0.988289,-0.146336,0.000571,0.043246
518,0.190825,-2.455789,9.455362,-4.921678,-1.240986,3.305030,-16.686888,0.611112,5.035598,0.988413,-0.145196,-0.001103,0.044237
519,0.172234,-2.432667,9.535226,-4.633359,0.160281,0.190316,-16.556616,0.390441,5.099626,0.988573,-0.143988,-0.003037,0.044514
520,0.138288,-2.370070,9.593269,-5.370328,1.522089,-1.734114,-16.407848,0.234689,5.069238,0.988783,-0.142646,-0.004285,0.044062
521,0.099189,-2.510251,9.744238,-7.257976,2.783431,-2.578119,-16.328695,0.158822,4.981390,0.988920,-0.141938,-0.004801,0.043213
522,-0.024181,-2.447559,9.827651,-6.588274,3.024279,-4.131580,-16.290854,0.168956,4.847713,0.989016,-0.141621,-0.004534,0.042074
523,-0.121171,-2.263471,9.822449,-5.280315,3.135820,-4.807516,-16.135868,0.257091,4.677037,0.989262,-0.140321,-0.003507,0.040714
524,-0.093673,-2.183857,9.713467,-4.564065,3.010932,-3.627898,-15.877423,0.367000,4.515439,0.989625,-0.138131,-0.002271,0.039459
525,-0.132228,-2.227150,9.668523,-3.849468,2.997401,-4.036777,-15.620823,0.471200,4.367640,0.989974,-0.135951,-0.001107,0.038310
526,-0.209140,-1.964514,9.639884,-1.801014,2.504867,-3.891701,-15.278775,0.595901,4.219417,0.990414,-0.133036,0.000257,0.037177
527,-0.184329,-1.814816,9.643118,-1.731151,1.827719,-2.068094,-14.794405,0.716785,4.110497,0.990991,-0.128884,0.001582,0.036369
528,-0.063349,-1.881536,9.691259,-2.430444,1.769767,-1.160127,-14.338417,0.769734,4.049661,0.991510,-0.124955,0.002251,0.035893
529,-0.045103,-1.848828,9.844311,-1.750589,1.610803,-0.175942,-13.939560,0.765294,4.020107,0.991949,-0.121501,0.002369,0.035625
530,-0.046750,-1.766925,9.793840,-0.028556,1.305306,1.423180,-13.505987,0.754635,4.034531,0.992398,-0.117744,0.002397,0.035730
531,0.062203,-1.876686,9.743052,-0.002169,1.480294,1.941902,-13.111387,0.712268,4.083078,0.992786,-0.114314,0.002104,0.036100
532,0.127918,-2.179631,9.610832,1.042481,2.074620,0.736248,-12.910215,0.619509,4.114944,0.992983,-0.112543,0.001332,0.036281
533,0.007845,-2.263372,9.461716,2.276889,3.099397,-0.962257,-12.868237,0.570136,4.091623,0.993036,-0.112164,0.000941,0.036030
534,-0.113554,-2.561260,9.349346,0.309036,3.378471,-2.923120,-13.013202,0.625586,4.002448,0.992916,-0.113436,0.001464,0.035314
535,0.016120,-2.817701,9.370493,-2.190833,3.237903,-5.772086,-13.432173,0.661161,3.832191,0.992543,-0.117074,0.001817,0.033880
536,-0.033010,-2.967925,9.375254,-3.969463,2.953726,-8.564640,-14.028358,0.630534,3.570633,0.991998,-0.122224,0.001654,0.031593
537,-0.179762,-2.996185,9.379887,-4.989697,2.924724,-8.807291,-14.669458,0.650538,3.260663,0.991379,-0.127772,0.001996,0.028942
538,-0.227855,-3.161558,9.564974,-6.336318,2.619867,-8.494419,-15.318274,0.731603,2.952585,0.990707,-0.133395,0.002892,0.026384
539,-0.146301,-3.051368,9.673203,-5.071614,3.009208,-8.360100,-15.875276,0.792699,2.651811,0.990108,-0.138213,0.003654,0.023872
540,-0.314717,-2.957647,9.689329,-2.860049,3.754189,-6.464821,-16.216887,0.900475,2.380181,0.989736,-0.141174,0.004848,0.021669
541,-0.335934,-2.949145,9.749055,-0.515237,4.403302,-3.608126,-16.383787,1.107379,2.178920,0.989545,-0.142638,0.006854,0.020195
542,-0.243708,-2.738203,9.687454,1.523395,4.643252,-2.800799,-16.370920,1.301199,2.033926,0.989564,-0.142546,0.008711,0.019183
543,-0.327504,-2.607857,9.548017,2.947613,4.297126,-1.428905,-16.193136,1.479133,1.926913,0.989779,-0.141025,0.010409,0.018463
544,-0.324465,-2.456869,9.410227,3.880782,3.239962,0.029990,-15.915026,1.657580,1.874114,0.990102,-0.138640,0.012060,0.018197
545,-0.197752,-2.446599,9.536016,4.095375,2.579206,-0.876390,-15.590426,1.742481,1.839643,0.990484,-0.135841,0.012886,0.017965
546,-0.261281,-2.519305,9.429594,6.621456,2.356201,-2.364210,-15.279212,1.762655,1.769418,0.990857,-0.133145,0.013191,0.017346
547,-0.288177,-2.570130,9.475377,7.254945,1.817460,-2.738080,-15.005090,1.789396,1.670388,0.991183,-0.130766,0.013576,0.016488
548,-0.133667,-2.557714,9.497552,8.364304,0.971767,-3.359219,-14.745916,1.739964,1.560074,0.991499,-0.128506,0.013310,0.015448
549,-0.275475,-2.643290,9.412755,8.949944,0.333590,-3.769794,-14.523843,1.659963,1.437308,0.991774,-0.126562,0.012783,0.014272
550,-0.308458,-2.718767,9.157108,7.835097,-0.214191,-2.964127,-14.431743,1.637865,1.322618,0.991892,-0.125751,0.012729,0.013244
551,-0.145799,-2.690939,9.163971,3.797793,-0.044977,-3.080176,-14.487117,1.572761,1.219055,0.991851,-0.126213,0.012273,0.012283
553,-0.265415,-2.602591,9.244500,2.347175,0.343913,-1.909876,-14.584938,1.509694,1.131787,0.991760,-0.127046,0.011813,0.011468
554,-0.270099,-2.586651,9.493577,-1.193563,0.656755,0.145536,-14.684863,1.522983,1.095924,0.991651,-0.127908,0.011958,0.011183
555,-0.102807,-2.695783,9.794870,-4.517453,1.306535,1.393662,-14.864582,1.506126,1.110226,0.991450,-0.129463,0.011779,0.011306
556,-0.256257,-2.708041,9.978652,-7.905327,1.683130,2.249616,-15.134318,1.505618,1.154610,0.991138,-0.131801,0.011697,0.011717
557,-0.369849,-2.653979,10.099980,-11.488171,0.999647,5.377800,-15.448730,1.609538,1.265658,0.990747,-0.134540,0.012433,0.012831
558,-0.120271,-3.257084,9.810684,-15.291560,1.208579,3.175833,-16.048019,1.657436,1.388490,0.990009,-0.139737,0.012630,0.014015
559,-0.207388,-3.685538,9.317730,-18.039337,1.862799,-0.317203,-17.130224,1.632363,1.405566,0.988647,-0.149080,0.012258,0.014249
560,-0.479903,-3.985296,8.896788,-20.344334,2.064471,-2.087314,-18.552868,1.728115,1.325051,0.986716,-0.161341,0.013018,0.013841
561,-0.402760,-4.258755,8.535872,-21.531582,1.381465,-3.159988,-20.185757,1.871684,1.193104,0.984310,-0.175379,0.014255,0.013111
562,-0.234055,-4.727027,8.142005,-23.528484,0.102885,-6.427136,-22.056412,1.854107,0.998016,0.981340,-0.191398,0.014214,0.011642
563,-0.567523,-4.686204,8.184663,-26.208931,-1.553864,-5.412418,-23.990784,1.827823,0.788800,0.977994,-0.207909,0.014171,0.010047
564,-0.605824,-4.854959,8.324626,-26.727516,-3.449561,-3.240740,-25.747360,1.901901,0.659294,0.974692,-0.222861,0.014897,0.009306
565,-0.391780,-4.986331,8.494627,-27.007114,-5.791194,-2.193778,-27.324278,1.857637,0.619737,0.971543,-0.236247,0.014474,0.009083
566,-0.356063,-5.167515,8.719953,-25.898731,-7.211643,-0.628177,-28.702923,1.677214,0.661776,0.968653,-0.247920,0.012748,0.009222
567,-0.411627,-5.200837,8.868807,-21.430861,-7.927067,1.286931,-29.800941,1.510297,0.783961,0.966244,-0.257199,0.010977,0.010000
568,-0.141237,-5.218404,8.744696,-17.304079,-8.131555,0.952713,-30.611715,1.291211,0.945487,0.964412,-0.264036,0.008690,0.010932
569,-0.024452,-5.217998,8.665595,-15.027855,-7.576616,0.178765,-31.239410,0.959478,1.094772,0.962971,-0.269306,0.005491,0.011455
570,0.075871,-5.243846,8.402249,-12.855302,-6.373341,-0.605977,-31.775782,0.598115,1.210184,0.961717,-0.273790,0.002129,0.011586
571,0.067472,-5.307817,8.228240,-12.845177,-4.187324,-1.941558,-32.314816,0.277012,1.267616,0.960432,-0.278285,-0.000756,0.011298
572,0.012332,-5.145119,8.465455,-14.886873,-0.507145,-4.194046,-32.778721,0.072330,1.224188,0.959310,-0.282154,-0.002409,0.010427
573,-0.001573,-4.807621,8.655050,-14.293329,2.279084,-6.043535,-32.968338,-0.021035,1.065737,0.958857,-0.283736,-0.002815,0.008866
574,-0.161349,-4.325705,8.706700,-11.804392,3.464966,-5.748875,-32.762138,0.009674,0.848923,0.959381,-0.282017,-0.002008,0.007131
575,-0.362524,-4.034812,8.782867,-9.239329,4.285204,-4.286512,-32.201527,0.223357,0.639527,0.960756,-0.277333,0.000325,0.005903
576,-0.153915,-3.756624,8.902168,-5.792949,4.162343,-3.973211,-31.369810,0.447515,0.453186,0.962744,-0.270357,0.002691,0.004863
577,-0.158039,-3.728949,8.724167,0.979991,3.091446,-1.955713,-30.358965,0.575831,0.314363,0.965091,-0.261853,0.004131,0.003963
578,-0.145600,-3.757426,8.695057,7.860550,1.771719,0.801801,-29.264341,0.687897,0.266886,0.967544,-0.252621,0.005220,0.003770
579,0.178120,-3.797661,8.697168,16.850674,1.785035,0.638345,-28.062963,0.660845,0.267625,0.970141,-0.242463,0.005029,0.003664
580,0.356031,-3.718452,8.923502,27.196861,2.829032,-1.587093,-26.636099,0.438924,0.221265,0.973096,-0.230361,0.003283,0.002761
581,0.181112,-3.625529,8.993739,40.585438,3.998219,-4.041372,-24.876085,0.233353,0.085347,0.976527,-0.215385,0.001828,0.001166
582,0.090795,-3.011657,8.883421,51.935593,4.969581,-6.847847,-22.659925,0.153457,-0.143539,0.980511,-0.196457,0.001559,-0.000965
583,-0.330853,-2.846701,9.096508,53.048508,4.492268,-5.114266,-20.199306,0.292683,-0.385162,0.984497,-0.175351,0.003104,-0.002861
584,-0.558484,-3.182765,9.109550,45.895386,2.316184,-2.151893,-18.164410,0.663323,-0.527065,0.987440,-0.157821,0.006442,-0.003628
585,0.088307,-3.120732,9.579893,35.964993,0.896086,-3.061130,-16.735531,0.804152,-0.618577,0.989321,-0.145483,0.007728,-0.004319
586,-0.639871,-2.609237,10.366830,24.486309,-0.077019,-0.065605,-15.558599,0.893536,-0.669273,0.990756,-0.135306,0.008516,-0.004731
587,-1.143557,-3.077036,10.758729,12.505432,-1.422144,6.946681,-14.802119,1.371871,-0.544876,0.991594,-0.128747,0.012484,-0.003173
588,-0.426609,-2.849030,10.308958,10.431372,-2.657907,7.766582,-14.478422,1.734087,-0.287907,0.991917,-0.125960,0.015328,-0.000585
589,-0.136528,-1.772016,10.199522,14.546506,-0.979417,7.363772,-13.806303,1.733166,-0.020093,0.992637,-0.120175,0.015036,0.001644
590,-0.851595,-1.523489,10.095713,18.289618,-0.014426,12.875655,-12.634748,1.922630,0.331650,0.993778,-0.110068,0.016357,0.004722
591,-0.021521,-1.387648,9.519272,20.785959,0.260595,12.973512,-11.372035,2.094280,0.774692,0.994879,-0.099181,0.017515,0.008537
592,0.731687,-0.821551,9.510408,24.140244,0.860790,6.812947,-9.942209,1.658312,1.111866,0.996075,-0.086780,0.013575,0.010919
593,0.347272,-0.690175,10.033820,24.398943,1.477201,2.365932,-8.356236,1.090258,1.264868,0.997229,-0.072954,0.008684,0.011701
594,0.326070,-0.771660,10.208474,24.580610,0.982298,-2.219724,-6.914169,0.722148,1.264870,0.998095,-0.060365,0.005624,0.011398
595,0.415100,-0.587401,9.880689,23.368324,0.260188,-8.483859,-5.646167,0.345803,1.084117,0.998736,-0.049278,0.002548,0.009598
596,0.463068,-0.762828,9.910769,21.380003,-1.894799,-13.481459,-4.604569,-0.097827,0.717683,0.999173,-0.040165,-0.001105,0.006224
597,0.311685,-0.926147,9.903100,21.776903,-3.547316,-17.645840,-3.851076,-0.521352,0.202723,0.999424,-0.033592,-0.004607,0.001615
598,0.293733,-0.836589,9.674335,21.120182,-3.575689,-21.434780,-3.242899,-0.862328,-0.441637,0.999563,-0.028324,-0.007413,-0.004065
599,0.073643,-1.016962,9.966836,15.601289,-3.475219,-23.806070,-2.848051,-1.068170,-1.186338,0.999592,-0.024945,-0.009061,-0.010581
600,-0.124565,-0.850543,10.076486,15.973717,-3.486737,-24.900099,-2.592002,-1.084954,-1.986561,0.999545,-0.022777,-0.009072,-0.017544
601,-0.339323,-0.724962,9.980232,18.369841,-1.419137,-22.890366,-2.227356,-0.900139,-2.773485,0.999484,-0.019620,-0.007381,-0.024348
602,-0.416210,-0.605900,9.923611,17.866926,-1.020424,-19.015942,-1.791640,-0.570003,-3.464401,0.999406,-0.015777,-0.004499,-0.030302
603,-0.347452,-0.640572,10.004711,19.639072,-0.969768,-14.930964,-1.358679,-0.253045,-4.023715,0.999310,-0.011927,-0.001790,-0.035130
604,-0.368486,-0.513457,9.897871,24.595716,-1.261204,-10.661373,-0.838034,0.010120,-4.445155,0.999221,-0.007304,0.000372,-0.038780
605,-0.297956,-0.598665,9.784148,26.594872,-1.804675,-6.371970,-0.252402,0.213636,-4.725302,0.999146,-0.002124,0.001954,-0.041220
606,-0.160726,-0.406254,9.729072,26.495708,-3.281001,-4.328748,0.331711,0.283045,-4.902238,0.999077,0.002998,0.002344,-0.042774
607,-0.011057,-0.329876,9.690156,24.530466,-4.097210,-1.791139,0.905588,0.193460,-5.005898,0.999013,0.007969,0.001341,-0.043683
608,0.045796,-0.194376,9.790526,19.788065,-4.329363,-0.701632,1.373979,0.011549,-5.051472,0.998957,0.011983,-0.000428,-0.044066
609,0.169739,-0.158563,9.712317,14.317786,-4.439690,-0.384231,1.670540,-0.226152,-5.074288,0.998913,0.014476,-0.002617,-0.044234
610,0.206244,-0.217013,9.877603,9.068495,-4.110709,-0.169056,1.733181,-0.492233,-5.087281,0.998894,0.014919,-0.004962,-0.044310
611,0.213482,-0.219553,9.928109,7.394229,-3.838102,0.355890,1.637231,-0.731620,-5.085565,0.998897,0.013989,-0.007011,-0.044269
612,0.264884,-0.117365,9.972064,5.283740,-2.861987,-0.350582,1.516796,-0.938892,-5.084877,0.998899,0.012859,-0.008772,-0.044246
613,0.241319,-0.146793,9.955437,4.554415,-2.126878,-0.405483,1.389076,-1.099224,-5.095134,0.998898,0.011683,-0.010121,-0.044327
614,0.176731,-0.219751,9.984441,3.463339,-1.019170,-0.942578,1.210063,-1.174002,-5.113067,0.998901,0.010092,-0.010705,-0.044492
615,0.189696,-0.117797,9.965880,1.749835,-0.471310,-2.549352,1.014646,-1.187236,-5.166140,0.998895,0.008378,-0.010748,-0.044972
616,0.028794,-0.350744,9.946393,-3.224694,0.229435,-4.471992,0.684899,-1.120557,-5.277097,0.998877,0.005520,-0.010043,-0.045974
617,0.063455,-0.342405,9.979418,-9.064659,0.016360,-7.430733,0.128579,-1.004095,-5.469152,0.998823,0.000703,-0.008806,-0.047698
618,0.090838,-0.417695,9.735711,-17.963966,-0.253346,-10.780112,-0.643806,-0.932775,-5.767666,0.998682,-0.006020,-0.007847,-0.050354
619,0.141064,-0.384945,9.873557,-31.016508,-1.040541,-13.226149,-1.714360,-0.926031,-6.163670,0.998403,-0.015372,-0.007264,-0.053875
620,0.051123,-0.549154,9.853510,-33.814487,-1.026576,-11.695623,-2.979459,-0.931019,-6.574979,0.997972,-0.026420,-0.006618,-0.057536
621,0.191977,-0.571633,9.679702,-35.710278,-0.759406,-9.386888,-4.249551,-0.956444,-6.922843,0.997436,-0.037510,-0.006087,-0.060642
622,0.226463,-0.805667,9.619177,-40.616413,-0.042406,-6.208392,-5.575586,-1.029064,-7.179233,0.996789,-0.049101,-0.005907,-0.062969
623,0.351263,-1.148081,9.997003,-40.940384,0.157067,-3.238971,-7.026284,-1.129638,-7.332588,0.995991,-0.061778,-0.005901,-0.064425
624,0.260868,-1.392778,9.714681,-31.579494,0.301605,-1.174426,-8.364932,-1.217349,-7.401638,0.995151,-0.073461,-0.005865,-0.065144
625,0.353567,-1.334461,9.627898,-34.077641,0.267645,-0.910492,-9.499488,-1.292140,-7.435120,0.994345,-0.083353,-0.005845,-0.065543
626,0.366391,-1.391866,10.078341,-29.648743,0.430416,3.586316,-10.430693,-1.375269,-7.394396,0.993646,-0.091474,-0.006066,-0.065301
627,0.385051,-1.640804,10.297490,0.084854,1.650694,11.933025,-10.741115,-1.388429,-7.149745,0.993529,-0.094160,-0.006204,-0.063206
628,0.227582,-1.562634,9.968130,36.408985,2.401256,18.997999,-9.943822,-1.270379,-6.659446,0.994439,-0.087157,-0.005992,-0.058819
629,0.197215,-1.399637,9.909358,55.079853,2.692785,23.606281,-8.199683,-1.060691,-5.976742,0.996008,-0.071876,-0.005493,-0.052658
630,0.241294,-1.476854,10.066268,63.251728,2.639332,24.665257,-6.131733,-0.882307,-5.192050,0.997496,-0.053776,-0.005258,-0.045639
631,0.206928,-1.288435,9.856977,63.963879,1.821246,19.470989,-4.114255,-0.780505,-4.465944,0.998564,-0.036133,-0.005403,-0.039181
632,0.034848,-0.868576,9.601026,46.492817,0.068039,10.425317,-2.428480,-0.704840,-3.968565,0.999152,-0.021391,-0.005412,-0.034747
633,0.070513,-0.551203,9.789398,20.221909,-0.600047,3.113107,-1.434957,-0.652540,-3.739995,0.999371,-0.012701,-0.005282,-0.032700
634,0.160508,-0.455434,10.028076,6.820618,-0.685490,-1.408201,-1.107077,-0.671644,-3.709308,0.999411,-0.009845,-0.005545,-0.032419
635,0.110227,-0.269231,9.912855,6.688885,-0.920554,-4.226582,-0.981671,-0.714503,-3.801601,0.999392,-0.008769,-0.005947,-0.033221
636,0.112291,-0.209856,9.825631,7.833113,-0.969354,-4.838475,-0.780897,-0.742416,-3.951678,0.999360,-0.007034,-0.006240,-0.034521
637,0.106453,-0.137564,9.878378,6.597033,-1.442333,-5.042946,-0.554402,-0.772958,-4.115669,0.999320,-0.005077,-0.006567,-0.035940
638,0.093974,-0.068380,9.937639,5.773079,-1.884740,-4.936131,-0.336994,-0.807444,-4.281609,0.999272,-0.003202,-0.006931,-0.037375
639,0.101740,0.005235,9.908085,6.769672,-2.185206,-4.835421,-0.092636,-0.847743,-4.444571,0.999220,-0.001095,-0.007361,-0.038781
640,0.139416,0.125856,9.912223,6.371777,-2.308725,-4.327293,0.202938,-0.906154,-4.598351,0.999163,0.001452,-0.007972,-0.040102
641,0.175561,0.214996,9.929059,4.974610,-2.108849,-3.884784,0.510411,-0.982944,-4.737462,0.999101,0.004096,-0.008754,-0.041290
642,0.218505,0.270991,9.930430,4.164996,-1.432984,-3.518572,0.795587,-1.064549,-4.863772,0.999035,0.006542,-0.009576,-0.042364
643,0.229475,0.276195,9.895190,3.987042,-0.657983,-3.106580,1.049570,-1.131403,-4.976976,0.998970,0.008721,-0.010261,-0.043324
644,0.248224,0.307334,9.920160,3.033816,0.037662,-2.706793,1.264035,-1.175081,-5.076049,0.998911,0.010565,-0.010732,-0.044164
645,0.214910,0.313747,9.912913,2.974703,0.592984,-2.445866,1.445540,-1.185520,-5.163382,0.998858,0.012135,-0.010902,-0.044907
646,0.196879,0.328744,9.909901,3.213061,0.916474,-2.352792,1.612985,-1.159380,-5.244001,0.998810,0.013597,-0.010750,-0.045597
647,0.180603,0.355527,9.906651,2.638067,0.872273,-2.300916,1.768071,-1.117065,-5.321796,0.998762,0.014959,-0.010453,-0.046267
648,0.158307,0.334242,9.936543,1.820359,0.635855,-2.374167,1.881401,-1.069436,-5.399608,0.998719,0.015959,-0.010094,-0.046942
649,0.128315,0.267799,9.953866,2.725141,0.259153,-2.426055,1.940148,-1.011475,-5.478707,0.998682,0.016488,-0.009624,-0.047635
650,0.164658,0.325230,9.911613,3.938085,-0.261024,-2.456575,2.019186,-0.976090,-5.559388,0.998639,0.017185,-0.009361,-0.048337
651,0.178121,0.336856,9.957019,3.161329,-0.773731,-2.581700,2.127110,-0.989268,-5.643710,0.998586,0.018113,-0.009535,-0.049060
652,0.179830,0.317687,9.957094,4.203377,-0.976716,-2.906718,2.219718,-1.022715,-5.735696,0.998529,0.018898,-0.009881,-0.049848
653,0.183417,0.382082,9.918569,5.771898,-1.040839,-3.131025,2.361712,-1.059030,-5.837167,0.998458,0.020110,-0.010277,-0.050714
654,0.189782,0.464090,9.894996,5.332560,-0.959996,-3.372123,2.574673,-1.093863,-5.947412,0.998367,0.021940,-0.010696,-0.051648
656,0.183202,0.463613,9.911628,3.924309,-0.709746,-3.427060,2.766739,-1.116577,-6.062605,0.998275,0.023592,-0.011004,-0.052629
657,0.170347,0.483725,9.893393,4.046440,-0.462477,-3.091360,2.913031,-1.116776,-6.172296,0.998193,0.024856,-0.011097,-0.053570
658,0.166889,0.507924,9.884838,3.312495,-0.109870,-2.558818,3.042577,-1.097898,-6.266903,0.998121,0.025984,-0.011014,-0.054386
659,0.193849,0.523064,9.896017,2.564797,0.082450,-2.046110,3.142946,-1.083542,-6.343564,0.998062,0.026858,-0.010955,-0.055048
660,0.191983,0.595651,9.896055,1.959122,0.256385,-1.548660,3.243188,-1.078618,-6.403533,0.998010,0.027727,-0.010975,-0.055561
661,0.176111,0.618665,9.901979,1.345964,0.482236,-1.245007,3.351919,-1.060657,-6.450312,0.997962,0.028679,-0.010883,-0.055963
662,0.156485,0.549156,9.935405,1.301772,0.796669,-1.148879,3.408720,-1.018580,-6.489108,0.997931,0.029191,-0.010554,-0.056307
663,0.141561,0.591205,9.897319,2.415622,0.934131,-0.973405,3.456173,-0.961830,-6.522401,0.997906,0.029629,-0.010092,-0.056607
664,0.125739,0.627084,9.912373,1.451292,1.100593,-0.822347,3.531910,-0.898833,-6.550357,0.997876,0.030318,-0.009588,-0.056861
665,0.114530,0.575869,9.925543,0.984344,1.221290,-0.752164,3.569879,-0.828874,-6.574093,0.997857,0.030681,-0.009004,-0.057084
666,0.107159,0.550963,9.912091,1.452615,1.209223,-0.784214,3.573327,-0.758774,-6.596569,0.997848,0.030745,-0.008401,-0.057299
667,0.110193,0.614170,9.871511,1.023705,1.029266,-0.851358,3.589820,-0.699157,-6.621082,0.997834,0.030917,-0.007897,-0.057528
