seq,ax,ay,az,wroll,wpitch,wyaw,roll,pitch,yaw,q0,q1,q2,q3
69,9.836783,-0.050508,0.003990,-0.000344,0.039246,-0.066045,-85.483894,-89.704590,85.483894,0.707248,-0.001816,-0.706961,0.001815
71,9.843313,-0.043031,0.012021,0.013390,0.051476,-0.072170,-84.670868,-89.709259,84.672211,0.707272,-0.001788,-0.706937,0.001803
72,9.843608,-0.039757,0.013345,0.040856,0.059155,-0.072221,-83.729416,-89.713326,83.731468,0.707299,-0.001752,-0.706911,0.001778
73,9.837390,-0.048725,0.012770,0.072901,0.063780,-0.055468,-82.768303,-89.716072,82.772453,0.707326,-0.001718,-0.706884,0.001767
74,9.832171,-0.048791,0.017376,0.059169,0.069937,-0.063097,-81.726250,-89.718147,81.732529,0.707356,-0.001692,-0.706853,0.001768
75,9.827915,-0.052830,0.017187,0.053065,0.056266,-0.047824,-80.645630,-89.717453,80.653343,0.707388,-0.001673,-0.706821,0.001773
76,9.831174,-0.053242,0.016042,0.021022,0.041061,-0.052372,-79.781593,-89.718147,79.790718,0.707415,-0.001665,-0.706794,0.001779
78,9.831901,-0.046584,0.017366,0.001185,0.039584,-0.037101,-78.991333,-89.717453,79.001183,0.707438,-0.001657,-0.706771,0.001776
79,9.841153,-0.040814,0.018485,-0.011022,0.035058,-0.038651,-78.125786,-89.718842,78.135025,0.707462,-0.001642,-0.706747,0.001760
80,9.844104,-0.043800,0.016255,0.016445,0.030525,-0.034103,-77.339256,-89.720932,77.348587,0.707483,-0.001625,-0.706726,0.001743
81,9.843759,-0.045663,0.017097,0.036282,0.038193,-0.040221,-76.645966,-89.722343,76.656090,0.707502,-0.001608,-0.706708,0.001737
82,9.844502,-0.049129,0.018805,0.066800,0.048916,-0.038691,-75.883095,-89.722343,75.895416,0.707523,-0.001590,-0.706686,0.001740
83,9.846035,-0.054117,0.017157,0.101896,0.044377,-0.049342,-75.189850,-89.721634,75.205055,0.707545,-0.001573,-0.706665,0.001758
85,9.840643,-0.060752,0.015145,0.115630,0.047453,-0.044701,-74.731323,-89.719536,74.750046,0.707562,-0.001561,-0.706648,0.001791
86,9.839572,-0.058812,0.012591,0.123260,0.052039,-0.035467,-74.461914,-89.716759,74.484077,0.707575,-0.001552,-0.706635,0.001831
87,9.839047,-0.055216,0.012212,0.112579,0.055087,-0.027779,-74.244766,-89.714691,74.271019,0.707585,-0.001539,-0.706625,0.001867
88,9.835090,-0.061013,0.009622,0.088164,0.056600,-0.024664,-74.137726,-89.711288,74.167282,0.707592,-0.001533,-0.706617,0.001901
89,9.833371,-0.058945,0.010430,0.054593,0.071839,-0.033746,-74.062744,-89.709259,74.094803,0.707599,-0.001535,-0.706610,0.001932
90,9.834101,-0.051826,0.011030,0.040859,0.061141,-0.042859,-73.851936,-89.707916,73.885300,0.707607,-0.001530,-0.706602,0.001948
92,9.832432,-0.047410,0.014485,0.010340,0.065712,-0.042852,-73.458977,-89.708588,73.493805,0.707618,-0.001519,-0.706590,0.001946
93,9.830454,-0.048864,0.011680,0.004238,0.070284,-0.056585,-72.996582,-89.709930,73.031624,0.707631,-0.001507,-0.706578,0.001937
94,9.832202,-0.048459,0.014844,-0.004917,0.073328,-0.062686,-72.507721,-89.711288,72.542328,0.707643,-0.001496,-0.706566,0.001926
95,9.830174,-0.049774,0.015413,0.017971,0.058071,-0.059625,-71.980507,-89.711967,72.015320,0.707657,-0.001484,-0.706552,0.001917
96,9.828572,-0.055621,0.015879,0.022549,0.058073,-0.059595,-71.562912,-89.710609,71.599129,0.707670,-0.001477,-0.706539,0.001919
97,9.831274,-0.056759,0.012436,0.030179,0.048910,-0.067173,-71.335823,-89.709259,71.372696,0.707678,-0.001475,-0.706530,0.001927
99,9.835361,-0.051542,0.014909,0.050016,0.050422,-0.061029,-71.135788,-89.709259,71.174095,0.707685,-0.001466,-0.706524,0.001934
100,9.833671,-0.047985,0.012219,0.068327,0.053460,-0.056436,-70.867607,-89.709930,70.907547,0.707691,-0.001446,-0.706518,0.001939
101,9.838302,-0.046720,0.014108,0.056119,0.058020,-0.050331,-70.574409,-89.712646,70.616081,0.707697,-0.001423,-0.706512,0.001941
102,9.836662,-0.040584,0.013703,0.051541,0.062583,-0.039670,-70.169365,-89.714691,70.213509,0.707705,-0.001397,-0.706504,0.001937
103,9.837998,-0.041955,0.013851,0.057645,0.061040,-0.039701,-69.738075,-89.716759,69.783493,0.707713,-0.001368,-0.706497,0.001930
104,9.835238,-0.042698,0.014887,0.048490,0.056448,-0.029041,-69.342873,-89.717453,69.390144,0.707720,-0.001343,-0.706489,0.001927
106,9.839053,-0.041114,0.014712,0.045438,0.036598,-0.021434,-69.031120,-89.720238,69.079544,0.707726,-0.001321,-0.706483,0.001925
107,9.837477,-0.049054,0.015424,0.039334,0.035060,-0.012279,-68.875031,-89.720238,68.925690,0.707729,-0.001309,-0.706480,0.001930
108,9.839540,-0.050184,0.014740,0.039334,0.041150,-0.010727,-68.826538,-89.718147,68.878494,0.707733,-0.001306,-0.706476,0.001943
109,9.836597,-0.049743,0.019025,0.033230,0.045725,-0.004596,-68.668694,-89.716072,68.721901,0.707741,-0.001306,-0.706468,0.001958
110,9.836879,-0.050568,0.016862,0.027126,0.050305,-0.003042,-68.444672,-89.714012,68.499069,0.707751,-0.001308,-0.706458,0.001972
111,9.835819,-0.053140,0.018054,0.025601,0.065561,-0.013686,-68.224197,-89.712646,68.279068,0.707763,-0.001312,-0.706446,0.001987
113,9.834914,-0.044572,0.014162,0.034755,0.062497,-0.024350,-67.960724,-89.711967,68.016937,0.707772,-0.001308,-0.706437,0.001995
114,9.834531,-0.045260,0.016567,0.048489,0.064005,-0.028932,-67.649826,-89.711967,67.707077,0.707780,-0.001292,-0.706429,0.001996
115,9.841959,-0.044194,0.015735,0.045437,0.065517,-0.042673,-67.270981,-89.713326,67.330002,0.707788,-0.001273,-0.706421,0.001997
116,9.842731,-0.040448,0.016705,0.040859,0.057871,-0.054899,-66.834488,-89.715378,66.894852,0.707796,-0.001248,-0.706413,0.001989
117,9.840010,-0.039300,0.021595,0.037808,0.060923,-0.050353,-66.202003,-89.717453,66.263222,0.707808,-0.001220,-0.706401,0.001977
118,9.841405,-0.046825,0.023685,0.025601,0.063993,-0.061044,-65.448090,-89.718147,65.510590,0.707827,-0.001199,-0.706382,0.001969
120,9.841884,-0.045082,0.022003,0.016445,0.059432,-0.068663,-64.765297,-89.718147,64.828255,0.707845,-0.001184,-0.706364,0.001963
121,9.836759,-0.051032,0.017343,0.030179,0.054850,-0.054906,-64.378204,-89.718147,64.442108,0.707856,-0.001174,-0.706354,0.001962
122,9.839444,-0.054473,0.017399,0.045438,0.057883,-0.057905,-64.282036,-89.717453,64.347267,0.707861,-0.001171,-0.706348,0.001975
123,9.848066,-0.051533,0.015019,0.046963,0.044122,-0.059377,-64.290817,-89.716759,64.357422,0.707863,-0.001166,-0.706346,0.001989
124,9.845006,-0.049016,0.017006,0.042386,0.045618,-0.042555,-64.302826,-89.716759,64.370911,0.707863,-0.001158,-0.706346,0.001999
125,9.844020,-0.046709,0.016622,0.036282,0.047119,-0.034902,-64.237061,-89.717453,64.306679,0.707865,-0.001149,-0.706344,0.002006
127,9.843304,-0.050307,0.019991,0.022548,0.051679,-0.037928,-64.098663,-89.716072,64.169052,0.707870,-0.001144,-0.706339,0.002013
128,9.842880,-0.055081,0.020838,0.019496,0.040993,-0.040929,-63.971928,-89.714012,64.043404,0.707878,-0.001147,-0.706331,0.002025
129,9.835787,-0.053933,0.021188,0.033229,0.051673,-0.045446,-63.858124,-89.711967,63.930019,0.707886,-0.001152,-0.706322,0.002040
130,9.837955,-0.053782,0.020263,0.051540,0.057770,-0.049967,-63.686630,-89.710609,63.760345,0.707896,-0.001151,-0.706313,0.002056
131,9.839647,-0.062255,0.019228,0.060696,0.060809,-0.057518,-63.636147,-89.707916,63.710945,0.707904,-0.001152,-0.706304,0.002081
132,9.839952,-0.054940,0.015843,0.066798,0.063835,-0.051334,-63.698204,-89.705246,63.775295,0.707909,-0.001153,-0.706300,0.002107
134,9.841200,-0.050721,0.016580,0.069850,0.074480,-0.049763,-63.653172,-89.705917,63.732361,0.707912,-0.001142,-0.706297,0.002125
135,9.841642,-0.054915,0.014910,0.074428,0.074441,-0.049720,-63.601353,-89.703926,63.683266,0.707915,-0.001131,-0.706293,0.002143
136,9.842993,-0.055367,0.013128,0.080531,0.066762,-0.045087,-63.727200,-89.702606,63.811676,0.707914,-0.001122,-0.706294,0.002166
137,9.843174,-0.053139,0.015054,0.075953,0.060608,-0.038933,-63.880688,-89.702606,63.967743,0.707912,-0.001113,-0.706296,0.002189
138,9.837798,-0.053365,0.013993,0.092737,0.063614,-0.044992,-63.988480,-89.702606,64.078232,0.707911,-0.001100,-0.706298,0.002211
139,9.837438,-0.059441,0.011590,0.085108,0.062031,-0.041881,-64.244843,-89.701950,64.337669,0.707906,-0.001092,-0.706302,0.002239
141,9.835499,-0.050392,0.012498,0.045434,0.058919,-0.044881,-64.506462,-89.701294,64.601151,0.707900,-0.001085,-0.706308,0.002259
142,9.834016,-0.050282,0.015605,0.019492,0.063449,-0.054014,-64.523933,-89.701294,64.620140,0.707898,-0.001076,-0.706311,0.002262
143,9.837767,-0.046470,0.017834,0.045433,0.071047,-0.050951,-64.309616,-89.701950,64.406952,0.707902,-0.001062,-0.706307,0.002261
144,9.841117,-0.047444,0.019222,0.017966,0.069500,-0.049421,-63.962669,-89.702606,64.060646,0.707910,-0.001046,-0.706299,0.002259
145,9.838008,-0.040743,0.020477,0.011862,0.075589,-0.043330,-63.488235,-89.703926,63.586941,0.707920,-0.001030,-0.706288,0.002249
146,9.841090,-0.057430,0.022618,0.045432,0.084738,-0.040259,-63.042858,-89.703926,63.142475,0.707935,-0.001022,-0.706274,0.002252
147,9.842202,-0.055231,0.018054,0.050010,0.086249,-0.047826,-62.829979,-89.701294,62.931171,0.707948,-0.001022,-0.706261,0.002272
148,9.837717,-0.050667,0.016998,0.028646,0.083163,-0.047784,-62.682636,-89.699989,62.785103,0.707955,-0.001017,-0.706254,0.002283
149,9.839369,-0.050392,0.018595,0.046957,0.072447,-0.049282,-62.505791,-89.699333,62.609749,0.707960,-0.001008,-0.706248,0.002289
150,9.839816,-0.061583,0.015132,0.050009,0.067829,-0.059905,-62.548565,-89.698036,62.653671,0.707962,-0.001005,-0.706246,0.002306
151,9.839411,-0.049488,0.014737,0.039327,0.060148,-0.053745,-62.706062,-89.698036,62.812923,0.707959,-0.001001,-0.706249,0.002320
152,9.837472,-0.048127,0.014819,0.039327,0.049413,-0.039997,-62.775574,-89.698685,62.883530,0.707954,-0.000989,-0.706254,0.002324
153,9.838134,-0.052075,0.014358,0.031696,0.044782,-0.039973,-62.945541,-89.698685,63.054955,0.707947,-0.000980,-0.706261,0.002330
154,9.835684,-0.055045,0.012512,0.027118,0.055404,-0.035352,-63.244801,-89.699989,63.355267,0.707939,-0.000980,-0.706269,0.002341
155,9.837735,-0.043335,0.016862,0.030170,0.059931,-0.038386,-63.319691,-89.700638,63.431038,0.707936,-0.000972,-0.706272,0.002345
156,9.836094,-0.043038,0.013939,0.022540,0.069042,-0.052136,-63.137177,-89.702606,63.249489,0.707935,-0.000952,-0.706273,0.002336
157,9.835328,-0.049677,0.015386,0.033221,0.068992,-0.059764,-63.014877,-89.703926,63.127968,0.707934,-0.000936,-0.706274,0.002331
158,9.836916,-0.048968,0.012641,0.051531,0.078094,-0.061268,-62.967617,-89.704590,63.082485,0.707933,-0.000922,-0.706276,0.002334
160,9.836339,-0.046734,0.017326,0.050006,0.074995,-0.067357,-62.809940,-89.705917,62.926239,0.707934,-0.000902,-0.706275,0.002335
161,9.830209,-0.045916,0.017695,0.056109,0.070384,-0.055142,-62.519424,-89.707245,62.637283,0.707939,-0.000881,-0.706270,0.002336
162,9.827879,-0.045934,0.021389,0.078998,0.056630,-0.036825,-62.224426,-89.707916,62.344387,0.707945,-0.000860,-0.706263,0.002342
163,9.828002,-0.043621,0.018855,0.092732,0.068818,-0.023091,-61.936256,-89.708588,62.059544,0.707952,-0.000836,-0.706256,0.002354
164,9.827318,-0.049083,0.021868,0.101887,0.062697,-0.021553,-61.697556,-89.708588,61.823986,0.707960,-0.000815,-0.706248,0.002373
165,9.827738,-0.051186,0.019711,0.118672,0.056576,-0.015415,-61.599751,-89.705917,61.730103,0.707967,-0.000799,-0.706241,0.002402
166,9.830818,-0.056833,0.019418,0.118672,0.048920,-0.016885,-61.723457,-89.703262,61.857300,0.707970,-0.000789,-0.706238,0.002440
167,9.832175,-0.064631,0.015964,0.095782,0.054987,-0.025948,-62.100327,-89.699989,62.237419,0.707969,-0.000791,-0.706239,0.002487
168,9.834098,-0.067024,0.018053,0.089677,0.048842,-0.024302,-62.609135,-89.696098,62.749371,0.707967,-0.000804,-0.706241,0.002538
169,9.836568,-0.059674,0.013984,0.072892,0.038113,-0.022675,-63.120113,-89.692261,63.263130,0.707961,-0.000814,-0.706246,0.002580
170,9.834340,-0.067484,0.018300,0.056107,0.036541,-0.024102,-63.630745,-89.688469,63.775879,0.707955,-0.000826,-0.706252,0.002619
171,9.836380,-0.065597,0.016284,0.048478,0.033451,-0.025517,-64.128853,-89.684723,64.275719,0.707950,-0.000845,-0.706257,0.002659
172,9.839893,-0.066298,0.022857,0.062210,0.039531,-0.026941,-64.458572,-89.680405,64.607323,0.707950,-0.000859,-0.706257,0.002696
173,9.841014,-0.060574,0.022744,0.050003,0.034948,-0.032961,-64.540787,-89.678574,64.691849,0.707956,-0.000868,-0.706250,0.002727
174,9.838341,-0.059913,0.024622,0.048477,0.042578,-0.039004,-64.475639,-89.676147,64.628387,0.707964,-0.000869,-0.706243,0.002749
175,9.842241,-0.051837,0.020457,0.048477,0.048674,-0.032867,-64.331764,-89.674942,64.485695,0.707971,-0.000862,-0.706236,0.002762
176,9.839479,-0.052580,0.021493,0.021010,0.059337,-0.029804,-64.151520,-89.675545,64.306976,0.707977,-0.000852,-0.706230,0.002766
177,9.838037,-0.051973,0.012668,0.019483,0.050140,-0.028267,-64.163025,-89.676147,64.318779,0.707975,-0.000845,-0.706232,0.002767
178,9.832575,-0.057072,0.014027,0.011853,0.045498,-0.035872,-64.431038,-89.676147,64.587357,0.707965,-0.000843,-0.706242,0.002771
179,9.835760,-0.061900,0.013975,-0.003407,0.051541,-0.037344,-64.756683,-89.675545,64.913467,0.707957,-0.000851,-0.706250,0.002781
180,9.836513,-0.057682,0.015907,-0.000355,0.054541,-0.040341,-65.000252,-89.674339,65.156395,0.707951,-0.000861,-0.706255,0.002790
181,9.838573,-0.055283,0.020398,0.037792,0.049932,-0.034203,-65.015854,-89.674339,65.172447,0.707952,-0.000860,-0.706254,0.002796
182,9.840678,-0.049030,0.026449,0.037792,0.051455,-0.023514,-64.715698,-89.673744,64.873856,0.707962,-0.000849,-0.706244,0.002801
183,9.845184,-0.043374,0.024228,0.042371,0.056042,-0.025067,-64.198692,-89.674339,64.358040,0.707976,-0.000827,-0.706231,0.002796
184,9.846250,-0.046351,0.028231,0.056104,0.048425,-0.028152,-63.629177,-89.675545,63.789970,0.707990,-0.000801,-0.706216,0.002790
185,9.843746,-0.048370,0.029275,0.068310,0.043871,-0.028169,-63.052570,-89.676147,63.216187,0.708007,-0.000778,-0.706199,0.002792
186,9.844451,-0.048641,0.022057,0.057629,0.039297,-0.040383,-62.679882,-89.677361,62.845154,0.708017,-0.000755,-0.706189,0.002795
187,9.841920,-0.052210,0.018042,0.050000,0.036214,-0.055637,-62.615143,-89.678574,62.782478,0.708015,-0.000736,-0.706191,0.002798
188,9.840929,-0.052674,0.020797,0.065259,0.040757,-0.051040,-62.619328,-89.679184,62.788544,0.708012,-0.000719,-0.706194,0.002805
189,9.835907,-0.049424,0.016601,0.068310,0.048347,-0.044926,-62.607517,-89.680405,62.778767,0.708010,-0.000699,-0.706197,0.002812
190,9.836851,-0.052811,0.012528,0.043895,0.046759,-0.058646,-62.764473,-89.682251,62.937172,0.708000,-0.000681,-0.706206,0.002817
191,9.833214,-0.058236,0.012354,0.043895,0.057366,-0.057080,-63.082775,-89.682251,63.257393,0.707988,-0.000672,-0.706219,0.002826
192,9.834163,-0.059831,0.014664,0.053049,0.061878,-0.052441,-63.391819,-89.682861,63.567814,0.707980,-0.000670,-0.706227,0.002843
193,9.833723,-0.059512,0.011522,0.046946,0.054181,-0.053903,-63.730125,-89.682251,63.907944,0.707971,-0.000668,-0.706235,0.002862
194,9.836085,-0.065982,0.012061,0.045418,0.049530,-0.043142,-64.228722,-89.681023,64.408386,0.707959,-0.000674,-0.706247,0.002886
195,9.842569,-0.065056,0.010369,0.036263,0.047929,-0.039995,-64.825035,-89.679184,65.005455,0.707946,-0.000686,-0.706260,0.002915
196,9.848252,-0.058788,0.009133,0.036263,0.049374,-0.047554,-65.372383,-89.678574,65.554169,0.707931,-0.000692,-0.706275,0.002935
197,9.845804,-0.055573,0.009443,0.027106,0.038611,-0.042937,-65.831528,-89.679184,66.014336,0.707915,-0.000688,-0.706291,0.002945
198,9.846961,-0.057033,0.013927,0.010320,0.046175,-0.036799,-66.157944,-89.679184,66.341225,0.707903,-0.000687,-0.706303,0.002951
199,9.843958,-0.047664,0.013490,0.004217,0.036968,-0.053574,-66.278374,-89.680405,66.462212,0.707896,-0.000679,-0.706310,0.002946
200,9.837652,-0.042084,0.013001,0.033209,0.053701,-0.045977,-66.221703,-89.684097,66.406258,0.707889,-0.000655,-0.706317,0.002929
201,9.835439,-0.040133,0.015006,0.036261,0.039921,-0.030770,-66.064224,-89.687843,66.249931,0.707885,-0.000624,-0.706322,0.002912
202,9.834406,-0.041331,0.012941,0.062201,0.045979,-0.041503,-65.928261,-89.692261,66.115143,0.707879,-0.000590,-0.706327,0.002899
203,9.836327,-0.045864,0.008767,0.083564,0.058122,-0.041533,-65.948708,-89.695457,66.138191,0.707871,-0.000558,-0.706336,0.002896
204,9.836542,-0.045963,0.010579,0.091193,0.071786,-0.032391,-66.021545,-89.697388,66.214363,0.707863,-0.000528,-0.706344,0.002902
205,9.840225,-0.039229,0.014729,0.069831,0.062581,-0.027844,-65.871613,-89.698685,66.066956,0.707861,-0.000496,-0.706346,0.002903
206,9.843096,-0.040905,0.016833,0.060676,0.062549,-0.030939,-65.535004,-89.701294,65.732582,0.707864,-0.000463,-0.706342,0.002897
207,9.845054,-0.036552,0.018185,0.039312,0.064054,-0.023358,-65.087112,-89.703926,65.286385,0.707871,-0.000432,-0.706336,0.002887
208,9.841681,-0.035914,0.018604,0.049994,0.044199,-0.026468,-64.605499,-89.707245,64.806175,0.707877,-0.000400,-0.706330,0.002872
209,9.845945,-0.041416,0.019297,0.069831,0.031977,-0.031088,-64.253288,-89.709259,64.455620,0.707880,-0.000368,-0.706327,0.002866
210,9.843169,-0.046951,0.017692,0.092721,0.015173,-0.050932,-64.129608,-89.710609,64.334732,0.707879,-0.000341,-0.706328,0.002872
211,9.837473,-0.044715,0.019873,0.094246,0.016682,-0.052452,-64.059761,-89.714012,64.268242,0.707877,-0.000313,-0.706330,0.002883
212,9.838347,-0.047952,0.020619,0.075935,0.015148,-0.058545,-63.916447,-89.713326,64.127563,0.707878,-0.000288,-0.706329,0.002892
213,9.839776,-0.048036,0.021369,0.057623,0.024300,-0.060050,-63.748951,-89.714012,63.962326,0.707881,-0.000268,-0.706326,0.002900
214,9.833896,-0.045138,0.018966,0.019475,0.033447,-0.070717,-63.524651,-89.716759,63.739262,0.707884,-0.000251,-0.706323,0.002899
215,9.839296,-0.054924,0.019808,0.007269,0.048693,-0.067629,-63.356441,-89.716759,63.571491,0.707888,-0.000246,-0.706318,0.002898
216,9.840817,-0.057595,0.016588,0.002689,0.050197,-0.067556,-63.377090,-89.714691,63.592461,0.707892,-0.000253,-0.706315,0.002908
217,9.841104,-0.060503,0.016238,0.027103,0.045587,-0.062891,-63.581539,-89.712646,63.797321,0.707892,-0.000264,-0.706315,0.002925
218,9.842986,-0.057560,0.015783,0.028629,0.039448,-0.065855,-63.831467,-89.709930,64.048386,0.707890,-0.000272,-0.706317,0.002944
219,9.844902,-0.059719,0.018113,0.045413,0.039419,-0.052040,-64.043999,-89.707916,64.261528,0.707889,-0.000278,-0.706318,0.002965
220,9.836644,-0.047917,0.013839,0.051517,0.042436,-0.038255,-64.201515,-89.707916,64.420425,0.707886,-0.000274,-0.706320,0.002981
221,9.838882,-0.045890,0.014599,0.054570,0.040865,-0.033667,-64.290085,-89.707916,64.511612,0.707881,-0.000259,-0.706325,0.002988
222,9.840255,-0.046354,0.011250,0.027102,0.048443,-0.036714,-64.407852,-89.710609,64.630249,0.707874,-0.000245,-0.706332,0.002990
223,9.834754,-0.048544,0.012481,0.019472,0.057541,-0.021441,-64.575745,-89.711967,64.799088,0.707868,-0.000239,-0.706339,0.002993
224,9.833933,-0.047760,0.010415,-0.001892,0.059009,-0.027526,-64.758080,-89.711967,64.981392,0.707862,-0.000238,-0.706345,0.002996
225,9.840057,-0.055107,0.008494,-0.052248,0.058940,-0.042747,-65.083801,-89.711288,65.306450,0.707853,-0.000248,-0.706354,0.002995
226,9.834586,-0.059277,0.009609,-0.041566,0.068025,-0.045728,-65.504562,-89.710609,65.726105,0.707844,-0.000271,-0.706362,0.002998
227,9.836122,-0.058890,0.010841,0.001159,0.072542,-0.036492,-65.853065,-89.708588,66.073265,0.707839,-0.000291,-0.706367,0.003010
228,9.837708,-0.053613,0.012063,0.028625,0.067910,-0.059319,-66.029915,-89.706581,66.250389,0.707837,-0.000297,-0.706369,0.003022
229,9.837621,-0.048601,0.013256,0.065247,0.061761,-0.059289,-66.013000,-89.706581,66.235291,0.707836,-0.000285,-0.706370,0.003029
230,9.833692,-0.048512,0.019813,0.130863,0.054108,-0.044016,-65.790497,-89.707245,66.016472,0.707841,-0.000259,-0.706365,0.003042
231,9.838306,-0.049033,0.016041,0.120180,0.047990,-0.057733,-65.550354,-89.709259,65.780090,0.707847,-0.000227,-0.706359,0.003063
232,9.839297,-0.044116,0.017374,0.107973,0.044914,-0.072987,-65.319176,-89.709930,65.552811,0.707850,-0.000192,-0.706357,0.003074
233,9.838318,-0.053260,0.010989,0.072876,0.050979,-0.072969,-65.251610,-89.711967,65.488129,0.707847,-0.000164,-0.706359,0.003083
234,9.839127,-0.057566,0.008964,0.048461,0.052441,-0.068332,-65.557571,-89.711967,65.795822,0.707839,-0.000155,-0.706367,0.003099
235,9.842115,-0.061149,0.004567,0.033201,0.058464,-0.074353,-66.095383,-89.711967,66.335022,0.707825,-0.000158,-0.706381,0.003118
236,9.841465,-0.059633,0.006722,0.045408,0.066008,-0.051377,-66.671425,-89.708588,66.912636,0.707811,-0.000164,-0.706395,0.003140
237,9.835114,-0.060101,0.006969,0.028623,0.064406,-0.034510,-67.175194,-89.707245,67.417625,0.707801,-0.000173,-0.706405,0.003164
238,9.840502,-0.055197,0.011033,0.033200,0.058240,-0.020710,-67.546326,-89.705246,67.789513,0.707794,-0.000181,-0.706411,0.003185
239,9.839218,-0.052927,0.006305,0.053037,0.065807,-0.013036,-67.855118,-89.703926,68.099731,0.707788,-0.000183,-0.706418,0.003204
240,9.839641,-0.045665,0.011599,0.049985,0.058117,-0.013022,-68.040962,-89.705246,68.287476,0.707782,-0.000174,-0.706424,0.003216
241,9.838119,-0.041375,0.013249,0.053036,0.048922,-0.026778,-67.943001,-89.707245,68.191078,0.707781,-0.000152,-0.706425,0.003216
242,9.837996,-0.039180,0.011193,0.077451,0.050409,-0.029869,-67.784447,-89.710609,68.035118,0.707779,-0.000121,-0.706427,0.003212
243,9.833946,-0.041928,0.012090,0.097288,0.053418,-0.029904,-67.646912,-89.711288,67.900208,0.707777,-0.000086,-0.706429,0.003213
244,9.834532,-0.045723,0.016930,0.077451,0.051867,-0.043649,-67.413048,-89.713326,67.669556,0.707780,-0.000057,-0.706426,0.003219
245,9.830240,-0.050731,0.011681,0.075925,0.057944,-0.042109,-67.267616,-89.714691,67.526329,0.707783,-0.000037,-0.706423,0.003230
246,9.835204,-0.055978,0.013470,0.068295,0.059433,-0.039011,-67.321045,-89.713326,67.582458,0.707783,-0.000028,-0.706422,0.003251
247,9.835458,-0.058061,0.014563,0.053035,0.050248,-0.040469,-67.407440,-89.711288,67.670570,0.707786,-0.000028,-0.706420,0.003276
248,9.837739,-0.051371,0.016157,0.034724,0.042597,-0.040417,-67.417236,-89.709930,67.682014,0.707789,-0.000027,-0.706417,0.003293
249,9.840224,-0.046339,0.013419,0.043880,0.051727,-0.034297,-67.328362,-89.709930,67.594299,0.707790,-0.000016,-0.706415,0.003298
250,9.841831,-0.038469,0.019095,0.057613,0.056287,-0.029740,-66.991035,-89.711967,67.258430,0.707796,0.000007,-0.706409,0.003295
251,9.837949,-0.042046,0.017466,0.075924,0.054755,-0.029773,-66.500336,-89.713326,66.770325,0.707806,0.000037,-0.706399,0.003293
252,9.844266,-0.039251,0.017213,0.062191,0.054742,-0.031327,-66.085938,-89.714012,66.358398,0.707813,0.000066,-0.706392,0.003292
253,9.844329,-0.035060,0.017084,0.049984,0.060831,-0.049684,-65.569237,-89.716759,65.843330,0.707820,0.000101,-0.706385,0.003281
254,9.843541,-0.032960,0.019837,0.045406,0.040985,-0.051272,-64.929985,-89.720238,65.205406,0.707828,0.000140,-0.706377,0.003261
255,9.841661,-0.037352,0.012943,0.027094,0.034859,-0.065056,-64.505203,-89.724464,64.782310,0.707829,0.000175,-0.706376,0.003241
256,9.840466,-0.030151,0.013990,0.019465,0.042449,-0.054428,-64.214050,-89.730202,64.491722,0.707825,0.000208,-0.706380,0.003217
257,9.831265,-0.030162,0.020452,0.030146,0.045482,-0.054498,-63.601463,-89.735329,63.879662,0.707829,0.000246,-0.706377,0.003189
258,9.830058,-0.036482,0.018877,0.056087,0.034798,-0.036234,-62.997578,-89.736816,63.277039,0.707836,0.000279,-0.706369,0.003174
259,9.827908,-0.041380,0.023308,0.037776,0.040906,-0.040821,-62.536201,-89.738304,62.817650,0.707845,0.000299,-0.706360,0.003173
260,9.828699,-0.037180,0.022469,0.030146,0.037868,-0.028618,-62.012611,-89.738304,62.295620,0.707857,0.000315,-0.706348,0.003172
261,9.831223,-0.033554,0.018289,0.019465,0.025656,-0.027119,-61.607555,-89.739807,61.890877,0.707863,0.000333,-0.706343,0.003163
263,9.834393,-0.037280,0.009798,0.022517,0.027141,-0.031719,-61.612103,-89.743591,61.896347,0.707856,0.000351,-0.706350,0.003154
264,9.834512,-0.040629,0.013182,0.019465,0.043871,-0.036298,-61.805641,-89.745125,62.090523,0.707846,0.000363,-0.706360,0.003151
265,9.839685,-0.038345,0.009535,0.056087,0.043815,-0.033242,-61.962959,-89.746666,62.249084,0.707838,0.000376,-0.706368,0.003153
266,9.842976,-0.047787,0.015280,0.066768,0.052922,-0.028639,-62.144165,-89.746666,62.431850,0.707833,0.000387,-0.706373,0.003167
267,9.843365,-0.054613,0.020002,0.060664,0.069691,-0.043824,-62.157703,-89.742828,62.448124,0.707840,0.000385,-0.706365,0.003195
268,9.843724,-0.055068,0.020491,0.059137,0.077319,-0.039154,-62.031933,-89.739052,62.324207,0.707855,0.000377,-0.706351,0.003227
269,9.844810,-0.050660,0.015560,0.054559,0.074251,-0.028394,-61.990147,-89.737556,62.284012,0.707865,0.000372,-0.706340,0.003256
270,9.840034,-0.050065,0.013664,0.036248,0.074212,-0.031385,-62.089668,-89.735329,62.385098,0.707869,0.000368,-0.706337,0.003278
271,9.835823,-0.045861,0.010445,0.049981,0.072632,-0.038970,-62.244694,-89.732391,62.541321,0.707867,0.000370,-0.706338,0.003294
272,9.833934,-0.045218,0.007758,0.062188,0.064930,-0.048096,-62.489704,-89.734589,62.788673,0.707859,0.000382,-0.706346,0.003305
273,9.834656,-0.043934,0.006323,0.065239,0.048063,-0.049598,-62.870789,-89.734589,63.171989,0.707845,0.000398,-0.706360,0.003315
274,9.832913,-0.040583,0.007489,0.068291,0.038826,-0.046537,-63.271336,-89.737556,63.574120,0.707829,0.000418,-0.706376,0.003322
275,9.831992,-0.045127,0.009410,0.068290,0.034177,-0.040418,-63.647934,-89.739052,63.953281,0.707815,0.000437,-0.706390,0.003331
276,9.835913,-0.042608,0.009355,0.063712,0.031063,-0.041924,-64.016182,-89.740555,64.323654,0.707802,0.000452,-0.706403,0.003343
277,9.837873,-0.052015,0.007242,0.065237,0.034048,-0.026623,-64.549469,-89.740555,64.859055,0.707788,0.000460,-0.706417,0.003362
278,9.838123,-0.053171,0.007731,0.074393,0.044661,-0.029603,-65.222923,-89.739052,65.534821,0.707775,0.000458,-0.706430,0.003392
279,9.841564,-0.060198,0.008773,0.066763,0.047649,-0.044769,-65.848953,-89.736069,66.162933,0.707765,0.000451,-0.706440,0.003428
280,9.845775,-0.054750,0.010766,0.071339,0.053701,-0.055355,-66.298553,-89.735329,66.614944,0.707759,0.000446,-0.706445,0.003461
281,9.842340,-0.058071,0.011193,0.054554,0.047554,-0.055269,-66.604279,-89.733124,66.923027,0.707756,0.000444,-0.706448,0.003489
282,9.843393,-0.050466,0.013847,0.043872,0.038365,-0.067406,-66.780716,-89.730934,67.100769,0.707754,0.000445,-0.706450,0.003508
283,9.842203,-0.050724,0.013464,0.031665,0.035286,-0.050574,-66.836487,-89.730934,67.157631,0.707753,0.000450,-0.706451,0.003519
284,9.838777,-0.045553,0.013270,0.046923,0.036783,-0.039860,-66.887825,-89.731659,67.210403,0.707752,0.000457,-0.706452,0.003527
285,9.833574,-0.050310,0.012945,0.053027,0.039805,-0.038303,-66.946602,-89.730934,67.271172,0.707751,0.000466,-0.706453,0.003539
286,9.835214,-0.045059,0.010433,0.053027,0.045871,-0.029118,-67.063644,-89.731659,67.389442,0.707748,0.000475,-0.706456,0.003552
287,9.835877,-0.042476,0.011765,0.054553,0.051933,-0.015379,-67.106079,-89.731659,67.433960,0.707745,0.000489,-0.706459,0.003560
288,9.838394,-0.047282,0.016642,0.053027,0.056489,-0.019944,-66.973717,-89.731659,67.303833,0.707750,0.000499,-0.706454,0.003571
289,9.837000,-0.045828,0.012034,0.016405,0.064097,-0.033654,-66.813278,-89.731659,67.143967,0.707755,0.000505,-0.706449,0.003580
290,9.835962,-0.045637,0.008881,-0.004958,0.070155,-0.022956,-66.809479,-89.729477,67.140259,0.707755,0.000506,-0.706449,0.003581
291,9.832299,-0.045673,0.013635,0.011828,0.060959,-0.016835,-66.799858,-89.729477,67.131096,0.707756,0.000506,-0.706448,0.003583
292,9.825263,-0.042703,0.008077,0.011828,0.060916,-0.019878,-66.810951,-89.729477,67.142456,0.707755,0.000509,-0.706449,0.003584
293,9.822877,-0.039056,0.003567,0.010300,0.051687,-0.035148,-67.034660,-89.731659,67.366516,0.707744,0.000521,-0.706459,0.003577
294,9.828753,-0.044031,0.008505,0.027085,0.031779,-0.032101,-67.338531,-89.734589,67.670746,0.707731,0.000533,-0.706473,0.003572
295,9.830800,-0.045731,0.009510,0.036241,0.017995,-0.032086,-67.655594,-89.735329,67.989029,0.707721,0.000542,-0.706483,0.003576
296,9.836157,-0.055033,0.013003,0.034714,0.021011,-0.044246,-67.977249,-89.734589,68.312279,0.707713,0.000542,-0.706490,0.003591
297,9.841314,-0.058750,0.016599,0.037766,0.020997,-0.042635,-68.202888,-89.732391,68.539566,0.707713,0.000532,-0.706491,0.003615
298,9.844155,-0.059718,0.020148,0.028610,0.025581,-0.036435,-68.255173,-89.728035,68.592636,0.707720,0.000517,-0.706483,0.003644
299,9.838553,-0.052615,0.019187,0.034714,0.033225,-0.027203,-68.138374,-89.724464,68.476166,0.707730,0.000507,-0.706473,0.003667
300,9.839458,-0.049450,0.019920,0.045395,0.027133,-0.025634,-67.925865,-89.724464,68.265045,0.707740,0.000507,-0.706463,0.003683
301,9.841910,-0.047583,0.014055,0.049974,0.042388,-0.019505,-67.789719,-89.723755,68.130455,0.707746,0.000514,-0.706457,0.003696
302,9.839988,-0.048310,0.015106,0.062181,0.048472,-0.017957,-67.723137,-89.720932,68.066208,0.707749,0.000522,-0.706454,0.003711
303,9.842154,-0.047580,0.013818,0.071336,0.046925,-0.020988,-67.653511,-89.720238,67.998360,0.707752,0.000533,-0.706451,0.003727
304,9.844213,-0.053969,0.010134,0.071335,0.054518,-0.031632,-67.751228,-89.720238,68.098526,0.707752,0.000542,-0.706451,0.003748
305,9.845851,-0.055134,0.005707,0.065231,0.065140,-0.026995,-68.089958,-89.719536,68.439857,0.707745,0.000544,-0.706458,0.003774
306,9.843746,-0.048899,0.004209,0.039291,0.058959,-0.042213,-68.495522,-89.719536,68.847130,0.707734,0.000549,-0.706468,0.003790
307,9.844760,-0.048038,0.007961,0.028608,0.061943,-0.043719,-68.733376,-89.720238,69.086273,0.707725,0.000558,-0.706477,0.003794
308,9.841851,-0.043916,0.006091,0.016401,0.064933,-0.042187,-68.831787,-89.720932,69.184845,0.707720,0.000570,-0.706483,0.003792
309,9.843837,-0.039284,0.013710,0.025557,0.058785,-0.031524,-68.693573,-89.724464,69.047348,0.707719,0.000587,-0.706484,0.003783
310,9.840968,-0.043850,0.017645,0.027083,0.058775,-0.039172,-68.250793,-89.725174,68.605820,0.707728,0.000606,-0.706475,0.003775
311,9.839130,-0.042940,0.019538,0.045394,0.048100,-0.022392,-67.743652,-89.725174,68.099693,0.707741,0.000621,-0.706462,0.003775
312,9.837349,-0.039746,0.015160,0.025557,0.032838,-0.028510,-67.379562,-89.726601,67.736382,0.707749,0.000638,-0.706454,0.003772
313,9.836485,-0.045126,0.013830,0.053023,0.038922,-0.013258,-67.260475,-89.727318,67.619423,0.707750,0.000653,-0.706453,0.003774
314,9.830597,-0.053380,0.014585,0.060653,0.035847,-0.014750,-67.338661,-89.725891,67.699692,0.707750,0.000657,-0.706452,0.003793
315,9.836045,-0.050817,0.016727,0.057601,0.031254,-0.014700,-67.424355,-89.722343,67.787148,0.707752,0.000656,-0.706450,0.003818
316,9.838238,-0.056225,0.019671,0.049972,0.026676,-0.020747,-67.418617,-89.720238,67.782845,0.707758,0.000653,-0.706444,0.003842
317,9.841909,-0.053591,0.020214,0.074387,0.026685,0.000679,-67.382149,-89.717453,67.748451,0.707767,0.000649,-0.706436,0.003873
318,9.842972,-0.051136,0.018902,0.068283,0.012958,-0.011483,-67.363823,-89.714691,67.732437,0.707772,0.000651,-0.706430,0.003900
319,9.844515,-0.050814,0.011096,0.045394,0.019040,-0.016026,-67.564056,-89.713326,67.935211,0.707769,0.000654,-0.706433,0.003920
320,9.837766,-0.054565,0.008933,0.051496,0.015937,-0.011405,-68.057587,-89.714012,68.430107,0.707757,0.000654,-0.706445,0.003940
321,9.835401,-0.056707,0.008775,0.051496,0.028089,-0.008294,-68.635887,-89.712646,69.009911,0.707744,0.000648,-0.706458,0.003967
322,9.835401,-0.060465,0.004083,0.039289,0.029545,-0.034161,-69.305565,-89.711288,69.680595,0.707728,0.000639,-0.706473,0.003994
323,9.837935,-0.060712,0.011601,0.031659,0.038643,-0.038656,-69.831306,-89.708588,70.207985,0.707717,0.000628,-0.706484,0.004020
324,9.836049,-0.056311,0.013486,0.042340,0.044718,-0.034010,-69.984200,-89.705917,70.362137,0.707717,0.000622,-0.706484,0.004041
325,9.837568,-0.053490,0.013387,0.042340,0.055377,-0.033966,-69.955406,-89.704590,70.334702,0.707720,0.000624,-0.706481,0.004056
326,9.839868,-0.049875,0.008238,0.049969,0.053813,-0.029364,-69.978424,-89.704590,70.359604,0.707720,0.000633,-0.706481,0.004066
327,9.836907,-0.051105,0.006861,0.065227,0.059859,-0.020193,-70.153458,-89.705246,70.536118,0.707714,0.000645,-0.706487,0.004078
328,9.831803,-0.052960,0.005085,0.065226,0.059793,-0.014064,-70.434868,-89.704590,70.820061,0.707705,0.000654,-0.706495,0.004095
329,9.835523,-0.047977,0.008396,0.054545,0.059733,-0.023203,-70.631859,-89.705246,71.018303,0.707699,0.000665,-0.706502,0.004109
330,9.840462,-0.043560,0.010765,0.051493,0.053586,-0.027793,-70.580467,-89.705917,70.968910,0.707698,0.000685,-0.706503,0.004110
331,9.839599,-0.044719,0.013645,0.062175,0.055085,-0.047651,-70.341347,-89.708588,70.731621,0.707701,0.000711,-0.706500,0.004108
332,9.842492,-0.042995,0.019237,0.053019,0.050505,-0.053776,-69.851555,-89.710609,70.244240,0.707711,0.000739,-0.706490,0.004103
333,9.844475,-0.038769,0.018902,0.051493,0.045940,-0.053811,-69.191696,-89.713326,69.585968,0.707725,0.000772,-0.706476,0.004092
334,9.843976,-0.045417,0.018426,0.060649,0.042896,-0.040104,-68.639229,-89.715378,69.034836,0.707736,0.000801,-0.706465,0.004086
335,9.839381,-0.041554,0.017370,0.054545,0.042897,-0.047747,-68.197319,-89.716072,68.595352,0.707745,0.000826,-0.706455,0.004084
336,9.836880,-0.037503,0.020690,0.045389,0.042903,-0.030996,-67.638863,-89.718842,68.037880,0.707756,0.000855,-0.706445,0.004076
337,9.831463,-0.040599,0.025419,0.031656,0.042931,-0.017298,-66.907005,-89.720238,67.307594,0.707774,0.000879,-0.706427,0.004068
338,9.833413,-0.043120,0.025701,0.039286,0.053652,-0.021891,-66.109894,-89.720238,66.511894,0.707796,0.000895,-0.706405,0.004067
339,9.832273,-0.042940,0.021341,0.037760,0.052152,-0.034105,-65.440689,-89.719536,65.843895,0.707815,0.000910,-0.706386,0.004067
340,9.833952,-0.042332,0.020647,0.042338,0.061315,-0.035638,-64.890556,-89.720238,65.295372,0.707829,0.000928,-0.706372,0.004066
341,9.832784,-0.052368,0.020046,0.045390,0.062841,-0.050876,-64.467857,-89.719536,64.873421,0.707842,0.000939,-0.706359,0.004072
342,9.828864,-0.044371,0.009472,0.062175,0.067385,-0.066107,-64.332291,-89.720932,64.740150,0.707845,0.000954,-0.706356,0.004080
343,9.826266,-0.045133,0.007378,0.062175,0.062734,-0.058470,-64.446793,-89.723045,64.856636,0.707836,0.000977,-0.706365,0.004082
344,9.829544,-0.046187,0.014068,0.071329,0.064202,-0.059982,-64.479950,-89.724464,64.892540,0.707831,0.000998,-0.706369,0.004088
345,9.830109,-0.049224,0.011072,0.057596,0.056527,-0.056902,-64.485901,-89.725891,64.899658,0.707829,0.001015,-0.706371,0.004098
346,9.832585,-0.047192,0.011956,0.051491,0.054949,-0.046189,-64.608932,-89.725891,65.025154,0.707824,0.001027,-0.706376,0.004108
347,9.840194,-0.056555,0.017297,0.051491,0.056441,-0.036981,-64.685051,-89.725174,65.102432,0.707825,0.001030,-0.706375,0.004126
348,9.842275,-0.049427,0.015632,0.053016,0.054893,-0.038448,-64.693855,-89.720932,65.113075,0.707830,0.001030,-0.706370,0.004147
349,9.840090,-0.047952,0.016071,0.039283,0.050288,-0.027734,-64.659485,-89.722343,65.080826,0.707832,0.001037,-0.706367,0.004160
350,9.843365,-0.055075,0.020485,0.039283,0.053327,-0.023110,-64.593864,-89.719536,65.015892,0.707839,0.001035,-0.706361,0.004177
351,9.842155,-0.051279,0.017442,0.054542,0.056369,-0.026104,-64.520988,-89.717453,64.944984,0.707847,0.001032,-0.706352,0.004199
352,9.841515,-0.048843,0.017907,0.045387,0.054825,-0.036750,-64.417152,-89.716759,64.842896,0.707853,0.001038,-0.706347,0.004214
353,9.841645,-0.051273,0.019602,0.017921,0.050234,-0.041292,-64.257805,-89.716072,64.684380,0.707860,0.001042,-0.706340,0.004223
354,9.847635,-0.054686,0.014777,0.005713,0.059366,-0.044293,-64.238190,-89.714691,64.665161,0.707864,0.001037,-0.706336,0.004233
355,9.841095,-0.051655,0.016459,0.014868,0.057807,-0.042715,-64.285416,-89.713326,64.712776,0.707865,0.001032,-0.706334,0.004242
356,9.843197,-0.055461,0.015783,0.005712,0.057776,-0.044189,-64.319870,-89.711967,64.747543,0.707867,0.001027,-0.706332,0.004251
357,9.842106,-0.051716,0.021419,0.004186,0.060811,-0.033456,-64.230247,-89.710609,64.658043,0.707874,0.001020,-0.706325,0.004260
358,9.841347,-0.052811,0.016828,0.027074,0.073003,-0.031887,-64.055977,-89.709259,64.484283,0.707884,0.001016,-0.706316,0.004270
359,9.835980,-0.044661,0.015146,0.043860,0.074495,-0.036444,-63.916241,-89.708588,64.346077,0.707888,0.001024,-0.706311,0.004276
360,9.837923,-0.044752,0.013494,0.062171,0.072924,-0.028817,-63.771851,-89.709930,64.203636,0.707889,0.001042,-0.706310,0.004280
361,9.837100,-0.037435,0.013463,0.049964,0.065243,-0.036470,-63.613026,-89.711967,64.046364,0.707888,0.001068,-0.706311,0.004277
362,9.837218,-0.043155,0.010826,0.046911,0.057556,-0.036496,-63.542164,-89.714691,63.976780,0.707883,0.001093,-0.706316,0.004272
363,9.834182,-0.046890,0.017408,0.053015,0.054458,-0.039544,-63.523537,-89.715378,63.959938,0.707880,0.001110,-0.706319,0.004275
364,9.833799,-0.045499,0.017639,0.066749,0.043750,-0.030375,-63.410378,-89.716072,63.848518,0.707882,0.001126,-0.706316,0.004284
366,9.833995,-0.041891,0.017152,0.051489,0.042199,-0.033428,-63.287594,-89.717453,63.727673,0.707883,0.001145,-0.706316,0.004289
367,9.834450,-0.047016,0.015485,0.056068,0.048269,-0.022743,-63.241890,-89.716072,63.683952,0.707882,0.001160,-0.706316,0.004296
368,9.836264,-0.051210,0.010104,0.063696,0.046690,-0.027288,-63.507225,-89.716759,63.951077,0.707876,0.001168,-0.706323,0.004313
369,9.838574,-0.057370,0.005339,0.045385,0.042030,-0.021123,-64.187065,-89.716072,64.632370,0.707859,0.001165,-0.706339,0.004338
370,9.839087,-0.062693,0.008373,0.031652,0.048048,-0.030183,-65.018692,-89.713326,65.466232,0.707842,0.001149,-0.706357,0.004369
371,9.838294,-0.063078,0.005467,0.039280,0.046440,-0.037706,-65.828255,-89.711288,66.276176,0.707826,0.001130,-0.706372,0.004403
372,9.836223,-0.058647,0.011927,0.051486,0.029585,-0.034562,-66.492447,-89.708588,66.942001,0.707812,0.001118,-0.706386,0.004433
373,9.839171,-0.054115,0.019322,0.063694,0.040240,-0.029922,-66.678467,-89.706581,67.130363,0.707811,0.001117,-0.706387,0.004457
374,9.839107,-0.051425,0.021243,0.083531,0.037190,-0.029884,-66.502975,-89.705917,66.957008,0.707820,0.001127,-0.706378,0.004478
375,9.838900,-0.051214,0.018708,0.083531,0.029559,-0.031382,-66.340118,-89.705246,66.797073,0.707826,0.001142,-0.706372,0.004497
376,9.837632,-0.052420,0.016278,0.077427,0.043276,-0.035929,-66.299751,-89.703926,66.758972,0.707828,0.001156,-0.706369,0.004516
377,9.835779,-0.053181,0.012389,0.068271,0.055448,-0.043523,-66.358749,-89.703926,66.820717,0.707828,0.001168,-0.706370,0.004534
378,9.832028,-0.050868,0.004001,0.045381,0.050798,-0.051121,-66.674454,-89.704590,67.137970,0.707816,0.001179,-0.706381,0.004546
379,9.831545,-0.047694,0.009649,0.043856,0.047668,-0.054158,-67.003792,-89.706581,67.469002,0.707802,0.001195,-0.706395,0.004548
380,9.829541,-0.043529,0.011532,0.060641,0.043036,-0.054164,-67.060081,-89.708588,67.526802,0.707795,0.001219,-0.706402,0.004546
381,9.828620,-0.037087,0.019455,0.045381,0.033856,-0.054200,-66.769737,-89.711288,67.238289,0.707795,0.001251,-0.706402,0.004535
382,9.832141,-0.034325,0.022043,0.039277,0.030811,-0.066466,-66.109535,-89.715378,66.579514,0.707804,0.001291,-0.706393,0.004513
383,9.830509,-0.038424,0.022866,0.034699,0.023197,-0.074147,-65.385818,-89.719536,65.857758,0.707815,0.001329,-0.706382,0.004490
384,9.832320,-0.034929,0.018432,0.025544,0.024727,-0.075718,-64.791199,-89.723045,65.264191,0.707821,0.001364,-0.706376,0.004467
385,9.835894,-0.040458,0.017063,0.007234,0.024713,-0.077277,-64.391235,-89.726601,64.864471,0.707822,0.001393,-0.706375,0.004445
386,9.838156,-0.043011,0.012169,0.002654,0.032310,-0.077283,-64.263367,-89.729477,64.736595,0.707818,0.001412,-0.706380,0.004428
387,9.837508,-0.047336,0.011444,0.017914,0.042942,-0.051324,-64.379181,-89.732391,64.852501,0.707811,0.001422,-0.706387,0.004422
388,9.837747,-0.046752,0.010965,0.059114,0.053572,-0.042138,-64.562859,-89.733124,65.037109,0.707805,0.001430,-0.706393,0.004430
389,9.832686,-0.041750,0.007728,0.060639,0.064191,-0.042122,-64.716377,-89.733856,65.193352,0.707798,0.001446,-0.706400,0.004438
390,9.830885,-0.040511,0.006729,0.063691,0.076327,-0.049755,-64.812813,-89.736069,65.292206,0.707790,0.001469,-0.706408,0.004440
391,9.836182,-0.043774,0.008399,0.091156,0.070153,-0.045173,-64.889900,-89.738304,65.371338,0.707784,0.001493,-0.706414,0.004448
392,9.836325,-0.046325,0.009371,0.083527,0.060936,-0.052779,-65.006866,-89.736816,65.490982,0.707778,0.001514,-0.706419,0.004463
393,9.835492,-0.041892,0.012961,0.057585,0.060890,-0.055812,-64.980461,-89.738304,65.467178,0.707776,0.001534,-0.706421,0.004472
394,9.837129,-0.054497,0.020129,0.071318,0.050194,-0.049666,-64.792519,-89.738304,65.281677,0.707783,0.001545,-0.706414,0.004487
395,9.841585,-0.055349,0.019489,0.066742,0.056302,-0.046532,-64.636299,-89.735329,65.127686,0.707795,0.001544,-0.706402,0.004517
396,9.837528,-0.059887,0.014123,0.053007,0.048657,-0.044910,-64.744377,-89.732391,65.237251,0.707801,0.001536,-0.706395,0.004549
397,9.841172,-0.060651,0.011539,0.046903,0.050143,-0.049379,-65.154778,-89.728760,65.649414,0.707799,0.001522,-0.706397,0.004583
398,9.843493,-0.061439,0.009173,0.059110,0.036356,-0.034010,-65.750519,-89.724464,66.247154,0.707791,0.001508,-0.706405,0.004619
399,9.844413,-0.053251,0.012305,0.036221,0.043933,-0.050711,-66.219170,-89.722343,66.716660,0.707783,0.001500,-0.706413,0.004646
400,9.841490,-0.050047,0.012365,0.039272,0.045418,-0.036931,-66.398621,-89.721634,66.898026,0.707780,0.001502,-0.706416,0.004660
401,9.841011,-0.044564,0.015357,0.062162,0.057595,-0.035384,-66.351357,-89.720932,66.851959,0.707781,0.001514,-0.706415,0.004669
402,9.835795,-0.038622,0.013683,0.060635,0.057568,-0.032345,-66.096619,-89.724464,66.599854,0.707784,0.001537,-0.706412,0.004671
403,9.837601,-0.036512,0.011060,0.039272,0.068209,-0.038485,-65.824364,-89.725174,66.328911,0.707785,0.001566,-0.706411,0.004663
404,9.838583,-0.034078,0.006974,0.024014,0.068149,-0.026323,-65.668350,-89.728760,66.174240,0.707780,0.001593,-0.706415,0.004648
405,9.836506,-0.038087,0.005258,0.011805,0.063496,-0.029414,-65.733200,-89.732391,66.240128,0.707771,0.001614,-0.706425,0.004634
406,9.832494,-0.037964,0.000606,-0.000403,0.054246,-0.030964,-66.075027,-89.735329,66.581825,0.707754,0.001629,-0.706442,0.004621
407,9.834939,-0.046439,-0.002826,-0.003455,0.057183,-0.037065,-66.766624,-89.736816,67.273148,0.707730,0.001635,-0.706466,0.004615
408,9.833135,-0.055429,-0.001875,0.016381,0.057064,-0.040062,-67.708008,-89.737556,68.214714,0.707705,0.001627,-0.706491,0.004625
409,9.837379,-0.061329,-0.007931,0.043848,0.053882,-0.033859,-68.947411,-89.736816,69.455292,0.707676,0.001611,-0.706520,0.004653
410,9.837159,-0.062268,-0.008415,0.051476,0.053737,-0.033744,-70.399323,-89.736069,70.908752,0.707642,0.001592,-0.706554,0.004692
411,9.840856,-0.063921,-0.005331,0.048423,0.052079,-0.024469,-71.722107,-89.733124,72.232468,0.707612,0.001571,-0.706584,0.004732
412,9.839115,-0.060802,-0.004044,0.069785,0.056543,-0.010626,-72.819420,-89.727318,73.332169,0.707588,0.001553,-0.706608,0.004775
413,9.836823,-0.051994,-0.003262,0.077415,0.054913,-0.009030,-73.677544,-89.726601,74.193008,0.707567,0.001549,-0.706628,0.004809
414,9.830013,-0.054330,-0.002657,0.072836,0.059395,-0.019664,-74.363739,-89.724464,74.881462,0.707549,0.001552,-0.706646,0.004836
415,9.829113,-0.057783,0.005168,0.095725,0.048644,-0.021128,-74.818016,-89.723045,75.338387,0.707539,0.001555,-0.706656,0.004868
416,9.829059,-0.063364,0.006143,0.110985,0.045552,-0.033249,-75.086731,-89.719536,75.610664,0.707536,0.001555,-0.706659,0.004910
417,9.832172,-0.065153,0.008132,0.092672,0.037892,-0.043825,-75.318817,-89.716072,75.845917,0.707535,0.001551,-0.706660,0.004956
418,9.837633,-0.069822,0.008121,0.056050,0.039393,-0.057440,-75.524612,-89.712646,76.054115,0.707535,0.001540,-0.706659,0.004997
419,9.836935,-0.067820,0.013165,0.048420,0.034805,-0.048161,-75.601067,-89.707916,76.132675,0.707539,0.001524,-0.706655,0.005035
420,9.836338,-0.064366,0.009531,0.027057,0.047005,-0.048058,-75.575180,-89.704590,76.108360,0.707545,0.001510,-0.706648,0.005065
421,9.834892,-0.055314,0.009485,-0.011091,0.056143,-0.049521,-75.494827,-89.701294,76.027313,0.707550,0.001502,-0.706643,0.005076
422,9.840484,-0.053223,0.010426,0.004169,0.060704,-0.038813,-75.280617,-89.701294,75.813263,0.707557,0.001502,-0.706636,0.005074
423,9.834106,-0.050211,0.009098,0.025532,0.066789,-0.025067,-75.036346,-89.702606,75.569809,0.707565,0.001507,-0.706629,0.005074
424,9.836223,-0.045296,0.007077,0.019428,0.077440,-0.028129,-74.792236,-89.703926,75.326302,0.707570,0.001521,-0.706623,0.005070
425,9.837010,-0.042713,0.008170,0.014850,0.071304,-0.035791,-74.503372,-89.705246,75.037613,0.707576,0.001541,-0.706618,0.005057
426,9.839975,-0.049174,0.008359,0.042317,0.069748,-0.025127,-74.245209,-89.706581,74.780968,0.707581,0.001558,-0.706613,0.005051
427,9.831683,-0.046314,0.006997,0.027057,0.062083,-0.031237,-74.092995,-89.708588,74.629692,0.707584,0.001573,-0.706610,0.005051
428,9.834339,-0.049279,0.008618,0.016375,0.043738,-0.026662,-74.022995,-89.709259,74.560486,0.707584,0.001584,-0.706610,0.005048
429,9.835027,-0.055204,0.008282,0.002642,0.034552,-0.031217,-74.079399,-89.709259,74.617188,0.707582,0.001585,-0.706611,0.005051
430,9.839169,-0.060361,0.008730,-0.004988,0.031469,-0.020479,-74.265007,-89.707245,74.802574,0.707580,0.001573,-0.706614,0.005063
431,9.836763,-0.060518,0.009410,0.002642,0.023812,-0.031091,-74.484543,-89.704590,75.022545,0.707577,0.001556,-0.706616,0.005079
