seq,ax,ay,az,wroll,wpitch,wyaw,roll,pitch,yaw,q0,q1,q2,q3
32,0.108049,-0.333524,9.914233,-0.063462,0.200901,-0.213564,-1.926758,-0.624050,0.020993,0.999844,-0.016812,-0.005448,0.000092
33,0.059067,-0.304023,9.937434,0.205801,0.741408,0.091132,-1.918545,-0.598968,0.018364,0.999846,-0.016741,-0.005229,0.000073
34,0.054341,-0.297731,9.934683,-0.076181,0.465690,0.280359,-1.903895,-0.559675,0.023752,0.999850,-0.016613,-0.004887,0.000126
35,0.060685,-0.306391,9.944097,-0.347511,0.157866,0.551985,-1.899716,-0.532298,0.037160,0.999852,-0.016576,-0.004650,0.000247
36,0.055582,-0.330845,9.922371,-0.455744,0.149062,0.365832,-1.908940,-0.512619,0.052235,0.999851,-0.016656,-0.004480,0.000381
37,0.056175,-0.314187,9.906075,-0.373276,0.034950,0.320065,-1.920112,-0.495858,0.063531,0.999850,-0.016753,-0.004336,0.000482
38,0.049757,-0.317571,9.922596,-0.318193,-0.088320,0.526075,-1.925780,-0.483055,0.077601,0.999850,-0.016802,-0.004226,0.000606
39,0.053064,-0.333089,9.924620,-0.203670,0.015911,0.417749,-1.931472,-0.464983,0.093335,0.999849,-0.016851,-0.004071,0.000746
40,0.053146,-0.330528,9.890634,0.025254,0.161431,0.114108,-1.933114,-0.439452,0.102082,0.999850,-0.016865,-0.003849,0.000826
41,0.043943,-0.315688,9.907906,0.019359,0.265765,0.088186,-1.924018,-0.409372,0.105150,0.999852,-0.016786,-0.003587,0.000857
42,0.045655,-0.327923,9.934837,-0.056701,0.272422,0.234692,-1.915230,-0.378115,0.110161,0.999855,-0.016709,-0.003315,0.000906
43,0.052291,-0.327586,9.931462,-0.114587,0.245326,0.193504,-1.914159,-0.354397,0.116979,0.999855,-0.016700,-0.003109,0.000969
44,0.046316,-0.313607,9.933128,-0.108264,0.067066,0.227081,-1.909123,-0.338027,0.123756,0.999856,-0.016656,-0.002967,0.001031
45,0.040634,-0.316061,9.930501,-0.103365,-0.219490,0.376631,-1.899910,-0.327494,0.133822,0.999858,-0.016576,-0.002877,0.001120
46,0.045549,-0.334462,9.931958,-0.091062,-0.489298,0.518551,-1.899415,-0.327567,0.149103,0.999858,-0.016571,-0.002880,0.001254
47,0.048154,-0.339138,9.904782,-0.074428,-0.579138,0.407165,-1.908295,-0.337247,0.165149,0.999856,-0.016648,-0.002967,0.001392
48,0.049162,-0.334345,9.905030,-0.036424,-0.571338,0.283572,-1.915990,-0.349213,0.177328,0.999855,-0.016715,-0.003073,0.001496
49,0.047301,-0.343771,9.910441,-0.012169,-0.499404,0.153877,-1.923226,-0.358208,0.185250,0.999853,-0.016777,-0.003153,0.001564
50,0.052266,-0.339481,9.911124,-0.085595,-0.387792,0.161514,-1.932172,-0.363999,0.191044,0.999852,-0.016855,-0.003204,0.001613
51,0.063178,-0.345923,9.908807,-0.087298,-0.290041,0.185933,-1.942145,-0.371417,0.197257,0.999850,-0.016942,-0.003270,0.001666
52,0.059915,-0.334528,9.916312,-0.076712,-0.293052,0.176779,-1.948738,-0.379301,0.203653,0.999848,-0.016999,-0.003340,0.001721
53,0.056088,-0.328017,9.909119,-0.262770,-0.241036,0.211880,-1.950254,-0.382604,0.210402,0.999848,-0.017012,-0.003370,0.001779
54,0.065172,-0.326733,9.918198,-0.454843,-0.068504,0.333956,-1.954527,-0.383350,0.219618,0.999847,-0.017049,-0.003378,0.001859
55,0.071593,-0.339416,9.917620,-0.422702,-0.071595,0.333954,-1.965369,-0.386881,0.230798,0.999845,-0.017143,-0.003410,0.001956
56,0.071910,-0.337195,9.901353,-0.257886,-0.053383,0.243921,-1.976157,-0.392565,0.240492,0.999843,-0.017237,-0.003461,0.002039
57,0.075621,-0.325563,9.890066,-0.001355,0.143338,0.094375,-1.973472,-0.395824,0.246027,0.999844,-0.017213,-0.003491,0.002087
58,0.071769,-0.333661,9.907849,0.507004,0.071513,0.097421,-1.956037,-0.396419,0.249036,0.999846,-0.017061,-0.003496,0.002114
59,0.056041,-0.327878,9.929361,0.821527,-0.105405,0.059275,-1.926616,-0.393278,0.251616,0.999851,-0.016804,-0.003468,0.002138
60,0.052290,-0.306548,9.944548,0.745607,-0.184477,0.030290,-1.885459,-0.387032,0.253171,0.999857,-0.016445,-0.003413,0.002153
61,0.054746,-0.284567,9.952374,0.572332,-0.495492,0.106590,-1.836268,-0.387342,0.255643,0.999864,-0.016016,-0.003415,0.002176
62,0.047398,-0.282550,9.961393,0.150416,-0.664558,0.109647,-1.793638,-0.394097,0.259661,0.999869,-0.015644,-0.003474,0.002212
63,0.050085,-0.275878,9.942628,-0.581335,-0.308650,-0.047517,-1.773110,-0.395583,0.261020,0.999872,-0.015465,-0.003487,0.002224
64,0.071465,-0.275494,9.922168,-1.152912,-0.129969,0.219520,-1.776240,-0.396891,0.263937,0.999871,-0.015492,-0.003499,0.002249
65,0.081863,-0.289961,9.921908,-1.251623,-0.127071,0.568949,-1.797412,-0.406933,0.277075,0.999868,-0.015676,-0.003589,0.002362
66,0.082840,-0.316190,9.929941,-1.274385,0.090892,0.568941,-1.834589,-0.416697,0.296020,0.999862,-0.016000,-0.003677,0.002525
67,0.074694,-0.358479,9.929410,-1.287025,0.064810,0.579621,-1.894714,-0.419135,0.315201,0.999853,-0.016524,-0.003703,0.002690
68,0.074167,-0.364709,9.921944,-1.043616,-0.632577,0.842084,-1.963299,-0.429319,0.339421,0.999842,-0.017121,-0.003797,0.002897
69,0.070871,-0.374857,9.910821,-0.733015,-1.349743,0.955008,-2.020696,-0.460562,0.370704,0.999831,-0.017620,-0.004076,0.003164
70,0.075446,-0.398592,9.899150,-0.747563,-1.474796,0.900084,-2.078172,-0.503560,0.403535,0.999820,-0.018119,-0.004457,0.003441
71,0.087923,-0.389691,9.889475,-0.829209,-1.422883,0.814640,-2.135628,-0.549516,0.434127,0.999808,-0.018617,-0.004865,0.003698
72,0.100500,-0.363730,9.889643,-0.682968,-1.416843,0.796328,-2.171057,-0.598319,0.462823,0.999799,-0.018923,-0.005297,0.003939
73,0.106515,-0.370444,9.911940,-0.573002,-1.099532,0.805480,-2.188295,-0.642499,0.491055,0.999793,-0.019071,-0.005688,0.004177
74,0.115676,-0.387748,9.925763,-0.629491,-0.689127,0.697137,-2.209844,-0.674102,0.517242,0.999787,-0.019256,-0.005969,0.004399
75,0.116880,-0.375821,9.930457,-0.589828,-0.719687,0.581165,-2.230853,-0.698368,0.539448,0.999781,-0.019437,-0.006185,0.004588
76,0.109934,-0.379135,9.924795,-0.504233,-0.840127,0.617790,-2.243635,-0.719268,0.560362,0.999777,-0.019547,-0.006371,0.004766
77,0.111115,-0.405402,9.909816,-0.591304,-0.684247,0.694097,-2.265904,-0.734354,0.583256,0.999772,-0.019739,-0.006508,0.004962
78,0.113896,-0.417441,9.894590,-0.681749,-0.438319,0.549149,-2.303990,-0.742033,0.604915,0.999764,-0.020070,-0.006580,0.005147
79,0.109269,-0.412235,9.885939,-0.637887,-0.042797,0.308070,-2.341753,-0.737147,0.619710,0.999757,-0.020399,-0.006542,0.005275
80,0.103665,-0.419810,9.899953,-0.506940,0.450488,0.099038,-2.372265,-0.713608,0.626350,0.999752,-0.020666,-0.006339,0.005336
81,0.104925,-0.419063,9.920460,-0.427814,0.591284,0.005977,-2.396725,-0.679792,0.627482,0.999749,-0.020881,-0.006045,0.005350
82,0.116400,-0.408483,9.937755,-0.230976,0.368694,0.013614,-2.407945,-0.655962,0.627139,0.999749,-0.020980,-0.005838,0.005351
83,0.115826,-0.409778,9.937265,0.011796,0.248143,-0.145083,-2.405597,-0.645914,0.624449,0.999750,-0.020960,-0.005750,0.005330
84,0.115573,-0.402669,9.922543,0.227165,-0.011318,-0.248851,-2.392983,-0.644387,0.617626,0.999752,-0.020850,-0.005735,0.005271
85,0.110585,-0.391749,9.899652,0.335854,-0.153256,-0.221389,-2.369605,-0.648518,0.609753,0.999757,-0.020647,-0.005768,0.005203
86,0.106003,-0.391938,9.901737,0.356074,0.277123,-0.468591,-2.342628,-0.644226,0.598005,0.999762,-0.020412,-0.005727,0.005102
87,0.104179,-0.391325,9.894472,0.176316,0.727399,-0.766145,-2.321478,-0.623196,0.576626,0.999768,-0.020229,-0.005539,0.004921
88,0.106259,-0.391074,9.908247,0.208591,0.806832,-0.692899,-2.305528,-0.595250,0.551192,0.999773,-0.020093,-0.005290,0.004704
89,0.091417,-0.405698,9.921387,0.231522,0.956501,-0.892790,-2.296239,-0.561811,0.523585,0.999777,-0.020014,-0.004993,0.004470
90,0.087352,-0.403757,9.927214,0.234459,1.060474,-1.014855,-2.292750,-0.521105,0.490516,0.999781,-0.019987,-0.004632,0.004189
91,0.089472,-0.406763,9.924368,0.418951,0.782860,-0.636420,-2.287411,-0.487301,0.461842,0.999784,-0.019943,-0.004332,0.003945
92,0.077038,-0.391005,9.931817,0.487582,0.663918,-0.535705,-2.273558,-0.460769,0.441377,0.999788,-0.019823,-0.004097,0.003771
93,0.069129,-0.386995,9.927567,0.472447,0.783115,-0.640988,-2.252459,-0.430422,0.420790,0.999793,-0.019641,-0.003828,0.003598
94,0.075123,-0.383012,9.897903,0.579391,0.841197,-0.529593,-2.229604,-0.400267,0.400198,0.999799,-0.019443,-0.003560,0.003424
95,0.065246,-0.387625,9.914485,0.573332,1.141837,-0.729488,-2.208437,-0.366760,0.377936,0.999804,-0.019260,-0.003264,0.003236
96,0.053405,-0.379829,9.913287,0.464999,1.671470,-1.179631,-2.190607,-0.315673,0.344339,0.999809,-0.019107,-0.002812,0.002952
97,0.051126,-0.386403,9.911454,0.689264,2.069866,-1.182678,-2.173013,-0.249617,0.302632,0.999814,-0.018956,-0.002228,0.002599
98,0.037300,-0.386068,9.913974,0.525825,2.245440,-0.906480,-2.159225,-0.175425,0.265151,0.999819,-0.018838,-0.001574,0.002285
99,0.017753,-0.377243,9.948303,0.367013,2.311234,-0.590607,-2.148913,-0.093308,0.237382,0.999822,-0.018750,-0.000853,0.002056
100,0.022030,-0.385006,9.907669,0.476732,2.170913,-0.224382,-2.140761,-0.016549,0.221024,0.999824,-0.018680,-0.000180,0.001926
101,0.016305,-0.380334,9.875259,0.519222,2.292800,0.091478,-2.133582,0.050247,0.216044,0.999825,-0.018619,0.000403,0.001893
102,-0.007592,-0.377591,9.849875,0.628877,2.867934,0.337147,-2.122882,0.130859,0.219986,0.999826,-0.018527,0.001106,0.001941
103,-0.010897,-0.388948,9.849119,0.936782,3.832196,0.405807,-2.110118,0.238000,0.228211,0.999826,-0.018417,0.002040,0.002029
104,-0.032719,-0.371846,9.874953,0.915109,5.086315,0.274571,-2.091552,0.379237,0.234057,0.999826,-0.018258,0.003272,0.002103
105,-0.085230,-0.358619,9.930365,0.738064,5.936361,0.234899,-2.065519,0.567394,0.235879,0.999823,-0.018034,0.004914,0.002147
106,-0.133591,-0.360723,9.961787,0.658741,6.300053,0.164726,-2.041244,0.792281,0.235239,0.999815,-0.017826,0.006876,0.002176
107,-0.174044,-0.373311,9.986870,0.504442,6.302255,-0.096185,-2.029142,1.029282,0.228827,0.999801,-0.017724,0.008945,0.002156
108,-0.287677,-0.359925,9.981403,0.617165,7.688654,0.070169,-2.018453,1.296681,0.220041,0.999779,-0.017634,0.011280,0.002119
109,-0.333787,-0.371400,9.930223,-0.284789,10.422625,0.256366,-2.018365,1.640126,0.214743,0.999740,-0.017638,0.014277,0.002126
110,-0.406667,-0.380299,9.904821,-1.557664,13.977618,0.663821,-2.059178,2.091625,0.215295,0.999670,-0.018000,0.018215,0.002206
112,-0.499710,-0.396447,9.896904,-1.811313,17.752485,1.751839,-2.128304,2.671758,0.235687,0.999553,-0.018615,0.023271,0.002489
113,-0.666192,-0.411523,9.910427,-2.191671,22.318169,2.968044,-2.208358,3.407642,0.288354,0.999368,-0.019337,0.029679,0.003088
114,-0.774429,-0.399021,9.863005,-2.686369,24.143522,2.998619,-2.297002,4.260224,0.356730,0.999101,-0.020146,0.037099,0.003855
115,-0.954370,-0.424393,9.855100,-2.021294,23.608349,3.024621,-2.379114,5.137603,0.424044,0.998770,-0.020905,0.044732,0.004626
116,-1.090612,-0.472317,9.848160,-0.846774,22.900827,3.042977,-2.438081,5.997611,0.491244,0.998391,-0.021470,0.052212,0.005393
117,-1.261282,-0.484531,9.815569,-0.258388,23.160786,2.095404,-2.475707,6.851227,0.541759,0.997963,-0.021847,0.059636,0.006009
118,-1.389132,-0.478086,9.788050,0.174393,22.999620,1.430126,-2.497403,7.706762,0.564656,0.997483,-0.022074,0.067080,0.006380
119,-1.485312,-0.475037,9.787864,0.556908,22.827444,1.187518,-2.503754,8.542641,0.572507,0.996964,-0.022159,0.074352,0.006608
120,-1.621107,-0.455260,9.774871,0.741183,23.582731,1.074613,-2.496282,9.376202,0.574446,0.996396,-0.022119,0.081602,0.006775
121,-1.765409,-0.419350,9.728306,1.026421,23.492643,0.381891,-2.472996,10.219854,0.563927,0.995772,-0.021931,0.088939,0.006822
122,-1.900685,-0.395708,9.734231,1.234086,22.619719,0.836703,-2.431867,11.045831,0.552198,0.995112,-0.021585,0.096119,0.006838
123,-1.997054,-0.380901,9.684488,1.663132,20.919491,0.804759,-2.373400,11.819182,0.551128,0.994451,-0.021095,0.102837,0.006915
124,-2.114073,-0.358376,9.663394,1.980868,20.056738,1.045964,-2.297703,12.539778,0.557120,0.993796,-0.020461,0.109092,0.007021
125,-2.251126,-0.376795,9.667457,2.251208,19.317553,1.177283,-2.214086,13.232655,0.570865,0.993131,-0.019765,0.115102,0.007174
126,-2.336323,-0.354270,9.659472,2.655720,17.581810,1.516101,-2.121111,13.879353,0.594476,0.992479,-0.019000,0.120707,0.007385
127,-2.395032,-0.373953,9.634473,2.596219,15.384833,1.223138,-2.026686,14.444278,0.621148,0.991884,-0.018226,0.125600,0.007600
128,-2.459426,-0.345922,9.607813,2.747178,13.823792,0.806533,-1.937754,14.931154,0.637583,0.991354,-0.017489,0.129817,0.007713
129,-2.572452,-0.363275,9.598573,2.684408,13.221025,0.142700,-1.855816,15.381063,0.636255,0.990848,-0.016791,0.133714,0.007669
130,-2.566911,-0.353825,9.518879,2.796937,12.874446,-0.498300,-1.786749,15.807654,0.611343,0.990354,-0.016177,0.137410,0.007428
131,-2.637371,-0.339515,9.477078,2.888076,15.260527,-1.124061,-1.721867,16.256691,0.563434,0.989820,-0.015570,0.141300,0.006991
132,-2.753689,-0.323790,9.429984,2.849534,18.657028,-1.668937,-1.662045,16.811928,0.492758,0.989135,-0.014976,0.146108,0.006374
133,-2.837689,-0.333842,9.369557,2.638480,21.710443,-1.940692,-1.615904,17.484068,0.403718,0.988271,-0.014472,0.151921,0.005625
134,-2.959787,-0.335091,9.307214,2.387601,25.029484,-2.401711,-1.590083,18.266529,0.296630,0.987218,-0.014111,0.158680,0.004758
135,-3.141637,-0.301323,9.307450,1.753806,27.904768,-2.276745,-1.579502,19.163652,0.181290,0.985950,-0.013854,0.166418,0.003854
136,-3.321080,-0.354959,9.266844,0.999346,29.213253,-1.558236,-1.595220,20.143980,0.075924,0.984492,-0.013822,0.174859,0.003087
137,-3.473589,-0.349289,9.212007,1.028987,29.070698,-1.592095,-1.631374,21.148228,-0.022878,0.982919,-0.013958,0.183491,0.002416
138,-3.647712,-0.336325,9.177968,0.800864,28.116325,-1.998253,-1.670405,22.133055,-0.129051,0.981303,-0.014089,0.191944,0.001693
139,-3.815545,-0.312863,9.163542,0.873569,26.858253,-1.265998,-1.701521,23.079739,-0.226411,0.979682,-0.014153,0.200056,0.001035
140,-3.938858,-0.326150,9.080358,1.620818,24.716545,-0.724464,-1.706976,23.965183,-0.298685,0.978107,-0.014030,0.207629,0.000543
141,-4.051756,-0.269994,9.013710,1.796044,22.817257,-1.218958,-1.687553,24.775621,-0.364729,0.976617,-0.013700,0.214549,0.000051
142,-4.155115,-0.276336,8.987869,1.150521,20.849028,-1.127422,-1.669499,25.510405,-0.432542,0.975224,-0.013376,0.220815,-0.000465
143,-4.225606,-0.278485,8.922127,1.197694,19.786858,-0.518643,-1.659616,26.181450,-0.487646,0.973916,-0.013142,0.226528,-0.000864
144,-4.279249,-0.297222,8.851305,1.531614,19.819956,-0.184605,-1.642300,26.821915,-0.527605,0.972637,-0.012873,0.231972,-0.001154
145,-4.399916,-0.311848,8.802998,1.570854,20.840248,-0.831830,-1.631057,27.476442,-0.578155,0.971297,-0.012628,0.237529,-0.001520
146,-4.510967,-0.282438,8.751146,2.145727,21.517349,-1.158595,-1.617465,28.164572,-0.647531,0.969855,-0.012315,0.243364,-0.002046
147,-4.636125,-0.240776,8.658643,2.878045,22.391518,-1.479111,-1.575187,28.887306,-0.723702,0.968304,-0.011736,0.249483,-0.002687
148,-4.796869,-0.252096,8.643943,2.624696,22.359577,-1.616466,-1.526006,29.635536,-0.807037,0.966658,-0.011072,0.255807,-0.003402
149,-4.892457,-0.252504,8.579548,2.175912,20.453846,-1.843915,-1.498697,30.353214,-0.899561,0.965038,-0.010567,0.261864,-0.004152
150,-4.947045,-0.212489,8.508332,1.940862,18.450191,-1.381596,-1.475024,30.995375,-0.983129,0.963556,-0.010111,0.267274,-0.004828
151,-5.036613,-0.242499,8.471831,1.089337,16.357767,-1.016945,-1.461060,31.558964,-1.048942,0.962229,-0.009780,0.272014,-0.005341
152,-5.067051,-0.259151,8.436613,0.880002,14.719742,-0.635654,-1.469131,32.047539,-1.105079,0.961058,-0.009660,0.276119,-0.005729
153,-5.117382,-0.228507,8.344891,1.189523,15.541286,-0.826568,-1.471638,32.513744,-1.156262,0.959925,-0.009504,0.280031,-0.006091
154,-5.241716,-0.187166,8.287951,1.082755,17.974512,-0.484747,-1.454408,33.046665,-1.197769,0.958612,-0.009195,0.284494,-0.006410
155,-5.371464,-0.154472,8.224064,1.281452,21.242947,0.774351,-1.403947,33.696529,-1.201391,0.956988,-0.008687,0.289923,-0.006482
156,-5.480271,-0.165231,8.129689,1.536640,24.278326,1.536031,-1.322455,34.468609,-1.165293,0.955023,-0.008009,0.296357,-0.006293
157,-5.605656,-0.157909,8.036779,1.875645,26.753960,2.145057,-1.221334,35.343731,-1.105305,0.952744,-0.007227,0.303632,-0.005955
158,-5.781386,-0.181651,8.000508,1.805519,27.313217,3.043889,-1.106799,36.277157,-1.018964,0.950251,-0.006410,0.311371,-0.005443
159,-5.860775,-0.176502,7.903738,2.128878,25.658237,2.816440,-0.988860,37.187466,-0.922190,0.947759,-0.005613,0.318899,-0.004876
160,-5.958162,-0.188849,7.851389,1.937839,22.869078,1.429154,-0.895670,38.006359,-0.860955,0.945464,-0.004944,0.325657,-0.004558
161,-6.054388,-0.179309,7.796721,1.952674,20.885225,1.161788,-0.832624,38.730019,-0.836621,0.943393,-0.004434,0.331617,-0.004478
162,-6.148574,-0.167883,7.723045,1.381550,19.163658,0.599903,-0.789049,39.384701,-0.828461,0.941485,-0.004047,0.337000,-0.004486
163,-6.177392,-0.150439,7.632105,1.274354,17.869165,-0.048931,-0.769569,39.981491,-0.843495,0.939718,-0.003795,0.341898,-0.004621
164,-6.254587,-0.176530,7.572683,0.796290,17.264208,-0.896201,-0.785706,40.538879,-0.894119,0.938042,-0.003729,0.346467,-0.004944
165,-6.319237,-0.172485,7.494500,0.566866,17.240625,-1.182013,-0.837044,41.085358,-0.974659,0.936374,-0.003855,0.350941,-0.005401
166,-6.412874,-0.158423,7.430227,0.053714,17.528442,-1.653913,-0.907062,41.640614,-1.069601,0.934656,-0.004081,0.355481,-0.005911
167,-6.501893,-0.154187,7.362808,-0.115983,17.781342,-1.641993,-0.989013,42.211613,-1.171592,0.932865,-0.004370,0.360141,-0.006430
168,-6.591157,-0.141457,7.295846,0.388906,18.895000,-1.401073,-1.054940,42.811138,-1.264488,0.930961,-0.004543,0.365024,-0.006913
169,-6.661472,-0.132534,7.214898,0.701665,19.839365,-0.969289,-1.089106,43.448448,-1.337820,0.928912,-0.004508,0.370201,-0.007327
170,-6.744622,-0.149858,7.126909,0.704668,20.724293,-0.632108,-1.107455,44.119415,-1.395302,0.926725,-0.004383,0.375636,-0.007655
171,-6.803716,-0.134921,7.026267,1.191391,21.209471,-0.297977,-1.108019,44.815174,-1.438482,0.924426,-0.004154,0.381257,-0.007919
172,-6.879119,-0.153233,6.942397,1.462943,21.722073,0.608359,-1.077302,45.526283,-1.453987,0.922043,-0.003759,0.386984,-0.008062
173,-6.985260,-0.159330,6.875414,1.313234,21.729570,1.374201,-1.024422,46.245476,-1.435356,0.919601,-0.003302,0.392759,-0.008008
174,-7.097197,-0.141186,6.795617,1.326798,21.721870,2.021019,-0.947896,46.967590,-1.381266,0.917115,-0.002783,0.398539,-0.007759
175,-7.162966,-0.136624,6.694155,1.778321,21.589083,2.876901,-0.832880,47.689159,-1.286899,0.914597,-0.002108,0.404296,-0.007333
176,-7.251528,-0.126763,6.614199,2.171823,21.666826,3.087276,-0.683553,48.408047,-1.164567,0.912053,-0.001274,0.410014,-0.006824
177,-7.317748,-0.083327,6.514325,2.212905,21.982569,2.223469,-0.528961,49.131466,-1.049875,0.909455,-0.000389,0.415754,-0.006413
178,-7.379161,-0.043679,6.391772,1.677336,21.715437,0.996661,-0.405285,49.856251,-0.974163,0.906811,0.000376,0.421490,-0.006218
179,-7.455845,-0.051804,6.303518,1.218059,21.994595,0.181846,-0.336598,50.581463,-0.949017,0.904127,0.000882,0.427217,-0.006233
180,-7.575061,-0.066584,6.228847,-0.056204,21.817518,-1.646353,-0.364320,51.308708,-1.003773,0.901395,0.000927,0.432947,-0.006520
181,-7.649986,-0.077200,6.128820,-1.539613,21.509264,-2.623204,-0.509288,52.029446,-1.144144,0.898647,0.000385,0.438616,-0.007023
182,-7.739580,-0.092926,6.054207,-1.417772,20.676046,-2.141307,-0.695891,52.729027,-1.305793,0.895943,-0.000381,0.444105,-0.007513
183,-7.789854,-0.148536,5.976905,-1.367757,19.839594,-1.647353,-0.875808,53.393314,-1.455745,0.893343,-0.001120,0.449304,-0.007916
184,-7.832961,-0.125515,5.873522,-1.175819,19.010609,-2.027748,-1.053107,54.023048,-1.606867,0.890849,-0.001819,0.454221,-0.008319
185,-7.854023,-0.114899,5.766471,-0.290911,18.898739,-1.484702,-1.191162,54.634289,-1.740345,0.888402,-0.002265,0.458978,-0.008723
186,-7.876910,-0.136209,5.659220,1.347854,19.522301,-0.445668,-1.248113,55.252041,-1.827564,0.885908,-0.002254,0.463766,-0.009079
187,-7.917896,-0.137521,5.531711,1.495769,21.369751,-0.741849,-1.263726,55.915073,-1.899003,0.883206,-0.001971,0.468886,-0.009467
188,-8.025876,-0.098441,5.405181,1.637689,23.934767,-0.912739,-1.276560,56.666706,-1.977680,0.880107,-0.001614,0.474670,-0.009903
189,-8.154620,-0.134296,5.321711,1.877275,26.249861,0.205791,-1.262938,57.513222,-2.031933,0.876574,-0.001131,0.481156,-0.010242
190,-8.330044,-0.131306,5.262366,1.721549,25.687126,0.686338,-1.220622,58.392025,-2.048838,0.872860,-0.000576,0.487859,-0.010411
191,-8.473355,-0.136601,5.195310,0.848615,21.683336,0.251286,-1.194818,59.191051,-2.063802,0.869438,-0.000171,0.493930,-0.010510
192,-8.555903,-0.146804,5.142622,-0.169339,15.568857,-0.223547,-1.229753,59.807640,-2.109997,0.866765,-0.000122,0.498604,-0.010611
193,-8.533522,-0.158156,5.088226,-0.657851,8.620630,-0.286490,-1.307646,60.182697,-2.174129,0.865124,-0.000360,0.501445,-0.010693
194,-8.504015,-0.154718,5.032359,-1.140257,2.006084,-0.651584,-1.406664,60.311577,-2.243828,0.864553,-0.000777,0.502427,-0.010763
195,-8.416147,-0.171895,4.981334,-1.169466,-1.743042,-0.624528,-1.517500,60.256882,-2.317218,0.864784,-0.001303,0.502025,-0.010841
196,-8.362354,-0.142426,4.970914,-0.936145,-2.554920,-0.653817,-1.609871,60.119957,-2.376515,0.865376,-0.001770,0.501001,-0.010911
197,-8.367220,-0.141038,4.983114,-0.644722,-2.359658,-0.431126,-1.667986,59.974171,-2.411868,0.866008,-0.002086,0.499906,-0.010954
198,-8.374841,-0.158082,4.996632,-0.357881,-1.920092,-0.243535,-1.705684,59.845409,-2.434592,0.866565,-0.002301,0.498937,-0.010987
199,-8.373590,-0.157331,5.017740,-0.119887,-1.721524,-0.004091,-1.725533,59.731369,-2.446023,0.867059,-0.002427,0.498077,-0.011011
200,-8.367575,-0.165722,5.033173,0.035703,-1.850999,0.180414,-1.727352,59.619892,-2.443998,0.867543,-0.002475,0.497234,-0.011011
201,-8.357802,-0.164931,5.036481,0.150081,-2.015501,0.250455,-1.719222,59.506397,-2.435054,0.868036,-0.002478,0.496374,-0.011002
202,-8.338823,-0.146384,5.040638,0.322490,-2.102099,0.297690,-1.695560,59.392193,-2.415792,0.868532,-0.002408,0.495506,-0.010981
203,-8.363116,-0.155186,5.063596,0.346904,-2.078739,0.305286,-1.664194,59.280613,-2.392255,0.869016,-0.002297,0.494657,-0.010961
204,-8.355555,-0.137073,5.070318,0.411031,-1.846672,0.149665,-1.629931,59.159523,-2.368844,0.869541,-0.002164,0.493735,-0.010955
205,-8.376111,-0.115183,5.095079,0.301363,-1.617961,0.116381,-1.577660,59.034092,-2.331076,0.870085,-0.001957,0.492778,-0.010918
206,-8.368073,-0.120754,5.108734,0.150546,-1.900280,0.428042,-1.514931,58.914219,-2.278277,0.870605,-0.001733,0.491861,-0.010809
207,-8.341725,-0.124981,5.114765,-0.007999,-1.823934,0.646462,-1.457582,58.793842,-2.221138,0.871127,-0.001567,0.490940,-0.010643
209,-8.327276,-0.113294,5.115482,-0.050587,-1.472782,0.907587,-1.393310,58.686275,-2.151228,0.871594,-0.001399,0.490115,-0.010405
210,-8.313685,-0.132014,5.114085,0.013549,-1.426571,1.035815,-1.332054,58.595078,-2.080960,0.871991,-0.001250,0.489415,-0.010148
211,-8.296193,-0.107520,5.107115,0.082234,-1.111554,0.747425,-1.277623,58.519527,-2.019902,0.872319,-0.001111,0.488835,-0.009928
212,-8.327211,-0.101013,5.124131,0.096093,-0.753545,0.599601,-1.218631,58.465759,-1.960062,0.872554,-0.000926,0.488420,-0.009732
213,-8.349125,-0.101612,5.148679,0.306778,-0.529675,0.563146,-1.163881,58.427307,-1.908760,0.872722,-0.000735,0.488122,-0.009581
214,-8.352268,-0.095763,5.161743,0.071872,-0.575920,0.016996,-1.128636,58.390434,-1.878860,0.872882,-0.000600,0.487838,-0.009508
215,-8.343087,-0.084758,5.162727,-0.283536,-0.735107,-0.495509,-1.125088,58.349007,-1.876788,0.873058,-0.000588,0.487523,-0.009514
216,-8.325054,-0.101721,5.167552,-0.341436,-1.135444,-0.043708,-1.136675,58.295948,-1.882169,0.873283,-0.000663,0.487119,-0.009513
217,-8.283949,-0.116020,5.157125,-0.294203,-1.194076,0.212520,-1.151820,58.231243,-1.884153,0.873558,-0.000780,0.486628,-0.009473
218,-8.290973,-0.114673,5.169406,-0.338581,-1.061962,0.029192,-1.172761,58.167892,-1.890470,0.873826,-0.000924,0.486146,-0.009442
219,-8.289080,-0.118901,5.175475,-0.129652,-1.003006,0.253296,-1.189377,58.111252,-1.895099,0.874066,-0.001041,0.485716,-0.009415
220,-8.296245,-0.124656,5.187770,0.076194,-0.896670,0.660460,-1.186849,58.060509,-1.883810,0.874281,-0.001078,0.485329,-0.009347
221,-8.318154,-0.127396,5.205696,0.040910,-0.840612,0.267988,-1.186007,58.015587,-1.876258,0.874472,-0.001111,0.484986,-0.009300
222,-8.321761,-0.112721,5.217285,0.048415,-1.045439,0.043469,-1.192977,57.969967,-1.880342,0.874664,-0.001155,0.484638,-0.009308
223,-8.286652,-0.111645,5.191529,-0.107272,-1.242531,0.037292,-1.196589,57.921894,-1.881438,0.874867,-0.001186,0.484272,-0.009309
224,-8.285213,-0.097112,5.185496,-0.246091,-1.202876,0.141118,-1.190746,57.880489,-1.869469,0.875043,-0.001199,0.483955,-0.009248
225,-8.288693,-0.095499,5.192660,-0.259702,-1.149338,0.315271,-1.168432,57.846893,-1.838955,0.875188,-0.001163,0.483696,-0.009114
226,-8.263382,-0.088844,5.193224,-0.225979,-1.105006,0.484895,-1.132459,57.812977,-1.794146,0.875335,-0.001083,0.483434,-0.008929
227,-8.278855,-0.085491,5.199081,-0.357029,-0.937065,0.346322,-1.093924,57.782993,-1.745575,0.875465,-0.000998,0.483202,-0.008724
228,-8.298570,-0.087283,5.213309,-0.288209,-0.907860,0.306895,-1.064863,57.761154,-1.705772,0.875560,-0.000947,0.483032,-0.008546
229,-8.278522,-0.091828,5.224408,-0.239288,-1.168704,0.448953,-1.039868,57.730488,-1.670133,0.875692,-0.000911,0.482796,-0.008383
230,-8.263451,-0.097711,5.224092,-0.294208,-1.329020,0.403193,-1.023363,57.685379,-1.640676,0.875885,-0.000915,0.482450,-0.008233
231,-8.272490,-0.089941,5.228248,-0.365924,-1.242072,0.293331,-1.014420,57.641529,-1.617207,0.876071,-0.000952,0.482114,-0.008097
232,-8.256701,-0.083324,5.232616,-0.338391,-1.269526,0.482651,-0.995286,57.600498,-1.583815,0.876246,-0.000952,0.481798,-0.007927
233,-8.259009,-0.073181,5.241709,-0.382501,-1.268026,1.064253,-0.945767,57.557716,-1.517662,0.876430,-0.000858,0.481468,-0.007634
234,-8.271096,-0.078332,5.253913,-0.339637,-1.023865,1.355921,-0.874336,57.520851,-1.425257,0.876592,-0.000704,0.481180,-0.007232
235,-8.262087,-0.064182,5.272480,-0.284575,-1.052946,1.122656,-0.801199,57.483398,-1.332331,0.876755,-0.000539,0.480889,-0.006832
236,-8.236680,-0.059710,5.259917,0.000931,-1.236250,0.933686,-0.729579,57.438110,-1.249257,0.876950,-0.000345,0.480538,-0.006501
237,-8.233863,-0.048358,5.261267,0.262035,-0.938805,0.862234,-0.654112,57.397942,-1.173002,0.877123,-0.000091,0.480226,-0.006238
238,-8.218224,-0.056410,5.265426,0.523086,-0.589477,0.844106,-0.579961,57.368492,-1.106087,0.877249,0.000193,0.479997,-0.006039
239,-8.217913,-0.045631,5.258056,0.456005,-0.783319,0.751117,-0.513610,57.343941,-1.049500,0.877355,0.000462,0.479805,-0.005885
240,-8.242327,-0.045536,5.255082,0.402645,-0.743390,0.832069,-0.451150,57.328907,-0.994604,0.877420,0.000709,0.479687,-0.005727
241,-8.245795,-0.018326,5.261343,0.279175,-0.358417,0.926882,-0.375982,57.328438,-0.924988,0.877425,0.000993,0.479681,-0.005509
242,-8.236045,-0.023940,5.264062,0.322079,-0.213093,1.236925,-0.285209,57.333607,-0.837504,0.877407,0.001322,0.479717,-0.005219
243,-8.242822,-0.038949,5.266625,0.233565,-0.171599,1.191132,-0.214291,57.339142,-0.763734,0.877386,0.001557,0.479757,-0.004951
244,-8.249068,-0.030738,5.276374,0.205972,0.181134,0.658390,-0.176022,57.349136,-0.721042,0.877346,0.001672,0.479833,-0.004783
245,-8.241201,-0.021609,5.278905,0.321856,0.419287,0.508715,-0.148756,57.363560,-0.695011,0.877286,0.001772,0.479942,-0.004698
246,-8.243229,-0.049104,5.280258,0.291124,0.327737,0.351209,-0.145719,57.376240,-0.693343,0.877233,0.001789,0.480039,-0.004697
247,-8.264050,-0.045241,5.290717,-0.070873,0.106462,-0.436720,-0.192879,57.382778,-0.736932,0.877204,0.001611,0.480091,-0.004833
248,-8.262045,-0.020912,5.285756,-0.191606,-0.175828,-0.900887,-0.257288,57.381706,-0.799512,0.877207,0.001380,0.480084,-0.005042
249,-8.247319,-0.022243,5.271325,-0.087852,-0.409228,-0.850545,-0.308697,57.374527,-0.854600,0.877235,0.001217,0.480031,-0.005249
250,-8.244628,-0.032679,5.269470,-0.165689,-0.499134,-0.949752,-0.361723,57.364128,-0.911831,0.877276,0.001050,0.479953,-0.005466
251,-8.242947,-0.040798,5.268917,-0.155069,-0.564600,-0.748427,-0.419629,57.352150,-0.971295,0.877324,0.000855,0.479864,-0.005679
252,-8.234102,-0.054893,5.259350,0.050806,-0.649838,-0.324415,-0.466348,57.340244,-1.018735,0.877372,0.000695,0.479775,-0.005848
253,-8.230546,-0.052841,5.260133,0.136118,-0.420689,-0.245281,-0.496944,57.332657,-1.052164,0.877402,0.000600,0.479718,-0.005976
254,-8.246848,-0.056733,5.281054,0.273341,-0.048183,0.180281,-0.506867,57.331993,-1.066813,0.877404,0.000585,0.479713,-0.006047
255,-8.255536,-0.057390,5.294274,0.329686,0.009847,0.291497,-0.500056,57.333138,-1.065293,0.877399,0.000631,0.479722,-0.006063
256,-8.257309,-0.042697,5.303366,0.119073,-0.217600,-0.013746,-0.490338,57.326363,-1.060893,0.877428,0.000686,0.479669,-0.006071
257,-8.251718,-0.038468,5.293576,-0.141807,-0.393169,-0.126579,-0.486708,57.312637,-1.058734,0.877486,0.000704,0.479564,-0.006071
258,-8.240625,-0.033722,5.292802,-0.176807,-0.498514,-0.115750,-0.485068,57.295547,-1.054997,0.877557,0.000699,0.479433,-0.006050
259,-8.237459,-0.025653,5.289708,-0.326188,-0.564177,-0.590064,-0.489608,57.275921,-1.058037,0.877639,0.000675,0.479283,-0.006056
260,-8.239428,-0.022256,5.281350,-0.361063,-0.472519,-0.649229,-0.502648,57.262638,-1.070452,0.877694,0.000626,0.479182,-0.006097
261,-8.246873,-0.037996,5.281010,-0.211357,-0.351695,-0.481119,-0.518783,57.259899,-1.086120,0.877705,0.000568,0.479162,-0.006150
262,-8.245742,-0.025111,5.289918,0.040585,-0.128643,-0.465602,-0.523621,57.262493,-1.096290,0.877693,0.000574,0.479182,-0.006207
263,-8.244053,-0.031500,5.287071,0.078942,-0.152856,-0.269957,-0.512071,57.265892,-1.094857,0.877679,0.000656,0.479207,-0.006245
264,-8.228670,-0.040243,5.276043,0.072963,-0.239618,-0.210249,-0.504771,57.267982,-1.095142,0.877670,0.000714,0.479223,-0.006277
265,-8.225144,-0.054244,5.278068,0.121787,-0.216548,-0.194995,-0.512530,57.267570,-1.108014,0.877672,0.000708,0.479220,-0.006343
266,-8.229605,-0.037268,5.271320,0.027192,-0.149185,-0.211761,-0.518960,57.270306,-1.119149,0.877659,0.000706,0.479241,-0.006401
267,-8.221473,-0.059008,5.268988,0.045496,-0.101609,-0.098852,-0.526762,57.277016,-1.129511,0.877631,0.000690,0.479293,-0.006448
268,-8.211419,-0.076667,5.279334,0.205509,-0.022164,-0.042715,-0.554746,57.278637,-1.157838,0.877623,0.000594,0.479307,-0.006547
269,-8.219388,-0.070953,5.286165,0.191523,-0.061909,-0.018696,-0.584349,57.274250,-1.188856,0.877639,0.000497,0.479275,-0.006662
270,-8.240926,-0.050864,5.288740,0.122768,-0.032904,-0.105810,-0.594386,57.273067,-1.202819,0.877644,0.000478,0.479266,-0.006727
271,-8.245337,-0.051998,5.305292,0.289126,0.157837,0.001055,-0.585861,57.275196,-1.202378,0.877635,0.000542,0.479282,-0.006759
272,-8.259491,-0.045501,5.307912,0.225100,0.115052,-0.038523,-0.569828,57.277363,-1.196462,0.877626,0.000640,0.479298,-0.006780
273,-8.264903,-0.023576,5.295592,0.132218,-0.057263,-0.111457,-0.540517,57.283043,-1.178170,0.877603,0.000789,0.479340,-0.006762
274,-8.256270,-0.032949,5.296373,0.167556,-0.298179,0.172744,-0.500634,57.284485,-1.148235,0.877599,0.000969,0.479349,-0.006700
275,-8.233933,-0.031274,5.291833,0.202822,-0.406483,0.377481,-0.456969,57.274357,-1.111679,0.877642,0.001150,0.479269,-0.006603
276,-8.231345,-0.038252,5.285269,0.076269,-0.601790,0.165532,-0.424421,57.258137,-1.083247,0.877712,0.001278,0.479143,-0.006523
277,-8.214875,-0.041083,5.284731,0.024397,-0.719272,-0.074022,-0.418702,57.236687,-1.078934,0.877801,0.001302,0.478979,-0.006515
278,-8.222461,-0.047106,5.293163,-0.128250,-0.707100,-0.156507,-0.433601,57.211441,-1.091991,0.877906,0.001241,0.478786,-0.006554
279,-8.214783,-0.033497,5.287607,-0.131311,-0.592637,-0.335056,-0.451749,57.190453,-1.107957,0.877993,0.001166,0.478626,-0.006602
280,-8.208910,-0.050665,5.296430,-0.079443,-0.668937,-0.179431,-0.470016,57.169239,-1.124912,0.878081,0.001095,0.478464,-0.006658
281,-8.192203,-0.051988,5.294567,-0.070380,-0.684306,0.186647,-0.484629,57.142220,-1.134925,0.878193,0.001023,0.478258,-0.006675
282,-8.192685,-0.027202,5.295465,-0.265651,-0.722562,0.134839,-0.475115,57.114529,-1.119218,0.878310,0.001027,0.478046,-0.006597
283,-8.190812,-0.028590,5.291525,-0.315831,-0.690517,-0.054105,-0.458722,57.091125,-1.096476,0.878409,0.001056,0.477865,-0.006492
284,-8.198490,-0.047227,5.293598,-0.260842,-0.401985,0.022278,-0.461394,57.078209,-1.090856,0.878463,0.001011,0.477767,-0.006439
285,-8.209931,-0.036148,5.294811,-0.279145,-0.148415,-0.046373,-0.469719,57.079742,-1.090468,0.878456,0.000946,0.477779,-0.006401
286,-8.217495,-0.027847,5.304295,-0.250035,-0.100812,-0.244559,-0.470068,57.087578,-1.085975,0.878424,0.000925,0.477839,-0.006365
287,-8.236388,-0.048457,5.304603,0.064362,-0.015017,0.175160,-0.467225,57.099396,-1.081611,0.878375,0.000930,0.477929,-0.006342
288,-8.239344,-0.047724,5.300932,0.277941,0.197541,0.388716,-0.453793,57.120605,-1.070030,0.878287,0.000986,0.478091,-0.006308
289,-8.237366,-0.024597,5.307542,0.332944,0.291001,0.257596,-0.417729,57.144051,-1.042475,0.878190,0.001150,0.478269,-0.006246
290,-8.232817,-0.024855,5.308228,0.464338,0.147775,0.437913,-0.364066,57.159943,-1.002294,0.878125,0.001394,0.478389,-0.006161
291,-8.229275,-0.020427,5.299123,0.377505,0.187622,0.235188,-0.313202,57.172558,-0.965279,0.878074,0.001631,0.478483,-0.006089
292,-8.217999,-0.005769,5.300860,0.283090,0.277759,0.082895,-0.267765,57.184689,-0.933496,0.878025,0.001847,0.478574,-0.006034
293,-8.217835,-0.000584,5.309647,0.146008,0.094568,0.043610,-0.223203,57.187763,-0.900930,0.878013,0.002053,0.478596,-0.005971
294,-8.230008,-0.023266,5.311528,-0.046144,-0.195488,-0.066080,-0.206512,57.180943,-0.888502,0.878042,0.002128,0.478543,-0.005946
295,-8.232546,-0.028101,5.309324,-0.371227,-0.416789,-0.514797,-0.236715,57.168976,-0.913263,0.878091,0.001999,0.478452,-0.006010
296,-8.221229,-0.026176,5.303861,-0.369772,-0.636518,-0.534742,-0.285557,57.151535,-0.953367,0.878162,0.001791,0.478321,-0.006114
297,-8.201826,-0.034469,5.296400,-0.276755,-0.744860,-0.698117,-0.336837,57.128281,-0.998473,0.878258,0.001585,0.478145,-0.006247
298,-8.209901,-0.040034,5.305063,-0.151720,-0.548021,-0.644849,-0.390570,57.106350,-1.049681,0.878347,0.001385,0.477979,-0.006417
299,-8.208695,-0.030998,5.312535,-0.009829,-0.516002,-0.435827,-0.423517,57.087448,-1.084798,0.878424,0.001277,0.477835,-0.006550
300,-8.212153,-0.033846,5.314166,0.090940,-0.453460,-0.336555,-0.434204,57.070374,-1.101834,0.878494,0.001264,0.477705,-0.006637
301,-8.225385,-0.049968,5.325050,0.086340,-0.236755,-0.130589,-0.446120,57.059792,-1.118499,0.878538,0.001242,0.477624,-0.006716
302,-8.241979,-0.040721,5.344972,-0.168536,-0.209311,-0.068097,-0.458758,57.051369,-1.129725,0.878572,0.001191,0.477560,-0.006750
303,-8.223741,-0.052867,5.338944,-0.412733,-0.629055,-0.205507,-0.481903,57.032745,-1.143434,0.878649,0.001069,0.477419,-0.006760
304,-8.208291,-0.051412,5.321387,-0.652391,-0.871732,-0.481837,-0.528978,57.005390,-1.174149,0.878762,0.000833,0.477212,-0.006801
305,-8.201189,-0.053603,5.321521,-0.673814,-0.690104,-0.291187,-0.578505,56.980961,-1.204030,0.878862,0.000575,0.477027,-0.006826
306,-8.190056,-0.045351,5.322789,-0.594445,-0.746542,-0.069896,-0.605702,56.957798,-1.212256,0.878958,0.000398,0.476851,-0.006778
307,-8.161877,-0.069731,5.304076,-0.217569,-0.732774,0.044506,-0.623286,56.934460,-1.215738,0.879055,0.000276,0.476673,-0.006734
308,-8.187836,-0.055396,5.311404,-0.020786,-0.230553,-0.100547,-0.636534,56.926044,-1.223927,0.879089,0.000207,0.476609,-0.006742
309,-8.219114,-0.050387,5.331310,0.246311,0.302321,0.186421,-0.622566,56.940346,-1.214598,0.879031,0.000277,0.476718,-0.006728
310,-8.224178,-0.047868,5.339406,0.406635,0.252245,0.162165,-0.589325,56.960934,-1.192741,0.878946,0.000443,0.476874,-0.006696
312,-8.212248,-0.051429,5.329991,0.397552,0.200561,-0.063559,-0.563819,56.976398,-1.181740,0.878882,0.000595,0.476991,-0.006717
313,-8.236308,-0.034043,5.335660,0.141313,0.267934,-0.212919,-0.546420,56.993515,-1.177233,0.878811,0.000711,0.477121,-0.006753
314,-8.219273,-0.026850,5.318961,0.149167,0.014936,0.185697,-0.512036,57.010586,-1.152729,0.878741,0.000874,0.477250,-0.006707
315,-8.186045,-0.025595,5.307511,0.291321,-0.123711,0.540088,-0.453208,57.017502,-1.102946,0.878715,0.001119,0.477301,-0.006570
316,-8.175518,-0.017697,5.309732,0.407538,0.190646,0.616763,-0.378660,57.019535,-1.039690,0.878709,0.001427,0.477313,-0.006395
317,-8.216143,-0.004544,5.338246,0.467342,0.430127,0.615687,-0.293013,57.026512,-0.968930,0.878683,0.001789,0.477362,-0.006209
318,-8.216154,-0.006677,5.349699,0.482873,0.347513,0.648151,-0.207984,57.031067,-0.899458,0.878666,0.002152,0.477394,-0.006031
319,-8.208765,-0.017092,5.354677,0.344137,0.145683,0.314160,-0.153060,57.023094,-0.856237,0.878700,0.002393,0.477331,-0.005928
320,-8.210382,-0.006692,5.348478,0.093938,-0.089730,-0.233568,-0.136593,57.007191,-0.847824,0.878767,0.002483,0.477208,-0.005933
321,-8.210223,-0.018383,5.340314,0.003918,-0.297512,-0.228975,-0.145420,56.990482,-0.860784,0.878836,0.002468,0.477080,-0.005996
322,-8.196783,-0.035300,5.330716,-0.048109,-0.384619,-0.200206,-0.176764,56.973892,-0.890329,0.878904,0.002350,0.476954,-0.006093
323,-8.214211,-0.039307,5.338121,-0.005620,-0.404491,-0.095282,-0.217098,56.959312,-0.926056,0.878964,0.002188,0.476844,-0.006200
324,-8.214540,-0.031699,5.345328,0.039974,-0.431964,-0.000956,-0.243413,56.945004,-0.949441,0.879022,0.002083,0.476735,-0.006271
325,-8.205476,-0.040693,5.349128,0.000145,-0.517512,-0.092751,-0.266052,56.925301,-0.969791,0.879104,0.001992,0.476585,-0.006334
326,-8.201487,-0.025144,5.348201,-0.123553,-0.571052,-0.265331,-0.290186,56.901791,-0.991500,0.879200,0.001896,0.476405,-0.006401
327,-8.193635,-0.022308,5.349662,-0.096063,-0.618484,-0.150851,-0.301123,56.876820,-1.001328,0.879304,0.001851,0.476214,-0.006432
328,-8.182622,-0.016659,5.345028,-0.153961,-0.581984,-0.199548,-0.302482,56.851917,-1.002109,0.879407,0.001841,0.476023,-0.006434
329,-8.178405,-0.011965,5.355819,-0.097354,-0.426511,-0.113871,-0.294713,56.828304,-0.994904,0.879506,0.001869,0.475842,-0.006412
330,-8.186702,-0.033610,5.362346,-0.130869,-0.676971,0.223442,-0.288238,56.801567,-0.985249,0.879617,0.001877,0.475636,-0.006367
331,-8.182996,-0.025097,5.354561,-0.275854,-0.968514,-0.055838,-0.293520,56.770512,-0.982391,0.879746,0.001822,0.475398,-0.006324
332,-8.181668,-0.012130,5.357929,-0.255925,-0.838796,-0.223548,-0.297025,56.740990,-0.980375,0.879869,0.001785,0.475172,-0.006296
333,-8.171411,-0.015609,5.365112,-0.190163,-0.852562,0.069654,-0.288553,56.711544,-0.968399,0.879991,0.001798,0.474945,-0.006241
334,-8.169707,-0.027610,5.358302,-0.270975,-0.835778,0.005660,-0.285872,56.683372,-0.958965,0.880109,0.001777,0.474729,-0.006181
335,-8.170440,-0.011493,5.368615,-0.121356,-0.362680,-0.332976,-0.290123,56.665844,-0.959994,0.880181,0.001747,0.474594,-0.006172
336,-8.164496,-0.027769,5.371532,-0.005306,-0.130738,0.036418,-0.289218,56.657642,-0.960165,0.880215,0.001754,0.474532,-0.006178
337,-8.168087,-0.030209,5.365086,-0.022113,-0.231389,0.147781,-0.287591,56.654030,-0.956721,0.880230,0.001752,0.474504,-0.006158
338,-8.168956,-0.033969,5.362428,-0.008433,-0.104559,-0.165116,-0.295735,56.655540,-0.963242,0.880224,0.001717,0.474516,-0.006175
339,-8.162393,-0.031980,5.362543,0.073906,-0.098284,0.010273,-0.306617,56.659000,-0.974653,0.880209,0.001681,0.474543,-0.006217
340,-8.164083,-0.028482,5.351297,0.040313,-0.210974,0.268122,-0.300568,56.662998,-0.968625,0.880193,0.001703,0.474573,-0.006195
341,-8.168122,-0.019039,5.364819,0.131918,-0.036791,0.007265,-0.284098,56.668030,-0.954729,0.880172,0.001772,0.474611,-0.006157
342,-8.174511,-0.037001,5.376915,0.124282,-0.027575,0.013359,-0.280166,56.669342,-0.954818,0.880167,0.001803,0.474621,-0.006174
343,-8.171148,-0.026133,5.374059,0.047931,-0.276311,0.031587,-0.283361,56.663868,-0.959461,0.880189,0.001797,0.474579,-0.006196
344,-8.177544,-0.017565,5.368380,-0.005427,-0.306747,-0.235375,-0.281255,56.657459,-0.960134,0.880216,0.001816,0.474530,-0.006211
345,-8.172585,-0.024253,5.380535,0.067877,-0.074748,-0.267328,-0.284984,56.653385,-0.968705,0.880232,0.001822,0.474498,-0.006261
346,-8.165174,-0.020866,5.378613,0.040453,-0.158749,-0.067366,-0.285908,56.646465,-0.974041,0.880260,0.001837,0.474445,-0.006299
347,-8.163623,-0.010950,5.377775,-0.018941,-0.210712,-0.138907,-0.275255,56.637054,-0.967316,0.880300,0.001890,0.474372,-0.006292
348,-8.164578,-0.016749,5.383314,-0.050851,-0.079580,-0.215000,-0.267584,56.628380,-0.963168,0.880336,0.001931,0.474305,-0.006292
349,-8.165119,-0.015400,5.394870,-0.066009,-0.087406,-0.094298,-0.263918,56.617699,-0.961309,0.880380,0.001951,0.474223,-0.006293
350,-8.165075,-0.014264,5.390650,-0.204759,-0.298206,-0.228416,-0.262104,56.602394,-0.958968,0.880444,0.001954,0.474106,-0.006284
351,-8.169681,-0.025656,5.388545,-0.285582,-0.414279,-0.359567,-0.278269,56.586353,-0.971003,0.880509,0.001878,0.473983,-0.006310
352,-8.159162,-0.016773,5.381725,-0.255018,-0.399030,-0.295411,-0.297786,56.572372,-0.985746,0.880567,0.001788,0.473876,-0.006344
353,-8.161782,-0.010821,5.374554,-0.143483,-0.316518,-0.138024,-0.296493,56.564915,-0.983069,0.880598,0.001786,0.473819,-0.006329
354,-8.161722,-0.017090,5.376618,0.032148,-0.049279,-0.017247,-0.282467,56.566967,-0.971223,0.880590,0.001845,0.473834,-0.006296
355,-8.163110,-0.018644,5.374548,0.131433,0.175252,0.214845,-0.261578,56.577885,-0.954255,0.880545,0.001936,0.473917,-0.006251
356,-8.166327,-0.007039,5.378560,0.252118,0.329576,0.317290,-0.223791,56.594624,-0.923185,0.880477,0.002100,0.474044,-0.006168
357,-8.177189,-0.024779,5.384550,0.194207,0.291583,0.259418,-0.192050,56.611214,-0.897626,0.880409,0.002239,0.474171,-0.006102
358,-8.171662,-0.025143,5.384049,0.058341,0.137548,0.250175,-0.182676,56.621708,-0.888652,0.880366,0.002274,0.474251,-0.006071
359,-8.181933,-0.025241,5.381453,-0.100437,-0.021059,0.021163,-0.187288,56.627213,-0.889433,0.880343,0.002243,0.474294,-0.006058
360,-8.176191,-0.023161,5.380227,-0.118821,-0.141491,-0.285659,-0.207309,56.629181,-0.905521,0.880335,0.002155,0.474309,-0.006099
361,-8.173576,-0.030151,5.388846,-0.134167,-0.188794,-0.288843,-0.237540,56.623627,-0.932501,0.880357,0.002034,0.474268,-0.006181
362,-8.170198,-0.028017,5.385167,-0.151039,-0.315512,-0.279822,-0.268209,56.612495,-0.959336,0.880402,0.001909,0.474183,-0.006261
363,-8.186107,-0.032150,5.386816,-0.103803,-0.455852,-0.501183,-0.301052,56.601353,-0.990341,0.880447,0.001784,0.474099,-0.006364
364,-8.181479,-0.016203,5.391201,-0.094621,-0.606826,-0.546917,-0.327025,56.587265,-1.018828,0.880504,0.001701,0.473992,-0.006476
365,-8.184394,-0.012540,5.407287,-0.050205,-0.753356,-0.131619,-0.324845,56.562969,-1.021150,0.880604,0.001726,0.473805,-0.006504
366,-8.185901,-0.020859,5.403422,-0.147714,-0.977719,-0.146650,-0.315069,56.532036,-1.012703,0.880732,0.001764,0.473567,-0.006482
367,-8.175039,-0.007857,5.402264,-0.231471,-1.165378,-0.347815,-0.311212,56.497551,-1.008649,0.880875,0.001774,0.473302,-0.006468
368,-8.152965,-0.002014,5.412170,-0.272406,-1.273827,-0.197874,-0.298238,56.452576,-0.995723,0.881061,0.001817,0.472955,-0.006425
369,-8.147845,-0.018949,5.406157,-0.290520,-1.432678,0.023682,-0.285829,56.401310,-0.979032,0.881273,0.001839,0.472561,-0.006351
370,-8.136347,-0.020172,5.399499,-0.351470,-1.363992,-0.305788,-0.291982,56.355484,-0.977713,0.881462,0.001783,0.472209,-0.006318
371,-8.128856,-0.033465,5.408704,-0.208027,-1.055698,-0.137929,-0.311485,56.317421,-0.990163,0.881619,0.001681,0.471917,-0.006335
372,-8.124041,-0.044076,5.409419,0.007016,-0.776404,0.084689,-0.330418,56.288841,-1.003528,0.881736,0.001588,0.471698,-0.006362
373,-8.130576,-0.040008,5.409773,0.096918,-0.576345,-0.080301,-0.344927,56.272713,-1.016927,0.881802,0.001531,0.471574,-0.006406
374,-8.129638,-0.045586,5.425348,0.163941,-0.393098,-0.002655,-0.357805,56.261951,-1.031968,0.881845,0.001492,0.471492,-0.006470
375,-8.141249,-0.055927,5.443116,0.081352,-0.649486,-0.021249,-0.378638,56.243244,-1.052853,0.881921,0.001417,0.471349,-0.006546
376,-8.153007,-0.027826,5.449706,-0.210173,-1.388087,-0.546279,-0.404230,56.207024,-1.077474,0.882069,0.001318,0.471071,-0.006632
377,-8.183016,-0.036522,5.486899,-0.507679,-2.303690,-0.573671,-0.436883,56.143452,-1.104796,0.882329,0.001173,0.470584,-0.006713
378,-8.192170,-0.036904,5.524571,-0.850992,-3.744321,-0.524813,-0.482981,56.036198,-1.134018,0.882768,0.000928,0.469760,-0.006756
379,-8.187772,-0.020560,5.553413,-1.410922,-5.932767,-0.765785,-0.539509,55.864021,-1.160843,0.883471,0.000586,0.468436,-0.006745
380,-8.194361,-0.039584,5.597803,-1.937260,-8.743846,-0.117112,-0.599832,55.606419,-1.171456,0.884522,0.000138,0.466453,-0.006601
381,-8.147680,-0.053109,5.650619,-2.106584,-11.722914,0.890069,-0.636660,55.247044,-1.136866,0.885982,-0.000323,0.463679,-0.006214
382,-8.074888,-0.045033,5.708677,-2.425437,-14.728175,0.848959,-0.655427,54.777988,-1.070880,0.887875,-0.000779,0.460049,-0.005666
383,-7.977214,-0.065935,5.765568,-2.480320,-17.336937,0.934473,-0.680673,54.205822,-1.003940,0.890163,-0.001296,0.455611,-0.005093
384,-7.897181,-0.089358,5.843352,-2.582612,-19.301922,0.940485,-0.718578,53.550793,-0.943590,0.892755,-0.001889,0.450516,-0.004526
385,-7.795955,-0.068270,5.920815,-2.726089,-20.587982,0.171349,-0.775190,52.837090,-0.901813,0.895543,-0.002557,0.444949,-0.004038
386,-7.723122,-0.081362,6.031463,-2.887819,-21.620836,-0.431384,-0.859298,52.080441,-0.890766,0.898459,-0.003325,0.439029,-0.003692
387,-7.634216,-0.108546,6.130023,-2.829883,-22.516422,-0.532178,-0.965150,51.288830,-0.901680,0.901466,-0.004187,0.432816,-0.003448
388,-7.584377,-0.141271,6.275968,-3.144382,-23.926308,-1.274000,-1.100487,50.456043,-0.939649,0.904580,-0.005192,0.426259,-0.003324
389,-7.524017,-0.194878,6.419261,-3.172176,-26.497492,-2.850710,-1.298744,49.553074,-1.043846,0.907896,-0.006473,0.419130,-0.003521
390,-7.407712,-0.233767,6.550278,-2.849167,-29.795137,-4.612240,-1.561392,48.545712,-1.232799,0.911521,-0.007998,0.411154,-0.004205
391,-7.288864,-0.275627,6.665443,-2.687986,-33.153877,-6.309766,-1.872199,47.422817,-1.496238,0.915468,-0.009707,0.402237,-0.005384
392,-7.137905,-0.280921,6.779057,-2.337517,-35.966263,-7.434973,-2.199260,46.197483,-1.802659,0.919665,-0.011480,0.392474,-0.006939
393,-6.948015,-0.282922,6.874330,-1.535139,-37.458652,-7.651990,-2.490282,44.901737,-2.105396,0.923986,-0.013065,0.382105,-0.008678
394,-6.753923,-0.281089,6.973767,-0.544800,-37.617290,-7.047772,-2.706905,43.582233,-2.367003,0.928267,-0.014262,0.371494,-0.010407
395,-6.602468,-0.296901,7.079701,0.110034,-37.465908,-6.447933,-2.850425,42.273415,-2.579671,0.932400,-0.015078,0.360914,-0.012023
396,-6.453504,-0.263356,7.228013,0.711735,-37.129646,-5.919561,-2.928543,40.983742,-2.747243,0.936361,-0.015540,0.350433,-0.013505
397,-6.308427,-0.272050,7.388283,1.460182,-36.620888,-4.701257,-2.936895,39.712746,-2.862118,0.940162,-0.015615,0.340048,-0.014780
398,-6.171754,-0.292685,7.561563,1.937021,-35.944252,-2.825300,-2.881420,38.464752,-2.911679,0.943798,-0.015365,0.329793,-0.015702
399,-6.037464,-0.284708,7.739071,1.838592,-35.021957,-1.278969,-2.776805,37.245766,-2.893288,0.947256,-0.014894,0.319722,-0.016182
400,-5.887110,-0.268104,7.890821,2.094262,-33.242115,0.406261,-2.629030,36.073524,-2.812092,0.950496,-0.014211,0.309988,-0.016225
401,-5.723218,-0.279968,7.977934,2.479575,-31.221090,1.990716,-2.442468,34.969784,-2.676199,0.953469,-0.013308,0.300779,-0.015866
402,-5.604301,-0.269672,8.078397,2.492420,-30.005508,2.448924,-2.242288,33.931046,-2.514044,0.956192,-0.012310,0.292081,-0.015271
403,-5.479042,-0.220935,8.149484,2.415291,-29.839411,2.247967,-2.043976,32.928677,-2.352954,0.958745,-0.011283,0.283665,-0.014633
404,-5.312270,-0.203560,8.215491,3.174438,-29.834917,3.012956,-1.830493,31.935213,-2.185464,0.961204,-0.010109,0.275302,-0.013939
405,-5.184869,-0.191127,8.298632,3.434519,-30.161474,3.367399,-1.599649,30.939173,-2.005793,0.963596,-0.008783,0.266895,-0.013145
406,-5.047959,-0.158418,8.392742,3.772372,-30.445190,2.824554,-1.369603,29.936714,-1.838095,0.965925,-0.007402,0.258419,-0.012408
407,-4.902584,-0.111424,8.492877,4.075211,-30.165840,2.544200,-1.138437,28.933466,-1.691050,0.968176,-0.005932,0.249920,-0.011806
408,-4.783183,-0.096093,8.596470,4.642032,-29.619387,2.497298,-0.901303,27.945927,-1.557263,0.970316,-0.004351,0.241538,-0.011288
409,-4.658486,-0.030391,8.699079,4.195708,-29.988350,1.544017,-0.672381,26.966282,-1.447202,0.972362,-0.002761,0.233209,-0.010913
410,-4.499988,-0.007911,8.802762,2.923952,-30.413807,0.647226,-0.486914,25.971230,-1.374851,0.974359,-0.001444,0.224738,-0.010736
411,-4.332200,0.025755,8.899478,1.687278,-30.609047,0.688850,-0.353856,24.957668,-1.323048,0.976314,-0.000520,0.216098,-0.010606
412,-4.171378,0.000861,8.945112,0.892955,-30.157352,0.643402,-0.264824,23.946106,-1.278113,0.978187,0.000053,0.207463,-0.010431
413,-3.992228,0.002618,8.973424,0.011412,-29.864307,0.025604,-0.221880,22.948614,-1.252443,0.979958,0.000277,0.198937,-0.010326
415,-3.797383,-0.029016,9.044394,-0.762009,-30.628910,-0.410713,-0.224898,21.935955,-1.250797,0.981677,0.000150,0.190270,-0.010342
416,-3.652783,-0.039517,9.129465,-0.830666,-31.762926,-1.118738,-0.259235,20.886002,-1.273157,0.983377,-0.000211,0.181270,-0.010516
417,-3.403792,-0.025313,9.216736,-0.768045,-35.804195,-2.122778,-0.301248,19.734884,-1.323934,0.985143,-0.000610,0.171387,-0.010932
418,-3.161655,0.001489,9.344099,-1.040880,-40.922009,-2.881058,-0.344050,18.400585,-1.399835,0.987063,-0.001010,0.159910,-0.011578
419,-2.890829,-0.001584,9.481572,-0.971731,-44.577137,-3.329525,-0.386174,16.892384,-1.491862,0.989071,-0.001421,0.146911,-0.012382
420,-2.650615,0.002813,9.554969,-0.348590,-44.796185,-3.483480,-0.413392,15.308003,-1.591744,0.990995,-0.001725,0.133226,-0.013286
421,-2.347497,0.029570,9.608005,0.694388,-44.408024,-2.996507,-0.399808,13.722054,-1.683367,0.992732,-0.001709,0.119499,-0.014168
422,-2.176816,-0.017285,9.665075,1.099453,-40.999752,-2.434799,-0.359071,12.211460,-1.759249,0.994210,-0.001482,0.106398,-0.014931
423,-1.961550,0.003460,9.680380,1.463162,-36.879719,-1.906716,-0.307070,10.853787,-1.820422,0.995393,-0.001165,0.094606,-0.015561
424,-1.795327,-0.008448,9.703909,1.141702,-33.361870,-1.584646,-0.251980,9.645389,-1.869581,0.996328,-0.000819,0.084097,-0.016072
425,-1.628124,-0.028842,9.726029,0.685724,-32.069839,-1.764657,-0.218468,8.537621,-1.919495,0.997087,-0.000654,0.074457,-0.016562
426,-1.450944,-0.025020,9.721765,0.104470,-30.893511,-1.766164,-0.207961,7.481740,-1.974108,0.997722,-0.000687,0.065266,-0.017071
427,-1.282992,-0.010219,9.731887,-0.571336,-29.210432,-1.579976,-0.214841,6.479209,-2.025528,0.998246,-0.000873,0.056536,-0.017541
428,-1.136966,-0.059238,9.779840,-1.885146,-27.086193,-2.309364,-0.261677,5.546756,-2.086602,0.998663,-0.001400,0.048419,-0.018076
429,-0.971452,-0.026724,9.732396,-3.241716,-23.873867,-3.176093,-0.355886,4.707169,-2.173829,0.998974,-0.002324,0.041118,-0.018825
430,-0.853870,-0.031014,9.763340,-4.884907,-18.296240,-3.368337,-0.490057,4.018400,-2.277148,0.999182,-0.003576,0.035138,-0.019708
431,-0.768282,-0.065274,9.840648,-6.271738,-12.457436,-3.931380,-0.674279,3.529196,-2.393046,0.999294,-0.005237,0.030909,-0.020690
432,-0.731010,-0.138769,9.864029,-6.706645,-7.271380,-5.129222,-0.900038,3.236822,-2.539782,0.999330,-0.007223,0.028409,-0.021931
433,-0.722935,-0.164528,9.869779,-6.120844,-2.580826,-5.260441,-1.129598,3.124941,-2.710737,0.999306,-0.009206,0.027491,-0.023375
434,-0.753917,-0.242992,9.952546,-4.752359,0.805475,-4.462366,-1.330543,3.163807,-2.873121,0.999245,-0.010911,0.027886,-0.024738
435,-0.773956,-0.254403,9.922807,-2.759838,2.365528,-3.606295,-1.477016,3.296684,-3.010001,0.999168,-0.012124,0.029091,-0.025881
436,-0.810830,-0.266743,9.906260,-0.866333,3.355030,-2.249702,-1.550184,3.478605,-3.110767,0.999091,-0.012693,0.030705,-0.026718
437,-0.826845,-0.238636,9.908676,0.696302,3.712795,-0.484142,-1.552596,3.684157,-3.159408,0.999024,-0.012650,0.032503,-0.027115
438,-0.842422,-0.222060,9.891484,1.932664,3.403565,0.941150,-1.493958,3.885347,-3.153951,0.998974,-0.012092,0.034242,-0.027060
439,-0.842177,-0.180909,9.866810,2.931207,2.672932,1.698097,-1.386388,4.060199,-3.110721,0.998943,-0.011125,0.035737,-0.026695
440,-0.852045,-0.167727,9.881905,3.014317,1.897785,1.460141,-1.255071,4.199558,-3.057585,0.998924,-0.009964,0.036917,-0.026259
441,-0.867323,-0.144931,9.871331,2.943284,1.204894,1.176401,-1.125013,4.308445,-3.012482,0.998910,-0.008819,0.037832,-0.025897
442,-0.872566,-0.123026,9.872630,2.556382,0.780463,0.856035,-1.003341,4.394262,-2.976970,0.998898,-0.007750,0.038551,-0.025620
443,-0.874559,-0.117769,9.864147,2.079372,0.603106,0.425792,-0.900121,4.464804,-2.953988,0.998886,-0.006842,0.039141,-0.025449
444,-0.878447,-0.116893,9.866966,1.368739,0.497369,-0.076186,-0.824202,4.526377,-2.946965,0.998871,-0.006169,0.039661,-0.025410
445,-0.875323,-0.101174,9.876266,1.594955,0.161107,0.261088,-0.759291,4.576077,-2.942781,0.998858,-0.005593,0.040079,-0.025392
446,-0.878725,-0.102835,9.881148,1.639539,-0.124898,0.436608,-0.691113,4.611621,-2.930022,0.998852,-0.004996,0.040373,-0.025303
447,-0.875817,-0.099790,9.875893,1.569573,-0.603237,0.726563,-0.626880,4.631762,-2.909661,0.998852,-0.004438,0.040534,-0.025147
448,-0.868297,-0.088938,9.892874,1.507196,-1.315145,1.187415,-0.565527,4.628124,-2.876689,0.998863,-0.003916,0.040488,-0.024881
449,-0.861016,-0.083526,9.898175,1.179282,-2.138539,1.404116,-0.510766,4.595214,-2.832266,0.998885,-0.003462,0.040187,-0.024515
450,-0.862670,-0.089232,9.902255,0.446900,-2.476689,1.054690,-0.477787,4.542875,-2.790263,0.998913,-0.003200,0.039723,-0.024163
451,-0.838453,-0.078545,9.882787,0.050174,-2.936944,0.914311,-0.466294,4.475918,-2.756541,0.998944,-0.003126,0.039136,-0.023876
452,-0.810223,-0.071566,9.871473,-0.126773,-3.397337,0.863963,-0.462765,4.388007,-2.725761,0.998980,-0.003124,0.038368,-0.023612
453,-0.789305,-0.084895,9.872124,-0.372428,-3.560279,0.651864,-0.468400,4.285562,-2.699424,0.999019,-0.003203,0.037475,-0.023385
454,-0.762430,-0.068965,9.880046,-0.329671,-3.717190,0.561839,-0.477250,4.174779,-2.678042,0.999058,-0.003310,0.036511,-0.023201
455,-0.732215,-0.065909,9.885046,-0.370736,-4.014589,0.613731,-0.481982,4.052368,-2.656919,0.999101,-0.003383,0.035444,-0.023021
456,-0.723142,-0.069532,9.891365,-0.507924,-4.009853,0.447417,-0.489501,3.925128,-2.637638,0.999143,-0.003480,0.034335,-0.022856
457,-0.705660,-0.084391,9.899188,-0.584153,-3.898227,0.307039,-0.504102,3.802809,-2.623701,0.999181,-0.003636,0.033271,-0.022735
458,-0.685837,-0.073113,9.893256,-0.523048,-3.731639,0.297890,-0.519098,3.686235,-2.612280,0.999216,-0.003793,0.032257,-0.022637
459,-0.669649,-0.102746,9.888557,-0.422333,-3.597064,0.325359,-0.533975,3.575870,-2.600737,0.999248,-0.003948,0.031298,-0.022537
460,-0.665979,-0.108086,9.897192,-0.251569,-3.207569,0.256688,-0.550138,3.477930,-2.590299,0.999276,-0.004112,0.030446,-0.022446
461,-0.641456,-0.104705,9.914500,0.042812,-2.920280,0.361972,-0.557826,3.392476,-2.579286,0.999300,-0.004198,0.029702,-0.022352
462,-0.620337,-0.102812,9.911142,0.183122,-2.501834,0.491675,-0.556221,3.315999,-2.564340,0.999322,-0.004203,0.029034,-0.022226
463,-0.600305,-0.103016,9.910422,0.230362,-2.330647,0.587808,-0.550780,3.246934,-2.545690,0.999344,-0.004174,0.028430,-0.022068
464,-0.585727,-0.087286,9.906432,0.186116,-2.217489,0.487100,-0.542570,3.180866,-2.527010,0.999363,-0.004120,0.027852,-0.021910
465,-0.559565,-0.079580,9.888090,0.209111,-2.430957,0.654958,-0.530651,3.110061,-2.506983,0.999385,-0.004034,0.027232,-0.021742
466,-0.549967,-0.082292,9.890199,0.166497,-2.414064,0.702270,-0.518625,3.033872,-2.483342,0.999407,-0.003950,0.026564,-0.021542
467,-0.551122,-0.087305,9.892118,0.290163,-2.352708,0.513061,-0.507253,2.967354,-2.462202,0.999427,-0.003868,0.025981,-0.021363
468,-0.541933,-0.094451,9.893746,0.207719,-2.259088,0.255183,-0.500045,2.912113,-2.448794,0.999442,-0.003818,0.025497,-0.021250
469,-0.540504,-0.102683,9.894154,0.175452,-2.000570,0.067488,-0.502306,2.866661,-2.443243,0.999453,-0.003848,0.025101,-0.021203
470,-0.534257,-0.105577,9.896081,0.201055,-1.516121,-0.251441,-0.509722,2.837223,-2.446479,0.999458,-0.003917,0.024846,-0.021231
471,-0.527489,-0.105301,9.900421,0.214441,-1.295661,-0.396415,-0.517213,2.819318,-2.457564,0.999460,-0.003984,0.024692,-0.021327
472,-0.519250,-0.093628,9.899579,0.029597,-1.166825,-0.356745,-0.522031,2.804529,-2.470171,0.999460,-0.004026,0.024564,-0.021437
473,-0.530037,-0.100250,9.880480,0.182051,-0.461099,-0.434567,-0.524733,2.807215,-2.483403,0.999457,-0.004046,0.024588,-0.021551
474,-0.528449,-0.089138,9.867227,0.500882,0.552989,-0.320119,-0.517448,2.843583,-2.496179,0.999447,-0.003973,0.024905,-0.021663
475,-0.528622,-0.078884,9.903351,0.636802,1.330469,-0.028654,-0.494245,2.906256,-2.502041,0.999433,-0.003757,0.025447,-0.021716
476,-0.529934,-0.073479,9.914520,0.739258,1.668306,0.064443,-0.462591,2.980572,-2.501411,0.999418,-0.003467,0.026089,-0.021715
477,-0.541135,-0.079154,9.949517,0.609681,1.890041,0.026305,-0.434960,3.058934,-2.500092,0.999401,-0.003211,0.026767,-0.021706
478,-0.535897,-0.070193,9.968752,0.541077,1.498129,0.358963,-0.412902,3.125488,-2.493941,0.999387,-0.003008,0.027343,-0.021656
479,-0.537776,-0.075622,9.979938,0.306101,0.599321,0.479511,-0.397345,3.159010,-2.480157,0.999382,-0.002869,0.027632,-0.021538
480,-0.543253,-0.081063,9.948641,0.041966,-0.241588,0.319280,-0.396862,3.160086,-2.467198,0.999384,-0.002868,0.027641,-0.021425
481,-0.548649,-0.080530,9.922633,-0.235981,-0.562080,0.297904,-0.408700,3.144838,-2.457308,0.999389,-0.002976,0.027510,-0.021336
482,-0.545179,-0.077342,9.902806,-0.182752,-0.800106,0.535938,-0.422036,3.122957,-2.443617,0.999397,-0.003100,0.027322,-0.021215
483,-0.548650,-0.077352,9.910937,-0.329347,-0.967872,0.404704,-0.433968,3.097054,-2.427931,0.999406,-0.003212,0.027098,-0.021076
484,-0.542213,-0.065423,9.901506,-0.471208,-0.873127,0.192604,-0.444744,3.071968,-2.417619,0.999413,-0.003313,0.026880,-0.020984
485,-0.538439,-0.074915,9.898464,-0.463467,-0.752448,0.273485,-0.455461,3.050194,-2.409389,0.999419,-0.003413,0.026692,-0.020911
486,-0.532086,-0.083175,9.898237,-0.410085,-0.744704,0.378774,-0.470423,3.029880,-2.398354,0.999425,-0.003550,0.026517,-0.020812
487,-0.522909,-0.077312,9.896100,-0.342949,-0.640905,0.308581,-0.482571,3.008312,-2.386703,0.999432,-0.003662,0.026331,-0.020709
488,-0.514678,-0.081414,9.886017,-0.175041,-0.453272,0.067487,-0.488631,2.987895,-2.380154,0.999438,-0.003720,0.026154,-0.020651
489,-0.523686,-0.082903,9.914415,-0.107867,-0.383068,-0.043904,-0.491968,2.974452,-2.379570,0.999441,-0.003752,0.026037,-0.020646
490,-0.518812,-0.078689,9.904492,0.029544,-0.419590,-0.017958,-0.490233,2.965035,-2.380327,0.999443,-0.003738,0.025955,-0.020653
491,-0.517527,-0.085930,9.914173,0.092156,-0.387468,0.035452,-0.486156,2.954719,-2.379816,0.999445,-0.003705,0.025864,-0.020650
492,-0.520382,-0.097380,9.915594,0.175945,-0.375140,-0.066790,-0.487234,2.946829,-2.380515,0.999447,-0.003715,0.025796,-0.020656
493,-0.518546,-0.080371,9.929927,0.110242,-0.341417,0.001873,-0.486049,2.940991,-2.381679,0.999448,-0.003706,0.025745,-0.020667
494,-0.511441,-0.077940,9.925230,0.127126,-0.382532,0.120902,-0.478007,2.932349,-2.379324,0.999451,-0.003638,0.025668,-0.020648
495,-0.512377,-0.082708,9.928357,0.061572,-0.403844,0.072075,-0.472236,2.921307,-2.375869,0.999454,-0.003590,0.025570,-0.020620
496,-0.509274,-0.077095,9.906590,0.057040,-0.449549,0.038508,-0.468354,2.909984,-2.373814,0.999457,-0.003559,0.025471,-0.020603
497,-0.506167,-0.059983,9.898653,0.054233,-0.437277,0.073617,-0.456564,2.897798,-2.371324,0.999460,-0.003459,0.025362,-0.020585
498,-0.513241,-0.061850,9.900578,0.256021,-0.392881,0.130096,-0.436564,2.889782,-2.367073,0.999463,-0.003287,0.025289,-0.020552
499,-0.504778,-0.083512,9.908735,0.231692,-0.436973,0.310161,-0.424573,2.882412,-2.359444,0.999467,-0.003185,0.025222,-0.020489
500,-0.498046,-0.082122,9.905962,0.143027,-0.481188,0.432227,-0.424148,2.868679,-2.347265,0.999472,-0.003187,0.025102,-0.020383
501,-0.495617,-0.068336,9.906939,0.161303,-0.473573,0.449010,-0.419768,2.852273,-2.332516,0.999478,-0.003155,0.024957,-0.020256
502,-0.496179,-0.085472,9.904437,0.210056,-0.517807,0.546666,-0.415796,2.836589,-2.315932,0.999485,-0.003126,0.024819,-0.020113
503,-0.493439,-0.090267,9.893413,0.046481,-0.615409,0.558859,-0.422711,2.820113,-2.297946,0.999491,-0.003194,0.024676,-0.019955
504,-0.503276,-0.063576,9.892690,0.058602,-0.570972,0.622945,-0.423481,2.807870,-2.278255,0.999497,-0.003207,0.024569,-0.019784
505,-0.504312,-0.052056,9.912165,0.194703,-0.550807,0.868635,-0.406229,2.802475,-2.252650,0.999503,-0.003063,0.024519,-0.019564
506,-0.497767,-0.059017,9.914107,0.196541,-0.477269,1.080756,-0.385598,2.797328,-2.219387,0.999511,-0.002891,0.024469,-0.019279
507,-0.491464,-0.052400,9.928064,0.089973,-0.402319,1.193688,-0.369079,2.790143,-2.180852,0.999519,-0.002756,0.024403,-0.018946
508,-0.481130,-0.056088,9.921513,0.030676,-0.466370,1.262365,-0.356515,2.777440,-2.139360,0.999529,-0.002657,0.024289,-0.018587
509,-0.474934,-0.064912,9.907426,0.021563,-0.550373,1.112827,-0.351973,2.757614,-2.099538,0.999539,-0.002629,0.024115,-0.018242
510,-0.473693,-0.067047,9.898054,0.045887,-0.574872,0.906822,-0.352896,2.735685,-2.065901,0.999549,-0.002648,0.023923,-0.017949
512,-0.477446,-0.077792,9.902952,-0.044365,-0.536713,0.464292,-0.360664,2.717749,-2.043333,0.999556,-0.002723,0.023767,-0.017751
513,-0.477287,-0.066597,9.888949,0.024099,-0.492345,0.069069,-0.368733,2.705313,-2.034713,0.999560,-0.002797,0.023659,-0.017674
514,-0.486664,-0.055838,9.905625,0.105006,-0.344075,0.058391,-0.365106,2.701569,-2.032433,0.999561,-0.002767,0.023626,-0.017655
515,-0.478787,-0.069020,9.929899,0.187428,-0.159161,0.209460,-0.359177,2.704288,-2.027870,0.999561,-0.002715,0.023649,-0.017617
516,-0.468477,-0.072062,9.932865,0.052998,-0.033945,0.110269,-0.360892,2.704757,-2.022796,0.999562,-0.002731,0.023653,-0.017572
517,-0.460156,-0.061236,9.926966,-0.003543,-0.093547,0.134679,-0.363144,2.699001,-2.018850,0.999564,-0.002753,0.023603,-0.017537
518,-0.468030,-0.068108,9.931178,-0.192795,0.031493,0.134677,-0.367693,2.694551,-2.014419,0.999565,-0.002794,0.023565,-0.017498
519,-0.464295,-0.077119,9.930423,-0.357773,0.141329,-0.016398,-0.383913,2.696205,-2.012800,0.999565,-0.002936,0.023582,-0.017480
520,-0.457154,-0.103315,9.909164,-0.463545,-0.080052,-0.001162,-0.416996,2.692382,-2.014010,0.999564,-0.003225,0.023553,-0.017484
521,-0.468420,-0.108212,9.888365,-0.510028,-0.194555,-0.002722,-0.461452,2.685451,-2.015364,0.999564,-0.003613,0.023500,-0.017487
522,-0.478918,-0.109648,9.911796,-0.539656,-0.046372,0.068968,-0.504382,2.688128,-2.015424,0.999562,-0.003987,0.023530,-0.017479
523,-0.471332,-0.108652,9.933983,-0.415019,-0.160636,0.332931,-0.539617,2.691992,-2.009613,0.999561,-0.004295,0.023569,-0.017421
524,-0.466416,-0.121044,9.929281,-0.384969,-0.326918,0.468717,-0.571057,2.685688,-1.997041,0.999563,-0.004573,0.023518,-0.017305
525,-0.474641,-0.092673,9.914485,-0.333292,-0.305468,0.386308,-0.590576,2.678779,-1.983056,0.999566,-0.004747,0.023460,-0.017179
526,-0.466849,-0.084895,9.923766,-0.189629,-0.329767,0.413787,-0.589600,2.672967,-1.969175,0.999569,-0.004742,0.023409,-0.017059
527,-0.464078,-0.094213,9.915041,-0.032216,-0.215288,0.328346,-0.583008,2.665426,-1.956247,0.999573,-0.004689,0.023341,-0.016947
528,-0.460081,-0.098261,9.907652,-0.007702,-0.181717,0.218485,-0.579248,2.658895,-1.946871,0.999576,-0.004659,0.023283,-0.016867
529,-0.456735,-0.093684,9.903847,0.181599,-0.387759,0.186444,-0.572562,2.647779,-1.939859,0.999579,-0.004603,0.023185,-0.016807
530,-0.464211,-0.083054,9.913326,0.049060,-0.312965,-0.094316,-0.559986,2.637087,-1.937806,0.999582,-0.004496,0.023090,-0.016793
531,-0.462926,-0.084342,9.925524,0.008136,-0.172470,-0.111087,-0.548142,2.633384,-1.940644,0.999583,-0.004392,0.023056,-0.016820
532,-0.452165,-0.094009,9.911642,0.176117,-0.494420,0.151378,-0.539846,2.623054,-1.939627,0.999586,-0.004322,0.022965,-0.016813
533,-0.453015,-0.086853,9.905224,0.109046,-0.666894,0.245988,-0.531970,2.602024,-1.932688,0.999591,-0.004258,0.022780,-0.016755
534,-0.449899,-0.074483,9.918386,0.155056,-0.534154,0.426058,-0.517774,2.581478,-1.920871,0.999597,-0.004139,0.022598,-0.016656
535,-0.431394,-0.084441,9.925252,0.436045,-0.709798,0.795341,-0.498198,2.554410,-1.899913,0.999606,-0.003976,0.022358,-0.016478
536,-0.430542,-0.089921,9.921304,0.332297,-0.949640,0.851798,-0.483550,2.516157,-1.872172,0.999618,-0.003859,0.022022,-0.016240
537,-0.429420,-0.084487,9.929867,0.188818,-0.882682,0.775498,-0.475339,2.478533,-1.844844,0.999629,-0.003798,0.021691,-0.016005
538,-0.427926,-0.078245,9.919637,0.175118,-0.762214,0.639691,-0.466951,2.448083,-1.820956,0.999639,-0.003734,0.021424,-0.015799
539,-0.424535,-0.086520,9.908390,0.117115,-0.724072,0.604595,-0.461852,2.423266,-1.800027,0.999646,-0.003697,0.021206,-0.015619
540,-0.429895,-0.087793,9.924323,0.013223,-0.412679,0.467256,-0.464141,2.408612,-1.782215,0.999651,-0.003722,0.021078,-0.015463
541,-0.422212,-0.081758,9.917459,0.191668,-0.200432,0.401639,-0.463659,2.404248,-1.767788,0.999654,-0.003721,0.021039,-0.015338
542,-0.422039,-0.067332,9.916224,0.158207,-0.175914,0.410800,-0.452828,2.402206,-1.754000,0.999657,-0.003629,0.021020,-0.015220
543,-0.413519,-0.080640,9.920506,0.284962,-0.236922,0.448953,-0.440724,2.396595,-1.739432,0.999660,-0.003527,0.020969,-0.015095
544,-0.415553,-0.074439,9.913948,0.237656,-0.182009,0.278049,-0.431664,2.388916,-1.727259,0.999663,-0.003452,0.020900,-0.014991
545,-0.413547,-0.057395,9.899123,0.225631,-0.252190,0.264323,-0.416231,2.382198,-1.717852,0.999666,-0.003319,0.020839,-0.014912
546,-0.414458,-0.068415,9.923835,0.221253,-0.275058,0.247546,-0.400379,2.374305,-1.708916,0.999669,-0.003184,0.020768,-0.014837
547,-0.416087,-0.074770,9.918158,0.242600,-0.230744,0.036969,-0.393136,2.368385,-1.704139,0.999671,-0.003122,0.020715,-0.014797
548,-0.421319,-0.067782,9.899609,0.218134,-0.210747,-0.112573,-0.387554,2.367447,-1.705434,0.999671,-0.003074,0.020706,-0.014809
549,-0.424516,-0.078380,9.907408,0.333996,-0.100623,-0.237702,-0.382917,2.372522,-1.711420,0.999670,-0.003031,0.020750,-0.014862
550,-0.425963,-0.085858,9.907039,0.417623,-0.158316,-0.190408,-0.382640,2.379851,-1.719026,0.999667,-0.003027,0.020814,-0.014928
551,-0.427299,-0.080443,9.902783,-0.261740,-0.112237,0.322291,-0.393041,2.387368,-1.717340,0.999666,-0.003117,0.020881,-0.014911
552,-0.425860,-0.060476,9.908306,-0.579199,-0.121118,0.723608,-0.408958,2.394565,-1.699978,0.999666,-0.003258,0.020946,-0.014757
553,-0.430059,-0.064657,9.921254,-0.562281,-0.198672,0.648846,-0.421764,2.400140,-1.676829,0.999668,-0.003373,0.020995,-0.014552
554,-0.428775,-0.088370,9.921935,-0.791258,-0.506639,0.513037,-0.447038,2.399312,-1.657510,0.999670,-0.003597,0.020990,-0.014379
555,-0.431077,-0.092215,9.927566,-0.831221,-0.655911,0.566434,-0.484900,2.390830,-1.639837,0.999672,-0.003932,0.020921,-0.014218
556,-0.421386,-0.093062,9.929792,-0.245494,-0.703005,0.313122,-0.511374,2.376708,-1.625357,0.999676,-0.004167,0.020800,-0.014088
557,-0.410715,-0.112800,9.923886,-0.016925,-0.637337,0.003346,-0.528316,2.356558,-1.620410,0.999679,-0.004318,0.020626,-0.014042
558,-0.408055,-0.120505,9.929977,-0.243273,-0.373369,-0.076023,-0.553150,2.339002,-1.622307,0.999681,-0.004537,0.020476,-0.014055
559,-0.406661,-0.100749,9.921883,-0.133731,-0.208562,0.134542,-0.572429,2.329601,-1.621770,0.999682,-0.004706,0.020397,-0.014048
560,-0.400709,-0.100733,9.907771,-0.117010,-0.129223,0.070450,-0.579047,2.323618,-1.618400,0.999683,-0.004765,0.020345,-0.014017
561,-0.404043,-0.087111,9.900931,-0.078754,-0.184157,-0.169117,-0.578049,2.318342,-1.619817,0.999684,-0.004757,0.020299,-0.014030
562,-0.403170,-0.096761,9.916755,0.060261,-0.200904,-0.147747,-0.572304,2.313392,-1.624784,0.999685,-0.004707,0.020255,-0.014075
563,-0.395443,-0.093231,9.917851,0.019149,-0.020880,-0.126381,-0.567648,2.308279,-1.629178,0.999685,-0.004666,0.020210,-0.014114
564,-0.401937,-0.091436,9.926044,0.071152,-0.031594,-0.205724,-0.561459,2.306032,-1.634511,0.999685,-0.004611,0.020190,-0.014162
565,-0.405493,-0.086958,9.927174,0.069793,-0.097136,-0.179775,-0.552738,2.306716,-1.640653,0.999685,-0.004534,0.020195,-0.014217
566,-0.400908,-0.103588,9.916209,0.138482,0.108932,-0.292692,-0.548663,2.309588,-1.648498,0.999683,-0.004497,0.020220,-0.014286
567,-0.402539,-0.099597,9.908820,0.149043,0.281403,-0.463601,-0.549249,2.317636,-1.661371,0.999680,-0.004498,0.020291,-0.014398
568,-0.402157,-0.088042,9.895665,0.236042,0.011357,-0.227081,-0.542480,2.324145,-1.672904,0.999678,-0.004436,0.020347,-0.014499
569,-0.394635,-0.083261,9.910010,0.153809,-0.028374,-0.130941,-0.529517,2.321517,-1.678601,0.999678,-0.004323,0.020323,-0.014551
570,-0.390453,-0.086353,9.922626,0.097502,0.091987,-0.404078,-0.519556,2.315030,-1.687287,0.999679,-0.004235,0.020265,-0.014629
571,-0.399112,-0.084769,9.923068,0.054878,-0.112620,-0.402549,-0.513491,2.309226,-1.700575,0.999678,-0.004181,0.020214,-0.014746
572,-0.399409,-0.084113,9.900888,0.074809,-0.501750,-0.179760,-0.507926,2.298161,-1.710043,0.999679,-0.004132,0.020118,-0.014830
573,-0.405718,-0.097836,9.902975,0.300594,-0.591699,-0.254531,-0.504042,2.283112,-1.717209,0.999681,-0.004099,0.019986,-0.014894
574,-0.400750,-0.088115,9.897981,0.407303,-0.556463,-0.266741,-0.496857,2.269442,-1.725907,0.999682,-0.004036,0.019866,-0.014972
575,-0.388386,-0.086907,9.886995,0.475948,-0.629682,0.065909,-0.483113,2.250669,-1.729121,0.999686,-0.003918,0.019701,-0.015003
576,-0.383266,-0.084539,9.895638,0.430148,-0.577888,0.186455,-0.468714,2.227065,-1.724780,0.999691,-0.003797,0.019493,-0.014969
577,-0.385256,-0.071073,9.929914,0.294427,-0.364322,0.020133,-0.453015,2.208853,-1.721073,0.999695,-0.003663,0.019332,-0.014940
578,-0.375792,-0.072625,9.931897,0.206079,-0.474268,0.172730,-0.438366,2.191745,-1.717509,0.999699,-0.003538,0.019180,-0.014912
579,-0.379115,-0.076231,9.907504,0.200027,-0.436191,0.107117,-0.429310,2.173775,-1.712646,0.999703,-0.003462,0.019022,-0.014871
580,-0.383328,-0.078730,9.911288,0.224395,-0.196552,-0.222484,-0.424192,2.165921,-1.714563,0.999704,-0.003418,0.018953,-0.014889
581,-0.378831,-0.081043,9.917763,0.340249,-0.245278,-0.265214,-0.419739,2.162664,-1.722819,0.999703,-0.003378,0.018924,-0.014962
582,-0.381959,-0.082196,9.911201,0.448424,-0.229909,-0.341516,-0.413601,2.159052,-1.733130,0.999703,-0.003323,0.018892,-0.015053
583,-0.381217,-0.064912,9.917802,0.486544,-0.061913,-0.468167,-0.399647,2.159851,-1.746641,0.999701,-0.003199,0.018898,-0.015173
584,-0.369474,-0.061507,9.940300,0.410387,-0.037480,-0.379658,-0.379648,2.158826,-1.760558,0.999700,-0.003023,0.018887,-0.015298
585,-0.369970,-0.059370,9.930767,0.351013,-0.126078,-0.217906,-0.361849,2.152267,-1.770301,0.999700,-0.002867,0.018827,-0.015386
586,-0.376268,-0.049114,9.916530,0.255072,-0.071153,-0.169070,-0.344310,2.148632,-1.776447,0.999700,-0.002713,0.018793,-0.015443
587,-0.376398,-0.053331,9.912922,0.146921,-0.109223,0.012523,-0.330097,2.148710,-1.778754,0.999700,-0.002589,0.018792,-0.015465
588,-0.378426,-0.063199,9.922187,0.040108,-0.043506,0.084242,-0.326838,2.150258,-1.777122,0.999701,-0.002560,0.018805,-0.015451
589,-0.378164,-0.067655,9.916538,0.035365,0.103098,0.068978,-0.332077,2.155866,-1.774820,0.999700,-0.002606,0.018855,-0.015430
590,-0.378756,-0.070444,9.918824,-0.054895,0.089471,-0.042423,-0.341645,2.163377,-1.774744,0.999698,-0.002688,0.018922,-0.015428
591,-0.384448,-0.063473,9.915933,-0.105416,0.045366,-0.050057,-0.351038,2.171465,-1.776552,0.999696,-0.002769,0.018994,-0.015442
592,-0.384565,-0.069892,9.913656,-0.055191,0.040966,0.075065,-0.358900,2.180028,-1.776341,0.999695,-0.002836,0.019069,-0.015438
593,-0.379040,-0.062280,9.905184,-0.030866,0.073113,0.018602,-0.363891,2.186028,-1.774929,0.999694,-0.002879,0.019122,-0.015425
594,-0.376656,-0.045930,9.906754,-0.068852,-0.064216,0.143734,-0.358989,2.186373,-1.771976,0.999695,-0.002837,0.019125,-0.015400
595,-0.379651,-0.048067,9.925865,0.071831,-0.239706,0.355849,-0.346635,2.181046,-1.763155,0.999697,-0.002731,0.019076,-0.015325
596,-0.371700,-0.056141,9.931211,0.104049,-0.357258,0.400107,-0.336271,2.168931,-1.750223,0.999701,-0.002645,0.018969,-0.015215
597,-0.363932,-0.050840,9.919047,0.058380,-0.421522,0.354333,-0.328731,2.149001,-1.737400,0.999706,-0.002584,0.018794,-0.015105
598,-0.363522,-0.061838,9.909440,0.119441,-0.543789,0.448939,-0.324345,2.125268,-1.723877,0.999712,-0.002551,0.018586,-0.014988
599,-0.368302,-0.076847,9.906376,0.117668,-0.514870,0.365005,-0.329816,2.104749,-1.710570,0.999717,-0.002603,0.018407,-0.014872
600,-0.361852,-0.069778,9.900932,-0.010834,-0.316513,0.291748,-0.340570,2.090433,-1.700013,0.999720,-0.002701,0.018283,-0.014778
601,-0.362103,-0.069605,9.892975,0.039294,-0.040330,0.160511,-0.348921,2.084131,-1.692768,0.999722,-0.002775,0.018229,-0.014714
602,-0.368953,-0.063946,9.905610,0.077303,0.026901,0.088787,-0.352392,2.087576,-1.688812,0.999722,-0.002806,0.018260,-0.014679
603,-0.367543,-0.056450,9.908630,0.063578,-0.037044,0.160507,-0.349557,2.093141,-1.684641,0.999721,-0.002781,0.018308,-0.014643
604,-0.361971,-0.054812,9.911380,0.114032,-0.017149,0.146777,-0.342498,2.094607,-1.679367,0.999722,-0.002720,0.018320,-0.014598
605,-0.367749,-0.055834,9.914169,0.199572,-0.023206,0.018602,-0.333668,2.095821,-1.676477,0.999722,-0.002643,0.018329,-0.014574
606,-0.370279,-0.050500,9.935320,0.112698,-0.206203,0.062859,-0.324262,2.096552,-1.674944,0.999723,-0.002562,0.018334,-0.014562
607,-0.361929,-0.065869,9.928036,0.144719,-0.212258,0.038444,-0.320804,2.091569,-1.673248,0.999724,-0.002532,0.018290,-0.014548
608,-0.358877,-0.070346,9.911592,0.208572,-0.052080,-0.280483,-0.324509,2.085357,-1.677604,0.999724,-0.002565,0.018237,-0.014585
609,-0.371297,-0.068293,9.906180,0.196105,0.143311,-0.593308,-0.328717,2.089671,-1.692565,0.999721,-0.002598,0.018275,-0.014715
610,-0.373956,-0.057873,9.905746,0.269222,0.265607,-0.541429,-0.326756,2.105269,-1.711714,0.999716,-0.002576,0.018411,-0.014882
611,-0.372910,-0.072979,9.906283,0.420121,0.239870,-0.465138,-0.322645,2.121783,-1.728797,0.999712,-0.002535,0.018555,-0.015031
612,-0.378464,-0.051738,9.913363,0.404742,0.281262,-0.533808,-0.314299,2.138042,-1.745680,0.999707,-0.002458,0.018696,-0.015179
613,-0.386018,-0.043846,9.931163,0.282810,0.325768,-0.433091,-0.297782,2.158233,-1.761647,0.999702,-0.002308,0.018871,-0.015321
615,-0.382023,-0.033329,9.926270,0.170167,0.148984,-0.196560,-0.279515,2.175001,-1.771768,0.999698,-0.002145,0.019015,-0.015412
616,-0.380627,-0.027213,9.931704,-0.064446,-0.055381,-0.098886,-0.262746,2.180905,-1.776127,0.999697,-0.001997,0.019064,-0.015453
617,-0.379772,-0.013047,9.907826,-0.167694,0.024023,-0.046984,-0.246053,2.182635,-1.777771,0.999697,-0.001851,0.019077,-0.015470
618,-0.383037,-0.028584,9.908405,-0.196239,0.178217,-0.028656,-0.234296,2.189026,-1.778365,0.999696,-0.001748,0.019131,-0.015477
619,-0.384033,-0.031127,9.913575,-0.237214,0.179844,-0.031699,-0.232549,2.199028,-1.779053,0.999694,-0.001731,0.019218,-0.015483
620,-0.375791,-0.043960,9.920021,-0.072359,-0.021579,0.139206,-0.235437,2.201658,-1.777187,0.999694,-0.001756,0.019241,-0.015466
621,-0.372237,-0.057340,9.893847,0.182273,-0.209395,0.065954,-0.241339,2.192712,-1.774051,0.999696,-0.001809,0.019164,-0.015438
622,-0.354509,-0.062950,9.891892,-0.071396,-0.382136,-0.497128,-0.254423,2.170335,-1.781760,0.999698,-0.001925,0.018971,-0.015503
623,-0.361942,-0.058061,9.912593,-0.180076,-0.597658,-0.739764,-0.273018,2.139278,-1.802828,0.999700,-0.002088,0.018703,-0.015685
624,-0.368091,-0.055618,9.912717,-0.186396,-0.631381,-0.811492,-0.288724,2.112539,-1.828923,0.999700,-0.002225,0.018472,-0.015910
625,-0.372872,-0.059471,9.924088,-0.287279,-0.437546,-0.974772,-0.304581,2.096332,-1.858876,0.999698,-0.002360,0.018334,-0.016170
626,-0.365063,-0.062105,9.942551,-0.447680,-0.167380,-1.049549,-0.325258,2.089103,-1.892846,0.999694,-0.002536,0.018274,-0.016463
627,-0.382142,-0.068180,9.952739,-0.220518,0.118161,-0.814562,-0.345565,2.095840,-1.924225,0.999688,-0.002708,0.018337,-0.016733
628,-0.380263,-0.063099,9.924805,-0.161150,0.219219,-0.559735,-0.358500,2.115188,-1.947392,0.999681,-0.002814,0.018508,-0.016933
629,-0.374844,-0.063297,9.931772,-0.194762,0.072971,-0.243870,-0.366620,2.129606,-1.960888,0.999677,-0.002880,0.018635,-0.017049
630,-0.371356,-0.057110,9.924711,-0.116890,-0.100885,-0.140104,-0.370034,2.133060,-1.967215,0.999675,-0.002909,0.018666,-0.017103
631,-0.367848,-0.068619,9.916968,-0.174857,-0.282463,-0.108058,-0.374348,2.126936,-1.971286,0.999676,-0.002946,0.018613,-0.017138
632,-0.351528,-0.054735,9.910364,-0.376227,-0.464222,0.081157,-0.381446,2.107534,-1.971574,0.999678,-0.003011,0.018445,-0.017140
633,-0.347097,-0.071350,9.935909,-0.418907,-0.240248,-0.130947,-0.392864,2.082298,-1.972254,0.999682,-0.003115,0.018227,-0.017145
634,-0.358250,-0.083638,9.940073,-0.371802,0.330240,-0.689444,-0.414487,2.075361,-1.986233,0.999680,-0.003302,0.018170,-0.017264
635,-0.367969,-0.102081,9.942229,-0.344773,0.794164,-0.837475,-0.444896,2.095634,-2.012472,0.999672,-0.003560,0.018352,-0.017487
636,-0.391499,-0.112626,9.929656,-0.166870,1.183619,-0.826813,-0.479707,2.142119,-2.041419,0.999659,-0.003852,0.018764,-0.017732
637,-0.409876,-0.117697,9.920298,0.194101,1.677136,-0.767322,-0.507278,2.215283,-2.069425,0.999642,-0.004076,0.019407,-0.017969
638,-0.411353,-0.096324,9.901543,0.456144,1.863944,-0.350754,-0.513872,2.299948,-2.089233,0.999624,-0.004117,0.020148,-0.018137
639,-0.400056,-0.095488,9.907168,0.582648,1.641452,0.160428,-0.502607,2.370067,-2.093153,0.999611,-0.004007,0.020758,-0.018170
640,-0.409590,-0.086103,9.893718,0.417792,1.699459,0.268766,-0.487946,2.426661,-2.086565,0.999603,-0.003871,0.021249,-0.018113
641,-0.410666,-0.055435,9.905316,0.378402,1.719209,0.348126,-0.462837,2.480247,-2.076265,0.999595,-0.003645,0.021712,-0.018026
642,-0.417237,-0.079439,9.902361,0.424464,1.323793,0.612121,-0.437407,2.523074,-2.060163,0.999590,-0.003420,0.022081,-0.017889
643,-0.439946,-0.080017,9.915205,0.262680,1.067355,0.441215,-0.426641,2.559716,-2.042959,0.999586,-0.003323,0.022399,-0.017740
644,-0.453660,-0.070256,9.917344,0.320658,0.977453,0.441216,-0.416548,2.599022,-2.028501,0.999581,-0.003232,0.022739,-0.017614
645,-0.450709,-0.058444,9.934361,0.467314,0.774601,0.438172,-0.396072,2.632188,-2.013732,0.999577,-0.003051,0.023025,-0.017488
646,-0.452369,-0.058948,9.916498,0.366826,0.841706,0.316108,-0.372600,2.657760,-2.000917,0.999575,-0.002845,0.023244,-0.017380
647,-0.466940,-0.044397,9.923671,-0.012843,1.243050,-0.085198,-0.355080,2.693585,-1.996757,0.999568,-0.002688,0.023554,-0.017346
648,-0.468174,-0.046139,9.893767,-0.194089,1.635299,-0.210306,-0.345165,2.744979,-2.001347,0.999557,-0.002593,0.024001,-0.017387
649,-0.482522,-0.055273,9.874730,-0.528079,2.296139,-0.465126,-0.350277,2.814971,-2.012663,0.999541,-0.002624,0.024613,-0.017482
650,-0.504303,-0.064776,9.890264,-0.918717,3.173806,-0.892384,-0.375585,2.916420,-2.035903,0.999515,-0.002824,0.025502,-0.017676
651,-0.518430,-0.075802,9.900034,-1.223996,3.764580,-1.221987,-0.416940,3.041446,-2.072188,0.999479,-0.003157,0.026600,-0.017979
652,-0.531108,-0.086460,9.891635,-1.613229,4.182778,-1.147223,-0.471325,3.177358,-2.113021,0.999439,-0.003600,0.027795,-0.018317
653,-0.532800,-0.120872,9.918676,-1.865266,4.577934,-0.776438,-0.541554,3.320714,-2.146995,0.999396,-0.004180,0.029058,-0.018590
654,-0.567999,-0.148839,9.943649,-1.377420,5.354502,-0.388880,-0.614955,3.480896,-2.169151,0.999348,-0.004788,0.030468,-0.018756
655,-0.608093,-0.165931,9.905124,-0.694354,6.126603,0.308436,-0.671737,3.671550,-2.173944,0.999293,-0.005250,0.032140,-0.018772
656,-0.652082,-0.163417,9.885160,-0.145536,7.313886,1.053057,-0.705096,3.900271,-2.155178,0.999229,-0.005508,0.034139,-0.018586
657,-0.696953,-0.174886,9.865334,0.893135,9.412235,1.341427,-0.709599,4.187582,-2.119903,0.999146,-0.005511,0.036643,-0.018260
658,-0.767844,-0.158702,9.809543,1.161259,12.902383,0.882097,-0.690462,4.574170,-2.088505,0.999024,-0.005292,0.040009,-0.017969
659,-0.867526,-0.111437,9.800876,-0.506724,17.125261,0.061147,-0.684652,5.100488,-2.079169,0.998832,-0.005161,0.044596,-0.017859
660,-0.992306,-0.108837,9.831744,-0.866770,20.213165,0.126779,-0.704952,5.760979,-2.083402,0.998558,-0.005229,0.050355,-0.017848
661,-1.103744,-0.114152,9.842388,-0.711050,22.313919,0.160370,-0.728663,6.513056,-2.087250,0.998206,-0.005313,0.056912,-0.017823
662,-1.223341,-0.102396,9.836454,-1.159530,23.833227,0.108516,-0.754748,7.322564,-2.092137,0.997779,-0.005406,0.063966,-0.017798
663,-1.363152,-0.117630,9.854439,-1.237185,24.606285,0.264192,-0.788554,8.167469,-2.096073,0.997280,-0.005560,0.071326,-0.017754
664,-1.507737,-0.154813,9.824789,0.561846,24.508022,0.976807,-0.799850,9.023155,-2.086896,0.996722,-0.005525,0.078772,-0.017605
665,-1.632396,-0.111357,9.754704,1.532359,25.271847,0.488527,-0.761743,9.887438,-2.073284,0.996105,-0.005063,0.086281,-0.017451
666,-1.807172,-0.081274,9.690247,2.147652,27.621204,0.406199,-0.685434,10.807466,-2.066942,0.995386,-0.004255,0.094264,-0.017393
667,-1.999889,-0.066805,9.655747,2.410570,30.262363,1.005988,-0.587859,11.824650,-2.050335,0.994518,-0.003259,0.103080,-0.017268
668,-2.213983,-0.024925,9.622002,3.357225,32.679592,2.226864,-0.457751,12.941607,-2.000043,0.993478,-0.002002,0.112748,-0.016891
669,-2.381090,0.013571,9.574896,3.275599,34.143223,2.532236,-0.297312,14.127593,-1.918725,0.992273,-0.000515,0.123000,-0.016297
670,-2.582057,0.011169,9.547276,2.629316,36.041637,2.979513,-0.145755,15.365190,-1.821241,0.990901,0.000864,0.133688,-0.015580
671,-2.780172,-0.030003,9.526303,1.291336,37.863659,3.100132,-0.040891,16.660616,-1.715213,0.989339,0.001815,0.144869,-0.014758
672,-2.993698,-0.023815,9.479516,0.642713,39.647415,2.292888,0.014690,18.011309,-1.622797,0.987574,0.002343,0.156514,-0.014007
673,-3.208972,-0.043115,9.403595,-0.294491,40.227154,1.101050,0.027192,19.398876,-1.566470,0.985613,0.002537,0.168461,-0.013514
674,-3.407128,-0.037404,9.278640,-0.238431,39.462471,0.965107,0.013251,20.779984,-1.535183,0.983514,0.002530,0.180330,-0.013198
675,-3.608972,-0.069108,9.189375,-0.486144,38.729687,0.301141,-0.014003,22.130508,-1.520666,0.981323,0.002427,0.191912,-0.013000
676,-3.830757,-0.079845,9.107532,-0.915598,37.410881,-1.073982,-0.074353,23.444088,-1.547228,0.979057,0.002108,0.203154,-0.013088
677,-4.031975,-0.053988,9.026699,-0.818474,34.697353,-1.539612,-0.149022,24.689173,-1.607354,0.976786,0.001728,0.213787,-0.013424
678,-4.184737,-0.074673,8.948059,-0.144428,32.328423,-1.078965,-0.207280,25.839293,-1.667640,0.974586,0.001491,0.223586,-0.013780
679,-4.344218,-0.105017,8.888119,-0.651577,31.420982,-1.341680,-0.269546,26.920893,-1.729057,0.972426,0.001225,0.232781,-0.014126
680,-4.455860,-0.090942,8.774354,-0.856583,31.047302,-1.201556,-0.346301,27.968634,-1.795023,0.970250,0.000853,0.241671,-0.014469
681,-4.567894,-0.074721,8.652143,-0.508984,31.242510,-0.476903,-0.403880,29.001934,-1.841874,0.968027,0.000613,0.250417,-0.014678
682,-4.684783,-0.137740,8.545692,-0.854271,32.470539,0.140859,-0.456799,30.049976,-1.868228,0.965694,0.000377,0.259267,-0.014712
683,-4.837167,-0.131727,8.438920,-1.811632,33.487915,-0.135679,-0.539205,31.132345,-1.895191,0.963200,-0.000094,0.268386,-0.014669
684,-5.055179,-0.165017,8.367200,-2.245629,34.766453,-0.157420,-0.651815,32.262070,-1.932557,0.960503,-0.000778,0.277883,-0.014620
685,-5.285198,-0.188353,8.303914,-2.490524,35.387688,-0.490531,-0.788954,33.437965,-1.984904,0.957595,-0.001610,0.287742,-0.014608
686,-5.478127,-0.210893,8.236359,-2.610323,35.095043,-1.150229,-0.949121,34.625008,-2.063689,0.954553,-0.002547,0.297667,-0.014727
687,-5.665782,-0.210908,8.163304,-1.750393,33.538868,-1.054557,-1.102931,35.778339,-2.156560,0.951496,-0.003377,0.307280,-0.014952
688,-5.821747,-0.244211,8.086443,-0.829377,31.150879,-0.852062,-1.224415,36.858562,-2.245634,0.948545,-0.003940,0.316254,-0.015212
689,-5.962471,-0.236142,7.992409,-0.594979,28.559713,-1.433878,-1.331167,37.846397,-2.343295,0.945770,-0.004356,0.324435,-0.015575
690,-6.061868,-0.233807,7.880582,0.117187,25.553286,-0.562919,-1.410672,38.732609,-2.430274,0.943221,-0.004579,0.331753,-0.015924
691,-6.135559,-0.195868,7.797456,1.580342,22.337469,1.457228,-1.399674,39.503078,-2.444510,0.940971,-0.004285,0.338085,-0.015948
692,-6.176381,-0.210894,7.689141,2.466805,20.343544,2.722111,-1.294923,40.173069,-2.379812,0.938993,-0.003479,0.343563,-0.015622
693,-6.211281,-0.228373,7.596967,2.193368,19.829458,2.567713,-1.174798,40.789188,-2.296048,0.937149,-0.002626,0.348588,-0.015207
694,-6.248240,-0.226402,7.512422,0.412135,19.638615,1.227506,-1.121181,41.382618,-2.251465,0.935340,-0.002210,0.353428,-0.014922
695,-6.362816,-0.189986,7.456996,-1.028767,19.855192,0.015516,-1.155087,41.975529,-2.261321,0.933499,-0.002342,0.358266,-0.014813
696,-6.490785,-0.202040,7.379750,-1.781401,21.059370,-0.929373,-1.254334,42.604584,-2.318284,0.931511,-0.002847,0.363399,-0.014870
697,-6.621437,-0.192625,7.301200,-2.161665,22.740061,-2.177877,-1.406729,43.297726,-2.427417,0.929280,-0.003594,0.369048,-0.015158
698,-6.723970,-0.117000,7.159742,-2.086804,24.761486,-3.119295,-1.574349,44.069889,-2.572938,0.926750,-0.004309,0.375328,-0.015656
699,-6.816262,-0.085073,6.998809,-0.158975,28.405445,-1.872051,-1.672721,44.955830,-2.693210,0.923805,-0.004500,0.382498,-0.016134
700,-6.924292,-0.113362,6.824115,1.045655,32.966946,-0.801700,-1.679687,45.998074,-2.761400,0.920283,-0.004075,0.390885,-0.016452
701,-7.050685,-0.120026,6.663377,1.737455,37.599010,0.024417,-1.636861,47.209072,-2.796795,0.916104,-0.003314,0.400581,-0.016642
702,-7.217955,-0.146480,6.513993,2.113222,40.987663,1.300532,-1.554886,48.563282,-2.793730,0.911316,-0.002341,0.411364,-0.016641
703,-7.431451,-0.154643,6.394216,2.438438,42.565140,2.965561,-1.420881,50.004894,-2.727094,0.906088,-0.001177,0.422772,-0.016325
704,-7.606346,-0.159937,6.262840,3.413550,41.618568,4.856262,-1.198764,51.451572,-2.568386,0.900708,0.000306,0.434143,-0.015649
705,-7.720269,-0.169137,6.138605,4.136702,39.052441,5.773184,-0.890873,52.817829,-2.330599,0.895501,0.002084,0.444811,-0.014757
706,-7.841039,-0.171932,5.983262,3.570230,35.858582,5.371406,-0.572347,54.064396,-2.076239,0.890635,0.003786,0.454491,-0.013868
707,-7.896775,-0.102725,5.810855,2.776390,33.466972,4.353127,-0.292096,55.201378,-1.844733,0.886099,0.005199,0.463282,-0.013085
708,-7.952315,-0.112035,5.660807,2.074106,32.350636,3.861263,-0.059838,56.263248,-1.644133,0.881779,0.006304,0.471457,-0.012406
709,-8.021178,-0.103907,5.477339,0.379827,31.937607,2.438362,0.076422,57.293373,-1.506290,0.877512,0.006887,0.479358,-0.011855
710,-8.137475,-0.136863,5.289973,-1.616733,32.454132,1.518758,0.073265,58.336090,-1.455057,0.873120,0.006747,0.487326,-0.011399
712,-8.306766,-0.085922,5.095666,-3.509502,34.530766,1.053896,-0.030431,59.446323,-1.447537,0.868364,0.006032,0.495773,-0.010838
713,-8.469386,-0.104648,4.906222,-4.308051,35.837467,1.599363,-0.163802,60.639278,-1.428443,0.863164,0.005059,0.504799,-0.010039
714,-8.614604,-0.132882,4.673614,-4.349790,36.078163,2.465154,-0.283184,61.882812,-1.375437,0.857644,0.004052,0.514148,-0.009024
715,-8.746293,-0.153047,4.476781,-3.683545,35.606705,3.343026,-0.349491,63.140701,-1.272822,0.851959,0.003217,0.523539,-0.007867
716,-8.847071,-0.075350,4.276545,-3.099526,33.798676,3.134735,-0.336810,64.366760,-1.114389,0.846319,0.002692,0.532628,-0.006665
717,-8.877999,-0.095136,4.091661,-2.135397,30.040424,2.645921,-0.285635,65.495972,-0.950108,0.841038,0.002389,0.540942,-0.005625
718,-8.940643,-0.039087,3.903736,-1.882284,26.736774,2.755396,-0.202759,66.502655,-0.777823,0.836259,0.002242,0.548309,-0.004706
719,-8.973927,0.000188,3.750364,-1.220046,25.079536,3.583953,-0.012572,67.424141,-0.514324,0.831829,0.002400,0.555014,-0.003673
720,-9.010314,0.035930,3.599595,-0.298291,25.413534,4.313575,0.318151,68.319084,-0.134031,0.827472,0.002954,0.561494,-0.002527
721,-9.035333,0.036064,3.451886,0.939334,27.610651,4.878408,0.775454,69.253532,0.340802,0.822860,0.003878,0.568229,-0.001398
722,-9.091725,0.066507,3.296911,1.507048,31.080399,5.017434,1.336107,70.281120,0.891902,0.817715,0.005055,0.575602,-0.000347
723,-9.174122,0.080500,3.140779,1.813809,35.549660,4.054685,1.937555,71.440834,1.467766,0.811819,0.006249,0.583875,0.000527
724,-9.275226,0.111940,2.950526,2.297558,39.729084,3.099503,2.540825,72.746834,2.028247,0.805078,0.007355,0.593123,0.001101
725,-9.400373,0.137119,2.745873,2.230458,42.623783,2.740978,3.196164,74.174271,2.631267,0.797585,0.008401,0.603146,0.001496
726,-9.506248,0.141409,2.547161,2.213694,43.816990,3.490202,4.004159,75.663788,3.390388,0.789620,0.009447,0.613520,0.001932
727,-9.582735,0.124227,2.326017,2.604284,43.365013,4.468060,5.077934,77.150932,4.414413,0.781505,0.010615,0.623804,0.002478
728,-9.592238,0.104167,2.092599,2.546165,41.809525,4.110350,6.378114,78.589737,5.661953,0.773495,0.011769,0.633686,0.002975
729,-9.623913,0.131016,1.854210,1.421397,39.565666,2.981862,7.786005,79.955803,7.033977,0.765760,0.012606,0.642994,0.003361
730,-9.637009,0.146604,1.635827,0.632355,37.565807,2.071598,9.299318,81.244179,8.538601,0.758352,0.013049,0.651704,0.003688
731,-9.655047,0.166156,1.415417,-0.107831,36.272343,0.975218,10.981737,82.472404,10.233717,0.751190,0.013150,0.659943,0.003939
732,-9.699676,0.175946,1.203223,-0.489398,35.364933,0.446560,13.013377,83.661446,12.293549,0.744155,0.012999,0.667868,0.004128
733,-9.740830,0.182164,1.003392,-0.388749,34.286617,0.720597,15.858404,84.807251,15.170062,0.737233,0.012811,0.675503,0.004325
734,-9.744671,0.190115,0.833516,-0.271298,33.084522,0.597973,20.163464,85.888390,19.502052,0.730501,0.012685,0.682779,0.004527
735,-9.761872,0.172640,0.642007,-0.173679,31.647274,0.684362,27.006207,86.886047,26.367182,0.724001,0.012571,0.689668,0.004687
736,-9.744416,0.198989,0.448133,-0.192018,30.545752,0.580058,39.231228,87.766121,38.612240,0.717686,0.012479,0.696238,0.004841
737,-9.707134,0.250774,0.259380,-0.427013,30.002810,0.325080,63.447014,88.410576,62.851067,0.711458,0.012425,0.702600,0.005073
738,-9.711023,0.285046,0.092213,-0.553651,30.705038,0.555766,102.201111,88.519585,101.633987,0.705153,0.012438,0.708926,0.005439
739,-9.714458,0.236518,-0.083790,-0.211834,31.816204,0.928265,132.722687,87.986664,132.181183,0.698605,0.012506,0.715374,0.005825
740,-9.693079,0.197997,-0.244304,-0.256074,32.049881,0.496127,148.551178,87.141991,148.030731,0.691877,0.012480,0.721883,0.006059
741,-9.775915,0.187747,-0.404484,-0.278943,29.725906,0.059129,156.914536,86.230385,156.415817,0.685363,0.012288,0.728072,0.006136
742,-9.798720,0.154205,-0.513754,-0.452867,24.799774,0.230752,161.573730,85.406494,161.098221,0.679685,0.012000,0.733380,0.006137
743,-9.788586,0.146441,-0.621523,-0.884662,17.471287,0.290814,164.171631,84.780045,163.726303,0.675423,0.011648,0.737312,0.006158
744,-9.769769,0.193261,-0.702509,-1.440074,10.285868,0.428934,165.441513,84.390770,165.039780,0.672798,0.011290,0.739713,0.006338
745,-9.741686,0.232961,-0.744750,-1.514860,4.659666,1.023764,165.723587,84.209755,165.373398,0.671617,0.011071,0.740785,0.006755
746,-9.678316,0.228577,-0.762870,-1.369932,1.412221,1.521114,165.380966,84.172104,165.078766,0.671431,0.011027,0.740949,0.007302
747,-9.678383,0.270507,-0.791769,-0.779448,0.641431,1.177818,164.814713,84.193634,164.547516,0.671656,0.011108,0.740739,0.007815
748,-9.694842,0.252471,-0.779493,-0.214905,1.764396,1.165686,164.329849,84.207115,164.078827,0.671820,0.011273,0.740583,0.008179
749,-9.725198,0.259075,-0.767166,0.132965,2.460015,0.912319,164.026352,84.197212,163.776779,0.671810,0.011463,0.740587,0.008387
750,-9.769100,0.265189,-0.788341,0.255000,2.143980,0.341547,163.886490,84.183685,163.631271,0.671751,0.011607,0.740638,0.008461
751,-9.762502,0.292070,-0.807203,0.106939,1.416116,-0.096354,163.833054,84.183617,163.573380,0.671760,0.011668,0.740629,0.008467
752,-9.705427,0.272397,-0.814075,-0.357005,0.680107,0.369102,163.635834,84.226570,163.381866,0.672062,0.011674,0.740354,0.008544
753,-9.679933,0.304916,-0.844055,-0.836235,-0.301787,0.523477,163.134293,84.299576,162.901321,0.672603,0.011705,0.739859,0.008834
754,-9.675164,0.313110,-0.850374,-1.036237,-0.861927,0.800277,162.397690,84.367371,162.196732,0.673154,0.011803,0.739349,0.009326
755,-9.679774,0.337266,-0.828101,-1.086713,-1.038931,1.568615,161.372269,84.433205,161.206772,0.673749,0.012035,0.738794,0.009995
756,-9.693766,0.323809,-0.799884,-0.757231,-1.383996,2.089645,160.099472,84.507561,159.963577,0.674452,0.012407,0.738137,0.010732
757,-9.715307,0.322748,-0.775811,-0.221716,-2.147365,1.871699,158.826660,84.608170,158.704865,0.675323,0.012796,0.737324,0.011295
758,-9.722321,0.315653,-0.755798,0.451160,-2.897041,1.560303,157.653000,84.740028,157.524582,0.676366,0.013162,0.736357,0.011579
759,-9.723169,0.305471,-0.727833,1.088972,-3.216383,1.590328,156.574005,84.892929,156.416397,0.677514,0.013536,0.735294,0.011593
760,-9.691150,0.297116,-0.711808,1.455198,-3.543192,0.731955,155.700409,85.058701,155.496674,0.678689,0.013849,0.734207,0.011337
761,-9.709560,0.323616,-0.716422,1.813800,-4.081604,-0.417742,155.113617,85.230095,154.852768,0.679828,0.014052,0.733157,0.010835
762,-9.717192,0.315072,-0.719191,2.402821,-4.234832,-0.900402,154.787262,85.395935,154.454254,0.680872,0.014227,0.732195,0.010121
763,-9.721066,0.302883,-0.670068,3.257361,-3.759276,-1.482333,154.757446,85.562134,154.328842,0.681852,0.014411,0.731292,0.009125
764,-9.728465,0.267878,-0.645779,4.046299,-3.349537,-2.511634,155.246170,85.738319,154.695526,0.682787,0.014519,0.730433,0.007728
765,-9.742374,0.219474,-0.622421,4.876450,-3.195961,-3.219079,156.325241,85.912125,155.626480,0.683609,0.014576,0.729679,0.005958
766,-9.728197,0.195052,-0.591619,5.518907,-2.544791,-3.677678,157.823318,86.072601,156.952820,0.684304,0.014684,0.729038,0.003948
767,-9.757810,0.179987,-0.567660,5.569298,-1.583935,-4.255245,159.790802,86.213486,158.738113,0.684843,0.014763,0.728539,0.001779
768,-9.778910,0.163289,-0.567762,4.981847,-1.621007,-4.727403,162.161636,86.338257,160.936584,0.685275,0.014706,0.728136,-0.000405
769,-9.769533,0.179925,-0.577874,3.964071,-2.344573,-4.459190,164.503448,86.460220,163.133011,0.685744,0.014539,0.727694,-0.002366
770,-9.761804,0.218362,-0.577944,3.129375,-2.698691,-3.396925,166.195557,86.576286,164.710373,0.686286,0.014466,0.727178,-0.003855
771,-9.751343,0.180518,-0.559229,2.044413,-2.807086,-1.640105,166.980347,86.682762,165.411331,0.686869,0.014561,0.726620,-0.004794
772,-9.711107,0.168936,-0.527503,1.281425,-3.226854,-0.293830,166.885864,86.789780,165.262146,0.687533,0.014782,0.725983,-0.005248
773,-9.695726,0.184931,-0.512078,0.866343,-3.309443,0.562722,165.987305,86.896942,164.327591,0.688268,0.015142,0.725279,-0.005333
774,-9.686812,0.182596,-0.487207,0.757968,-2.870172,1.034808,164.586899,86.991829,162.899399,0.688968,0.015605,0.724606,-0.005213
775,-9.700203,0.159439,-0.466429,0.675546,-2.327175,1.070294,163.157379,87.069824,161.444992,0.689573,0.016059,0.724021,-0.005066
776,-9.712481,0.148886,-0.460722,0.663328,-2.052706,0.840020,161.993988,87.135834,160.258148,0.690082,0.016424,0.723527,-0.004991
777,-9.740711,0.169878,-0.460560,0.646531,-1.779667,0.510632,160.987000,87.190346,159.228531,0.690510,0.016746,0.723112,-0.004949
778,-9.759250,0.158815,-0.443880,0.568697,-1.703487,0.610032,160.048080,87.240471,158.268738,0.690903,0.017034,0.722730,-0.004918
779,-9.784103,0.152930,-0.435159,0.393215,-2.268246,0.698485,159.142181,87.301727,157.345764,0.691361,0.017253,0.722287,-0.004911
780,-9.768014,0.190271,-0.414831,0.237560,-2.794919,0.564383,157.848892,87.378479,156.041016,0.691950,0.017487,0.721717,-0.004818
781,-9.764086,0.207525,-0.387566,0.069673,-2.859416,0.551287,155.989822,87.462791,154.176331,0.692648,0.017783,0.721042,-0.004592
782,-9.753373,0.203953,-0.361455,-0.053964,-2.823378,0.596194,153.897125,87.550957,152.082870,0.693392,0.018056,0.720321,-0.004329
783,-9.760679,0.203869,-0.353273,-0.192853,-2.562983,0.514266,151.895538,87.632805,150.084717,0.694094,0.018254,0.719642,-0.004087
784,-9.758148,0.190735,-0.341026,-0.250852,-2.079620,0.056691,150.421722,87.704414,148.617737,0.694671,0.018314,0.719084,-0.003945
785,-9.775899,0.199013,-0.340162,-0.343939,-1.921075,-0.381187,149.556076,87.768837,147.761612,0.695128,0.018231,0.718644,-0.003911
786,-9.764925,0.197457,-0.326222,-0.308845,-1.963825,-0.278850,148.826050,87.828857,147.041916,0.695542,0.018118,0.718247,-0.003894
787,-9.756854,0.174532,-0.314454,-0.285955,-1.959284,-0.106541,148.136673,87.892067,146.361938,0.695962,0.017986,0.717843,-0.003911
788,-9.737330,0.172021,-0.310841,-0.217276,-1.707464,-0.615008,147.854172,87.955788,146.087219,0.696334,0.017777,0.717486,-0.004025
789,-9.728641,0.189727,-0.315785,-0.107401,-1.250936,-0.680742,147.906082,88.002274,146.144165,0.696574,0.017580,0.717258,-0.004160
790,-9.718596,0.169470,-0.310736,0.153542,-0.431070,-0.258117,148.187790,88.020477,146.424927,0.696637,0.017475,0.717198,-0.004278
791,-9.730083,0.185135,-0.319416,0.296991,-0.074969,-0.424471,148.714401,88.014854,146.943878,0.696548,0.017445,0.717285,-0.004401
792,-9.707610,0.185014,-0.331781,0.463325,-0.103198,-0.129789,149.187790,87.992500,147.404510,0.696373,0.017512,0.717452,-0.004491
793,-9.700464,0.213260,-0.322800,0.609813,-0.252002,0.629080,148.876114,87.958183,147.074753,0.696224,0.017795,0.717590,-0.004431
794,-9.703126,0.233855,-0.316148,0.792905,-0.576526,1.547087,147.263474,87.914093,145.438522,0.696185,0.018391,0.717615,-0.004127
795,-9.716582,0.223789,-0.320948,0.914961,-1.203257,2.109485,144.949158,87.871277,143.094864,0.696263,0.019156,0.717521,-0.003723
796,-9.742421,0.207957,-0.317403,1.044663,-1.123476,2.343270,142.770279,87.837524,140.881744,0.696395,0.019898,0.717375,-0.003403
797,-9.794445,0.225002,-0.300553,0.977529,-0.779878,2.013682,140.948029,87.808929,139.024246,0.696523,0.020561,0.717233,-0.003175
798,-9.816275,0.216213,-0.299362,0.803581,-0.801107,1.709837,139.536240,87.790344,137.581436,0.696651,0.021085,0.717094,-0.003035
799,-9.822551,0.236922,-0.283015,0.597590,-0.662225,0.804676,138.565277,87.787865,136.585953,0.696794,0.021419,0.716945,-0.003002
800,-9.815471,0.235782,-0.265290,0.345812,-0.447307,0.171182,137.964386,87.804207,135.968994,0.696966,0.021557,0.716774,-0.003064
801,-9.768435,0.249194,-0.273506,0.097086,-0.484159,-0.494283,137.768005,87.830566,135.765030,0.697119,0.021526,0.716625,-0.003187
802,-9.740095,0.286812,-0.280671,0.057403,-0.470399,-0.828097,137.652496,87.846596,135.647232,0.697211,0.021493,0.716536,-0.003249
803,-9.715643,0.273233,-0.275375,0.106218,-0.482480,-0.473437,137.377899,87.851601,135.370285,0.697279,0.021531,0.716469,-0.003239
804,-9.713105,0.242871,-0.280440,-0.066214,-0.569284,0.097488,137.130493,87.857437,135.122192,0.697345,0.021552,0.716404,-0.003228
805,-9.725986,0.253864,-0.287689,-0.197436,-0.413312,0.376756,136.893402,87.854057,134.888977,0.697366,0.021583,0.716383,-0.003149
806,-9.759004,0.261183,-0.265650,-0.171495,-0.387179,0.717210,136.298828,87.840782,134.300140,0.697403,0.021702,0.716344,-0.002959
807,-9.761439,0.265258,-0.258594,-0.165399,-0.440673,0.615189,135.388153,87.831650,133.394852,0.697513,0.021859,0.716233,-0.002737
808,-9.770872,0.265349,-0.269852,-0.328679,-0.277409,0.198773,134.775635,87.826149,132.790222,0.697592,0.021932,0.716154,-0.002565
809,-9.760309,0.270167,-0.258585,-0.272221,-0.115621,-0.243622,134.594971,87.826782,132.619598,0.697625,0.021897,0.716124,-0.002477
810,-9.752865,0.298391,-0.253696,-0.279864,-0.309496,-0.615536,134.350174,87.832550,132.384354,0.697692,0.021851,0.716060,-0.002405
811,-9.733837,0.295416,-0.248403,-0.305827,-0.572106,-0.569106,133.828201,87.842239,131.872589,0.697824,0.021826,0.715933,-0.002304
812,-9.729788,0.241930,-0.252423,-0.463002,-1.011675,-0.121918,133.368637,87.868980,131.425751,0.698017,0.021697,0.715749,-0.002276
813,-9.717950,0.262398,-0.236831,-0.417221,-1.149136,0.025872,132.736908,87.904915,130.808060,0.698276,0.021541,0.715501,-0.002257
815,-9.728423,0.261412,-0.232681,-0.394337,-1.092876,0.326474,131.694504,87.931427,129.778854,0.698562,0.021492,0.715224,-0.002145
816,-9.723582,0.253275,-0.227754,-0.391288,-0.883968,0.483557,130.688477,87.949097,128.785309,0.698806,0.021473,0.714986,-0.002010
817,-9.720338,0.250616,-0.234196,-0.343979,-0.517733,0.526064,130.043869,87.957802,128.152328,0.698951,0.021449,0.714845,-0.001890
818,-9.728250,0.291096,-0.232265,-0.217325,-0.015544,0.304924,129.647797,87.945099,127.765320,0.698968,0.021509,0.714827,-0.001719
819,-9.732849,0.281089,-0.236061,-0.130349,0.347845,0.331233,129.498917,87.916626,127.622292,0.698881,0.021631,0.714909,-0.001525
820,-9.743063,0.275995,-0.237681,-0.043369,0.436598,0.178785,129.732864,87.890854,127.859138,0.698738,0.021704,0.715047,-0.001416
821,-9.740545,0.257432,-0.236146,0.011574,0.316236,0.549428,130.045761,87.873390,128.172424,0.698613,0.021740,0.715168,-0.001376
822,-9.749246,0.283944,-0.232268,0.025312,0.203377,0.704958,129.992538,87.853790,128.118301,0.698544,0.021847,0.715232,-0.001279
823,-9.756833,0.269022,-0.231769,0.034468,0.044643,0.950590,129.606400,87.832191,127.730835,0.698528,0.022014,0.715243,-0.001127
824,-9.757461,0.268965,-0.238287,-0.005200,-0.347524,1.235676,129.067612,87.815552,127.191055,0.698560,0.022181,0.715207,-0.000974
825,-9.759841,0.308558,-0.245171,-0.191360,-0.570179,1.569892,128.076065,87.784149,126.201775,0.698624,0.022463,0.715136,-0.000662
826,-9.771320,0.324798,-0.237946,-0.298182,-0.496785,1.712258,126.696747,87.733330,124.829926,0.698700,0.022867,0.715049,-0.000167
827,-9.762351,0.316715,-0.236800,-0.359223,-0.524148,1.833138,125.362114,87.682182,123.505417,0.698782,0.023250,0.714956,0.000341
828,-9.750825,0.329639,-0.234090,-0.400422,-0.382124,1.892792,124.191284,87.632637,122.346313,0.698851,0.023596,0.714878,0.000832
829,-9.759119,0.349027,-0.234888,-0.459935,-0.185145,1.738899,123.174446,87.577065,121.342888,0.698878,0.023942,0.714839,0.001344
830,-9.736787,0.339609,-0.227954,-0.258511,-0.035500,1.677960,122.401550,87.525589,120.581184,0.698877,0.024249,0.714828,0.001790
831,-9.730931,0.342677,-0.221227,-0.066241,-0.116390,1.413801,121.790024,87.489471,119.974419,0.698897,0.024496,0.714800,0.002094
832,-9.734787,0.365443,-0.217133,0.064986,-0.324032,1.036803,121.119621,87.464256,119.303444,0.698971,0.024726,0.714719,0.002318
833,-9.753619,0.387342,-0.212706,0.097020,-0.525632,0.774541,120.272697,87.441971,118.453484,0.699103,0.024978,0.714580,0.002532
834,-9.746111,0.372075,-0.202773,0.196192,-0.260388,0.800613,119.466644,87.426788,117.642319,0.699249,0.025202,0.714429,0.002692
835,-9.766288,0.369399,-0.197349,0.235856,-0.008955,0.530362,118.949081,87.422073,117.117271,0.699361,0.025341,0.714314,0.002741
836,-9.766294,0.394368,-0.204999,0.162602,-0.045835,0.261768,118.609177,87.416840,116.770813,0.699430,0.025454,0.714243,0.002773
837,-9.773634,0.392623,-0.218383,-0.061713,0.089966,0.303115,118.459007,87.403236,116.618904,0.699426,0.025559,0.714242,0.002856
838,-9.762688,0.389172,-0.209018,-0.083075,0.309751,0.240605,118.507980,87.389328,116.670288,0.699372,0.025614,0.714293,0.002941
839,-9.766315,0.394262,-0.203432,-0.092235,0.196724,0.057521,118.520439,87.381920,116.685928,0.699347,0.025632,0.714317,0.002999
840,-9.754124,0.415895,-0.205551,-0.154811,0.132474,-0.410675,118.448952,87.378334,116.618965,0.699354,0.025633,0.714310,0.003055
841,-9.751668,0.409498,-0.211757,-0.223490,0.416214,-0.758186,118.591278,87.378555,116.768257,0.699319,0.025570,0.714346,0.003078
842,-9.727859,0.360385,-0.210247,-0.119725,0.532147,-0.595048,119.156090,87.396385,117.339394,0.699232,0.025360,0.714439,0.002945
843,-9.730963,0.364596,-0.215374,-0.154811,0.298650,-0.706956,119.855804,87.427017,118.043983,0.699155,0.025071,0.714526,0.002716
844,-9.735090,0.384135,-0.222846,-0.322658,0.059127,-0.612518,120.321404,87.447639,118.517715,0.699108,0.024844,0.714579,0.002591
845,-9.748096,0.369526,-0.229434,-0.411154,0.071482,-0.084555,120.602127,87.453857,118.810684,0.699061,0.024697,0.714631,0.002594
846,-9.735769,0.350987,-0.217961,-0.299754,0.425571,0.185266,120.911613,87.455780,119.132103,0.698993,0.024570,0.714701,0.002614
847,-9.742108,0.377387,-0.219945,-0.243293,0.610161,-0.080398,121.249245,87.451630,119.478951,0.698899,0.024488,0.714796,0.002646
848,-9.735580,0.374537,-0.229460,-0.197516,0.677323,-0.058936,121.649864,87.438606,119.887428,0.698761,0.024452,0.714932,0.002707
849,-9.731166,0.369718,-0.231658,-0.160892,0.677400,0.041807,122.118561,87.424278,120.362450,0.698602,0.024422,0.715088,0.002755
850,-9.723804,0.366366,-0.231878,-0.090697,0.671322,-0.106256,122.590408,87.414413,120.838943,0.698457,0.024377,0.715231,0.002768
851,-9.747550,0.373028,-0.246303,-0.205138,0.332649,-0.086439,123.006035,87.406708,121.259720,0.698333,0.024323,0.715354,0.002777
852,-9.749427,0.388057,-0.255771,-0.269222,-0.030282,-0.034364,123.198273,87.394058,121.459946,0.698243,0.024311,0.715442,0.002864
853,-9.745345,0.369463,-0.263125,-0.241747,0.084509,0.135171,123.365250,87.379379,121.635216,0.698153,0.024311,0.715530,0.002966
854,-9.742589,0.376740,-0.261887,-0.240207,0.287817,0.167240,123.659508,87.362770,121.937302,0.698025,0.024302,0.715654,0.003054
855,-9.746322,0.366622,-0.250483,-0.305815,0.106411,0.531909,123.770569,87.346199,122.057304,0.697941,0.024314,0.715735,0.003177
856,-9.741453,0.361361,-0.250503,-0.261557,-0.143829,0.450830,123.660934,87.339493,121.956802,0.697944,0.024309,0.715732,0.003284
857,-9.750856,0.380050,-0.248427,-0.264607,0.147591,0.186737,123.555977,87.335014,121.860397,0.697953,0.024295,0.715724,0.003376
858,-9.744191,0.393955,-0.241952,-0.235624,0.399257,0.226596,123.461159,87.320580,121.774185,0.697925,0.024332,0.715748,0.003519
859,-9.737725,0.388879,-0.253391,-0.180699,0.470911,0.214630,123.465752,87.299988,121.786072,0.697852,0.024393,0.715817,0.003670
860,-9.729316,0.371575,-0.271394,-0.105920,0.594711,0.307687,123.824409,87.279259,122.149658,0.697692,0.024413,0.715972,0.003751
861,-9.735268,0.395426,-0.272763,-0.058604,0.735425,0.341256,124.308578,87.250557,122.636482,0.697471,0.024466,0.716185,0.003837
862,-9.751420,0.384703,-0.264114,-0.009770,0.730998,0.657210,124.591255,87.216454,122.920601,0.697280,0.024585,0.716366,0.003973
863,-9.763084,0.371437,-0.265259,0.017700,0.503595,0.553238,124.774048,87.195999,123.103302,0.697161,0.024660,0.716479,0.004047
864,-9.769574,0.371900,-0.264534,0.086373,0.186080,-0.022432,124.967323,87.197952,123.294846,0.697120,0.024628,0.716521,0.003994
865,-9.754595,0.412816,-0.262671,0.087892,0.054662,-0.413063,124.993835,87.205788,123.318741,0.697141,0.024600,0.716501,0.003934
866,-9.737046,0.401279,-0.262928,0.126023,0.178061,-0.336439,124.919518,87.207748,123.241539,0.697167,0.024621,0.716475,0.003918
867,-9.750338,0.394489,-0.265684,0.158057,0.214525,-0.505656,125.016846,87.213852,123.334557,0.697165,0.024600,0.716479,0.003845
868,-9.752407,0.391922,-0.260895,0.110744,0.144156,-0.459802,125.157776,87.225189,123.471626,0.697171,0.024543,0.716475,0.003740
869,-9.758839,0.395305,-0.258730,0.058850,0.201897,-0.523776,125.232330,87.237206,123.543938,0.697196,0.024484,0.716453,0.003653
870,-9.768876,0.385563,-0.259733,0.026794,0.244370,-0.810562,125.412636,87.253769,123.723442,0.697213,0.024373,0.716441,0.003533
871,-9.775294,0.372122,-0.267169,-0.000677,0.015318,-1.033440,125.795799,87.283287,124.106804,0.697228,0.024159,0.716435,0.003321
872,-9.736862,0.374318,-0.274551,-0.064764,-0.083869,-1.126623,126.273560,87.316132,124.586044,0.697237,0.023902,0.716436,0.003083
873,-9.733819,0.375451,-0.287512,-0.049498,0.126922,-1.166228,126.883842,87.339348,125.198700,0.697180,0.023671,0.716499,0.002880
874,-9.724830,0.371691,-0.300716,0.042069,0.279976,-0.940215,127.683594,87.346497,125.998917,0.697023,0.023496,0.716659,0.002712
875,-9.719056,0.368265,-0.307231,0.100070,0.324829,-0.689749,128.511948,87.340088,126.825096,0.696810,0.023398,0.716870,0.002587
876,-9.732865,0.364432,-0.301688,0.110764,0.245989,-0.512523,129.167877,87.330170,127.477814,0.696622,0.023351,0.717054,0.002499
877,-9.739214,0.351074,-0.297073,0.100092,-0.078737,-0.396459,129.570023,87.329659,127.876488,0.696530,0.023302,0.717145,0.002409
878,-9.735739,0.365590,-0.294513,0.068047,-0.437177,-0.509237,129.659714,87.338394,127.963371,0.696545,0.023261,0.717132,0.002333
879,-9.741931,0.354068,-0.277367,0.029891,-0.388411,-0.374750,129.479996,87.353737,127.782211,0.696647,0.023228,0.717034,0.002282
880,-9.746470,0.341549,-0.274408,-0.018947,-0.300139,-0.341187,129.300079,87.376465,127.602356,0.696777,0.023151,0.716911,0.002204
881,-9.741644,0.348213,-0.283373,-0.047942,-0.150709,-0.483131,129.305008,87.395561,127.608368,0.696853,0.023050,0.716841,0.002118
882,-9.739165,0.373708,-0.289172,-0.034215,0.035543,-0.414135,129.356384,87.395935,127.661514,0.696842,0.023029,0.716851,0.002118
883,-9.747066,0.348933,-0.282148,-0.009807,0.253844,-0.104009,129.419098,87.385956,127.725235,0.696789,0.023059,0.716902,0.002162
884,-9.746674,0.334881,-0.278854,-0.054059,0.122589,-0.053681,129.557785,87.385506,127.865135,0.696757,0.023029,0.716935,0.002147
885,-9.760333,0.348489,-0.275880,-0.040328,-0.069792,-0.365008,129.613373,87.394356,127.922455,0.696780,0.022966,0.716914,0.002105
886,-9.749771,0.354059,-0.273894,-0.051021,-0.121840,-0.326693,129.512405,87.404442,127.823463,0.696842,0.022924,0.716855,0.002085
887,-9.740819,0.337371,-0.271403,0.019163,0.048882,-0.337288,129.473373,87.415627,127.785225,0.696895,0.022871,0.716805,0.002043
888,-9.748025,0.326780,-0.268376,0.008478,-0.084078,-0.398483,129.586517,87.435471,127.898064,0.696950,0.022757,0.716756,0.001926
889,-9.740998,0.336991,-0.275382,0.016106,-0.377192,-0.491682,129.639450,87.459015,127.950737,0.697033,0.022637,0.716679,0.001802
890,-9.729312,0.346084,-0.288687,0.037469,-0.482377,-0.291645,129.570404,87.471291,127.880760,0.697097,0.022596,0.716619,0.001750
891,-9.732567,0.340195,-0.272947,0.139703,-0.294567,0.042752,129.364716,87.472916,127.671974,0.697147,0.022643,0.716569,0.001758
892,-9.756893,0.328287,-0.261551,0.084765,-0.522051,0.195386,128.962540,87.480286,127.265854,0.697261,0.022700,0.716455,0.001767
893,-9.741403,0.364516,-0.265693,0.046605,-0.687003,0.052208,128.292725,87.485260,126.593819,0.697425,0.022801,0.716293,0.001839
894,-9.744617,0.370282,-0.264560,0.089312,-0.407803,-0.043284,127.574898,87.477257,125.873779,0.697549,0.022972,0.716166,0.001983
895,-9.746712,0.361948,-0.252167,0.087767,-0.208009,-0.062574,127.042572,87.469894,125.338661,0.697638,0.023111,0.716075,0.002089
896,-9.735624,0.350859,-0.253747,-0.041949,-0.284453,-0.018038,126.650887,87.470284,124.946342,0.697726,0.023176,0.715987,0.002145
897,-9.731791,0.357175,-0.259958,-0.020593,-0.229540,-0.129238,126.407883,87.471680,124.704353,0.697785,0.023201,0.715928,0.002183
898,-9.734736,0.349003,-0.255413,0.028235,0.133665,-0.176393,126.392303,87.470978,124.688744,0.697786,0.023206,0.715927,0.002188
899,-9.734102,0.349634,-0.249981,0.046543,0.260270,-0.101557,126.506081,87.469894,124.801598,0.697757,0.023200,0.715956,0.002170
900,-9.740730,0.343399,-0.258280,0.003816,0.101546,-0.037460,126.622032,87.468582,124.916786,0.697726,0.023193,0.715986,0.002154
901,-9.743206,0.348070,-0.265928,0.032812,0.057403,-0.016099,126.763329,87.465103,125.057510,0.697682,0.023191,0.716029,0.002145
902,-9.745397,0.353073,-0.260075,0.057228,0.197894,0.035878,126.861900,87.456703,125.154526,0.697628,0.023227,0.716080,0.002162
903,-9.739285,0.345157,-0.260548,0.101480,0.185715,0.093927,126.936371,87.448402,125.226479,0.697581,0.023272,0.716125,0.002176
904,-9.747823,0.334952,-0.265379,0.090803,0.149145,0.026657,127.120140,87.446335,125.407074,0.697532,0.023273,0.716172,0.002137
905,-9.738612,0.324964,-0.253982,0.066395,0.109433,-0.051494,127.357925,87.455475,125.642258,0.697514,0.023205,0.716192,0.002037
906,-9.730217,0.345060,-0.265927,-0.000742,-0.134760,-0.507942,127.555092,87.470512,125.838264,0.697528,0.023106,0.716182,0.001924
907,-9.724963,0.353202,-0.281154,-0.014471,-0.291706,-0.539850,127.754128,87.478889,126.037590,0.697517,0.023030,0.716196,0.001852
908,-9.740208,0.343502,-0.278516,-0.125856,-0.440902,-0.054439,127.825630,87.480515,126.111221,0.697507,0.022998,0.716206,0.001845
909,-9.741005,0.348322,-0.269263,-0.275392,-0.715351,0.227996,127.512352,87.480209,125.804214,0.697574,0.023011,0.716140,0.001935
910,-9.747996,0.370864,-0.272093,-0.299812,-0.927285,0.182612,126.819458,87.474777,125.120354,0.697705,0.023093,0.716010,0.002130
911,-9.756945,0.371483,-0.258640,-0.313556,-0.744061,0.540241,125.921104,87.460785,124.231789,0.697852,0.023244,0.715861,0.002402
912,-9.765461,0.356355,-0.251650,-0.345609,-0.469411,0.609226,125.110847,87.447021,123.432083,0.697984,0.023375,0.715727,0.002663
913,-9.755627,0.363302,-0.250403,-0.357821,-0.443492,0.356050,124.532387,87.438759,122.864922,0.698087,0.023435,0.715624,0.002863
914,-9.751466,0.365941,-0.250575,-0.270845,-0.475502,0.276838,124.062729,87.433334,122.405434,0.698175,0.023471,0.715536,0.003024
915,-9.739348,0.357670,-0.251541,-0.183865,-0.289239,0.188360,123.785164,87.431053,122.134956,0.698231,0.023480,0.715480,0.003122
916,-9.739075,0.356619,-0.252859,-0.095352,-0.035771,0.058552,123.803085,87.430290,122.157242,0.698225,0.023454,0.715487,0.003148
918,-9.730378,0.354556,-0.255468,-0.075504,-0.462811,-0.129283,123.896080,87.435852,122.252716,0.698223,0.023396,0.715491,0.003121
919,-9.708672,0.367677,-0.269324,0.060318,-0.615018,-0.423801,123.972450,87.445412,122.328835,0.698239,0.023336,0.715478,0.003058
920,-9.725549,0.378673,-0.265077,0.319737,-0.408533,-0.692113,124.129997,87.451012,122.479729,0.698223,0.023324,0.715494,0.002964
921,-9.744595,0.359466,-0.229709,0.306004,-0.780771,-0.199051,123.928169,87.466339,122.267319,0.698323,0.023342,0.715397,0.002851
922,-9.762063,0.336060,-0.199966,0.077100,-2.008151,-0.078718,122.805923,87.514618,121.138145,0.698746,0.023297,0.714985,0.002721
923,-9.784265,0.352471,-0.172089,-0.173171,-3.090716,-0.584040,120.824051,87.591492,119.156868,0.699447,0.023156,0.714304,0.002587
924,-9.808207,0.382577,-0.127887,-0.583673,-4.429640,-1.114946,117.859344,87.687172,116.203445,0.700403,0.022928,0.713375,0.002497
925,-9.809119,0.332315,-0.106216,-1.149821,-6.214236,-1.014184,113.406357,87.807770,111.777145,0.701709,0.022541,0.712102,0.002437
926,-9.789881,0.364554,-0.108714,-1.250553,-7.885704,-1.490260,107.232559,87.936256,105.639877,0.703321,0.022040,0.710527,0.002388
927,-9.782403,0.387621,-0.075373,-1.287190,-9.712574,-0.807823,98.852600,88.029495,97.297546,0.705229,0.021632,0.708645,0.002446
928,-9.777017,0.378312,0.011387,-1.464217,-12.165185,1.139730,87.653526,88.026917,86.138649,0.707600,0.021504,0.706281,0.002812
929,-9.784383,0.358092,0.120837,-1.600053,-15.623763,2.678190,74.220345,87.871643,72.749130,0.710660,0.021667,0.703193,0.003514
930,-9.786824,0.410091,0.259370,-1.656556,-20.134174,3.041757,60.351315,87.516510,58.925087,0.714632,0.022021,0.699140,0.004424
931,-9.810887,0.420841,0.417007,-1.822939,-25.104370,3.828149,48.122211,86.920311,46.742188,0.719654,0.022507,0.693946,0.005482
932,-9.767348,0.410858,0.587368,-1.967977,-29.087664,4.499899,38.719448,86.094200,37.388596,0.725623,0.023061,0.687674,0.006646
933,-9.724106,0.454473,0.750608,-1.983317,-31.261343,3.752482,31.972319,85.111359,30.691168,0.732179,0.023580,0.680660,0.007783
934,-9.688204,0.446582,0.907931,-1.878109,-31.455748,2.718134,27.093184,84.069115,25.858355,0.738864,0.023918,0.673374,0.008700
935,-9.639054,0.470181,1.071928,-1.640143,-30.329973,1.544804,23.458029,83.037224,22.262497,0.745330,0.024045,0.666197,0.009318
936,-9.624279,0.457223,1.244906,-1.452534,-29.553444,0.502615,20.597696,82.035828,19.433163,0.751502,0.023976,0.659225,0.009639
937,-9.641775,0.451754,1.395109,-0.978064,-30.330069,-1.208111,18.085354,81.045113,16.938038,0.757557,0.023668,0.652270,0.009552
938,-9.628106,0.457455,1.559829,-0.196873,-32.871948,-1.681324,15.820518,80.007210,14.665374,0.763802,0.023292,0.644967,0.009090
939,-9.589484,0.459056,1.752848,0.451577,-36.465157,-0.717011,13.943754,78.855743,12.754807,0.770532,0.023154,0.636923,0.008551
940,-9.550985,0.486665,1.954119,0.504955,-39.678455,0.172756,12.499543,77.573265,11.264398,0.777804,0.023334,0.628021,0.008181
941,-9.492824,0.516091,2.178878,0.309671,-41.126301,0.867514,11.422068,76.198845,10.142632,0.785398,0.023731,0.618484,0.008056
942,-9.453404,0.539173,2.430185,0.205998,-40.866753,1.756281,10.651291,74.789864,9.333879,0.793003,0.024296,0.608679,0.008181
943,-9.400045,0.536842,2.670356,-0.199800,-39.972507,2.004161,10.077936,73.390404,8.733409,0.800404,0.024901,0.598883,0.008482
944,-9.354565,0.523190,2.894022,-0.515611,-39.035496,1.444612,9.556877,72.023727,8.197862,0.807523,0.025331,0.589227,0.008765
945,-9.333073,0.484816,3.126468,-0.822370,-39.013939,1.421804,9.033703,70.679405,7.671432,0.814429,0.025523,0.579632,0.008950
946,-9.260163,0.486434,3.361923,-0.746212,-40.022408,1.032504,8.517791,69.319000,7.156171,0.821312,0.025572,0.569835,0.009041
947,-9.165543,0.492327,3.583543,-1.082067,-41.751198,0.466187,8.003148,67.910820,6.642780,0.828319,0.025505,0.559604,0.009028
948,-9.051557,0.476942,3.787850,-1.382850,-42.861958,0.111925,7.484800,66.457878,6.132724,0.835422,0.025269,0.548955,0.008934
949,-8.928785,0.512044,3.981474,-1.607283,-42.881504,-0.530620,6.990243,64.993073,5.650313,0.842446,0.024925,0.538132,0.008781
950,-8.789631,0.545338,4.171303,-1.427176,-42.298080,-1.047679,6.549244,63.545513,5.214827,0.849245,0.024597,0.527357,0.008565
951,-8.681374,0.553295,4.367378,-1.483452,-42.008938,-1.338660,6.157771,62.120361,4.821174,0.855798,0.024300,0.516673,0.008291
952,-8.579276,0.522032,4.580543,-1.281854,-42.835091,-1.217692,5.796615,60.691929,4.454359,0.862228,0.023994,0.505888,0.007968
953,-8.495046,0.524878,4.811019,-1.094015,-44.880409,-1.212778,5.464594,59.216900,4.109643,0.868720,0.023723,0.494677,0.007601
954,-8.375936,0.544919,5.058597,-0.925925,-47.855106,-0.072435,5.198801,57.651955,3.826034,0.875429,0.023632,0.482713,0.007361
955,-8.222721,0.519979,5.304489,-0.774610,-50.338654,1.563846,5.020595,55.983665,3.634927,0.882375,0.023784,0.469886,0.007432
956,-8.050019,0.513059,5.527435,-0.901091,-51.116302,2.621662,4.904855,54.254318,3.519323,0.889362,0.024076,0.456504,0.007803
957,-7.875676,0.573403,5.745072,-0.969453,-48.838947,2.507722,4.833433,52.551933,3.453932,0.896030,0.024463,0.443240,0.008340
958,-7.695435,0.580443,5.946311,-0.955261,-44.309151,2.659468,4.794767,50.969051,3.422075,0.902047,0.024907,0.430827,0.008940
959,-7.571104,0.564021,6.123455,-1.176135,-38.831387,1.921440,4.751219,49.567890,3.391535,0.907232,0.025222,0.419768,0.009475
960,-7.470960,0.562904,6.291809,-1.178905,-33.328735,0.849040,4.678062,48.371181,3.331783,0.911564,0.025314,0.410262,0.009784
961,-7.372618,0.547593,6.449077,-0.894893,-29.153315,-0.112112,4.581375,47.351223,3.237862,0.915190,0.025255,0.402111,0.009810
962,-7.286106,0.528283,6.599150,-0.948239,-27.600828,-0.540877,4.464745,46.433880,3.116882,0.918399,0.025072,0.394742,0.009625
963,-7.197062,0.482948,6.731737,-0.939226,-27.993866,-0.765391,4.325251,45.538300,2.974707,0.921484,0.024745,0.387516,0.009317
964,-7.077790,0.499844,6.860028,-1.001995,-29.467361,-1.418745,4.168471,44.608902,2.810668,0.924629,0.024336,0.379988,0.008876
965,-6.943116,0.509027,6.974878,-1.371331,-32.192280,-1.868986,3.999997,43.603329,2.629032,0.927963,0.023880,0.371814,0.008329
966,-6.805251,0.521412,7.072668,-1.592494,-34.267200,-1.649183,3.832517,42.515686,2.450441,0.931483,0.023408,0.362946,0.007795
967,-6.654368,0.537883,7.169841,-1.816504,-35.415798,-1.326962,3.684856,41.376362,2.296487,0.935073,0.022996,0.353631,0.007381
968,-6.499311,0.561611,7.295391,-1.913622,-36.146263,-1.350921,3.557655,40.205978,2.163706,0.938658,0.022659,0.344032,0.007055
969,-6.385729,0.526816,7.436954,-1.879478,-37.233704,-1.051376,3.439025,39.008369,2.040730,0.942222,0.022337,0.334176,0.006761
970,-6.229445,0.514550,7.588157,-1.674545,-38.389763,-0.925905,3.325237,37.775200,1.923284,0.945782,0.022017,0.323992,0.006482
971,-6.053614,0.485718,7.763974,-1.600948,-39.629967,-1.145378,3.211023,36.493366,1.801127,0.949365,0.021686,0.313365,0.006149
