seq,ax,ay,az,wroll,wpitch,wyaw,roll,pitch,yaw
3914,0.012187,-7.169659,6.678892,-1.344684,0.446668,0.178103,-47.029610,-0.071262,0.031007
3915,0.016672,-7.133729,6.686125,-0.590696,0.343570,0.080188,-47.061863,-0.059137,0.024301
3916,0.005805,-7.111881,6.691102,-0.382424,0.383626,0.139171,-47.078064,-0.048204,0.017918
3917,0.013689,-7.104817,6.688116,-0.214131,0.192849,0.052798,-47.088009,-0.039319,0.013060
3918,0.016197,-7.100881,6.682670,-0.070808,0.109076,0.003532,-47.092758,-0.035205,0.010014
3919,0.017471,-7.092337,6.685807,0.269393,0.026965,-0.039835,-47.089443,-0.034105,0.007941
3921,0.017653,-7.092596,6.681593,0.356750,-0.234762,-0.046853,-47.079006,-0.037521,0.009494
3922,0.031695,-7.106098,6.676937,0.548887,-0.683355,-0.155052,-47.063927,-0.050407,0.018406
3923,0.041037,-7.103662,6.683609,0.744322,-0.830032,-0.202806,-47.042377,-0.071957,0.032806
3924,0.045507,-7.096655,6.691146,0.751152,-0.747889,-0.199058,-47.017471,-0.094784,0.047483
3925,0.047974,-7.081384,6.687903,0.744573,-0.683327,-0.182944,-46.992577,-0.115707,0.060589
3926,0.050251,-7.081742,6.696864,0.706422,-0.396215,-0.171639,-46.968403,-0.132303,0.069711
3928,0.046534,-7.078515,6.702212,0.597724,0.016988,-0.129629,-46.946674,-0.140287,0.070903
3929,0.038906,-7.077640,6.698215,0.392632,0.282928,-0.055038,-46.930161,-0.139123,0.065149
3930,0.036032,-7.086078,6.697941,0.306162,0.309630,-0.019240,-46.918491,-0.133283,0.057089
3931,0.044270,-7.102553,6.699814,0.221160,0.258694,-0.070511,-46.909687,-0.127905,0.049150
3932,0.045853,-7.097852,6.701881,0.359709,0.231310,-0.098944,-46.899990,-0.124388,0.041257
3933,0.047103,-7.096583,6.696960,0.268156,0.233589,-0.091137,-46.889496,-0.121406,0.033435
3935,0.046560,-7.092803,6.706222,0.566799,0.221652,-0.116907,-46.875568,-0.118751,0.025526
3936,0.045554,-7.089331,6.706075,0.758518,0.212544,-0.147056,-46.853462,-0.117014,0.017238
3937,0.036804,-7.083195,6.708313,0.853411,0.246480,-0.111166,-46.826588,-0.114920,0.008713
3938,0.039063,-7.077827,6.704245,0.713064,0.241050,-0.115907,-46.800449,-0.112118,0.000198
3939,0.035260,-7.070513,6.711631,0.755099,0.257997,-0.106825,-46.775970,-0.109129,-0.008405
3940,0.036113,-7.080564,6.703715,0.372040,0.264741,-0.098562,-46.757172,-0.105655,-0.017098
3942,0.038057,-7.073485,6.711809,0.344169,0.253984,-0.101213,-46.745220,-0.102157,-0.025676
3943,0.045088,-7.066221,6.716019,0.287648,0.223046,-0.135105,-46.734680,-0.099577,-0.034165
3944,0.041585,-7.080726,6.715384,0.045752,0.252213,-0.104417,-46.729111,-0.097055,-0.042669
3945,0.045274,-7.082783,6.710876,-0.098294,0.230163,-0.135485,-46.729973,-0.094455,-0.051264
3946,0.049848,-7.075597,6.710823,-0.042909,0.199635,-0.169535,-46.732311,-0.093247,-0.059964
3947,0.050255,-7.081105,6.704455,-0.178946,0.214017,-0.164395,-46.735989,-0.092575,-0.068799
3949,0.047558,-7.086447,6.697066,-0.524557,0.636795,-0.117411,-46.747696,-0.086278,-0.082345
3950,0.044376,-7.078038,6.693254,-0.507822,0.977327,-0.105846,-46.764866,-0.070558,-0.104491
3951,0.024973,-7.086793,6.692318,-0.386850,1.316461,0.003229,-46.779743,-0.045620,-0.133517
3952,0.014404,-7.102820,6.692765,-0.315020,1.362278,0.028766,-46.791428,-0.014661,-0.165689
3953,0.011245,-7.108235,6.692719,-0.229709,1.315916,-0.000031,-46.800510,0.016247,-0.197898
3954,0.000685,-7.110393,6.695666,0.189635,0.931178,-0.014883,-46.801189,0.041703,-0.225369
3956,-0.003068,-7.110098,6.698007,0.297551,0.594930,-0.023196,-46.793079,0.058653,-0.244343
3957,0.012019,-7.099806,6.697415,0.252291,0.237739,-0.124803,-46.783920,0.066358,-0.256146
3958,0.014395,-7.098017,6.697093,0.021591,0.218405,-0.116510,-46.779366,0.068633,-0.264441
3959,0.012413,-7.098892,6.694046,-0.180849,0.258438,-0.086568,-46.782036,0.071609,-0.272550
3960,0.015801,-7.085779,6.695645,-0.126826,0.256038,-0.102532,-46.787174,0.075183,-0.280957
3961,0.015049,-7.084390,6.696592,-0.051075,0.270509,-0.091034,-46.790150,0.078841,-0.289562
3963,0.017318,-7.090644,6.694960,-0.088650,0.274378,-0.109737,-46.792488,0.082619,-0.298472
3964,0.014938,-7.076939,6.697056,0.103030,0.286077,-0.110899,-46.792267,0.086334,-0.307798
3965,0.016703,-7.070357,6.701291,0.195915,0.269847,-0.112640,-46.787296,0.089963,-0.317102
3966,0.020269,-7.098776,6.689367,-0.267397,0.246384,-0.115341,-46.788506,0.093085,-0.325975
3967,0.024189,-7.095333,6.688467,-0.100920,0.184214,-0.173111,-46.794647,0.094494,-0.334497
3968,0.020280,-7.091672,6.689954,0.234604,0.149696,-0.187850,-46.792439,0.093919,-0.342672
3970,0.021990,-7.104952,6.683989,0.144891,0.132400,-0.196891,-46.786129,0.092465,-0.350489
3971,0.022231,-7.108013,6.678456,0.156224,0.126211,-0.206236,-46.781128,0.090520,-0.358231
3972,0.020706,-7.102159,6.687213,0.366940,0.124959,-0.215704,-46.772423,0.088262,-0.366098
3973,0.019731,-7.115696,6.684936,0.091303,0.146943,-0.187269,-46.764797,0.086473,-0.374000
3974,0.020694,-7.108570,6.686022,-0.134193,0.180853,-0.156536,-46.765514,0.086040,-0.381905
3975,0.018697,-7.098683,6.690182,-0.104665,0.190011,-0.132681,-46.769512,0.086762,-0.389710
3977,0.019670,-7.100868,6.691410,-0.116149,0.180253,-0.150524,-46.773205,0.087549,-0.397439
3978,0.019821,-7.094002,6.690795,-0.040913,0.176766,-0.147962,-46.775837,0.088000,-0.405182
3979,0.019622,-7.089343,6.691745,-0.011746,0.183403,-0.156483,-46.776726,0.088413,-0.413031
3980,0.020179,-7.099949,6.688404,-0.195052,0.185742,-0.159156,-46.780186,0.088793,-0.421117
3981,0.022439,-7.108571,6.681233,-0.283319,0.193069,-0.188063,-46.788170,0.088899,-0.429681
3982,0.018449,-7.109322,6.684416,-0.206593,0.227600,-0.159629,-46.796356,0.089475,-0.438759
3984,0.020651,-7.110690,6.682652,-0.252022,0.190739,-0.165428,-46.804012,0.090299,-0.447550
3985,0.021844,-7.111936,6.684363,-0.090564,0.159707,-0.192439,-46.809738,0.089948,-0.455891
3986,0.010037,-7.099008,6.684120,0.215827,0.182136,-0.143849,-46.807663,0.089762,-0.463881
3987,0.008162,-7.098079,6.688663,0.392525,-0.204754,-0.122493,-46.797516,0.086268,-0.466644
3988,0.012900,-7.098369,6.684412,0.391109,-0.458733,-0.156895,-46.784447,0.075303,-0.461773
3989,0.015060,-7.086535,6.689487,0.518469,-0.474505,-0.171063,-46.769283,0.060668,-0.454182
3991,0.018954,-7.079497,6.686770,0.342519,-0.670889,-0.126880,-46.754925,0.043973,-0.443676
3992,0.033670,-7.090939,6.691762,0.062576,-0.799038,-0.155855,-46.748161,0.023755,-0.429060
3993,0.042544,-7.089271,6.689871,-0.076161,-0.496386,-0.197110,-46.748383,0.004677,-0.417365
3994,0.041426,-7.087308,6.690691,-0.092167,-0.262667,-0.178487,-46.751194,-0.008550,-0.412439
3995,0.037883,-7.097632,6.688720,-0.059198,-0.189502,-0.144375,-46.753719,-0.017633,-0.410637
3996,0.041812,-7.090665,6.692151,0.173591,-0.002654,-0.199613,-46.751801,-0.024004,-0.412232
3998,0.045593,-7.091321,6.688244,0.163152,0.076962,-0.233946,-46.746193,-0.028418,-0.418086
3999,0.042206,-7.090560,6.689627,0.122508,0.132313,-0.199886,-46.741425,-0.031294,-0.425581
4000,0.044212,-7.095767,6.688590,0.045244,0.129151,-0.200510,-46.738625,-0.033167,-0.433327
4001,0.049481,-7.093817,6.686994,0.006014,0.106627,-0.234056,-46.737762,-0.035749,-0.441153
4002,0.050018,-7.105915,6.686549,-0.149020,0.106086,-0.233029,-46.740147,-0.038988,-0.449070
4003,0.046435,-7.101075,6.689245,0.009425,0.135440,-0.218980,-46.742466,-0.041716,-0.457164
4005,0.044267,-7.100417,6.689324,0.156277,0.158812,-0.223646,-46.739700,-0.043728,-0.465791
4006,0.041208,-7.091484,6.693347,0.282340,0.176090,-0.221943,-46.732380,-0.045310,-0.474945
4007,0.035593,-7.089403,6.689866,0.203734,0.199181,-0.181317,-46.724281,-0.045917,-0.484106
4008,0.032061,-7.077824,6.690740,0.262816,0.222430,-0.162849,-46.716496,-0.045275,-0.493154
4009,0.029338,-7.074249,6.693214,0.336115,0.227446,-0.156848,-46.706497,-0.044013,-0.502266
4010,0.029744,-7.072008,6.696229,0.328233,0.226644,-0.160904,-46.695427,-0.042677,-0.511406
4012,0.032765,-7.078496,6.692442,0.255751,0.209909,-0.178696,-46.685684,-0.041804,-0.520582
4013,0.038961,-7.077837,6.703038,0.349738,0.168510,-0.227000,-46.675579,-0.042397,-0.529810
4014,0.039597,-7.083221,6.697277,0.263647,0.169640,-0.233547,-46.665356,-0.044113,-0.539176
4015,0.044404,-7.082674,6.695916,0.238386,0.146679,-0.248910,-46.656979,-0.046343,-0.548529
4016,0.050341,-7.079298,6.696498,0.214973,0.100587,-0.271030,-46.649414,-0.049816,-0.557474
4017,0.056759,-7.078109,6.699264,0.137072,0.065139,-0.290222,-46.643539,-0.054721,-0.565904
4019,0.055551,-7.080499,6.693824,0.104915,0.080231,-0.278866,-46.639503,-0.059954,-0.574178
4020,0.051553,-7.079799,6.704596,0.249953,0.093123,-0.238352,-46.633575,-0.064238,-0.582197
4021,0.053214,-7.079759,6.705832,0.261510,0.090371,-0.255135,-46.625046,-0.068116,-0.590069
4022,0.049837,-7.079465,6.706975,0.360121,0.114624,-0.264487,-46.614674,-0.072064,-0.598500
4023,0.043524,-7.077810,6.710954,0.490001,0.143054,-0.241199,-46.600494,-0.075238,-0.607411
4024,0.041459,-7.068298,6.711860,0.524711,0.153963,-0.233971,-46.583561,-0.077589,-0.616449
4026,0.048728,-7.071436,6.709588,0.427690,0.102968,-0.273398,-46.567677,-0.080787,-0.625372
4027,0.048263,-7.076422,6.713568,0.383874,0.092261,-0.263750,-46.554138,-0.085051,-0.633890
4028,0.044929,-7.074123,6.718202,0.387357,0.115221,-0.216491,-46.541275,-0.088483,-0.641906
4029,0.048302,-7.075109,6.718024,0.283179,0.099671,-0.228271,-46.530090,-0.091399,-0.649604
4030,0.045617,-7.081668,6.719436,0.144140,0.114316,-0.187970,-46.522949,-0.093980,-0.656965
4031,0.040415,-7.085732,6.718387,0.057885,0.160570,-0.151918,-46.519569,-0.094938,-0.664188
4033,0.037714,-7.080318,6.717482,0.038635,0.182313,-0.132325,-46.517952,-0.094443,-0.671594
4034,0.037592,-7.084078,6.712909,-0.098197,0.168643,-0.127543,-46.518932,-0.093561,-0.678819
4035,0.036812,-7.086088,6.710730,-0.154912,0.169293,-0.097644,-46.523140,-0.092409,-0.685488
4036,0.037737,-7.087209,6.714244,-0.103967,0.153369,-0.115536,-46.527443,-0.091287,-0.691835
4037,0.037572,-7.078229,6.716993,-0.022488,0.154642,-0.120585,-46.529537,-0.090611,-0.698268
4038,0.039260,-7.079128,6.717146,0.008260,0.148223,-0.138295,-46.529766,-0.090270,-0.704900
4040,0.038342,-7.075638,6.719291,0.106059,0.159458,-0.132965,-46.527855,-0.090023,-0.711732
4041,0.035107,-7.070554,6.722596,0.193352,0.178740,-0.132565,-46.522850,-0.089356,-0.718867
4042,0.038818,-7.063949,6.724818,0.281445,0.166115,-0.160278,-46.514931,-0.088942,-0.726396
4043,0.039639,-7.070457,6.724124,0.253178,0.163684,-0.175046,-46.506008,-0.089214,-0.734230
4044,0.038585,-7.072454,6.724350,0.216966,0.162615,-0.164976,-46.498158,-0.089582,-0.742076
4045,0.042199,-7.066325,6.725487,0.156644,0.140905,-0.174154,-46.491920,-0.090199,-0.749636
4047,0.042393,-7.064795,6.727174,0.170488,0.135676,-0.171778,-46.486446,-0.091206,-0.756949
4048,0.040959,-7.064478,6.726545,0.184711,0.137635,-0.160099,-46.480518,-0.092081,-0.764061
4049,0.040559,-7.063772,6.728705,0.181760,0.122572,-0.142935,-46.474400,-0.092757,-0.770683
4050,0.040015,-7.065251,6.734845,0.147916,0.131190,-0.129544,-46.468891,-0.093136,-0.776878
4051,0.045614,-7.077153,6.732201,0.058250,0.102161,-0.176868,-46.465450,-0.094160,-0.783215
4052,0.042614,-7.073856,6.729126,0.010784,0.122676,-0.144641,-46.464287,-0.095464,-0.789622
4054,0.045704,-7.077775,6.726419,-0.102163,0.100571,-0.149248,-46.465797,-0.096452,-0.795693
4055,0.046679,-7.074236,6.730286,-0.021703,0.101730,-0.153054,-46.467854,-0.097782,-0.801608
4056,0.051074,-7.082345,6.724237,-0.095688,0.074762,-0.182691,-46.469803,-0.099813,-0.807595
4057,0.042168,-7.072032,6.724896,-0.032124,0.126052,-0.125598,-46.471924,-0.101233,-0.813560
4058,0.047631,-7.083697,6.723213,-0.111937,0.098973,-0.146529,-46.474308,-0.101939,-0.819403
4059,0.049398,-7.082839,6.724569,-0.044169,0.082804,-0.166343,-46.476891,-0.103633,-0.825191
4060,0.051809,-7.077138,6.717852,-0.079141,0.066480,-0.183376,-46.478935,-0.106146,-0.831009
4061,0.050514,-7.070758,6.718296,-0.084895,0.069097,-0.165090,-46.481663,-0.108802,-0.836647
4062,0.058644,-7.073890,6.714473,-0.125769,0.022309,-0.200542,-46.485165,-0.112172,-0.841947
4063,0.059129,-7.069316,6.717967,-0.047528,0.021219,-0.207900,-46.488045,-0.116609,-0.847161
4064,0.054587,-7.066519,6.714263,-0.066663,0.063746,-0.177431,-46.489937,-0.120292,-0.852609
4065,0.055774,-7.073255,6.713336,-0.052644,0.067921,-0.191635,-46.491917,-0.123242,-0.858436
4066,0.051646,-7.068915,6.712649,0.103510,0.092758,-0.197445,-46.491051,-0.126102,-0.864842
4067,0.046580,-7.061537,6.716035,0.354870,0.121783,-0.191242,-46.483398,-0.128338,-0.871896
4068,0.051742,-7.049766,6.720683,0.566839,0.086487,-0.243603,-46.468021,-0.131202,-0.879404
4069,0.051255,-7.046359,6.726331,0.608337,0.089291,-0.229832,-46.448421,-0.134904,-0.886963
4070,0.046883,-7.050518,6.726019,0.418964,0.113414,-0.174848,-46.431271,-0.137463,-0.894059
4071,0.048467,-7.049516,6.731710,0.394565,0.107942,-0.160818,-46.417702,-0.138973,-0.900588
4072,0.050835,-7.058994,6.734787,0.223330,0.093625,-0.149568,-46.407391,-0.140404,-0.906588
4073,0.045364,-7.069695,6.733988,0.001987,0.129785,-0.097568,-46.403618,-0.140819,-0.912125
4074,0.047821,-7.073955,6.734042,-0.044438,0.112186,-0.115769,-46.404316,-0.140614,-0.917498
4075,0.049183,-7.068460,6.733934,0.021326,0.106599,-0.124965,-46.404682,-0.141005,-0.922905
4076,0.044035,-7.076363,6.732894,-0.087650,0.142782,-0.073269,-46.405777,-0.140532,-0.928194
4077,0.043302,-7.077179,6.734690,-0.111567,0.149779,-0.073738,-46.409088,-0.138944,-0.933415
4078,0.042561,-7.081403,6.731914,-0.195708,0.150999,-0.063104,-46.414196,-0.137140,-0.938618
4079,0.037462,-7.079733,6.734831,-0.200563,0.189238,-0.020492,-46.420792,-0.134240,-0.943686
4080,0.041038,-7.089886,6.737931,-0.299597,0.164691,-0.040098,-46.429115,-0.130905,-0.948656
4081,0.051670,-7.085275,6.735945,-0.320704,0.095146,-0.119357,-46.439442,-0.129846,-0.953626
4082,0.050712,-7.082058,6.732666,-0.366134,0.105755,-0.102527,-46.450882,-0.130219,-0.958601
4083,0.053961,-7.080848,6.730553,-0.291042,0.093937,-0.136828,-46.461811,-0.130818,-0.963761
4084,0.054963,-7.078424,6.725022,-0.203663,0.083618,-0.153615,-46.470051,-0.132289,-0.969241
4085,0.053176,-7.064705,6.727490,-0.041918,0.098838,-0.144290,-46.474129,-0.133795,-0.974865
4086,0.048875,-7.065256,6.727052,-0.028136,0.130969,-0.104632,-46.475288,-0.134165,-0.980499
4087,0.045245,-7.065653,6.729879,0.073215,0.150321,-0.087215,-46.474525,-0.133255,-0.986101
4088,0.044389,-7.060169,6.734070,0.138330,0.157601,-0.078377,-46.470989,-0.131721,-0.991722
4089,0.048608,-7.067558,6.731270,0.013901,0.136408,-0.106863,-46.468437,-0.130585,-0.997401
4090,0.048655,-7.070123,6.730554,0.015945,0.130257,-0.128259,-46.467922,-0.130365,-1.003323
4091,0.050719,-7.068711,6.727213,0.037598,0.109644,-0.147981,-46.467022,-0.130949,-1.009392
4092,0.054935,-7.073210,6.721756,-0.103683,0.096633,-0.162102,-46.468102,-0.132327,-1.015445
4093,0.053447,-7.068706,6.720755,-0.096357,0.112969,-0.157519,-46.471416,-0.133784,-1.021646
4094,0.054707,-7.066456,6.722701,-0.080524,0.103703,-0.164190,-46.474354,-0.135184,-1.027957
4095,0.052248,-7.067919,6.720008,-0.099118,0.139734,-0.131831,-46.477333,-0.135967,-1.034297
4096,0.046984,-7.069757,6.721122,-0.089506,0.173978,-0.108084,-46.480457,-0.135266,-1.040841
4097,0.045749,-7.068491,6.722423,-0.045893,0.173065,-0.122461,-46.482700,-0.134070,-1.047682
4098,0.041689,-7.067882,6.720660,-0.039380,0.178019,-0.099481,-46.484108,-0.132723,-1.054472
4099,0.038287,-7.064802,6.720833,0.017691,0.192610,-0.090051,-46.484459,-0.130761,-1.061127
4100,0.042662,-7.070528,6.722371,0.037567,0.154900,-0.133773,-46.483521,-0.129478,-1.067895
4101,0.047336,-7.064948,6.725336,0.175990,0.123628,-0.169841,-46.479946,-0.129951,-1.074746
4102,0.047084,-7.057605,6.727364,0.255765,0.123980,-0.163440,-46.472733,-0.131136,-1.081564
4103,0.052775,-7.060993,6.726752,0.203745,0.095115,-0.190866,-46.465057,-0.132903,-1.088278
4104,0.055074,-7.065814,6.730058,0.207009,0.082999,-0.200453,-46.458195,-0.135586,-1.094923
4105,0.054847,-7.058715,6.730520,0.267298,0.082318,-0.190332,-46.450279,-0.138408,-1.101407
4106,0.054125,-7.058843,6.730869,0.217284,0.086410,-0.185785,-46.442177,-0.141014,-1.107764
4107,0.055633,-7.058558,6.734150,0.261452,0.073784,-0.203317,-46.434185,-0.143873,-1.114168
4108,0.053940,-7.053668,6.738809,0.333420,0.089999,-0.195709,-46.424252,-0.146810,-1.120730
4109,0.054180,-7.050543,6.735672,0.264272,0.094308,-0.194279,-46.414276,-0.149401,-1.127436
4110,0.052449,-7.057428,6.737825,0.209029,0.096813,-0.180208,-46.406372,-0.151725,-1.134046
4111,0.053802,-7.058806,6.736768,0.157711,0.092352,-0.171093,-46.400238,-0.153791,-1.140367
4112,0.051518,-7.071333,6.732778,-0.041484,0.108225,-0.132598,-46.398285,-0.155151,-1.146279
4113,0.053574,-7.078183,6.729817,-0.123188,0.081754,-0.141059,-46.401016,-0.156271,-1.151717
4114,0.050923,-7.085567,6.729665,-0.184709,0.092881,-0.112132,-46.406136,-0.157320,-1.156735
4115,0.052786,-7.086952,6.726448,-0.248738,0.084023,-0.119927,-46.413345,-0.158088,-1.161537
4116,0.053513,-7.082143,6.729584,-0.172079,0.071243,-0.140799,-46.420349,-0.159452,-1.166407
4117,0.055206,-7.075818,6.730685,-0.091821,0.056173,-0.159641,-46.424725,-0.161615,-1.171397
4118,0.049271,-7.072431,6.731655,-0.038686,0.101969,-0.128848,-46.426888,-0.163282,-1.176621
4119,0.049987,-7.060738,6.737185,0.165475,0.094768,-0.139697,-46.424755,-0.164264,-1.182082
4120,0.046414,-7.060008,6.734829,0.144165,0.112718,-0.117482,-46.419586,-0.164986,-1.187542
4121,0.041430,-7.061861,6.733055,0.094062,0.157326,-0.081840,-46.415600,-0.164289,-1.193092
4122,0.046712,-7.067720,6.729910,0.073662,0.130496,-0.116173,-46.412792,-0.163373,-1.198843
4123,0.048825,-7.071070,6.727907,0.074478,0.113535,-0.122989,-46.410305,-0.163456,-1.204537
4124,0.051311,-7.066847,6.725894,0.074385,0.105939,-0.143587,-46.407810,-0.164151,-1.210249
4125,0.054853,-7.065944,6.728848,0.107179,0.079022,-0.165522,-46.404758,-0.165757,-1.216034
4126,0.056708,-7.069867,6.728771,0.093559,0.060178,-0.166404,-46.401398,-0.168163,-1.221529
4127,0.052413,-7.065391,6.731334,0.141196,0.084086,-0.145785,-46.397476,-0.170273,-1.226859
4128,0.054909,-7.058454,6.734377,0.169428,0.075597,-0.168883,-46.392281,-0.172235,-1.232403
4129,0.050847,-7.065933,6.740948,0.106209,0.104014,-0.143628,-46.387669,-0.173942,-1.238163
4130,0.048572,-7.058404,6.741734,0.128757,0.124023,-0.130656,-46.383732,-0.174630,-1.244068
4131,0.044974,-7.051361,6.743340,0.176025,0.146505,-0.108780,-46.378635,-0.174408,-1.250085
4133,0.043196,-7.036837,6.744361,0.248266,0.166098,-0.092094,-46.371544,-0.173237,-1.256167
4134,0.041169,-7.045494,6.743741,0.084901,0.175629,-0.058807,-46.365974,-0.171128,-1.262025
4135,0.041165,-7.040985,6.739512,0.025335,0.162552,-0.047529,-46.364109,-0.168521,-1.267327
4136,0.042784,-7.042834,6.737015,-0.012152,0.152920,-0.053060,-46.363884,-0.166106,-1.272289
4137,0.046939,-7.047534,6.736137,0.034225,0.129653,-0.103472,-46.363499,-0.164744,-1.277498
4138,0.046739,-7.062643,6.739902,-0.012885,0.122003,-0.109306,-46.363125,-0.164416,-1.282981
4139,0.047364,-7.060564,6.736053,0.006740,0.116114,-0.116880,-46.363213,-0.164406,-1.288454
4140,0.046420,-7.059202,6.733622,0.036288,0.120147,-0.098813,-46.362480,-0.164290,-1.293785
4141,0.044980,-7.057435,6.740461,0.129212,0.133493,-0.088310,-46.359707,-0.163630,-1.298997
4142,0.041748,-7.053045,6.744249,0.122534,0.152465,-0.054864,-46.355499,-0.162067,-1.304093
4143,0.040619,-7.049574,6.744342,0.093777,0.159143,-0.041879,-46.351883,-0.159650,-1.308963
4144,0.040401,-7.048489,6.750241,0.138691,0.156538,-0.050777,-46.347996,-0.157135,-1.313836
4145,0.039981,-7.053204,6.759283,0.241104,0.162813,-0.070505,-46.341652,-0.154924,-1.319082
4146,0.036019,-7.058074,6.756088,0.224477,0.182911,-0.064367,-46.333870,-0.152572,-1.324803
4147,0.045108,-7.056852,6.756371,0.206874,0.119076,-0.124816,-46.326660,-0.151377,-1.330621
4148,0.043301,-7.056535,6.756699,0.129978,0.137867,-0.108560,-46.321033,-0.151233,-1.336404
4149,0.043848,-7.060025,6.755391,0.049340,0.132758,-0.098413,-46.318031,-0.150612,-1.342048
4150,0.050581,-7.061703,6.747081,-0.076166,0.083221,-0.120660,-46.318470,-0.150767,-1.347173
4151,0.054210,-7.051244,6.751342,0.006113,0.058186,-0.139451,-46.319626,-0.152274,-1.351872
4152,0.049196,-7.060078,6.750185,-0.131030,0.094769,-0.095040,-46.321693,-0.153340,-1.356415
4153,0.055794,-7.059956,6.749702,-0.154637,0.048038,-0.134477,-46.326443,-0.154463,-1.360778
4154,0.056651,-7.053532,6.750547,-0.185402,0.049950,-0.128421,-46.332104,-0.156505,-1.364985
4155,0.055579,-7.054018,6.750529,-0.263840,0.056978,-0.131731,-46.339588,-0.158411,-1.369268
4156,0.050050,-7.060416,6.749478,-0.343952,0.100155,-0.102028,-46.349693,-0.159422,-1.373852
4157,0.049188,-7.047763,6.746904,-0.236020,0.107717,-0.102164,-46.359348,-0.159494,-1.378708
4158,0.047639,-7.044677,6.743133,-0.162561,0.115494,-0.094020,-46.365978,-0.159293,-1.383656
4159,0.045567,-7.043081,6.743936,-0.012529,0.132434,-0.105599,-46.368885,-0.158849,-1.388943
4160,0.041907,-7.031962,6.745893,0.166868,0.154165,-0.096887,-46.366299,-0.157996,-1.394729
4161,0.036105,-7.005516,6.748261,0.353817,0.176280,-0.046307,-46.357605,-0.155922,-1.400362
4162,0.033916,-7.019877,6.747891,0.211087,0.193542,-0.029581,-46.348175,-0.152583,-1.405694
4163,0.030298,-7.022592,6.752170,0.313066,0.210642,-0.025258,-46.339420,-0.148594,-1.411199
4164,0.033309,-7.030808,6.750917,0.331998,0.180469,-0.047046,-46.328659,-0.144965,-1.416747
4165,0.037821,-7.037812,6.752461,0.295280,0.161437,-0.071917,-46.318195,-0.142464,-1.422237
4166,0.051256,-7.058547,6.747086,0.113075,0.081601,-0.150473,-46.311375,-0.142346,-1.427727
4167,0.052412,-7.099840,6.731893,-0.071913,0.055998,-0.167460,-46.310673,-0.144594,-1.433045
4168,0.053929,-7.083721,6.735741,0.409042,0.024500,-0.224125,-46.305038,-0.148386,-1.438524
4169,0.052344,-7.084084,6.738003,0.492022,0.022721,-0.232863,-46.290001,-0.153348,-1.444355
4170,0.050306,-7.083313,6.737241,0.461530,0.024746,-0.217632,-46.274094,-0.158228,-1.450115
4171,0.048764,-7.082828,6.744081,0.514528,0.025471,-0.204020,-46.257816,-0.162728,-1.455579
4172,0.053619,-7.048018,6.764580,0.747931,-0.003801,-0.231025,-46.236759,-0.167715,-1.460854
4173,0.049209,-7.060425,6.766697,0.256058,0.037339,-0.145247,-46.220001,-0.171857,-1.465596
4174,0.051739,-7.045470,6.767795,0.199278,0.027491,-0.132943,-46.212410,-0.174457,-1.469584
4175,0.052861,-7.047667,6.766976,0.096107,0.014063,-0.120453,-46.207474,-0.177026,-1.473007
4176,0.047718,-7.040775,6.767711,0.075928,0.055530,-0.094470,-46.204597,-0.178809,-1.476323
4177,0.043422,-7.029710,6.763752,0.095794,0.087853,-0.053491,-46.201717,-0.178935,-1.479755
4178,0.049852,-7.029974,6.758567,0.002096,0.054617,-0.086703,-46.200081,-0.178978,-1.483086
4179,0.045751,-7.036280,6.766702,0.034221,0.081444,-0.067991,-46.199459,-0.179269,-1.486507
4180,0.045223,-7.031296,6.765114,0.102566,0.086340,-0.069141,-46.197166,-0.178983,-1.490107
4181,0.054041,-7.040816,6.761439,0.007080,0.029105,-0.117618,-46.195328,-0.179898,-1.493650
4182,0.054339,-7.039624,6.764575,0.074274,0.026713,-0.118624,-46.193966,-0.182095,-1.497047
4183,0.055072,-7.047074,6.762556,0.038444,0.032057,-0.125304,-46.192074,-0.184351,-1.500568
4184,0.055016,-7.047107,6.758096,0.002514,0.042092,-0.116539,-46.191380,-0.186405,-1.504250
4185,0.054907,-7.054973,6.765222,-0.007294,0.049723,-0.125541,-46.191448,-0.188257,-1.508148
4186,0.052609,-7.066107,6.760746,-0.130819,0.063953,-0.113237,-46.193733,-0.189818,-1.512270
4187,0.052645,-7.069244,6.761356,-0.164000,0.071438,-0.120902,-46.198631,-0.191072,-1.516600
4188,0.053878,-7.062938,6.761123,-0.060376,0.045278,-0.133828,-46.202358,-0.192790,-1.520943
4189,0.052257,-7.064731,6.758808,-0.100283,0.043056,-0.123267,-46.205029,-0.194864,-1.524971
4190,0.050177,-7.060241,6.757314,-0.029714,0.062290,-0.100464,-46.207180,-0.196340,-1.528819
4191,0.048697,-7.049555,6.758107,0.086280,0.071205,-0.108254,-46.206219,-0.197312,-1.532832
4192,0.047360,-7.038471,6.765289,0.190415,0.080484,-0.100654,-46.201591,-0.198075,-1.537067
4193,0.050699,-7.066031,6.760108,-0.046194,0.068491,-0.107861,-46.199177,-0.198865,-1.541264
4194,0.053715,-7.062748,6.755455,-0.053391,0.047613,-0.129424,-46.200821,-0.200380,-1.545398
4195,0.051153,-7.063582,6.759509,-0.042511,0.064873,-0.129857,-46.202408,-0.202201,-1.549742
4196,0.047185,-7.069605,6.757883,-0.047450,0.093879,-0.088831,-46.203892,-0.203001,-1.554175
4197,0.049132,-7.074845,6.752506,-0.128091,0.073496,-0.081903,-46.206799,-0.203124,-1.558158
4198,0.040235,-7.039271,6.769862,0.215092,0.128199,-0.040283,-46.205341,-0.202268,-1.561994
4199,0.043947,-7.042089,6.772948,0.171103,0.106311,-0.049441,-46.198891,-0.200642,-1.565850
4200,0.044261,-7.036165,6.770289,0.073980,0.088784,-0.012226,-46.194794,-0.199133,-1.568908
4201,0.047131,-7.031540,6.774670,0.101073,0.057587,-0.035314,-46.191872,-0.198016,-1.571217
4202,0.051780,-7.033234,6.769696,0.030499,0.027843,-0.066076,-46.189659,-0.198250,-1.573414
4203,0.053906,-7.037168,6.767333,-0.016300,0.011930,-0.073160,-46.189423,-0.199466,-1.575499
4204,0.057912,-7.041047,6.767655,-0.007705,-0.014305,-0.110951,-46.189812,-0.201707,-1.577595
4205,0.061950,-7.052514,6.764862,-0.022961,-0.029024,-0.152123,-46.190311,-0.205371,-1.580109
4206,0.065025,-7.047637,6.771415,0.059771,-0.028568,-0.161827,-46.189690,-0.209812,-1.583038
4207,0.061277,-7.052490,6.770032,0.011375,0.003319,-0.140785,-46.188492,-0.213743,-1.586226
4208,0.060883,-7.049822,6.769778,-0.010858,0.021857,-0.141881,-46.188465,-0.216852,-1.589791
4209,0.053919,-7.044224,6.773496,0.033113,0.078185,-0.088516,-46.188084,-0.218469,-1.593652
4210,0.053407,-7.038670,6.770220,0.079270,0.084267,-0.096046,-46.186195,-0.218814,-1.597736
4211,0.054487,-7.039805,6.771327,0.049135,0.078022,-0.104061,-46.184040,-0.219348,-1.601996
4212,0.053303,-7.035730,6.774671,0.122576,0.087342,-0.102272,-46.181164,-0.219921,-1.606366
4213,0.054755,-7.048543,6.769543,-0.041146,0.080422,-0.093643,-46.179790,-0.220341,-1.610644
4214,0.056712,-7.050375,6.768619,-0.048003,0.073414,-0.126968,-46.181255,-0.221219,-1.615040
4215,0.057363,-7.057785,6.772383,-0.088391,0.064414,-0.122256,-46.183506,-0.222625,-1.619573
4216,0.055486,-7.062409,6.765610,-0.169843,0.066305,-0.101154,-46.187798,-0.223804,-1.623724
4217,0.060661,-7.066136,6.767881,-0.264777,0.037655,-0.120405,-46.195030,-0.225269,-1.627530
4218,0.061362,-7.062300,6.765355,-0.219226,0.022511,-0.120551,-46.203079,-0.227474,-1.631034
4219,0.058013,-7.058030,6.769021,-0.124370,0.049834,-0.088063,-46.208794,-0.229149,-1.634310
4220,0.057779,-7.048501,6.767549,-0.088468,0.058917,-0.076156,-46.212330,-0.229870,-1.637513
4221,0.060393,-7.049017,6.769767,-0.105760,0.037699,-0.098137,-46.215549,-0.230853,-1.640685
4222,0.054599,-7.037719,6.769757,0.064098,0.072319,-0.070027,-46.216236,-0.231608,-1.643949
4223,0.055178,-7.035271,6.768798,0.089341,0.066410,-0.077650,-46.213665,-0.231785,-1.647321
4224,0.058554,-7.037474,6.761031,0.016728,0.039518,-0.092837,-46.211884,-0.232615,-1.650562
4225,0.056548,-7.036542,6.766416,0.050970,0.061901,-0.096037,-46.210743,-0.233717,-1.653960
4226,0.056994,-7.039120,6.762814,0.012261,0.078429,-0.086977,-46.209675,-0.234301,-1.657760
4227,0.055819,-7.049616,6.763177,-0.028085,0.087737,-0.084587,-46.209923,-0.234448,-1.661738
4228,0.054066,-7.046953,6.765791,0.024972,0.104700,-0.081086,-46.209957,-0.234222,-1.665964
4229,0.053683,-7.052210,6.764229,-0.041288,0.106707,-0.078744,-46.210217,-0.233707,-1.670351
4230,0.053649,-7.043118,6.766016,0.054854,0.098714,-0.077995,-46.209961,-0.233223,-1.674630
4231,0.053419,-7.041972,6.764202,0.042389,0.100998,-0.087855,-46.208336,-0.232915,-1.678946
4232,0.054977,-7.032405,6.763124,0.061024,0.080326,-0.095506,-46.206596,-0.233030,-1.683242
4233,0.057101,-7.032926,6.766056,0.061726,0.064500,-0.116530,-46.204529,-0.233910,-1.687430
4234,0.057811,-7.036028,6.769812,0.054468,0.058142,-0.118460,-46.202576,-0.235323,-1.691616
4236,0.059191,-7.043375,6.764310,-0.064724,0.050935,-0.125483,-46.202721,-0.236999,-1.695742
4237,0.059470,-7.041480,6.768167,-0.007062,0.051057,-0.137784,-46.203899,-0.238989,-1.700006
4238,0.061037,-7.047062,6.764592,-0.007010,0.051029,-0.134767,-46.204121,-0.241091,-1.704378
4239,0.060104,-7.050274,6.757472,-0.060773,0.067676,-0.128093,-46.205235,-0.242884,-1.708838
4240,0.057135,-7.037395,6.759559,0.069291,0.081453,-0.118616,-46.205074,-0.244132,-1.713478
4241,0.055069,-7.035109,6.759275,0.134664,0.095256,-0.105819,-46.201641,-0.244793,-1.718192
4242,0.047630,-7.030793,6.763952,0.179546,0.142941,-0.044256,-46.196392,-0.243851,-1.722789
4243,0.048266,-7.030045,6.769144,0.163507,0.138237,-0.061540,-46.190651,-0.241879,-1.727392
4244,0.047581,-7.027819,6.772983,0.153300,0.132822,-0.034980,-46.185356,-0.239912,-1.731765
4245,0.047078,-7.026892,6.773695,0.129714,0.133813,-0.020209,-46.180626,-0.237499,-1.735609
4246,0.046513,-7.038191,6.774071,0.046966,0.133215,-0.012679,-46.177666,-0.234813,-1.739200
4247,0.049581,-7.050887,6.764755,-0.124428,0.093054,-0.028497,-46.178940,-0.232697,-1.742396
4248,0.048561,-7.044981,6.763156,-0.096673,0.095425,-0.015447,-46.182621,-0.231051,-1.745169
4249,0.051211,-7.038637,6.764396,0.002724,0.085193,-0.045054,-46.184174,-0.229694,-1.748040
4250,0.053320,-7.046899,6.759150,-0.099978,0.070720,-0.047461,-46.185780,-0.229008,-1.750982
4251,0.061435,-7.039794,6.754581,-0.147375,0.024796,-0.100200,-46.189896,-0.229682,-1.753835
4252,0.064317,-7.028873,6.760273,0.018108,0.015620,-0.125998,-46.192036,-0.231936,-1.756931
4253,0.064154,-7.043190,6.760664,-0.075723,0.014473,-0.131120,-46.192978,-0.234681,-1.760259
4254,0.060852,-7.047556,6.761216,-0.083650,0.038952,-0.122329,-46.195614,-0.237113,-1.763826
4255,0.059133,-7.047452,6.763956,-0.020455,0.065739,-0.127173,-46.197338,-0.238907,-1.767963
4256,0.047431,-7.056479,6.769789,-0.006807,0.134505,-0.050614,-46.197773,-0.238735,-1.772423
4257,0.041633,-7.052290,6.768711,0.050662,0.171069,-0.018775,-46.197029,-0.236045,-1.776900
4258,0.040570,-7.037288,6.769622,0.160533,0.185451,-0.007857,-46.193493,-0.232252,-1.781495
4259,0.037131,-7.044482,6.765599,0.014172,0.197721,0.028470,-46.190559,-0.227583,-1.785866
4260,0.035371,-7.038118,6.765071,0.028498,0.197479,0.031355,-46.189831,-0.222304,-1.789929
4261,0.041996,-7.031538,6.756138,0.004788,0.160434,-0.016696,-46.189262,-0.217998,-1.794065
4262,0.044761,-7.038484,6.754034,-0.065545,0.142060,-0.037185,-46.190250,-0.215156,-1.798324
4263,0.044946,-7.040825,6.751753,-0.050106,0.137878,-0.061234,-46.192165,-0.213110,-1.802827
4264,0.052358,-7.037670,6.750072,0.039133,0.094999,-0.119930,-46.192333,-0.212602,-1.807718
4265,0.055735,-7.043164,6.754123,0.034678,0.072487,-0.135665,-46.191086,-0.213744,-1.812682
4266,0.051790,-7.029079,6.764746,0.207650,0.093390,-0.106862,-46.187027,-0.214747,-1.817475
4267,0.046827,-7.022561,6.761629,0.156076,0.124480,-0.051633,-46.180950,-0.214139,-1.821924
4268,0.044940,-7.027581,6.764498,0.059824,0.132368,-0.018737,-46.177341,-0.212021,-1.825825
4269,0.042623,-7.021304,6.769504,0.060558,0.135256,0.010264,-46.175320,-0.209035,-1.829141
4270,0.037746,-7.021821,6.758811,-0.069861,0.159998,0.054825,-46.175465,-0.204845,-1.831940
4271,0.041720,-7.030831,6.758060,-0.104997,0.134410,0.020728,-46.178368,-0.200538,-1.834608
4272,0.047781,-7.037454,6.759871,-0.073071,0.088451,-0.040576,-46.181328,-0.198205,-1.837517
4273,0.045447,-7.036489,6.754404,-0.102046,0.106128,-0.029927,-46.184238,-0.196808,-1.840671
4274,0.044075,-7.038222,6.759926,-0.035000,0.126949,-0.042526,-46.186504,-0.194990,-1.844310
4275,0.049723,-7.041705,6.762447,-0.012385,0.093752,-0.092511,-46.187283,-0.194067,-1.848522
4276,0.046778,-7.043867,6.760952,-0.117801,0.109118,-0.064120,-46.189438,-0.193610,-1.852770
4277,0.050051,-7.032146,6.763637,-0.021390,0.094761,-0.087428,-46.191746,-0.193081,-1.856970
4278,0.056638,-7.042943,6.766432,-0.079738,0.051151,-0.118817,-46.193420,-0.193878,-1.861105
4279,0.055313,-7.042733,6.766648,-0.103528,0.064552,-0.103552,-46.196461,-0.195218,-1.865062
4280,0.056256,-7.039703,6.764730,-0.123133,0.064597,-0.108348,-46.200218,-0.196277,-1.869060
4281,0.058687,-7.053201,6.758899,-0.235204,0.055304,-0.131427,-46.206181,-0.197778,-1.873268
4282,0.053230,-7.061769,6.763399,-0.202536,0.088758,-0.105583,-46.213459,-0.198968,-1.877735
4283,0.053798,-7.056195,6.760022,-0.148657,0.081742,-0.108274,-46.219296,-0.199575,-1.882253
4284,0.054569,-7.060428,6.752091,-0.214570,0.069730,-0.097274,-46.225334,-0.200302,-1.886446
4285,0.051815,-7.052270,6.760700,-0.034043,0.093572,-0.080885,-46.229465,-0.200564,-1.890465
4286,0.053953,-7.049562,6.759408,0.043015,0.083757,-0.095931,-46.229298,-0.200647,-1.894639
4287,0.049246,-7.046399,6.758471,0.069844,0.115421,-0.061553,-46.227402,-0.200246,-1.898851
4288,0.050550,-7.020700,6.767838,0.330757,0.111733,-0.101772,-46.220699,-0.199592,-1.903468
4289,0.049604,-7.020146,6.766374,0.337869,0.115133,-0.104152,-46.209538,-0.199453,-1.908573
4290,0.051156,-7.024042,6.770750,0.276402,0.097962,-0.101795,-46.199287,-0.199473,-1.913512
4291,0.049336,-7.018458,6.775163,0.277548,0.086193,-0.082767,-46.190037,-0.199568,-1.917856
4292,0.055167,-7.019889,6.771175,0.150467,0.048934,-0.110590,-46.182892,-0.200335,-1.921712
4293,0.053828,-7.039617,6.766856,-0.024839,0.060831,-0.076127,-46.180782,-0.201313,-1.925187
4294,0.050436,-7.043422,6.764633,-0.077488,0.088480,-0.062618,-46.182484,-0.201259,-1.928584
4295,0.047892,-7.052476,6.758581,-0.113601,0.106758,-0.055449,-46.185650,-0.200426,-1.932294
4296,0.048979,-7.047199,6.761240,-0.015580,0.109977,-0.061983,-46.187790,-0.199337,-1.936256
4297,0.050212,-7.049388,6.761026,-0.045376,0.098240,-0.054201,-46.188797,-0.198332,-1.940101
4298,0.047449,-7.050246,6.762304,-0.051679,0.115549,-0.053034,-46.190399,-0.197155,-1.943909
4299,0.049640,-7.041087,6.767746,0.077734,0.091912,-0.059441,-46.189949,-0.196114,-1.947702
4300,0.049454,-7.043776,6.766665,0.003497,0.081194,-0.056305,-46.188587,-0.195509,-1.951119
4301,0.049120,-7.045760,6.766783,-0.037322,0.077968,-0.060928,-46.189137,-0.195083,-1.954386
4302,0.048505,-7.041603,6.763751,-0.005955,0.081071,-0.083669,-46.189850,-0.194987,-1.957968
4303,0.047405,-7.042483,6.757586,-0.089058,0.091979,-0.058548,-46.191418,-0.194701,-1.961690
4304,0.050754,-7.048833,6.755973,-0.161595,0.078831,-0.078458,-46.195583,-0.194378,-1.965325
4305,0.053819,-7.039327,6.758659,-0.058966,0.073517,-0.095681,-46.199245,-0.194715,-1.969166
4306,0.049221,-7.042688,6.756535,-0.104233,0.121625,-0.061502,-46.201954,-0.194355,-1.973327
4307,0.050072,-7.045452,6.758484,-0.081732,0.117630,-0.067265,-46.205040,-0.193144,-1.977691
4308,0.052311,-7.044813,6.760572,-0.024841,0.102750,-0.093584,-46.206802,-0.192537,-1.982197
4309,0.053240,-7.041775,6.759618,0.019282,0.082592,-0.126306,-46.206879,-0.193045,-1.986963
4310,0.053016,-7.048497,6.748180,-0.097323,0.088603,-0.150201,-46.208160,-0.194397,-1.992212
4311,0.055864,-7.045886,6.747623,-0.138007,0.070992,-0.165526,-46.212067,-0.196355,-1.997774
4312,0.055505,-7.045777,6.747496,-0.167420,0.079717,-0.162772,-46.217136,-0.198567,-2.003373
4313,0.056641,-7.041563,6.747748,-0.102022,0.056683,-0.175526,-46.221607,-0.201065,-2.008916
4314,0.053537,-7.039949,6.753715,-0.076506,0.093622,-0.130312,-46.224564,-0.203012,-2.014251
4315,0.050125,-7.034146,6.760388,0.030216,0.102865,-0.088458,-46.225319,-0.203379,-2.019138
4316,0.049760,-7.029236,6.764348,0.184242,0.097899,-0.095126,-46.221729,-0.203274,-2.023671
4317,0.046680,-7.018443,6.768004,0.307869,0.115037,-0.059282,-46.213509,-0.202676,-2.028014
4318,0.043994,-7.030147,6.766174,0.156073,0.136800,-0.030223,-46.205765,-0.200848,-2.032077
4319,0.041999,-7.036855,6.761332,0.054539,0.139215,-0.017774,-46.202240,-0.198242,-2.035950
4320,0.042195,-7.035789,6.763382,0.035270,0.141433,-0.017310,-46.200729,-0.195427,-2.039732
4321,0.041071,-7.044576,6.758319,-0.101521,0.149757,-0.003803,-46.201824,-0.192322,-2.043478
4322,0.042316,-7.052032,6.754020,-0.215352,0.143380,-0.020985,-46.207092,-0.189239,-2.047291
4323,0.041687,-7.046945,6.750984,-0.180545,0.143877,-0.019050,-46.213676,-0.186407,-2.051208
4324,0.044522,-7.050860,6.749357,-0.191153,0.119038,-0.046195,-46.219860,-0.184160,-2.055125
4325,0.041289,-7.048265,6.746521,-0.150583,0.131705,-0.040459,-46.225529,-0.182312,-2.059140
4326,0.045285,-7.045954,6.749842,-0.096187,0.099408,-0.077169,-46.229637,-0.181063,-2.063279
4327,0.043879,-7.053453,6.746579,-0.193114,0.102001,-0.073999,-46.234447,-0.180560,-2.067446
4328,0.045005,-7.055421,6.745158,-0.213070,0.103710,-0.093932,-46.241199,-0.180210,-2.071858
4329,0.046042,-7.053300,6.746016,-0.123582,0.107702,-0.105647,-46.246799,-0.180176,-2.076703
4330,0.049653,-7.059887,6.743083,-0.155668,0.087113,-0.131587,-46.251434,-0.180787,-2.081783
4331,0.045471,-7.051823,6.742507,-0.034708,0.117665,-0.116919,-46.254589,-0.181419,-2.087112
4333,0.043917,-7.054744,6.745136,0.083400,0.114117,-0.124614,-46.253765,-0.181656,-2.092687
4334,0.040769,-7.043108,6.752767,0.294656,0.118413,-0.109301,-46.247444,-0.181792,-2.098182
4335,0.038746,-7.040435,6.757545,0.263244,0.112642,-0.087204,-46.238129,-0.181494,-2.103229
4336,0.035447,-7.031160,6.761200,0.272725,0.135505,-0.054596,-46.229183,-0.180340,-2.107850
4337,0.032953,-7.035671,6.755501,0.125454,0.143195,-0.021521,-46.222534,-0.178042,-2.112082
4338,0.035349,-7.029208,6.757699,0.117099,0.130791,-0.011964,-46.218475,-0.175286,-2.115765
4339,0.036469,-7.035971,6.753035,-0.051395,0.120937,-0.006633,-46.217373,-0.172607,-2.119009
4340,0.037469,-7.029788,6.752437,-0.000750,0.125715,-0.026793,-46.218239,-0.170165,-2.122362
4341,0.043103,-7.037254,6.751350,-0.041210,0.093356,-0.062059,-46.218922,-0.168707,-2.126023
4342,0.046855,-7.040784,6.752390,0.002914,0.065915,-0.096606,-46.219551,-0.168780,-2.129769
4343,0.044477,-7.041186,6.751384,0.056057,0.084967,-0.093678,-46.218555,-0.169330,-2.133779
4344,0.043409,-7.038146,6.756058,0.211199,0.098216,-0.098625,-46.214085,-0.169531,-2.138201
