seq,ax,ay,az,wroll,wpitch,wyaw,roll,pitch,yaw
1,0.077319,0.271327,-9.842169,6.506202,-0.949554,-0.157600,178.420959,-0.449907,-31.805313
2,0.055448,0.196190,-9.873735,8.863117,-1.480018,-0.409561,178.677048,-0.409188,-31.796892
3,0.054273,0.195102,-9.860095,7.513898,-1.250444,-0.510601,178.949905,-0.363370,-31.782499
4,0.056807,0.188775,-9.856370,6.758624,-1.045985,-0.663425,179.187653,-0.324780,-31.763557
5,0.055094,0.199022,-9.851332,6.104643,-0.910248,-1.432216,179.401855,-0.291745,-31.729031
6,0.040388,0.155486,-9.861506,6.491035,-0.896480,-6.031868,179.611191,-0.260549,-31.604893
8,0.042200,0.124128,-9.856583,5.178919,-0.570825,-6.271964,179.804794,-0.234983,-31.399960
9,0.048801,0.057598,-9.867042,4.160614,-0.263812,-8.584524,179.959457,-0.220540,-31.152374
10,0.121065,-0.244852,-9.885792,5.506580,0.768541,-14.210887,-179.880920,-0.229168,-30.772448
11,0.137016,-0.263977,-9.884134,2.173214,1.208240,-29.047197,-179.756058,-0.264369,-30.051590
12,0.046423,0.044879,-9.881278,-2.680065,0.193391,-36.784210,-179.769821,-0.291955,-28.954556
13,0.042764,0.064841,-9.879823,-2.894399,0.106531,-36.472454,-179.868942,-0.300419,-27.733740
15,0.029109,0.102788,-9.876057,-2.943187,-0.050074,-33.966492,-179.972397,-0.302964,-26.559885
16,-0.049971,0.375389,-9.862667,-5.860834,-0.927278,-28.019455,179.875580,-0.285781,-25.526901
17,-0.066286,0.377861,-9.864294,-4.719189,-1.138292,-12.149041,179.696213,-0.248573,-24.857599
18,0.033836,0.076210,-9.861570,-2.083725,0.124235,0.342224,179.582062,-0.230285,-24.660931
19,0.034335,0.079792,-9.866510,-2.997320,0.274590,0.482261,179.497437,-0.236977,-24.674625
20,0.043187,0.106214,-9.857610,-3.683424,0.422012,0.497661,179.386154,-0.248746,-24.690842
22,0.047982,0.122604,-9.857077,-3.658750,0.494335,0.414349,179.263855,-0.264197,-24.705862
23,0.052447,0.121804,-9.866877,-2.791825,0.474041,0.285012,179.156403,-0.280497,-24.717299
24,0.055167,0.134646,-9.868663,-2.033235,0.393273,0.175739,179.076019,-0.295069,-24.724754
25,0.060943,0.149311,-9.867867,-1.520335,0.373587,0.115584,179.016815,-0.307929,-24.729397
26,0.059363,0.166287,-9.866367,-0.999512,0.230137,0.120398,178.974838,-0.318059,-24.733152
27,0.060799,0.150069,-9.875464,1.828577,-0.106278,1.417790,178.988800,-0.320578,-24.758753
29,0.033018,0.059585,-9.889027,4.479021,-0.722109,11.966430,179.095154,-0.310499,-24.982023
30,0.026245,0.069603,-9.886279,3.714875,-0.758476,16.220554,179.234192,-0.292712,-25.452118
31,0.018074,0.055415,-9.879166,3.733164,-0.824481,16.154083,179.360992,-0.273015,-25.991976
32,0.010263,0.001631,-9.891963,4.055992,-0.799433,15.987843,179.493256,-0.251306,-26.527912
33,0.004317,0.001902,-9.887131,1.497998,-0.487628,14.624356,179.587982,-0.233933,-27.038265
34,0.025581,0.073096,-9.868101,-1.085943,-0.031221,4.043129,179.596115,-0.227586,-27.349440
36,0.024703,0.049166,-9.875416,-1.384014,0.128774,-0.191485,179.555206,-0.229741,-27.413622
37,0.028565,0.056335,-9.875964,-2.461423,0.327368,-0.093579,179.491104,-0.237318,-27.408808
38,0.039420,0.094776,-9.868138,-3.668472,0.524278,0.000473,179.388931,-0.251495,-27.407118
39,0.042896,0.126172,-9.865493,-3.495370,0.463145,0.045468,179.269531,-0.267959,-27.407696
40,0.045354,0.143875,-9.870549,-2.570852,0.344399,0.051596,179.168442,-0.281438,-27.409128
41,0.050542,0.157544,-9.861085,-1.929644,0.314943,0.020340,179.093430,-0.292444,-27.410160
43,0.053190,0.158281,-9.862605,-0.640105,0.182319,-0.038096,179.050598,-0.300726,-27.409733
44,0.046753,0.145308,-9.869201,0.535693,-0.066591,-0.056722,179.048859,-0.302629,-27.408123
45,0.042744,0.139421,-9.868055,0.481856,-0.106572,-0.057286,179.065811,-0.299712,-27.406271
46,0.044598,0.143070,-9.867187,0.096462,-0.031131,-0.046524,179.075439,-0.297389,-27.404579
47,0.042428,0.149392,-9.872663,0.164976,-0.083113,-0.046006,179.079788,-0.295460,-27.403065
48,0.041423,0.153672,-9.873654,-0.006926,-0.076160,-0.043483,179.082413,-0.292782,-27.401617
50,0.041603,0.160524,-9.876318,-0.231260,-0.036516,-0.031665,179.078430,-0.290885,-27.400396
51,0.047341,0.162373,-9.877061,-0.109099,0.025421,-0.034921,179.072754,-0.290682,-27.399284
52,0.043646,0.162062,-9.878212,-0.097757,-0.029252,-0.037215,179.069305,-0.290598,-27.398083
53,0.042836,0.155792,-9.873996,-0.044968,-0.034433,-0.033851,179.066925,-0.289518,-27.396915
54,0.044385,0.156288,-9.873848,0.023967,-0.023003,-0.041084,179.066559,-0.288540,-27.395687
55,0.045519,0.156342,-9.869248,0.041337,-0.005341,-0.037726,179.067642,-0.288047,-27.394381
57,0.044300,0.155867,-9.867341,0.031364,-0.010997,-0.044076,179.068848,-0.287752,-27.393021
58,0.045629,0.156410,-9.860086,-0.002554,0.021712,-0.042278,179.069321,-0.287907,-27.391579
59,0.047785,0.156275,-9.868363,0.041336,0.045945,-0.055505,179.069962,-0.289008,-27.389929
60,0.045559,0.152624,-9.868396,0.062220,0.013934,-0.057339,179.071671,-0.289976,-27.388033
61,0.043849,0.154920,-9.868431,0.030737,-0.017887,-0.061019,179.073212,-0.289878,-27.386061
62,0.043874,0.159475,-9.866272,-0.018348,-0.021729,-0.052205,179.073410,-0.289187,-27.384186
64,0.039436,0.161705,-9.868286,-0.021737,-0.092178,-0.056436,179.072739,-0.287260,-27.382404
65,0.037465,0.168227,-9.862552,-0.113061,-0.112613,-0.048135,179.070480,-0.283819,-27.380718
66,0.039847,0.178972,-9.863737,-0.282979,-0.052729,-0.037497,179.063873,-0.281040,-27.379335
67,0.041637,0.175482,-9.868155,-0.181117,-0.026190,-0.039682,179.056137,-0.279704,-27.378071
68,0.039118,0.177053,-9.869651,-0.200985,-0.061030,-0.041781,179.049759,-0.278228,-27.376738
69,0.045674,0.176788,-9.875316,-0.181283,0.038910,-0.043106,179.043381,-0.277836,-27.375332
71,0.045549,0.170140,-9.876749,-0.105224,0.031873,-0.045630,179.038605,-0.278991,-27.373835
72,0.044469,0.166769,-9.873267,-0.011684,0.004393,-0.034968,179.036636,-0.279573,-27.372478
73,0.047042,0.169971,-9.871902,-0.065789,0.043397,-0.031518,179.035339,-0.280350,-27.371361
74,0.045708,0.163421,-9.872755,0.018932,0.018989,-0.025294,179.034561,-0.281374,-27.370396
75,0.044894,0.166921,-9.869524,-0.013873,0.006357,-0.010515,179.034637,-0.281786,-27.369793
76,0.047258,0.167329,-9.867554,-0.003697,0.041284,-0.011511,179.034348,-0.282574,-27.369410
78,0.046539,0.168008,-9.868291,-0.012634,0.016619,-0.017869,179.034073,-0.283531,-27.368906
79,0.049115,0.167279,-9.863181,0.006526,0.053501,-0.014172,179.033966,-0.284690,-27.368349
80,0.050519,0.170444,-9.863886,-0.023731,0.072461,-0.011053,179.033676,-0.286782,-27.367895
81,0.047107,0.158267,-9.864764,0.149398,0.006956,-0.024824,179.035767,-0.288096,-27.367273
82,0.047614,0.159765,-9.868253,0.123259,0.007733,-0.027939,179.040314,-0.288326,-27.366388
83,0.049500,0.156751,-9.871466,0.151822,0.038868,-0.034954,179.044891,-0.289085,-27.365328
85,0.046687,0.151581,-9.870783,0.221346,-0.015998,-0.033817,179.051102,-0.289447,-27.364178
86,0.050069,0.150244,-9.871321,0.217724,0.036697,-0.039098,179.058411,-0.289772,-27.362955
87,0.055237,0.158717,-9.872210,0.075227,0.112315,-0.032488,179.063293,-0.292235,-27.361721
88,0.052753,0.163683,-9.871060,-0.012323,0.080905,-0.025983,179.064331,-0.295439,-27.360693
89,0.049738,0.165022,-9.871119,-0.037398,0.033733,-0.036099,179.063507,-0.297333,-27.359627
90,0.046443,0.165969,-9.876483,-0.052330,-0.013068,-0.043124,179.061996,-0.297655,-27.358301
92,0.045664,0.167603,-9.873850,-0.054611,-0.018899,-0.044954,179.060211,-0.297099,-27.356842
93,0.043495,0.169532,-9.874978,-0.083948,-0.041419,-0.045571,179.057892,-0.296069,-27.355350
94,0.045757,0.166347,-9.870712,-0.019291,-0.007295,-0.041672,179.056168,-0.295233,-27.353910
95,0.043682,0.170834,-9.872567,-0.091818,-0.033914,-0.030241,179.054306,-0.294527,-27.352722
96,0.045963,0.177177,-9.870612,-0.182753,0.001057,-0.019435,179.049728,-0.293965,-27.351902
97,0.047402,0.178012,-9.871552,-0.178620,0.017158,-0.016021,179.043701,-0.294259,-27.351309
99,0.045836,0.173364,-9.866267,-0.092926,-0.015101,-0.031255,179.039169,-0.294280,-27.350521
100,0.047172,0.172687,-9.866844,-0.059437,0.005713,-0.036932,179.036621,-0.294105,-27.349386
101,0.048458,0.169377,-9.861149,0.024051,0.031319,-0.033282,179.036026,-0.294702,-27.348206
102,0.049957,0.166947,-9.863045,0.055184,0.072814,-0.048012,179.037338,-0.296415,-27.346821
103,0.047318,0.164587,-9.860557,0.097768,0.033440,-0.053145,179.039886,-0.298157,-27.345106
104,0.049452,0.167181,-9.861487,0.029561,0.075261,-0.045296,179.041992,-0.299941,-27.343431
106,0.046616,0.164565,-9.861774,0.076065,0.029595,-0.033680,179.043747,-0.301666,-27.342089
107,0.045156,0.166513,-9.862166,0.006867,0.002519,-0.034275,179.045120,-0.302182,-27.340946
108,0.048193,0.167882,-9.857897,0.005379,0.019678,-0.030632,179.045319,-0.302534,-27.339857
109,0.049474,0.163588,-9.859430,0.055417,0.035762,-0.036114,179.046326,-0.303440,-27.338730
110,0.049785,0.168010,-9.860399,0.008748,0.030311,-0.028799,179.047394,-0.304523,-27.337624
111,0.050650,0.170093,-9.864365,-0.039961,0.035288,-0.028810,179.046860,-0.305600,-27.336647
113,0.053584,0.166884,-9.865148,0.047792,0.055287,-0.037049,179.046997,-0.307091,-27.335526
114,0.048232,0.162772,-9.872587,0.081480,-0.017503,-0.033507,179.049133,-0.307701,-27.334343
115,0.047181,0.174817,-9.878177,-0.103271,-0.040771,-0.022542,179.048767,-0.306715,-27.333426
116,0.043606,0.175201,-9.880050,-0.083043,-0.093314,-0.034066,179.045654,-0.304465,-27.332520
117,0.043349,0.177286,-9.880903,-0.131226,-0.083857,-0.046362,179.042084,-0.301490,-27.331230
118,0.048490,0.179238,-9.881898,-0.147281,0.011731,-0.045092,179.037430,-0.300262,-27.329725
120,0.046369,0.189933,-9.878224,-0.268796,-0.020270,-0.050887,179.030487,-0.300093,-27.328127
121,0.044176,0.178061,-9.872333,-0.090083,-0.046692,-0.061118,179.024506,-0.298945,-27.326279
122,0.044485,0.172370,-9.871471,-0.008055,-0.039302,-0.048285,179.022858,-0.297481,-27.324480
123,0.045079,0.172615,-9.871341,0.009247,-0.039237,-0.048075,179.022873,-0.296145,-27.322897
124,0.042409,0.170963,-9.867409,0.032187,-0.086606,-0.036346,179.023544,-0.294024,-27.321526
125,0.043749,0.167395,-9.865327,0.066483,-0.058687,-0.024984,179.025192,-0.291585,-27.320538
127,0.046141,0.174723,-9.872290,-0.010153,-0.021406,-0.026375,179.026123,-0.290236,-27.319708
128,0.048299,0.177190,-9.874787,-0.069000,0.016137,-0.027501,179.024796,-0.290133,-27.318813
129,0.050633,0.175302,-9.868353,-0.041513,0.058347,-0.035921,179.022949,-0.291356,-27.317736
130,0.053382,0.181659,-9.865666,-0.128344,0.098444,-0.049474,179.020111,-0.293945,-27.316267
131,0.051271,0.180440,-9.867751,-0.115235,0.061180,-0.057617,179.016052,-0.296574,-27.314442
132,0.050724,0.174163,-9.865215,-0.051265,0.043807,-0.058875,179.013260,-0.298290,-27.312471
134,0.052672,0.176556,-9.861209,-0.075511,0.069628,-0.064713,179.011139,-0.300145,-27.310379
135,0.053379,0.179349,-9.863131,-0.099584,0.062902,-0.052595,179.008209,-0.302320,-27.308386
136,0.049678,0.175860,-9.869216,-0.090405,0.003290,-0.062473,179.005035,-0.303390,-27.306450
137,0.055960,0.170869,-9.867644,0.007863,0.081209,-0.065092,179.003647,-0.304761,-27.304293
138,0.054534,0.175404,-9.864547,-0.026288,0.054291,-0.056685,179.003326,-0.306984,-27.302229
139,0.053124,0.177096,-9.868312,-0.049081,0.027976,-0.052690,179.002060,-0.308323,-27.300383
140,0.051439,0.172731,-9.871948,0.015285,0.016687,-0.057395,179.001480,-0.309035,-27.298534
141,0.052645,0.169167,-9.868906,0.111912,0.034158,-0.049205,179.003601,-0.309851,-27.296743
142,0.047852,0.168498,-9.868389,0.096384,-0.026714,-0.042796,179.007065,-0.309949,-27.295212
143,0.048893,0.166396,-9.872101,0.117617,-0.006025,-0.039363,179.010620,-0.309380,-27.293850
144,0.049894,0.159229,-9.867849,0.222379,0.004119,-0.041623,179.016281,-0.309325,-27.292501
145,0.049557,0.162970,-9.864730,0.133375,-0.011094,-0.049700,179.022202,-0.309182,-27.290979
146,0.047220,0.159136,-9.873682,0.176338,-0.052922,-0.048520,179.027359,-0.308088,-27.289360
147,0.048081,0.171336,-9.878997,-0.018240,-0.035030,-0.052328,179.029984,-0.306594,-27.287704
148,0.049826,0.172783,-9.876678,-0.063159,-0.001262,-0.058083,179.028610,-0.305957,-27.285875
149,0.046535,0.173381,-9.881922,-0.050307,-0.047752,-0.058893,179.026718,-0.305108,-27.283939
150,0.048326,0.166424,-9.882958,0.043298,-0.007553,-0.047174,179.026581,-0.304156,-27.282187
151,0.049163,0.177425,-9.876821,-0.111278,0.024174,-0.049299,179.025436,-0.304406,-27.280575
153,0.049008,0.174783,-9.871635,-0.051631,0.010988,-0.044555,179.022720,-0.304965,-27.279001
154,0.048670,0.171298,-9.869706,0.018966,0.003291,-0.056568,179.022171,-0.305174,-27.277309
155,0.051562,0.174873,-9.865805,-0.063047,0.052647,-0.062235,179.021423,-0.306073,-27.275318
156,0.045537,0.179976,-9.868697,-0.102457,-0.044876,-0.054998,179.018646,-0.306169,-27.273363
157,0.043758,0.175426,-9.865465,-0.041049,-0.081419,-0.041328,179.016251,-0.304036,-27.271793
158,0.042056,0.171416,-9.868259,0.002488,-0.099461,-0.038269,179.015610,-0.300999,-27.270519
159,0.036812,0.173035,-9.872094,-0.013833,-0.174298,-0.025827,179.015411,-0.296419,-27.269527
160,0.034284,0.167847,-9.874660,0.096104,-0.205784,-0.016709,179.016769,-0.290073,-27.268929
161,0.039285,0.167034,-9.871433,0.071642,-0.108085,-0.027356,179.019577,-0.284830,-27.268284
162,0.041122,0.173581,-9.872258,-0.016368,-0.057716,-0.039386,179.020493,-0.282048,-27.267218
163,0.043513,0.173167,-9.871370,0.006950,-0.011460,-0.044755,179.020325,-0.280871,-27.265835
164,0.052126,0.180102,-9.868578,-0.118406,0.127314,-0.052214,179.018463,-0.282774,-27.264189
165,0.053353,0.184332,-9.866275,-0.166610,0.134446,-0.055325,179.013702,-0.287106,-27.262323
166,0.051290,0.185693,-9.865833,-0.162406,0.079984,-0.051500,179.008209,-0.290648,-27.260479
167,0.050340,0.178097,-9.867400,-0.060933,0.051123,-0.054327,179.004471,-0.292802,-27.258678
168,0.050372,0.176926,-9.868482,-0.025186,0.049173,-0.039022,179.003021,-0.294447,-27.257095
169,0.046164,0.169743,-9.868904,0.082749,-0.014504,-0.024345,179.003983,-0.295006,-27.256023
170,0.045119,0.168550,-9.870126,0.065938,-0.018947,-0.023028,179.006454,-0.294435,-27.255245
171,0.040810,0.170084,-9.872135,0.044107,-0.078643,-0.024231,179.008286,-0.292795,-27.254486
172,0.040707,0.167646,-9.870927,0.074601,-0.080563,-0.004187,179.010269,-0.290134,-27.254059
173,0.037813,0.162686,-9.873258,0.133028,-0.123675,-0.015137,179.013718,-0.286725,-27.253796
174,0.036688,0.166618,-9.873890,0.062939,-0.146785,-0.018648,179.016983,-0.282208,-27.253309
175,0.036988,0.166015,-9.877619,0.085804,-0.137474,-0.022947,179.019455,-0.277459,-27.252699
176,0.043559,0.166150,-9.876175,0.062051,-0.027215,-0.021150,179.021927,-0.274702,-27.252010
177,0.044880,0.170103,-9.880257,0.014865,-0.001445,-0.034742,179.023193,-0.274209,-27.251089
178,0.046822,0.172268,-9.875647,-0.005619,0.034352,-0.043562,179.023346,-0.274735,-27.249773
179,0.047266,0.169868,-9.870692,0.007732,0.061182,-0.040258,179.023376,-0.276303,-27.248352
180,0.047315,0.174065,-9.869857,-0.019874,0.061082,-0.042133,179.023163,-0.278317,-27.246941
181,0.044189,0.167709,-9.871346,0.062543,0.012120,-0.050174,179.023865,-0.279511,-27.245384
182,0.044409,0.168879,-9.871103,0.023914,0.016915,-0.044158,179.025299,-0.279968,-27.243801
183,0.048360,0.170689,-9.872602,0.005130,0.076029,-0.041821,179.025787,-0.281492,-27.242342
184,0.048604,0.173003,-9.875254,-0.042692,0.061835,-0.037419,179.025146,-0.283767,-27.240984
185,0.045828,0.168685,-9.869511,0.017021,0.005597,-0.025679,179.024719,-0.284873,-27.239914
186,0.044163,0.174486,-9.867745,-0.058892,-0.013586,-0.021974,179.024017,-0.284726,-27.239122
187,0.046292,0.172460,-9.863726,-0.024190,0.019467,-0.019762,179.022629,-0.284813,-27.238426
188,0.045641,0.173283,-9.860847,-0.027306,0.003884,-0.027600,179.021759,-0.285188,-27.237629
189,0.046306,0.176790,-9.860481,-0.086867,0.021777,-0.027696,179.019852,-0.285600,-27.236700
190,0.049516,0.179406,-9.861273,-0.103111,0.079509,-0.034713,179.016678,-0.287270,-27.235634
191,0.048912,0.188010,-9.861061,-0.246141,0.060476,-0.034000,179.010864,-0.289583,-27.234447
192,0.047323,0.183312,-9.862646,-0.175168,0.026928,-0.035618,179.003830,-0.291019,-27.233261
193,0.039305,0.184888,-9.865206,-0.159973,-0.100863,-0.031636,178.998245,-0.289768,-27.232162
194,0.040868,0.177227,-9.866365,-0.040618,-0.079718,-0.041245,178.994888,-0.286737,-27.231001
195,0.040354,0.174978,-9.870226,-0.023034,-0.087480,-0.044093,178.993820,-0.283926,-27.229630
196,0.040060,0.168699,-9.868530,0.119140,-0.089215,-0.045108,178.995422,-0.280956,-27.228188
197,0.036774,0.175365,-9.871737,0.003999,-0.120506,-0.038676,178.997467,-0.277436,-27.226854
198,0.042394,0.174668,-9.870068,-0.009749,-0.020946,-0.035539,178.997360,-0.275058,-27.225662
199,0.041240,0.178268,-9.868289,-0.034729,-0.036222,-0.039028,178.996613,-0.274083,-27.224428
200,0.043991,0.176474,-9.866066,-0.033357,0.016947,-0.032050,178.995468,-0.273741,-27.223253
201,0.043479,0.172953,-9.868719,0.038054,0.013246,-0.033433,178.995544,-0.274225,-27.222155
202,0.047480,0.175261,-9.865759,-0.014694,0.071819,-0.041754,178.995926,-0.275621,-27.220877
203,0.049920,0.173783,-9.867278,0.026022,0.089902,-0.051778,178.996109,-0.278288,-27.219271
204,0.050534,0.174365,-9.868956,0.023655,0.087448,-0.045679,178.996933,-0.281215,-27.217596
205,0.051248,0.173572,-9.867736,0.026694,0.087536,-0.053210,178.997757,-0.284102,-27.215897
206,0.053716,0.176302,-9.866974,-0.004517,0.120778,-0.043762,178.998123,-0.287546,-27.214220
207,0.053407,0.178411,-9.864212,-0.035235,0.118594,-0.025842,178.997452,-0.291514,-27.212990
208,0.050426,0.178001,-9.864868,-0.032028,0.069934,-0.017583,178.996323,-0.294643,-27.212214
209,0.046071,0.180828,-9.864953,-0.065663,0.003467,-0.019029,178.994690,-0.295856,-27.211584
210,0.047564,0.185627,-9.865057,-0.131232,0.025144,-0.015993,178.991409,-0.296322,-27.210985
211,0.051752,0.179986,-9.867379,-0.045125,0.081534,-0.023638,178.988464,-0.298088,-27.210291
212,0.050220,0.171909,-9.869678,0.107485,0.034880,-0.049402,178.989502,-0.300007,-27.209042
213,0.049744,0.170165,-9.868237,0.119170,0.029385,-0.052540,178.993271,-0.301048,-27.207327
214,0.055706,0.164454,-9.868719,0.189696,0.111732,-0.049151,178.998413,-0.303369,-27.205591
215,0.050854,0.156990,-9.874214,0.303230,0.019860,-0.045401,179.006622,-0.305535,-27.203976
216,0.045517,0.158886,-9.871664,0.230235,-0.070416,-0.039451,179.015503,-0.304668,-27.202570
217,0.044745,0.161787,-9.870841,0.156613,-0.064146,-0.020098,179.021942,-0.302409,-27.201618
218,0.045040,0.170207,-9.866154,-0.004171,-0.050869,-0.023704,179.024475,-0.300480,-27.200922
219,0.043708,0.170420,-9.865455,-0.013784,-0.063822,-0.027047,179.024170,-0.298554,-27.200111
220,0.041727,0.177062,-9.859118,-0.106516,-0.082811,-0.024903,179.022171,-0.296096,-27.199286
221,0.043161,0.176398,-9.858127,-0.118064,-0.052741,-0.038100,179.018417,-0.293819,-27.198278
222,0.043192,0.174534,-9.858483,-0.055600,-0.066475,-0.045441,179.015518,-0.291808,-27.196920
223,0.044087,0.167875,-9.864238,0.084890,-0.048838,-0.024766,179.016006,-0.289867,-27.195782
224,0.042105,0.171568,-9.863439,-0.006749,-0.068142,-0.030033,179.017303,-0.287902,-27.194904
225,0.044586,0.166487,-9.864225,0.042599,-0.021173,-0.032025,179.017883,-0.286396,-27.193897
226,0.045990,0.168727,-9.864084,0.086392,0.001449,-0.014995,179.020035,-0.286053,-27.193119
227,0.045459,0.172095,-9.863740,-0.021363,0.003768,-0.030642,179.021118,-0.286127,-27.192356
228,0.045900,0.182931,-9.863395,-0.222676,0.006951,-0.043541,179.017044,-0.286285,-27.191116
229,0.045095,0.184516,-9.867390,-0.155099,-0.005402,-0.052972,179.010742,-0.286283,-27.189508
230,0.046372,0.189184,-9.869184,-0.240179,0.016056,-0.051392,179.004135,-0.286430,-27.187767
231,0.045820,0.189958,-9.873294,-0.255168,0.002816,-0.059145,178.995880,-0.286713,-27.185919
232,0.048835,0.186478,-9.879619,-0.130456,0.036221,-0.045837,178.989441,-0.287333,-27.184158
233,0.055063,0.178679,-9.879971,-0.011941,0.127963,-0.045153,178.987061,-0.290042,-27.182596
234,0.054044,0.171349,-9.876840,0.088776,0.102104,-0.035809,178.988327,-0.293852,-27.181177
235,0.055432,0.168104,-9.878494,0.145263,0.109525,-0.027765,178.992233,-0.297360,-27.180058
236,0.058769,0.167483,-9.876504,0.139473,0.152364,-0.028597,178.996964,-0.301707,-27.179039
237,0.055722,0.165718,-9.871132,0.127504,0.109979,-0.029489,179.001419,-0.306062,-27.177996
238,0.048786,0.156966,-9.872083,0.255804,-0.004642,-0.030810,179.007797,-0.307800,-27.176962
239,0.043670,0.165232,-9.874604,0.111422,-0.084892,-0.022206,179.013916,-0.306293,-27.176105
240,0.045055,0.176556,-9.873640,-0.069855,-0.074723,-0.039528,179.014603,-0.303615,-27.175121
241,0.039716,0.176196,-9.877231,-0.060858,-0.136532,-0.042246,179.012405,-0.300071,-27.173819
242,0.040582,0.176198,-9.879144,-0.057993,-0.109153,-0.044901,179.010422,-0.295952,-27.172438
243,0.041407,0.183101,-9.876492,-0.138546,-0.094385,-0.045009,179.007141,-0.292535,-27.170998
244,0.049508,0.183625,-9.873454,-0.123519,0.034869,-0.041294,179.002762,-0.291518,-27.169575
245,0.043479,0.168731,-9.873048,0.104835,-0.030174,-0.038563,179.002441,-0.291573,-27.168243
246,0.046054,0.169736,-9.869629,0.085629,-0.004952,-0.030356,179.005615,-0.290968,-27.167107
247,0.045394,0.175879,-9.871462,0.016522,-0.016196,-0.027934,179.007309,-0.290598,-27.166142
248,0.044829,0.181343,-9.870882,-0.106823,-0.011231,-0.031533,179.005798,-0.290124,-27.165157
249,0.041600,0.172434,-9.871041,0.035373,-0.070646,-0.046913,179.004608,-0.288737,-27.163874
250,0.045187,0.175049,-9.873031,-0.005164,-0.010711,-0.038497,179.005096,-0.287356,-27.162474
251,0.040829,0.175682,-9.870581,-0.023855,-0.061176,-0.039586,179.004608,-0.286136,-27.161194
252,0.041965,0.169434,-9.868377,0.065932,-0.044578,-0.037262,179.005310,-0.284351,-27.159945
253,0.046041,0.170551,-9.869511,0.040644,0.014363,-0.028618,179.007080,-0.283829,-27.158854
254,0.047998,0.169759,-9.871522,0.054315,0.056124,-0.017385,179.008652,-0.284990,-27.158066
256,0.046691,0.172101,-9.866128,0.042498,0.019371,-0.007270,179.010269,-0.286241,-27.157635
257,0.053110,0.169877,-9.868537,0.074401,0.115324,-0.011677,179.012222,-0.288480,-27.157282
258,0.050647,0.164487,-9.867003,0.127543,0.064952,-0.021177,179.015579,-0.291475,-27.156683
259,0.045221,0.164054,-9.864329,0.161408,-0.027207,-0.021140,179.020386,-0.292092,-27.155970
260,0.047054,0.169332,-9.863585,0.026801,0.000956,-0.027261,179.023529,-0.291641,-27.155169
261,0.047832,0.169317,-9.867788,0.009550,0.019182,-0.046922,179.024124,-0.291955,-27.153927
262,0.048483,0.167223,-9.869339,0.028138,0.027728,-0.055782,179.024750,-0.292708,-27.152193
263,0.052833,0.173704,-9.869756,-0.064289,0.087403,-0.055228,179.024124,-0.294595,-27.150316
264,0.053758,0.171135,-9.873349,-0.013910,0.100405,-0.065564,179.022812,-0.297690,-27.148249
265,0.048945,0.172441,-9.873319,-0.029580,0.027446,-0.066969,179.022079,-0.299783,-27.146006
266,0.048623,0.169989,-9.873560,0.004825,0.008366,-0.059316,179.021652,-0.300344,-27.143892
267,0.048999,0.174209,-9.870429,-0.046969,-0.005674,-0.056511,179.020950,-0.300356,-27.141960
268,0.047281,0.175583,-9.869018,-0.089911,-0.029010,-0.063137,179.018646,-0.299744,-27.139977
269,0.045176,0.172975,-9.870134,-0.035388,-0.055056,-0.060356,179.016556,-0.298308,-27.137941
270,0.048948,0.175158,-9.867781,-0.062426,-0.004211,-0.051865,179.014908,-0.297288,-27.136087
271,0.050873,0.177502,-9.870644,-0.102288,0.044365,-0.046919,179.012161,-0.297929,-27.134432
272,0.047645,0.176975,-9.870701,-0.046558,0.006608,-0.036998,179.009674,-0.298754,-27.133018
273,0.049696,0.177585,-9.872231,-0.057956,0.046388,-0.021278,179.007919,-0.299620,-27.132030
274,0.054026,0.176619,-9.872272,-0.060942,0.113128,-0.014030,179.005936,-0.302268,-27.131397
275,0.050801,0.172215,-9.877261,0.051879,0.053256,-0.026803,179.005783,-0.305029,-27.130669
276,0.045538,0.174136,-9.871456,0.006145,-0.026511,-0.037551,179.006744,-0.305456,-27.129591
277,0.043936,0.177364,-9.871613,-0.070517,-0.046263,-0.039759,179.005661,-0.304221,-27.128323
278,0.043153,0.177728,-9.867410,-0.045216,-0.064967,-0.049074,179.003723,-0.302342,-27.126875
279,0.044273,0.177905,-9.861966,-0.077951,-0.054359,-0.063960,179.001663,-0.300321,-27.125025
280,0.047897,0.174376,-9.860447,-0.025006,0.012562,-0.062661,178.999939,-0.299587,-27.122929
281,0.048560,0.177306,-9.859357,-0.066583,0.017991,-0.051980,178.998398,-0.300063,-27.121010
282,0.053809,0.168921,-9.857676,0.040306,0.085537,-0.053064,178.997955,-0.301758,-27.119226
283,0.050726,0.162891,-9.862539,0.201917,0.046837,-0.051927,179.001984,-0.303933,-27.117439
284,0.052761,0.166051,-9.865522,0.073468,0.087499,-0.035012,179.006561,-0.306146,-27.115953
285,0.052167,0.165229,-9.865049,0.147085,0.065752,-0.023045,179.010239,-0.308683,-27.114941
286,0.051881,0.163337,-9.868424,0.179928,0.051949,-0.035331,179.015686,-0.310628,-27.113934
287,0.049852,0.163872,-9.869548,0.076437,0.031294,-0.023824,179.019943,-0.311998,-27.112923
288,0.049706,0.158505,-9.870864,0.230939,0.001232,-0.022021,179.025070,-0.312527,-27.112150
289,0.048875,0.151144,-9.872550,0.294813,-0.012275,-0.018677,179.033829,-0.312332,-27.111475
290,0.050593,0.154916,-9.870599,0.197950,0.007169,-0.017130,179.042038,-0.312237,-27.110880
291,0.050175,0.149445,-9.869510,0.299312,-0.015368,-0.004693,179.050323,-0.312094,-27.110519
292,0.050481,0.153754,-9.869995,0.237574,-0.021294,-0.009638,179.059265,-0.311479,-27.110292
293,0.051779,0.166446,-9.872772,-0.024708,0.004965,-0.008893,179.062820,-0.311202,-27.109985
294,0.049283,0.174192,-9.873558,-0.078593,-0.033658,-0.013182,179.061096,-0.310718,-27.109627
295,0.051688,0.175273,-9.875203,-0.152126,0.009930,-0.011127,179.057236,-0.310316,-27.109230
296,0.055092,0.180112,-9.874911,-0.205150,0.067946,-0.030465,179.051285,-0.311602,-27.108513
297,0.054658,0.178810,-9.876844,-0.169374,0.061335,-0.041123,179.045029,-0.313737,-27.107285
298,0.057962,0.176934,-9.871237,-0.172290,0.115063,-0.043238,179.039337,-0.316653,-27.105825
299,0.056801,0.172964,-9.869924,-0.038238,0.091047,-0.047827,179.035812,-0.320062,-27.104252
300,0.051608,0.174966,-9.869179,-0.110576,0.011817,-0.058511,179.033325,-0.321746,-27.102451
301,0.049615,0.166524,-9.872450,0.055549,-0.026137,-0.047672,179.032394,-0.321478,-27.100685
302,0.051932,0.169960,-9.870126,0.004393,0.009836,-0.042783,179.033386,-0.321181,-27.099184
303,0.049849,0.173641,-9.870653,-0.081879,-0.027318,-0.040541,179.032089,-0.320866,-27.097799
304,0.047947,0.175562,-9.873705,-0.069105,-0.068084,-0.051814,179.029572,-0.319250,-27.096287
305,0.051300,0.175049,-9.872920,-0.075409,-0.016896,-0.047795,179.027145,-0.317806,-27.094652
306,0.050945,0.179377,-9.869080,-0.145373,-0.021206,-0.057292,179.023453,-0.317141,-27.092913
307,0.046397,0.178825,-9.869040,-0.111388,-0.082490,-0.056768,179.019165,-0.315381,-27.091042
308,0.045141,0.178600,-9.864724,-0.104657,-0.091467,-0.069142,179.015549,-0.312446,-27.088993
309,0.046042,0.182229,-9.864234,-0.153034,-0.069509,-0.058349,179.011246,-0.309727,-27.086914
310,0.047600,0.175379,-9.865878,-0.030219,-0.041753,-0.061823,179.008179,-0.307838,-27.084944
311,0.047954,0.175504,-9.865630,-0.022919,-0.025784,-0.046364,179.007294,-0.306681,-27.083162
312,0.046797,0.172688,-9.865766,0.015641,-0.041232,-0.044849,179.007156,-0.305538,-27.081661
313,0.046038,0.163673,-9.870942,0.155691,-0.045178,-0.027504,179.010010,-0.304077,-27.080481
314,0.047545,0.158929,-9.871024,0.194537,-0.022732,-0.016052,179.015839,-0.302933,-27.079773
315,0.045734,0.169132,-9.871803,0.064192,-0.043153,-0.012732,179.020157,-0.301827,-27.079311
316,0.045730,0.172716,-9.875185,-0.017552,-0.048314,-0.025217,179.020920,-0.300292,-27.078707
317,0.047261,0.176110,-9.876611,-0.056135,-0.013230,-0.021986,179.019699,-0.299253,-27.077936
318,0.051546,0.177709,-9.876055,-0.070293,0.043899,-0.028613,179.017578,-0.299750,-27.077084
319,0.051316,0.168223,-9.867240,0.056602,0.046090,-0.034048,179.017349,-0.301231,-27.076017
320,0.049892,0.167842,-9.867868,0.072028,0.014044,-0.039012,179.019485,-0.302213,-27.074785
321,0.052625,0.166981,-9.865286,0.051081,0.060604,-0.029180,179.021530,-0.303437,-27.073627
322,0.054684,0.166663,-9.866453,0.079865,0.078184,-0.030250,179.023712,-0.305733,-27.072594
323,0.049453,0.169145,-9.863541,0.022418,0.002842,-0.036441,179.025406,-0.307064,-27.071461
324,0.050531,0.173096,-9.867386,-0.026006,0.020976,-0.038087,179.025345,-0.307440,-27.070211
325,0.050301,0.163550,-9.867007,0.115650,0.025878,-0.025209,179.026825,-0.308203,-27.069143
326,0.047254,0.163171,-9.863085,0.108868,-0.018458,-0.033610,179.030563,-0.308310,-27.068165
327,0.047167,0.160841,-9.863081,0.142519,-0.029155,-0.033499,179.034744,-0.307498,-27.067060
328,0.051646,0.166396,-9.863254,0.025517,0.036358,-0.023698,179.037552,-0.307602,-27.066107
329,0.049706,0.170531,-9.865829,-0.033232,0.000112,-0.027586,179.037415,-0.308195,-27.065241
330,0.048819,0.175799,-9.859228,-0.118710,-0.019881,-0.038920,179.034882,-0.307847,-27.064138
331,0.052087,0.176538,-9.862184,-0.113194,0.031272,-0.032029,179.031006,-0.308017,-27.062954
332,0.052556,0.177592,-9.862538,-0.101961,0.037627,-0.045685,179.027405,-0.309143,-27.061634
333,0.050855,0.172888,-9.864728,-0.019564,0.019103,-0.036583,179.025375,-0.310065,-27.060249
334,0.050121,0.175309,-9.866073,-0.041660,0.010617,-0.030865,179.024353,-0.310541,-27.059116
335,0.047949,0.172441,-9.870686,0.020473,-0.007172,-0.020502,179.023987,-0.310584,-27.058260
336,0.049787,0.172340,-9.873424,0.009785,0.020701,-0.027667,179.024490,-0.310796,-27.057453
337,0.046498,0.165888,-9.871781,0.075765,-0.025902,-0.023410,179.025909,-0.310695,-27.056602
338,0.045556,0.164821,-9.871917,0.089254,-0.051544,-0.028149,179.028656,-0.309390,-27.055765
339,0.051310,0.161231,-9.868310,0.104627,0.033919,-0.035585,179.031891,-0.309078,-27.054708
340,0.055185,0.160476,-9.870287,0.103418,0.080086,-0.046813,179.035339,-0.310955,-27.053305
341,0.051444,0.161227,-9.869271,0.077541,0.013569,-0.046385,179.038345,-0.312489,-27.051723
342,0.052477,0.163465,-9.868294,0.038848,0.023268,-0.035730,179.040283,-0.313080,-27.050346
343,0.052866,0.160338,-9.867195,0.098978,0.029045,-0.041542,179.042572,-0.313930,-27.049044
344,0.046781,0.159977,-9.868872,0.074481,-0.058460,-0.030846,179.045456,-0.313420,-27.047848
345,0.047503,0.168255,-9.868876,-0.031477,-0.054349,-0.031342,179.046173,-0.311523,-27.046843
346,0.047673,0.160661,-9.873316,0.091714,-0.045938,-0.027578,179.047165,-0.309835,-27.045887
347,0.046931,0.162392,-9.873454,0.061098,-0.057081,-0.032414,179.049713,-0.308102,-27.044916
348,0.047632,0.165303,-9.875134,0.032771,-0.039657,-0.029380,179.051270,-0.306473,-27.043913
349,0.046572,0.159434,-9.879118,0.111861,-0.039033,-0.041337,179.053680,-0.305142,-27.042757
350,0.045094,0.151161,-9.876475,0.220622,-0.050865,-0.034923,179.059204,-0.303623,-27.041506
351,0.044100,0.156537,-9.870841,0.119929,-0.056550,-0.031002,179.064880,-0.301815,-27.040436
352,0.044497,0.153983,-9.870949,0.133688,-0.044767,-0.023074,179.069107,-0.300112,-27.039564
353,0.044226,0.150812,-9.874080,0.154586,-0.043133,-0.028981,179.073898,-0.298633,-27.038721
354,0.048268,0.156860,-9.869199,0.076650,0.014943,-0.010178,179.077759,-0.298153,-27.038074
355,0.047889,0.159405,-9.870417,0.021228,0.007501,-0.007434,179.079376,-0.298522,-27.037775
356,0.048852,0.161964,-9.873297,-0.008609,0.014233,-0.010490,179.079590,-0.298879,-27.037470
357,0.048212,0.175554,-9.875508,-0.193470,0.006948,-0.019314,179.076218,-0.299224,-27.036966
359,0.046971,0.186130,-9.874590,-0.340208,-0.007275,-0.024958,179.067322,-0.299207,-27.036230
360,0.047025,0.194138,-9.877981,-0.407229,-0.014322,-0.046808,179.054855,-0.298827,-27.035038
361,0.044368,0.195485,-9.877912,-0.413991,-0.045793,-0.048904,179.041168,-0.297799,-27.033464
362,0.043454,0.197470,-9.874558,-0.423294,-0.051697,-0.053651,179.027206,-0.296146,-27.031784
363,0.042016,0.186403,-9.872029,-0.219501,-0.063705,-0.054466,179.016479,-0.294192,-27.030016
364,0.042619,0.174796,-9.869101,-0.034274,-0.063646,-0.041039,179.012238,-0.292042,-27.028460
365,0.043027,0.170272,-9.867998,0.009634,-0.053826,-0.037410,179.011826,-0.290062,-27.027185
366,0.048346,0.165843,-9.866687,0.088364,0.020763,-0.040241,179.013443,-0.289489,-27.025902
367,0.051631,0.165186,-9.869517,0.091477,0.074233,-0.034790,179.016434,-0.291051,-27.024626
368,0.053932,0.165911,-9.871888,0.071015,0.109637,-0.040479,179.019135,-0.294093,-27.023317
369,0.052132,0.170385,-9.876269,0.009618,0.075592,-0.050579,179.020477,-0.297154,-27.021746
370,0.050696,0.167699,-9.873758,0.056813,0.041205,-0.046306,179.021576,-0.299073,-27.020098
371,0.044118,0.166643,-9.873755,0.060227,-0.054418,-0.047951,179.023514,-0.298826,-27.018532
372,0.041809,0.170198,-9.875131,0.023995,-0.090439,-0.047275,179.024918,-0.296385,-27.016985
373,0.042280,0.172522,-9.876815,-0.018875,-0.085259,-0.039613,179.024994,-0.293432,-27.015587
374,0.046853,0.174625,-9.871675,-0.053940,-0.006661,-0.029359,179.023773,-0.291881,-27.014463
375,0.048943,0.177819,-9.870077,-0.083922,0.030695,-0.021366,179.021469,-0.292267,-27.013611
376,0.054842,0.176877,-9.870932,-0.064296,0.116771,-0.022875,179.018997,-0.294712,-27.012833
377,0.053374,0.169292,-9.869737,0.050090,0.080310,-0.021223,179.018753,-0.297983,-27.012041
378,0.053151,0.169918,-9.862993,0.038397,0.061798,-0.012306,179.020233,-0.300342,-27.011444
379,0.050503,0.173802,-9.866183,-0.014757,0.027904,-0.017958,179.020615,-0.301828,-27.010908
380,0.047154,0.168821,-9.870210,0.066706,-0.018599,-0.029160,179.021484,-0.301970,-27.010124
381,0.043856,0.175955,-9.873057,-0.050423,-0.065468,-0.015279,179.021744,-0.300556,-27.009407
382,0.041470,0.175096,-9.872978,-0.027986,-0.088923,-0.021849,179.020432,-0.297973,-27.008831
383,0.041825,0.168341,-9.874403,0.079709,-0.068270,-0.027226,179.021301,-0.295339,-27.008059
384,0.042083,0.164407,-9.871738,0.133975,-0.062377,-0.014559,179.024857,-0.293150,-27.007402
385,0.038930,0.168643,-9.873371,0.045731,-0.114961,-0.017124,179.027847,-0.290186,-27.006924
386,0.042760,0.162939,-9.867264,0.139355,-0.051639,-0.026349,179.030930,-0.287398,-27.006248
387,0.044451,0.167417,-9.864110,0.068944,-0.009251,-0.023127,179.034393,-0.286369,-27.005440
388,0.044638,0.171145,-9.864115,-0.004528,-0.007026,-0.026399,179.035461,-0.286084,-27.004614
389,0.040235,0.173242,-9.868538,-0.033475,-0.072031,-0.029152,179.034821,-0.284751,-27.003714
390,0.048449,0.174697,-9.865861,-0.041487,0.058299,-0.027184,179.033569,-0.284506,-27.002781
391,0.043595,0.183996,-9.871031,-0.185675,0.000330,-0.030542,179.029785,-0.285467,-27.001801
392,0.041111,0.186013,-9.875419,-0.205817,-0.044487,-0.028248,179.023254,-0.284714,-27.000834
393,0.042774,0.184026,-9.880928,-0.150074,-0.026484,-0.029115,179.017319,-0.283515,-26.999897
394,0.047397,0.183330,-9.876504,-0.137047,0.046858,-0.038478,179.012527,-0.283836,-26.998764
395,0.044109,0.179767,-9.877761,-0.079209,-0.006278,-0.023742,179.008911,-0.284494,-26.997721
396,0.048274,0.173328,-9.877671,0.024648,0.034142,-0.023749,179.007996,-0.284945,-26.996920
397,0.053916,0.176843,-9.873238,-0.028236,0.102953,-0.027173,179.007935,-0.287214,-26.996027
398,0.050150,0.185872,-9.870193,-0.158345,0.041364,-0.034979,179.004822,-0.289601,-26.994951
399,0.052113,0.189414,-9.868478,-0.211605,0.060957,-0.034818,178.998657,-0.291286,-26.993757
400,0.052950,0.188391,-9.867255,-0.177126,0.067463,-0.052840,178.992172,-0.293401,-26.992260
401,0.053119,0.191319,-9.865211,-0.199428,0.063268,-0.063711,178.985886,-0.295545,-26.990280
402,0.051406,0.189048,-9.868972,-0.168049,0.037340,-0.070103,178.979736,-0.297182,-26.988022
403,0.054563,0.179665,-9.870943,-0.017597,0.077371,-0.068580,178.976639,-0.299052,-26.985678
404,0.053302,0.171693,-9.875527,0.114600,0.066258,-0.069871,178.978241,-0.301404,-26.983320
405,0.048762,0.170329,-9.875245,0.119624,0.002198,-0.064962,178.982132,-0.302505,-26.981058
406,0.048215,0.165785,-9.874402,0.163387,0.000724,-0.054169,178.986832,-0.302519,-26.979071
407,0.050496,0.159701,-9.868563,0.253762,0.037249,-0.040968,178.993790,-0.303124,-26.977476
408,0.047356,0.166302,-9.865019,0.136722,0.001099,-0.031708,179.000290,-0.303741,-26.976255
409,0.044443,0.174069,-9.861714,0.005361,-0.053203,-0.030096,179.002640,-0.302855,-26.975239
410,0.044783,0.175588,-9.861832,-0.014948,-0.062858,-0.025537,179.002487,-0.300905,-26.974344
411,0.039722,0.175968,-9.860358,-0.012815,-0.134452,-0.014550,179.002014,-0.297605,-26.973732
412,0.037602,0.177527,-9.864617,-0.054548,-0.151148,-0.015050,179.000885,-0.292837,-26.973324
413,0.038729,0.176021,-9.866522,-0.021763,-0.121479,-0.012903,178.999619,-0.288286,-26.972937
414,0.038402,0.167502,-9.868799,0.113251,-0.115001,-0.018251,179.001144,-0.284336,-26.972481
415,0.041096,0.171051,-9.867914,0.042472,-0.040063,-0.010044,179.003738,-0.281744,-26.972059
416,0.047126,0.173920,-9.873355,0.017109,0.041326,-0.026952,179.004730,-0.281754,-26.971441
417,0.048029,0.178010,-9.873468,-0.047712,0.042179,-0.036184,179.004211,-0.283128,-26.970367
418,0.048189,0.176375,-9.874666,-0.031568,0.050136,-0.042186,179.002884,-0.284643,-26.969034
419,0.048490,0.181495,-9.875636,-0.090040,0.046064,-0.034900,179.000854,-0.286224,-26.967720
420,0.051545,0.176438,-9.874726,-0.022564,0.081902,-0.039913,178.998962,-0.288335,-26.966436
421,0.043620,0.178260,-9.875597,-0.044058,-0.036828,-0.036020,178.997849,-0.289064,-26.965157
422,0.044458,0.177467,-9.874737,-0.030003,-0.021877,-0.037296,178.996613,-0.288064,-26.963955
423,0.046878,0.174843,-9.873723,0.010881,0.005095,-0.030329,178.996277,-0.287765,-26.962833
424,0.050323,0.176196,-9.872820,-0.020376,0.055868,-0.028009,178.996124,-0.288764,-26.961843
