seq,ax,ay,az,wroll,wpitch,wyaw,roll,pitch,yaw,q0,q1,q2,q3
5473,-0.153395,-7.231046,-6.519747,-0.141262,-0.911562,0.060476,-132.038864,0.902620,-178.999054,0.010747,-0.004779,0.913648,-0.406336
5475,-0.161066,-7.221832,-6.549774,-0.122487,-0.059950,0.045362,-132.045868,0.915504,-178.988251,0.010887,-0.004821,0.913672,-0.406278
5476,-0.165765,-7.225437,-6.552985,-0.150091,-0.081340,0.024032,-132.055862,0.919639,-178.987366,0.010923,-0.004814,0.913707,-0.406198
5477,-0.168142,-7.224798,-6.555078,-0.136491,-0.078322,0.025599,-132.065979,0.924134,-178.986023,0.010963,-0.004810,0.913743,-0.406116
5478,-0.160572,-7.232931,-6.556730,-0.061841,-0.064611,0.046990,-132.074066,0.928062,-178.985138,0.010997,-0.004803,0.913771,-0.406051
5479,-0.165096,-7.236730,-6.555117,-0.046675,-0.060049,0.059216,-132.079590,0.931748,-178.984848,0.011027,-0.004793,0.913791,-0.406007
5480,-0.168026,-7.250054,-6.555020,-0.061990,-0.053970,0.045513,-132.083649,0.935879,-178.984650,0.011061,-0.004781,0.913805,-0.405974
5482,-0.163940,-7.249752,-6.556031,-0.042202,-0.046369,0.059278,-132.087341,0.940016,-178.984604,0.011094,-0.004767,0.913818,-0.405944
5483,-0.168169,-7.247387,-6.555993,-0.071266,-0.050986,0.048642,-132.092056,0.944799,-178.984650,0.011132,-0.004750,0.913835,-0.405906
5484,-0.172144,-7.253060,-6.557499,-0.126257,-0.063253,0.024295,-132.097672,0.950633,-178.984100,0.011180,-0.004734,0.913854,-0.405861
5485,-0.168273,-7.242774,-6.561790,-0.176699,-0.069412,0.004521,-132.106125,0.955791,-178.982834,0.011225,-0.004727,0.913884,-0.405793
5486,-0.166259,-7.229605,-6.564795,-0.192134,-0.084700,0.007609,-132.119354,0.959509,-178.981186,0.011260,-0.004728,0.913931,-0.405687
5487,-0.161062,-7.226001,-6.562901,-0.199982,-0.081648,0.016770,-132.134598,0.961849,-178.979538,0.011284,-0.004734,0.913984,-0.405565
5489,-0.154679,-7.224971,-6.566041,-0.192567,-0.087711,0.010627,-132.149689,0.961802,-178.977905,0.011289,-0.004749,0.914038,-0.405444
5490,-0.150142,-7.216148,-6.565135,-0.180589,-0.084581,0.018176,-132.165070,0.959612,-178.976242,0.011277,-0.004771,0.914092,-0.405322
5491,-0.152853,-7.222810,-6.561674,-0.183837,-0.093655,0.031823,-132.178925,0.957481,-178.974731,0.011264,-0.004792,0.914141,-0.405211
5492,-0.154197,-7.228430,-6.562771,-0.185485,-0.084434,0.027176,-132.189957,0.956374,-178.973282,0.011260,-0.004809,0.914180,-0.405123
5493,-0.156489,-7.226270,-6.563902,-0.177953,-0.084382,0.016439,-132.199921,0.955780,-178.971741,0.011260,-0.004824,0.914215,-0.405043
5494,-0.162904,-7.226014,-6.559801,-0.150565,-0.076730,0.040832,-132.208496,0.957041,-178.970444,0.011275,-0.004831,0.914246,-0.404975
5496,-0.165827,-7.228071,-6.562983,-0.146041,-0.073687,0.051525,-132.215546,0.960418,-178.969666,0.011304,-0.004826,0.914270,-0.404918
5497,-0.167549,-7.225307,-6.562659,-0.115575,-0.061500,0.046972,-132.222015,0.964449,-178.969131,0.011338,-0.004817,0.914293,-0.404866
5498,-0.167403,-7.218901,-6.562429,-0.089703,-0.064575,0.046998,-132.228226,0.968407,-178.968674,0.011371,-0.004807,0.914315,-0.404816
5499,-0.165572,-7.228535,-6.563580,-0.057711,-0.078319,0.040908,-132.232742,0.971816,-178.967926,0.011400,-0.004801,0.914331,-0.404780
5500,-0.159945,-7.223919,-6.567706,-0.089801,-0.067621,0.025632,-132.237000,0.973267,-178.966904,0.011415,-0.004805,0.914346,-0.404745
5501,-0.157286,-7.216538,-6.568156,-0.088370,-0.076728,0.016425,-132.243729,0.972634,-178.965668,0.011415,-0.004818,0.914369,-0.404692
5503,-0.152733,-7.218647,-6.565899,-0.088466,-0.084287,0.025505,-132.250473,0.970765,-178.964203,0.011404,-0.004837,0.914393,-0.404638
5504,-0.150036,-7.222325,-6.566445,-0.114466,-0.075037,0.022351,-132.256210,0.967605,-178.962814,0.011384,-0.004859,0.914414,-0.404592
5505,-0.151269,-7.217015,-6.569372,-0.198459,-0.049001,0.028351,-132.264099,0.963963,-178.961899,0.011358,-0.004880,0.914441,-0.404530
5506,-0.144891,-7.220898,-6.575755,-0.195501,0.070132,0.048070,-132.274445,0.958215,-178.963089,0.011307,-0.004892,0.914478,-0.404448
5507,-0.152833,-7.229991,-6.572987,-0.197076,0.140423,0.057117,-132.283020,0.951281,-178.966888,0.011238,-0.004887,0.914509,-0.404380
5508,-0.156474,-7.227786,-6.580530,-0.238304,0.207619,0.046377,-132.291489,0.945445,-178.972366,0.011172,-0.004865,0.914539,-0.404314
5510,-0.161185,-7.231616,-6.582655,-0.235296,0.229002,0.064666,-132.301224,0.940740,-178.979019,0.011110,-0.004829,0.914574,-0.404237
5511,-0.162443,-7.228836,-6.581238,-0.163604,0.213736,0.082984,-132.309097,0.937930,-178.986145,0.011063,-0.004783,0.914602,-0.404176
5512,-0.162800,-7.223236,-6.578485,-0.136162,0.076388,0.072320,-132.315170,0.937521,-178.991486,0.011040,-0.004743,0.914624,-0.404127
5513,-0.157793,-7.215962,-6.583833,-0.134703,0.006194,0.075375,-132.322342,0.938570,-178.994202,0.011039,-0.004718,0.914649,-0.404070
5514,-0.153622,-7.210093,-6.587988,-0.064642,-0.045658,0.093657,-132.330978,0.939447,-178.995697,0.011040,-0.004704,0.914680,-0.404002
5515,-0.150254,-7.204659,-6.585770,-0.003768,-0.074595,0.099704,-132.338654,0.940013,-178.996490,0.011041,-0.004696,0.914707,-0.403940
5517,-0.146537,-7.202279,-6.588239,-0.040565,-0.077568,0.084362,-132.346420,0.939406,-178.996811,0.011035,-0.004696,0.914734,-0.403878
5518,-0.156383,-7.213495,-6.584295,-0.051376,-0.065302,0.087352,-132.353119,0.939725,-178.997055,0.011037,-0.004694,0.914758,-0.403825
5519,-0.153527,-7.214008,-6.582314,-0.059062,-0.056111,0.075108,-132.357224,0.941052,-178.997421,0.011046,-0.004687,0.914772,-0.403792
5520,-0.158800,-7.220349,-6.576008,-0.084997,-0.059136,0.055241,-132.359421,0.942334,-178.997467,0.011056,-0.004682,0.914780,-0.403774
5521,-0.155983,-7.222291,-6.578363,-0.142931,-0.056064,0.029278,-132.361145,0.943433,-178.996964,0.011066,-0.004682,0.914786,-0.403760
5522,-0.157259,-7.223608,-6.580071,-0.121517,-0.039252,0.029247,-132.363510,0.943592,-178.996414,0.011069,-0.004687,0.914794,-0.403742
5524,-0.156650,-7.221406,-6.582957,-0.121482,-0.027019,0.029218,-132.366165,0.943504,-178.996231,0.011069,-0.004689,0.914804,-0.403720
5525,-0.155631,-7.217311,-6.582827,-0.112318,-0.028514,0.030709,-132.369720,0.943003,-178.996216,0.011065,-0.004691,0.914816,-0.403692
5526,-0.147768,-7.214827,-6.581846,-0.094011,-0.029980,0.030644,-132.373322,0.940853,-178.996185,0.011048,-0.004699,0.914829,-0.403663
5527,-0.147645,-7.215289,-6.581602,-0.057389,-0.029895,0.050388,-132.375854,0.937494,-178.996353,0.011020,-0.004710,0.914838,-0.403644
5528,-0.151104,-7.221834,-6.576227,-0.035977,-0.035928,0.064043,-132.375504,0.935446,-178.996796,0.011002,-0.004713,0.914837,-0.403647
5529,-0.148650,-7.221871,-6.571723,-0.009930,-0.048073,0.067023,-132.371979,0.934189,-178.997162,0.010991,-0.004714,0.914824,-0.403675
5531,-0.149014,-7.222222,-6.571006,0.002402,-0.051057,0.071524,-132.367142,0.932904,-178.997421,0.010980,-0.004716,0.914807,-0.403714
5532,-0.150307,-7.224979,-6.578616,-0.012756,-0.052522,0.082135,-132.363205,0.932244,-178.997803,0.010974,-0.004715,0.914793,-0.403745
5533,-0.154411,-7.221690,-6.579903,-0.023375,-0.041796,0.074456,-132.361359,0.932619,-178.998367,0.010975,-0.004709,0.914787,-0.403760
5534,-0.150392,-7.214767,-6.582858,-0.035574,-0.050909,0.072883,-132.362061,0.932902,-178.998871,0.010975,-0.004704,0.914789,-0.403754
5535,-0.151521,-7.205864,-6.588201,-0.046332,-0.053907,0.072825,-132.366440,0.932733,-178.999268,0.010972,-0.004702,0.914805,-0.403719
5536,-0.151603,-7.205132,-6.583142,-0.078481,-0.046228,0.068196,-132.372696,0.932708,-178.999680,0.010971,-0.004700,0.914827,-0.403670
5538,-0.153999,-7.203151,-6.576683,-0.048025,-0.059920,0.081886,-132.377304,0.933382,-179.000107,0.010974,-0.004694,0.914843,-0.403633
5539,-0.155713,-7.204321,-6.572975,-0.031259,-0.067524,0.091013,-132.379410,0.935383,-179.000488,0.010989,-0.004684,0.914851,-0.403616
5540,-0.156055,-7.201447,-6.577085,-0.046538,-0.064450,0.074205,-132.381546,0.937656,-179.000732,0.011006,-0.004675,0.914858,-0.403599
5541,-0.155372,-7.208873,-6.575610,-0.084698,-0.067477,0.058919,-132.384201,0.939309,-179.000610,0.011019,-0.004670,0.914867,-0.403577
5542,-0.159165,-7.205615,-6.581953,-0.074029,-0.073563,0.058901,-132.387299,0.941333,-179.000214,0.011037,-0.004666,0.914878,-0.403552
5543,-0.155938,-7.201274,-6.585640,-0.095459,-0.062864,0.042097,-132.392838,0.943083,-178.999710,0.011052,-0.004665,0.914898,-0.403508
5545,-0.155750,-7.201536,-6.590216,-0.100142,-0.067410,0.029857,-132.400253,0.943604,-178.998978,0.011059,-0.004669,0.914924,-0.403448
5546,-0.153814,-7.207633,-6.585347,-0.078849,-0.071947,0.032866,-132.406082,0.943609,-178.998016,0.011062,-0.004678,0.914944,-0.403402
5547,-0.151335,-7.212597,-6.586134,-0.019349,-0.067315,0.048067,-132.408081,0.942939,-178.997223,0.011059,-0.004687,0.914951,-0.403386
5548,-0.154999,-7.216853,-6.585589,0.005093,-0.065739,0.044959,-132.407227,0.942581,-178.996613,0.011059,-0.004693,0.914948,-0.403393
5549,-0.155404,-7.221922,-6.577269,0.017391,-0.067228,0.044918,-132.403229,0.943010,-178.995926,0.011065,-0.004696,0.914934,-0.403425
5550,-0.152358,-7.228477,-6.574186,0.020610,-0.082445,0.047918,-132.395935,0.943141,-178.995010,0.011069,-0.004702,0.914908,-0.403483
5552,-0.153048,-7.223937,-6.572281,0.020791,-0.090023,0.052435,-132.387985,0.943148,-178.993896,0.011074,-0.004710,0.914880,-0.403546
5553,-0.155622,-7.209451,-6.574288,0.008688,-0.089982,0.053914,-132.383255,0.943990,-178.992813,0.011084,-0.004716,0.914864,-0.403583
5554,-0.148799,-7.211166,-6.571870,0.016372,-0.102135,0.072163,-132.380646,0.944381,-178.991821,0.011091,-0.004722,0.914854,-0.403604
5555,-0.147521,-7.212223,-6.576425,0.034733,-0.100526,0.087331,-132.377792,0.943665,-178.991089,0.011088,-0.004730,0.914844,-0.403627
5556,-0.146529,-7.201297,-6.581251,0.045393,-0.094331,0.088757,-132.377319,0.942634,-178.990677,0.011081,-0.004737,0.914843,-0.403631
5557,-0.153073,-7.201561,-6.584503,0.031571,-0.082051,0.091732,-132.379562,0.942603,-178.990601,0.011081,-0.004738,0.914851,-0.403613
5559,-0.152553,-7.208852,-6.580018,0.008625,-0.092681,0.085572,-132.381210,0.943713,-178.990479,0.011090,-0.004735,0.914856,-0.403600
5560,-0.150872,-7.210902,-6.578175,0.000995,-0.063629,0.076352,-132.381073,0.943953,-178.990372,0.011093,-0.004735,0.914856,-0.403601
5561,-0.151755,-7.204656,-6.581338,-0.040223,-0.054411,0.045765,-132.382446,0.943078,-178.990295,0.011086,-0.004739,0.914861,-0.403590
5562,-0.147069,-7.202779,-6.575472,-0.055517,-0.046707,0.044159,-132.385406,0.940917,-178.990082,0.011069,-0.004749,0.914871,-0.403566
5563,-0.146040,-7.208457,-6.574718,-0.050934,-0.051193,0.045585,-132.386932,0.937706,-178.989883,0.011044,-0.004762,0.914877,-0.403554
5564,-0.144246,-7.202698,-6.571685,-0.041754,-0.044993,0.043952,-132.387543,0.934106,-178.989700,0.011016,-0.004776,0.914879,-0.403550
5566,-0.147729,-7.196751,-6.577185,-0.044829,-0.064742,0.048434,-132.389893,0.931272,-178.989395,0.010995,-0.004788,0.914887,-0.403531
5567,-0.144184,-7.204924,-6.573849,-0.029591,-0.073812,0.065127,-132.391937,0.929216,-178.988983,0.010980,-0.004799,0.914895,-0.403515
5568,-0.153610,-7.214083,-6.576290,-0.026495,-0.079854,0.072686,-132.391144,0.928906,-178.988602,0.010978,-0.004803,0.914892,-0.403522
5569,-0.150508,-7.206791,-6.574080,-0.040178,-0.066080,0.063486,-132.390259,0.929801,-178.988312,0.010987,-0.004802,0.914889,-0.403529
5570,-0.142792,-7.213895,-6.578624,-0.032509,-0.053796,0.071030,-132.389877,0.928243,-178.988327,0.010974,-0.004808,0.914887,-0.403532
5571,-0.145271,-7.221934,-6.573228,-0.024788,-0.053703,0.081608,-132.387192,0.925735,-178.988647,0.010953,-0.004814,0.914878,-0.403553
5573,-0.152534,-7.222558,-6.576131,-0.030766,-0.055170,0.084593,-132.383072,0.925435,-178.989105,0.010949,-0.004811,0.914863,-0.403586
5574,-0.144234,-7.218658,-6.573579,-0.007768,-0.045955,0.090627,-132.379395,0.925058,-178.989746,0.010944,-0.004806,0.914850,-0.403616
5575,-0.147309,-7.223706,-6.571455,0.033554,-0.055033,0.101221,-132.374054,0.923891,-178.990585,0.010932,-0.004803,0.914832,-0.403659
5576,-0.150916,-7.217813,-6.568038,0.033686,-0.067187,0.090477,-132.367661,0.924332,-178.991150,0.010934,-0.004797,0.914809,-0.403710
5577,-0.149435,-7.215496,-6.573439,0.029198,-0.074769,0.076691,-132.363068,0.925147,-178.991226,0.010940,-0.004793,0.914793,-0.403746
5578,-0.147298,-7.206948,-6.571973,0.036856,-0.071657,0.073572,-132.360794,0.925071,-178.991089,0.010940,-0.004794,0.914785,-0.403765
5580,-0.149669,-7.210126,-6.570683,0.027717,-0.082280,0.061300,-132.359085,0.924927,-178.990692,0.010941,-0.004797,0.914779,-0.403778
5581,-0.147924,-7.211399,-6.574143,0.032313,-0.080696,0.070391,-132.357300,0.924962,-178.990158,0.010943,-0.004802,0.914773,-0.403792
5582,-0.155564,-7.221443,-6.574863,0.049136,-0.074554,0.085607,-132.354385,0.926332,-178.989975,0.010955,-0.004798,0.914762,-0.403815
5583,-0.151640,-7.217478,-6.568052,0.044636,-0.059269,0.068792,-132.349747,0.928121,-178.990005,0.010969,-0.004791,0.914746,-0.403852
5584,-0.150352,-7.216630,-6.566704,0.015728,-0.056172,0.061112,-132.345383,0.928305,-178.989990,0.010971,-0.004790,0.914731,-0.403887
5585,-0.154446,-7.215487,-6.575097,-0.023902,-0.040876,0.051914,-132.343750,0.928547,-178.990036,0.010973,-0.004789,0.914725,-0.403900
5586,-0.153325,-7.208724,-6.576417,-0.049865,-0.037795,0.033572,-132.345840,0.928809,-178.990036,0.010975,-0.004788,0.914732,-0.403883
5587,-0.149304,-7.193768,-6.579028,-0.065231,-0.045379,0.036576,-132.352020,0.927951,-178.989868,0.010968,-0.004793,0.914754,-0.403834
5588,-0.151327,-7.198843,-6.583513,-0.062338,-0.042275,0.051781,-132.360504,0.927004,-178.989883,0.010960,-0.004797,0.914784,-0.403767
5589,-0.152622,-7.208417,-6.584117,-0.056350,-0.030026,0.042584,-132.367126,0.926624,-178.990128,0.010956,-0.004797,0.914807,-0.403714
5590,-0.150089,-7.215080,-6.578513,-0.036544,-0.031508,0.050167,-132.369965,0.925880,-178.990433,0.010949,-0.004797,0.914817,-0.403691
5591,-0.149909,-7.216086,-6.573205,-0.034978,-0.042139,0.044006,-132.369537,0.924801,-178.990555,0.010940,-0.004800,0.914816,-0.403695
5592,-0.150722,-7.219466,-6.571646,-0.044052,-0.039039,0.027167,-132.367569,0.923713,-178.990311,0.010932,-0.004806,0.914809,-0.403710
5593,-0.150260,-7.218293,-6.571640,-0.045484,-0.045098,0.034744,-132.365356,0.922682,-178.989899,0.010925,-0.004812,0.914801,-0.403728
5594,-0.150947,-7.211790,-6.571908,-0.011851,-0.051158,0.056058,-132.363785,0.922275,-178.989700,0.010923,-0.004815,0.914796,-0.403741
5595,-0.149745,-7.203156,-6.572267,0.000363,-0.061796,0.059062,-132.363663,0.922335,-178.989594,0.010924,-0.004816,0.914795,-0.403742
5596,-0.149749,-7.205064,-6.578650,-0.004255,-0.063274,0.068165,-132.365341,0.922458,-178.989502,0.010925,-0.004816,0.914801,-0.403728
5597,-0.149450,-7.217052,-6.579341,0.000304,-0.063224,0.074214,-132.366150,0.922674,-178.989563,0.010926,-0.004815,0.914804,-0.403722
5598,-0.151823,-7.210000,-6.579640,-0.004277,-0.066232,0.069589,-132.366379,0.923323,-178.989578,0.010931,-0.004813,0.914805,-0.403720
5599,-0.155914,-7.208797,-6.579718,-0.014991,-0.081469,0.061936,-132.367950,0.925279,-178.989258,0.010948,-0.004809,0.914810,-0.403707
5600,-0.156573,-7.213810,-6.578995,-0.021109,-0.079934,0.064978,-132.369156,0.928167,-178.988708,0.010973,-0.004803,0.914814,-0.403697
5601,-0.160910,-7.221222,-6.578576,-0.013448,-0.079940,0.072613,-132.368423,0.931958,-178.988266,0.011005,-0.004793,0.914812,-0.403703
5602,-0.160533,-7.213419,-6.579068,-0.031728,-0.076902,0.068051,-132.367950,0.936305,-178.987900,0.011041,-0.004781,0.914810,-0.403706
5603,-0.157444,-7.219533,-6.579481,-0.050018,-0.076901,0.066522,-132.368454,0.939597,-178.987503,0.011069,-0.004772,0.914811,-0.403702
5604,-0.153131,-7.219913,-6.578919,-0.054553,-0.073819,0.069540,-132.368469,0.941155,-178.987137,0.011082,-0.004770,0.914811,-0.403701
5605,-0.153426,-7.215268,-6.579658,-0.056049,-0.066143,0.067963,-132.369156,0.941673,-178.986938,0.011087,-0.004769,0.914814,-0.403696
5606,-0.148803,-7.208914,-6.582360,-0.051491,-0.064556,0.074000,-132.371719,0.941243,-178.986938,0.011084,-0.004771,0.914823,-0.403675
5607,-0.150958,-7.203348,-6.579640,-0.027132,-0.066013,0.076977,-132.375259,0.940465,-178.987076,0.011077,-0.004773,0.914835,-0.403647
5608,-0.151653,-7.198921,-6.577252,-0.011938,-0.062901,0.083018,-132.378525,0.940409,-178.987320,0.011075,-0.004772,0.914847,-0.403621
5609,-0.152387,-7.206038,-6.577611,-0.007403,-0.055217,0.081434,-132.380585,0.940592,-178.987747,0.011075,-0.004768,0.914854,-0.403605
5611,-0.150705,-7.215199,-6.577199,-0.025699,-0.058212,0.079845,-132.380554,0.940458,-178.988144,0.011073,-0.004765,0.914854,-0.403605
5612,-0.151274,-7.219269,-6.575272,-0.045467,-0.050522,0.078251,-132.378983,0.939987,-178.988541,0.011068,-0.004764,0.914848,-0.403618
5613,-0.148261,-7.218065,-6.577630,-0.063703,-0.051980,0.067493,-132.377808,0.938830,-178.988861,0.011057,-0.004765,0.914844,-0.403627
5614,-0.146192,-7.221971,-6.575896,-0.069727,-0.056474,0.059769,-132.376846,0.936565,-178.988907,0.011039,-0.004772,0.914841,-0.403635
5615,-0.147911,-7.214702,-6.580282,-0.077299,-0.048761,0.059676,-132.376999,0.934215,-178.988922,0.011020,-0.004781,0.914842,-0.403634
5616,-0.147063,-7.207927,-6.579197,-0.055939,-0.053260,0.061116,-132.379288,0.932195,-178.989014,0.011004,-0.004787,0.914850,-0.403616
5617,-0.144252,-7.203681,-6.578794,-0.051391,-0.057750,0.057969,-132.382309,0.929710,-178.989014,0.010984,-0.004796,0.914861,-0.403592
5618,-0.140779,-7.206156,-6.576074,-0.046835,-0.054592,0.071586,-132.384781,0.926300,-178.989090,0.010956,-0.004808,0.914869,-0.403573
5619,-0.143784,-7.210545,-6.579614,-0.030046,-0.054488,0.076050,-132.385925,0.923164,-178.989410,0.010930,-0.004817,0.914874,-0.403564
5620,-0.142314,-7.218800,-6.582100,-0.039175,-0.068126,0.072893,-132.386017,0.920677,-178.989563,0.010910,-0.004824,0.914874,-0.403563
5621,-0.142840,-7.215087,-6.582479,-0.048299,-0.068030,0.069735,-132.386200,0.918252,-178.989456,0.010891,-0.004833,0.914875,-0.403562
5622,-0.146711,-7.209827,-6.585333,-0.022367,-0.067951,0.075753,-132.387741,0.916897,-178.989426,0.010880,-0.004839,0.914880,-0.403550
5623,-0.154572,-7.223582,-6.583638,-0.031506,-0.072490,0.078761,-132.387970,0.918100,-178.989426,0.010889,-0.004834,0.914881,-0.403548
5624,-0.150633,-7.223037,-6.582965,-0.046696,-0.067888,0.078732,-132.386490,0.920087,-178.989426,0.010905,-0.004827,0.914876,-0.403560
5625,-0.144738,-7.215303,-6.575162,-0.034415,-0.070881,0.084771,-132.384949,0.920137,-178.989502,0.010906,-0.004826,0.914870,-0.403572
5626,-0.148001,-7.221075,-6.576052,-0.026698,-0.066236,0.086220,-132.382446,0.919696,-178.989685,0.010901,-0.004826,0.914861,-0.403592
5627,-0.143309,-7.226080,-6.572219,-0.060138,-0.069215,0.072405,-132.378662,0.918800,-178.989716,0.010894,-0.004829,0.914848,-0.403622
5628,-0.137668,-7.218235,-6.580571,-0.063090,-0.069109,0.073813,-132.376709,0.915806,-178.989594,0.010871,-0.004840,0.914841,-0.403638
5629,-0.141439,-7.208278,-6.578130,-0.050866,-0.064421,0.084373,-132.378006,0.912696,-178.989716,0.010846,-0.004850,0.914846,-0.403628
5630,-0.147283,-7.208519,-6.580043,-0.061563,-0.047560,0.075135,-132.380508,0.911465,-178.990128,0.010834,-0.004851,0.914855,-0.403608
5631,-0.144399,-7.208700,-6.580352,-0.047849,-0.050549,0.076592,-132.383102,0.910701,-178.990646,0.010826,-0.004850,0.914864,-0.403588
5632,-0.148493,-7.208883,-6.578859,-0.044806,-0.045914,0.068899,-132.385010,0.910146,-178.991089,0.010820,-0.004849,0.914871,-0.403573
5633,-0.148053,-7.208623,-6.576321,-0.043272,-0.030609,0.058169,-132.386124,0.909908,-178.991577,0.010817,-0.004846,0.914875,-0.403564
5634,-0.146026,-7.212801,-6.579891,-0.056984,-0.039713,0.047429,-132.386978,0.908869,-178.991882,0.010807,-0.004847,0.914878,-0.403557
5635,-0.143072,-7.210759,-6.578877,-0.027972,-0.047275,0.064140,-132.387604,0.907149,-178.992050,0.010793,-0.004852,0.914880,-0.403552
5636,-0.143064,-7.212612,-6.577548,-0.038624,-0.041094,0.053373,-132.387558,0.905035,-178.992264,0.010775,-0.004858,0.914880,-0.403553
5637,-0.144620,-7.211603,-6.578784,-0.030961,-0.042551,0.059401,-132.387421,0.903239,-178.992477,0.010760,-0.004862,0.914880,-0.403554
5638,-0.150267,-7.212742,-6.576714,-0.014140,-0.056241,0.059353,-132.386734,0.903227,-178.992584,0.010760,-0.004862,0.914877,-0.403560
5639,-0.153859,-7.212927,-6.576779,-0.011043,-0.053177,0.054761,-132.385284,0.905147,-178.992477,0.010775,-0.004855,0.914872,-0.403571
5640,-0.156772,-7.214758,-6.580925,-0.041524,-0.048608,0.048666,-132.384674,0.908044,-178.992371,0.010799,-0.004846,0.914870,-0.403576
5641,-0.156656,-7.207066,-6.579855,-0.043046,-0.051675,0.053260,-132.385925,0.911300,-178.992279,0.010825,-0.004835,0.914874,-0.403565
5642,-0.155755,-7.210548,-6.580796,-0.038476,-0.045579,0.050217,-132.387619,0.914146,-178.992249,0.010848,-0.004826,0.914880,-0.403552
5643,-0.152505,-7.208413,-6.583875,-0.062907,-0.054725,0.045629,-132.389954,0.915906,-178.992096,0.010862,-0.004821,0.914888,-0.403533
5644,-0.149278,-7.210081,-6.581523,-0.047665,-0.062321,0.048645,-132.392471,0.916414,-178.991730,0.010868,-0.004822,0.914897,-0.403513
5645,-0.147387,-7.210725,-6.578956,-0.041549,-0.065322,0.040959,-132.393433,0.915912,-178.991150,0.010866,-0.004829,0.914900,-0.403505
5646,-0.148474,-7.211204,-6.577890,-0.050671,-0.071372,0.039374,-132.393677,0.915245,-178.990356,0.010863,-0.004838,0.914901,-0.403503
5647,-0.148763,-7.209219,-6.576334,-0.053686,-0.083532,0.043898,-132.393890,0.915135,-178.989365,0.010866,-0.004846,0.914902,-0.403501
5648,-0.145933,-7.207524,-6.574719,-0.036863,-0.078899,0.045362,-132.393890,0.914727,-178.988342,0.010866,-0.004856,0.914902,-0.403501
5649,-0.149019,-7.212914,-6.571509,-0.055106,-0.063585,0.042249,-132.392715,0.914143,-178.987534,0.010864,-0.004864,0.914898,-0.403510
5650,-0.154007,-7.216268,-6.571472,-0.045845,-0.071188,0.045270,-132.390106,0.915071,-178.986786,0.010874,-0.004866,0.914888,-0.403531
5651,-0.155773,-7.224583,-6.573895,-0.039607,-0.068131,0.054416,-132.386185,0.917479,-178.986099,0.010896,-0.004863,0.914874,-0.403562
5652,-0.154352,-7.231773,-6.573975,-0.034860,-0.058970,0.055932,-132.380615,0.919796,-178.985672,0.010916,-0.004858,0.914855,-0.403606
5653,-0.160671,-7.233758,-6.574446,-0.013306,-0.051347,0.065090,-132.373810,0.922833,-178.985550,0.010941,-0.004847,0.914831,-0.403660
5654,-0.157958,-7.228138,-6.576940,0.008213,-0.071200,0.063578,-132.367599,0.926629,-178.985382,0.010973,-0.004835,0.914809,-0.403710
5655,-0.151289,-7.225448,-6.576464,-0.002356,-0.068129,0.062029,-132.363022,0.928531,-178.985001,0.010989,-0.004831,0.914792,-0.403746
5656,-0.149614,-7.220445,-6.581265,-0.000768,-0.069605,0.054343,-132.360596,0.928489,-178.984573,0.010991,-0.004834,0.914784,-0.403765
5657,-0.151711,-7.214561,-6.583003,0.009909,-0.066503,0.055814,-132.360565,0.928383,-178.984146,0.010991,-0.004838,0.914784,-0.403765
5658,-0.149716,-7.213115,-6.581403,-0.000801,-0.067979,0.058812,-132.361603,0.928355,-178.983795,0.010992,-0.004841,0.914787,-0.403757
5659,-0.146981,-7.213745,-6.579183,-0.008449,-0.057232,0.057214,-132.362488,0.927330,-178.983566,0.010985,-0.004846,0.914791,-0.403750
5660,-0.146872,-7.216165,-6.576042,0.003772,-0.060211,0.058659,-132.362045,0.925698,-178.983414,0.010972,-0.004853,0.914789,-0.403754
5661,-0.146650,-7.221005,-6.569881,-0.002262,-0.061664,0.052474,-132.359177,0.924084,-178.983109,0.010961,-0.004861,0.914779,-0.403777
5662,-0.144043,-7.220710,-6.568027,-0.012831,-0.060059,0.043230,-132.354935,0.921839,-178.982620,0.010945,-0.004872,0.914764,-0.403811
5663,-0.146144,-7.222049,-6.570714,-0.029509,-0.058454,0.043140,-132.351379,0.919469,-178.982056,0.010928,-0.004885,0.914752,-0.403839
5664,-0.147319,-7.221159,-6.573268,-0.027902,-0.049232,0.055273,-132.349030,0.917909,-178.981781,0.010916,-0.004892,0.914743,-0.403858
5665,-0.149350,-7.219930,-6.574995,-0.040054,-0.043074,0.047583,-132.347961,0.916985,-178.981766,0.010909,-0.004896,0.914740,-0.403867
5666,-0.151807,-7.215092,-6.575652,-0.052238,-0.032355,0.046016,-132.348541,0.916727,-178.981873,0.010907,-0.004896,0.914742,-0.403862
5667,-0.150211,-7.216699,-6.576705,-0.055283,-0.052158,0.049029,-132.350082,0.916799,-178.981888,0.010907,-0.004896,0.914747,-0.403850
5668,-0.146471,-7.213691,-6.572907,-0.046114,-0.059735,0.039817,-132.351212,0.916074,-178.981506,0.010903,-0.004901,0.914751,-0.403841
5669,-0.146942,-7.216939,-6.570257,-0.056755,-0.071882,0.019911,-132.351334,0.914607,-178.980530,0.010894,-0.004914,0.914752,-0.403840
5670,-0.146450,-7.218670,-6.569400,-0.074996,-0.076400,0.019844,-132.350708,0.913146,-178.979111,0.010888,-0.004931,0.914749,-0.403845
5671,-0.143881,-7.207146,-6.576128,-0.052091,-0.083960,0.024346,-132.352158,0.911383,-178.977615,0.010879,-0.004949,0.914754,-0.403834
5672,-0.145247,-7.204605,-6.575315,-0.042987,-0.064051,0.031897,-132.355759,0.909520,-178.976456,0.010868,-0.004965,0.914767,-0.403805
5673,-0.149317,-7.207111,-6.573214,-0.033867,-0.054845,0.039472,-132.358490,0.908708,-178.975815,0.010864,-0.004973,0.914777,-0.403783
5674,-0.156464,-7.204149,-6.579376,-0.020182,-0.041099,0.065399,-132.361267,0.910328,-178.975845,0.010876,-0.004968,0.914787,-0.403761
5675,-0.153452,-7.201673,-6.582942,0.013294,-0.039572,0.076082,-132.365234,0.913002,-178.976501,0.010895,-0.004953,0.914800,-0.403729
5676,-0.152448,-7.211038,-6.576758,-0.000498,-0.041082,0.083696,-132.367340,0.914963,-178.977341,0.010908,-0.004940,0.914808,-0.403712
5677,-0.156268,-7.212967,-6.575979,-0.002015,-0.041073,0.095893,-132.367020,0.917569,-178.978333,0.010925,-0.004923,0.914807,-0.403714
5678,-0.151739,-7.216050,-6.579506,0.017840,-0.039533,0.091300,-132.366074,0.919943,-178.979431,0.010940,-0.004906,0.914803,-0.403722
5679,-0.149612,-7.220038,-6.573312,0.020941,-0.041021,0.082101,-132.363464,0.920669,-178.980362,0.010943,-0.004895,0.914794,-0.403743
5680,-0.154843,-7.218134,-6.569796,0.017978,-0.045569,0.074437,-132.359283,0.921773,-178.980988,0.010950,-0.004886,0.914779,-0.403776
5681,-0.161523,-7.229200,-6.569531,0.031838,-0.041000,0.072918,-132.353409,0.925020,-178.981506,0.010974,-0.004870,0.914759,-0.403823
5682,-0.158704,-7.226806,-6.567798,0.030466,-0.044071,0.050047,-132.346207,0.928543,-178.981735,0.011002,-0.004855,0.914733,-0.403880
5683,-0.158706,-7.221197,-6.564797,0.006186,-0.047130,0.037844,-132.340240,0.930956,-178.981506,0.011022,-0.004848,0.914712,-0.403927
5684,-0.154164,-7.230065,-6.563489,-0.008925,-0.057801,0.017991,-132.334320,0.932043,-178.980743,0.011034,-0.004849,0.914691,-0.403974
5685,-0.151895,-7.239439,-6.561981,-0.022448,-0.048609,0.011843,-132.326431,0.931343,-178.979630,0.011032,-0.004860,0.914663,-0.404037
5686,-0.146310,-7.233993,-6.563941,-0.023765,-0.050074,0.004141,-132.318817,0.928826,-178.978455,0.011017,-0.004878,0.914636,-0.404098
5687,-0.146163,-7.234235,-6.565625,-0.040384,-0.062202,0.007101,-132.313217,0.925396,-178.977097,0.010994,-0.004900,0.914617,-0.404143
5688,-0.151441,-7.238092,-6.570051,-0.047867,-0.072824,0.019240,-132.308823,0.923585,-178.975632,0.010985,-0.004918,0.914601,-0.404178
5689,-0.152677,-7.227288,-6.569736,-0.044716,-0.078892,0.032931,-132.306320,0.923735,-178.974289,0.010991,-0.004928,0.914592,-0.404198
5690,-0.146785,-7.217187,-6.572664,-0.049276,-0.078841,0.038979,-132.307220,0.923383,-178.973129,0.010992,-0.004938,0.914595,-0.404191
5691,-0.145044,-7.217010,-6.568776,-0.053870,-0.078766,0.032793,-132.309525,0.921566,-178.972015,0.010982,-0.004954,0.914604,-0.404172
5692,-0.140496,-7.213915,-6.571352,-0.052363,-0.060360,0.029638,-132.312027,0.918277,-178.971008,0.010959,-0.004974,0.914612,-0.404153
5693,-0.131956,-7.210126,-6.568675,-0.017303,-0.052595,0.029491,-132.314651,0.912278,-178.970306,0.010913,-0.005001,0.914622,-0.404132
5694,-0.126111,-7.209484,-6.575800,0.005523,-0.047840,0.029297,-132.317368,0.903629,-178.969757,0.010846,-0.005036,0.914632,-0.404111
5695,-0.130561,-7.216902,-6.575865,0.028348,-0.052243,0.033684,-132.319290,0.895217,-178.969269,0.010781,-0.005069,0.914639,-0.404097
5696,-0.134248,-7.214675,-6.580155,0.019136,-0.044476,0.044215,-132.320801,0.889094,-178.968994,0.010733,-0.005093,0.914644,-0.404085
5697,-0.135302,-7.217134,-6.579445,0.020595,-0.045888,0.045616,-132.322784,0.884452,-178.968933,0.010696,-0.005111,0.914651,-0.404070
5698,-0.136545,-7.220201,-6.581751,-0.003871,-0.042734,0.050085,-132.324570,0.880656,-178.968948,0.010665,-0.005124,0.914658,-0.404056
5699,-0.139047,-7.219909,-6.583123,-0.028337,-0.047227,0.059149,-132.327194,0.878043,-178.969086,0.010644,-0.005132,0.914667,-0.404035
5700,-0.144871,-7.207325,-6.582292,-0.029956,-0.047174,0.062144,-132.331894,0.877496,-178.969345,0.010638,-0.005133,0.914684,-0.403998
5701,-0.136703,-7.206255,-6.584557,-0.001101,-0.060849,0.065134,-132.337891,0.876848,-178.969528,0.010632,-0.005134,0.914705,-0.403950
5702,-0.138771,-7.204545,-6.584116,-0.001245,-0.065347,0.066577,-132.343689,0.875307,-178.969543,0.010620,-0.005140,0.914725,-0.403904
5703,-0.139058,-7.207994,-6.577244,0.006283,-0.069856,0.069555,-132.347687,0.874465,-178.969467,0.010613,-0.005144,0.914739,-0.403872
5704,-0.142864,-7.207673,-6.571167,0.006246,-0.054544,0.071024,-132.348938,0.874456,-178.969528,0.010613,-0.005143,0.914744,-0.403862
5705,-0.140842,-7.214737,-6.571477,-0.009003,-0.056023,0.067921,-132.348557,0.874645,-178.969727,0.010614,-0.005141,0.914743,-0.403865
5706,-0.143702,-7.211504,-6.567438,-0.031853,-0.048350,0.057191,-132.347733,0.874752,-178.969818,0.010614,-0.005140,0.914740,-0.403872
5707,-0.144290,-7.213485,-6.566239,-0.030276,-0.054422,0.060206,-132.346710,0.875423,-178.969833,0.010620,-0.005137,0.914736,-0.403880
5708,-0.153451,-7.213923,-6.570744,-0.057697,-0.048318,0.037317,-132.346344,0.877720,-178.969635,0.010639,-0.005131,0.914735,-0.403883
5709,-0.152739,-7.224545,-6.576612,-0.057654,-0.055972,0.031239,-132.346497,0.881185,-178.969101,0.010668,-0.005123,0.914735,-0.403881
5710,-0.150708,-7.225774,-6.574885,-0.056060,-0.054459,0.025147,-132.345688,0.883806,-178.968323,0.010692,-0.005120,0.914732,-0.403887
5711,-0.154927,-7.233876,-6.573619,-0.048321,-0.056001,0.032792,-132.343079,0.886656,-178.967560,0.010717,-0.005116,0.914723,-0.403908
5712,-0.155469,-7.238423,-6.573137,-0.049695,-0.046874,0.023664,-132.338577,0.890125,-178.966827,0.010748,-0.005109,0.914707,-0.403943
5714,-0.155539,-7.233073,-6.573511,-0.029711,-0.048428,0.045054,-132.334076,0.893571,-178.966339,0.010777,-0.005100,0.914691,-0.403979
5715,-0.156911,-7.219027,-6.575254,-0.025068,-0.057612,0.035928,-132.332321,0.897381,-178.965897,0.010809,-0.005090,0.914684,-0.403992
5716,-0.158541,-7.218736,-6.579021,-0.002185,-0.057645,0.034439,-132.332993,0.901529,-178.965271,0.010845,-0.005080,0.914687,-0.403986
5717,-0.156943,-7.213696,-6.578400,-0.002221,-0.053096,0.045152,-132.334488,0.905487,-178.964813,0.010878,-0.005070,0.914692,-0.403974
5718,-0.154127,-7.214074,-6.573648,0.014534,-0.053106,0.061950,-132.335480,0.908622,-178.964737,0.010903,-0.005060,0.914695,-0.403966
5719,-0.146164,-7.213773,-6.569045,0.002334,-0.048499,0.049712,-132.334946,0.909435,-178.964722,0.010910,-0.005057,0.914693,-0.403970
5720,-0.142100,-7.226002,-6.564485,0.010042,-0.034697,0.052684,-132.331589,0.907436,-178.964798,0.010893,-0.005063,0.914681,-0.403997
5721,-0.143943,-7.225320,-6.561989,-0.015759,-0.023939,0.054124,-132.326111,0.904809,-178.965195,0.010871,-0.005069,0.914662,-0.404041
5722,-0.140401,-7.226674,-6.565296,-0.026309,-0.023860,0.044878,-132.321564,0.901783,-178.965622,0.010846,-0.005076,0.914646,-0.404078
5723,-0.143891,-7.227140,-6.572349,-0.033847,-0.028361,0.032584,-132.318909,0.898696,-178.965805,0.010821,-0.005085,0.914637,-0.404099
5724,-0.148062,-7.232030,-6.577716,-0.012426,-0.032890,0.041684,-132.317368,0.897336,-178.965836,0.010810,-0.005089,0.914632,-0.404112
5725,-0.148407,-7.224934,-6.577377,-0.029183,-0.042012,0.046226,-132.316879,0.897323,-178.965881,0.010810,-0.005089,0.914630,-0.404115
5726,-0.143460,-7.235088,-6.577988,-0.001679,-0.048070,0.064485,-132.315933,0.896901,-178.965988,0.010806,-0.005089,0.914627,-0.404123
5727,-0.148117,-7.231888,-6.573981,0.006021,-0.048023,0.055277,-132.313049,0.896608,-178.966110,0.010803,-0.005089,0.914617,-0.404146
5728,-0.147832,-7.226413,-6.574109,-0.024445,-0.051043,0.047610,-132.311234,0.897045,-178.966003,0.010807,-0.005088,0.914610,-0.404161
5729,-0.138142,-7.216105,-6.574558,-0.048865,-0.047926,0.038384,-132.312653,0.895349,-178.965759,0.010794,-0.005096,0.914615,-0.404149
5730,-0.142262,-7.213040,-6.574520,-0.027552,-0.040214,0.042871,-132.315948,0.892454,-178.965622,0.010772,-0.005108,0.914627,-0.404123
5731,-0.148481,-7.207672,-6.572354,-0.039826,-0.050849,0.033667,-132.319748,0.891733,-178.965393,0.010767,-0.005113,0.914640,-0.404093
5732,-0.145378,-7.213099,-6.574455,-0.058198,-0.056919,0.032106,-132.323792,0.891796,-178.964844,0.010769,-0.005117,0.914654,-0.404061
5733,-0.143137,-7.212345,-6.572609,-0.052133,-0.059920,0.024422,-132.327194,0.890813,-178.964066,0.010764,-0.005127,0.914666,-0.404034
5734,-0.150160,-7.218974,-6.569468,-0.053655,-0.064464,0.033539,-132.328781,0.890895,-178.963181,0.010767,-0.005134,0.914672,-0.404021
5735,-0.147572,-7.217745,-6.567254,-0.079550,-0.064446,0.024363,-132.329163,0.891924,-178.962204,0.010779,-0.005138,0.914673,-0.404018
5736,-0.142913,-7.204760,-6.570572,-0.100917,-0.053721,0.013634,-132.332306,0.891161,-178.961182,0.010776,-0.005150,0.914684,-0.403992
5737,-0.144534,-7.198981,-6.571940,-0.072003,-0.046037,0.039518,-132.338348,0.889806,-178.960602,0.010767,-0.005160,0.914706,-0.403944
5738,-0.144514,-7.207141,-6.573729,-0.050716,-0.035309,0.062356,-132.343414,0.889216,-178.960785,0.010762,-0.005161,0.914724,-0.403904
5739,-0.145811,-7.205675,-6.576769,-0.041622,-0.036793,0.053156,-132.347427,0.888983,-178.961227,0.010758,-0.005158,0.914738,-0.403872
5740,-0.144437,-7.207294,-6.579030,-0.023384,-0.044379,0.060741,-132.351440,0.888832,-178.961548,0.010756,-0.005157,0.914752,-0.403840
5741,-0.142627,-7.216688,-6.578977,-0.008163,-0.056534,0.059158,-132.353470,0.888340,-178.961685,0.010751,-0.005158,0.914759,-0.403824
5742,-0.143803,-7.219380,-6.577908,-0.026463,-0.064110,0.045364,-132.353592,0.887753,-178.961365,0.010748,-0.005162,0.914760,-0.403823
5743,-0.146176,-7.209377,-6.572670,-0.011191,-0.079328,0.046844,-132.353745,0.888029,-178.960617,0.010752,-0.005167,0.914760,-0.403822
5744,-0.145619,-7.205993,-6.573030,-0.003576,-0.079293,0.055963,-132.354553,0.889010,-178.959839,0.010763,-0.005170,0.914763,-0.403815
5745,-0.150100,-7.204090,-6.571669,-0.011233,-0.077744,0.055938,-132.355896,0.890825,-178.959167,0.010780,-0.005169,0.914767,-0.403804
5746,-0.152726,-7.200331,-6.576304,-0.008239,-0.056380,0.065094,-132.358459,0.893799,-178.958908,0.010804,-0.005161,0.914776,-0.403783
5747,-0.153433,-7.201044,-6.576436,-0.015948,-0.054861,0.058999,-132.362076,0.897044,-178.958984,0.010830,-0.005149,0.914789,-0.403754
5748,-0.153025,-7.207940,-6.581475,-0.043484,-0.050287,0.036116,-132.365814,0.899687,-178.958801,0.010851,-0.005142,0.914802,-0.403724
5749,-0.148931,-7.218912,-6.580292,-0.040449,-0.054851,0.042205,-132.367905,0.900998,-178.958405,0.010863,-0.005140,0.914809,-0.403707
5750,-0.148457,-7.224277,-6.583043,-0.049570,-0.054819,0.026911,-132.367981,0.901183,-178.957809,0.010867,-0.005145,0.914810,-0.403706
5751,-0.146790,-7.231058,-6.575406,-0.060156,-0.071565,0.025340,-132.366013,0.900862,-178.956772,0.010868,-0.005154,0.914803,-0.403722
5752,-0.143933,-7.230647,-6.574390,-0.058484,-0.079142,0.020701,-132.362152,0.899862,-178.955338,0.010865,-0.005168,0.914789,-0.403753
5753,-0.144499,-7.226685,-6.572240,-0.032407,-0.068400,0.041995,-132.358139,0.898644,-178.954147,0.010860,-0.005182,0.914775,-0.403785
5754,-0.145686,-7.221336,-6.569863,-0.049075,-0.063769,0.041935,-132.354813,0.897959,-178.953384,0.010857,-0.005190,0.914763,-0.403811
5755,-0.146971,-7.221432,-6.563620,-0.029113,-0.053045,0.054092,-132.351135,0.897826,-178.952942,0.010858,-0.005194,0.914750,-0.403841
5756,-0.149445,-7.217164,-6.562469,-0.018300,-0.048438,0.055582,-132.346649,0.898476,-178.952850,0.010863,-0.005192,0.914734,-0.403876
5757,-0.150520,-7.213488,-6.566473,-0.015159,-0.040791,0.061663,-132.343658,0.899771,-178.953003,0.010873,-0.005186,0.914724,-0.403900
5758,-0.149437,-7.213701,-6.566574,-0.041044,-0.052978,0.061640,-132.342361,0.901124,-178.953201,0.010884,-0.005179,0.914719,-0.403910
5759,-0.152478,-7.219344,-6.566255,-0.030289,-0.057541,0.041786,-132.340652,0.902703,-178.952957,0.010897,-0.005175,0.914713,-0.403924
5760,-0.152553,-7.220523,-6.568303,-0.037833,-0.054482,0.053984,-132.338348,0.904697,-178.952591,0.010914,-0.005171,0.914705,-0.403942
5761,-0.150140,-7.218868,-6.571034,-0.036243,-0.062095,0.052438,-132.337006,0.906289,-178.952316,0.010928,-0.005167,0.914700,-0.403953
5762,-0.149256,-7.222342,-6.570769,-0.033133,-0.054436,0.053930,-132.335831,0.907106,-178.952042,0.010936,-0.005167,0.914696,-0.403962
5763,-0.151190,-7.226013,-6.574411,-0.011703,-0.049830,0.058476,-132.333893,0.907962,-178.951965,0.010943,-0.005164,0.914689,-0.403977
5764,-0.150258,-7.219109,-6.588028,0.002022,-0.026915,0.063024,-132.334396,0.908733,-178.952393,0.010947,-0.005158,0.914691,-0.403973
5765,-0.143199,-7.224693,-6.589936,0.058411,0.017393,0.041602,-132.336212,0.906899,-178.953491,0.010929,-0.005156,0.914697,-0.403959
5766,-0.145207,-7.227404,-6.589364,0.069046,0.049508,0.032370,-132.335938,0.902858,-178.955185,0.010891,-0.005157,0.914697,-0.403962
5767,-0.149365,-7.227093,-6.583776,0.076662,0.044977,0.026214,-132.334091,0.899724,-178.957016,0.010859,-0.005153,0.914690,-0.403977
5768,-0.148898,-7.222394,-6.579078,0.067510,0.051111,0.013974,-132.331543,0.897337,-178.958649,0.010835,-0.005148,0.914681,-0.403998
5769,-0.145455,-7.224101,-6.566478,0.053831,0.025209,0.020034,-132.327377,0.894557,-178.959930,0.010808,-0.005147,0.914667,-0.404031
5770,-0.153029,-7.217761,-6.571330,0.003538,-0.029702,0.036794,-132.323990,0.893970,-178.960480,0.010802,-0.005145,0.914655,-0.404058
5771,-0.152792,-7.217870,-6.570964,-0.008652,-0.054121,0.047479,-132.323364,0.896165,-178.960373,0.010819,-0.005138,0.914653,-0.404063
5772,-0.146380,-7.209977,-6.574601,-0.016305,-0.057154,0.053562,-132.324692,0.897530,-178.960159,0.010831,-0.005135,0.914657,-0.404052
5773,-0.146271,-7.217772,-6.574461,-0.020918,-0.058637,0.051989,-132.326721,0.897601,-178.959930,0.010832,-0.005136,0.914664,-0.404036
5774,-0.152358,-7.215589,-6.578554,-0.011791,-0.049456,0.050438,-132.328400,0.898647,-178.959763,0.010841,-0.005134,0.914670,-0.404023
5775,-0.149927,-7.207118,-6.572382,-0.031681,-0.046391,0.044321,-132.331223,0.900168,-178.959686,0.010854,-0.005130,0.914680,-0.404000
5776,-0.149958,-7.203636,-6.573716,-0.040907,-0.047896,0.042772,-132.335266,0.901058,-178.959549,0.010861,-0.005128,0.914694,-0.403968
5777,-0.153710,-7.212878,-6.570389,-0.028738,-0.049411,0.051918,-132.337997,0.902727,-178.959442,0.010875,-0.005123,0.914704,-0.403946
5778,-0.153341,-7.207615,-6.567863,-0.025686,-0.046359,0.058021,-132.338867,0.905146,-178.959488,0.010894,-0.005114,0.914707,-0.403939
5779,-0.151993,-7.205117,-6.563867,-0.031787,-0.046352,0.065643,-132.339737,0.907259,-178.959732,0.010910,-0.005105,0.914710,-0.403931
5780,-0.154339,-7.208885,-6.563781,-0.022610,-0.055501,0.070213,-132.339767,0.909675,-178.959991,0.010928,-0.005095,0.914710,-0.403931
5781,-0.152716,-7.214781,-6.562413,-0.024076,-0.049391,0.070204,-132.338135,0.912153,-178.960236,0.010947,-0.005084,0.914704,-0.403944
5782,-0.149487,-7.211828,-6.564891,-0.040796,-0.037157,0.064071,-132.336639,0.913227,-178.960632,0.010954,-0.005077,0.914699,-0.403956
5783,-0.154228,-7.220095,-6.568936,-0.040740,-0.043238,0.073200,-132.335785,0.914420,-178.961151,0.010962,-0.005068,0.914696,-0.403962
5784,-0.155225,-7.229285,-6.565559,-0.057417,-0.050863,0.057932,-132.333069,0.916699,-178.961395,0.010979,-0.005058,0.914686,-0.403984
5785,-0.153252,-7.233089,-6.565636,-0.060308,-0.038645,0.057917,-132.328598,0.918408,-178.961487,0.010993,-0.005051,0.914670,-0.404019
5786,-0.160970,-7.232286,-6.563127,-0.041824,-0.041703,0.060972,-132.323380,0.921040,-178.961716,0.011013,-0.005039,0.914652,-0.404061
5787,-0.165741,-7.235971,-6.561156,-0.014166,-0.052431,0.064069,-132.316681,0.926202,-178.961838,0.011054,-0.005019,0.914628,-0.404114
5788,-0.161016,-7.226887,-6.556752,-0.020084,-0.063153,0.053429,-132.309799,0.931288,-178.961609,0.011096,-0.005002,0.914604,-0.404168
5789,-0.159465,-7.222116,-6.561073,-0.013850,-0.055539,0.062598,-132.305176,0.934855,-178.961365,0.011126,-0.004991,0.914587,-0.404205
5790,-0.157101,-7.217201,-6.563571,-0.004632,-0.058588,0.056490,-132.302933,0.937362,-178.961258,0.011146,-0.004983,0.914579,-0.404222
5791,-0.152109,-7.217839,-6.568421,-0.035132,-0.057031,0.054928,-132.302902,0.938144,-178.961075,0.011153,-0.004982,0.914579,-0.404222
5792,-0.147826,-7.215777,-6.568227,-0.061080,-0.053914,0.045702,-132.304764,0.936809,-178.960831,0.011143,-0.004989,0.914586,-0.404208
5793,-0.148333,-7.219647,-6.570879,-0.053457,-0.043157,0.045618,-132.306961,0.934475,-178.960663,0.011125,-0.004998,0.914594,-0.404190
5794,-0.143858,-7.216055,-6.568757,-0.038204,-0.047646,0.048573,-132.308701,0.931450,-178.960602,0.011101,-0.005010,0.914600,-0.404177
5795,-0.143164,-7.217763,-6.565245,-0.027509,-0.059753,0.049988,-132.309311,0.927847,-178.960388,0.011073,-0.005024,0.914602,-0.404172
5796,-0.139167,-7.218749,-6.567219,-0.013748,-0.068795,0.037655,-132.308838,0.923648,-178.959763,0.011042,-0.005044,0.914601,-0.404176
5797,-0.139679,-7.215738,-6.567958,-0.001527,-0.070201,0.040575,-132.308594,0.919027,-178.958923,0.011008,-0.005067,0.914600,-0.404179
5798,-0.137541,-7.215456,-6.566836,0.007630,-0.068554,0.040443,-132.308395,0.914421,-178.958115,0.010974,-0.005090,0.914599,-0.404181
5799,-0.142331,-7.214162,-6.568492,-0.001531,-0.057766,0.034223,-132.308502,0.910425,-178.957397,0.010944,-0.005110,0.914600,-0.404180
5800,-0.141004,-7.217031,-6.566172,-0.010685,-0.051572,0.029545,-132.308609,0.907068,-178.956772,0.010920,-0.005126,0.914600,-0.404180
5801,-0.139838,-7.219650,-6.561204,-0.024372,-0.042323,0.032493,-132.307312,0.903275,-178.956284,0.010891,-0.005144,0.914596,-0.404190
5802,-0.144428,-7.224171,-6.562724,-0.018186,-0.040718,0.026301,-132.304733,0.900221,-178.955856,0.010869,-0.005158,0.914587,-0.404211
5803,-0.146642,-7.217019,-6.565913,-0.022711,-0.051348,0.024718,-132.303299,0.898728,-178.955261,0.010859,-0.005167,0.914582,-0.404223
5804,-0.145546,-7.219088,-6.565045,-0.033367,-0.058931,0.020088,-132.303253,0.897740,-178.954391,0.010854,-0.005178,0.914581,-0.404223
5805,-0.143872,-7.215818,-6.568035,-0.027252,-0.057351,0.021554,-132.303772,0.896319,-178.953415,0.010846,-0.005191,0.914583,-0.404219
5806,-0.145771,-7.213667,-6.571569,0.001711,-0.069505,0.038282,-132.305374,0.895364,-178.952545,0.010842,-0.005201,0.914589,-0.404206
5807,-0.143415,-7.209442,-6.572861,-0.022771,-0.074030,0.047380,-132.308365,0.894909,-178.951782,0.010840,-0.005209,0.914599,-0.404182
5808,-0.141400,-7.212111,-6.577036,-0.025909,-0.070911,0.047308,-132.312653,0.893765,-178.951111,0.010834,-0.005219,0.914615,-0.404148
5809,-0.140553,-7.208979,-6.580764,-0.021443,-0.061679,0.059434,-132.317886,0.892111,-178.950745,0.010821,-0.005228,0.914633,-0.404106
5811,-0.146619,-7.215358,-6.577727,-0.030694,-0.063147,0.065477,-132.322571,0.891699,-178.950668,0.010818,-0.005231,0.914650,-0.404069
5812,-0.148810,-7.216191,-6.574511,-0.035312,-0.061592,0.062394,-132.325287,0.893003,-178.950592,0.010829,-0.005227,0.914659,-0.404047
5813,-0.149804,-7.214806,-6.573447,-0.027703,-0.061574,0.063901,-132.327164,0.894873,-178.950500,0.010844,-0.005221,0.914666,-0.404032
5814,-0.150997,-7.221765,-6.566825,-0.029200,-0.052407,0.060835,-132.326935,0.896946,-178.950470,0.010860,-0.005214,0.914665,-0.404034
5815,-0.153691,-7.221093,-6.563501,-0.036743,-0.066139,0.048625,-132.324554,0.899518,-178.950195,0.010882,-0.005207,0.914656,-0.404052
5816,-0.152405,-7.214234,-6.568072,-0.032109,-0.073770,0.045573,-132.323456,0.902276,-178.949493,0.010907,-0.005203,0.914652,-0.404061
5817,-0.151613,-7.205990,-6.573018,-0.030614,-0.072235,0.037933,-132.325745,0.904401,-178.948639,0.010926,-0.005202,0.914660,-0.404042
5818,-0.152604,-7.208998,-6.567726,-0.033712,-0.073749,0.025714,-132.328644,0.906170,-178.947586,0.010944,-0.005205,0.914670,-0.404019
5819,-0.152405,-7.209551,-6.564226,-0.024556,-0.075264,0.033332,-132.329544,0.907951,-178.946411,0.010963,-0.005208,0.914673,-0.404011
5820,-0.149223,-7.217267,-6.561139,-0.001611,-0.072190,0.045513,-132.327728,0.909174,-178.945450,0.010976,-0.005211,0.914667,-0.404026
5821,-0.148436,-7.216300,-6.558354,-0.006090,-0.058418,0.042418,-132.323898,0.909439,-178.944763,0.010980,-0.005215,0.914653,-0.404056
5822,-0.144941,-7.212717,-6.554804,-0.009039,-0.055316,0.049989,-132.320068,0.908704,-178.944336,0.010976,-0.005221,0.914640,-0.404087
5823,-0.140014,-7.216158,-6.560733,-0.007427,-0.064391,0.065158,-132.316895,0.906679,-178.944092,0.010961,-0.005230,0.914629,-0.404112
5824,-0.140635,-7.210033,-6.565337,-0.005869,-0.058195,0.058951,-132.315765,0.904030,-178.943954,0.010941,-0.005240,0.914625,-0.404122
5825,-0.141793,-7.211232,-6.567042,-0.013507,-0.047428,0.052754,-132.316452,0.901540,-178.943909,0.010921,-0.005249,0.914627,-0.404116
5826,-0.138567,-7.210703,-6.566864,-0.024201,-0.042761,0.041975,-132.317596,0.898431,-178.943878,0.010896,-0.005261,0.914632,-0.404108
5827,-0.140949,-7.218560,-6.568578,-0.025719,-0.041147,0.032723,-132.318130,0.895007,-178.943665,0.010869,-0.005274,0.914634,-0.404104
5828,-0.141384,-7.215756,-6.566061,-0.030269,-0.030389,0.023483,-132.317932,0.891976,-178.943405,0.010846,-0.005287,0.914633,-0.404105
5829,-0.138680,-7.214638,-6.563363,-0.047019,-0.036413,0.021869,-132.317841,0.888548,-178.943069,0.010820,-0.005302,0.914633,-0.404106
5830,-0.137629,-7.217092,-6.567436,-0.057668,-0.042428,0.009564,-132.318222,0.884558,-178.942429,0.010790,-0.005321,0.914634,-0.404104
5831,-0.141885,-7.226624,-6.570626,-0.045413,-0.057614,0.015586,-132.318039,0.881565,-178.941452,0.010770,-0.005340,0.914633,-0.404105
5832,-0.142597,-7.226525,-6.571241,-0.048400,-0.052983,0.015525,-132.317017,0.879941,-178.940399,0.010761,-0.005354,0.914630,-0.404114
5833,-0.141545,-7.221754,-6.574125,-0.037684,-0.055982,0.015467,-132.317032,0.878388,-178.939377,0.010752,-0.005367,0.914630,-0.404114
5834,-0.141731,-7.222709,-6.577019,-0.033106,-0.058980,0.032192,-132.318176,0.877042,-178.938492,0.010744,-0.005379,0.914634,-0.404104
5835,-0.138014,-7.218303,-6.572984,-0.030059,-0.052811,0.055011,-132.319458,0.875562,-178.938095,0.010734,-0.005388,0.914638,-0.404094
5836,-0.137749,-7.219929,-6.573096,-0.025480,-0.054262,0.062557,-132.320328,0.873733,-178.938095,0.010719,-0.005394,0.914642,-0.404088
5837,-0.136493,-7.217215,-6.571393,-0.019372,-0.060288,0.067048,-132.320862,0.871954,-178.938141,0.010705,-0.005400,0.914644,-0.404084
5838,-0.138683,-7.221692,-6.573110,-0.019359,-0.054110,0.062390,-132.321030,0.870470,-178.938171,0.010693,-0.005405,0.914644,-0.404082
5839,-0.142589,-7.223871,-6.574502,-0.005603,-0.046429,0.054703,-132.320496,0.869960,-178.938232,0.010689,-0.005406,0.914642,-0.404087
5840,-0.150316,-7.223471,-6.579463,0.000507,-0.052520,0.045533,-132.320343,0.871549,-178.938141,0.010702,-0.005402,0.914642,-0.404088
5841,-0.150050,-7.216947,-6.579353,-0.022417,-0.031168,0.036390,-132.322098,0.874169,-178.938049,0.010723,-0.005393,0.914648,-0.404073
5842,-0.151629,-7.214309,-6.580592,-0.030115,-0.022025,0.034881,-132.325684,0.876450,-178.938232,0.010740,-0.005384,0.914660,-0.404045
5843,-0.155661,-7.211226,-6.578262,-0.022563,-0.017475,0.044069,-132.329697,0.879621,-178.938675,0.010764,-0.005370,0.914674,-0.404012
5844,-0.154803,-7.208154,-6.574155,-0.036365,-0.026668,0.031904,-132.333435,0.883274,-178.939026,0.010791,-0.005354,0.914688,-0.403982
5845,-0.153916,-7.207870,-6.569319,-0.037932,-0.034325,0.028883,-132.336319,0.886387,-178.938980,0.010816,-0.005344,0.914698,-0.403959
5846,-0.154620,-7.212513,-6.565706,-0.028766,-0.040453,0.030436,-132.337067,0.889382,-178.938721,0.010841,-0.005336,0.914700,-0.403953
5847,-0.155240,-7.215981,-6.560769,-0.036326,-0.052686,0.013677,-132.335342,0.892451,-178.938034,0.010868,-0.005330,0.914694,-0.403966
5848,-0.150606,-7.227027,-6.555237,-0.045326,-0.061852,0.018262,-132.330490,0.894611,-178.936874,0.010890,-0.005331,0.914677,-0.404004
5849,-0.151523,-7.236719,-6.557040,-0.048148,-0.064899,0.027407,-132.322784,0.896137,-178.935684,0.010906,-0.005335,0.914649,-0.404066
5850,-0.149260,-7.241353,-6.559881,-0.046370,-0.051153,0.041121,-132.314316,0.897396,-178.934860,0.010920,-0.005336,0.914620,-0.404133
5851,-0.145418,-7.239319,-6.562346,-0.015626,-0.061800,0.059389,-132.306274,0.897712,-178.934464,0.010924,-0.005337,0.914591,-0.404197
5852,-0.146441,-7.243874,-6.561752,0.012056,-0.055652,0.085276,-132.297760,0.898011,-178.934494,0.010927,-0.005335,0.914561,-0.404265
5853,-0.149874,-7.242458,-6.566277,0.027511,-0.043414,0.091341,-132.289246,0.899332,-178.935135,0.010935,-0.005325,0.914531,-0.404333
5854,-0.146625,-7.233559,-6.567564,0.044424,-0.040330,0.092830,-132.282959,0.900568,-178.936096,0.010942,-0.005312,0.914509,-0.404383
5855,-0.146597,-7.227272,-6.567336,0.047538,-0.055546,0.080572,-132.278976,0.901113,-178.936813,0.010944,-0.005304,0.914495,-0.404415
5856,-0.148369,-7.220208,-6.567745,0.039916,-0.061609,0.069847,-132.277176,0.901923,-178.937057,0.010950,-0.005299,0.914489,-0.404429
5857,-0.144414,-7.217360,-6.570571,0.030720,-0.058509,0.059113,-132.277634,0.902045,-178.937042,0.010951,-0.005299,0.914490,-0.404425
5858,-0.145879,-7.215178,-6.570844,0.009286,-0.059979,0.049896,-132.279739,0.901389,-178.936844,0.010946,-0.005303,0.914498,-0.404409
5859,-0.144116,-7.219348,-6.572731,-0.004515,-0.047714,0.042206,-132.282410,0.900355,-178.936600,0.010939,-0.005309,0.914507,-0.404387
5860,-0.143074,-7.217345,-6.572114,-0.018310,-0.047648,0.048239,-132.285278,0.898663,-178.936478,0.010925,-0.005316,0.914517,-0.404365
5861,-0.143008,-7.218417,-6.575726,-0.030589,-0.041476,0.042061,-132.288940,0.896769,-178.936432,0.010910,-0.005323,0.914530,-0.404336
5862,-0.147374,-7.215700,-6.574847,-0.059663,-0.044476,0.035903,-132.293701,0.895646,-178.936295,0.010902,-0.005329,0.914547,-0.404298
5863,-0.143599,-7.213287,-6.572977,-0.065848,-0.045953,0.022118,-132.299042,0.894560,-178.935883,0.010894,-0.005336,0.914566,-0.404255
5864,-0.145332,-7.210056,-6.572292,-0.064404,-0.055056,0.029690,-132.304489,0.893208,-178.935272,0.010885,-0.005347,0.914585,-0.404212
5865,-0.145740,-7.216341,-6.571080,-0.053779,-0.055011,0.022013,-132.308701,0.892453,-178.934525,0.010882,-0.005356,0.914600,-0.404178
5866,-0.145332,-7.221096,-6.569736,-0.040048,-0.051916,0.034173,-132.310349,0.891770,-178.933838,0.010879,-0.005364,0.914606,-0.404165
5867,-0.143913,-7.230018,-6.567883,-0.020151,-0.054919,0.032592,-132.308990,0.890883,-178.933243,0.010874,-0.005371,0.914601,-0.404176
5868,-0.146292,-7.232846,-6.566354,0.002847,-0.053349,0.041697,-132.304871,0.890327,-178.932663,0.010871,-0.005378,0.914586,-0.404209
5869,-0.148689,-7.230927,-6.568330,0.013635,-0.039588,0.041664,-132.300323,0.890690,-178.932388,0.010876,-0.005378,0.914570,-0.404245
5870,-0.148816,-7.231965,-6.566763,0.013730,-0.033466,0.034011,-132.296066,0.891235,-178.932281,0.010881,-0.005377,0.914555,-0.404279
