seq,ax,ay,az,wroll,wpitch,wyaw,roll,pitch,yaw,q0,q1,q2,q3
1161,6.928518,-6.826195,-0.370379,-0.533740,0.071924,0.030979,-93.105759,-45.384129,94.358902,-0.636674,0.260684,0.671618,-0.274991
1163,6.927035,-6.818871,-0.428980,-0.551941,-0.626857,-0.011446,-93.133202,-45.383305,94.372025,-0.636578,0.260764,0.671712,-0.274908
1164,6.922547,-6.827602,-0.433502,-0.529543,-0.619716,0.109329,-93.172150,-45.380531,94.401428,-0.636411,0.260824,0.671867,-0.274859
1165,6.923085,-6.827791,-0.428912,-0.427541,-0.513194,0.101606,-93.207008,-45.375969,94.427986,-0.636255,0.260888,0.672002,-0.274828
1166,6.922884,-6.824634,-0.426271,-0.368645,-0.457790,0.069680,-93.236488,-45.372200,94.450760,-0.636123,0.260939,0.672117,-0.274802
1167,6.924580,-6.818541,-0.425169,-0.339798,-0.415237,-0.011958,-93.262962,-45.370434,94.471367,-0.636009,0.260975,0.672224,-0.274772
1168,6.925467,-6.817794,-0.420816,-0.264593,-0.347356,-0.013919,-93.285912,-45.370136,94.489464,-0.635912,0.260998,0.672320,-0.274739
1170,6.924996,-6.818385,-0.420824,-0.219056,-0.314220,0.004760,-93.305130,-45.369648,94.505142,-0.635830,0.261016,0.672400,-0.274716
1171,6.929200,-6.812702,-0.418590,-0.172348,-0.274441,-0.076039,-93.321648,-45.370274,94.519173,-0.635760,0.261021,0.672473,-0.274694
1172,6.922291,-6.811236,-0.423178,-0.187369,-0.292481,-0.039881,-93.337296,-45.371647,94.532753,-0.635696,0.261021,0.672544,-0.274669
1173,6.920929,-6.816386,-0.423432,-0.167080,-0.278391,0.038051,-93.352829,-45.371124,94.546280,-0.635626,0.261030,0.672611,-0.274656
1174,6.920443,-6.816391,-0.422959,-0.135815,-0.265374,0.044995,-93.366966,-45.369217,94.559044,-0.635558,0.261045,0.672671,-0.274655
1175,6.919638,-6.816016,-0.417190,-0.089783,-0.207771,0.030232,-93.378624,-45.367496,94.570152,-0.635501,0.261054,0.672721,-0.274658
1177,6.918447,-6.813038,-0.420713,-0.128856,-0.236898,-0.001426,-93.389740,-45.366589,94.580643,-0.635448,0.261059,0.672769,-0.274656
1178,6.926394,-6.820996,-0.415249,-0.088649,-0.179010,-0.004584,-93.400368,-45.366272,94.590485,-0.635399,0.261062,0.672817,-0.274650
1179,6.929395,-6.820017,-0.416522,-0.092262,-0.179134,-0.062016,-93.409508,-45.367035,94.599083,-0.635360,0.261058,0.672860,-0.274639
1180,6.926228,-6.821152,-0.420313,-0.127844,-0.202011,-0.016725,-93.419662,-45.367958,94.608208,-0.635317,0.261056,0.672907,-0.274625
1181,6.921551,-6.818350,-0.423056,-0.142015,-0.220491,0.008473,-93.431290,-45.367672,94.618217,-0.635266,0.261063,0.672957,-0.274614
1182,6.917043,-6.831694,-0.421541,-0.114498,-0.201469,0.162286,-93.442505,-45.364407,94.627968,-0.635208,0.261086,0.672999,-0.274621
1184,6.914754,-6.834682,-0.426276,-0.147224,-0.235371,0.205073,-93.453850,-45.357857,94.637787,-0.635141,0.261129,0.673036,-0.274646
1185,6.911911,-6.841108,-0.422216,-0.108512,-0.190743,0.270103,-93.464798,-45.349529,94.647202,-0.635070,0.261182,0.673068,-0.274681
1186,6.912559,-6.836553,-0.421732,-0.100615,-0.171477,0.195592,-93.473907,-45.341419,94.655113,-0.635008,0.261233,0.673092,-0.274717
1187,6.917590,-6.838768,-0.419226,-0.063720,-0.128768,0.158526,-93.481346,-45.335228,94.661705,-0.634959,0.261271,0.673113,-0.274745
1188,6.923229,-6.831900,-0.417933,-0.043064,-0.096294,0.041088,-93.486717,-45.331673,94.666748,-0.634924,0.261291,0.673130,-0.274761
1189,6.926191,-6.826450,-0.412468,0.003120,-0.035625,-0.038846,-93.489594,-45.331509,94.669868,-0.634910,0.261290,0.673144,-0.274763
1191,6.929250,-6.817465,-0.417374,-0.036032,-0.073774,-0.121357,-93.492157,-45.334064,94.672691,-0.634904,0.261273,0.673161,-0.274749
1192,6.931144,-6.821176,-0.420465,-0.055661,-0.090366,-0.094636,-93.496658,-45.337494,94.676888,-0.634893,0.261253,0.673188,-0.274726
1193,6.932823,-6.814265,-0.418883,-0.059973,-0.076784,-0.170159,-93.501678,-45.341721,94.681229,-0.634883,0.261231,0.673219,-0.274697
1194,6.930976,-6.812949,-0.425307,-0.117978,-0.131657,-0.148209,-93.508476,-45.346806,94.686607,-0.634869,0.261208,0.673257,-0.274658
1195,6.929480,-6.813702,-0.428948,-0.130360,-0.161395,-0.114553,-93.517822,-45.350880,94.693939,-0.634841,0.261194,0.673304,-0.274620
1196,6.927810,-6.818130,-0.425112,-0.091814,-0.107571,-0.059616,-93.526245,-45.353504,94.700562,-0.634813,0.261187,0.673344,-0.274593
1198,6.924283,-6.812793,-0.418318,-0.022470,-0.053503,-0.065033,-93.530975,-45.355400,94.704544,-0.634798,0.261178,0.673368,-0.274576
1199,6.925559,-6.816391,-0.420215,-0.033156,-0.073399,-0.042899,-93.534157,-45.357067,94.707718,-0.634788,0.261168,0.673387,-0.274566
1200,6.926455,-6.815649,-0.416465,-0.003970,-0.035461,-0.046976,-93.536713,-45.358452,94.710426,-0.634779,0.261158,0.673401,-0.274558
1201,6.921402,-6.814232,-0.416560,-0.018180,-0.042513,-0.012757,-93.538460,-45.359364,94.712364,-0.634773,0.261151,0.673412,-0.274553
1202,6.924143,-6.809896,-0.419773,-0.060471,-0.075555,-0.072999,-93.541847,-45.360672,94.715286,-0.634762,0.261145,0.673429,-0.274542
1203,6.928608,-6.817863,-0.422446,-0.091929,-0.086356,-0.047907,-93.547241,-45.362518,94.719292,-0.634745,0.261141,0.673455,-0.274522
1205,6.927578,-6.817329,-0.426443,-0.106177,-0.107603,-0.035360,-93.553894,-45.363705,94.724007,-0.634722,0.261144,0.673484,-0.274502
1206,6.927451,-6.824207,-0.427515,-0.111051,-0.123896,0.010829,-93.561447,-45.363876,94.729530,-0.634692,0.261152,0.673515,-0.274488
1207,6.933010,-6.826898,-0.428011,-0.107849,-0.120744,-0.019352,-93.569221,-45.363762,94.735336,-0.634660,0.261162,0.673546,-0.274475
1208,6.932123,-6.829780,-0.421754,-0.031806,-0.070191,0.009281,-93.574776,-45.363724,94.739861,-0.634637,0.261166,0.673570,-0.274467
1209,6.931732,-6.830987,-0.426820,-0.058318,-0.108759,0.027473,-93.579254,-45.362926,94.744034,-0.634614,0.261171,0.673589,-0.274469
1210,6.928629,-6.829027,-0.421216,-0.013220,-0.051215,0.039940,-93.583069,-45.361633,94.747734,-0.634593,0.261177,0.673604,-0.274474
1212,6.924057,-6.821301,-0.419268,0.016471,-0.024033,0.021289,-93.584213,-45.360535,94.749428,-0.634583,0.261180,0.673608,-0.274483
1213,6.926395,-6.816428,-0.411402,0.090854,0.052132,-0.039516,-93.581978,-45.360882,94.748795,-0.634591,0.261170,0.673602,-0.274491
1214,6.930216,-6.812189,-0.414596,0.066250,0.025147,-0.104665,-93.578209,-45.363361,94.747169,-0.634610,0.261144,0.673594,-0.274490
1215,6.930770,-6.815392,-0.408192,0.130889,0.076645,-0.080814,-93.573410,-45.366554,94.745049,-0.634635,0.261112,0.673584,-0.274488
1216,6.933687,-6.809055,-0.408876,0.126538,0.058241,-0.156711,-93.567085,-45.370636,94.742195,-0.634668,0.261070,0.673570,-0.274486
1217,6.939831,-6.810457,-0.409605,0.096736,0.050050,-0.201706,-93.561920,-45.376709,94.740158,-0.634701,0.261019,0.673565,-0.274471
1219,6.934666,-6.811882,-0.415962,0.036929,-0.008629,-0.129431,-93.559334,-45.382259,94.739662,-0.634723,0.260976,0.673568,-0.274452
1220,6.931354,-6.815086,-0.415895,0.033581,-0.006865,-0.058301,-93.558624,-45.385372,94.740311,-0.634732,0.260950,0.673574,-0.274442
1221,6.931060,-6.810327,-0.416875,0.020876,-0.011676,-0.077552,-93.558182,-45.387615,94.740959,-0.634738,0.260931,0.673579,-0.274436
1222,6.930405,-6.824415,-0.415771,0.038299,-0.003486,0.056511,-93.557472,-45.387943,94.741348,-0.634739,0.260923,0.673579,-0.274440
1223,6.926915,-6.827941,-0.411247,0.105802,0.035010,0.127701,-93.554337,-45.384911,94.740318,-0.634741,0.260929,0.673563,-0.274470
1224,6.929805,-6.828356,-0.411796,0.095413,0.032254,0.101121,-93.549599,-45.381168,94.738388,-0.634746,0.260935,0.673540,-0.274508
1226,6.930633,-6.824290,-0.415044,0.054334,0.001296,0.037228,-93.546394,-45.378906,94.737396,-0.634749,0.260936,0.673526,-0.274534
1227,6.930542,-6.824421,-0.416974,0.020102,-0.020845,0.011445,-93.545433,-45.378075,94.737785,-0.634748,0.260934,0.673523,-0.274547
1228,6.933009,-6.817993,-0.419835,-0.000080,-0.047426,-0.066070,-93.546303,-45.378910,94.739479,-0.634744,0.260924,0.673530,-0.274546
1229,6.934445,-6.814498,-0.423191,-0.034807,-0.078611,-0.113225,-93.549202,-45.381771,94.742729,-0.634738,0.260904,0.673550,-0.274531
1230,6.934209,-6.813927,-0.424041,-0.033167,-0.081793,-0.101141,-93.553261,-45.385170,94.746841,-0.634728,0.260883,0.673576,-0.274511
1231,6.934319,-6.824150,-0.421606,0.003795,-0.057698,-0.000213,-93.556206,-45.386711,94.750290,-0.634717,0.260870,0.673594,-0.274504
1233,6.935139,-6.821120,-0.423285,0.001985,-0.057901,-0.012363,-93.558067,-45.386791,94.753036,-0.634707,0.260864,0.673604,-0.274508
1234,6.930726,-6.824913,-0.421067,0.007299,-0.027505,0.045403,-93.559319,-45.386154,94.755013,-0.634697,0.260863,0.673611,-0.274515
1235,6.932745,-6.822554,-0.422120,-0.005923,-0.023262,0.007782,-93.560097,-45.385223,94.756149,-0.634690,0.260866,0.673613,-0.274522
1236,6.931091,-6.828375,-0.417919,0.037087,0.015049,0.048518,-93.559654,-45.384274,94.756248,-0.634688,0.260868,0.673611,-0.274530
1237,6.927545,-6.824131,-0.417270,0.052115,0.029102,0.051018,-93.557320,-45.382675,94.755066,-0.634692,0.260872,0.673599,-0.274547
1238,6.927160,-6.823140,-0.407879,0.123858,0.100995,0.037971,-93.552116,-45.381321,94.751854,-0.634708,0.260869,0.673577,-0.274567
1239,6.929765,-6.824638,-0.412649,0.075598,0.061954,0.033637,-93.545959,-45.380302,94.747887,-0.634729,0.260864,0.673551,-0.274587
1240,6.927362,-6.824565,-0.412331,0.081362,0.060518,0.055021,-93.541191,-45.378956,94.744865,-0.634743,0.260863,0.673530,-0.274606
1241,6.928695,-6.821889,-0.416048,0.058403,0.010259,0.038440,-93.537567,-45.377472,94.743042,-0.634752,0.260863,0.673515,-0.274626
1242,6.931226,-6.822542,-0.416363,0.035809,-0.008227,0.015243,-93.535912,-45.376587,94.742920,-0.634753,0.260859,0.673509,-0.274640
1243,6.930450,-6.830508,-0.421421,-0.001961,-0.057102,0.086495,-93.536331,-45.374817,94.744316,-0.634744,0.260863,0.673509,-0.274655
1244,6.928558,-6.826682,-0.418571,0.032256,-0.038109,0.072702,-93.537270,-45.372070,94.746338,-0.634730,0.260872,0.673511,-0.274676
1245,6.929663,-6.829216,-0.417823,0.045242,-0.039146,0.087012,-93.537125,-45.369343,94.747948,-0.634719,0.260878,0.673509,-0.274702
1246,6.928615,-6.824107,-0.416648,0.032394,-0.021977,0.041295,-93.536728,-45.367146,94.749207,-0.634710,0.260881,0.673507,-0.274723
1247,6.929789,-6.820605,-0.418442,0.033748,-0.030398,-0.014401,-93.536476,-45.366634,94.750397,-0.634707,0.260875,0.673508,-0.274734
1248,6.932106,-6.814743,-0.418654,0.027268,-0.028085,-0.085299,-93.536545,-45.368237,94.751923,-0.634707,0.260857,0.673514,-0.274733
1249,6.933897,-6.815167,-0.417656,0.022076,-0.029595,-0.116330,-93.536903,-45.371540,94.753586,-0.634712,0.260831,0.673526,-0.274722
1250,6.932740,-6.817060,-0.418758,-0.003994,-0.037914,-0.087454,-93.537949,-45.374851,94.755478,-0.634714,0.260806,0.673539,-0.274707
1251,6.934200,-6.818198,-0.419090,-0.003583,-0.033190,-0.081825,-93.539459,-45.377598,94.757416,-0.634713,0.260788,0.673552,-0.274693
1252,6.932123,-6.824981,-0.418028,-0.011226,-0.039434,0.025139,-93.540985,-45.378464,94.759216,-0.634708,0.260781,0.673561,-0.274690
1253,6.926819,-6.825412,-0.415472,0.011651,-0.016199,0.077396,-93.541809,-45.376705,94.760384,-0.634698,0.260788,0.673563,-0.274701
1254,6.925732,-6.825660,-0.414648,0.019447,-0.002656,0.098728,-93.541420,-45.373753,94.760567,-0.634691,0.260802,0.673557,-0.274721
1255,6.923833,-6.826168,-0.415525,0.024353,-0.012471,0.109743,-93.540733,-45.370277,94.760635,-0.634683,0.260818,0.673548,-0.274745
1256,6.923937,-6.832344,-0.416715,0.021598,-0.031792,0.155173,-93.540436,-45.365826,94.761292,-0.634669,0.260838,0.673540,-0.274776
1257,6.923191,-6.827028,-0.420114,-0.014002,-0.045100,0.091183,-93.541344,-45.361645,94.762741,-0.634652,0.260858,0.673538,-0.274802
1258,6.923744,-6.827980,-0.424441,-0.046813,-0.082696,0.080233,-93.544334,-45.358662,94.765533,-0.634631,0.260875,0.673546,-0.274817
1259,6.924450,-6.831718,-0.428276,-0.061410,-0.106535,0.106072,-93.549133,-45.355366,94.769737,-0.634600,0.260896,0.673560,-0.274831
1260,6.923795,-6.831933,-0.424070,-0.031018,-0.071054,0.102466,-93.553444,-45.351711,94.773628,-0.634571,0.260918,0.673573,-0.274848
1261,6.921970,-6.827386,-0.418207,0.016303,-0.024206,0.067899,-93.555122,-45.348782,94.775635,-0.634555,0.260932,0.673575,-0.274866
1262,6.922220,-6.824899,-0.412906,0.075800,0.020906,0.040792,-93.553528,-45.346962,94.775551,-0.634553,0.260934,0.673568,-0.274885
1263,6.924484,-6.823694,-0.413108,0.081166,0.020604,0.020464,-93.550133,-45.345985,94.774467,-0.634561,0.260927,0.673555,-0.274904
1264,6.922147,-6.827120,-0.413987,0.057122,0.010372,0.070876,-93.547218,-45.344494,94.773605,-0.634566,0.260925,0.673544,-0.274925
1265,6.921106,-6.824616,-0.419193,0.003903,-0.024239,0.058395,-93.546295,-45.342327,94.773743,-0.634561,0.260931,0.673538,-0.274944
1266,6.924007,-6.820992,-0.424572,-0.037196,-0.063884,-0.003402,-93.548279,-45.341320,94.775742,-0.634549,0.260936,0.673545,-0.274949
1267,6.921063,-6.826159,-0.423168,-0.022523,-0.054583,0.054672,-93.551224,-45.340351,94.778481,-0.634533,0.260942,0.673556,-0.274952
1268,6.920347,-6.828369,-0.421127,-0.016873,-0.039368,0.065142,-93.553329,-45.338261,94.780525,-0.634518,0.260954,0.673562,-0.274963
1269,6.921869,-6.821212,-0.417259,0.010502,-0.017499,-0.023660,-93.554352,-45.337517,94.781815,-0.634510,0.260956,0.673566,-0.274968
1270,6.921665,-6.819439,-0.413048,0.051576,0.015812,-0.044427,-93.553421,-45.338638,94.781952,-0.634515,0.260944,0.673566,-0.274968
1271,6.919213,-6.824950,-0.412116,0.058193,0.027458,0.028780,-93.550873,-45.338951,94.780945,-0.634524,0.260934,0.673558,-0.274976
1272,6.925843,-6.825768,-0.413922,0.036621,0.011650,-0.014117,-93.548607,-45.338745,94.779991,-0.634531,0.260928,0.673550,-0.274985
1273,6.922246,-6.825142,-0.414471,0.038777,0.003069,0.020453,-93.547112,-45.338657,94.779640,-0.634535,0.260922,0.673546,-0.274992
1274,6.921329,-6.824603,-0.417984,0.029402,-0.009956,0.024745,-93.546036,-45.337894,94.779732,-0.634535,0.260920,0.673542,-0.275003
1275,6.921764,-6.820066,-0.419432,0.011036,-0.033484,-0.023072,-93.546097,-45.337822,94.780762,-0.634533,0.260915,0.673544,-0.275009
1276,6.922761,-6.821915,-0.420254,0.008314,-0.033672,-0.031255,-93.546967,-45.338657,94.782440,-0.634529,0.260905,0.673552,-0.275009
1277,6.920862,-6.819303,-0.424271,-0.023833,-0.061426,-0.044947,-93.548904,-45.339825,94.784790,-0.634522,0.260895,0.673564,-0.275004
1278,6.926522,-6.820134,-0.425251,-0.034179,-0.055797,-0.089964,-93.551979,-45.341949,94.787766,-0.634514,0.260883,0.673582,-0.274990
1279,6.930187,-6.822119,-0.419637,0.007097,-0.008660,-0.091604,-93.553711,-45.344906,94.789566,-0.634514,0.260865,0.673596,-0.274973
1280,6.929394,-6.834468,-0.419021,0.043106,0.014236,0.036527,-93.552841,-45.345829,94.789513,-0.634518,0.260855,0.673596,-0.274973
1281,6.928106,-6.838552,-0.417107,0.063217,0.027118,0.089241,-93.550247,-45.343781,94.788353,-0.634521,0.260859,0.673583,-0.274993
1282,6.926379,-6.832374,-0.411247,0.101394,0.073055,0.055215,-93.545670,-45.341476,94.785759,-0.634532,0.260862,0.673562,-0.275019
1283,6.923362,-6.828145,-0.414083,0.069882,0.042069,0.035282,-93.540771,-45.340088,94.782906,-0.634546,0.260860,0.673541,-0.275040
1284,6.921820,-6.827605,-0.415799,0.055238,0.028362,0.029735,-93.537437,-45.339081,94.781151,-0.634555,0.260857,0.673527,-0.275055
1285,6.922031,-6.817703,-0.415215,0.041105,0.028714,-0.066412,-93.534889,-45.339741,94.779831,-0.634565,0.260847,0.673519,-0.275059
1286,6.920816,-6.811069,-0.412239,0.055336,0.041374,-0.104839,-93.532288,-45.342667,94.778435,-0.634583,0.260824,0.673515,-0.275050
1288,6.925257,-6.814170,-0.418056,0.035245,-0.005026,-0.117559,-93.530388,-45.346405,94.777893,-0.634599,0.260796,0.673517,-0.275037
1289,6.923697,-6.819976,-0.412046,0.093659,0.026965,-0.047192,-93.528038,-45.349167,94.777611,-0.634612,0.260768,0.673516,-0.275034
1290,6.922591,-6.822702,-0.415917,0.059252,-0.028516,0.009967,-93.525551,-45.349781,94.777687,-0.634620,0.260751,0.673511,-0.275045
1291,6.928638,-6.824465,-0.417972,0.036150,-0.049780,-0.021094,-93.525307,-45.349892,94.779572,-0.634616,0.260738,0.673515,-0.275056
1292,6.925306,-6.822228,-0.421894,0.000842,-0.081539,-0.015240,-93.526939,-45.350365,94.782730,-0.634606,0.260725,0.673527,-0.275062
1293,6.921847,-6.826925,-0.418452,0.016498,-0.055937,0.061337,-93.528908,-45.349457,94.785919,-0.634591,0.260723,0.673537,-0.275073
1294,6.925305,-6.827197,-0.416822,0.036640,-0.023169,0.047105,-93.529243,-45.347565,94.787628,-0.634581,0.260725,0.673538,-0.275091
1295,6.927092,-6.829354,-0.413892,0.060772,0.005929,0.034461,-93.527832,-45.346199,94.787926,-0.634580,0.260724,0.673533,-0.275109
1296,6.922925,-6.828808,-0.407943,0.102210,0.052471,0.066045,-93.524025,-45.344578,94.786392,-0.634588,0.260721,0.673517,-0.275132
1297,6.927807,-6.825348,-0.409067,0.105794,0.048118,-0.005197,-93.518806,-45.343674,94.783928,-0.634603,0.260712,0.673497,-0.275154
1298,6.927169,-6.825109,-0.406548,0.110732,0.074562,-0.004116,-93.513130,-45.343945,94.781029,-0.634624,0.260696,0.673478,-0.275170
1299,6.925517,-6.824575,-0.408990,0.071056,0.050729,-0.002407,-93.508003,-45.344185,94.778076,-0.634643,0.260683,0.673459,-0.275182
1300,6.921263,-6.819657,-0.409801,0.073694,0.064213,-0.003804,-93.503662,-45.344402,94.775360,-0.634660,0.260674,0.673443,-0.275191
1301,6.924933,-6.824248,-0.410447,0.098452,0.060890,0.015177,-93.498680,-45.344349,94.772392,-0.634679,0.260664,0.673424,-0.275205
1302,6.925224,-6.833167,-0.405120,0.142038,0.102215,0.083979,-93.491821,-45.342861,94.768394,-0.634700,0.260658,0.673396,-0.275231
1303,6.923329,-6.831134,-0.408774,0.131633,0.047316,0.071629,-93.484596,-45.340427,94.764641,-0.634718,0.260654,0.673365,-0.275267
1304,6.924006,-6.829829,-0.407077,0.144014,0.056532,0.051339,-93.478127,-45.338486,94.762009,-0.634734,0.260645,0.673340,-0.275301
1305,6.925555,-6.827946,-0.408259,0.130026,0.038195,0.012391,-93.471901,-45.337513,94.759659,-0.634751,0.260630,0.673318,-0.275330
1306,6.924998,-6.820174,-0.410576,0.082589,0.015532,-0.061165,-93.467491,-45.338375,94.758461,-0.634766,0.260607,0.673306,-0.275344
1307,6.924537,-6.817996,-0.414084,0.040538,-0.024681,-0.066618,-93.465736,-45.340496,94.758865,-0.634775,0.260583,0.673307,-0.275345
1308,6.927936,-6.815120,-0.411498,0.046527,0.014993,-0.108690,-93.464638,-45.343410,94.759354,-0.634785,0.260558,0.673311,-0.275338
1309,6.928714,-6.816752,-0.414011,0.025477,-0.008658,-0.109535,-93.463547,-45.347042,94.759514,-0.634797,0.260530,0.673316,-0.275324
1310,6.927517,-6.817700,-0.413187,0.014905,-0.013025,-0.081565,-93.463425,-45.350201,94.760300,-0.634804,0.260506,0.673323,-0.275311
1311,6.925537,-6.828746,-0.406208,0.079495,0.036331,0.035130,-93.461533,-45.351002,94.759827,-0.634812,0.260494,0.673319,-0.275316
1312,6.925345,-6.819176,-0.402135,0.105053,0.076099,-0.045102,-93.456558,-45.351273,94.757179,-0.634830,0.260481,0.673302,-0.275328
1313,6.921653,-6.821453,-0.401595,0.076836,0.061663,0.007745,-93.451248,-45.352039,94.753967,-0.634852,0.260466,0.673283,-0.275338
1314,6.921060,-6.822623,-0.400880,0.067470,0.068142,0.048051,-93.446609,-45.351234,94.750824,-0.634868,0.260463,0.673263,-0.275352
1315,6.921413,-6.824693,-0.398338,0.089567,0.074467,0.056018,-93.441475,-45.349644,94.747292,-0.634883,0.260464,0.673240,-0.275372
1316,6.921853,-6.816690,-0.403530,0.020936,0.015667,-0.019749,-93.438087,-45.349136,94.745110,-0.634895,0.260461,0.673226,-0.275382
1317,6.921497,-6.821383,-0.407624,-0.039849,-0.029768,0.013644,-93.438637,-45.349216,94.745445,-0.634893,0.260462,0.673228,-0.275380
1318,6.919684,-6.822911,-0.405002,0.007570,-0.002017,0.035527,-93.439667,-45.348366,94.746124,-0.634887,0.260468,0.673230,-0.275383
1319,6.920470,-6.819519,-0.404634,0.023717,-0.000422,-0.014801,-93.439171,-45.348022,94.746162,-0.634887,0.260468,0.673229,-0.275388
1320,6.920954,-6.814366,-0.401623,0.030364,0.030779,-0.059758,-93.437836,-45.349289,94.745552,-0.634895,0.260456,0.673226,-0.275385
1321,6.919944,-6.819621,-0.401269,0.042250,0.034855,-0.009498,-93.435577,-45.350506,94.744087,-0.634907,0.260446,0.673220,-0.275384
1322,6.919352,-6.819635,-0.401761,0.042133,0.038791,0.003892,-93.432953,-45.350681,94.742371,-0.634918,0.260440,0.673210,-0.275389
1323,6.921072,-6.818238,-0.406192,-0.008446,-0.000125,-0.018850,-93.431740,-45.350956,94.741463,-0.634923,0.260437,0.673206,-0.275389
1324,6.922540,-6.815275,-0.402677,-0.003365,0.018203,-0.053864,-93.431709,-45.352188,94.741135,-0.634927,0.260432,0.673207,-0.275380
1325,6.924437,-6.818987,-0.406009,-0.016879,-0.013529,-0.031435,-93.432060,-45.353611,94.741142,-0.634930,0.260426,0.673211,-0.275370
1326,6.922432,-6.813665,-0.405213,0.002702,0.001528,-0.047574,-93.432587,-45.354919,94.741554,-0.634932,0.260419,0.673216,-0.275362
1327,6.925638,-6.820006,-0.405141,0.019162,-0.003542,-0.016778,-93.432320,-45.355988,94.741699,-0.634935,0.260410,0.673217,-0.275358
1328,6.929484,-6.819939,-0.405915,0.006381,-0.017654,-0.054665,-93.432320,-45.357147,94.742294,-0.634937,0.260400,0.673221,-0.275355
1329,6.925929,-6.820258,-0.408510,-0.013345,-0.036690,-0.028014,-93.433434,-45.358471,94.743698,-0.634935,0.260390,0.673229,-0.275349
1330,6.925715,-6.817094,-0.405026,0.011936,-0.008144,-0.060825,-93.434303,-45.359905,94.744881,-0.634934,0.260380,0.673237,-0.275342
1331,6.928567,-6.821595,-0.407254,-0.017108,-0.032327,-0.049870,-93.435188,-45.361713,94.746002,-0.634934,0.260368,0.673245,-0.275333
1332,6.929218,-6.813398,-0.402078,0.008776,0.004475,-0.125018,-93.435966,-45.364590,94.746902,-0.634938,0.260351,0.673255,-0.275317
1333,6.931967,-6.815538,-0.399372,0.034523,0.022897,-0.104221,-93.435028,-45.368431,94.746582,-0.634951,0.260325,0.673259,-0.275299
1334,6.932961,-6.817732,-0.399590,0.051234,0.014114,-0.084986,-93.433151,-45.371609,94.745972,-0.634966,0.260300,0.673259,-0.275289
1335,6.933906,-6.822160,-0.402697,0.013756,-0.013657,-0.047967,-93.432213,-45.373829,94.746170,-0.634974,0.260281,0.673262,-0.275283
1336,6.929359,-6.815024,-0.401951,0.012482,-0.007715,-0.067548,-93.432251,-45.375732,94.746841,-0.634977,0.260267,0.673267,-0.275275
1337,6.927083,-6.817786,-0.407771,-0.020426,-0.054743,-0.023375,-93.433533,-45.377186,94.748451,-0.634974,0.260256,0.673277,-0.275269
1338,6.920835,-6.819514,-0.404989,0.027590,-0.025747,0.034996,-93.434761,-45.376911,94.750343,-0.634966,0.260253,0.673283,-0.275273
1339,6.924587,-6.818592,-0.399981,0.065176,0.017877,-0.001160,-93.433311,-45.376339,94.750481,-0.634968,0.260248,0.673279,-0.275286
1340,6.925605,-6.813226,-0.401059,0.052262,0.011101,-0.048227,-93.430923,-45.377190,94.749870,-0.634977,0.260233,0.673274,-0.275292
1341,6.928746,-6.815837,-0.400153,0.063284,0.014742,-0.043143,-93.428650,-45.378731,94.749382,-0.634988,0.260215,0.673270,-0.275294
1342,6.927691,-6.817311,-0.391853,0.130416,0.086032,-0.019181,-93.423775,-45.379868,94.747078,-0.635007,0.260195,0.673255,-0.275303
1343,6.930388,-6.816944,-0.396505,0.073358,0.031243,-0.044119,-93.418472,-45.381039,94.744400,-0.635029,0.260174,0.673239,-0.275313
1344,6.928164,-6.822853,-0.402920,0.039466,-0.009194,0.024238,-93.416245,-45.381397,94.743912,-0.635036,0.260163,0.673233,-0.275321
1345,6.922612,-6.823114,-0.408443,0.051319,-0.034538,0.069799,-93.415375,-45.379791,94.744812,-0.635032,0.260162,0.673230,-0.275340
1346,6.924834,-6.828421,-0.407668,0.187650,0.050194,0.080498,-93.410980,-45.377300,94.744232,-0.635036,0.260155,0.673213,-0.275377
1347,6.922128,-6.827689,-0.412057,0.181791,0.021703,0.100696,-93.403427,-45.374359,94.742264,-0.635050,0.260142,0.673185,-0.275427
1348,6.922791,-6.823950,-0.411813,0.157674,0.025993,0.062188,-93.396805,-45.371696,94.740921,-0.635061,0.260128,0.673161,-0.275474
1349,6.920816,-6.817657,-0.405596,0.167329,0.054036,0.015451,-93.389954,-45.370487,94.738907,-0.635078,0.260109,0.673137,-0.275510
1350,6.925215,-6.822525,-0.398033,0.182715,0.083917,0.023198,-93.381752,-45.369976,94.735580,-0.635103,0.260086,0.673109,-0.275542
1351,6.924987,-6.817389,-0.395518,0.052571,0.017482,-0.008835,-93.376114,-45.369835,94.733170,-0.635121,0.260070,0.673090,-0.275563
1352,6.928683,-6.824188,-0.395797,0.015981,-0.008500,0.009381,-93.374825,-45.369839,94.732956,-0.635125,0.260064,0.673086,-0.275569
1353,6.928164,-6.824409,-0.392793,0.056458,0.007556,0.012361,-93.373604,-45.369469,94.732941,-0.635127,0.260059,0.673082,-0.275578
1354,6.926936,-6.819911,-0.395236,0.048238,-0.016121,-0.008405,-93.371994,-45.369396,94.733124,-0.635130,0.260049,0.673079,-0.275589
1355,6.925334,-6.820034,-0.392011,0.064264,0.013181,-0.011207,-93.370178,-45.369717,94.733223,-0.635134,0.260037,0.673075,-0.275599
1356,6.926746,-6.823406,-0.395232,0.032968,-0.010362,-0.009335,-93.368546,-45.370068,94.733192,-0.635139,0.260026,0.673072,-0.275606
1357,6.928327,-6.818820,-0.392923,0.045195,0.014247,-0.058774,-93.367233,-45.371201,94.733192,-0.635145,0.260012,0.673071,-0.275607
1358,6.929895,-6.818217,-0.394222,0.032932,-0.004893,-0.071595,-93.365906,-45.373383,94.733147,-0.635154,0.259993,0.673072,-0.275603
1359,6.933156,-6.820249,-0.393917,0.033628,-0.005353,-0.084893,-93.365128,-45.375973,94.733612,-0.635162,0.259971,0.673076,-0.275595
1360,6.931901,-6.819842,-0.398882,0.005433,-0.053188,-0.063738,-93.365616,-45.378395,94.735207,-0.635164,0.259950,0.673086,-0.275587
1361,6.926790,-6.817935,-0.395363,0.044765,-0.015245,-0.022074,-93.366013,-45.379757,94.736954,-0.635162,0.259935,0.673093,-0.275587
1362,6.923066,-6.825689,-0.395534,0.055174,-0.027371,0.077955,-93.365005,-45.378784,94.737877,-0.635160,0.259929,0.673091,-0.275604
1363,6.921214,-6.829917,-0.395920,0.065280,-0.015588,0.125215,-93.363525,-45.375366,94.738625,-0.635152,0.259936,0.673083,-0.275636
1364,6.923538,-6.838103,-0.391039,0.101984,0.034514,0.172285,-93.360115,-45.370426,94.737747,-0.635148,0.259951,0.673063,-0.275679
1365,6.925513,-6.835722,-0.388960,0.096401,0.056238,0.121521,-93.354988,-45.365631,94.735199,-0.635153,0.259965,0.673035,-0.275722
1366,6.926649,-6.836077,-0.392674,0.060931,0.004408,0.100719,-93.351128,-45.361996,94.733452,-0.635156,0.259974,0.673015,-0.275756
1367,6.928552,-6.827999,-0.391211,0.044017,0.018810,0.016021,-93.348862,-45.360069,94.732735,-0.635157,0.259977,0.673004,-0.275776
1368,6.929823,-6.827373,-0.388418,0.040196,0.040850,-0.015912,-93.346458,-45.360126,94.731323,-0.635166,0.259972,0.672995,-0.275782
1369,6.929828,-6.824255,-0.391920,0.019687,0.001566,-0.025365,-93.344788,-45.360847,94.730377,-0.635174,0.259964,0.672991,-0.275782
1370,6.929873,-6.827281,-0.392033,0.033862,-0.001071,-0.002120,-93.343925,-45.361309,94.730408,-0.635178,0.259956,0.672989,-0.275785
1371,6.931378,-6.829769,-0.385733,0.087782,0.051536,-0.000480,-93.341049,-45.361401,94.729218,-0.635187,0.259947,0.672980,-0.275795
1372,6.927539,-6.831402,-0.392427,0.025978,-0.006114,0.044891,-93.338348,-45.360714,94.728088,-0.635194,0.259942,0.672970,-0.275808
1373,6.928130,-6.830925,-0.392297,0.033347,-0.016475,0.037535,-93.337662,-45.359322,94.728516,-0.635191,0.259944,0.672966,-0.275823
1374,6.926560,-6.827944,-0.394502,0.002396,-0.028544,0.004404,-93.337769,-45.358582,94.729515,-0.635186,0.259943,0.672967,-0.275832
1375,6.928891,-6.822550,-0.395194,-0.013406,-0.040617,-0.061546,-93.339180,-45.359467,94.731239,-0.635181,0.259936,0.672976,-0.275828
1376,6.932671,-6.818467,-0.403812,-0.091284,-0.112755,-0.120630,-93.343689,-45.362350,94.735130,-0.635170,0.259921,0.673002,-0.275807
1377,6.934398,-6.817474,-0.399806,-0.032886,-0.078783,-0.140364,-93.349251,-45.366501,94.740021,-0.635157,0.259900,0.673034,-0.275778
1378,6.936814,-6.815012,-0.403624,-0.054038,-0.096917,-0.170923,-93.353966,-45.371513,94.744614,-0.635149,0.259870,0.673066,-0.275747
1379,6.933124,-6.817983,-0.402479,-0.041577,-0.086532,-0.102369,-93.358917,-45.375877,94.749329,-0.635138,0.259845,0.673097,-0.275719
1380,6.926157,-6.815102,-0.404299,-0.044009,-0.097715,-0.047902,-93.363602,-45.378197,94.753906,-0.635123,0.259831,0.673123,-0.275704
1381,6.921745,-6.819704,-0.401356,0.008508,-0.063156,0.042704,-93.366920,-45.378128,94.757721,-0.635106,0.259827,0.673139,-0.275706
1382,6.927084,-6.822872,-0.402819,-0.006399,-0.077145,0.031316,-93.369179,-45.376762,94.760948,-0.635089,0.259828,0.673149,-0.275718
1383,6.922359,-6.820277,-0.401826,-0.003344,-0.071763,0.053614,-93.371750,-45.375198,94.764343,-0.635071,0.259832,0.673160,-0.275731
1384,6.928373,-6.820521,-0.403042,-0.007673,-0.070169,0.009114,-93.374275,-45.374020,94.767624,-0.635054,0.259833,0.673172,-0.275741
1385,6.935279,-6.825745,-0.403025,-0.014715,-0.065540,-0.015488,-93.376930,-45.373985,94.770836,-0.635040,0.259829,0.673185,-0.275743
1386,6.938932,-6.822177,-0.402123,-0.030801,-0.053544,-0.083120,-93.379807,-45.375511,94.773804,-0.635031,0.259819,0.673202,-0.275734
1387,6.934883,-6.816774,-0.400883,-0.027986,-0.028679,-0.107212,-93.382362,-45.378605,94.776024,-0.635028,0.259802,0.673219,-0.275714
1388,6.934579,-6.825768,-0.404364,-0.042184,-0.057329,-0.015423,-93.385109,-45.380566,94.778229,-0.635022,0.259793,0.673234,-0.275699
1389,6.930807,-6.820147,-0.406011,-0.057362,-0.088791,-0.030446,-93.389267,-45.381176,94.781754,-0.635006,0.259792,0.673254,-0.275691
1391,6.929180,-6.824018,-0.405791,-0.060242,-0.092824,0.015352,-93.394302,-45.381248,94.786072,-0.634984,0.259794,0.673276,-0.275685
1392,6.925633,-6.825264,-0.408022,-0.074622,-0.114359,0.052467,-93.399979,-45.379921,94.790886,-0.634956,0.259805,0.673298,-0.275685
1393,6.927357,-6.822190,-0.405828,-0.032597,-0.110686,0.014729,-93.405472,-45.378571,94.796112,-0.634927,0.259813,0.673320,-0.275690
1394,6.927553,-6.816787,-0.399570,-0.005568,-0.058534,-0.057473,-93.409004,-45.379116,94.800179,-0.634911,0.259805,0.673339,-0.275688
1395,6.926930,-6.823782,-0.399445,-0.023537,-0.054313,0.001498,-93.411446,-45.379936,94.802933,-0.634901,0.259798,0.673353,-0.275685
1396,6.927373,-6.824102,-0.396544,0.016771,-0.015176,0.012989,-93.412712,-45.379627,94.804550,-0.634894,0.259797,0.673359,-0.275688
1397,6.929812,-6.825002,-0.398547,0.011131,-0.030939,0.005957,-93.413017,-45.379272,94.805626,-0.634889,0.259794,0.673361,-0.275694
1398,6.930543,-6.824416,-0.399981,-0.020485,-0.026942,-0.007226,-93.414154,-45.379230,94.806999,-0.634883,0.259793,0.673367,-0.275695
1399,6.932981,-6.822134,-0.396688,0.034214,0.007625,-0.037363,-93.414291,-45.379955,94.807518,-0.634884,0.259786,0.673370,-0.275693
1400,6.929471,-6.823454,-0.392892,0.098483,0.043971,0.014766,-93.411232,-45.380383,94.806328,-0.634895,0.259774,0.673361,-0.275702
1401,6.928398,-6.823246,-0.393514,0.093383,0.027602,0.017960,-93.406792,-45.379910,94.804588,-0.634908,0.259762,0.673345,-0.275721
1402,6.928948,-6.821939,-0.391338,0.101855,0.041842,0.002750,-93.402351,-45.379631,94.802910,-0.634921,0.259749,0.673330,-0.275740
1403,6.929580,-6.829286,-0.394805,0.063332,0.008726,0.062856,-93.398674,-45.378590,94.801613,-0.634930,0.259742,0.673316,-0.275760
1404,6.925200,-6.829743,-0.398258,0.017782,-0.022761,0.103637,-93.397408,-45.375805,94.801727,-0.634925,0.259751,0.673308,-0.275784
1405,6.930696,-6.825123,-0.401664,-0.022971,-0.047986,0.000213,-93.398575,-45.374016,94.803246,-0.634913,0.259759,0.673311,-0.275796
1406,6.933197,-6.825415,-0.400171,-0.016960,-0.026749,-0.016936,-93.400513,-45.374214,94.805038,-0.634905,0.259758,0.673320,-0.275793
1407,6.926845,-6.822530,-0.403185,-0.029085,-0.053150,0.013312,-93.402626,-45.374195,94.806938,-0.634896,0.259758,0.673329,-0.275791
1408,6.924278,-6.825673,-0.396476,0.058978,0.008548,0.071635,-93.402794,-45.372738,94.807869,-0.634889,0.259762,0.673329,-0.275804
1409,6.928082,-6.822234,-0.397620,0.057221,0.008854,0.008494,-93.400482,-45.371426,94.807343,-0.634892,0.259760,0.673320,-0.275822
1410,6.927084,-6.821886,-0.395228,0.062389,0.027858,0.007974,-93.397858,-45.371181,94.806450,-0.634899,0.259752,0.673311,-0.275834
1411,6.922378,-6.820572,-0.394353,0.055808,0.028876,0.032121,-93.394882,-45.370567,94.805046,-0.634908,0.259747,0.673299,-0.275847
1412,6.926641,-6.818732,-0.392472,0.066052,0.042380,-0.021477,-93.391640,-45.370461,94.803352,-0.634919,0.259740,0.673288,-0.275857
1413,6.925196,-6.810490,-0.391793,0.053898,0.032097,-0.083767,-93.388496,-45.372288,94.801743,-0.634935,0.259721,0.673280,-0.275856
1414,6.923533,-6.811916,-0.391459,0.048232,0.027767,-0.059258,-93.385933,-45.374722,94.800522,-0.634950,0.259700,0.673276,-0.275851
1415,6.920838,-6.814771,-0.392947,0.047078,0.011198,0.000787,-93.383743,-45.375736,94.799690,-0.634960,0.259687,0.673270,-0.275853
1416,6.922829,-6.811706,-0.392677,0.067089,0.015265,-0.048709,-93.381454,-45.376564,94.799141,-0.634969,0.259673,0.673265,-0.275859
1417,6.922684,-6.818459,-0.392665,0.062150,0.017518,0.009109,-93.378784,-45.377247,94.798416,-0.634979,0.259659,0.673258,-0.275867
1418,6.922046,-6.824005,-0.401341,-0.010960,-0.056743,0.052957,-93.378532,-45.376179,94.799255,-0.634974,0.259658,0.673258,-0.275879
1419,6.921652,-6.828909,-0.402543,-0.009581,-0.061027,0.104355,-93.380707,-45.373451,94.801819,-0.634956,0.259671,0.673263,-0.275896
1420,6.925481,-6.826176,-0.404769,-0.010367,-0.076857,0.052172,-93.383209,-45.370708,94.804878,-0.634935,0.259683,0.673271,-0.275914
1421,6.922175,-6.830193,-0.404338,-0.000856,-0.085778,0.117005,-93.385963,-45.367733,94.808487,-0.634912,0.259694,0.673280,-0.275934
1422,6.920474,-6.832294,-0.400628,0.039640,-0.050893,0.141419,-93.387367,-45.363300,94.811356,-0.634890,0.259710,0.673281,-0.275967
1423,6.920064,-6.831351,-0.397987,0.063939,-0.017860,0.128222,-93.386528,-45.358746,94.812607,-0.634876,0.259724,0.673274,-0.276005
1424,6.920592,-6.827607,-0.396660,0.067731,-0.020458,0.083419,-93.384773,-45.355190,94.813217,-0.634869,0.259731,0.673264,-0.276039
1425,6.919745,-6.834383,-0.397865,0.044122,-0.039910,0.124743,-93.383720,-45.351673,94.814362,-0.634859,0.259739,0.673257,-0.276071
1426,6.921086,-6.833213,-0.400615,0.010671,-0.052222,0.087688,-93.384140,-45.348045,94.816238,-0.634843,0.259751,0.673255,-0.276100
1427,6.926056,-6.830028,-0.407763,-0.047966,-0.102697,0.012789,-93.387268,-45.346214,94.819771,-0.634823,0.259758,0.673267,-0.276111
1428,6.929435,-6.827025,-0.403852,-0.024741,-0.061920,-0.043751,-93.391289,-45.346569,94.823715,-0.634805,0.259755,0.673287,-0.276107
1429,6.932196,-6.827206,-0.403922,-0.044147,-0.057175,-0.073289,-93.394562,-45.348400,94.826698,-0.634795,0.259745,0.673305,-0.276094
1430,6.936058,-6.818127,-0.397846,0.001788,0.009366,-0.175979,-93.396324,-45.352509,94.828178,-0.634799,0.259723,0.673320,-0.276069
1431,6.936471,-6.820572,-0.399159,-0.012197,-0.004690,-0.146150,-93.396729,-45.357864,94.828514,-0.634812,0.259692,0.673332,-0.276038
1432,6.934560,-6.819396,-0.392326,0.048710,0.042325,-0.128122,-93.395760,-45.362461,94.828011,-0.634828,0.259663,0.673338,-0.276015
1433,6.931925,-6.820025,-0.391891,0.067005,0.041754,-0.089039,-93.392616,-45.366161,94.826317,-0.634850,0.259635,0.673334,-0.276003
1434,6.931972,-6.824670,-0.390554,0.101689,0.063207,-0.035733,-93.388176,-45.368336,94.824005,-0.634871,0.259611,0.673322,-0.276004
1435,6.927210,-6.825585,-0.391964,0.101480,0.047545,0.018348,-93.382935,-45.368732,94.821411,-0.634890,0.259595,0.673304,-0.276018
1436,6.926749,-6.821498,-0.388848,0.126286,0.077452,-0.005540,-93.377029,-45.368645,94.818436,-0.634911,0.259581,0.673283,-0.276037
1437,6.926163,-6.822325,-0.388978,0.104618,0.071807,0.016355,-93.370651,-45.368610,94.814880,-0.634934,0.259566,0.673259,-0.276055
1438,6.927701,-6.820667,-0.389194,0.080564,0.067525,-0.012250,-93.365227,-45.368683,94.811600,-0.634954,0.259555,0.673239,-0.276068
1439,6.927061,-6.824071,-0.391368,0.051331,0.032941,0.012194,-93.361336,-45.368790,94.809219,-0.634969,0.259547,0.673225,-0.276077
1440,6.926863,-6.827794,-0.390640,0.062982,0.027464,0.049580,-93.358353,-45.367817,94.807701,-0.634977,0.259545,0.673212,-0.276092
1441,6.924233,-6.826922,-0.392015,0.065132,0.013414,0.072580,-93.355385,-45.365814,94.806549,-0.634981,0.259547,0.673198,-0.276114
1442,6.921309,-6.828863,-0.395198,0.049134,-0.000550,0.099727,-93.353111,-45.362972,94.806023,-0.634979,0.259554,0.673186,-0.276141
1443,6.919775,-6.836015,-0.398343,0.038112,-0.029579,0.178722,-93.351883,-45.358299,94.806335,-0.634968,0.259571,0.673175,-0.276176
1444,6.916455,-6.829910,-0.398537,0.032377,-0.024310,0.153412,-93.351303,-45.352722,94.807159,-0.634952,0.259595,0.673165,-0.276216
1445,6.914898,-6.829709,-0.398807,0.032531,-0.019627,0.150465,-93.350655,-45.347622,94.807777,-0.634938,0.259617,0.673155,-0.276252
1446,6.920158,-6.832376,-0.395090,0.062380,0.006388,0.096256,-93.349052,-45.343506,94.807747,-0.634931,0.259632,0.673143,-0.276284
1447,6.920104,-6.827612,-0.396066,0.038265,-0.021206,0.043946,-93.347496,-45.341167,94.807922,-0.634928,0.259636,0.673135,-0.276308
1448,6.920201,-6.815056,-0.398502,-0.000153,-0.042839,-0.079159,-93.347961,-45.341686,94.809464,-0.634924,0.259627,0.673140,-0.276311
1449,6.919502,-6.815773,-0.399236,0.002220,-0.061123,-0.058727,-93.349815,-45.343876,94.812119,-0.634920,0.259609,0.673155,-0.276302
1450,6.924228,-6.814208,-0.404457,-0.073478,-0.107136,-0.100412,-93.353996,-45.346363,94.816330,-0.634907,0.259593,0.673180,-0.276287
1451,6.919981,-6.815247,-0.408268,-0.120258,-0.128160,-0.042322,-93.361328,-45.348511,94.822105,-0.634882,0.259587,0.673214,-0.276263
1452,6.922882,-6.815259,-0.401466,-0.047635,-0.055042,-0.046295,-93.367310,-45.349804,94.826561,-0.634861,0.259587,0.673241,-0.276246
1453,6.924028,-6.821281,-0.400227,-0.022464,-0.042860,-0.000863,-93.370171,-45.350502,94.828957,-0.634851,0.259585,0.673255,-0.276238
1454,6.925528,-6.822032,-0.395257,0.014187,0.011475,-0.014614,-93.370850,-45.350727,94.829712,-0.634848,0.259583,0.673259,-0.276237
1455,6.923585,-6.820323,-0.395175,0.019339,0.010404,-0.023127,-93.369949,-45.351379,94.829239,-0.634853,0.259577,0.673257,-0.276236
1456,6.930031,-6.819148,-0.394458,0.031459,0.017079,-0.078936,-93.368729,-45.353096,94.828728,-0.634862,0.259563,0.673256,-0.276231
1457,6.933628,-6.820582,-0.393064,0.044039,0.035239,-0.102481,-93.366783,-45.356163,94.827744,-0.634877,0.259541,0.673255,-0.276219
1458,6.931674,-6.816787,-0.394313,0.020866,0.017024,-0.119928,-93.365036,-45.359913,94.826813,-0.634894,0.259515,0.673256,-0.276203
1459,6.934125,-6.813994,-0.400903,-0.030528,-0.046787,-0.159377,-93.365982,-45.364536,94.827911,-0.634902,0.259487,0.673270,-0.276177
1460,6.936084,-6.819757,-0.398083,0.013270,-0.014179,-0.107368,-93.367569,-45.368916,94.829727,-0.634906,0.259460,0.673286,-0.276153
1461,6.933910,-6.817132,-0.399574,0.001261,-0.032733,-0.101214,-93.368301,-45.372334,94.831116,-0.634910,0.259437,0.673298,-0.276137
1462,6.929228,-6.822015,-0.402662,-0.013496,-0.068162,-0.016347,-93.370331,-45.374195,94.833672,-0.634905,0.259422,0.673312,-0.276129
1463,6.932780,-6.829730,-0.400290,0.031663,-0.038662,0.028893,-93.371803,-45.373882,94.836182,-0.634894,0.259417,0.673321,-0.276136
1464,6.933506,-6.829951,-0.400518,0.046619,-0.023436,0.016574,-93.371506,-45.373066,94.837601,-0.634889,0.259412,0.673322,-0.276150
1465,6.932026,-6.823887,-0.395135,0.107687,0.023832,-0.034380,-93.368942,-45.373363,94.837616,-0.634896,0.259396,0.673316,-0.276164
1466,6.934754,-6.823706,-0.393278,0.134177,0.048850,-0.071748,-93.363808,-45.375202,94.836044,-0.634916,0.259366,0.673304,-0.276175
1467,6.937745,-6.816943,-0.399626,0.058204,-0.006657,-0.151376,-93.360115,-45.378948,94.835350,-0.634937,0.259328,0.673300,-0.276172
1468,6.932176,-6.818468,-0.402736,0.028099,-0.042596,-0.080915,-93.359726,-45.382763,94.836838,-0.634944,0.259296,0.673310,-0.276160
1469,6.930975,-6.814153,-0.398429,0.048987,-0.007898,-0.082910,-93.359459,-45.385441,94.838272,-0.634949,0.259271,0.673318,-0.276155
1470,6.931869,-6.812893,-0.403598,-0.025108,-0.059023,-0.092575,-93.360367,-45.388294,94.840096,-0.634950,0.259248,0.673330,-0.276143
1471,6.925550,-6.813029,-0.405881,-0.058314,-0.083762,-0.032083,-93.364281,-45.390232,94.843651,-0.634938,0.259238,0.673351,-0.276129
1472,6.928371,-6.814335,-0.400645,0.001631,-0.030219,-0.034262,-93.367226,-45.391228,94.846451,-0.634928,0.259232,0.673366,-0.276122
1473,6.933262,-6.815733,-0.397540,0.036956,0.002546,-0.054703,-93.367134,-45.392681,94.847229,-0.634930,0.259219,0.673371,-0.276118
1474,6.931064,-6.820090,-0.398776,0.022691,-0.021332,-0.006334,-93.366524,-45.393677,94.847763,-0.634933,0.259207,0.673372,-0.276119
1475,6.929295,-6.824992,-0.395905,0.055811,0.002690,0.057404,-93.365479,-45.392818,94.848137,-0.634932,0.259204,0.673369,-0.276132
1476,6.932696,-6.821076,-0.394526,0.074982,0.018049,-0.003759,-93.362885,-45.391941,94.847557,-0.634937,0.259198,0.673360,-0.276149
1477,6.923730,-6.825995,-0.391304,0.095393,0.032206,0.097407,-93.359100,-45.390427,94.846230,-0.634944,0.259193,0.673345,-0.276173
1478,6.924660,-6.822381,-0.392861,0.045084,0.013023,0.053178,-93.355850,-45.387966,94.844955,-0.634948,0.259197,0.673329,-0.276199
1479,6.927512,-6.828038,-0.393882,0.037724,0.009000,0.078057,-93.353966,-45.385799,94.844254,-0.634948,0.259203,0.673319,-0.276218
1480,6.929822,-6.823328,-0.392404,0.050426,0.017883,0.021215,-93.351936,-45.384178,94.843468,-0.634950,0.259206,0.673309,-0.276235
1481,6.930181,-6.826210,-0.389499,0.060117,0.031461,0.035980,-93.349228,-45.383278,94.842239,-0.634957,0.259203,0.673298,-0.276249
1482,6.934421,-6.822917,-0.395937,0.001220,-0.018427,-0.022488,-93.347977,-45.383068,94.841919,-0.634960,0.259199,0.673294,-0.276256
1483,6.933297,-6.827829,-0.396308,0.016098,-0.014129,0.027408,-93.348221,-45.382946,94.842674,-0.634957,0.259197,0.673296,-0.276259
1484,6.932913,-6.823025,-0.390902,0.060226,0.025198,-0.022120,-93.346756,-45.382870,94.842400,-0.634961,0.259191,0.673292,-0.276267
1485,6.930188,-6.828816,-0.395880,0.012896,-0.016192,0.037949,-93.345375,-45.382610,94.842163,-0.634964,0.259186,0.673287,-0.276275
1486,6.932889,-6.831572,-0.397633,-0.000064,-0.029384,0.044270,-93.345863,-45.381207,94.843140,-0.634956,0.259191,0.673288,-0.276286
1488,6.935547,-6.834652,-0.396011,0.029010,-0.016928,0.048400,-93.346054,-45.379620,94.844101,-0.634949,0.259195,0.673288,-0.276299
1489,6.934897,-6.826026,-0.392547,0.038424,0.013737,-0.035368,-93.344971,-45.379398,94.844162,-0.634951,0.259190,0.673285,-0.276307
1490,6.932475,-6.827738,-0.397649,-0.014572,-0.031191,0.009100,-93.344910,-45.379822,94.844620,-0.634951,0.259185,0.673286,-0.276307
1491,6.932044,-6.826207,-0.394045,0.011336,-0.005878,-0.003927,-93.345573,-45.379704,94.845482,-0.634947,0.259184,0.673290,-0.276309
1492,6.924261,-6.823469,-0.397446,-0.021943,-0.034363,0.043282,-93.346382,-45.379002,94.846375,-0.634941,0.259187,0.673292,-0.276313
1493,6.919662,-6.816599,-0.401280,-0.082081,-0.067852,0.026919,-93.349785,-45.377743,94.848709,-0.634925,0.259200,0.673303,-0.276313
1494,6.921546,-6.820421,-0.403528,-0.075644,-0.085330,0.050233,-93.354904,-45.376305,94.852219,-0.634901,0.259216,0.673321,-0.276311
1495,6.920478,-6.821719,-0.403062,-0.046289,-0.085833,0.059770,-93.359711,-45.374306,94.856125,-0.634875,0.259231,0.673338,-0.276315
1496,6.922903,-6.821918,-0.404825,-0.045349,-0.088319,0.051431,-93.364067,-45.372284,94.860092,-0.634850,0.259243,0.673353,-0.276323
1497,6.927875,-6.824974,-0.405813,-0.043159,-0.094189,0.016945,-93.368553,-45.370964,94.864311,-0.634826,0.259251,0.673371,-0.276328
1498,6.928062,-6.826908,-0.400141,0.010547,-0.045009,0.024651,-93.371391,-45.370136,94.867554,-0.634809,0.259252,0.673383,-0.276334
1499,6.927001,-6.825142,-0.394620,0.053541,-0.000870,0.004916,-93.371071,-45.369595,94.868591,-0.634806,0.259247,0.673384,-0.276344
1500,6.929909,-6.828686,-0.393234,0.069465,0.028705,0.012556,-93.368530,-45.369335,94.867920,-0.634813,0.259239,0.673376,-0.276357
1501,6.926274,-6.824921,-0.394273,0.053595,0.017353,0.013404,-93.365677,-45.368946,94.866783,-0.634821,0.259232,0.673366,-0.276370
1502,6.928112,-6.823459,-0.390024,0.102002,0.052636,-0.008893,-93.361916,-45.368954,94.865143,-0.634833,0.259221,0.673353,-0.276383
1503,6.931056,-6.820257,-0.389496,0.102689,0.054802,-0.070999,-93.356766,-45.370384,94.862694,-0.634855,0.259198,0.673338,-0.276391
1504,6.931795,-6.821293,-0.389842,0.072431,0.042445,-0.059815,-93.352325,-45.372650,94.860565,-0.634876,0.259173,0.673327,-0.276393
1505,6.932333,-6.812816,-0.394069,0.007771,0.002686,-0.126611,-93.350418,-45.375801,94.859756,-0.634891,0.259149,0.673326,-0.276382
1506,6.935051,-6.811589,-0.392455,0.017130,0.013770,-0.156357,-93.350006,-45.380524,94.859764,-0.634905,0.259120,0.673334,-0.276357
1507,6.930277,-6.812383,-0.393143,0.000790,0.004795,-0.093383,-93.349640,-45.384697,94.859665,-0.634918,0.259095,0.673341,-0.276335
1508,6.927104,-6.817097,-0.392949,0.013503,0.016289,-0.010243,-93.349152,-45.386444,94.859306,-0.634924,0.259084,0.673343,-0.276326
1509,6.926879,-6.823180,-0.396435,-0.006714,0.000006,0.050641,-93.348724,-45.385792,94.858871,-0.634925,0.259088,0.673339,-0.276330
1510,6.926072,-6.831185,-0.390647,0.038416,0.052363,0.116960,-93.347137,-45.383049,94.857391,-0.634924,0.259104,0.673327,-0.276347
1511,6.926774,-6.833188,-0.395933,-0.013382,0.008724,0.123978,-93.345451,-45.379097,94.855614,-0.634921,0.259127,0.673311,-0.276369
1512,6.928491,-6.834794,-0.397103,-0.025434,0.007699,0.112270,-93.345589,-45.375175,94.854897,-0.634912,0.259155,0.673302,-0.276386
1513,6.930534,-6.834989,-0.397306,-0.029917,0.012165,0.081649,-93.345993,-45.371967,94.854149,-0.634904,0.259180,0.673295,-0.276398
1514,6.932812,-6.828298,-0.395472,-0.003856,0.020263,0.009617,-93.345917,-45.370480,94.853264,-0.634902,0.259193,0.673290,-0.276402
1515,6.934121,-6.826073,-0.397020,0.012765,-0.004152,-0.015197,-93.345505,-45.370594,94.852890,-0.634904,0.259192,0.673289,-0.276402
1516,6.928228,-6.832530,-0.389158,0.104808,0.041673,0.089215,-93.342842,-45.369396,94.851898,-0.634910,0.259190,0.673278,-0.276419
1517,6.927097,-6.828249,-0.389791,0.090408,0.022721,0.047978,-93.338379,-45.367184,94.850197,-0.634918,0.259188,0.673259,-0.276448
1518,6.927431,-6.826034,-0.390151,0.082028,0.006573,0.029605,-93.334930,-45.365917,94.849396,-0.634924,0.259181,0.673246,-0.276471
1519,6.923116,-6.828311,-0.387935,0.105729,0.022897,0.066341,-93.331207,-45.364346,94.848557,-0.634930,0.259174,0.673232,-0.276497
1520,6.921816,-6.829847,-0.387714,0.074170,0.017605,0.085118,-93.327385,-45.361866,94.847389,-0.634935,0.259174,0.673216,-0.276527
1521,6.926743,-6.820686,-0.389212,0.024706,0.014647,-0.042104,-93.325142,-45.361176,94.846558,-0.634940,0.259171,0.673207,-0.276540
1522,6.928718,-6.829576,-0.384336,0.071621,0.051245,0.019138,-93.322441,-45.361626,94.845024,-0.634951,0.259162,0.673198,-0.276545
1523,6.928232,-6.837270,-0.384689,0.052974,0.040764,0.086784,-93.318733,-45.359959,94.842720,-0.634960,0.259165,0.673181,-0.276563
