seq,ax,ay,az,wroll,wpitch,wyaw,roll,pitch,yaw,q0,q1,q2,q3
3947,0.036143,-7.092292,6.697911,-0.163757,0.191313,0.047582,-46.638134,-0.212283,0.224780,0.918313,-0.395846,-0.002478,0.001068
3949,0.047558,-7.086447,6.697066,-0.709891,0.831182,0.089579,-46.652321,-0.200041,0.213957,0.918264,-0.395961,-0.002342,0.001023
3950,0.044376,-7.078038,6.693254,-0.737327,1.159219,0.088015,-46.675182,-0.177257,0.191857,0.918185,-0.396145,-0.002084,0.000925
3951,0.024973,-7.086793,6.692318,-0.583173,1.397255,0.089531,-46.695656,-0.146383,0.162881,0.918115,-0.396310,-0.001736,0.000799
3952,0.014404,-7.102820,6.692765,-0.439724,1.404911,0.074299,-46.712154,-0.110830,0.130761,0.918058,-0.396443,-0.001340,0.000664
3953,0.011245,-7.108235,6.692719,-0.339021,1.371371,0.059073,-46.725391,-0.075711,0.098600,0.918013,-0.396550,-0.000948,0.000528
3954,0.000685,-7.110393,6.695666,0.060769,0.954827,0.010279,-46.730129,-0.046352,0.071164,0.917996,-0.396588,-0.000618,0.000410
3956,-0.003068,-7.110098,6.698007,0.150817,0.622233,0.005762,-46.725830,-0.024799,0.052210,0.918011,-0.396554,-0.000379,0.000332
3957,0.012019,-7.099806,6.697415,0.059325,0.373517,0.019506,-46.719784,-0.012496,0.040415,0.918032,-0.396505,-0.000240,0.000281
3958,0.014395,-7.098017,6.697093,-0.166420,0.376502,0.051480,-46.717888,-0.006991,0.032125,0.918039,-0.396490,-0.000167,0.000233
3959,0.012413,-7.098892,6.694046,-0.337248,0.406941,0.071232,-46.723228,-0.001147,0.024020,0.918020,-0.396533,-0.000092,0.000188
3960,0.015801,-7.085779,6.695645,-0.376806,0.428214,0.080293,-46.730518,0.004979,0.015617,0.917995,-0.396591,-0.000014,0.000142
3961,0.015049,-7.084390,6.696592,-0.323215,0.441843,0.090862,-46.734840,0.010823,0.007014,0.917980,-0.396626,0.000062,0.000094
3963,0.017318,-7.090644,6.694960,-0.316937,0.463087,0.090737,-46.738533,0.016497,-0.001893,0.917968,-0.396656,0.000139,0.000042
3964,0.014938,-7.076939,6.697056,-0.225174,0.464489,0.078398,-46.739258,0.021915,-0.011217,0.917965,-0.396661,0.000214,-0.000014
3965,0.016703,-7.070357,6.701291,-0.198931,0.462835,0.091995,-46.734238,0.027092,-0.020522,0.917982,-0.396621,0.000288,-0.000071
3966,0.020269,-7.098776,6.689367,-0.406258,0.464209,0.116248,-46.736408,0.031332,-0.029391,0.917975,-0.396638,0.000353,-0.000127
3967,0.024189,-7.095333,6.688467,-0.256652,0.428930,0.087062,-46.744823,0.033347,-0.037908,0.917946,-0.396706,0.000398,-0.000188
3968,0.020280,-7.091672,6.689954,0.037952,0.372285,0.048716,-46.744434,0.033279,-0.046079,0.917947,-0.396703,0.000426,-0.000254
3970,0.021990,-7.104952,6.683989,0.070056,0.364475,0.050050,-46.740276,0.032394,-0.053893,0.917961,-0.396669,0.000446,-0.000320
3971,0.022231,-7.108013,6.678456,0.144786,0.358185,0.040697,-46.738316,0.030902,-0.061629,0.917968,-0.396654,0.000461,-0.000387
3972,0.020706,-7.102159,6.687213,0.271413,0.345798,0.019143,-46.732376,0.029152,-0.069491,0.917989,-0.396606,0.000474,-0.000456
3973,0.019731,-7.115696,6.684936,0.105053,0.359361,0.038799,-46.727463,0.027996,-0.077388,0.918006,-0.396567,0.000492,-0.000523
3974,0.020694,-7.108570,6.686022,-0.159000,0.397342,0.073717,-46.731110,0.028191,-0.085287,0.917993,-0.396596,0.000521,-0.000586
3975,0.018697,-7.098683,6.690182,-0.216979,0.394125,0.084224,-46.737144,0.029565,-0.093088,0.917972,-0.396644,0.000559,-0.000643
3977,0.019670,-7.100868,6.691410,-0.229128,0.390912,0.073371,-46.742222,0.031009,-0.100814,0.917955,-0.396685,0.000597,-0.000700
3978,0.019821,-7.094002,6.690795,-0.196997,0.389219,0.077771,-46.745880,0.032002,-0.108554,0.917942,-0.396714,0.000632,-0.000759
3979,0.019622,-7.089343,6.691745,-0.206020,0.395154,0.068437,-46.747269,0.032908,-0.116403,0.917937,-0.396725,0.000667,-0.000819
3980,0.020179,-7.099949,6.688404,-0.305096,0.401087,0.069782,-46.751419,0.033720,-0.124487,0.917922,-0.396758,0.000701,-0.000880
3981,0.022439,-7.108571,6.681233,-0.300506,0.422269,0.055856,-46.761047,0.034082,-0.133047,0.917889,-0.396835,0.000734,-0.000948
3982,0.018449,-7.109322,6.684416,-0.251700,0.432775,0.058721,-46.771156,0.034971,-0.142121,0.917854,-0.396916,0.000772,-0.001017
3984,0.020651,-7.110690,6.682652,-0.289856,0.409715,0.067694,-46.780506,0.036168,-0.150908,0.917822,-0.396991,0.000812,-0.001083
3985,0.021844,-7.111936,6.684363,-0.143368,0.386643,0.049189,-46.787762,0.035989,-0.159245,0.917796,-0.397049,0.000840,-0.001151
3986,0.010037,-7.099008,6.684120,0.077949,0.337665,0.021565,-46.786556,0.036468,-0.167234,0.917800,-0.397039,0.000872,-0.001213
3987,0.008162,-7.098079,6.688663,0.223036,-0.060703,0.030611,-46.776569,0.034284,-0.170000,0.917835,-0.396959,0.000864,-0.001243
3988,0.012900,-7.098369,6.684412,0.265880,-0.289703,0.022864,-46.763691,0.024450,-0.165132,0.917880,-0.396856,0.000768,-0.001238
3989,0.015060,-7.086535,6.689487,0.308747,-0.303564,0.010521,-46.748466,0.010645,-0.157547,0.917932,-0.396735,0.000631,-0.001225
3991,0.018954,-7.079497,6.686770,0.130403,-0.491387,0.063786,-46.733582,-0.005371,-0.147050,0.917984,-0.396616,0.000466,-0.001197
3992,0.033670,-7.090939,6.691762,-0.090698,-0.548026,0.110899,-46.726624,-0.025614,-0.132441,0.918008,-0.396560,0.000253,-0.001150
3993,0.042544,-7.089271,6.689871,-0.217233,-0.212561,0.104542,-46.727070,-0.045587,-0.120751,0.918007,-0.396564,0.000053,-0.001125
3994,0.041426,-7.087308,6.690691,-0.250683,-0.005276,0.095130,-46.730045,-0.059732,-0.115829,0.917996,-0.396588,-0.000078,-0.001135
3995,0.037883,-7.097632,6.688720,-0.146830,0.032666,0.091859,-46.733036,-0.069175,-0.114028,0.917986,-0.396612,-0.000159,-0.001153
3996,0.041812,-7.090665,6.692151,0.018061,0.233894,0.051979,-46.731579,-0.075696,-0.115624,0.917991,-0.396600,-0.000206,-0.001188
3998,0.045593,-7.091321,6.688244,0.039534,0.329818,0.034970,-46.726181,-0.080495,-0.121478,0.918009,-0.396557,-0.000224,-0.001252
3999,0.042206,-7.090560,6.689627,-0.006148,0.360130,0.042382,-46.721756,-0.083669,-0.128972,0.918024,-0.396522,-0.000224,-0.001323
4000,0.044212,-7.095767,6.688590,-0.038117,0.366038,0.051329,-46.719501,-0.085691,-0.136718,0.918032,-0.396504,-0.000213,-0.001392
4001,0.049481,-7.093817,6.686994,-0.074691,0.373450,0.049571,-46.719429,-0.088725,-0.144540,0.918032,-0.396503,-0.000211,-0.001465
4002,0.050018,-7.105915,6.686549,-0.152507,0.373216,0.050849,-46.722988,-0.092645,-0.152453,0.918020,-0.396532,-0.000215,-0.001542
4003,0.046435,-7.101075,6.689245,-0.044175,0.377573,0.038407,-46.726574,-0.095819,-0.160542,0.918007,-0.396560,-0.000212,-0.001618
4005,0.044267,-7.100417,6.689324,0.094710,0.385007,0.016836,-46.724674,-0.097912,-0.169166,0.918014,-0.396545,-0.000199,-0.001694
4006,0.041208,-7.091484,6.693347,0.145141,0.381779,-0.003189,-46.717678,-0.099264,-0.178320,0.918038,-0.396489,-0.000178,-0.001772
4007,0.035593,-7.089403,6.689866,0.087261,0.369426,-0.000291,-46.709557,-0.099194,-0.187482,0.918066,-0.396424,-0.000146,-0.001845
4008,0.032061,-7.077824,6.690740,0.082813,0.370839,-0.004990,-46.701511,-0.097443,-0.196533,0.918093,-0.396360,-0.000101,-0.001912
4009,0.029338,-7.074249,6.693214,0.130297,0.360063,-0.015772,-46.690765,-0.094825,-0.205648,0.918130,-0.396273,-0.000049,-0.001976
4010,0.029744,-7.072008,6.696229,0.104559,0.363026,-0.015866,-46.678719,-0.092119,-0.214793,0.918172,-0.396177,0.000004,-0.002040
4012,0.032765,-7.078496,6.692442,0.112356,0.365975,-0.012924,-46.668404,-0.090156,-0.223973,0.918207,-0.396094,0.000052,-0.002106
4013,0.038961,-7.077837,6.703038,0.149131,0.362787,-0.020699,-46.657921,-0.090209,-0.233203,0.918244,-0.396010,0.000083,-0.002180
4014,0.039597,-7.083221,6.697277,0.147742,0.367204,-0.023921,-46.647488,-0.091778,-0.242571,0.918279,-0.395927,0.000103,-0.002261
4015,0.044404,-7.082674,6.695916,0.143241,0.371604,-0.010377,-46.639515,-0.094132,-0.251923,0.918307,-0.395863,0.000116,-0.002344
4016,0.050341,-7.079298,6.696498,0.108218,0.359183,0.003131,-46.632381,-0.098227,-0.260867,0.918331,-0.395806,0.000114,-0.002430
4017,0.056759,-7.078109,6.699264,0.016750,0.358933,0.021177,-46.626789,-0.104290,-0.269297,0.918350,-0.395761,0.000094,-0.002518
4019,0.055551,-7.080499,6.693824,0.042754,0.361723,0.019374,-46.623245,-0.110811,-0.277569,0.918362,-0.395733,0.000070,-0.002607
4020,0.051553,-7.079799,6.704596,0.120645,0.344701,0.028278,-46.617744,-0.115963,-0.285587,0.918381,-0.395689,0.000057,-0.002689
4021,0.053214,-7.079759,6.705832,0.132959,0.347531,0.017361,-46.609234,-0.120446,-0.293459,0.918410,-0.395620,0.000048,-0.002768
4022,0.049837,-7.079465,6.706975,0.235302,0.347320,-0.017958,-46.598892,-0.124798,-0.301891,0.918445,-0.395538,0.000042,-0.002850
4023,0.043524,-7.077810,6.710954,0.345282,0.333412,-0.039505,-46.584652,-0.127805,-0.310804,0.918494,-0.395424,0.000048,-0.002932
4024,0.041459,-7.068298,6.711860,0.337799,0.328694,-0.048811,-46.567318,-0.129514,-0.319846,0.918554,-0.395285,0.000065,-0.003011
4026,0.048728,-7.071436,6.709588,0.299790,0.319382,-0.044398,-46.551121,-0.132308,-0.328772,0.918609,-0.395155,0.000073,-0.003092
4027,0.048263,-7.076422,6.713568,0.284620,0.302421,-0.041533,-46.537796,-0.136489,-0.337290,0.918655,-0.395048,0.000069,-0.003175
4028,0.044929,-7.074123,6.718202,0.264870,0.300735,-0.020338,-46.525173,-0.139607,-0.345306,0.918698,-0.394947,0.000071,-0.003250
4029,0.048302,-7.075109,6.718024,0.187132,0.302106,-0.014400,-46.514233,-0.142161,-0.353005,0.918736,-0.394859,0.000077,-0.003320
4030,0.045617,-7.081668,6.719436,0.095620,0.297373,0.005274,-46.507736,-0.144382,-0.360364,0.918758,-0.394807,0.000084,-0.003387
4031,0.040415,-7.085732,6.718387,0.051363,0.309455,0.005142,-46.505455,-0.144573,-0.367581,0.918765,-0.394789,0.000107,-0.003445
4033,0.037714,-7.080318,6.717482,0.010150,0.313936,0.006566,-46.505001,-0.142933,-0.374983,0.918767,-0.394785,0.000146,-0.003499
4034,0.037592,-7.084078,6.712909,-0.072282,0.300114,0.011051,-46.507252,-0.140829,-0.382202,0.918759,-0.394803,0.000188,-0.003550
4035,0.036812,-7.086088,6.710730,-0.104398,0.296974,0.036899,-46.513084,-0.138502,-0.388864,0.918739,-0.394850,0.000229,-0.003595
4036,0.037737,-7.087209,6.714244,-0.075477,0.287727,0.026122,-46.518936,-0.136309,-0.395205,0.918718,-0.394897,0.000269,-0.003638
4037,0.037572,-7.078229,6.716993,-0.072439,0.289157,0.021443,-46.521915,-0.134694,-0.401634,0.918708,-0.394921,0.000304,-0.003684
4038,0.039260,-7.079128,6.717146,-0.040363,0.293632,0.015230,-46.522514,-0.133570,-0.408265,0.918706,-0.394925,0.000336,-0.003733
4040,0.038342,-7.075638,6.719291,0.022252,0.299629,0.015117,-46.520741,-0.132646,-0.415096,0.918711,-0.394911,0.000367,-0.003785
4041,0.035107,-7.070554,6.722596,0.060499,0.299534,-0.004820,-46.515400,-0.131152,-0.422234,0.918730,-0.394868,0.000403,-0.003837
4042,0.038818,-7.063949,6.724818,0.101850,0.310118,-0.007975,-46.506603,-0.129995,-0.429767,0.918760,-0.394798,0.000438,-0.003894
4043,0.039639,-7.070457,6.724124,0.129463,0.313056,-0.017252,-46.496902,-0.129806,-0.437605,0.918793,-0.394720,0.000467,-0.003956
4044,0.038585,-7.072454,6.724350,0.117356,0.305311,-0.014321,-46.488770,-0.129742,-0.445452,0.918821,-0.394655,0.000494,-0.004019
4045,0.042199,-7.066325,6.725487,0.024378,0.305188,-0.000718,-46.482235,-0.130079,-0.453014,0.918843,-0.394602,0.000517,-0.004080
4047,0.042393,-7.064795,6.727174,0.027558,0.300475,0.002191,-46.476250,-0.131011,-0.460329,0.918863,-0.394554,0.000534,-0.004142
4048,0.040959,-7.064478,6.726545,0.052100,0.292714,0.003578,-46.469826,-0.131748,-0.467444,0.918885,-0.394503,0.000553,-0.004202
4049,0.040559,-7.063772,6.728705,0.040017,0.274280,0.017182,-46.463242,-0.132189,-0.474068,0.918907,-0.394450,0.000572,-0.004257
4050,0.040015,-7.065251,6.734845,-0.014774,0.278738,0.026210,-46.457146,-0.132287,-0.480266,0.918928,-0.394401,0.000592,-0.004307
4051,0.045614,-7.077153,6.732201,-0.007046,0.283178,0.013859,-46.453564,-0.133284,-0.486603,0.918940,-0.394372,0.000606,-0.004361
4052,0.042614,-7.073856,6.729126,-0.049731,0.284560,0.025915,-46.452854,-0.134687,-0.493009,0.918942,-0.394367,0.000617,-0.004417
4054,0.045704,-7.077775,6.726419,-0.119909,0.279839,0.039497,-46.455074,-0.135759,-0.499078,0.918934,-0.394384,0.000629,-0.004469
4055,0.046679,-7.074236,6.730286,-0.087846,0.285786,0.040858,-46.457775,-0.137349,-0.504990,0.918925,-0.394406,0.000637,-0.004522
4056,0.051074,-7.082345,6.724237,-0.077164,0.284088,0.037625,-46.460514,-0.139872,-0.510973,0.918915,-0.394428,0.000637,-0.004579
4057,0.042168,-7.072032,6.724896,-0.083275,0.279356,0.035936,-46.463467,-0.141515,-0.516935,0.918905,-0.394452,0.000645,-0.004632
4058,0.047631,-7.083697,6.723213,-0.084812,0.283792,0.047995,-46.466686,-0.142223,-0.522774,0.918894,-0.394477,0.000659,-0.004682
4059,0.049398,-7.082839,6.724569,-0.034499,0.277525,0.038667,-46.470383,-0.144248,-0.528557,0.918880,-0.394507,0.000663,-0.004735
4060,0.051809,-7.077138,6.717852,-0.065052,0.274296,0.035429,-46.473400,-0.147270,-0.534371,0.918870,-0.394531,0.000659,-0.004792
4061,0.050514,-7.070758,6.718296,-0.115417,0.266489,0.042873,-46.476807,-0.150431,-0.540006,0.918858,-0.394559,0.000653,-0.004848
4062,0.058644,-7.073890,6.714473,-0.116949,0.266292,0.056398,-46.480904,-0.154568,-0.545304,0.918843,-0.394592,0.000638,-0.004905
4063,0.059129,-7.069316,6.717967,-0.094057,0.264544,0.048534,-46.484249,-0.160104,-0.550515,0.918831,-0.394619,0.000612,-0.004966
4064,0.054587,-7.066519,6.714263,-0.110807,0.275023,0.045269,-46.486267,-0.164564,-0.555963,0.918824,-0.394635,0.000595,-0.005025
4065,0.055774,-7.073255,6.713336,-0.052814,0.282466,0.034392,-46.488625,-0.167999,-0.561788,0.918816,-0.394654,0.000588,-0.005083
4066,0.051646,-7.068915,6.712649,0.078415,0.279244,-0.000886,-46.488224,-0.171104,-0.568193,0.918817,-0.394651,0.000585,-0.005145
4067,0.046580,-7.061537,6.716035,0.264626,0.274529,-0.030021,-46.480499,-0.173066,-0.575247,0.918843,-0.394589,0.000593,-0.005209
4068,0.051742,-7.049766,6.720683,0.386837,0.268291,-0.051526,-46.464184,-0.175623,-0.582761,0.918899,-0.394458,0.000598,-0.005278
4069,0.051255,-7.046359,6.726331,0.394670,0.265092,-0.044053,-46.442978,-0.179224,-0.590329,0.918971,-0.394288,0.000594,-0.005351
4070,0.046883,-7.050518,6.726019,0.262104,0.258862,-0.021299,-46.424450,-0.181405,-0.597434,0.919034,-0.394140,0.000600,-0.005415
4071,0.048467,-7.049516,6.731710,0.221068,0.260272,-0.000057,-46.409809,-0.182362,-0.603969,0.919084,-0.394022,0.000614,-0.005471
4072,0.050835,-7.058994,6.734787,0.108289,0.258620,0.024225,-46.398739,-0.183429,-0.609974,0.919122,-0.393934,0.000626,-0.005523
4073,0.045364,-7.069695,6.733988,-0.027460,0.260032,0.039364,-46.395081,-0.183331,-0.615511,0.919134,-0.393904,0.000645,-0.005567
4074,0.047821,-7.073955,6.734042,-0.042729,0.256877,0.036203,-46.396549,-0.182478,-0.620880,0.919129,-0.393916,0.000671,-0.005607
4075,0.049183,-7.068460,6.733934,-0.010689,0.259812,0.036080,-46.397659,-0.182445,-0.626284,0.919125,-0.393925,0.000690,-0.005651
4076,0.044035,-7.076363,6.732894,-0.065638,0.264285,0.054283,-46.399544,-0.181398,-0.631569,0.919118,-0.393940,0.000716,-0.005689
4077,0.043302,-7.077179,6.734690,-0.097723,0.267252,0.049616,-46.403854,-0.178982,-0.636785,0.919103,-0.393974,0.000754,-0.005723
4078,0.042561,-7.081403,6.731914,-0.143557,0.265644,0.057159,-46.410069,-0.176341,-0.641983,0.919082,-0.394024,0.000793,-0.005755
4079,0.037462,-7.079733,6.734831,-0.184811,0.274734,0.069297,-46.417717,-0.172402,-0.647046,0.919055,-0.394085,0.000842,-0.005782
4080,0.041038,-7.089886,6.737931,-0.252002,0.274670,0.075334,-46.426994,-0.168055,-0.652011,0.919023,-0.394159,0.000895,-0.005807
4081,0.051670,-7.085275,6.735945,-0.300883,0.273027,0.067582,-46.438232,-0.166796,-0.656977,0.918985,-0.394249,0.000923,-0.005843
4082,0.050712,-7.082058,6.732666,-0.360420,0.278979,0.079629,-46.450291,-0.167523,-0.661949,0.918943,-0.394346,0.000935,-0.005885
4083,0.053961,-7.080848,6.730553,-0.296341,0.286447,0.065727,-46.461647,-0.168591,-0.667107,0.918903,-0.394437,0.000944,-0.005930
4084,0.054963,-7.078424,6.725022,-0.204793,0.281697,0.054862,-46.470238,-0.170708,-0.672585,0.918873,-0.394506,0.000947,-0.005981
4085,0.053176,-7.064705,6.727490,-0.154383,0.284578,0.051633,-46.474049,-0.172773,-0.678211,0.918860,-0.394537,0.000950,-0.006033
4086,0.048875,-7.065256,6.727052,-0.140535,0.289009,0.062159,-46.474312,-0.173343,-0.683850,0.918859,-0.394539,0.000965,-0.006080
4087,0.045245,-7.065653,6.729879,-0.056484,0.285839,0.055930,-46.472599,-0.172205,-0.689457,0.918864,-0.394525,0.000993,-0.006121
4088,0.044389,-7.060169,6.734070,-0.050215,0.288788,0.060399,-46.467747,-0.170229,-0.695085,0.918881,-0.394486,0.001028,-0.006160
4089,0.048608,-7.067558,6.731270,-0.106516,0.294775,0.060275,-46.464008,-0.168858,-0.700770,0.918893,-0.394456,0.001058,-0.006201
4090,0.048655,-7.070123,6.730554,-0.080471,0.290064,0.040298,-46.462902,-0.168657,-0.706695,0.918897,-0.394447,0.001080,-0.006248
4091,0.050719,-7.068711,6.727213,-0.045291,0.282293,0.034045,-46.461666,-0.169383,-0.712766,0.918901,-0.394437,0.001095,-0.006299
4092,0.054935,-7.073210,6.721756,-0.123074,0.294339,0.046082,-46.462883,-0.171206,-0.718818,0.918896,-0.394447,0.001101,-0.006354
4093,0.053447,-7.068706,6.720755,-0.138317,0.300273,0.039800,-46.466568,-0.173206,-0.725018,0.918883,-0.394476,0.001107,-0.006410
4094,0.054707,-7.066456,6.722701,-0.153529,0.297055,0.039624,-46.469551,-0.175087,-0.731329,0.918873,-0.394500,0.001114,-0.006467
4095,0.052248,-7.067919,6.720008,-0.150426,0.316731,0.054713,-46.472507,-0.176236,-0.737669,0.918862,-0.394524,0.001127,-0.006522
4096,0.046984,-7.069757,6.721122,-0.141230,0.318124,0.043892,-46.475735,-0.175477,-0.744213,0.918850,-0.394550,0.001155,-0.006572
4097,0.045749,-7.068491,6.722423,-0.118289,0.310384,0.022413,-46.477947,-0.173894,-0.751054,0.918842,-0.394567,0.001192,-0.006621
4098,0.041689,-7.067882,6.720660,-0.107546,0.291978,0.020787,-46.479240,-0.171933,-0.757845,0.918838,-0.394577,0.001231,-0.006669
4099,0.038287,-7.064802,6.720833,-0.072378,0.287329,0.010031,-46.479374,-0.169047,-0.764501,0.918837,-0.394578,0.001277,-0.006712
4100,0.042662,-7.070528,6.722371,-0.028056,0.278096,-0.003783,-46.478237,-0.166967,-0.771271,0.918840,-0.394569,0.001317,-0.006759
4101,0.047336,-7.064948,6.725336,0.059005,0.276460,-0.008478,-46.474342,-0.167169,-0.778124,0.918854,-0.394538,0.001339,-0.006815
4102,0.047084,-7.057605,6.727364,0.086613,0.274808,-0.004035,-46.466251,-0.168345,-0.784946,0.918881,-0.394473,0.001352,-0.006874
4103,0.052775,-7.060993,6.726752,0.069977,0.279242,0.003443,-46.457634,-0.170366,-0.791665,0.918910,-0.394404,0.001359,-0.006935
4104,0.055074,-7.065814,6.730058,0.092984,0.279073,0.006317,-46.450199,-0.173661,-0.798313,0.918935,-0.394344,0.001355,-0.007000
4105,0.054847,-7.058715,6.730520,0.117523,0.274323,0.012238,-46.441666,-0.177133,-0.804801,0.918964,-0.394276,0.001349,-0.007064
4106,0.054125,-7.058843,6.730869,0.077988,0.271105,0.009011,-46.432858,-0.180257,-0.811163,0.918994,-0.394205,0.001345,-0.007126
4107,0.055633,-7.058558,6.734150,0.111695,0.264836,-0.001844,-46.424171,-0.183590,-0.817570,0.919023,-0.394136,0.001340,-0.007188
4108,0.053940,-7.053668,6.738809,0.136277,0.267728,-0.008118,-46.413296,-0.186914,-0.824138,0.919060,-0.394049,0.001335,-0.007253
4109,0.054180,-7.050543,6.735672,0.083055,0.270629,-0.008278,-46.402241,-0.189747,-0.830850,0.919098,-0.393960,0.001334,-0.007316
4110,0.052449,-7.057428,6.737825,0.070998,0.259803,-0.008429,-46.393650,-0.192175,-0.837465,0.919127,-0.393891,0.001337,-0.007378
4111,0.053802,-7.058806,6.736768,0.046692,0.261191,0.006685,-46.387287,-0.194272,-0.843788,0.919148,-0.393840,0.001342,-0.007436
4112,0.051518,-7.071333,6.732778,-0.041779,0.261057,0.027908,-46.385895,-0.195577,-0.849697,0.919152,-0.393829,0.001351,-0.007488
4113,0.053574,-7.078183,6.729817,-0.060153,0.245668,0.030823,-46.390129,-0.196601,-0.855128,0.919137,-0.393863,0.001362,-0.007535
4114,0.050923,-7.085567,6.729665,-0.080111,0.239437,0.041372,-46.397285,-0.197509,-0.860135,0.919112,-0.393920,0.001373,-0.007578
4115,0.052786,-7.086952,6.726448,-0.122990,0.240839,0.044295,-46.406765,-0.198088,-0.864926,0.919079,-0.393996,0.001385,-0.007618
4116,0.053513,-7.082143,6.729584,-0.106333,0.231553,0.027373,-46.415661,-0.199387,-0.869786,0.919048,-0.394068,0.001392,-0.007662
4117,0.055206,-7.075818,6.730685,-0.081977,0.225311,0.018072,-46.421177,-0.201598,-0.874770,0.919029,-0.394112,0.001392,-0.007709
4118,0.049271,-7.072431,6.731655,-0.062149,0.232819,0.008788,-46.423870,-0.203078,-0.879991,0.919019,-0.394134,0.001398,-0.007756
4119,0.049987,-7.060738,6.737185,0.032532,0.228139,0.001051,-46.421425,-0.203593,-0.885454,0.919027,-0.394114,0.001412,-0.007802
4120,0.046414,-7.060008,6.734829,0.025028,0.223470,-0.000571,-46.415390,-0.203710,-0.890920,0.919048,-0.394066,0.001430,-0.007846
4121,0.041430,-7.061861,6.733055,0.005292,0.237141,0.002415,-46.410835,-0.202013,-0.896474,0.919063,-0.394029,0.001462,-0.007885
4122,0.046712,-7.067720,6.729910,0.046541,0.243181,0.002347,-46.408005,-0.200162,-0.902224,0.919073,-0.394006,0.001497,-0.007925
4123,0.048825,-7.071070,6.727907,0.084683,0.240037,0.009881,-46.406071,-0.199750,-0.907916,0.919079,-0.393990,0.001519,-0.007969
4124,0.051311,-7.066847,6.725894,0.075504,0.247559,0.005190,-46.404270,-0.200233,-0.913626,0.919085,-0.393976,0.001535,-0.008016
4125,0.054853,-7.065944,6.728848,0.087707,0.241327,0.005055,-46.401711,-0.201939,-0.919408,0.919093,-0.393955,0.001541,-0.008069
4126,0.056708,-7.069867,6.728771,0.102959,0.232027,0.014058,-46.398846,-0.204695,-0.924901,0.919102,-0.393932,0.001538,-0.008122
4127,0.052413,-7.065391,6.731334,0.112112,0.227314,0.004761,-46.395325,-0.206988,-0.930229,0.919114,-0.393904,0.001537,-0.008173
4128,0.054909,-7.058454,6.734377,0.084696,0.231767,-0.004527,-46.389992,-0.208992,-0.935775,0.919132,-0.393862,0.001540,-0.008224
4129,0.050847,-7.065933,6.740948,0.032890,0.233175,-0.007703,-46.384975,-0.210622,-0.941537,0.919149,-0.393821,0.001546,-0.008276
4130,0.048572,-7.058404,6.741734,0.011621,0.237658,-0.010854,-46.380482,-0.210893,-0.947446,0.919164,-0.393785,0.001564,-0.008325
4131,0.044974,-7.051361,6.743340,0.011764,0.237585,-0.012456,-46.374344,-0.209967,-0.953469,0.919184,-0.393736,0.001592,-0.008370
4133,0.043196,-7.036837,6.744361,-0.003279,0.246686,-0.006412,-46.365513,-0.207864,-0.959561,0.919214,-0.393665,0.001629,-0.008412
4134,0.041169,-7.045494,6.743741,-0.099186,0.245116,0.014904,-46.358189,-0.204703,-0.965428,0.919239,-0.393606,0.001674,-0.008448
4135,0.041165,-7.040985,6.739512,-0.150887,0.234393,0.028594,-46.355103,-0.201039,-0.970737,0.919249,-0.393581,0.001721,-0.008478
4136,0.042784,-7.042834,6.737015,-0.158360,0.237395,0.036169,-46.353958,-0.197756,-0.975705,0.919253,-0.393571,0.001765,-0.008507
4137,0.046939,-7.047534,6.736137,-0.077367,0.241899,0.014729,-46.353088,-0.195915,-0.980917,0.919256,-0.393564,0.001797,-0.008542
4138,0.046739,-7.062643,6.739902,-0.055943,0.234180,0.008530,-46.352844,-0.195375,-0.986399,0.919256,-0.393562,0.001820,-0.008584
4139,0.047364,-7.060564,6.736053,-0.023882,0.232561,0.005381,-46.353519,-0.195208,-0.991870,0.919254,-0.393567,0.001841,-0.008627
4140,0.046420,-7.059202,6.733622,0.012746,0.230943,0.017492,-46.353462,-0.194938,-0.997198,0.919253,-0.393567,0.001861,-0.008669
4141,0.044980,-7.057435,6.740461,0.052452,0.235437,0.018930,-46.351067,-0.194019,-1.002408,0.919261,-0.393547,0.001886,-0.008708
4142,0.041748,-7.053045,6.744249,-0.000866,0.235368,0.032590,-46.346642,-0.191989,-1.007505,0.919276,-0.393512,0.001920,-0.008742
4143,0.040619,-7.049574,6.744342,-0.044995,0.236838,0.040161,-46.342457,-0.188934,-1.012379,0.919290,-0.393478,0.001961,-0.008771
4144,0.040401,-7.048489,6.750241,-0.038738,0.235258,0.032475,-46.337727,-0.185786,-1.017256,0.919306,-0.393440,0.002002,-0.008799
4145,0.039981,-7.053204,6.759283,0.040795,0.241306,0.012578,-46.330246,-0.182991,-1.022508,0.919332,-0.393379,0.002042,-0.008832
4146,0.036019,-7.058074,6.756088,0.083684,0.239736,-0.004254,-46.321598,-0.179918,-1.028232,0.919361,-0.393310,0.002086,-0.008867
4147,0.045108,-7.056852,6.756371,0.068553,0.233568,-0.004322,-46.313934,-0.178335,-1.034052,0.919387,-0.393248,0.002118,-0.008909
4148,0.043301,-7.056535,6.756699,-0.001518,0.242632,0.001685,-46.307938,-0.178226,-1.039837,0.919407,-0.393200,0.002138,-0.008955
4149,0.043848,-7.060025,6.755391,-0.044147,0.241017,0.015324,-46.304844,-0.177602,-1.045483,0.919417,-0.393175,0.002162,-0.008998
4150,0.050581,-7.061703,6.747081,-0.102096,0.233273,0.036568,-46.305790,-0.178116,-1.050605,0.919414,-0.393182,0.002176,-0.009041
4151,0.054210,-7.051244,6.751342,-0.111201,0.230072,0.040990,-46.307308,-0.180486,-1.055302,0.919408,-0.393194,0.002173,-0.009087
4152,0.049196,-7.060078,6.750185,-0.188954,0.234507,0.051521,-46.309517,-0.182293,-1.059844,0.919400,-0.393212,0.002174,-0.009129
4153,0.055794,-7.059956,6.749702,-0.213332,0.226733,0.052895,-46.314732,-0.184161,-1.064205,0.919381,-0.393254,0.002175,-0.009171
4154,0.056651,-7.053532,6.750547,-0.295665,0.232667,0.063399,-46.320541,-0.187247,-1.068411,0.919361,-0.393301,0.002165,-0.009215
4155,0.055579,-7.054018,6.750529,-0.379492,0.230976,0.051019,-46.327827,-0.190105,-1.072695,0.919336,-0.393359,0.002157,-0.009259
4156,0.050050,-7.060416,6.749478,-0.425187,0.238467,0.043242,-46.337921,-0.191646,-1.077279,0.919300,-0.393440,0.002161,-0.009301
4157,0.049188,-7.047763,6.746904,-0.393037,0.239878,0.037018,-46.347324,-0.191864,-1.082137,0.919268,-0.393516,0.002177,-0.009340
4158,0.047639,-7.044677,6.743133,-0.328796,0.238245,0.035380,-46.353245,-0.191665,-1.087089,0.919247,-0.393563,0.002196,-0.009379
4159,0.045567,-7.043081,6.743936,-0.203499,0.242729,0.010866,-46.355278,-0.191045,-1.092380,0.919240,-0.393579,0.002219,-0.009419
4160,0.041907,-7.031962,6.745893,-0.108662,0.242654,-0.002947,-46.351261,-0.189747,-1.098174,0.919253,-0.393547,0.002249,-0.009462
4161,0.036105,-7.005516,6.748261,-0.094558,0.230403,0.012264,-46.339779,-0.186801,-1.103821,0.919292,-0.393454,0.002291,-0.009497
4162,0.033916,-7.019877,6.747891,-0.133825,0.236487,0.016819,-46.327309,-0.182267,-1.109169,0.919335,-0.393354,0.002345,-0.009525
4163,0.030298,-7.022592,6.752170,-0.028194,0.234956,0.001555,-46.316307,-0.176909,-1.114685,0.919372,-0.393265,0.002406,-0.009551
4164,0.033309,-7.030808,6.750917,0.062131,0.227318,0.003071,-46.303875,-0.172025,-1.120240,0.919415,-0.393165,0.002463,-0.009579
4165,0.037821,-7.037812,6.752461,0.074566,0.239487,0.010658,-46.292530,-0.168786,-1.125734,0.919453,-0.393074,0.002507,-0.009612
4166,0.051256,-7.058547,6.747086,0.068561,0.243960,0.019704,-46.286179,-0.168923,-1.131221,0.919475,-0.393023,0.002524,-0.009657
4167,0.052412,-7.099840,6.731893,0.240792,0.225493,0.008861,-46.288921,-0.172171,-1.136525,0.919465,-0.393045,0.002517,-0.009710
4168,0.053929,-7.083721,6.735741,0.600584,0.200916,-0.040139,-46.287914,-0.177035,-1.141983,0.919467,-0.393037,0.002496,-0.009771
4169,0.052344,-7.084084,6.738003,0.679682,0.185497,-0.063192,-46.276562,-0.182950,-1.147799,0.919506,-0.392946,0.002468,-0.009838
4170,0.050306,-7.083313,6.737241,0.671800,0.170099,-0.066389,-46.264160,-0.188468,-1.153544,0.919547,-0.392847,0.002442,-0.009903
4171,0.048764,-7.082828,6.744081,0.702071,0.156245,-0.068040,-46.251133,-0.193296,-1.158992,0.919591,-0.392743,0.002421,-0.009964
4172,0.053619,-7.048018,6.764580,0.618092,0.151541,-0.068171,-46.231243,-0.198668,-1.164262,0.919659,-0.392583,0.002394,-0.010025
4173,0.049209,-7.060425,6.766697,0.219900,0.160575,-0.016416,-46.214268,-0.203113,-1.169006,0.919716,-0.392447,0.002373,-0.010078
4174,0.051739,-7.045470,6.767795,0.090261,0.161992,0.007884,-46.206516,-0.205828,-1.172996,0.919742,-0.392385,0.002365,-0.010120
4175,0.052861,-7.047667,6.766976,0.017104,0.152718,0.024545,-46.201206,-0.208623,-1.176422,0.919760,-0.392343,0.002353,-0.010157
4176,0.047718,-7.040775,6.767711,-0.042315,0.160247,0.015284,-46.197922,-0.210384,-1.179741,0.919771,-0.392316,0.002350,-0.010190
4177,0.043422,-7.029710,6.763752,-0.060491,0.164759,0.027421,-46.194237,-0.209986,-1.183177,0.919783,-0.392287,0.002365,-0.010216
4178,0.049852,-7.029974,6.758567,-0.115292,0.170789,0.034974,-46.191826,-0.209616,-1.186513,0.919791,-0.392267,0.002379,-0.010242
4179,0.045751,-7.036280,6.766702,-0.093813,0.172233,0.027258,-46.190643,-0.209637,-1.189938,0.919795,-0.392258,0.002391,-0.010269
4180,0.045223,-7.031296,6.765114,-0.044851,0.173693,0.022612,-46.187664,-0.208874,-1.193543,0.919805,-0.392234,0.002409,-0.010296
4181,0.054041,-7.040816,6.761439,-0.055439,0.170548,0.030142,-46.185539,-0.209741,-1.197088,0.919812,-0.392217,0.002414,-0.010327
4182,0.054339,-7.039624,6.764575,-0.012652,0.168897,0.030011,-46.184261,-0.212350,-1.200485,0.919816,-0.392206,0.002404,-0.010363
4183,0.055072,-7.047074,6.762556,0.011803,0.176399,0.025301,-46.182663,-0.215030,-1.204005,0.919821,-0.392194,0.002395,-0.010401
4184,0.055016,-7.047107,6.758096,0.007214,0.183903,0.031274,-46.182755,-0.217476,-1.207684,0.919820,-0.392195,0.002388,-0.010439
4185,0.054907,-7.054973,6.765222,0.001082,0.188358,0.018939,-46.183765,-0.219649,-1.211577,0.919816,-0.392203,0.002384,-0.010477
4186,0.052609,-7.066107,6.760746,-0.026468,0.186721,0.014245,-46.187500,-0.221353,-1.215692,0.919803,-0.392233,0.002384,-0.010516
4187,0.052645,-7.069244,6.761356,-0.047972,0.192722,0.004984,-46.194363,-0.222597,-1.220012,0.919779,-0.392288,0.002390,-0.010555
4188,0.053878,-7.062938,6.761123,0.011419,0.172781,-0.001227,-46.199760,-0.224339,-1.224346,0.919760,-0.392331,0.002391,-0.010596
4189,0.052257,-7.064731,6.758808,-0.008522,0.158946,-0.002858,-46.203835,-0.226395,-1.228366,0.919745,-0.392364,0.002389,-0.010635
4190,0.050177,-7.060241,6.757314,0.040208,0.163438,0.004682,-46.207298,-0.227644,-1.232208,0.919733,-0.392392,0.002392,-0.010670
4191,0.048697,-7.049555,6.758107,0.082889,0.161839,-0.013705,-46.207031,-0.228195,-1.236218,0.919734,-0.392390,0.002402,-0.010704
4192,0.047360,-7.038471,6.765289,0.075319,0.161777,-0.015295,-46.201996,-0.228405,-1.240456,0.919751,-0.392349,0.002414,-0.010739
4193,0.050699,-7.066031,6.760108,0.046333,0.169339,-0.003160,-46.199696,-0.228754,-1.244653,0.919758,-0.392331,0.002425,-0.010774
4194,0.053715,-7.062748,6.755455,0.052320,0.166197,-0.006304,-46.202698,-0.230157,-1.248780,0.919747,-0.392355,0.002428,-0.010812
4195,0.051153,-7.063582,6.759509,0.040003,0.166107,-0.024710,-46.205528,-0.231889,-1.253118,0.919737,-0.392378,0.002430,-0.010852
4196,0.047185,-7.069605,6.757883,0.079557,0.169093,-0.011044,-46.208294,-0.232258,-1.257543,0.919727,-0.392400,0.002442,-0.010889
4197,0.049132,-7.074845,6.752506,0.062595,0.159878,0.007207,-46.213013,-0.231847,-1.261517,0.919711,-0.392437,0.002459,-0.010919
4198,0.040235,-7.039271,6.769862,0.074776,0.159844,-0.006562,-46.211765,-0.230145,-1.265352,0.919715,-0.392427,0.002486,-0.010944
4199,0.043947,-7.042089,6.772948,0.030682,0.161352,0.008678,-46.203625,-0.227473,-1.269217,0.919742,-0.392362,0.002520,-0.010966
4200,0.044261,-7.036165,6.770289,-0.075969,0.147584,0.049841,-46.197834,-0.225199,-1.272285,0.919762,-0.392315,0.002548,-0.010983
4201,0.047131,-7.031540,6.774670,-0.098663,0.135329,0.046738,-46.192989,-0.223560,-1.274605,0.919778,-0.392276,0.002569,-0.010996
4202,0.051780,-7.033234,6.769696,-0.122886,0.135254,0.046658,-46.188972,-0.223705,-1.276812,0.919792,-0.392243,0.002575,-0.011015
4203,0.053906,-7.037168,6.767333,-0.127323,0.132102,0.052658,-46.187511,-0.225192,-1.278903,0.919797,-0.392232,0.002570,-0.011037
4204,0.057912,-7.041047,6.767655,-0.096702,0.128931,0.038800,-46.187157,-0.227987,-1.281004,0.919797,-0.392229,0.002555,-0.011063
4205,0.061950,-7.052514,6.764862,-0.024944,0.136417,0.020339,-46.187580,-0.232540,-1.283519,0.919796,-0.392233,0.002527,-0.011099
4206,0.065025,-7.047637,6.771415,-0.014232,0.151513,0.026271,-46.186993,-0.238120,-1.286449,0.919797,-0.392229,0.002492,-0.011142
4207,0.061277,-7.052490,6.770032,-0.023338,0.155935,0.018480,-46.185638,-0.243023,-1.289639,0.919801,-0.392218,0.002463,-0.011184
4208,0.060883,-7.049822,6.769778,-0.058400,0.168007,0.010708,-46.185619,-0.246764,-1.293203,0.919801,-0.392218,0.002446,-0.011225
4209,0.053919,-7.044224,6.773496,-0.072061,0.178583,0.016701,-46.184849,-0.248543,-1.297068,0.919803,-0.392212,0.002444,-0.011262
4210,0.053407,-7.038670,6.770220,-0.038379,0.180032,0.004413,-46.182190,-0.248622,-1.301157,0.919811,-0.392191,0.002457,-0.011296
4211,0.054487,-7.039805,6.771327,-0.065728,0.179954,0.002805,-46.179253,-0.248906,-1.305423,0.919821,-0.392167,0.002470,-0.011331
4212,0.053303,-7.035730,6.774671,-0.035072,0.181403,-0.003379,-46.175415,-0.249235,-1.309799,0.919834,-0.392136,0.002481,-0.011367
4213,0.054755,-7.048543,6.769543,-0.083806,0.182851,0.013324,-46.173542,-0.249430,-1.314081,0.919840,-0.392121,0.002494,-0.011402
4214,0.056712,-7.050375,6.768619,-0.071579,0.187339,-0.008132,-46.175308,-0.250255,-1.318476,0.919833,-0.392135,0.002503,-0.011440
4215,0.057363,-7.057785,6.772383,-0.092943,0.181137,-0.000603,-46.178078,-0.251734,-1.323007,0.919823,-0.392157,0.002507,-0.011482
4216,0.055486,-7.062409,6.765610,-0.106725,0.170364,0.006931,-46.183334,-0.252904,-1.327152,0.919805,-0.392200,0.002512,-0.011519
4217,0.060661,-7.066136,6.767881,-0.199892,0.171789,0.019033,-46.191872,-0.254498,-1.330952,0.919775,-0.392268,0.002513,-0.011555
4218,0.061362,-7.062300,6.765355,-0.172502,0.159462,0.021960,-46.201065,-0.257094,-1.334449,0.919743,-0.392342,0.002505,-0.011591
4219,0.058013,-7.058030,6.769021,-0.138959,0.163931,0.031002,-46.207390,-0.258986,-1.337722,0.919721,-0.392393,0.002502,-0.011624
4220,0.057779,-7.048501,6.767549,-0.160284,0.169941,0.040059,-46.210827,-0.259700,-1.340926,0.919709,-0.392421,0.002508,-0.011652
4221,0.060393,-7.049017,6.769767,-0.193774,0.163737,0.033851,-46.213528,-0.260767,-1.344103,0.919699,-0.392442,0.002510,-0.011681
4222,0.054599,-7.037719,6.769757,-0.097512,0.162122,0.024602,-46.213215,-0.261437,-1.347373,0.919700,-0.392440,0.002516,-0.011710
4223,0.055178,-7.035271,6.768798,-0.082079,0.159001,0.019950,-46.209225,-0.261263,-1.350754,0.919713,-0.392408,0.002529,-0.011736
4224,0.058554,-7.037474,6.761031,-0.088042,0.152814,0.025967,-46.206417,-0.261944,-1.354002,0.919722,-0.392385,0.002534,-0.011765
4225,0.056548,-7.036542,6.766416,-0.090972,0.161883,0.009090,-46.204491,-0.262974,-1.357406,0.919729,-0.392370,0.002537,-0.011796
4226,0.056994,-7.039120,6.762814,-0.089326,0.180113,0.019686,-46.202713,-0.263399,-1.361211,0.919734,-0.392355,0.002547,-0.011828
4227,0.055819,-7.049616,6.763177,-0.066378,0.181561,0.013501,-46.202881,-0.263346,-1.365190,0.919733,-0.392357,0.002561,-0.011860
4228,0.054066,-7.046953,6.765791,-0.046497,0.187597,0.005801,-46.203014,-0.262779,-1.369416,0.919732,-0.392357,0.002580,-0.011892
4229,0.053683,-7.052210,6.764229,-0.070874,0.187536,0.005737,-46.203430,-0.261838,-1.373803,0.919731,-0.392361,0.002602,-0.011923
4230,0.053649,-7.043118,6.766016,-0.041830,0.179846,0.007199,-46.203197,-0.260940,-1.378083,0.919731,-0.392359,0.002624,-0.011955
4231,0.053419,-7.041972,6.764202,-0.049372,0.181311,-0.003546,-46.201218,-0.260244,-1.382402,0.919737,-0.392343,0.002644,-0.011987
4232,0.054977,-7.032405,6.763124,-0.079780,0.170563,-0.000563,-46.198898,-0.260071,-1.386702,0.919745,-0.392324,0.002660,-0.012021
4233,0.057101,-7.032926,6.766056,-0.091841,0.167432,-0.008276,-46.195946,-0.260870,-1.390897,0.919755,-0.392300,0.002668,-0.012058
4234,0.057811,-7.036028,6.769812,-0.100844,0.164293,-0.006843,-46.193050,-0.262343,-1.395089,0.919764,-0.392277,0.002670,-0.012096
4236,0.059191,-7.043375,6.764310,-0.137362,0.164199,-0.006942,-46.192791,-0.264162,-1.399218,0.919764,-0.392275,0.002669,-0.012136
4237,0.059470,-7.041480,6.768167,-0.115921,0.164102,-0.019252,-46.193851,-0.266344,-1.403484,0.919760,-0.392283,0.002667,-0.012177
4238,0.061037,-7.047062,6.764592,-0.060920,0.171629,-0.008676,-46.194073,-0.268686,-1.407857,0.919759,-0.392285,0.002663,-0.012220
4239,0.060104,-7.050274,6.757472,-0.050236,0.180684,-0.010308,-46.195854,-0.270703,-1.412314,0.919752,-0.392300,0.002662,-0.012263
4240,0.057135,-7.037395,6.759559,-0.013597,0.174494,-0.021080,-46.196182,-0.271940,-1.416951,0.919750,-0.392302,0.002668,-0.012305
4241,0.055069,-7.035109,6.759275,0.039888,0.174427,-0.022675,-46.192627,-0.272316,-1.421668,0.919762,-0.392274,0.002681,-0.012344
4242,0.047630,-7.030793,6.763952,0.033897,0.175920,-0.008978,-46.186874,-0.270616,-1.426268,0.919781,-0.392227,0.002710,-0.012375
4243,0.048266,-7.030045,6.769144,-0.011723,0.175909,-0.021197,-46.180206,-0.267591,-1.430878,0.919804,-0.392173,0.002749,-0.012402
4244,0.047581,-7.027819,6.772983,-0.051210,0.168265,0.003201,-46.173702,-0.264651,-1.435259,0.919826,-0.392121,0.002787,-0.012427
4245,0.047078,-7.026892,6.773695,-0.076946,0.168252,0.016921,-46.167656,-0.261306,-1.439111,0.919846,-0.392072,0.002826,-0.012447
4246,0.046513,-7.038191,6.774071,-0.085940,0.166713,0.023010,-46.163864,-0.257734,-1.442708,0.919859,-0.392041,0.002867,-0.012463
4247,0.049581,-7.050887,6.764755,-0.116416,0.148377,0.029086,-46.165565,-0.254954,-1.445902,0.919853,-0.392054,0.002900,-0.012480
4248,0.048561,-7.044981,6.763156,-0.116438,0.146814,0.038203,-46.170311,-0.252836,-1.448670,0.919837,-0.392092,0.002927,-0.012494
4249,0.051211,-7.038637,6.764396,-0.069110,0.154400,0.027476,-46.172436,-0.251159,-1.451538,0.919829,-0.392109,0.002951,-0.012512
4250,0.053320,-7.046899,6.759150,-0.090465,0.154337,0.039617,-46.174740,-0.250436,-1.454477,0.919821,-0.392127,0.002967,-0.012533
4251,0.061435,-7.039794,6.754581,-0.154580,0.158815,0.039513,-46.179855,-0.251606,-1.457325,0.919803,-0.392168,0.002968,-0.012559
4252,0.064317,-7.028873,6.760273,-0.098076,0.166308,0.031742,-46.182243,-0.254885,-1.460420,0.919794,-0.392188,0.002952,-0.012595
4253,0.064154,-7.043190,6.760664,-0.110221,0.161588,0.022437,-46.183247,-0.258712,-1.463748,0.919790,-0.392196,0.002933,-0.012635
4254,0.060852,-7.047556,6.761216,-0.096485,0.162987,0.007046,-46.186508,-0.261942,-1.467312,0.919778,-0.392223,0.002920,-0.012675
4255,0.059133,-7.047452,6.763956,-0.055278,0.176614,-0.011375,-46.188820,-0.264182,-1.471447,0.919770,-0.392241,0.002916,-0.012716
4256,0.047431,-7.056479,6.769789,-0.026277,0.171980,-0.011435,-46.189774,-0.263721,-1.475905,0.919766,-0.392249,0.002935,-0.012750
4257,0.041633,-7.052290,6.768711,0.011884,0.173509,-0.016009,-46.189487,-0.259866,-1.480379,0.919767,-0.392246,0.002981,-0.012773
4258,0.040570,-7.037288,6.769622,0.025696,0.184215,-0.008354,-46.185730,-0.254648,-1.484976,0.919780,-0.392215,0.003039,-0.012792
4259,0.037131,-7.044482,6.765599,-0.045934,0.179672,0.009991,-46.182461,-0.248474,-1.489349,0.919791,-0.392188,0.003103,-0.012806
4260,0.035371,-7.038118,6.765071,-0.062653,0.173613,0.006986,-46.181648,-0.241603,-1.493414,0.919793,-0.392181,0.003172,-0.012815
4261,0.041996,-7.031538,6.756138,-0.068685,0.182789,0.007007,-46.180935,-0.236131,-1.497550,0.919796,-0.392175,0.003230,-0.012829
4262,0.044761,-7.038484,6.754034,-0.082388,0.185822,0.008514,-46.182209,-0.232755,-1.501809,0.919791,-0.392184,0.003272,-0.012852
4263,0.044946,-7.040825,6.751753,-0.039678,0.185788,-0.011358,-46.184856,-0.230435,-1.506309,0.919782,-0.392205,0.003306,-0.012880
4264,0.052358,-7.037670,6.750072,0.038121,0.190304,-0.020579,-46.185822,-0.230094,-1.511196,0.919778,-0.392213,0.003325,-0.012918
4265,0.055735,-7.043164,6.754123,0.041152,0.188677,-0.014579,-46.185295,-0.231955,-1.516157,0.919779,-0.392209,0.003327,-0.012964
4266,0.051790,-7.029079,6.764746,0.062576,0.184003,-0.011629,-46.181107,-0.233615,-1.520951,0.919793,-0.392175,0.003330,-0.013009
4267,0.046827,-7.022561,6.761629,-0.002886,0.183938,0.011190,-46.173946,-0.233168,-1.525406,0.919817,-0.392117,0.003348,-0.013043
4268,0.044940,-7.027581,6.764498,-0.077509,0.180844,0.032510,-46.169350,-0.230846,-1.529312,0.919832,-0.392080,0.003380,-0.013067
4269,0.042623,-7.021304,6.769504,-0.141426,0.171660,0.049264,-46.166172,-0.227472,-1.532634,0.919843,-0.392054,0.003418,-0.013082
4270,0.037746,-7.021821,6.758811,-0.197722,0.170126,0.066040,-46.165279,-0.222607,-1.535438,0.919846,-0.392046,0.003466,-0.013088
4271,0.041720,-7.030831,6.758060,-0.173220,0.173169,0.061452,-46.167957,-0.217676,-1.538108,0.919837,-0.392067,0.003515,-0.013092
4272,0.047781,-7.037454,6.759871,-0.116720,0.168541,0.043089,-46.171200,-0.215321,-1.541016,0.919825,-0.392093,0.003544,-0.013107
4273,0.045447,-7.036489,6.754404,-0.121286,0.174579,0.041494,-46.174660,-0.214161,-1.544167,0.919813,-0.392121,0.003565,-0.013129
4274,0.044075,-7.038222,6.759926,-0.083123,0.188257,0.021600,-46.177433,-0.212423,-1.547804,0.919804,-0.392143,0.003592,-0.013152
4275,0.049723,-7.041705,6.762447,-0.058676,0.191237,0.009318,-46.178520,-0.211805,-1.552015,0.919799,-0.392151,0.003611,-0.013183
4276,0.046778,-7.043867,6.760952,-0.142583,0.189629,0.019913,-46.181095,-0.211795,-1.556260,0.919790,-0.392172,0.003626,-0.013217
4277,0.050051,-7.032146,6.763637,-0.137947,0.195650,0.018300,-46.183407,-0.211717,-1.560461,0.919782,-0.392190,0.003641,-0.013251
4278,0.056638,-7.042943,6.766432,-0.151595,0.192481,0.028860,-46.184803,-0.213426,-1.564597,0.919776,-0.392201,0.003642,-0.013290
4279,0.055313,-7.042733,6.766648,-0.180524,0.196926,0.034824,-46.187798,-0.215887,-1.568555,0.919765,-0.392225,0.003636,-0.013330
4280,0.056256,-7.039703,6.764730,-0.210971,0.201373,0.034688,-46.191441,-0.217966,-1.572554,0.919752,-0.392255,0.003633,-0.013369
4281,0.058687,-7.053201,6.758899,-0.209430,0.205812,0.025388,-46.197853,-0.220562,-1.576760,0.919730,-0.392306,0.003628,-0.013411
4282,0.053230,-7.061769,6.763399,-0.162184,0.204160,0.014576,-46.206287,-0.222605,-1.581221,0.919700,-0.392374,0.003628,-0.013454
4283,0.053798,-7.056195,6.760022,-0.131715,0.199476,0.014465,-46.213177,-0.223739,-1.585734,0.919676,-0.392429,0.003635,-0.013494
4284,0.054569,-7.060428,6.752091,-0.130262,0.191738,0.029611,-46.220428,-0.225001,-1.589920,0.919650,-0.392488,0.003640,-0.013531
4285,0.051815,-7.052270,6.760700,-0.063166,0.197739,0.027980,-46.225460,-0.225657,-1.593936,0.919633,-0.392528,0.003649,-0.013566
4286,0.053953,-7.049562,6.759408,-0.000576,0.200694,0.026352,-46.225407,-0.226067,-1.598108,0.919632,-0.392527,0.003660,-0.013601
4287,0.049246,-7.046399,6.758471,0.013201,0.203657,0.030837,-46.223434,-0.225842,-1.602322,0.919639,-0.392511,0.003676,-0.013634
4288,0.050550,-7.020700,6.767838,0.060674,0.208158,0.000237,-46.215408,-0.225189,-1.606946,0.919666,-0.392447,0.003696,-0.013669
4289,0.049604,-7.020146,6.766374,0.083841,0.206554,-0.007475,-46.201859,-0.225074,-1.612064,0.919712,-0.392338,0.003713,-0.013710
4290,0.051156,-7.024042,6.770750,0.035270,0.198844,0.004646,-46.189495,-0.225153,-1.617015,0.919753,-0.392238,0.003728,-0.013750
4291,0.049336,-7.018458,6.775163,-0.010232,0.175875,0.012191,-46.178085,-0.225293,-1.621371,0.919792,-0.392147,0.003740,-0.013786
4292,0.055167,-7.019889,6.771175,-0.089312,0.174255,0.021247,-46.168934,-0.226296,-1.625238,0.919823,-0.392073,0.003744,-0.013821
4293,0.053828,-7.039617,6.766856,-0.105946,0.177199,0.045548,-46.166111,-0.227714,-1.628717,0.919832,-0.392051,0.003744,-0.013854
4294,0.050436,-7.043422,6.764633,-0.118114,0.183211,0.036297,-46.168278,-0.227828,-1.632112,0.919824,-0.392068,0.003755,-0.013881
4295,0.047892,-7.052476,6.758581,-0.063215,0.186193,0.027069,-46.172661,-0.226845,-1.635816,0.919809,-0.392103,0.003776,-0.013908
4296,0.048979,-7.047199,6.761240,-0.019017,0.196809,0.028527,-46.176167,-0.225543,-1.639771,0.919796,-0.392131,0.003801,-0.013935
4297,0.050212,-7.049388,6.761026,-0.037356,0.193683,0.045234,-46.178215,-0.224466,-1.643611,0.919789,-0.392147,0.003823,-0.013962
4298,0.047449,-7.050246,6.762304,-0.048068,0.195138,0.029902,-46.180820,-0.223169,-1.647414,0.919779,-0.392168,0.003847,-0.013988
4299,0.049640,-7.041087,6.767746,-0.011421,0.185911,0.038983,-46.180775,-0.222006,-1.651206,0.919779,-0.392167,0.003869,-0.014014
4300,0.049454,-7.043776,6.766665,-0.061711,0.175152,0.041953,-46.179379,-0.221404,-1.654624,0.919784,-0.392156,0.003885,-0.014040
4301,0.049120,-7.045760,6.766783,-0.089133,0.170496,0.035768,-46.180096,-0.220973,-1.657890,0.919781,-0.392161,0.003900,-0.014064
4302,0.048505,-7.041603,6.763751,-0.064677,0.170421,0.009750,-46.181000,-0.220837,-1.661471,0.919777,-0.392168,0.003914,-0.014093
4303,0.047405,-7.042483,6.757586,-0.104329,0.174929,0.027988,-46.182953,-0.220434,-1.665192,0.919770,-0.392184,0.003930,-0.014121
4304,0.050754,-7.048833,6.755973,-0.130299,0.182481,0.029433,-46.187984,-0.220115,-1.668823,0.919752,-0.392224,0.003945,-0.014149
4305,0.053819,-7.039327,6.758659,-0.108944,0.196115,0.032381,-46.192272,-0.220779,-1.672662,0.919737,-0.392258,0.003954,-0.014182
4306,0.049221,-7.042688,6.756535,-0.125706,0.215857,0.036859,-46.195274,-0.220661,-1.676821,0.919726,-0.392282,0.003969,-0.014215
4307,0.050072,-7.045452,6.758484,-0.102810,0.217300,0.036774,-46.198780,-0.219491,-1.681183,0.919714,-0.392310,0.003994,-0.014246
4308,0.052311,-7.044813,6.760572,-0.067694,0.217208,0.025996,-46.200817,-0.219079,-1.685689,0.919707,-0.392326,0.004013,-0.014280
4309,0.053240,-7.041775,6.759618,-0.038661,0.203370,-0.000053,-46.200939,-0.219945,-1.690455,0.919705,-0.392327,0.004022,-0.014322
4310,0.053016,-7.048497,6.748180,-0.041726,0.207842,-0.026106,-46.202808,-0.221675,-1.695701,0.919698,-0.392342,0.004027,-0.014370
4311,0.055864,-7.045886,6.747623,-0.096727,0.206202,-0.024698,-46.207825,-0.224103,-1.701258,0.919680,-0.392383,0.004027,-0.014422
4312,0.055505,-7.045777,6.747496,-0.131879,0.210659,-0.026350,-46.213844,-0.226852,-1.706852,0.919659,-0.392431,0.004025,-0.014476
4313,0.056641,-7.041563,6.747748,-0.101393,0.192228,-0.034103,-46.218967,-0.229859,-1.712392,0.919640,-0.392472,0.004020,-0.014531
4314,0.053537,-7.039949,6.753715,-0.130367,0.207378,-0.011329,-46.222031,-0.232147,-1.717727,0.919629,-0.392497,0.004020,-0.014582
4315,0.050125,-7.034146,6.760388,-0.105856,0.193560,0.006893,-46.222103,-0.232470,-1.722618,0.919628,-0.392497,0.004035,-0.014622
4316,0.049760,-7.029236,6.764348,-0.008023,0.185861,-0.002336,-46.217079,-0.232107,-1.727160,0.919645,-0.392457,0.004052,-0.014657
4317,0.046680,-7.018443,6.768004,0.031898,0.184276,0.014387,-46.206722,-0.231092,-1.731515,0.919680,-0.392374,0.004074,-0.014689
4318,0.043994,-7.030147,6.766174,-0.024321,0.190341,0.026552,-46.197014,-0.228593,-1.735589,0.919713,-0.392295,0.004107,-0.014714
4319,0.041999,-7.036855,6.761332,-0.042497,0.182685,0.028051,-46.192654,-0.225141,-1.739468,0.919727,-0.392260,0.004147,-0.014733
4320,0.042195,-7.035789,6.763382,-0.075970,0.188766,0.032603,-46.190788,-0.221478,-1.743251,0.919733,-0.392244,0.004190,-0.014751
4321,0.041071,-7.044576,6.758319,-0.124747,0.193320,0.041734,-46.191975,-0.217581,-1.746997,0.919729,-0.392253,0.004234,-0.014768
4322,0.042316,-7.052032,6.754020,-0.167508,0.197868,0.035599,-46.198223,-0.213814,-1.750805,0.919707,-0.392303,0.004278,-0.014785
4323,0.041687,-7.046945,6.750984,-0.152312,0.197832,0.037088,-46.206047,-0.210430,-1.754717,0.919680,-0.392365,0.004319,-0.014805
4324,0.044522,-7.050860,6.749357,-0.138641,0.193208,0.030935,-46.213417,-0.207830,-1.758628,0.919655,-0.392424,0.004355,-0.014827
4325,0.041289,-7.048265,6.746521,-0.105142,0.188580,0.018677,-46.220310,-0.205682,-1.762639,0.919631,-0.392478,0.004386,-0.014851
4326,0.045285,-7.045954,6.749842,-0.094501,0.182421,0.009465,-46.225254,-0.204227,-1.766773,0.919614,-0.392518,0.004413,-0.014879
4327,0.043879,-7.053453,6.746579,-0.131171,0.177778,0.004819,-46.230934,-0.203688,-1.770936,0.919594,-0.392563,0.004432,-0.014911
4328,0.045005,-7.055421,6.745158,-0.137363,0.186868,-0.007457,-46.238914,-0.203311,-1.775343,0.919566,-0.392627,0.004451,-0.014945
4329,0.046042,-7.053300,6.746016,-0.076404,0.197475,-0.012111,-46.245583,-0.203365,-1.780183,0.919542,-0.392680,0.004468,-0.014983
4330,0.049653,-7.059887,6.743083,-0.058182,0.198912,-0.015256,-46.251339,-0.204293,-1.785258,0.919522,-0.392726,0.004479,-0.015027
4331,0.045471,-7.051823,6.742507,0.010400,0.203403,-0.027555,-46.255531,-0.205198,-1.790583,0.919507,-0.392760,0.004491,-0.015073
4333,0.043917,-7.054744,6.745136,0.124791,0.189603,-0.045935,-46.255344,-0.205398,-1.796154,0.919506,-0.392758,0.004508,-0.015118
4334,0.040769,-7.043108,6.752767,0.217889,0.174293,-0.050565,-46.248955,-0.205253,-1.801650,0.919528,-0.392707,0.004527,-0.015162
4335,0.038746,-7.040435,6.757545,0.149326,0.155950,-0.041443,-46.238678,-0.204428,-1.806701,0.919562,-0.392624,0.004550,-0.015200
4336,0.035447,-7.031160,6.761200,0.093026,0.158987,-0.029252,-46.228222,-0.202515,-1.811329,0.919598,-0.392540,0.004580,-0.015231
4337,0.032953,-7.035671,6.755501,0.022986,0.152888,-0.010937,-46.220215,-0.199230,-1.815568,0.919625,-0.392475,0.004620,-0.015254
4338,0.035349,-7.029208,6.757699,-0.028767,0.157467,0.016529,-46.215088,-0.195569,-1.819256,0.919642,-0.392433,0.004661,-0.015271
4339,0.036469,-7.035971,6.753035,-0.120211,0.157451,0.031771,-46.213173,-0.192261,-1.822503,0.919648,-0.392417,0.004698,-0.015286
4340,0.037469,-7.029788,6.752437,-0.101817,0.171157,0.021062,-46.213531,-0.189392,-1.825859,0.919647,-0.392420,0.004733,-0.015303
4341,0.043103,-7.037254,6.751350,-0.091065,0.175683,0.024058,-46.213867,-0.187909,-1.829522,0.919645,-0.392422,0.004757,-0.015328
4342,0.046855,-7.040784,6.752390,-0.033044,0.172544,0.014811,-46.214527,-0.188463,-1.833268,0.919643,-0.392427,0.004766,-0.015359
4343,0.044477,-7.041186,6.751384,0.028015,0.177029,0.002508,-46.213699,-0.189558,-1.837277,0.919645,-0.392421,0.004771,-0.015395
4344,0.043409,-7.038146,6.756058,0.136400,0.183053,-0.009782,-46.209179,-0.190098,-1.841700,0.919660,-0.392384,0.004781,-0.015433
