seq,ax,ay,az,wroll,wpitch,wyaw,roll,pitch,yaw
87,0.055237,0.158717,-9.872210,0.321687,-0.004102,-1.779008,179.217972,-0.251993,-35.720276
88,0.052753,0.163683,-9.871060,-1.070713,0.398972,-0.026367,179.205353,-0.258160,-35.690090
89,0.049738,0.165022,-9.871119,-1.042218,0.249732,-0.037553,179.170120,-0.268950,-35.688869
90,0.046443,0.165969,-9.876483,-0.850172,0.060455,-0.045642,179.138580,-0.274099,-35.687416
92,0.045664,0.167603,-9.873850,-0.690093,0.004175,-0.047504,179.112900,-0.275153,-35.685841
93,0.043495,0.169532,-9.874978,-0.287849,-0.002869,-0.045810,179.096588,-0.275150,-35.684292
94,0.045757,0.166347,-9.870712,-0.162437,0.038625,-0.041564,179.089081,-0.275723,-35.682823
95,0.043682,0.170834,-9.872567,-0.234247,-0.001001,-0.030304,179.082458,-0.276331,-35.681614
96,0.045963,0.177177,-9.870612,-0.336051,0.040205,-0.019450,179.072952,-0.276971,-35.680775
97,0.047402,0.178012,-9.871552,-0.315998,0.059073,-0.015928,179.062088,-0.278616,-35.680153
99,0.045836,0.173364,-9.866267,-0.190196,0.015502,-0.031172,179.053650,-0.279845,-35.679348
100,0.047172,0.172687,-9.866844,-0.137594,0.038184,-0.036740,179.048172,-0.280721,-35.678211
101,0.048458,0.169377,-9.861149,-0.028700,0.066231,-0.032944,179.045395,-0.282442,-35.677013
102,0.049957,0.166947,-9.863045,0.020700,0.110118,-0.047558,179.045258,-0.285359,-35.675632
103,0.047318,0.164587,-9.860557,0.077123,0.054109,-0.052902,179.046875,-0.288067,-35.673908
104,0.049452,0.167181,-9.861487,-0.060114,0.098196,-0.045359,179.047150,-0.290578,-35.672230
106,0.046616,0.164565,-9.861774,0.050776,-0.025244,-0.034717,179.046997,-0.291772,-35.670876
107,0.045156,0.166513,-9.862166,-0.058083,-0.089713,-0.036133,179.046860,-0.289836,-35.669731
108,0.048193,0.167882,-9.857897,-0.088790,0.012363,-0.031219,179.044403,-0.288529,-35.668625
109,0.049474,0.163588,-9.859430,0.078084,0.067424,-0.035477,179.044220,-0.289840,-35.667496
110,0.049785,0.168010,-9.860399,-0.067241,0.062834,-0.028631,179.044403,-0.291993,-35.666393
111,0.050650,0.170093,-9.864365,-0.161230,0.076155,-0.028731,179.040588,-0.294293,-35.665394
113,0.053584,0.166884,-9.865148,0.024843,0.151944,-0.035541,179.038315,-0.298076,-35.664261
114,0.048232,0.162772,-9.872587,0.172005,-0.066845,-0.033881,179.041580,-0.299475,-35.663082
115,0.047181,0.174817,-9.878177,-0.305882,-0.122675,-0.024962,179.039352,-0.296300,-35.662151
116,0.043606,0.175201,-9.880050,-0.100576,-0.098925,-0.034246,179.032562,-0.292591,-35.661228
117,0.043349,0.177286,-9.880903,-0.143479,-0.084155,-0.046424,179.028488,-0.289517,-35.659939
118,0.048490,0.179238,-9.881898,-0.163619,0.036326,-0.044730,179.023376,-0.288694,-35.658428
120,0.046369,0.189933,-9.878224,-0.326861,-0.005207,-0.050874,179.015182,-0.289185,-35.656830
121,0.044176,0.178061,-9.872333,-0.245276,-0.149778,-0.063675,179.005646,-0.286570,-35.654964
122,0.044485,0.172370,-9.871471,0.015554,-0.120986,-0.049608,179.001801,-0.282025,-35.653152
123,0.045079,0.172615,-9.871341,0.047956,-0.081233,-0.048635,179.002853,-0.278627,-35.651577
124,0.042409,0.170963,-9.867409,0.100862,-0.171418,-0.037523,179.005325,-0.274391,-35.650211
125,0.043749,0.167395,-9.865327,0.202816,-0.089934,-0.024912,179.010391,-0.270018,-35.649246
127,0.046141,0.174723,-9.872290,-0.069906,0.024482,-0.025845,179.012604,-0.268913,-35.648418
128,0.048299,0.177190,-9.874787,-0.196987,0.115639,-0.026345,179.008148,-0.271233,-35.647511
129,0.050633,0.175302,-9.868353,-0.102700,0.197431,-0.033768,179.003143,-0.276433,-35.646420
130,0.053382,0.181659,-9.865666,-0.310362,0.270943,-0.047287,178.996246,-0.284214,-35.644932
131,0.051271,0.180440,-9.867751,-0.230339,0.140298,-0.056773,178.987228,-0.291036,-35.643074
132,0.050724,0.174163,-9.865215,0.026807,0.072757,-0.057966,178.983826,-0.294553,-35.641102
134,0.052672,0.176556,-9.861209,-0.039515,0.125748,-0.063520,178.983612,-0.297825,-35.639015
135,0.053379,0.179349,-9.863131,-0.131513,0.118574,-0.051760,178.980743,-0.301862,-35.637024
136,0.049678,0.175860,-9.869216,-0.027484,-0.048519,-0.063083,178.978088,-0.302996,-35.635086
137,0.055960,0.170869,-9.867644,0.195367,0.170743,-0.062482,178.980865,-0.304995,-35.632957
138,0.054534,0.175404,-9.864547,0.033066,0.101543,-0.055521,178.984665,-0.309498,-35.630909
139,0.053124,0.177096,-9.868312,-0.052915,0.018305,-0.052889,178.984329,-0.311463,-35.629070
140,0.051439,0.172731,-9.871948,0.113322,-0.041965,-0.057914,178.985321,-0.311036,-35.627232
141,0.052645,0.169167,-9.868906,0.283537,0.008430,-0.048734,178.991928,-0.310445,-35.625465
142,0.047852,0.168498,-9.868389,0.245676,-0.157769,-0.044313,179.000748,-0.307930,-35.623955
143,0.048893,0.166396,-9.872101,0.268536,-0.096731,-0.040148,179.009308,-0.303664,-35.622620
144,0.049894,0.159229,-9.867849,0.491265,-0.036547,-0.040922,179.021957,-0.301420,-35.621311
145,0.049557,0.162970,-9.864730,0.246070,-0.044760,-0.049692,179.034241,-0.300040,-35.619823
146,0.047220,0.159136,-9.873682,0.316394,-0.133230,-0.049147,179.043610,-0.297046,-35.618221
147,0.048081,0.171336,-9.878997,-0.207141,-0.079223,-0.054018,179.045425,-0.293477,-35.616566
148,0.049826,0.172783,-9.876678,-0.291765,0.014755,-0.058960,179.037094,-0.292371,-35.614704
149,0.046535,0.173381,-9.881922,-0.239946,-0.103048,-0.060759,179.028229,-0.290866,-35.612732
150,0.048326,0.166424,-9.882958,0.068277,-0.013780,-0.047160,179.025360,-0.288888,-35.610970
151,0.049163,0.177425,-9.876821,-0.325536,0.048538,-0.049932,179.021057,-0.289440,-35.609341
153,0.049008,0.174783,-9.871635,-0.181650,0.029397,-0.044878,179.012604,-0.290712,-35.607742
154,0.048670,0.171298,-9.869706,0.017250,0.007213,-0.056512,179.009842,-0.291293,-35.606041
155,0.051562,0.174873,-9.865805,-0.132865,0.120926,-0.061393,179.007904,-0.293394,-35.604034
156,0.045537,0.179976,-9.868697,-0.278805,-0.128225,-0.057336,179.001038,-0.293238,-35.602062
157,0.043758,0.175426,-9.865465,-0.075347,-0.204470,-0.043671,178.995132,-0.287664,-35.600471
158,0.042056,0.171416,-9.868259,0.094870,-0.231407,-0.040170,178.995453,-0.280376,-35.599205
159,0.036812,0.173035,-9.872094,0.038829,-0.388525,-0.029388,178.997665,-0.270026,-35.598228
160,0.034284,0.167847,-9.874660,0.255244,-0.423036,-0.019851,179.002563,-0.256487,-35.597645
161,0.039285,0.167034,-9.871433,0.219955,-0.136854,-0.027255,179.010483,-0.247144,-35.597023
162,0.041122,0.173581,-9.872258,-0.064150,0.003710,-0.038508,179.013077,-0.244906,-35.595970
163,0.043513,0.173167,-9.871370,-0.046136,0.113149,-0.042806,179.011230,-0.246830,-35.594578
164,0.052126,0.180102,-9.868578,-0.322036,0.436718,-0.047648,179.005096,-0.255967,-35.592907
165,0.053353,0.184332,-9.866275,-0.434146,0.417987,-0.051480,178.992477,-0.270181,-35.591011
166,0.051290,0.185693,-9.865833,-0.391631,0.234112,-0.049797,178.978714,-0.281018,-35.589130
167,0.050340,0.178097,-9.867400,-0.037303,0.121426,-0.052942,178.971558,-0.286912,-35.587307
168,0.050372,0.176926,-9.868482,0.063290,0.087166,-0.037893,178.971970,-0.290361,-35.585735
169,0.046164,0.169743,-9.868904,0.331786,-0.092547,-0.024525,178.978561,-0.290252,-35.584698
170,0.045119,0.168550,-9.870126,0.302770,-0.119264,-0.023662,178.989120,-0.286709,-35.583958
171,0.040810,0.170084,-9.872135,0.183600,-0.257551,-0.026739,178.997223,-0.280414,-35.583229
172,0.040707,0.167646,-9.870927,0.222104,-0.224917,-0.006033,179.003983,-0.272365,-35.582825
173,0.037813,0.162686,-9.873258,0.357541,-0.289724,-0.017014,179.013657,-0.263782,-35.582588
174,0.036688,0.166618,-9.873890,0.142306,-0.291709,-0.020800,179.021973,-0.254082,-35.582130
175,0.036988,0.166015,-9.877619,0.134636,-0.223983,-0.024220,179.026596,-0.245476,-35.581524
176,0.043559,0.166150,-9.876175,0.083387,0.082921,-0.019206,179.030228,-0.243113,-35.580841
177,0.044880,0.170103,-9.880257,-0.071323,0.147378,-0.032575,179.030426,-0.246936,-35.579918
178,0.046822,0.172268,-9.875647,-0.141955,0.202637,-0.041277,179.026855,-0.252748,-35.578583
179,0.047266,0.169868,-9.870692,-0.051387,0.203860,-0.038089,179.023636,-0.259499,-35.577145
180,0.047315,0.174065,-9.869857,-0.155687,0.165031,-0.040955,179.020172,-0.265624,-35.575722
181,0.044189,0.167709,-9.871346,0.096817,0.008581,-0.050084,179.019180,-0.268491,-35.574150
182,0.044409,0.168879,-9.871103,0.039120,0.002864,-0.044333,179.021439,-0.268655,-35.572578
183,0.048360,0.170689,-9.872602,-0.032166,0.153593,-0.040666,179.021545,-0.271238,-35.571114
184,0.048604,0.173003,-9.875254,-0.132117,0.131782,-0.036638,179.018799,-0.275972,-35.569744
185,0.045828,0.168685,-9.869511,0.041760,-0.013317,-0.025891,179.017288,-0.277928,-35.568668
186,0.044163,0.174486,-9.867745,-0.160793,-0.080910,-0.023624,179.015305,-0.276344,-35.567871
187,0.046292,0.172460,-9.863726,-0.069509,0.011949,-0.020110,179.011459,-0.275182,-35.567165
188,0.045641,0.173283,-9.860847,-0.071406,-0.010676,-0.028064,179.009109,-0.275189,-35.566360
189,0.046306,0.176790,-9.860481,-0.199452,0.023604,-0.028196,179.004593,-0.275388,-35.565418
190,0.049516,0.179406,-9.861273,-0.251521,0.155562,-0.034080,178.997070,-0.278356,-35.564331
191,0.048912,0.188010,-9.861061,-0.553547,0.107405,-0.034636,178.983643,-0.282718,-35.563103
192,0.047323,0.183312,-9.862646,-0.300027,0.014195,-0.036459,178.969421,-0.284723,-35.561882
193,0.039305,0.184888,-9.865206,-0.245363,-0.309518,-0.035892,178.960327,-0.279780,-35.560764
194,0.040868,0.177227,-9.866365,0.097548,-0.223179,-0.043253,178.957855,-0.270879,-35.559608
195,0.040354,0.174978,-9.870226,0.176628,-0.192954,-0.045150,178.962418,-0.263918,-35.558266
196,0.040060,0.168699,-9.868530,0.431546,-0.163122,-0.045105,178.972549,-0.257957,-35.556866
197,0.036774,0.175365,-9.871737,0.101109,-0.239638,-0.040434,178.981415,-0.251220,-35.555561
198,0.042394,0.174668,-9.870068,0.050306,0.025526,-0.034463,178.983932,-0.247630,-35.554375
199,0.041240,0.178268,-9.868289,-0.075601,0.001034,-0.038530,178.983505,-0.248051,-35.553158
200,0.043991,0.176474,-9.866066,-0.032585,0.113139,-0.030330,178.981705,-0.249933,-35.551975
201,0.043479,0.172953,-9.868719,0.130574,0.084196,-0.031786,178.983322,-0.253203,-35.550877
202,0.047480,0.175261,-9.865759,0.012625,0.215946,-0.039066,178.985703,-0.258184,-35.549610
203,0.049920,0.173783,-9.867278,0.073770,0.261631,-0.048516,178.987137,-0.266117,-35.548012
204,0.050534,0.174365,-9.868956,0.049720,0.228343,-0.043061,178.989197,-0.274255,-35.546345
205,0.051248,0.173572,-9.867736,0.059397,0.199578,-0.051074,178.990997,-0.281358,-35.544651
206,0.053716,0.176302,-9.866974,-0.045202,0.251262,-0.041657,178.991226,-0.288844,-35.542973
207,0.053407,0.178411,-9.864212,-0.126620,0.202200,-0.024830,178.988358,-0.296381,-35.541733
208,0.050426,0.178001,-9.864868,-0.096622,0.045158,-0.018365,178.984634,-0.300490,-35.540939
209,0.046071,0.180828,-9.864953,-0.174464,-0.141341,-0.022196,178.980118,-0.298875,-35.540295
210,0.047564,0.185627,-9.865057,-0.326106,-0.071470,-0.018756,178.971771,-0.295317,-35.539677
211,0.051752,0.179986,-9.867379,-0.061959,0.106186,-0.023281,178.965302,-0.295882,-35.538963
212,0.050220,0.171909,-9.869678,0.313825,0.024425,-0.048538,178.969482,-0.298037,-35.537735
213,0.049744,0.170165,-9.868237,0.340750,-0.001156,-0.051954,178.980392,-0.298395,-35.536053
214,0.055706,0.164454,-9.868719,0.482610,0.219826,-0.045699,178.994110,-0.302010,-35.534363
215,0.050854,0.156990,-9.874214,0.695146,-0.003032,-0.043748,179.013718,-0.305597,-35.532803
216,0.045517,0.158886,-9.871664,0.470162,-0.234752,-0.040991,179.033142,-0.301611,-35.531460
217,0.044745,0.161787,-9.870841,0.224892,-0.222547,-0.022387,179.044724,-0.293972,-35.530533
218,0.045040,0.170207,-9.866154,-0.192371,-0.157911,-0.026412,179.045258,-0.287619,-35.529827
219,0.043708,0.170420,-9.865455,-0.204364,-0.165239,-0.029646,179.038635,-0.282218,-35.528984
220,0.041727,0.177062,-9.859118,-0.411730,-0.199310,-0.028291,179.028366,-0.276127,-35.528122
221,0.043161,0.176398,-9.858127,-0.346495,-0.102361,-0.039992,179.015732,-0.271080,-35.527073
222,0.043192,0.174534,-9.858483,-0.167751,-0.088296,-0.046322,179.007156,-0.267878,-35.525688
223,0.044087,0.167875,-9.864238,0.178271,-0.034664,-0.024110,179.007324,-0.265809,-35.524551
224,0.042105,0.171568,-9.863439,0.000634,-0.091314,-0.030407,179.010300,-0.263694,-35.523682
225,0.044586,0.166487,-9.864225,0.152204,0.022049,-0.030802,179.012833,-0.262522,-35.522682
226,0.045990,0.168727,-9.864084,0.128864,0.081156,-0.013437,179.017517,-0.264229,-35.521919
227,0.045459,0.172095,-9.863740,-0.082315,0.059237,-0.029958,179.018295,-0.266556,-35.521152
228,0.045900,0.182931,-9.863395,-0.537766,0.057768,-0.044070,179.007950,-0.268485,-35.519886
229,0.045095,0.184516,-9.867390,-0.448210,0.014155,-0.053951,178.991516,-0.269655,-35.518227
230,0.046372,0.189184,-9.869184,-0.549738,0.057458,-0.052060,178.974869,-0.270817,-35.516438
231,0.045820,0.189958,-9.873294,-0.489151,0.023777,-0.059835,178.957550,-0.272137,-35.514549
232,0.048835,0.186478,-9.879619,-0.188949,0.118539,-0.044578,178.946243,-0.274477,-35.512772
233,0.055063,0.178679,-9.879971,0.168007,0.340992,-0.040303,178.945877,-0.282108,-35.511211
234,0.054044,0.171349,-9.876840,0.433804,0.249069,-0.031376,178.955902,-0.291919,-35.509842
235,0.055432,0.168104,-9.878494,0.504241,0.234232,-0.023633,178.971527,-0.299956,-35.508781
236,0.058769,0.167483,-9.876504,0.420213,0.311270,-0.024236,178.986938,-0.309032,-35.507824
237,0.055722,0.165718,-9.871132,0.358820,0.150787,-0.027502,178.999908,-0.316717,-35.506824
238,0.048786,0.156966,-9.872083,0.617342,-0.163981,-0.031558,179.016174,-0.316480,-35.505836
239,0.043670,0.165232,-9.874604,0.192323,-0.357315,-0.026408,179.029663,-0.307777,-35.505020
240,0.045055,0.176556,-9.873640,-0.324484,-0.262086,-0.044045,179.027466,-0.297435,-35.504025
241,0.039716,0.176196,-9.877231,-0.289566,-0.387581,-0.047647,179.017212,-0.286583,-35.502686
242,0.040582,0.176198,-9.879144,-0.224842,-0.278608,-0.048612,179.008636,-0.275453,-35.501274
243,0.041407,0.183101,-9.876492,-0.415801,-0.182400,-0.047808,178.997955,-0.267743,-35.499802
244,0.049508,0.183625,-9.873454,-0.352975,0.176696,-0.039813,178.985138,-0.267622,-35.498337
245,0.043479,0.168731,-9.873048,0.293221,-0.029957,-0.037732,178.984131,-0.270045,-35.497005
246,0.046054,0.169736,-9.869629,0.255041,0.039794,-0.028799,178.993256,-0.270189,-35.495892
247,0.045394,0.175879,-9.871462,-0.007345,0.010594,-0.027570,178.997391,-0.271012,-35.494934
248,0.044829,0.181343,-9.870882,-0.280294,-0.003754,-0.032189,178.992584,-0.271109,-35.493942
249,0.041600,0.172434,-9.871041,0.096172,-0.139933,-0.047870,178.989517,-0.268691,-35.492645
250,0.045187,0.175049,-9.873031,0.012756,0.015304,-0.037958,178.991318,-0.266589,-35.491257
251,0.040829,0.175682,-9.870581,-0.032145,-0.125831,-0.040775,178.990997,-0.264724,-35.489975
252,0.041965,0.169434,-9.868377,0.202704,-0.073563,-0.037181,178.993835,-0.261378,-35.488739
253,0.046041,0.170551,-9.869511,0.135234,0.097178,-0.026749,178.999451,-0.261753,-35.487667
254,0.047998,0.169759,-9.871522,0.135941,0.180406,-0.014854,179.003967,-0.266367,-35.486893
256,0.046691,0.172101,-9.866128,0.042178,0.086834,-0.006099,179.006943,-0.270814,-35.486454
257,0.053110,0.169877,-9.868537,0.111437,0.305771,-0.008204,179.009506,-0.277353,-35.486111
258,0.050647,0.164487,-9.867003,0.277351,0.161502,-0.018801,179.015976,-0.285132,-35.485531
259,0.045221,0.164054,-9.864329,0.286533,-0.099428,-0.021770,179.025375,-0.286154,-35.484833
260,0.047054,0.169332,-9.863585,-0.019996,-0.033702,-0.028082,179.029816,-0.283922,-35.484043
261,0.047832,0.169317,-9.867788,-0.056240,0.015512,-0.047307,179.028534,-0.283597,-35.482788
262,0.048483,0.167223,-9.869339,0.021375,0.041894,-0.055578,179.027939,-0.284525,-35.481056
263,0.052833,0.173704,-9.869756,-0.215946,0.198350,-0.054092,179.024689,-0.288497,-35.479164
264,0.053758,0.171135,-9.873349,-0.084869,0.211264,-0.064034,179.019669,-0.295290,-35.477081
265,0.048945,0.172441,-9.873319,-0.101480,-0.009786,-0.067980,179.016541,-0.298609,-35.474815
266,0.048623,0.169989,-9.873560,0.008348,-0.052706,-0.060353,179.014984,-0.297531,-35.472702
267,0.048999,0.174209,-9.870429,-0.133540,-0.049247,-0.057714,179.012894,-0.295799,-35.470768
268,0.047281,0.175583,-9.869018,-0.197099,-0.101006,-0.064936,179.007370,-0.293259,-35.468765
269,0.045176,0.172975,-9.870134,-0.051412,-0.161058,-0.062291,179.003220,-0.288855,-35.466721
270,0.048948,0.175158,-9.867781,-0.108340,0.002652,-0.051975,179.000549,-0.286183,-35.464863
271,0.050873,0.177502,-9.870644,-0.188149,0.110403,-0.046179,178.995590,-0.288038,-35.463188
272,0.047645,0.176975,-9.870701,-0.094860,-0.012740,-0.037582,178.990875,-0.289641,-35.461769
273,0.049696,0.177585,-9.872231,-0.095278,0.066115,-0.021116,178.987701,-0.290513,-35.460781
274,0.054026,0.176619,-9.872272,-0.059554,0.229830,-0.011940,178.985107,-0.295435,-35.460144
275,0.050801,0.172215,-9.877261,0.169327,0.069151,-0.025926,178.986938,-0.300406,-35.459423
276,0.045538,0.174136,-9.871456,0.064409,-0.157468,-0.039596,178.990829,-0.298915,-35.458363
277,0.043936,0.177364,-9.871613,-0.109981,-0.203642,-0.042767,178.990067,-0.292873,-35.457092
278,0.043153,0.177728,-9.867410,-0.092590,-0.203896,-0.051788,178.986679,-0.286054,-35.455639
279,0.044273,0.177905,-9.861966,-0.114553,-0.127082,-0.065441,178.983215,-0.280504,-35.453777
280,0.047897,0.174376,-9.860447,0.037105,0.055227,-0.061609,178.981918,-0.279269,-35.451687
281,0.048560,0.177306,-9.859357,-0.068858,0.082384,-0.050838,178.981384,-0.281529,-35.449776
282,0.053809,0.168921,-9.857676,0.231870,0.258621,-0.049056,178.984085,-0.287182,-35.448009
283,0.050726,0.162891,-9.862539,0.516762,0.115185,-0.049181,178.996552,-0.293383,-35.446262
284,0.052761,0.166051,-9.865522,0.245082,0.167898,-0.032744,179.009247,-0.298076,-35.444820
285,0.052167,0.165229,-9.865049,0.266564,0.107450,-0.021717,179.017761,-0.302649,-35.443836
286,0.051881,0.163337,-9.868424,0.298416,0.063221,-0.034523,179.027176,-0.305477,-35.442844
287,0.049852,0.163872,-9.869548,0.135367,-0.018183,-0.024349,179.034393,-0.306211,-35.441856
288,0.049706,0.158505,-9.870864,0.378647,-0.053123,-0.022150,179.042969,-0.305010,-35.441093
289,0.048875,0.151144,-9.872550,0.571095,-0.076971,-0.018298,179.058792,-0.302831,-35.440464
290,0.050593,0.154916,-9.870599,0.304987,-0.003736,-0.016752,179.073395,-0.301476,-35.439903
291,0.050175,0.149445,-9.869510,0.458572,-0.027270,-0.004062,179.086105,-0.300954,-35.439564
292,0.050481,0.153754,-9.869995,0.234959,-0.023099,-0.009679,179.097672,-0.300111,-35.439342
293,0.051779,0.166446,-9.872772,-0.373624,0.036903,-0.010187,179.095352,-0.300336,-35.439014
294,0.049283,0.174192,-9.873558,-0.583028,-0.061885,-0.016202,179.079407,-0.299913,-35.438583
295,0.051688,0.175273,-9.875203,-0.581601,0.038850,-0.012866,179.059998,-0.299521,-35.438107
296,0.055092,0.180112,-9.874911,-0.630419,0.177409,-0.030847,179.039795,-0.303113,-35.437321
297,0.054658,0.178810,-9.876844,-0.447161,0.140340,-0.041235,179.021820,-0.308387,-35.436020
298,0.057962,0.176934,-9.871237,-0.307710,0.242512,-0.041754,179.009232,-0.314743,-35.434528
299,0.056801,0.172964,-9.869924,-0.014460,0.157694,-0.046526,179.003860,-0.321387,-35.432945
300,0.051608,0.174966,-9.869179,-0.107396,-0.076643,-0.060067,179.001816,-0.322707,-35.431141
301,0.049615,0.166524,-9.872450,0.263037,-0.165606,-0.048984,179.004395,-0.318638,-35.429401
302,0.051932,0.169960,-9.870126,0.112101,-0.049798,-0.043247,179.010651,-0.315022,-35.427929
303,0.049849,0.173641,-9.870653,-0.097499,-0.112593,-0.042124,179.010880,-0.312292,-35.426552
304,0.047947,0.175562,-9.873705,-0.132819,-0.180877,-0.054132,179.007034,-0.307373,-35.425030
305,0.051300,0.175049,-9.872920,-0.108834,-0.023860,-0.048097,179.003006,-0.303932,-35.423386
306,0.050945,0.179377,-9.869080,-0.260640,-0.017187,-0.057819,178.996826,-0.303217,-35.421631
307,0.046397,0.178825,-9.869040,-0.182974,-0.181052,-0.058895,178.989426,-0.299879,-35.419743
308,0.045141,0.178600,-9.864724,-0.135415,-0.201423,-0.071278,178.984116,-0.293468,-35.417690
309,0.046042,0.182229,-9.864234,-0.242730,-0.124138,-0.059782,178.977798,-0.288004,-35.415600
310,0.047600,0.175379,-9.865878,0.070143,-0.031656,-0.061163,178.974915,-0.285371,-35.413635
311,0.047954,0.175504,-9.865630,0.085547,0.004955,-0.045294,178.977493,-0.284895,-35.411865
312,0.046797,0.172688,-9.865766,0.170516,-0.037157,-0.044046,178.981750,-0.284332,-35.410389
313,0.046038,0.163673,-9.870942,0.493893,-0.058473,-0.026149,178.992828,-0.282718,-35.409252
314,0.047545,0.158929,-9.871024,0.578049,0.005798,-0.013746,179.010681,-0.281828,-35.408600
315,0.045734,0.169132,-9.871803,0.109663,-0.053802,-0.012707,179.022141,-0.281021,-35.408173
316,0.045730,0.172716,-9.875185,-0.117597,-0.056918,-0.025834,179.022018,-0.279165,-35.407570
317,0.047261,0.176110,-9.876611,-0.231507,0.021762,-0.022205,179.016190,-0.278565,-35.406776
318,0.051546,0.177709,-9.876055,-0.248210,0.179659,-0.027104,179.008194,-0.281907,-35.405895
319,0.051316,0.168223,-9.867240,0.141984,0.157095,-0.031715,179.006409,-0.287502,-35.404823
320,0.049892,0.167842,-9.867868,0.177459,0.059255,-0.037713,179.011734,-0.291088,-35.403603
321,0.052625,0.166981,-9.865286,0.146264,0.148745,-0.027183,179.017120,-0.294535,-35.402462
322,0.054684,0.166663,-9.866453,0.152969,0.194647,-0.027881,179.022110,-0.300242,-35.401440
323,0.049453,0.169145,-9.863541,0.009786,-0.033171,-0.037125,179.024811,-0.302914,-35.400311
324,0.050531,0.173096,-9.867386,-0.142183,-0.004488,-0.039133,179.022598,-0.302265,-35.399052
325,0.050301,0.163550,-9.867007,0.235196,0.000280,-0.025025,179.024139,-0.302177,-35.397987
326,0.047254,0.163171,-9.863085,0.229379,-0.111881,-0.034580,179.031876,-0.300300,-35.397022
327,0.047167,0.160841,-9.863081,0.276191,-0.112121,-0.034213,179.040298,-0.296548,-35.395943
328,0.051646,0.166396,-9.863254,-0.014061,0.079782,-0.023176,179.044662,-0.295993,-35.394993
329,0.049706,0.170531,-9.865829,-0.189199,0.002043,-0.028342,179.041275,-0.297342,-35.394115
330,0.048819,0.175799,-9.859228,-0.378015,-0.045070,-0.040658,179.031815,-0.296606,-35.392975
331,0.052087,0.176538,-9.862184,-0.333281,0.085578,-0.032224,179.019958,-0.297260,-35.391750
332,0.052556,0.177592,-9.862538,-0.278947,0.098952,-0.045530,179.009735,-0.300313,-35.390404
333,0.050855,0.172888,-9.864728,-0.028984,0.023625,-0.036556,179.004608,-0.302332,-35.389004
334,0.050121,0.175309,-9.866073,-0.078416,-0.012881,-0.031474,179.002808,-0.302491,-35.387863
335,0.047949,0.172441,-9.870686,0.061307,-0.081465,-0.021605,179.002518,-0.300904,-35.387001
336,0.049787,0.172340,-9.873424,0.055070,-0.000817,-0.027818,179.004456,-0.299518,-35.386204
337,0.046498,0.165888,-9.871781,0.258798,-0.114016,-0.024030,179.009674,-0.297590,-35.385376
338,0.045556,0.164821,-9.871917,0.266678,-0.149237,-0.028962,179.018433,-0.293188,-35.384571
339,0.051310,0.161231,-9.868310,0.313959,0.095563,-0.033491,179.028107,-0.292275,-35.383545
340,0.055185,0.160476,-9.870287,0.276212,0.236593,-0.043304,179.037933,-0.297789,-35.382172
341,0.051444,0.161227,-9.869271,0.177267,0.052225,-0.045235,179.045486,-0.302577,-35.380608
342,0.052477,0.163465,-9.868294,0.044681,0.058749,-0.035113,179.049179,-0.304404,-35.379246
343,0.052866,0.160338,-9.867195,0.157824,0.063301,-0.040671,179.052536,-0.306417,-35.377949
344,0.046781,0.159977,-9.868872,0.126164,-0.176630,-0.032516,179.057266,-0.304509,-35.376759
345,0.047503,0.168255,-9.868876,-0.195485,-0.144612,-0.033673,179.056107,-0.299137,-35.375744
346,0.047673,0.160661,-9.873316,0.115005,-0.102574,-0.028388,179.054764,-0.295001,-35.374779
347,0.046931,0.162392,-9.873454,0.055516,-0.108275,-0.033283,179.057602,-0.291470,-35.373806
348,0.047632,0.165303,-9.875134,-0.051795,-0.056148,-0.030065,179.057663,-0.288713,-35.372791
349,0.046572,0.159434,-9.879118,0.168482,-0.066693,-0.041516,179.059601,-0.286646,-35.371632
350,0.045094,0.151161,-9.876475,0.461567,-0.102406,-0.034609,179.070084,-0.283807,-35.370407
351,0.044100,0.156537,-9.870841,0.179689,-0.115895,-0.031674,179.080765,-0.280152,-35.369362
352,0.044497,0.153983,-9.870949,0.197500,-0.075649,-0.023266,179.087051,-0.276945,-35.368500
353,0.044226,0.150812,-9.874080,0.262817,-0.064031,-0.028813,179.094727,-0.274604,-35.367668
354,0.048268,0.156860,-9.869199,0.004889,0.099925,-0.009177,179.099182,-0.275192,-35.367027
355,0.047889,0.159405,-9.870417,-0.128516,0.078531,-0.007014,179.097122,-0.278161,-35.366707
356,0.048852,0.161964,-9.873297,-0.199178,0.088914,-0.010208,179.091660,-0.280947,-35.366379
357,0.048212,0.175554,-9.875508,-0.662432,0.049316,-0.020854,179.077286,-0.283242,-35.365818
359,0.046971,0.186130,-9.874590,-0.969951,-0.007650,-0.027967,179.050079,-0.283924,-35.364998
360,0.047025,0.194138,-9.877981,-1.066538,-0.018291,-0.050033,179.016129,-0.283469,-35.363708
361,0.044368,0.195485,-9.877912,-0.915010,-0.109380,-0.052422,178.983093,-0.281312,-35.362038
362,0.043454,0.197470,-9.874558,-0.791362,-0.124689,-0.056739,178.954651,-0.277379,-35.360287
363,0.042016,0.186403,-9.872029,-0.181872,-0.148378,-0.055910,178.938431,-0.272794,-35.358490
364,0.042619,0.174796,-9.869101,0.350223,-0.109110,-0.040187,178.941223,-0.268474,-35.356972
365,0.043027,0.170272,-9.867998,0.469934,-0.066986,-0.035632,178.954880,-0.265516,-35.355762
366,0.048346,0.165843,-9.866687,0.561122,0.145530,-0.035829,178.972061,-0.266804,-35.354549
367,0.051631,0.165186,-9.869517,0.472990,0.265146,-0.029601,178.989288,-0.273628,-35.353336
368,0.053932,0.165911,-9.871888,0.332102,0.313220,-0.035634,179.002701,-0.283247,-35.352077
369,0.052132,0.170385,-9.876269,0.088202,0.181956,-0.048333,179.009705,-0.291474,-35.350544
370,0.050696,0.167699,-9.873758,0.154575,0.068740,-0.045338,179.013748,-0.295625,-35.348911
371,0.044118,0.166643,-9.873755,0.158989,-0.201689,-0.049996,179.018967,-0.293382,-35.347363
372,0.041809,0.170198,-9.875131,0.011756,-0.277445,-0.050552,179.021805,-0.285369,-35.345821
373,0.042280,0.172522,-9.876815,-0.099301,-0.215509,-0.042235,179.020325,-0.277128,-35.344418
374,0.046853,0.174625,-9.871675,-0.175524,0.015924,-0.029540,179.015747,-0.273781,-35.343281
375,0.048943,0.177819,-9.870077,-0.253525,0.119843,-0.020605,179.008591,-0.276029,-35.342407
376,0.054842,0.176877,-9.870932,-0.170909,0.329085,-0.019669,179.001511,-0.283499,-35.341595
377,0.053374,0.169292,-9.869737,0.158878,0.216261,-0.018306,179.001312,-0.292575,-35.340809
378,0.053151,0.169918,-9.862993,0.130685,0.142600,-0.010420,179.006134,-0.298547,-35.340229
379,0.050503,0.173802,-9.866183,-0.039050,0.013903,-0.018333,179.007660,-0.301147,-35.339703
380,0.047154,0.168821,-9.870210,0.150755,-0.123990,-0.030562,179.009506,-0.299298,-35.338921
381,0.043856,0.175955,-9.873057,-0.140704,-0.235323,-0.018711,179.009674,-0.293296,-35.338203
382,0.041470,0.175096,-9.872978,-0.098749,-0.278648,-0.025514,179.005676,-0.284719,-35.337620
383,0.041825,0.168341,-9.874403,0.188956,-0.200593,-0.029020,179.007187,-0.276717,-35.336845
384,0.042083,0.164407,-9.871738,0.325864,-0.143010,-0.015083,179.015762,-0.270978,-35.336216
385,0.038930,0.168643,-9.873371,0.093094,-0.237074,-0.019023,179.022736,-0.264635,-35.335751
386,0.042760,0.162939,-9.867264,0.278845,-0.050425,-0.025724,179.028931,-0.259831,-35.335087
387,0.044451,0.167417,-9.864110,0.070641,0.055821,-0.022016,179.034760,-0.259908,-35.334293
388,0.044638,0.171145,-9.864115,-0.118581,0.059332,-0.025766,179.033951,-0.261813,-35.333462
389,0.040235,0.173242,-9.868538,-0.186527,-0.121443,-0.030645,179.028870,-0.260762,-35.332542
390,0.048449,0.174697,-9.865861,-0.197920,0.203395,-0.025387,179.022461,-0.262112,-35.331585
391,0.043595,0.183996,-9.871031,-0.517243,0.022793,-0.031593,179.010529,-0.265865,-35.330574
392,0.041111,0.186013,-9.875419,-0.514218,-0.102081,-0.030622,178.993332,-0.264526,-35.329559
393,0.042774,0.184026,-9.880928,-0.314518,-0.039221,-0.030069,178.979523,-0.262153,-35.328587
394,0.047397,0.183330,-9.876504,-0.212263,0.154227,-0.036852,178.970734,-0.264050,-35.327435
395,0.044109,0.179767,-9.877761,-0.026098,0.013167,-0.023155,178.966751,-0.266821,-35.326385
396,0.048274,0.173328,-9.877671,0.243910,0.133839,-0.020932,178.970383,-0.269257,-35.325607
397,0.053916,0.176843,-9.873238,0.081807,0.319360,-0.022702,178.975800,-0.276797,-35.324741
398,0.050150,0.185872,-9.870193,-0.294541,0.127417,-0.034058,178.972260,-0.284225,-35.323662
399,0.052113,0.189414,-9.868478,-0.415452,0.150471,-0.034185,178.960419,-0.288835,-35.322445
400,0.052950,0.188391,-9.867255,-0.296209,0.150801,-0.051897,178.948547,-0.293829,-35.320923
401,0.053119,0.191319,-9.865211,-0.326451,0.123602,-0.063234,178.938156,-0.298366,-35.318920
402,0.051406,0.189048,-9.868972,-0.188824,0.033304,-0.070297,178.929565,-0.300940,-35.316647
403,0.054563,0.179665,-9.870943,0.220850,0.133729,-0.066242,178.930084,-0.303680,-35.314308
404,0.053302,0.171693,-9.875527,0.528772,0.079633,-0.067407,178.942566,-0.307195,-35.312019
405,0.048762,0.170329,-9.875245,0.488200,-0.106668,-0.065022,178.959503,-0.306704,-35.309826
406,0.048215,0.165785,-9.874402,0.536679,-0.114780,-0.054286,178.976578,-0.302978,-35.307903
407,0.050496,0.159701,-9.868563,0.666811,-0.000374,-0.039463,178.996628,-0.301031,-35.306381
408,0.047356,0.166302,-9.865019,0.282147,-0.094848,-0.032628,179.012436,-0.299424,-35.305202
409,0.044443,0.174069,-9.861714,-0.117465,-0.204444,-0.033322,179.015167,-0.294417,-35.304192
410,0.044783,0.175588,-9.861832,-0.184908,-0.175875,-0.028324,179.010132,-0.288062,-35.303272
411,0.039722,0.175968,-9.860358,-0.159832,-0.328463,-0.018606,179.004379,-0.279644,-35.302639
412,0.037602,0.177527,-9.864617,-0.199795,-0.348311,-0.019154,178.998383,-0.268355,-35.302208
413,0.038729,0.176021,-9.866522,-0.095075,-0.231171,-0.015150,178.993469,-0.258688,-35.301811
414,0.038402,0.167502,-9.868799,0.267425,-0.181028,-0.018771,178.996338,-0.251810,-35.301365
415,0.041096,0.171051,-9.867914,0.099040,-0.008608,-0.009264,179.002441,-0.248641,-35.300953
416,0.047126,0.173920,-9.873355,-0.023912,0.226301,-0.023893,179.003693,-0.252259,-35.300339
417,0.048029,0.178010,-9.873468,-0.189228,0.224609,-0.033588,179.000137,-0.259757,-35.299248
418,0.048189,0.176375,-9.874666,-0.112806,0.190850,-0.040073,178.995087,-0.266659,-35.297897
419,0.048490,0.181495,-9.875636,-0.260201,0.152583,-0.033784,178.988876,-0.272360,-35.296570
420,0.051545,0.176438,-9.874726,-0.040408,0.226298,-0.037431,178.983856,-0.278653,-35.295269
421,0.043620,0.178260,-9.875597,-0.075900,-0.112008,-0.037521,178.981903,-0.280535,-35.293987
422,0.044458,0.177467,-9.874737,-0.033947,-0.087927,-0.038505,178.980072,-0.277181,-35.292782
423,0.046878,0.174843,-9.873723,0.076243,0.014609,-0.029853,178.980774,-0.275939,-35.291660
424,0.050323,0.176196,-9.872820,0.007865,0.152752,-0.026141,178.982162,-0.278711,-35.290680
