seq,ax,ay,az,wroll,wpitch,wyaw,roll,pitch,yaw,q0,q1,q2,q3
5473,-0.153395,-7.231046,-6.519747,-0.141262,-0.911562,0.060476,-132.038864,0.902620,-178.999054,0.010747,-0.004779,0.913648,-0.406336
5475,-0.161066,-7.221832,-6.549774,-0.122487,-0.059950,0.045362,-132.045868,0.915504,-178.988251,0.010887,-0.004821,0.913672,-0.406278
5476,-0.165765,-7.225437,-6.552985,-0.150091,-0.081340,0.024032,-132.055862,0.919639,-178.987366,0.010923,-0.004814,0.913707,-0.406198
5477,-0.168142,-7.224798,-6.555078,-0.136491,-0.078322,0.025599,-132.065979,0.924134,-178.986023,0.010963,-0.004810,0.913743,-0.406116
5478,-0.160572,-7.232931,-6.556730,-0.061841,-0.064611,0.046990,-132.074066,0.928062,-178.985138,0.010997,-0.004803,0.913771,-0.406051
5479,-0.165096,-7.236730,-6.555117,-0.046675,-0.060049,0.059216,-132.079590,0.931748,-178.984848,0.011027,-0.004793,0.913791,-0.406007
5480,-0.168026,-7.250054,-6.555020,-0.061990,-0.053970,0.045513,-132.083649,0.935879,-178.984650,0.011061,-0.004781,0.913805,-0.405974
5482,-0.163940,-7.249752,-6.556031,-0.042235,-0.046383,0.059294,-132.088669,0.940850,-178.984634,0.011100,-0.004764,0.913823,-0.405934
5483,-0.168169,-7.247387,-6.555993,-0.071367,-0.051037,0.048701,-132.096146,0.947941,-178.984726,0.011156,-0.004738,0.913849,-0.405873
5484,-0.172144,-7.253060,-6.557499,-0.126408,-0.063361,0.024418,-132.103714,0.957168,-178.984192,0.011231,-0.004711,0.913875,-0.405812
5485,-0.168273,-7.242774,-6.561790,-0.176918,-0.069564,0.004694,-132.114944,0.965008,-178.982986,0.011298,-0.004694,0.913915,-0.405721
5486,-0.166259,-7.229605,-6.564795,-0.192507,-0.084863,0.007799,-132.134262,0.969530,-178.981430,0.011339,-0.004692,0.913983,-0.405567
5487,-0.161062,-7.226001,-6.562901,-0.200533,-0.081790,0.016941,-132.156677,0.970775,-178.979919,0.011353,-0.004702,0.914062,-0.405388
5489,-0.154679,-7.224971,-6.566041,-0.193271,-0.087792,0.010734,-132.177902,0.967192,-178.978378,0.011329,-0.004729,0.914137,-0.405219
5490,-0.150142,-7.216148,-6.565135,-0.181439,-0.084569,0.018184,-132.199142,0.959576,-178.976822,0.011273,-0.004770,0.914213,-0.405050
5491,-0.152853,-7.222810,-6.561674,-0.184779,-0.093556,0.031738,-132.216721,0.952344,-178.975372,0.011219,-0.004809,0.914275,-0.404910
5492,-0.154197,-7.228430,-6.562771,-0.186429,-0.084276,0.027027,-132.227875,0.947748,-178.973923,0.011187,-0.004838,0.914315,-0.404821
5493,-0.156489,-7.226270,-6.563902,-0.178870,-0.084189,0.016251,-132.236740,0.945044,-178.972366,0.011171,-0.004861,0.914346,-0.404751
5494,-0.162904,-7.226014,-6.559801,-0.151435,-0.076538,0.040643,-132.243469,0.946337,-178.971054,0.011186,-0.004868,0.914370,-0.404697
5496,-0.165827,-7.228071,-6.562983,-0.146844,-0.073530,0.051372,-132.247910,0.951687,-178.970215,0.011231,-0.004856,0.914385,-0.404661
5497,-0.167549,-7.225307,-6.562659,-0.116319,-0.061387,0.046866,-132.252029,0.958309,-178.969650,0.011286,-0.004837,0.914399,-0.404627
5498,-0.167403,-7.218901,-6.562429,-0.090413,-0.064502,0.046936,-132.256882,0.964641,-178.969177,0.011338,-0.004819,0.914416,-0.404588
5499,-0.165572,-7.228535,-6.563580,-0.058375,-0.078271,0.040871,-132.259598,0.969432,-178.968399,0.011379,-0.004809,0.914426,-0.404566
5500,-0.159945,-7.223919,-6.567706,-0.090418,-0.067563,0.025583,-132.261993,0.970286,-178.967346,0.011389,-0.004814,0.914434,-0.404546
5501,-0.157286,-7.216538,-6.568156,-0.088994,-0.076629,0.016332,-132.269058,0.967239,-178.966110,0.011369,-0.004836,0.914459,-0.404490
5503,-0.152733,-7.218647,-6.565899,-0.089102,-0.084127,0.025345,-132.276306,0.961731,-178.964661,0.011330,-0.004867,0.914485,-0.404433
5504,-0.150036,-7.222325,-6.566445,-0.115077,-0.074800,0.022106,-132.281036,0.953989,-178.963257,0.011273,-0.004906,0.914502,-0.404395
5505,-0.151269,-7.217015,-6.569372,-0.199053,-0.048695,0.028030,-132.288239,0.946186,-178.962326,0.011213,-0.004942,0.914527,-0.404339
5506,-0.144891,-7.220898,-6.575755,-0.196107,0.070511,0.047668,-132.299103,0.936062,-178.963516,0.011128,-0.004969,0.914566,-0.404253
5507,-0.152833,-7.229991,-6.572987,-0.197650,0.140856,0.056655,-132.306412,0.925897,-178.967300,0.011033,-0.004976,0.914592,-0.404196
5508,-0.156474,-7.227786,-6.580530,-0.238826,0.208052,0.045913,-132.312820,0.919998,-178.972733,0.010967,-0.004954,0.914615,-0.404146
5510,-0.161185,-7.231616,-6.582655,-0.235787,0.229398,0.064244,-132.321320,0.917483,-178.979370,0.010923,-0.004911,0.914646,-0.404079
5511,-0.162443,-7.228836,-6.581238,-0.164053,0.214071,0.082627,-132.327530,0.918236,-178.986481,0.010903,-0.004852,0.914668,-0.404030
5512,-0.162800,-7.223236,-6.578485,-0.136572,0.076659,0.072032,-132.332077,0.921606,-178.991791,0.010911,-0.004798,0.914684,-0.403994
5513,-0.157793,-7.215962,-6.583833,-0.135119,0.006422,0.075135,-132.339508,0.925172,-178.994507,0.010930,-0.004764,0.914710,-0.403935
5514,-0.153622,-7.210093,-6.587988,-0.065133,-0.045435,0.093423,-132.351151,0.926342,-178.996048,0.010933,-0.004749,0.914751,-0.403842
5515,-0.150254,-7.204659,-6.585770,-0.004360,-0.074347,0.099446,-132.362869,0.925497,-178.996918,0.010923,-0.004746,0.914793,-0.403748
5517,-0.146537,-7.202279,-6.588239,-0.041259,-0.077272,0.084054,-132.374756,0.922135,-178.997284,0.010894,-0.004756,0.914834,-0.403654
5518,-0.156383,-7.213495,-6.584295,-0.052112,-0.064984,0.087021,-132.383118,0.921159,-178.997559,0.010885,-0.004758,0.914864,-0.403587
5519,-0.153527,-7.214008,-6.582314,-0.059756,-0.055799,0.074783,-132.385620,0.922823,-178.997910,0.010897,-0.004750,0.914873,-0.403567
5520,-0.158800,-7.220349,-6.576008,-0.085590,-0.058840,0.054930,-132.383759,0.924925,-178.997879,0.010914,-0.004742,0.914866,-0.403582
5521,-0.155983,-7.222291,-6.578363,-0.143384,-0.055788,0.028986,-132.379913,0.927151,-178.997299,0.010934,-0.004739,0.914853,-0.403612
5522,-0.157259,-7.223608,-6.580071,-0.121847,-0.038988,0.028966,-132.377380,0.927910,-178.996658,0.010943,-0.004741,0.914844,-0.403632
5524,-0.156650,-7.221406,-6.582957,-0.121723,-0.026766,0.028946,-132.376465,0.928390,-178.996429,0.010947,-0.004741,0.914840,-0.403640
5525,-0.155631,-7.217311,-6.582827,-0.112511,-0.028264,0.030441,-132.378082,0.928066,-178.996384,0.010945,-0.004743,0.914846,-0.403627
5526,-0.147768,-7.214827,-6.581846,-0.094177,-0.029704,0.030346,-132.380615,0.924343,-178.996338,0.010915,-0.004757,0.914855,-0.403607
5527,-0.147645,-7.215289,-6.581602,-0.057529,-0.029571,0.050036,-132.382126,0.918038,-178.996490,0.010864,-0.004778,0.914861,-0.403595
5528,-0.151104,-7.221834,-6.576227,-0.036046,-0.035574,0.063657,-132.378937,0.914174,-178.996887,0.010832,-0.004788,0.914850,-0.403621
5529,-0.148650,-7.221871,-6.571723,-0.009876,-0.047702,0.066615,-132.370468,0.911799,-178.997177,0.010813,-0.004793,0.914820,-0.403689
5531,-0.149014,-7.222222,-6.571006,0.002584,-0.050668,0.071093,-132.360519,0.909304,-178.997360,0.010792,-0.004800,0.914785,-0.403769
5532,-0.150307,-7.224979,-6.578616,-0.012484,-0.052122,0.081691,-132.353027,0.907975,-178.997681,0.010781,-0.004801,0.914759,-0.403829
5533,-0.154411,-7.221690,-6.579903,-0.023071,-0.041407,0.074023,-132.349838,0.908909,-178.998215,0.010787,-0.004793,0.914747,-0.403854
5534,-0.150392,-7.214767,-6.582858,-0.035298,-0.050530,0.072461,-132.351654,0.909799,-178.998749,0.010792,-0.004786,0.914754,-0.403840
5535,-0.151521,-7.205864,-6.588201,-0.046167,-0.053527,0.072405,-132.360504,0.909591,-178.999207,0.010788,-0.004784,0.914785,-0.403769
5536,-0.151603,-7.205132,-6.583142,-0.078448,-0.045849,0.067781,-132.372009,0.909743,-178.999710,0.010787,-0.004780,0.914825,-0.403677
5538,-0.153999,-7.203151,-6.576683,-0.048065,-0.059552,0.081484,-132.379562,0.911108,-179.000168,0.010796,-0.004772,0.914852,-0.403617
5539,-0.155713,-7.204321,-6.572975,-0.031316,-0.067180,0.090638,-132.382324,0.914547,-179.000565,0.010822,-0.004757,0.914862,-0.403594
5540,-0.156055,-7.201447,-6.577085,-0.046608,-0.064134,0.073860,-132.384949,0.918434,-179.000824,0.010852,-0.004742,0.914871,-0.403573
5541,-0.155372,-7.208873,-6.575610,-0.084769,-0.067181,0.058597,-132.387665,0.921274,-179.000702,0.010875,-0.004733,0.914880,-0.403551
5542,-0.159165,-7.205615,-6.581953,-0.074100,-0.073292,0.058605,-132.390778,0.924757,-179.000290,0.010904,-0.004724,0.914891,-0.403526
5543,-0.155938,-7.201274,-6.585640,-0.095586,-0.062614,0.041826,-132.398590,0.927775,-178.999832,0.010930,-0.004718,0.914918,-0.403463
5545,-0.155750,-7.201536,-6.590216,-0.100358,-0.067164,0.029592,-132.409576,0.928581,-178.999161,0.010938,-0.004722,0.914957,-0.403376
5546,-0.153814,-7.207633,-6.585347,-0.079112,-0.071695,0.032596,-132.417267,0.928263,-178.998230,0.010938,-0.004731,0.914984,-0.403314
5547,-0.151335,-7.212597,-6.586134,-0.019586,-0.067043,0.047774,-132.418274,0.926374,-178.997421,0.010926,-0.004744,0.914988,-0.403306
5548,-0.154999,-7.216853,-6.585589,0.004918,-0.065453,0.044650,-132.414917,0.925131,-178.996765,0.010919,-0.004754,0.914976,-0.403333
5549,-0.155404,-7.221922,-6.577269,0.017335,-0.066946,0.044609,-132.406113,0.925642,-178.996002,0.010926,-0.004757,0.914945,-0.403403
5550,-0.152358,-7.228477,-6.574186,0.020739,-0.082158,0.047601,-132.391479,0.925387,-178.994980,0.010928,-0.004765,0.914893,-0.403520
5552,-0.153048,-7.223937,-6.572281,0.021098,-0.089724,0.052100,-132.376373,0.924555,-178.993759,0.010926,-0.004776,0.914840,-0.403641
5553,-0.155622,-7.209451,-6.574288,0.009074,-0.089683,0.053577,-132.368484,0.925315,-178.992615,0.010937,-0.004782,0.914812,-0.403703
5554,-0.148799,-7.211166,-6.571870,0.016769,-0.101822,0.071810,-132.365448,0.924855,-178.991623,0.010937,-0.004791,0.914801,-0.403727
5555,-0.147521,-7.212223,-6.576425,0.035129,-0.100173,0.086934,-132.362595,0.921712,-178.990891,0.010914,-0.004808,0.914791,-0.403750
5556,-0.146529,-7.201297,-6.581251,0.045717,-0.093933,0.088312,-132.364975,0.918041,-178.990524,0.010886,-0.004824,0.914800,-0.403732
5557,-0.153073,-7.201561,-6.584503,0.031761,-0.081633,0.091268,-132.372604,0.916857,-178.990524,0.010876,-0.004829,0.914827,-0.403671
5559,-0.152553,-7.208852,-6.580018,0.008725,-0.092266,0.085115,-132.377823,0.918267,-178.990448,0.010888,-0.004825,0.914845,-0.403629
5560,-0.150872,-7.210902,-6.578175,0.001077,-0.063213,0.075894,-132.378403,0.918389,-178.990356,0.010889,-0.004825,0.914847,-0.403625
5561,-0.151755,-7.204656,-6.581338,-0.040169,-0.053989,0.045301,-132.380905,0.917190,-178.990311,0.010879,-0.004830,0.914856,-0.403605
5562,-0.147069,-7.202779,-6.575472,-0.055504,-0.046268,0.043677,-132.385498,0.914034,-178.990128,0.010855,-0.004843,0.914872,-0.403568
5563,-0.146040,-7.208457,-6.574718,-0.050916,-0.050722,0.045068,-132.386887,0.908901,-178.989914,0.010814,-0.004863,0.914877,-0.403558
5564,-0.144246,-7.202698,-6.571685,-0.041714,-0.044487,0.043397,-132.386566,0.903208,-178.989716,0.010770,-0.004884,0.914876,-0.403561
5566,-0.147729,-7.196751,-6.577185,-0.044813,-0.064216,0.047857,-132.389877,0.899125,-178.989426,0.010738,-0.004901,0.914888,-0.403535
5567,-0.144184,-7.204924,-6.573849,-0.029596,-0.073272,0.064535,-132.392822,0.896235,-178.989029,0.010716,-0.004915,0.914899,-0.403511
5568,-0.153610,-7.214083,-6.576290,-0.026456,-0.079324,0.072105,-132.390228,0.896506,-178.988632,0.010720,-0.004917,0.914890,-0.403532
5569,-0.150508,-7.206791,-6.574080,-0.040089,-0.065584,0.062940,-132.387344,0.899313,-178.988297,0.010743,-0.004910,0.914879,-0.403555
5570,-0.142792,-7.213895,-6.578624,-0.032387,-0.053294,0.070477,-132.385666,0.897362,-178.988281,0.010728,-0.004916,0.914873,-0.403568
5571,-0.145271,-7.221934,-6.573228,-0.024587,-0.053176,0.081026,-132.379791,0.893325,-178.988571,0.010695,-0.004928,0.914853,-0.403616
5573,-0.152534,-7.222558,-6.576131,-0.030458,-0.054656,0.084022,-132.371384,0.893651,-178.988953,0.010697,-0.004923,0.914823,-0.403683
5574,-0.144234,-7.218658,-6.573579,-0.007383,-0.045451,0.090067,-132.364609,0.893856,-178.989563,0.010696,-0.004917,0.914799,-0.403737
5575,-0.147309,-7.223706,-6.571455,0.034018,-0.054522,0.100651,-132.356125,0.892200,-178.990341,0.010681,-0.004915,0.914770,-0.403805
5576,-0.150916,-7.217813,-6.568038,0.034228,-0.066692,0.089923,-132.346588,0.893518,-178.990860,0.010690,-0.004906,0.914736,-0.403881
5577,-0.149435,-7.215496,-6.573439,0.029763,-0.074297,0.076161,-132.341034,0.895638,-178.990921,0.010707,-0.004897,0.914716,-0.403925
5578,-0.147298,-7.206948,-6.571973,0.037379,-0.071193,0.073051,-132.340439,0.895988,-178.990814,0.010710,-0.004897,0.914714,-0.403930
5580,-0.149669,-7.210126,-6.570683,0.028185,-0.081821,0.060786,-132.340912,0.896194,-178.990448,0.010713,-0.004899,0.914716,-0.403926
5581,-0.147924,-7.211399,-6.574143,0.032736,-0.080244,0.069886,-132.340897,0.896643,-178.989944,0.010718,-0.004902,0.914716,-0.403926
5582,-0.155564,-7.221443,-6.574863,0.049541,-0.074128,0.085131,-132.338745,0.899500,-178.989761,0.010742,-0.004893,0.914708,-0.403943
5583,-0.151640,-7.217478,-6.568052,0.045063,-0.058877,0.068353,-132.333160,0.903330,-178.989792,0.010773,-0.004878,0.914688,-0.403987
5584,-0.150352,-7.216630,-6.566704,0.016185,-0.055793,0.060686,-132.327560,0.904223,-178.989746,0.010780,-0.004875,0.914669,-0.404032
5585,-0.154446,-7.215487,-6.575097,-0.023457,-0.040514,0.051507,-132.326401,0.905466,-178.989807,0.010790,-0.004870,0.914664,-0.404041
5586,-0.153325,-7.208724,-6.576417,-0.049500,-0.037457,0.033194,-132.331696,0.907181,-178.989853,0.010803,-0.004864,0.914683,-0.403998
5587,-0.149304,-7.193768,-6.579028,-0.065025,-0.045045,0.036205,-132.344269,0.906630,-178.989792,0.010798,-0.004868,0.914727,-0.403898
5588,-0.151327,-7.198843,-6.583513,-0.062328,-0.041935,0.051409,-132.360519,0.905509,-178.989929,0.010788,-0.004872,0.914785,-0.403769
5589,-0.152622,-7.208417,-6.584117,-0.056469,-0.029693,0.042223,-132.372330,0.905614,-178.990250,0.010788,-0.004870,0.914826,-0.403674
5590,-0.150089,-7.215080,-6.578513,-0.036687,-0.031179,0.049811,-132.376099,0.905110,-178.990570,0.010782,-0.004870,0.914840,-0.403644
5591,-0.149909,-7.216086,-6.573205,-0.035061,-0.041806,0.043644,-132.373306,0.903735,-178.990662,0.010771,-0.004874,0.914830,-0.403667
5592,-0.150722,-7.219466,-6.571646,-0.044037,-0.038706,0.026802,-132.367401,0.902542,-178.990341,0.010763,-0.004880,0.914809,-0.403714
5593,-0.150260,-7.218293,-6.571640,-0.045370,-0.044768,0.034380,-132.361221,0.901574,-178.989883,0.010757,-0.004887,0.914787,-0.403763
5594,-0.150947,-7.211790,-6.571908,-0.011681,-0.050832,0.055698,-132.357422,0.901362,-178.989639,0.010756,-0.004889,0.914774,-0.403794
5595,-0.149745,-7.203156,-6.572267,0.000524,-0.061473,0.058704,-132.357681,0.901580,-178.989548,0.010758,-0.004889,0.914775,-0.403792
5596,-0.149749,-7.205064,-6.578650,-0.004155,-0.062948,0.067806,-132.361786,0.901616,-178.989487,0.010759,-0.004890,0.914789,-0.403759
5597,-0.149450,-7.217052,-6.579341,0.000368,-0.062895,0.073853,-132.363983,0.901633,-178.989563,0.010758,-0.004889,0.914797,-0.403741
5598,-0.151823,-7.210000,-6.579640,-0.004226,-0.065907,0.069232,-132.364746,0.902482,-178.989594,0.010765,-0.004886,0.914800,-0.403735
5599,-0.155914,-7.208797,-6.579718,-0.014977,-0.081168,0.061606,-132.367828,0.905891,-178.989304,0.010793,-0.004877,0.914810,-0.403710
5600,-0.156573,-7.213810,-6.578995,-0.021114,-0.079670,0.064689,-132.369766,0.910959,-178.988754,0.010836,-0.004863,0.914817,-0.403694
5601,-0.160910,-7.221222,-6.578576,-0.013420,-0.079722,0.072374,-132.367737,0.917479,-178.988297,0.010889,-0.004844,0.914810,-0.403710
5602,-0.160533,-7.213419,-6.579068,-0.031669,-0.076735,0.067867,-132.366013,0.924783,-178.987900,0.010949,-0.004821,0.914803,-0.403723
5603,-0.157444,-7.219533,-6.579481,-0.049942,-0.076762,0.066368,-132.365845,0.929707,-178.987503,0.010990,-0.004807,0.914802,-0.403723
5604,-0.153131,-7.219913,-6.578919,-0.054442,-0.073674,0.069379,-132.364426,0.930876,-178.987122,0.011001,-0.004806,0.914797,-0.403735
5605,-0.153426,-7.215268,-6.579658,-0.055921,-0.065974,0.067776,-132.364410,0.929983,-178.986908,0.010994,-0.004810,0.914797,-0.403735
5606,-0.148803,-7.208914,-6.582360,-0.051396,-0.064350,0.073773,-132.368301,0.927363,-178.986923,0.010973,-0.004820,0.914811,-0.403704
5607,-0.150958,-7.203348,-6.579640,-0.027106,-0.065765,0.076706,-132.374619,0.924174,-178.987091,0.010947,-0.004830,0.914834,-0.403654
5608,-0.151653,-7.198921,-6.577252,-0.011984,-0.062628,0.082720,-132.380768,0.922643,-178.987396,0.010933,-0.004834,0.914855,-0.403605
5609,-0.152387,-7.206038,-6.577611,-0.007490,-0.054929,0.081120,-132.384460,0.921915,-178.987839,0.010926,-0.004833,0.914868,-0.403576
5611,-0.150705,-7.215199,-6.577199,-0.025761,-0.057908,0.079513,-132.383423,0.920801,-178.988235,0.010915,-0.004834,0.914865,-0.403584
5612,-0.151274,-7.219269,-6.575272,-0.045449,-0.050200,0.077898,-132.378662,0.919232,-178.988571,0.010902,-0.004836,0.914848,-0.403622
5613,-0.148261,-7.218065,-6.577630,-0.063606,-0.051635,0.067113,-132.374283,0.916649,-178.988846,0.010880,-0.004843,0.914833,-0.403657
5614,-0.146192,-7.221971,-6.575896,-0.069557,-0.056093,0.059348,-132.370392,0.912178,-178.988846,0.010845,-0.004858,0.914819,-0.403689
5615,-0.147911,-7.214702,-6.580282,-0.077088,-0.048349,0.059220,-132.368927,0.907911,-178.988831,0.010811,-0.004873,0.914814,-0.403701
5616,-0.147063,-7.207927,-6.579197,-0.055753,-0.052826,0.060637,-132.372238,0.904594,-178.988953,0.010784,-0.004884,0.914826,-0.403675
5617,-0.144252,-7.203681,-6.578794,-0.051261,-0.057288,0.057460,-132.377487,0.900484,-178.988968,0.010751,-0.004899,0.914845,-0.403634
5618,-0.140779,-7.206156,-6.576074,-0.046745,-0.054088,0.071032,-132.381577,0.894571,-178.989090,0.010703,-0.004919,0.914859,-0.403601
5619,-0.143784,-7.210545,-6.579614,-0.029966,-0.053948,0.075457,-132.383102,0.889294,-178.989410,0.010660,-0.004936,0.914865,-0.403590
5620,-0.142314,-7.218800,-6.582100,-0.039078,-0.067564,0.072275,-132.382538,0.885455,-178.989548,0.010629,-0.004948,0.914863,-0.403595
5621,-0.142840,-7.215087,-6.582479,-0.048181,-0.067450,0.069097,-132.381851,0.881898,-178.989426,0.010601,-0.004961,0.914860,-0.403601
5622,-0.146711,-7.209827,-6.585333,-0.022271,-0.067372,0.075116,-132.384262,0.880611,-178.989410,0.010590,-0.004966,0.914869,-0.403581
5623,-0.154572,-7.223582,-6.583638,-0.031406,-0.071955,0.078173,-132.384369,0.884353,-178.989410,0.010620,-0.004953,0.914869,-0.403580
5624,-0.150633,-7.223037,-6.582965,-0.046538,-0.067406,0.078201,-132.380554,0.889454,-178.989365,0.010661,-0.004935,0.914856,-0.403610
5625,-0.144738,-7.215303,-6.575162,-0.034201,-0.070412,0.084253,-132.376770,0.890250,-178.989426,0.010668,-0.004932,0.914842,-0.403640
5626,-0.148001,-7.221075,-6.576052,-0.026420,-0.065767,0.085701,-132.371674,0.889734,-178.989563,0.010663,-0.004932,0.914824,-0.403681
5627,-0.143309,-7.226080,-6.572219,-0.059760,-0.068741,0.071878,-132.363907,0.888435,-178.989532,0.010653,-0.004936,0.914797,-0.403743
5628,-0.137668,-7.218235,-6.580571,-0.062654,-0.068597,0.073242,-132.359634,0.883090,-178.989365,0.010611,-0.004956,0.914782,-0.403778
5629,-0.141439,-7.208278,-6.578130,-0.050469,-0.063869,0.083759,-132.362442,0.877600,-178.989517,0.010567,-0.004974,0.914792,-0.403756
5630,-0.147283,-7.208519,-6.580043,-0.061236,-0.047008,0.074524,-132.367706,0.876410,-178.989975,0.010556,-0.004975,0.914811,-0.403714
5631,-0.144399,-7.208700,-6.580352,-0.047588,-0.050012,0.075999,-132.372940,0.876561,-178.990524,0.010555,-0.004971,0.914829,-0.403672
5632,-0.148493,-7.208883,-6.578859,-0.044593,-0.045397,0.068328,-132.376740,0.877164,-178.991013,0.010558,-0.004965,0.914843,-0.403642
5633,-0.148053,-7.208623,-6.576321,-0.043080,-0.030122,0.057631,-132.378738,0.878713,-178.991501,0.010568,-0.004956,0.914850,-0.403626
5634,-0.146026,-7.212801,-6.579891,-0.056798,-0.039245,0.046913,-132.379807,0.878800,-178.991806,0.010568,-0.004953,0.914853,-0.403617
5635,-0.143072,-7.210759,-6.578877,-0.027790,-0.046807,0.063623,-132.380569,0.877070,-178.991989,0.010553,-0.004958,0.914856,-0.403611
5636,-0.143064,-7.212612,-6.577548,-0.038436,-0.040618,0.052847,-132.380310,0.874390,-178.992188,0.010531,-0.004966,0.914855,-0.403614
5637,-0.144620,-7.211603,-6.578784,-0.030765,-0.042073,0.058873,-132.379791,0.872494,-178.992401,0.010515,-0.004971,0.914854,-0.403618
5638,-0.150267,-7.212742,-6.576714,-0.013932,-0.055789,0.058853,-132.378662,0.873969,-178.992493,0.010527,-0.004965,0.914850,-0.403627
5639,-0.153859,-7.212927,-6.576779,-0.010814,-0.052781,0.054321,-132.376358,0.879152,-178.992386,0.010569,-0.004947,0.914841,-0.403645
5640,-0.156772,-7.214758,-6.580925,-0.041287,-0.048281,0.048303,-132.375443,0.886195,-178.992264,0.010625,-0.004923,0.914838,-0.403652
5641,-0.156656,-7.207066,-6.579855,-0.042835,-0.051416,0.052972,-132.377701,0.893500,-178.992188,0.010684,-0.004898,0.914846,-0.403633
5642,-0.155755,-7.210548,-6.580796,-0.038302,-0.045373,0.049987,-132.380890,0.899458,-178.992188,0.010731,-0.004877,0.914857,-0.403607
5643,-0.152505,-7.208413,-6.583875,-0.062775,-0.054546,0.045430,-132.384857,0.902828,-178.992065,0.010758,-0.004867,0.914871,-0.403575
5644,-0.149278,-7.210081,-6.581523,-0.047569,-0.062139,0.048444,-132.388824,0.903211,-178.991714,0.010762,-0.004869,0.914885,-0.403543
5645,-0.147387,-7.210725,-6.578956,-0.041455,-0.065118,0.040735,-132.389877,0.901411,-178.991150,0.010750,-0.004880,0.914888,-0.403535
5646,-0.148474,-7.211204,-6.577890,-0.050557,-0.071147,0.039124,-132.389297,0.899388,-178.990326,0.010737,-0.004893,0.914886,-0.403539
5647,-0.148763,-7.209219,-6.576334,-0.053547,-0.083292,0.043633,-132.388535,0.898415,-178.989319,0.010733,-0.004905,0.914883,-0.403546
5648,-0.145933,-7.207524,-6.574719,-0.036703,-0.078639,0.045075,-132.387665,0.896834,-178.988281,0.010724,-0.004918,0.914880,-0.403553
5649,-0.149019,-7.212914,-6.571509,-0.054898,-0.063311,0.041944,-132.384567,0.895281,-178.987442,0.010714,-0.004930,0.914870,-0.403577
5650,-0.154007,-7.216268,-6.571472,-0.045554,-0.070927,0.044978,-132.378647,0.896983,-178.986649,0.010731,-0.004930,0.914849,-0.403624
5651,-0.155773,-7.224583,-6.573895,-0.039215,-0.067906,0.054162,-132.370667,0.901456,-178.985916,0.010770,-0.004920,0.914820,-0.403688
5652,-0.154352,-7.231773,-6.573975,-0.034343,-0.058777,0.055709,-132.360077,0.905567,-178.985397,0.010805,-0.004908,0.914783,-0.403772
5653,-0.160671,-7.233758,-6.574446,-0.012659,-0.051195,0.064910,-132.348038,0.910920,-178.985199,0.010849,-0.004890,0.914740,-0.403867
5654,-0.157958,-7.228138,-6.576940,0.008941,-0.071093,0.063444,-132.338608,0.917288,-178.984985,0.010901,-0.004868,0.914707,-0.403942
5655,-0.151289,-7.225448,-6.576464,-0.001608,-0.068025,0.061898,-132.333176,0.919390,-178.984589,0.010919,-0.004863,0.914688,-0.403985
5656,-0.149614,-7.220445,-6.581265,-0.000056,-0.069470,0.054180,-132.332169,0.917552,-178.984177,0.010906,-0.004873,0.914684,-0.403993
5657,-0.151711,-7.214561,-6.583003,0.010521,-0.066339,0.055621,-132.336136,0.915787,-178.983810,0.010893,-0.004883,0.914698,-0.403962
5658,-0.149716,-7.213115,-6.581403,-0.000308,-0.067790,0.058595,-132.341904,0.914369,-178.983536,0.010882,-0.004890,0.914718,-0.403916
5659,-0.146981,-7.213745,-6.579183,-0.008048,-0.057008,0.056960,-132.346420,0.911244,-178.983353,0.010858,-0.004903,0.914734,-0.403880
5660,-0.146872,-7.216165,-6.576042,0.004126,-0.059946,0.058362,-132.347839,0.907227,-178.983231,0.010826,-0.004918,0.914740,-0.403869
5661,-0.146650,-7.221005,-6.569881,-0.001886,-0.061365,0.052138,-132.344147,0.903552,-178.982925,0.010798,-0.004933,0.914727,-0.403899
5662,-0.144043,-7.220710,-6.568027,-0.012392,-0.059724,0.042853,-132.337372,0.899101,-178.982391,0.010765,-0.004953,0.914703,-0.403953
5663,-0.146144,-7.222049,-6.570714,-0.029018,-0.058088,0.042728,-132.331711,0.894833,-178.981796,0.010733,-0.004972,0.914683,-0.403999
5664,-0.147319,-7.221159,-6.573268,-0.027390,-0.048852,0.054845,-132.328522,0.892431,-178.981506,0.010715,-0.004983,0.914672,-0.404024
5665,-0.149350,-7.219930,-6.574995,-0.039554,-0.042696,0.047157,-132.327911,0.891602,-178.981506,0.010708,-0.004985,0.914670,-0.404029
5666,-0.151807,-7.215092,-6.575652,-0.051782,-0.031996,0.045612,-132.330246,0.892457,-178.981628,0.010715,-0.004982,0.914678,-0.404011
5667,-0.150211,-7.216699,-6.576705,-0.054884,-0.051819,0.048649,-132.334061,0.893776,-178.981689,0.010725,-0.004977,0.914691,-0.403980
5668,-0.146471,-7.213691,-6.572907,-0.045758,-0.059397,0.039439,-132.336929,0.893111,-178.981323,0.010721,-0.004982,0.914702,-0.403957
5669,-0.146942,-7.216939,-6.570257,-0.056410,-0.071533,0.019522,-132.337448,0.891011,-178.980362,0.010707,-0.004998,0.914703,-0.403953
5670,-0.146450,-7.218670,-6.569400,-0.074627,-0.076043,0.019445,-132.335892,0.889020,-178.978912,0.010697,-0.005016,0.914698,-0.403966
5671,-0.143881,-7.207146,-6.576128,-0.051755,-0.083587,0.023930,-132.338608,0.886312,-178.977448,0.010680,-0.005037,0.914707,-0.403944
5672,-0.145247,-7.204605,-6.575315,-0.042749,-0.063661,0.031465,-132.346115,0.883493,-178.976349,0.010661,-0.005057,0.914734,-0.403884
5673,-0.149317,-7.207111,-6.573214,-0.033704,-0.054461,0.039048,-132.351837,0.883042,-178.975754,0.010659,-0.005064,0.914754,-0.403839
5674,-0.156464,-7.204149,-6.579376,-0.020094,-0.040759,0.065026,-132.357605,0.887342,-178.975830,0.010693,-0.005049,0.914774,-0.403792
5675,-0.153452,-7.201673,-6.582942,0.013269,-0.039286,0.075770,-132.366074,0.893270,-178.976547,0.010737,-0.005023,0.914804,-0.403724
5676,-0.152448,-7.211038,-6.576758,-0.000585,-0.040828,0.083420,-132.370697,0.897151,-178.977432,0.010765,-0.005002,0.914820,-0.403687
5677,-0.156268,-7.212967,-6.575979,-0.002085,-0.040853,0.095653,-132.369720,0.901720,-178.978409,0.010798,-0.004978,0.914817,-0.403694
5678,-0.151739,-7.216050,-6.579506,0.017797,-0.039337,0.091085,-132.367661,0.905492,-178.979492,0.010825,-0.004956,0.914809,-0.403711
5679,-0.149612,-7.220038,-6.573312,0.020955,-0.040820,0.081881,-132.362793,0.905913,-178.980377,0.010825,-0.004947,0.914792,-0.403749
5680,-0.154843,-7.218134,-6.569796,0.018082,-0.045371,0.074219,-132.355011,0.907160,-178.980957,0.010833,-0.004937,0.914765,-0.403812
5681,-0.161523,-7.229200,-6.569531,0.032060,-0.040845,0.072744,-132.344376,0.912815,-178.981400,0.010877,-0.004913,0.914727,-0.403896
5682,-0.158704,-7.226806,-6.567798,0.030820,-0.043966,0.049923,-132.331909,0.919173,-178.981552,0.010928,-0.004888,0.914683,-0.403995
5683,-0.158706,-7.221197,-6.564797,0.006634,-0.047055,0.037752,-132.322128,0.923325,-178.981262,0.010963,-0.004875,0.914648,-0.404072
5684,-0.154164,-7.230065,-6.563489,-0.008382,-0.057733,0.017904,-132.312363,0.924764,-178.980438,0.010977,-0.004875,0.914614,-0.404150
5685,-0.151895,-7.239439,-6.561981,-0.021762,-0.048522,0.011731,-132.298752,0.922791,-178.979233,0.010967,-0.004891,0.914566,-0.404259
5686,-0.146310,-7.233993,-6.563941,-0.022953,-0.049941,0.003977,-132.286057,0.917503,-178.977982,0.010929,-0.004918,0.914521,-0.404361
5687,-0.146163,-7.234235,-6.565625,-0.039507,-0.062011,0.006871,-132.277817,0.910558,-178.976578,0.010879,-0.004953,0.914492,-0.404427
5688,-0.151441,-7.238092,-6.570051,-0.046956,-0.072601,0.018975,-132.272079,0.906830,-178.975082,0.010855,-0.004978,0.914472,-0.404473
5689,-0.152677,-7.227288,-6.569736,-0.043825,-0.078668,0.032664,-132.270340,0.906880,-178.973755,0.010860,-0.004988,0.914466,-0.404487
5690,-0.146785,-7.217187,-6.572664,-0.048490,-0.078603,0.038699,-132.275406,0.905747,-178.972672,0.010855,-0.005001,0.914484,-0.404446
5691,-0.145044,-7.217010,-6.568776,-0.053211,-0.078490,0.032474,-132.282806,0.901745,-178.971619,0.010826,-0.005024,0.914510,-0.404387
5692,-0.140496,-7.213915,-6.571352,-0.051821,-0.060030,0.029263,-132.289948,0.895319,-178.970688,0.010778,-0.005055,0.914535,-0.404331
5693,-0.131956,-7.210126,-6.568675,-0.016879,-0.052177,0.029021,-132.297287,0.884157,-178.970047,0.010691,-0.005100,0.914562,-0.404274
5694,-0.126111,-7.209484,-6.575800,0.005817,-0.047301,0.028698,-132.305161,0.868389,-178.969589,0.010566,-0.005160,0.914590,-0.404212
5695,-0.130561,-7.216902,-6.575865,0.028531,-0.051601,0.032974,-132.311554,0.853861,-178.969162,0.010451,-0.005215,0.914613,-0.404163
5696,-0.134248,-7.214675,-6.580155,0.019228,-0.043782,0.043449,-132.316666,0.844643,-178.968933,0.010378,-0.005250,0.914631,-0.404123
5697,-0.135302,-7.217134,-6.579445,0.020601,-0.045174,0.044832,-132.322128,0.838923,-178.968918,0.010333,-0.005271,0.914650,-0.404080
5698,-0.136545,-7.220201,-6.581751,-0.003924,-0.042021,0.049301,-132.326279,0.835121,-178.968964,0.010302,-0.005285,0.914665,-0.404047
5699,-0.139047,-7.219909,-6.583123,-0.028441,-0.046532,0.058386,-132.330917,0.833576,-178.969147,0.010289,-0.005289,0.914681,-0.404010
5700,-0.144871,-7.207325,-6.582292,-0.030144,-0.046527,0.061436,-132.338989,0.835894,-178.969452,0.010306,-0.005279,0.914710,-0.403945
5701,-0.136703,-7.206255,-6.584557,-0.001408,-0.060239,0.064470,-132.349762,0.837524,-178.969696,0.010317,-0.005272,0.914748,-0.403859
5702,-0.138771,-7.204545,-6.584116,-0.001664,-0.064750,0.065929,-132.360046,0.836768,-178.969772,0.010311,-0.005275,0.914784,-0.403777
5703,-0.139058,-7.207994,-6.577244,0.005809,-0.069278,0.068929,-132.366257,0.837052,-178.969727,0.010313,-0.005275,0.914806,-0.403728
5704,-0.142864,-7.207673,-6.571167,0.005794,-0.053998,0.070433,-132.366669,0.838941,-178.969788,0.010328,-0.005268,0.914807,-0.403724
5705,-0.140842,-7.214737,-6.571477,-0.009384,-0.055514,0.067368,-132.363449,0.841203,-178.969925,0.010345,-0.005259,0.914796,-0.403750
5706,-0.143702,-7.211504,-6.567438,-0.032142,-0.047875,0.056674,-132.358948,0.843276,-178.969971,0.010362,-0.005251,0.914780,-0.403785
5707,-0.144290,-7.213485,-6.566239,-0.030469,-0.053988,0.059732,-132.354141,0.846324,-178.969940,0.010387,-0.005240,0.914763,-0.403823
5708,-0.153451,-7.213923,-6.570744,-0.057814,-0.047952,0.036916,-132.350693,0.852581,-178.969696,0.010438,-0.005219,0.914751,-0.403850
5709,-0.152739,-7.224545,-6.576612,-0.057707,-0.055693,0.030931,-132.348328,0.861096,-178.969116,0.010508,-0.005194,0.914742,-0.403868
5710,-0.150708,-7.225774,-6.574885,-0.056035,-0.054242,0.024907,-132.344406,0.867407,-178.968307,0.010561,-0.005178,0.914728,-0.403899
5711,-0.154927,-7.233876,-6.573619,-0.048188,-0.055842,0.032612,-132.337418,0.873576,-178.967468,0.010614,-0.005162,0.914703,-0.403954
5712,-0.155469,-7.238423,-6.573137,-0.049420,-0.046777,0.023549,-132.327209,0.880623,-178.966644,0.010673,-0.005143,0.914667,-0.404035
5714,-0.155539,-7.233073,-6.573511,-0.029319,-0.048382,0.044994,-132.318024,0.887100,-178.966080,0.010727,-0.005123,0.914634,-0.404107
5715,-0.156911,-7.219027,-6.575254,-0.024655,-0.057612,0.035918,-132.315445,0.893594,-178.965637,0.010781,-0.005104,0.914625,-0.404127
5716,-0.158541,-7.218736,-6.579021,-0.001833,-0.057690,0.034479,-132.318542,0.900415,-178.965042,0.010837,-0.005085,0.914636,-0.404102
5717,-0.156943,-7.213696,-6.578400,-0.001957,-0.053174,0.045231,-132.323532,0.906437,-178.964645,0.010886,-0.005067,0.914653,-0.404061
5718,-0.154127,-7.214074,-6.573648,0.014726,-0.053194,0.062042,-132.327408,0.910211,-178.964600,0.010917,-0.005055,0.914667,-0.404030
5719,-0.146164,-7.213773,-6.569045,0.002500,-0.048556,0.049769,-132.327881,0.909155,-178.964615,0.010908,-0.005058,0.914668,-0.404026
5720,-0.142100,-7.226002,-6.564485,0.010262,-0.034681,0.052662,-132.322342,0.902874,-178.964661,0.010858,-0.005080,0.914649,-0.404071
5721,-0.143943,-7.225320,-6.561989,-0.015426,-0.023853,0.054021,-132.312363,0.895966,-178.964981,0.010802,-0.005100,0.914614,-0.404151
5722,-0.140401,-7.226674,-6.565296,-0.025884,-0.023710,0.044702,-132.304092,0.889046,-178.965363,0.010746,-0.005121,0.914585,-0.404218
5723,-0.143891,-7.227140,-6.572349,-0.033382,-0.028157,0.032349,-132.299835,0.882760,-178.965500,0.010695,-0.005142,0.914570,-0.404253
5724,-0.148062,-7.232030,-6.577716,-0.011964,-0.032669,0.041429,-132.298386,0.880338,-178.965546,0.010676,-0.005150,0.914565,-0.404265
5725,-0.148407,-7.224934,-6.577377,-0.028754,-0.041795,0.045977,-132.299255,0.880574,-178.965607,0.010678,-0.005149,0.914568,-0.404258
5726,-0.143460,-7.235088,-6.577988,-0.001275,-0.047843,0.064226,-132.299271,0.879594,-178.965729,0.010669,-0.005151,0.914568,-0.404258
5727,-0.148117,-7.231888,-6.573981,0.006439,-0.047787,0.055007,-132.295822,0.878712,-178.965836,0.010662,-0.005153,0.914556,-0.404285
5728,-0.147832,-7.226413,-6.574109,-0.024031,-0.050813,0.047347,-132.294144,0.879540,-178.965744,0.010669,-0.005151,0.914550,-0.404299
5729,-0.138142,-7.216105,-6.574558,-0.048514,-0.047670,0.038094,-132.298050,0.876327,-178.965530,0.010644,-0.005164,0.914564,-0.404268
5730,-0.142262,-7.213040,-6.574520,-0.027304,-0.039916,0.042537,-132.305496,0.870968,-178.965454,0.010601,-0.005184,0.914591,-0.404209
5731,-0.148481,-7.207672,-6.572354,-0.039687,-0.050550,0.033334,-132.313614,0.870246,-178.965286,0.010596,-0.005189,0.914619,-0.404144
5732,-0.145378,-7.213099,-6.574455,-0.058147,-0.056635,0.031790,-132.321182,0.871203,-178.964783,0.010605,-0.005190,0.914646,-0.404084
5733,-0.143137,-7.212345,-6.572609,-0.052136,-0.059632,0.024103,-132.326736,0.870020,-178.964035,0.010598,-0.005201,0.914666,-0.404039
5734,-0.150160,-7.218974,-6.569468,-0.053659,-0.064188,0.033234,-132.328369,0.870819,-178.963150,0.010607,-0.005205,0.914671,-0.404026
5735,-0.147572,-7.217745,-6.567254,-0.079510,-0.064197,0.024087,-132.326981,0.873429,-178.962158,0.010632,-0.005204,0.914666,-0.404037
5736,-0.142913,-7.204760,-6.570572,-0.100885,-0.053472,0.013358,-132.330444,0.872667,-178.961136,0.010629,-0.005215,0.914678,-0.404009
5737,-0.144534,-7.198981,-6.571940,-0.072058,-0.045776,0.039231,-132.339951,0.870635,-178.960602,0.010614,-0.005227,0.914712,-0.403933
5738,-0.144514,-7.207141,-6.573729,-0.050847,-0.035043,0.062065,-132.348068,0.869787,-178.960846,0.010606,-0.005229,0.914741,-0.403869
5739,-0.145811,-7.205675,-6.576769,-0.041804,-0.036528,0.052867,-132.354126,0.869647,-178.961319,0.010603,-0.005226,0.914762,-0.403820
5740,-0.144437,-7.207294,-6.579030,-0.023620,-0.044116,0.060455,-132.360291,0.869603,-178.961670,0.010601,-0.005224,0.914784,-0.403771
5741,-0.142627,-7.216688,-6.578977,-0.008411,-0.056262,0.058863,-132.362793,0.868566,-178.961807,0.010592,-0.005227,0.914793,-0.403751
5742,-0.143803,-7.219380,-6.577908,-0.026669,-0.063828,0.045057,-132.361267,0.867338,-178.961472,0.010584,-0.005234,0.914787,-0.403764
5743,-0.146176,-7.209377,-6.572670,-0.011357,-0.079050,0.046540,-132.359833,0.867809,-178.960709,0.010590,-0.005238,0.914782,-0.403775
5744,-0.145619,-7.205993,-6.573030,-0.003734,-0.079025,0.055670,-132.360306,0.869419,-178.959900,0.010606,-0.005239,0.914784,-0.403771
5745,-0.150100,-7.204090,-6.571669,-0.011398,-0.077499,0.055671,-132.361969,0.872548,-178.959259,0.010633,-0.005233,0.914789,-0.403757
5746,-0.152726,-7.200331,-6.576304,-0.008441,-0.056177,0.064872,-132.366013,0.878014,-178.959015,0.010677,-0.005216,0.914803,-0.403725
5747,-0.153433,-7.201044,-6.576436,-0.016208,-0.054703,0.058829,-132.371933,0.883988,-178.959122,0.010725,-0.005195,0.914824,-0.403677
5748,-0.153025,-7.207940,-6.581475,-0.043783,-0.050166,0.035988,-132.377274,0.888838,-178.958969,0.010764,-0.005180,0.914843,-0.403634
5749,-0.148931,-7.218912,-6.580292,-0.040731,-0.054743,0.042090,-132.378662,0.890904,-178.958557,0.010781,-0.005176,0.914848,-0.403622
5750,-0.148457,-7.224277,-6.583043,-0.049779,-0.054704,0.026786,-132.375854,0.890580,-178.957916,0.010781,-0.005182,0.914838,-0.403645
5751,-0.146790,-7.231058,-6.575406,-0.060239,-0.071434,0.025195,-132.368851,0.889250,-178.956802,0.010775,-0.005195,0.914813,-0.403701
5752,-0.143933,-7.230647,-6.574390,-0.058405,-0.078983,0.020522,-132.358459,0.886464,-178.955276,0.010758,-0.005216,0.914776,-0.403784
5753,-0.144499,-7.226685,-6.572240,-0.032191,-0.068209,0.041778,-132.348999,0.883257,-178.953995,0.010738,-0.005236,0.914743,-0.403859
5754,-0.145686,-7.221336,-6.569863,-0.048764,-0.063558,0.041693,-132.341843,0.881279,-178.953171,0.010725,-0.005249,0.914718,-0.403917
5755,-0.146971,-7.221432,-6.563620,-0.028715,-0.052827,0.053840,-132.334625,0.880646,-178.952682,0.010722,-0.005255,0.914692,-0.403974
5756,-0.149445,-7.217164,-6.562469,-0.017819,-0.048228,0.055337,-132.326843,0.881702,-178.952530,0.010732,-0.005251,0.914665,-0.404036
5757,-0.150520,-7.213488,-6.566473,-0.014650,-0.040599,0.061438,-132.322723,0.884099,-178.952682,0.010750,-0.005242,0.914650,-0.404069
5758,-0.149437,-7.213701,-6.566574,-0.040547,-0.052802,0.061433,-132.321884,0.886387,-178.952881,0.010768,-0.005232,0.914647,-0.404075
5759,-0.152478,-7.219344,-6.566255,-0.029789,-0.057384,0.041599,-132.320007,0.889048,-178.952621,0.010790,-0.005224,0.914641,-0.404090
5760,-0.152553,-7.220523,-6.568303,-0.037315,-0.054350,0.053824,-132.316971,0.892485,-178.952255,0.010819,-0.005215,0.914630,-0.404114
5761,-0.150140,-7.218868,-6.571034,-0.035731,-0.061974,0.052291,-132.315857,0.894766,-178.951981,0.010838,-0.005209,0.914626,-0.404123
5762,-0.149256,-7.222342,-6.570769,-0.032634,-0.054311,0.053779,-132.315201,0.895357,-178.951706,0.010844,-0.005209,0.914623,-0.404128
5763,-0.151190,-7.226013,-6.574411,-0.011206,-0.049703,0.058322,-132.313324,0.896059,-178.951645,0.010850,-0.005207,0.914617,-0.404143
5764,-0.150258,-7.219109,-6.588028,0.002442,-0.026786,0.062871,-132.316895,0.896813,-178.952118,0.010854,-0.005201,0.914629,-0.404114
5765,-0.143199,-7.224693,-6.589936,0.058698,0.017550,0.041420,-132.324020,0.893330,-178.953293,0.010822,-0.005204,0.914655,-0.404058
5766,-0.145207,-7.227404,-6.589364,0.069238,0.049709,0.032142,-132.327530,0.886777,-178.955032,0.010763,-0.005214,0.914667,-0.404030
5767,-0.149365,-7.227093,-6.583776,0.076805,0.045192,0.025972,-132.327637,0.882815,-178.956894,0.010725,-0.005213,0.914668,-0.404030
5768,-0.148898,-7.222394,-6.579078,0.067634,0.051320,0.013739,-132.325867,0.880813,-178.958542,0.010703,-0.005207,0.914662,-0.404045
5769,-0.145455,-7.224101,-6.566478,0.053988,0.025420,0.019797,-132.320358,0.877908,-178.959808,0.010676,-0.005206,0.914643,-0.404089
5770,-0.153029,-7.217761,-6.571330,0.003734,-0.029507,0.036572,-132.315384,0.878187,-178.960327,0.010677,-0.005201,0.914625,-0.404129
5771,-0.152792,-7.217870,-6.570964,-0.008463,-0.053966,0.047301,-132.315063,0.882750,-178.960236,0.010713,-0.005185,0.914624,-0.404131
5772,-0.146380,-7.209977,-6.574601,-0.016167,-0.057012,0.053400,-132.318436,0.884925,-178.960052,0.010731,-0.005179,0.914636,-0.404104
5773,-0.146271,-7.217772,-6.574461,-0.020839,-0.058481,0.051814,-132.322845,0.884193,-178.959869,0.010726,-0.005184,0.914651,-0.404069
5774,-0.152358,-7.215589,-6.578554,-0.011757,-0.049305,0.050268,-132.326324,0.885538,-178.959717,0.010737,-0.005180,0.914663,-0.404041
5775,-0.149927,-7.207118,-6.572382,-0.031711,-0.046257,0.044171,-132.331665,0.888097,-178.959671,0.010757,-0.005172,0.914682,-0.403998
5776,-0.149958,-7.203636,-6.573716,-0.041010,-0.047768,0.042631,-132.338654,0.889418,-178.959579,0.010768,-0.005169,0.914707,-0.403942
5777,-0.153710,-7.212878,-6.570389,-0.028874,-0.049300,0.051795,-132.342697,0.892071,-178.959488,0.010789,-0.005161,0.914721,-0.403909
5778,-0.153341,-7.207615,-6.567863,-0.025808,-0.046273,0.057925,-132.342987,0.895962,-178.959534,0.010820,-0.005147,0.914722,-0.403907
5779,-0.151993,-7.205117,-6.563867,-0.031892,-0.046280,0.065563,-132.343216,0.898943,-178.959778,0.010843,-0.005134,0.914723,-0.403904
5780,-0.154339,-7.208885,-6.563781,-0.022680,-0.055443,0.070147,-132.341843,0.902120,-178.960007,0.010868,-0.005121,0.914718,-0.403915
5781,-0.152716,-7.214781,-6.562413,-0.024076,-0.049344,0.070149,-132.337433,0.905224,-178.960205,0.010892,-0.005108,0.914702,-0.403950
5782,-0.149487,-7.211828,-6.564891,-0.040730,-0.037101,0.064004,-132.333267,0.905709,-178.960571,0.010895,-0.005103,0.914687,-0.403983
5783,-0.154228,-7.220095,-6.568936,-0.040625,-0.043175,0.073125,-132.330429,0.906463,-178.961044,0.010899,-0.005096,0.914677,-0.404006
5784,-0.155225,-7.229285,-6.565559,-0.057207,-0.050812,0.057868,-132.323944,0.909377,-178.961227,0.010922,-0.005084,0.914654,-0.404057
5785,-0.153252,-7.233089,-6.565636,-0.059961,-0.038600,0.057857,-132.314011,0.911379,-178.961243,0.010938,-0.005076,0.914619,-0.404136
5786,-0.160970,-7.232286,-6.563127,-0.041344,-0.041681,0.060933,-132.303436,0.915232,-178.961395,0.010969,-0.005060,0.914582,-0.404221
5787,-0.165741,-7.235971,-6.561156,-0.013553,-0.052467,0.064092,-132.291382,0.923814,-178.961426,0.011038,-0.005029,0.914539,-0.404316
5788,-0.161016,-7.226887,-6.556752,-0.019359,-0.063240,0.053504,-132.280045,0.931790,-178.961121,0.011103,-0.005002,0.914499,-0.404406
5789,-0.159465,-7.222116,-6.561073,-0.013088,-0.055642,0.062690,-132.273865,0.936292,-178.960846,0.011140,-0.004987,0.914477,-0.404454
5790,-0.157101,-7.217201,-6.563571,-0.003908,-0.058684,0.056575,-132.273132,0.938433,-178.960770,0.011158,-0.004980,0.914474,-0.404460
5791,-0.152109,-7.217839,-6.568421,-0.034493,-0.057091,0.054977,-132.276459,0.937163,-178.960632,0.011148,-0.004986,0.914486,-0.404433
5792,-0.147826,-7.215777,-6.568227,-0.060541,-0.053909,0.045681,-132.282288,0.932003,-178.960464,0.011107,-0.005006,0.914507,-0.404387
5793,-0.148333,-7.219647,-6.570879,-0.053007,-0.043080,0.045521,-132.288071,0.925504,-178.960342,0.011055,-0.005031,0.914527,-0.404342
5794,-0.143858,-7.216055,-6.568757,-0.037828,-0.047497,0.048398,-132.292755,0.918187,-178.960342,0.010997,-0.005057,0.914544,-0.404305
5795,-0.143164,-7.217763,-6.565245,-0.027179,-0.059527,0.049729,-132.295166,0.910034,-178.960144,0.010932,-0.005088,0.914553,-0.404287
5796,-0.139167,-7.218749,-6.567219,-0.013440,-0.068490,0.037311,-132.295563,0.901171,-178.959534,0.010864,-0.005124,0.914554,-0.404285
5797,-0.139679,-7.215738,-6.567958,-0.001253,-0.069821,0.040148,-132.296646,0.892074,-178.958710,0.010794,-0.005163,0.914558,-0.404277
5798,-0.137541,-7.215456,-6.566836,0.007865,-0.068109,0.039945,-132.298035,0.883581,-178.957932,0.010729,-0.005199,0.914564,-0.404266
5799,-0.142331,-7.214162,-6.568492,-0.001338,-0.057278,0.033679,-132.299835,0.877083,-178.957245,0.010679,-0.005228,0.914570,-0.404253
5800,-0.141004,-7.217031,-6.566172,-0.010522,-0.051066,0.028982,-132.301117,0.872609,-178.956619,0.010646,-0.005249,0.914575,-0.404243
5801,-0.139838,-7.219650,-6.561204,-0.024189,-0.041798,0.031910,-132.299026,0.867700,-178.956116,0.010608,-0.005270,0.914567,-0.404260
5802,-0.144428,-7.224171,-6.562724,-0.017948,-0.040194,0.025716,-132.294220,0.864578,-178.955673,0.010585,-0.005284,0.914551,-0.404299
5803,-0.146642,-7.217019,-6.565913,-0.022451,-0.050850,0.024162,-132.291916,0.864653,-178.955063,0.010588,-0.005288,0.914542,-0.404317
5804,-0.145546,-7.219088,-6.565045,-0.033120,-0.058465,0.019567,-132.292343,0.865511,-178.954193,0.010598,-0.005292,0.914544,-0.404313
5805,-0.143872,-7.215818,-6.568035,-0.027030,-0.056904,0.021055,-132.293884,0.865248,-178.953247,0.010599,-0.005301,0.914549,-0.404301
5806,-0.145771,-7.213667,-6.571569,0.001868,-0.069076,0.037804,-132.298050,0.865376,-178.952408,0.010603,-0.005307,0.914564,-0.404268
5807,-0.143415,-7.209442,-6.572861,-0.022708,-0.073616,0.046920,-132.304825,0.865849,-178.951691,0.010609,-0.005312,0.914588,-0.404213
5808,-0.141400,-7.212111,-6.577036,-0.025952,-0.070496,0.046849,-132.313339,0.864684,-178.951080,0.010601,-0.005322,0.914618,-0.404146
5809,-0.140553,-7.208979,-6.580764,-0.021602,-0.061253,0.058965,-132.323212,0.862427,-178.950790,0.010584,-0.005333,0.914653,-0.404067
5811,-0.146619,-7.215358,-6.577727,-0.030937,-0.062730,0.065020,-132.331314,0.862560,-178.950760,0.010585,-0.005334,0.914681,-0.404002
5812,-0.148810,-7.216191,-6.574511,-0.035573,-0.061213,0.061979,-132.334732,0.866095,-178.950684,0.010613,-0.005322,0.914693,-0.403975
5813,-0.149804,-7.214806,-6.573447,-0.027954,-0.061239,0.063535,-132.336243,0.870616,-178.950592,0.010649,-0.005307,0.914698,-0.403962
5814,-0.150997,-7.221765,-6.566825,-0.029391,-0.052118,0.060517,-132.333618,0.875342,-178.950531,0.010688,-0.005290,0.914689,-0.403983
5815,-0.153691,-7.221093,-6.563501,-0.036820,-0.065901,0.048361,-132.326691,0.880850,-178.950180,0.010733,-0.005273,0.914664,-0.404037
5816,-0.152405,-7.214234,-6.568072,-0.032116,-0.073579,0.045358,-132.322784,0.886309,-178.949432,0.010779,-0.005260,0.914650,-0.404068
5817,-0.151613,-7.205990,-6.573018,-0.030650,-0.072072,0.037751,-132.326218,0.890192,-178.948608,0.010813,-0.005253,0.914662,-0.404040
5818,-0.152604,-7.208998,-6.567726,-0.033795,-0.073609,0.025558,-132.330994,0.893311,-178.947586,0.010841,-0.005250,0.914679,-0.404001
5819,-0.152405,-7.209551,-6.564226,-0.024633,-0.075144,0.033198,-132.331635,0.896272,-178.946411,0.010869,-0.005249,0.914681,-0.403996
5820,-0.149223,-7.217267,-6.561139,-0.001624,-0.072075,0.045383,-132.327301,0.897721,-178.945404,0.010885,-0.005252,0.914666,-0.404030
5821,-0.148436,-7.216300,-6.558354,-0.006003,-0.058292,0.042273,-132.319427,0.897238,-178.944656,0.010884,-0.005259,0.914638,-0.404093
5822,-0.144941,-7.212717,-6.554804,-0.008858,-0.055164,0.049813,-132.311844,0.894923,-178.944168,0.010867,-0.005270,0.914611,-0.404154
5823,-0.140014,-7.216158,-6.560733,-0.007181,-0.064188,0.064926,-132.306046,0.889833,-178.943893,0.010828,-0.005290,0.914591,-0.404201
5824,-0.140635,-7.210033,-6.565337,-0.005620,-0.057933,0.058654,-132.304840,0.883661,-178.943756,0.010779,-0.005313,0.914587,-0.404211
5825,-0.141793,-7.211232,-6.567042,-0.013304,-0.047122,0.052409,-132.307343,0.878587,-178.943741,0.010739,-0.005331,0.914596,-0.404191
5826,-0.138567,-7.210703,-6.566864,-0.024045,-0.042414,0.041587,-132.310318,0.873060,-178.943726,0.010694,-0.005351,0.914607,-0.404168
5827,-0.140949,-7.218560,-6.568578,-0.025582,-0.040765,0.032296,-132.311661,0.867553,-178.943527,0.010651,-0.005372,0.914611,-0.404158
5828,-0.141384,-7.215756,-6.566061,-0.030127,-0.029991,0.023037,-132.311234,0.863499,-178.943253,0.010620,-0.005388,0.914610,-0.404162
5829,-0.138680,-7.214638,-6.563363,-0.046864,-0.035999,0.021405,-132.310638,0.859043,-178.942917,0.010585,-0.005407,0.914608,-0.404167
5830,-0.137629,-7.217092,-6.567436,-0.057503,-0.041990,0.009074,-132.310608,0.853636,-178.942276,0.010545,-0.005431,0.914608,-0.404168
5831,-0.141885,-7.226624,-6.570626,-0.045225,-0.057170,0.015088,-132.309525,0.850222,-178.941284,0.010521,-0.005451,0.914604,-0.404177
5832,-0.142597,-7.226525,-6.571241,-0.048175,-0.052553,0.015044,-132.306976,0.849479,-178.940201,0.010519,-0.005462,0.914595,-0.404197
5833,-0.141545,-7.221754,-6.574125,-0.037455,-0.055569,0.015003,-132.306839,0.848868,-178.939178,0.010518,-0.005472,0.914595,-0.404198
5834,-0.141731,-7.222709,-6.577019,-0.032910,-0.058579,0.031743,-132.309311,0.848276,-178.938324,0.010516,-0.005481,0.914603,-0.404178
5835,-0.138014,-7.218303,-6.572984,-0.029901,-0.052412,0.054563,-132.312073,0.846854,-178.937943,0.010506,-0.005489,0.914613,-0.404156
5836,-0.137749,-7.219929,-6.573096,-0.025347,-0.053852,0.062098,-132.313965,0.844356,-178.937958,0.010485,-0.005498,0.914620,-0.404141
5837,-0.136493,-7.217215,-6.571393,-0.019256,-0.059864,0.066575,-132.315201,0.841767,-178.938004,0.010465,-0.005507,0.914624,-0.404132
5838,-0.138683,-7.221692,-6.573110,-0.019252,-0.053680,0.061909,-132.315674,0.839871,-178.938049,0.010449,-0.005514,0.914626,-0.404128
5839,-0.142589,-7.223871,-6.574502,-0.005491,-0.046014,0.054240,-132.314941,0.840311,-178.938110,0.010453,-0.005512,0.914623,-0.404134
5840,-0.150316,-7.223471,-6.579463,0.000607,-0.052161,0.045131,-132.315262,0.845140,-178.938019,0.010491,-0.005495,0.914625,-0.404131
5841,-0.150050,-7.216947,-6.579353,-0.022369,-0.030882,0.036070,-132.319122,0.852152,-178.937958,0.010547,-0.005471,0.914638,-0.404099
5842,-0.151629,-7.214309,-6.580592,-0.030148,-0.021806,0.034636,-132.325958,0.858455,-178.938187,0.010597,-0.005448,0.914662,-0.404044
5843,-0.155661,-7.211226,-6.578262,-0.022679,-0.017330,0.043907,-132.333282,0.866040,-178.938690,0.010655,-0.005418,0.914688,-0.403985
5844,-0.154803,-7.208154,-6.574155,-0.036544,-0.026595,0.031822,-132.339523,0.874014,-178.939072,0.010717,-0.005387,0.914709,-0.403934
5845,-0.153916,-7.207870,-6.569319,-0.038136,-0.034305,0.028861,-132.343414,0.880326,-178.939041,0.010767,-0.005366,0.914723,-0.403903
5846,-0.154620,-7.212513,-6.565706,-0.028939,-0.040475,0.030458,-132.342911,0.885768,-178.938766,0.010812,-0.005349,0.914721,-0.403906
5847,-0.155240,-7.215981,-6.560769,-0.036408,-0.052745,0.013738,-132.337524,0.890964,-178.938019,0.010856,-0.005336,0.914702,-0.403949
5848,-0.150606,-7.227027,-6.555237,-0.045240,-0.061926,0.018335,-132.325943,0.893948,-178.936752,0.010885,-0.005334,0.914661,-0.404041
5849,-0.151523,-7.236719,-6.557040,-0.047834,-0.064970,0.027472,-132.309158,0.895160,-178.935425,0.010900,-0.005339,0.914601,-0.404174
5850,-0.149260,-7.241353,-6.559881,-0.045836,-0.051215,0.041170,-132.291855,0.895644,-178.934464,0.010908,-0.005343,0.914540,-0.404312
5851,-0.145418,-7.239319,-6.562346,-0.014926,-0.061830,0.059399,-132.277130,0.893954,-178.933960,0.010897,-0.005352,0.914488,-0.404430
5852,-0.146441,-7.243874,-6.561752,0.012885,-0.055642,0.085239,-132.263443,0.891818,-178.933914,0.010881,-0.005358,0.914440,-0.404539
5853,-0.149874,-7.242458,-6.566277,0.028431,-0.043383,0.091280,-132.251266,0.891834,-178.934494,0.010880,-0.005353,0.914397,-0.404637
5854,-0.146625,-7.233559,-6.567564,0.045351,-0.040281,0.092748,-132.244644,0.892007,-178.935440,0.010878,-0.005344,0.914374,-0.404689
5855,-0.146597,-7.227272,-6.567336,0.048400,-0.055470,0.080461,-132.243271,0.890950,-178.936203,0.010867,-0.005341,0.914369,-0.404701
5856,-0.148369,-7.220208,-6.567745,0.040663,-0.061513,0.069717,-132.246033,0.890646,-178.936508,0.010863,-0.005340,0.914379,-0.404679
5857,-0.144414,-7.217360,-6.570571,0.031316,-0.058388,0.058959,-132.252548,0.889376,-178.936584,0.010852,-0.005345,0.914402,-0.404627
5858,-0.145879,-7.215178,-6.570844,0.009719,-0.059827,0.049712,-132.261169,0.886981,-178.936493,0.010833,-0.005355,0.914432,-0.404558
5859,-0.144116,-7.219348,-6.572731,-0.004224,-0.047534,0.041994,-132.269470,0.884365,-178.936325,0.010813,-0.005366,0.914462,-0.404492
5860,-0.143074,-7.217345,-6.572114,-0.018134,-0.047436,0.047994,-132.276932,0.880812,-178.936279,0.010784,-0.005380,0.914488,-0.404433
5861,-0.143008,-7.218417,-6.575726,-0.030519,-0.041233,0.041785,-132.284866,0.877156,-178.936295,0.010755,-0.005393,0.914516,-0.404370
5862,-0.147374,-7.215700,-6.574847,-0.059696,-0.044222,0.035617,-132.293701,0.875471,-178.936218,0.010741,-0.005401,0.914548,-0.404300
5863,-0.143599,-7.213287,-6.572977,-0.065969,-0.045696,0.021831,-132.302551,0.874209,-178.935867,0.010732,-0.005409,0.914579,-0.404229
5864,-0.145332,-7.210056,-6.572292,-0.064601,-0.054791,0.029396,-132.311066,0.872421,-178.935287,0.010719,-0.005420,0.914609,-0.404161
5865,-0.145740,-7.216341,-6.571080,-0.054015,-0.054747,0.021721,-132.316864,0.871769,-178.934570,0.010716,-0.005429,0.914629,-0.404115
5866,-0.145332,-7.221096,-6.569736,-0.040263,-0.051656,0.033884,-132.317657,0.871262,-178.933868,0.010714,-0.005436,0.914632,-0.404109
5867,-0.143913,-7.230018,-6.567883,-0.020281,-0.054657,0.032300,-132.312912,0.870201,-178.933228,0.010709,-0.005445,0.914615,-0.404147
5868,-0.146292,-7.232846,-6.566354,0.002846,-0.053090,0.041404,-132.303665,0.869692,-178.932571,0.010707,-0.005451,0.914583,-0.404221
5869,-0.148689,-7.230927,-6.568330,0.013745,-0.039347,0.041389,-132.294662,0.871088,-178.932236,0.010720,-0.005448,0.914551,-0.404292
5870,-0.148816,-7.231965,-6.566763,0.013924,-0.033251,0.033763,-132.287033,0.873098,-178.932068,0.010737,-0.005441,0.914524,-0.404353
