seq,ax,ay,az,wroll,wpitch,wyaw,roll,pitch,yaw
1,0.867660,-1.083835,9.882708,-0.833499,1.163853,1.147066,-6.258605,-4.987707,0.272855
2,0.848743,-1.102094,9.861018,-0.265352,1.524460,1.657233,-6.280529,-4.938066,0.314577
3,0.882571,-1.097583,9.844851,0.303183,0.755541,1.572550,-6.284143,-4.894406,0.364110
4,0.888863,-1.051975,9.823972,1.317582,0.315176,1.386640,-6.261156,-4.871282,0.411358
5,0.897576,-1.060125,9.862589,1.090527,-0.002726,1.643245,-6.225248,-4.860618,0.461173
6,0.918516,-1.065317,9.844906,1.426693,-0.582261,1.739467,-6.188153,-4.864213,0.518482
7,0.946054,-1.032820,9.806046,1.884990,-1.391804,1.317870,-6.137586,-4.891455,0.572874
8,0.954836,-1.024866,9.804379,1.564439,-1.781982,1.144163,-6.084093,-4.939686,0.619479
9,0.960789,-1.062645,9.828193,0.533815,-1.875384,1.255094,-6.053140,-4.996072,0.665864
10,0.984440,-1.057244,9.820174,0.689777,-2.236584,0.734398,-6.036283,-5.060728,0.706214
11,0.975431,-1.014000,9.854856,1.445658,-2.157624,0.032806,-6.002516,-5.132222,0.726691
12,0.910045,-0.898004,9.912686,2.576671,-1.600859,0.216288,-5.936442,-5.194095,0.737374
13,0.768567,-0.786825,9.853948,3.510952,-0.036472,2.673984,-5.839602,-5.216299,0.788293
14,0.710522,-0.630720,9.766973,3.756372,0.485522,7.184509,-5.733288,-5.192273,0.951668
15,0.474017,-0.653932,9.841063,-1.549074,-0.526257,13.631068,-5.727766,-5.158272,1.298331
16,0.194094,-0.685595,9.788701,-1.617310,0.051261,23.784128,-5.836339,-5.103175,1.922019
17,0.255585,-0.808330,9.895422,-0.201463,-0.729422,35.830544,-5.954192,-5.012403,2.915326
18,0.506417,-0.890528,9.752308,4.561933,-3.214732,48.284019,-6.003458,-4.931892,4.321604
19,0.477950,-1.443282,9.501713,4.044225,-4.503965,59.277111,-6.014285,-4.872594,6.124170
20,0.775025,-1.512609,9.612222,2.591212,-8.003756,66.438675,-6.082988,-4.858936,8.236701
21,0.965892,-1.391669,9.727591,0.988436,-11.476492,71.046089,-6.221910,-4.935858,10.557286
22,0.972672,-1.248879,9.724247,-1.757327,-14.367524,76.098457,-6.453169,-5.092917,13.050661
23,1.002707,-1.422470,9.800270,-9.841090,-17.391926,80.530182,-6.888440,-5.314852,15.714530
24,1.200533,-1.098665,9.830580,-12.058705,-20.925703,83.978691,-7.521197,-5.602962,18.525883
25,1.209987,-1.110466,9.442519,-13.869871,-22.159626,89.588715,-8.252531,-5.916826,21.502771
26,1.396464,-1.478013,9.260945,-17.685558,-22.002264,94.526733,-9.111197,-6.180881,24.662453
27,1.497228,-1.812622,9.131724,-20.200539,-19.690060,96.970383,-10.099483,-6.332666,27.942039
28,1.414800,-1.833440,9.345736,-18.694828,-13.743610,98.006157,-11.110821,-6.281820,31.255840
29,1.325690,-2.120125,9.773775,-16.065407,-7.015225,98.734047,-12.040157,-5.963328,34.553623
30,1.147531,-2.534124,9.756807,-15.756195,-1.850293,96.122200,-12.887254,-5.407623,37.769802
31,0.887683,-2.485725,9.833319,-13.663274,2.320925,91.648758,-13.644658,-4.682208,40.823338
32,0.644683,-2.658625,9.871730,-13.119090,3.668853,87.373611,-14.304296,-3.865531,43.700523
33,0.232872,-2.934940,9.760186,-12.386048,2.965344,83.199371,-14.893110,-3.042390,46.426735
34,-0.150775,-2.962323,9.552291,-11.005395,0.735725,78.614670,-15.403048,-2.278510,49.014862
35,-0.313671,-2.746262,9.607034,-5.720979,-2.257400,75.837753,-15.766518,-1.611790,51.501190
36,-0.368043,-2.849097,9.561822,-1.898412,-5.756620,73.481285,-15.950704,-1.061355,53.931152
37,-0.502866,-2.785910,9.444510,3.019300,-7.334369,68.814209,-15.966991,-0.619899,56.270531
38,-0.323795,-2.707438,9.273210,5.824738,-9.230049,60.863777,-15.837151,-0.294184,58.424034
39,0.008442,-2.834503,9.148909,5.570645,-11.050499,51.527710,-15.654434,-0.111756,60.318092
40,0.250616,-2.890784,9.058478,3.561991,-11.726558,42.459190,-15.505101,-0.056810,61.928570
41,0.294232,-2.813878,9.238398,1.780432,-10.644324,34.345264,-15.417933,-0.074768,63.261497
42,0.143080,-2.980850,9.832411,-2.512881,-7.242186,27.909277,-15.431774,-0.086050,64.340851
43,-0.075086,-3.349276,10.663429,-8.208431,-1.345567,24.073860,-15.610930,0.008222,65.213875
44,-0.404947,-3.560637,11.087047,-13.579437,5.607832,23.588581,-15.971756,0.293173,65.958908
45,-0.734791,-3.768754,10.866089,-25.010433,11.669187,26.579508,-16.607571,0.804416,66.680740
46,-1.164283,-4.103785,10.186313,-42.646614,17.423418,32.088596,-17.718470,1.556685,67.471840
47,-1.678247,-4.143240,8.890717,-58.478233,20.940571,43.521103,-19.367653,2.564067,68.463165
48,-1.087091,-3.875351,7.567580,-69.385841,19.628056,55.505657,-21.425524,3.772346,69.775436
49,-0.541313,-3.320043,6.685433,-73.960625,13.886768,60.866894,-23.692675,5.030552,71.355217
50,-0.291840,-3.199432,6.776440,-66.071480,8.991732,58.686054,-25.863802,6.210110,73.010048
51,0.047153,-3.246090,7.020451,-42.908401,5.014800,49.623119,-27.502079,7.227606,74.527229
52,0.248755,-3.668222,7.506741,-21.126387,1.646022,33.430672,-28.413006,7.972603,75.708443
53,-0.698753,-4.066389,8.053827,-3.805440,-0.322472,16.681480,-28.724678,8.390446,76.439079
54,-1.350160,-4.560884,8.714118,8.418969,0.106949,1.855505,-28.607254,8.534997,76.715111
55,-1.777940,-5.068789,9.409106,13.888704,0.309389,-10.883273,-28.255707,8.469145,76.578156
56,-1.955965,-5.478779,9.788221,11.630733,-2.436624,-21.234201,-27.897055,8.185681,76.117828
57,-1.593205,-5.107111,9.703077,12.634439,-4.995945,-30.391184,-27.590578,7.675204,75.407516
58,-1.357682,-4.733976,9.406671,13.174193,-5.758696,-38.006611,-27.279930,6.990781,74.470932
59,-1.470424,-4.802852,9.198606,11.749465,-7.774776,-41.925117,-26.989601,6.182379,73.381302
60,-1.412032,-4.504782,8.616221,12.885024,-11.346916,-42.094357,-26.689734,5.265716,72.270576
61,-1.265555,-4.147624,8.291725,13.294112,-14.340784,-39.848061,-26.339119,4.273227,71.236298
62,-1.097404,-4.162551,8.479782,9.683978,-18.052052,-36.413261,-26.014994,3.228314,70.332077
63,-0.557579,-4.483622,9.013908,6.286229,-23.243097,-34.461773,-25.783764,2.093288,69.569733
64,0.077788,-4.603978,9.141158,5.161340,-27.032141,-33.661869,-25.609369,0.845994,68.910202
65,0.564292,-4.471563,8.970008,5.554195,-28.175568,-31.883438,-25.432451,-0.454828,68.321068
66,0.938027,-4.432431,9.052493,4.225441,-27.036606,-31.863626,-25.258421,-1.741013,67.754768
67,1.371721,-4.525325,9.197951,4.694651,-24.199776,-34.356274,-25.083637,-2.983150,67.118782
68,1.407576,-4.140461,8.758715,7.549093,-18.581480,-34.418346,-24.834202,-4.113108,66.379112
69,1.363495,-3.728147,8.674409,8.717406,-11.897876,-32.655216,-24.499220,-5.041039,65.572464
70,1.380739,-3.675595,9.109251,6.386739,-6.328288,-30.502333,-24.169201,-5.751444,64.734711
71,1.324536,-3.572235,9.131970,5.202156,-2.246529,-24.353714,-23.894762,-6.254404,63.953697
72,1.205084,-3.355564,8.901066,4.368510,1.043060,-14.879648,-23.669304,-6.536442,63.359715
74,1.060657,-3.399519,8.969283,3.243668,7.464372,-3.573877,-23.503794,-6.529509,63.018852
75,0.543092,-3.994108,9.324714,0.751329,15.243157,10.198925,-23.431976,-6.138342,62.969025
76,0.289939,-4.240532,8.871343,-1.245947,21.279600,21.106722,-23.464350,-5.372260,63.206532
77,0.157238,-4.047025,8.676643,-1.811170,25.034031,28.006683,-23.553154,-4.337962,63.650700
78,-0.214294,-4.342411,9.301060,-8.086357,26.447441,33.729351,-23.757349,-3.139326,64.250084
79,-0.527743,-4.535485,9.664320,-11.224594,22.406340,32.869884,-24.109772,-1.944778,64.934372
80,-0.166589,-3.799230,9.121954,-7.409405,14.775884,24.851784,-24.436474,-0.984389,65.556328
81,-0.300809,-3.423296,9.193233,-3.482832,5.964782,17.871593,-24.624151,-0.374417,66.060623
82,-0.434119,-3.612954,9.282356,0.177901,-3.707226,11.815670,-24.681435,-0.133956,66.494629
83,-0.351968,-3.706429,9.237190,9.499335,-11.854026,3.323177,-24.521660,-0.264836,66.832039
84,0.117240,-3.932251,9.010648,11.001071,-19.540993,-1.537591,-24.182405,-0.729531,67.074951
85,0.194642,-4.020236,8.914048,11.405276,-24.102810,-1.346454,-23.813894,-1.413630,67.327080
86,0.616474,-4.249696,9.051416,9.778413,-24.958998,-6.387928,-23.467468,-2.214298,67.537064
87,0.946151,-4.415681,8.994883,6.513750,-20.575605,-13.561110,-23.196032,-3.042863,67.532509
88,0.815185,-3.959447,8.600171,4.043007,-13.078537,-17.784557,-23.005114,-3.763889,67.271767
89,0.450867,-3.632805,8.844769,3.765512,-5.722764,-18.684330,-22.844627,-4.289363,66.833008
90,0.441420,-3.765373,9.309323,0.153451,-1.273981,-17.134014,-22.740261,-4.628164,66.326263
91,0.372751,-3.623305,9.190618,0.784794,1.157849,-8.609218,-22.692247,-4.795767,65.929962
92,0.404697,-3.336184,9.153653,6.111190,5.636567,3.586724,-22.567329,-4.723430,65.808701
93,1.014706,-3.485676,8.990462,-0.606239,-0.948295,11.215064,-22.491770,-4.556603,66.007240
94,1.275552,-3.634476,8.696455,-1.520289,0.344348,15.113421,-22.559406,-4.397636,66.417618
95,0.959260,-3.880357,8.649596,-3.001028,5.518590,14.165465,-22.665464,-4.119790,66.831642
96,0.641993,-3.935622,8.907146,-4.379251,11.067946,12.560856,-22.809027,-3.692613,67.136307
97,0.301041,-4.130944,9.020350,-4.710483,15.320722,14.253388,-22.974621,-3.113552,67.377357
98,-0.121205,-4.140720,9.110439,-4.146231,17.795923,16.878899,-23.134729,-2.402514,67.638954
99,-0.301369,-3.992933,9.405069,-2.405886,18.100496,17.223606,-23.254038,-1.628805,67.925995
100,-0.050538,-3.601328,9.331586,-0.080412,14.872693,13.750929,-23.301195,-0.920050,68.183182
101,0.163273,-3.492642,9.310749,0.897739,11.201131,7.494684,-23.289297,-0.380940,68.336662
102,0.015573,-3.389907,9.276740,1.957686,8.577449,-3.334856,-23.241354,-0.050738,68.270195
103,0.051171,-3.297586,8.979409,2.870458,3.306292,-14.828579,-23.160521,0.012019,67.913979
104,-0.009314,-3.459250,9.044483,-0.489391,-2.112292,-18.860855,-23.119738,-0.190363,67.389900
105,-0.231052,-3.894782,9.215963,-2.114493,-4.709406,-14.653885,-23.160027,-0.514546,66.921021
106,-0.348074,-4.163260,9.035521,-4.039032,-5.906008,-9.852005,-23.258831,-0.838177,66.615379
107,-0.098616,-4.055190,9.029191,-4.751115,-7.313798,-4.640693,-23.402924,-1.136228,66.480873
108,-0.224151,-4.157466,9.347326,-5.704918,-4.631152,1.643594,-23.577805,-1.338784,66.514450
109,-0.037421,-4.180346,8.903462,-5.441875,-2.651208,3.011744,-23.766384,-1.418848,66.634338
110,0.193875,-4.011159,8.831469,-5.755444,-2.176848,0.310277,-23.955084,-1.470050,66.717590
111,0.337760,-3.873942,9.091996,-1.842424,-2.484541,-2.365896,-24.081738,-1.554919,66.717911
112,0.491308,-4.092778,9.116621,-0.235350,-2.752804,-4.754126,-24.114325,-1.683032,66.645157
113,0.522498,-4.175189,9.129670,0.419791,-2.410290,-7.214472,-24.106737,-1.843049,66.498138
114,0.484380,-4.050200,9.302452,4.319007,-2.440796,-8.583355,-24.020773,-2.024227,66.290565
115,0.625599,-3.909472,8.998248,8.264776,-3.337848,-9.752302,-23.802111,-2.236083,66.050018
116,0.575570,-3.973234,8.834931,5.408433,-3.430257,-9.516676,-23.563992,-2.468323,65.800980
117,0.367284,-3.982403,9.027954,3.353877,-2.843448,-7.599533,-23.408068,-2.677958,65.580833
118,0.469900,-3.903074,8.973476,3.989245,-3.119959,-5.914660,-23.277584,-2.858473,65.413231
119,0.527670,-3.816849,8.844784,3.069413,-3.419402,-4.461335,-23.153963,-3.026783,65.297112
120,0.386457,-3.896846,9.027740,0.656377,-0.664747,-1.579211,-23.088310,-3.128914,65.231163
121,0.399518,-3.933179,9.039028,0.974056,0.112881,-0.181414,-23.059860,-3.148882,65.207741
122,0.548512,-3.969715,8.880223,0.981601,-1.084884,-0.880376,-23.026716,-3.170716,65.197769
123,0.514508,-4.035460,8.823967,-1.402176,0.563025,-1.316775,-23.032043,-3.193045,65.167442
124,0.423059,-4.179255,8.916394,-3.641914,2.905854,-1.447775,-23.112505,-3.157916,65.102287
125,0.460940,-4.250895,8.920140,-2.981585,3.572136,-2.023228,-23.217691,-3.081416,65.006500
126,0.452640,-4.227345,8.881374,-1.435897,4.114446,-1.960673,-23.285395,-2.989913,64.894753
127,0.343841,-4.141638,8.971024,1.129761,5.643422,-0.914202,-23.284969,-2.859456,64.786331
128,0.355298,-4.021522,9.092779,4.995059,4.803633,-0.527789,-23.178497,-2.708917,64.695480
129,0.339166,-3.791429,9.053991,8.591567,4.008634,0.026029,-22.949045,-2.577033,64.630226
130,0.317329,-3.590884,9.032884,6.883271,1.510176,0.276647,-22.689770,-2.490267,64.599228
131,0.284178,-3.557145,9.140173,4.948081,0.507372,1.272193,-22.493053,-2.449285,64.610176
132,0.315360,-3.516274,9.191856,4.533000,-0.229453,1.905691,-22.337049,-2.424787,64.657417
133,0.307906,-3.502774,9.060342,3.921807,-0.548120,3.768372,-22.200031,-2.400933,64.749924
134,0.429834,-3.499891,9.039290,4.591220,-1.301656,5.257767,-22.064442,-2.372792,64.901016
135,0.501438,-3.460410,8.996756,2.600997,-2.064581,5.726672,-21.952452,-2.356193,65.091934
136,0.517285,-3.330433,8.932632,-2.197015,-1.085923,6.752971,-21.954422,-2.327101,65.304657
137,0.596181,-3.351832,8.918690,-7.628576,-1.312372,6.538456,-22.127028,-2.280947,65.525162
138,0.665612,-3.307866,9.043483,-12.934298,-1.248339,4.961970,-22.477390,-2.247607,65.718811
139,0.638562,-3.350410,9.142987,-17.004585,-0.817893,3.611892,-22.982037,-2.224046,65.863998
140,0.565005,-3.509833,9.214808,-18.626217,-0.401094,2.542938,-23.579813,-2.202070,65.966309
141,0.579756,-3.658318,9.227111,-17.998264,0.665257,1.729420,-24.192619,-2.169153,66.029671
142,0.462698,-3.824651,9.159822,-17.235504,1.799080,2.574106,-24.781624,-2.101996,66.077988
143,0.345352,-4.081987,9.161908,-16.275089,2.312319,4.202922,-25.342741,-1.992097,66.151390
144,0.349794,-4.250556,9.092009,-13.577908,2.129475,4.758029,-25.843737,-1.860875,66.254211
145,0.433605,-4.339717,8.992636,-10.276471,1.698481,4.653769,-26.244852,-1.734724,66.367218
146,0.414411,-4.383605,8.807419,-8.086561,1.143163,4.277438,-26.554199,-1.626151,66.479553
147,0.369741,-4.266521,8.729214,-7.567175,0.694378,2.674758,-26.817585,-1.546768,66.569359
148,0.264456,-4.273874,8.781787,-9.435648,0.854172,0.956827,-27.102079,-1.496303,66.611595
149,0.203895,-4.354939,8.805339,-11.405330,1.106147,-0.336852,-27.449276,-1.462492,66.605789
150,0.077353,-4.412559,8.766184,-12.506510,1.307814,-0.864418,-27.846884,-1.436114,66.569366
151,0.026434,-4.532006,8.935567,-12.367048,1.150686,-0.913052,-28.260302,-1.413871,66.523933
152,0.095177,-4.825828,8.920027,-9.860195,0.759503,-0.802873,-28.629759,-1.399503,66.483604
153,0.243189,-4.904512,8.608987,-4.214265,0.355558,-1.543633,-28.863270,-1.402020,66.440353
154,0.167081,-4.848413,8.398043,-3.059498,1.294681,-0.615828,-28.983408,-1.395328,66.395531
155,0.135250,-4.848814,8.377462,-3.840738,1.850811,0.430888,-29.097738,-1.350991,66.367378
156,0.178623,-4.851342,8.227868,-4.115685,1.289469,-0.414310,-29.229767,-1.305160,66.342117
157,0.131891,-4.681055,8.174686,-7.123470,2.079884,-0.532452,-29.416157,-1.263922,66.300842
158,0.066106,-4.668894,8.382536,-11.961198,2.785317,0.511767,-29.733370,-1.193576,66.260513
159,0.100204,-4.735596,8.505499,-14.419929,3.021884,0.051798,-30.172249,-1.105053,66.220322
160,0.162101,-4.805178,8.555468,-14.591555,2.942782,-0.886918,-30.654598,-1.026358,66.157967
161,0.135087,-4.855601,8.609200,-14.431744,2.701346,-1.147562,-31.136963,-0.963023,66.080544
162,0.096487,-4.881824,8.558794,-14.182510,2.291940,-0.903988,-31.612669,-0.909769,66.007996
163,0.073337,-4.958666,8.466489,-14.486161,1.546182,-0.383957,-32.089668,-0.866776,65.956001
164,0.049389,-5.083281,8.385127,-16.206217,0.977519,0.601639,-32.600906,-0.829331,65.936531
165,0.019212,-5.121037,8.292845,-18.283657,0.496329,1.565012,-33.175972,-0.789142,65.953529
166,0.058115,-5.213260,8.346908,-19.496407,-0.306057,2.619233,-33.806381,-0.748060,66.009941
167,0.163092,-5.368738,8.394725,-18.427698,-1.786420,3.283026,-34.439724,-0.721803,66.110939
168,0.246904,-5.457383,8.252090,-16.710943,-3.573812,2.496436,-35.027020,-0.740408,66.240974
169,0.268838,-5.591625,8.267864,-16.023022,-4.762543,1.947418,-35.574493,-0.811030,66.381638
170,0.245461,-5.834861,8.282226,-13.835857,-5.277690,2.326412,-36.074463,-0.905036,66.537277
171,0.246132,-5.980885,8.082664,-9.892848,-5.156343,2.399136,-36.472702,-0.998682,66.703667
172,0.209833,-6.033783,7.920897,-7.478691,-3.987525,1.917882,-36.764912,-1.078129,66.852303
173,0.249089,-6.053118,7.961903,-5.185544,-2.652915,1.853115,-36.978233,-1.128958,66.969032
174,0.280040,-6.015730,7.914055,-1.530761,-2.651304,1.422068,-37.092098,-1.166656,67.065865
175,0.362319,-5.988416,7.866320,1.682337,-2.895197,0.774583,-37.091347,-1.218336,67.150833
177,0.360721,-5.948892,7.931752,3.992856,-2.248913,-0.176508,-36.998070,-1.280779,67.210449
178,0.406081,-5.952034,8.042480,5.504303,-2.489245,-1.800519,-36.840271,-1.363723,67.231529
179,0.404364,-5.842354,8.054364,7.712984,-1.831196,-3.686956,-36.619251,-1.476147,67.201302
180,0.352032,-5.707497,8.077081,8.766435,-0.265684,-4.626318,-36.342182,-1.586647,67.110626
181,0.249874,-5.498475,8.073414,10.463643,1.297110,-4.467599,-36.017944,-1.662271,66.978065
182,0.238795,-5.283261,8.073915,12.287389,1.438325,-4.092460,-35.634594,-1.708815,66.835609
183,0.111878,-5.183557,8.150671,12.506171,2.832640,-1.286798,-35.217972,-1.702754,66.721230
184,-0.002959,-5.297154,8.315989,10.330864,2.932465,3.552144,-34.836681,-1.602356,66.696907
185,0.061871,-5.319716,8.442661,10.686489,0.547777,5.904387,-34.489017,-1.464904,66.793503
186,0.110018,-5.190531,8.529032,12.558529,-1.677342,7.615377,-34.106480,-1.353403,66.990326
187,0.076783,-5.249341,8.615930,5.125160,-4.892350,9.431804,-33.818626,-1.285450,67.287254
188,0.236645,-5.182768,8.578186,4.934931,-6.934190,10.415542,-33.659569,-1.265403,67.671898
189,0.408613,-4.894218,8.393975,5.818746,-8.119232,9.094796,-33.489536,-1.294580,68.081688
190,0.486976,-4.819314,8.423540,4.218462,-7.336294,7.400475,-33.330894,-1.358258,68.453125
191,0.503316,-4.926847,8.716787,12.036666,-5.073478,2.919305,-33.066277,-1.437129,68.710388
192,0.632700,-4.810619,8.622704,17.335297,-1.010167,-3.122852,-32.578140,-1.524418,68.762482
193,0.550751,-4.751121,8.414536,11.948112,7.262856,-5.581421,-32.085407,-1.514228,68.584061
194,0.318749,-4.660021,8.496757,12.428341,12.917979,-8.287445,-31.669851,-1.350982,68.209831
195,0.099614,-4.632174,8.281354,11.967010,17.371017,-7.133240,-31.253164,-1.054668,67.726936
196,-0.053211,-4.702995,8.189455,7.779776,18.493248,-3.364247,-30.917437,-0.633169,67.268318
197,-0.267294,-5.123818,8.210773,1.010111,18.127459,1.812459,-30.768906,-0.122493,66.933006
198,-0.303290,-5.431373,8.215295,-2.327734,18.174755,4.814281,-30.791716,0.453704,66.718002
199,-0.230752,-5.774467,8.064494,-5.971976,17.436855,4.867873,-30.932348,1.045893,66.551918
200,-0.209221,-5.879509,8.079590,-7.710323,15.607696,2.101772,-31.164623,1.577575,66.367180
201,-0.135594,-5.857167,7.739611,-8.681605,13.245890,-2.870875,-31.445827,1.981784,66.106110
202,-0.158916,-5.622653,7.585241,-10.330231,11.705480,-8.353692,-31.776413,2.237917,65.728462
203,-0.206335,-5.458284,7.604001,-11.714967,10.153813,-12.447553,-32.163212,2.363460,65.240959
204,-0.233315,-5.467800,7.733676,-10.935978,9.040949,-14.535178,-32.563457,2.392977,64.689285
205,-0.273055,-5.602726,7.686033,-8.762208,8.501820,-17.170027,-32.916641,2.353186,64.086143
206,-0.321980,-5.675951,7.649889,-5.842499,8.201107,-18.974617,-33.186413,2.258111,63.428841
207,-0.219770,-5.691728,7.728539,-2.360925,7.566720,-19.124226,-33.348938,2.129687,62.753239
208,-0.265225,-5.810704,7.849820,0.965359,7.360971,-17.676716,-33.395565,2.000243,62.103729
209,-0.240819,-5.903678,7.733472,4.318169,6.804745,-16.171850,-33.327927,1.887353,61.502369
210,-0.186759,-5.902425,7.647086,6.369207,6.544409,-14.633213,-33.167519,1.792093,60.950706
211,-0.251534,-5.932528,7.680444,6.977948,6.797690,-13.272041,-32.960777,1.724813,60.439373
212,-0.350598,-5.985238,7.788065,6.864947,6.840804,-10.677853,-32.743809,1.699271,59.980530
213,-0.239131,-6.015828,7.751719,6.307709,5.699019,-8.682734,-32.535721,1.701257,59.595894
214,-0.227631,-6.048083,7.801770,5.231727,4.046900,-7.157624,-32.352600,1.696723,59.285828
215,-0.261987,-5.924724,7.930279,-3.324220,2.075054,-5.260421,-32.327538,1.672218,59.056282
216,-0.183785,-5.792121,7.990073,-1.786465,-0.727258,-2.653816,-32.416245,1.620432,58.932816
217,-0.107670,-5.687628,7.979160,-0.579075,-3.039360,-0.696112,-32.456020,1.537493,58.919346
218,-0.150275,-5.573109,8.046686,1.958907,-3.956462,2.756969,-32.430614,1.457513,59.010910
219,-0.215950,-5.316479,8.128765,6.653573,-4.517279,6.325710,-32.281937,1.419213,59.214413
220,-0.191949,-5.292795,8.256637,9.350439,-5.489248,9.128111,-32.007591,1.415009,59.521301
221,-0.084282,-5.275496,8.357362,11.451959,-6.927158,9.497548,-31.651695,1.402902,59.894268
222,-0.192770,-5.109137,8.446105,13.962408,-6.597955,8.309312,-31.219204,1.365321,60.265179
223,-0.171217,-5.039997,8.455132,14.972732,-5.390556,5.979461,-30.729792,1.316467,60.572277
224,-0.148138,-5.106743,8.500774,13.985910,-3.688601,3.426901,-30.242397,1.265489,60.784195
225,-0.115798,-5.014862,8.469936,12.588937,-2.808598,0.291663,-29.797173,1.202644,60.892040
226,-0.209322,-4.904554,8.608006,12.544908,-0.231554,-0.881687,-29.377960,1.153636,60.908543
227,-0.143069,-4.924897,8.562862,10.413369,-0.598842,-2.211445,-28.996098,1.116345,60.870235
228,-0.174104,-4.796487,8.688768,11.122261,-0.043960,-2.813260,-28.638474,1.066559,60.802048
229,-0.334995,-4.709833,8.705409,10.853230,1.801778,-0.996736,-28.273521,1.062043,60.732246
230,-0.230825,-4.758884,8.763328,8.419147,-1.306551,-0.419647,-27.952789,1.058219,60.707466
231,-0.352243,-4.931977,8.774302,6.398134,-3.561536,1.611036,-27.704834,0.995778,60.762962
232,-0.345986,-5.052362,8.919298,4.955880,-7.651165,4.181778,-27.512785,0.874983,60.935181
233,-0.320537,-4.918339,8.824612,5.710393,-12.315801,5.581544,-27.331032,0.654607,61.232941
234,-0.051962,-4.946215,8.780385,7.238247,-15.959969,3.830712,-27.112261,0.307330,61.588047
235,-0.202400,-4.834766,8.599654,9.623763,-15.792288,2.617208,-26.830772,-0.115601,61.923851
236,-0.162698,-4.543441,8.492689,12.294518,-14.579523,0.600830,-26.467104,-0.544039,62.198761
237,-0.032831,-4.421779,8.307501,11.836045,-10.414294,-1.619398,-26.067177,-0.925205,62.367809
238,0.090636,-4.694695,8.522583,7.643046,-6.239921,-2.048744,-25.743832,-1.201692,62.434025
239,-0.071987,-4.319359,8.619617,4.507163,0.345850,0.991938,-25.541935,-1.297902,62.460659
240,-0.220375,-4.210090,9.097354,4.815292,-0.026706,3.101460,-25.387877,-1.263763,62.519909
241,-0.016905,-4.109671,9.155399,8.425625,1.870664,9.078896,-25.170784,-1.149260,62.690376
242,0.106348,-3.982381,9.315920,9.562185,-2.668026,11.204190,-24.876879,-1.018281,63.002327
243,-0.011152,-3.687021,9.233809,15.701518,-4.489394,12.303617,-24.462954,-0.963095,63.408298
244,0.306228,-3.752409,9.234658,19.936728,-6.887764,13.199836,-23.876858,-0.962182,63.873825
245,0.696095,-3.741574,8.999376,22.243050,-9.292961,11.718369,-23.182512,-1.043704,64.362396
246,0.598329,-3.785591,8.929019,21.575117,-8.906955,8.125370,-22.460609,-1.195105,64.785057
247,0.677380,-3.776604,8.933204,19.531828,-7.887436,6.003908,-21.782833,-1.365881,65.108734
248,0.504984,-3.848349,8.998086,15.547448,-5.049637,5.999868,-21.204851,-1.493264,65.373985
249,0.389246,-3.805725,9.019144,8.060404,-5.400812,4.004844,-20.817230,-1.596037,65.592079
250,0.376855,-3.767727,9.180304,5.204834,-4.999241,1.907722,-20.600626,-1.723254,65.745705
251,0.237161,-3.561191,9.342375,6.599507,-3.541007,0.009213,-20.406399,-1.845385,65.825554
252,-0.005984,-3.484694,9.447442,7.048388,-2.337016,-1.002254,-20.179565,-1.943052,65.844009
253,0.113830,-3.176823,9.594345,8.788733,-1.101834,-0.801367,-19.915323,-2.007221,65.835388
254,0.159690,-3.077787,9.686167,11.108771,-0.821693,1.234888,-19.584324,-2.034956,65.853004
255,-0.114549,-2.983377,9.588786,13.382492,-0.009870,1.436156,-19.177788,-2.033216,65.899597
256,0.325705,-2.899354,9.464749,18.320673,-0.267261,2.977851,-18.651920,-2.013748,65.970718
257,0.467551,-2.837323,9.476698,17.171682,-2.728404,3.270798,-18.064440,-2.028300,66.085342
258,0.384139,-2.982945,9.399848,11.863769,-3.560479,3.315481,-17.585466,-2.094427,66.222115
259,0.494730,-3.065663,9.384454,7.240156,-4.587054,2.183993,-17.271881,-2.196468,66.350380
260,0.728194,-3.113394,9.410492,4.958970,-2.625780,1.978095,-17.072571,-2.290816,66.452286
261,0.343303,-3.197056,9.433105,-1.874347,0.476283,1.157896,-17.023581,-2.309738,66.512794
262,0.453347,-3.264508,9.202329,-7.029804,0.204917,-0.214173,-17.172447,-2.294238,66.524513
263,0.391137,-3.338176,9.037127,-7.273193,2.444265,-2.424475,-17.408632,-2.265134,66.469337
264,0.079231,-3.324117,8.817664,-12.624652,3.343269,-4.980655,-17.734526,-2.210388,66.322464
265,-0.078653,-3.181409,8.819890,-16.756161,3.561831,-3.668482,-18.217625,-2.145402,66.149704
266,-0.024593,-3.233374,8.897993,-19.800478,2.505983,-1.628083,-18.822630,-2.077645,66.033798
267,-0.251574,-3.132398,9.082226,-20.281599,1.869429,-0.315191,-19.488695,-2.019515,65.979210
268,-0.043543,-3.053389,9.229695,-18.046394,0.135016,3.248633,-20.128689,-1.971591,66.013893
269,0.055611,-2.835585,9.401859,-13.927071,-1.076095,6.539596,-20.666971,-1.929622,66.172348
270,0.073400,-2.943462,9.387491,-10.631580,-1.725905,8.111728,-21.084438,-1.886427,66.417297
271,0.243609,-2.889956,9.215123,-6.744584,-3.285592,8.408819,-21.383434,-1.864668,66.704346
272,0.357296,-2.849283,9.025854,-3.309978,-4.543315,7.811837,-21.560843,-1.887233,67.003822
273,0.531395,-2.907261,9.029991,-0.701748,-4.891778,5.996374,-21.636837,-1.948802,67.275818
274,0.509718,-3.215371,9.167809,5.758195,-5.025470,2.869901,-21.559505,-2.048136,67.474159
275,0.532394,-3.144840,9.257589,9.790614,-4.063434,0.134393,-21.304155,-2.170956,67.576149
276,0.445017,-3.337051,9.270913,8.204268,-1.673845,-1.330325,-21.004881,-2.267410,67.592041
277,0.294445,-3.612224,9.377756,5.287236,0.226753,-0.718479,-20.779108,-2.302166,67.568695
278,0.132327,-3.604936,9.331177,5.663895,3.198589,-0.771376,-20.594870,-2.257537,67.525238
280,0.224378,-3.664917,9.170548,3.219975,1.034441,-0.589771,-20.445019,-2.199428,67.479195
281,0.308059,-3.816556,9.006730,-0.301613,-0.433956,-1.300510,-20.395109,-2.201041,67.446159
282,0.369478,-3.760382,9.151955,1.731352,0.023434,-2.341305,-20.369167,-2.228602,67.391617
283,0.387720,-3.604113,9.198074,4.445087,0.887309,-4.523405,-20.261824,-2.254085,67.278954
284,0.410486,-3.535187,9.240381,5.354973,1.189346,-5.638547,-20.091726,-2.280009,67.107910
285,0.296082,-3.446600,9.256778,7.114731,2.245526,-7.085510,-19.875151,-2.298683,66.888870
286,0.221818,-3.310258,9.217876,7.248547,2.678419,-7.397862,-19.625532,-2.303016,66.633728
287,0.139819,-3.259443,9.320745,5.994241,2.339906,-6.228621,-19.395100,-2.300033,66.391541
288,0.140272,-3.138344,9.294684,7.383371,4.509815,-4.656766,-19.163837,-2.252177,66.182434
289,0.256422,-3.168099,9.248419,4.952840,2.854056,-3.486208,-18.951761,-2.180454,66.013916
290,0.268981,-2.997462,9.368872,6.152439,2.417835,-1.661843,-18.762550,-2.125043,65.904259
291,0.376793,-3.043290,9.394673,4.969337,0.191886,0.110286,-18.575781,-2.092080,65.865807
292,0.402575,-2.944679,9.243681,3.723370,-0.416855,0.509648,-18.431305,-2.092327,65.876823
293,0.424355,-2.981698,9.266456,0.826985,-0.194533,1.113533,-18.356520,-2.093454,65.905716
294,0.277179,-2.778010,9.204505,3.299551,1.867491,2.560038,-18.289530,-2.047729,65.955109
295,0.254843,-3.014915,9.121386,-1.403990,2.101066,2.399243,-18.259953,-1.959009,66.012886
296,0.210401,-2.931916,9.078330,-1.829010,1.384920,2.312112,-18.315720,-1.879185,66.069214
297,0.313513,-2.929615,9.194071,-0.864212,1.229325,6.159290,-18.364468,-1.793400,66.189583
298,0.187390,-3.087525,9.208900,-3.281826,2.207747,8.040557,-18.439814,-1.664356,66.396164
299,0.348718,-3.286906,9.214823,-5.923504,0.075806,7.613469,-18.599819,-1.545367,66.631546
300,0.463560,-3.009054,9.122869,-6.883882,-0.509087,8.112124,-18.819902,-1.468092,66.882126
301,0.410892,-3.285299,9.241735,-13.021050,-0.497180,8.334983,-19.158276,-1.394749,67.146866
302,0.482860,-3.407880,9.003527,-16.049894,-1.083616,3.160227,-19.647327,-1.355841,67.336334
303,0.562384,-3.194886,8.700565,-19.220165,-0.480080,2.475050,-20.237455,-1.348100,67.433449
304,0.587643,-3.340680,8.499763,-25.885727,-1.398741,1.132309,-20.990784,-1.356183,67.500778
305,0.697178,-3.818884,8.095448,-33.918713,-1.619523,-2.381724,-21.987448,-1.410532,67.499756
306,0.699554,-3.733562,7.516157,-37.489933,-1.019401,-3.470161,-23.175636,-1.488356,67.426498
307,0.468382,-3.863981,7.386703,-45.318104,1.166732,-3.759166,-24.552666,-1.534759,67.315331
308,0.609590,-4.326379,7.246222,-52.781681,-0.312860,-4.616953,-26.183790,-1.581645,67.183273
309,0.520547,-4.458466,7.240818,-55.468246,1.457211,-6.502517,-27.982597,-1.649077,67.009392
310,0.372239,-4.662775,7.593122,-53.905605,2.273544,-2.138165,-29.800505,-1.663915,66.853348
311,0.294727,-4.851672,7.976077,-50.317783,2.138011,-4.400530,-31.533331,-1.656682,66.722473
312,0.219923,-5.358323,8.076280,-44.691082,0.850225,-1.672778,-33.113171,-1.668445,66.610146
313,0.297555,-5.195580,8.086587,-35.823719,0.636582,-2.908831,-34.452564,-1.690606,66.532913
314,0.204110,-5.573802,7.993590,-30.181911,0.439951,0.311474,-35.551151,-1.700600,66.487045
315,0.031683,-5.491923,7.940262,-26.953337,1.165524,-1.845502,-36.502254,-1.694197,66.450752
316,0.166566,-5.962785,7.686775,-26.620056,1.040834,1.232267,-37.394192,-1.670797,66.420425
317,0.295277,-5.730087,7.455155,-23.872602,1.759500,-0.941673,-38.234982,-1.631123,66.395737
318,0.033964,-6.210689,7.630480,-25.552217,3.223223,0.817679,-39.057182,-1.567418,66.342201
319,0.247535,-6.257536,7.552764,-23.905182,2.494072,-0.477872,-39.879932,-1.490297,66.286110
320,-0.033829,-6.336609,7.599539,-23.183199,3.378843,-0.241551,-40.662853,-1.423329,66.213600
321,0.201386,-6.326081,7.698376,-21.769327,2.869861,-2.078935,-41.409641,-1.370144,66.116074
322,0.168442,-6.785310,7.774766,-22.531483,1.850391,-2.291693,-42.145390,-1.359940,66.009232
323,0.107322,-6.838277,7.536753,-21.090284,1.991583,-3.744970,-42.869576,-1.380752,65.891731
324,-0.289615,-6.915380,7.531297,-21.744827,3.962061,-4.126225,-43.579479,-1.398219,65.728073
325,0.336988,-7.187273,7.444970,-22.215805,3.196812,-4.808337,-44.307480,-1.415568,65.538078
326,-0.036754,-7.500357,7.211893,-23.358816,4.433666,-4.639414,-45.062000,-1.435883,65.336594
327,-0.072090,-7.575283,7.584019,-21.501505,5.998507,-4.209697,-45.803982,-1.418922,65.109215
328,0.292029,-7.592843,7.674175,-18.542509,5.116934,-4.443863,-46.465641,-1.394452,64.875725
329,0.277144,-7.858787,7.815151,-15.469678,4.948958,-4.369226,-47.027069,-1.386450,64.652802
330,0.097312,-7.967737,7.584875,-10.720873,4.822983,-2.694084,-47.458778,-1.362275,64.453247
331,0.077306,-7.723000,7.858325,-6.191006,4.508122,-1.054571,-47.737003,-1.303507,64.296280
332,0.113583,-7.650894,7.259918,-2.637307,2.805162,0.820100,-47.882114,-1.224519,64.203369
333,0.008915,-7.682515,7.352687,-1.801065,1.642564,2.342263,-47.955688,-1.135726,64.183678
334,0.149715,-7.673589,7.142655,0.072049,-0.063425,3.999365,-47.985493,-1.039605,64.234917
335,0.255863,-7.574450,7.149652,0.880603,-1.635118,3.497028,-47.971458,-0.965749,64.339607
336,0.294721,-8.045102,7.007334,-0.943966,-1.224113,3.691407,-47.974426,-0.908662,64.455246
337,0.321726,-8.110942,7.190659,-7.209894,0.194661,2.484878,-48.111565,-0.843569,64.536827
338,0.412018,-8.242868,7.995633,-15.899010,0.665940,1.398708,-48.497162,-0.785641,64.569145
339,0.664139,-8.577895,8.484444,-28.016176,0.974959,-0.225073,-49.228966,-0.752871,64.561371
340,0.419153,-9.082552,9.228412,-37.347092,3.258429,0.175553,-50.317581,-0.707877,64.506889
341,0.424767,-9.015204,9.494907,-40.829681,3.970064,-0.049302,-51.619297,-0.630303,64.414726
342,0.308023,-9.708153,9.090119,-41.954517,4.198492,2.371477,-52.997982,-0.516415,64.330673
343,0.039313,-10.040517,8.047048,-34.082264,6.308949,9.093640,-54.264904,-0.258880,64.303177
344,-0.121012,-9.756383,7.585809,-18.455292,8.782766,14.709782,-55.140499,0.210015,64.327896
345,-0.240158,-9.711334,6.379241,-5.493848,7.763051,17.599741,-55.538933,0.809645,64.408226
346,-0.643904,-9.445653,5.924955,10.762708,5.234172,21.785480,-55.447353,1.473120,64.602234
347,-0.272657,-8.837141,5.901954,38.212124,3.012152,19.881403,-54.622337,2.120735,64.888458
348,-0.111825,-8.438053,5.136341,54.931614,3.878596,13.931160,-53.060223,2.642835,65.129860
349,-0.632000,-7.745835,4.903685,64.726860,-0.021140,13.244231,-51.054993,3.038608,65.358940
350,-0.442163,-6.565744,4.965712,79.650787,-2.411809,9.155246,-48.634689,3.297848,65.631668
351,0.289297,-6.040823,5.189603,82.953087,-2.030557,0.822628,-45.916382,3.369230,65.800133
352,-0.111850,-5.494884,4.797371,65.688599,0.013965,2.195228,-43.436974,3.379418,65.860703
353,-0.437998,-4.678467,5.330846,56.051758,-2.223467,-0.133704,-41.405910,3.375405,65.910507
354,-0.064304,-4.193166,5.052712,51.108402,-3.210731,-6.278195,-39.621727,3.237160,65.888542
355,-0.167995,-4.215932,5.178014,41.589676,-3.000843,-6.391393,-38.082584,3.023578,65.789574
356,-0.177510,-4.051920,4.819929,33.750771,-3.991275,-6.346189,-36.832092,2.801899,65.691948
357,-0.095543,-3.816833,6.181219,41.606266,-6.643470,-9.172334,-35.581089,2.506141,65.588043
358,-0.077720,-4.398968,6.453790,40.500832,-5.685278,-11.370305,-34.219452,2.141781,65.424889
359,0.110777,-4.639354,7.562174,37.427811,-4.313005,-12.255663,-32.928989,1.785001,65.188950
360,-0.166420,-4.751186,8.147385,32.351372,-1.829678,-11.950603,-31.774374,1.482482,64.902855
361,-0.369445,-4.718549,8.802773,26.939312,-1.958628,-7.285488,-30.792152,1.261878,64.661530
362,-0.527207,-4.956332,8.308575,14.852865,0.063425,-4.202741,-30.098764,1.137834,64.512360
363,-0.270043,-4.607100,8.757080,15.425920,-2.021427,2.392843,-29.594353,1.094473,64.502380
364,-0.448152,-4.826420,8.617590,8.277848,-0.308424,5.973303,-29.196554,1.129331,64.642906
365,-0.180825,-4.985870,8.043557,8.333550,-4.199173,5.664391,-28.915562,1.157998,64.848877
366,-0.278860,-4.910707,7.957853,8.399218,-4.025898,3.226277,-28.632862,1.109198,65.044838
367,-0.207531,-4.824193,8.442282,7.214711,-4.621457,1.578479,-28.370071,1.020710,65.184036
368,-0.257567,-4.805932,8.444464,7.666278,-3.040104,0.656370,-28.120491,0.925838,65.277313
369,-0.393157,-4.809324,8.192692,7.922913,-2.805818,0.170533,-27.859783,0.846242,65.335205
370,-0.112921,-4.670274,8.797434,0.480975,-3.888762,-0.547073,-27.719074,0.744597,65.381676
371,-0.312155,-4.960717,8.748465,-2.211395,-1.769194,1.224602,-27.747259,0.666409,65.435631
372,-0.173009,-4.737023,8.363294,-7.388279,-1.073321,1.263191,-27.906563,0.643877,65.494415
373,-0.261040,-4.813820,8.136415,-9.713023,-2.246104,2.342754,-28.190712,0.623338,65.573509
374,-0.156741,-4.435273,7.874489,-14.035814,-4.045482,3.095149,-28.585163,0.574158,65.703079
375,0.093750,-4.515830,7.429747,-17.359221,-5.471295,3.000275,-29.106884,0.484237,65.868576
376,0.414847,-3.958585,6.539664,-20.409561,-5.614059,-0.799363,-29.735476,0.341348,65.991257
377,0.198611,-4.477290,6.684686,-27.259506,-4.321297,0.621197,-30.529602,0.196828,66.071739
378,0.421374,-4.178470,6.279167,-27.461102,-2.668424,-3.653948,-31.441500,0.070953,66.088562
379,0.652503,-4.796690,6.567380,-35.508789,-0.532868,-8.002491,-32.490952,-0.076852,65.951935
380,0.330424,-5.279397,7.315802,-41.954231,2.580612,-9.566666,-33.781254,-0.208031,65.688171
381,-0.241109,-5.865431,8.150798,-42.619152,3.247888,-7.859259,-35.189358,-0.292217,65.394035
383,0.386158,-5.453703,7.909851,-37.103493,3.459814,-11.913960,-36.515888,-0.394721,65.061668
384,-0.212452,-5.988298,7.889873,-40.648815,5.150436,-9.995290,-37.808586,-0.500463,64.683769
385,-0.275108,-5.803597,7.641637,-35.689472,3.954838,-7.338416,-39.077801,-0.561353,64.363457
386,-0.148656,-5.769969,6.917706,-30.948771,2.950431,-5.508434,-40.185867,-0.609428,64.125221
387,0.145655,-5.747304,6.620411,-30.113169,1.478821,-3.995044,-41.201607,-0.656807,63.957012
388,-0.487856,-6.347878,6.343766,-34.106972,-0.154334,1.826505,-42.271355,-0.664539,63.915344
389,0.392941,-6.594324,6.543365,-32.978554,-5.164625,3.900261,-43.390850,-0.665093,64.045815
390,0.333681,-6.695065,6.579398,-30.607414,-4.760005,5.992889,-44.453251,-0.670272,64.279144
391,0.078996,-6.913414,6.573720,-31.616190,-4.919624,8.883509,-45.493416,-0.609300,64.568687
392,0.360522,-7.101920,6.929688,-30.714926,-6.516695,9.435787,-46.535583,-0.522136,64.917992
393,0.463691,-7.079944,6.944765,-28.875853,-7.437395,9.927206,-47.531986,-0.444643,65.308052
394,0.000335,-7.350168,7.117139,-26.535320,-5.836015,10.484424,-48.458130,-0.340028,65.700073
395,-0.218218,-7.694952,7.021793,-23.743237,-6.201178,12.351431,-49.297836,-0.185279,66.101593
396,-0.275403,-7.901659,7.144752,-20.175558,-5.966619,11.799773,-50.030464,-0.009902,66.516792
397,-0.353503,-8.313520,6.974628,-16.557678,-5.047760,11.768902,-50.642078,0.175225,66.908836
398,-0.354197,-8.973136,7.252345,-10.745444,-4.063137,9.212154,-51.095543,0.350570,67.247383
399,-0.267442,-8.863423,6.837207,-2.672662,-3.538446,6.527496,-51.317276,0.475586,67.510506
400,-0.100089,-9.146564,6.865366,-1.312296,-2.164913,2.419788,-51.382240,0.532558,67.677933
401,-0.254755,-9.028872,6.808782,3.020157,0.322594,-0.980985,-51.353416,0.532122,67.716888
402,0.107995,-9.004084,6.680705,4.070268,2.587697,-7.439314,-51.236332,0.452915,67.591278
403,-0.099410,-8.506362,6.557086,3.467205,7.274914,-10.561439,-51.112843,0.322204,67.275139
404,0.094469,-8.428869,7.030865,0.650267,9.504159,-11.776100,-51.046371,0.208176,66.823677
405,0.081606,-8.474467,6.985428,1.716755,9.686375,-10.500291,-51.008350,0.120594,66.341545
406,0.123930,-8.483653,7.190349,2.966213,8.952917,-9.195006,-50.931038,0.061272,65.893494
407,-0.058614,-8.630222,7.301856,0.891522,6.486922,-4.153017,-50.867092,0.050972,65.553490
408,0.476167,-8.504910,8.027654,-5.285378,2.070290,-4.086040,-50.940529,0.034311,65.356209
409,0.123903,-8.955919,8.375628,-13.557580,0.453920,-5.094377,-51.254501,-0.058444,65.227371
410,0.275665,-8.653096,9.120572,-17.096590,0.340003,-7.054351,-51.765064,-0.208782,65.091019
411,0.533568,-8.820324,9.353271,-14.276858,1.634594,-4.939635,-52.287212,-0.346101,64.942055
412,0.156546,-8.964608,9.491128,-6.684533,3.871521,0.369648,-52.635864,-0.350563,64.822945
413,-0.199873,-9.011644,8.499664,4.023911,3.843087,10.366956,-52.680286,-0.130277,64.829407
414,-0.007710,-9.460585,7.653812,9.054679,-0.660895,20.802799,-52.461967,0.314462,65.103226
415,-0.347887,-9.290161,6.490540,25.915205,-3.016223,28.675329,-51.873344,0.928205,65.657494
416,-0.713479,-9.350366,5.183947,28.190063,-7.850515,35.709988,-50.953499,1.653559,66.468994
417,-0.464325,-8.845779,4.604180,31.599087,-6.813761,34.701550,-49.924297,2.402889,67.405197
418,-0.341294,-8.957873,4.970109,31.700996,-5.572271,32.512165,-48.826679,3.118245,68.292274
419,-0.697762,-8.007072,4.804529,53.283928,-3.597602,26.349304,-47.364330,3.745970,69.062477
420,-0.250143,-7.657479,4.793640,57.589561,-5.565663,16.387938,-45.475239,4.154720,69.666649
421,0.096040,-6.278584,5.541049,60.589539,-5.904715,6.977357,-43.475948,4.290108,70.080650
422,-0.293671,-5.917718,5.502287,51.945095,-8.867928,3.952626,-41.578659,4.230751,70.382996
423,-0.280692,-5.122967,4.922379,51.590565,-11.241879,-2.427931,-39.836494,3.993455,70.622009
424,-0.020330,-4.502735,5.066885,41.630665,-12.861683,-7.974088,-38.275463,3.571944,70.741470
425,-0.006593,-4.177962,5.562847,33.073204,-11.897622,-10.531346,-37.030270,3.056621,70.750206
426,0.130177,-5.105076,5.941289,31.893950,-11.367377,-14.089643,-35.952526,2.500695,70.651192
427,0.165751,-4.791187,6.148105,43.626900,-8.133111,-17.720192,-34.703560,1.928788,70.406616
428,0.039007,-4.647354,7.072736,48.667961,-5.757661,-19.562859,-33.177002,1.389680,70.019737
429,-0.081406,-4.712297,8.285849,50.661556,-2.048427,-22.052431,-31.532400,0.908566,69.503189
430,-0.497805,-4.845821,8.997280,58.472633,0.220503,-20.278435,-29.721575,0.522649,68.911446
431,-0.831483,-4.575096,9.267388,61.324387,2.610671,-21.136183,-27.729868,0.232803,68.283127
432,-0.533064,-4.044555,9.480999,61.367962,-1.110158,-14.968046,-25.686903,-0.015333,67.734299
433,-0.455210,-4.349658,9.288994,56.656281,-4.695505,-7.248074,-23.719677,-0.256813,67.438591
434,-0.147398,-4.038584,8.499984,46.621433,-8.886742,4.560148,-21.999052,-0.481621,67.485374
435,0.219984,-3.522262,8.366989,30.230610,-10.685502,12.991793,-20.722216,-0.677225,67.876694
436,0.668402,-2.866610,8.400949,17.779587,-12.474074,18.598366,-19.930378,-0.855015,68.504616
437,0.659360,-3.048326,8.723915,4.741432,-10.388656,12.401525,-19.565138,-1.038158,69.119835
438,0.677480,-2.058007,9.100311,4.464780,-4.820002,5.698755,-19.418930,-1.176042,69.489029
439,0.539907,-1.731502,9.067531,8.657568,1.615740,-3.032386,-19.201471,-1.211831,69.548615
440,0.205996,-1.665694,8.886229,15.576919,5.091091,-9.995416,-18.792538,-1.177000,69.306801
441,-0.248430,-1.579311,8.917548,24.224710,7.306322,-12.084901,-18.120966,-1.097620,68.892235
442,-0.299148,-1.665736,9.082038,30.295801,7.525677,-11.066879,-17.204351,-0.979025,68.449509
443,-0.389841,-2.279120,9.072424,31.414421,6.300625,-10.227120,-16.169447,-0.859955,68.043396
444,-0.578334,-2.365337,9.700397,29.797384,4.680627,-5.799375,-15.145012,-0.755707,67.736893
445,-0.218072,-2.666895,9.932614,22.054226,2.508546,-3.551473,-14.278650,-0.679089,67.555756
446,-0.257298,-2.769410,9.807301,11.596383,1.452217,-1.708937,-13.716670,-0.636176,67.454773
447,-0.114242,-2.711933,9.729146,2.722724,-0.205810,-0.672376,-13.477545,-0.625310,67.411293
448,-0.140702,-2.323330,9.583398,-3.859202,-0.776845,0.668162,-13.496526,-0.641256,67.415062
449,0.311732,-2.500118,9.358124,-9.903097,-2.184961,1.698514,-13.726473,-0.679950,67.465027
450,-0.054333,-2.331044,9.271194,-11.800432,-1.205342,1.767118,-14.089046,-0.720915,67.534676
451,0.412973,-2.247174,9.303699,-11.682700,-2.192684,2.332408,-14.481461,-0.758924,67.614906
452,0.102232,-2.326678,9.470926,-12.066510,-0.503525,2.437089,-14.878463,-0.782271,67.703171
453,0.438321,-2.607348,9.423212,-11.863118,-1.440401,1.380915,-15.278240,-0.796989,67.773102
454,-0.054835,-2.364092,9.425507,-10.979396,0.164117,0.181203,-15.659380,-0.810523,67.803825
455,0.219973,-2.681223,9.407735,-12.954159,-0.997234,2.388122,-16.058903,-0.812135,67.848846
456,0.059662,-2.613002,9.179688,-13.342929,-0.169075,0.202861,-16.497852,-0.818754,67.895744
457,-0.093641,-2.650316,9.036850,-14.812510,0.126365,2.661376,-16.967754,-0.805617,67.941681
458,0.479086,-2.936738,8.815339,-16.044678,-2.158826,4.031497,-17.483671,-0.805010,68.058296
459,0.674591,-3.223068,8.301876,-18.903095,-0.267100,0.718527,-18.067373,-0.819407,68.145966
460,-0.050124,-3.101719,8.347249,-23.571011,2.406425,0.657988,-18.775400,-0.778154,68.156502
461,0.073479,-3.284662,8.428004,-27.291401,0.215806,-2.933201,-19.622395,-0.749303,68.106438
462,0.792102,-3.322643,8.100953,-31.068142,-1.873667,-8.022851,-20.592724,-0.837870,67.944244
463,-0.199454,-3.437749,8.418348,-36.424809,2.322347,-7.503038,-21.713734,-0.924027,67.699974
464,-0.423464,-3.262379,8.631984,-37.987900,-0.013940,-4.770056,-22.950518,-0.966163,67.496506
465,0.394355,-3.897016,8.440074,-39.702061,-2.949319,-6.763860,-24.242346,-1.088684,67.340027
466,0.162137,-3.984022,8.110948,-38.855286,0.172859,-1.846195,-25.549208,-1.191014,67.229034
467,-0.270684,-4.387974,8.164167,-39.276539,1.595350,1.952716,-26.851017,-1.164075,67.218079
468,0.019575,-4.620391,7.797503,-38.204762,-0.429987,2.601270,-28.143360,-1.112067,67.276726
469,0.394708,-5.398600,7.860230,-36.632805,-1.636233,1.009398,-29.391846,-1.113441,67.345932
470,0.057092,-5.369217,7.723290,-28.619434,0.890476,3.625561,-30.480656,-1.085601,67.418900
471,-0.144183,-5.537169,7.756061,-21.819340,2.691836,3.039666,-31.322388,-0.977448,67.483856
472,-0.060444,-5.859647,8.033077,-15.515758,3.365824,2.149751,-31.944920,-0.846072,67.504684
473,-0.054190,-5.461992,7.691362,-8.444304,3.763709,-2.219025,-32.343342,-0.746035,67.440544
474,-0.536267,-5.349864,7.600051,-9.435199,6.098028,-1.514136,-32.639587,-0.640679,67.299759
475,-0.329522,-5.244616,7.488357,-14.845445,5.349470,-5.373522,-33.042217,-0.542630,67.099876
476,-0.134530,-5.495176,7.692272,-25.481035,4.097219,-6.647609,-33.711891,-0.521374,66.845833
477,-0.231697,-5.394357,7.493373,-32.171173,3.966547,-7.414673,-34.670170,-0.542091,66.576340
478,-0.236218,-5.832164,7.965477,-39.718155,5.341370,-5.871802,-35.865635,-0.543384,66.305962
480,-0.087539,-6.028755,7.887655,-37.837200,5.892035,-4.431291,-37.155838,-0.495267,66.056763
481,0.198083,-6.083833,7.783670,-34.037136,5.483675,-2.718583,-38.351929,-0.418377,65.846619
482,0.131982,-6.339723,7.515552,-30.143925,5.549373,-0.699413,-39.420502,-0.311094,65.686958
483,0.204146,-6.500002,7.531695,-26.219200,5.606609,0.175598,-40.359295,-0.174117,65.561157
484,0.239346,-6.557718,7.029612,-21.235249,3.840265,1.054231,-41.150002,-0.041480,65.473991
485,0.284813,-6.748839,7.424202,-21.650537,3.147449,-0.168424,-41.864750,0.055442,65.407875
486,-0.115339,-6.957498,7.387423,-20.124298,4.506909,0.851134,-42.561100,0.157591,65.330521
487,-0.217374,-7.251669,7.710529,-17.979725,4.395303,1.323135,-43.196438,0.290988,65.256218
488,-0.246415,-7.249088,7.641913,-13.780993,2.721156,1.431587,-43.726074,0.408647,65.207993
489,-0.353780,-7.581351,8.160829,-11.340637,2.301838,1.507067,-44.144947,0.502883,65.185173
490,-0.307368,-7.455494,7.785289,-5.307091,1.469580,1.355220,-44.422497,0.581181,65.175446
491,-0.364534,-7.775357,8.140239,-3.897407,1.038089,-0.257794,-44.576073,0.623803,65.159210
492,0.050727,-7.513780,7.927126,0.009366,0.578101,-1.456445,-44.641293,0.622926,65.119934
493,0.050532,-7.546349,7.845739,1.083904,1.314524,-1.983222,-44.623745,0.605110,65.056969
494,0.031693,-7.240288,7.590424,3.204063,2.011144,-0.833476,-44.553047,0.611631,64.984619
495,-0.008397,-7.339795,7.583301,2.215434,0.683657,1.189428,-44.463032,0.647833,64.957359
496,0.077637,-7.287528,7.413747,3.251157,-1.711522,3.269744,-44.371170,0.687624,65.022430
497,0.002108,-7.945907,7.402463,1.828439,-3.844774,4.048616,-44.284668,0.706623,65.174408
498,0.373737,-7.877573,7.844422,-5.124836,-6.552407,2.377209,-44.337269,0.657470,65.372108
499,0.426252,-7.868700,9.072188,-21.884830,-8.214647,0.134406,-44.785408,0.511579,65.574654
500,0.351026,-8.131047,9.835662,-34.031948,-7.112842,-0.677573,-45.716080,0.325576,65.749786
501,0.432851,-8.403698,10.847352,-35.027176,-5.366789,-2.318663,-46.866497,0.146030,65.865776
502,-0.080448,-7.962354,10.889548,-28.656698,-4.704079,0.650894,-47.927670,0.012178,65.970512
503,-0.374052,-8.438179,10.056274,-24.351421,-3.766053,9.290997,-48.810917,0.042081,66.186226
504,-0.354710,-8.888051,9.148966,-2.117517,-1.435512,17.467037,-49.250805,0.321577,66.544533
505,-0.313885,-8.853339,8.025459,21.548763,-4.318504,21.818180,-48.922123,0.752859,67.046524
506,-0.607278,-8.887198,6.203400,26.259478,-5.524434,29.046488,-48.113316,1.278504,67.731705
507,-0.172842,-8.538484,5.425155,30.446960,-5.612107,25.125538,-47.148129,1.820499,68.477356
508,-0.520832,-8.352470,5.297423,37.121758,-1.841020,23.047329,-45.998981,2.317719,69.120171
509,-0.397473,-7.944341,4.664385,32.638023,-2.124789,17.648434,-44.813110,2.753572,69.643982
510,-0.449585,-7.217015,4.766701,30.539949,0.072113,11.510730,-43.741402,3.068177,70.016434
511,-0.262139,-6.141552,5.274788,45.668812,-0.383813,2.894985,-42.461491,3.228014,70.195686
512,-0.397020,-5.739799,5.751245,48.043201,-0.284064,1.278331,-40.896484,3.265177,70.255852
513,-0.222901,-4.959117,5.977079,49.864395,-2.361795,-5.764956,-39.266655,3.183141,70.227104
514,-0.419492,-4.380802,5.983973,50.806465,-2.842730,-9.424058,-37.596901,2.957397,70.083244
515,-0.462949,-4.255598,6.084355,45.080883,-1.485247,-8.924758,-36.009140,2.716184,69.881683
516,-0.366964,-4.211525,5.880297,30.296246,-2.375515,-9.905254,-34.763058,2.481902,69.662849
517,-0.308916,-4.326741,5.550357,23.595518,-3.168839,-13.415709,-33.875885,2.186210,69.394104
518,-0.549474,-4.079731,5.717977,18.693174,-4.865610,-12.532151,-33.181171,1.835440,69.107719
519,-0.393140,-4.276167,6.571415,16.271595,-6.472083,-11.621902,-32.605156,1.458150,68.872406
520,-0.177845,-4.263972,6.849195,15.202665,-7.186520,-14.530869,-32.085903,1.032666,68.626015
521,-0.370703,-4.559808,7.503847,16.000263,-6.198052,-12.452150,-31.569675,0.605887,68.361656
522,-0.173199,-4.489842,8.716991,17.752642,-5.904794,-11.681368,-31.008875,0.224692,68.122604
523,0.116245,-4.923306,9.088495,27.484358,-2.905819,-10.853032,-30.255243,-0.092953,67.874207
524,-0.091883,-4.795858,8.467209,33.486538,-0.028510,-10.483474,-29.238197,-0.311698,67.589355
525,-0.092378,-4.914441,8.672934,32.977283,0.516815,-7.038255,-28.128935,-0.444659,67.328987
526,0.110035,-4.507158,8.830381,29.387491,1.073372,-4.525255,-27.088116,-0.510261,67.145782
527,-0.114449,-4.374547,8.463648,25.704033,3.165608,-1.230280,-26.168985,-0.489994,67.028267
528,-0.029714,-4.018300,8.533162,17.306196,2.842730,-0.322599,-25.451696,-0.411014,66.961143
529,-0.078324,-3.954778,9.036796,16.727516,3.967536,2.132992,-24.884369,-0.295447,66.940140
530,-0.149808,-3.670783,9.069661,18.325905,3.874211,3.242648,-24.300278,-0.139256,66.967110
531,-0.132709,-3.785516,8.923588,14.133288,3.535965,2.235259,-23.759359,0.010758,67.000214
532,-0.205441,-3.694902,8.932541,8.126916,1.684034,3.151453,-23.388302,0.126380,67.047684
533,-0.275218,-3.798113,8.943204,5.225667,0.088023,4.641338,-23.165468,0.204898,67.155312
534,-0.072028,-3.916498,8.865828,-0.356564,-1.645208,5.694659,-23.083666,0.248739,67.323914
535,0.200458,-3.969423,8.739066,-3.529332,-5.607353,3.048941,-23.147749,0.194857,67.505394
536,0.191888,-3.972332,8.746147,-5.549579,-5.042705,2.253568,-23.298784,0.066633,67.656601
537,0.229417,-3.981676,8.806137,-4.261552,-2.552795,2.273866,-23.462259,-0.019586,67.776115
538,0.317788,-3.738848,8.585811,-5.351384,-2.291194,1.512056,-23.622528,-0.068395,67.866226
539,0.069908,-3.601533,8.121999,-8.566472,-1.512846,-0.007757,-23.854574,-0.116321,67.914711
540,-0.065829,-3.790908,7.717862,-18.214354,-2.001683,1.852801,-24.301048,-0.157215,67.966698
541,-0.007459,-4.126579,7.467371,-25.652735,-2.933987,0.297801,-25.032358,-0.217032,68.033630
542,-0.028069,-4.233746,7.071035,-29.392696,-2.582023,0.680670,-25.949984,-0.292903,68.087868
543,-0.243775,-4.687456,7.053238,-35.354347,-2.202899,1.534308,-27.029396,-0.347805,68.156525
544,0.358237,-4.908394,7.505715,-36.261600,-2.554240,-2.398920,-28.223024,-0.424740,68.180595
545,0.298956,-5.261054,8.394046,-29.349154,1.672111,-3.024131,-29.315863,-0.480833,68.108269
546,0.101018,-4.795392,8.405275,-22.224531,3.862975,-0.191983,-30.174650,-0.427091,68.016205
547,0.333659,-5.362800,8.952960,-24.437330,4.075355,-2.041051,-30.951675,-0.332131,67.917130
548,0.487639,-5.139942,8.946317,-18.776627,6.392945,-4.111937,-31.670969,-0.236289,67.738785
549,-0.250497,-5.233810,8.618994,-18.886196,8.072934,2.424052,-32.298279,-0.046469,67.587311
550,-0.241651,-4.982731,7.924475,-23.712267,5.235428,2.861396,-33.008392,0.187585,67.542023
551,-0.119321,-5.278950,7.851348,-28.276001,3.517987,1.603556,-33.874935,0.350206,67.523529
552,-0.468555,-4.957620,7.164026,-28.073772,1.871986,5.492684,-34.813686,0.491090,67.570305
553,-0.284011,-5.331862,6.691540,-32.935360,-1.795470,5.134649,-35.829105,0.594241,67.714149
554,0.160633,-5.393920,6.197137,-32.177158,-2.313434,1.282460,-36.912937,0.602434,67.840599
555,0.016621,-5.412003,6.252528,-33.292835,-1.721236,1.447855,-38.003231,0.576942,67.917397
556,-0.039645,-5.772292,6.362124,-36.819096,-1.781416,0.896495,-39.170986,0.555706,67.984398
557,0.050244,-6.195622,6.883023,-36.020630,-0.788413,-0.921842,-40.384586,0.522573,68.011444
558,-0.180686,-6.275542,7.393806,-30.765865,2.607800,-0.873890,-41.497955,0.526046,67.968910
559,-0.503546,-6.562088,8.000527,-29.466015,4.689479,0.089957,-42.502628,0.607878,67.878036
560,-0.354353,-6.823716,7.755248,-24.066500,7.046336,-2.374395,-43.396656,0.725152,67.717079
561,-0.401833,-7.156348,7.817462,-19.166262,8.727733,-1.716188,-44.120338,0.868160,67.486046
562,-0.275108,-7.334586,7.389622,-16.159973,9.018666,-3.201301,-44.713478,1.022173,67.220612
563,-0.493036,-7.618637,7.171595,-17.472176,8.937249,-0.684226,-45.278942,1.188118,66.963188
564,-0.162277,-7.644739,7.127769,-17.646587,6.435247,-0.976514,-45.868759,1.347587,66.760849
565,-0.507681,-8.104941,7.389127,-18.707630,4.971101,2.245199,-46.477669,1.494408,66.638214
566,-0.349104,-7.942984,7.466337,-15.153692,3.486761,1.910426,-47.043568,1.641271,66.582993
567,-0.433933,-8.164561,7.754521,-14.174412,2.597030,4.018318,-47.532589,1.782627,66.575500
568,-0.271676,-7.976153,7.978388,-8.949309,0.946164,1.875102,-47.917282,1.894955,66.597939
569,-0.661865,-8.417417,8.072234,-5.503998,0.266073,3.839900,-48.156521,1.979286,66.646591
570,-0.235677,-8.151346,8.126463,-0.041845,-1.672231,2.305860,-48.245953,2.039982,66.732430
571,-0.265874,-8.057499,7.980009,2.627619,-1.646036,1.327513,-48.199959,2.048260,66.814079
572,-0.328965,-7.944316,7.774951,4.785538,-0.279467,0.404726,-48.074871,2.048327,66.857285
573,-0.210693,-8.387184,7.745714,3.714929,0.163206,0.102316,-47.932934,2.053290,66.864372
574,0.145845,-8.331717,7.662039,1.294243,-0.692609,-2.496600,-47.850170,2.017766,66.844154
575,0.099681,-7.837976,8.676728,-6.443734,-2.010927,-4.477457,-47.937511,1.901310,66.799644
576,-0.229685,-8.046294,9.676469,-11.471797,-4.136057,-1.880344,-48.235920,1.753997,66.805153
577,-0.264515,-8.115549,10.211632,-6.672949,-5.669143,3.148885,-48.534233,1.661207,66.941498
578,-0.302770,-8.250623,10.476599,2.382917,-8.657448,9.335392,-48.596497,1.659044,67.258362
579,-0.994548,-8.049825,10.171000,22.688927,-8.694584,19.006166,-48.162476,1.819831,67.788536
580,-1.346614,-9.210029,8.325317,42.815212,-9.007906,28.488852,-47.044205,2.204858,68.540550
581,-0.383527,-9.185770,7.079388,64.060791,-9.196775,26.060949,-45.227131,2.649410,69.389847
583,-0.361739,-8.412391,6.312067,65.020416,-8.779385,21.497353,-43.038364,2.984617,70.168823
584,0.112735,-7.731936,5.413393,58.566315,-6.722969,8.130234,-40.950703,3.122253,70.709610
585,0.337377,-7.452046,5.481887,41.223232,-2.599739,-0.801172,-39.277733,3.080663,70.904320
586,0.306442,-6.006166,6.152888,38.144917,-1.060822,-10.499268,-37.960941,2.914556,70.795448
587,-0.761775,-5.252549,6.403000,30.961317,2.210433,-8.882401,-36.822598,2.732789,70.527359
588,-0.299856,-4.651339,6.622907,32.977161,-1.039879,-8.010014,-35.768223,2.581677,70.288460
589,-0.959960,-4.255550,6.947052,30.497612,-0.185049,3.386771,-34.712627,2.520791,70.237419
590,-0.633928,-4.148998,7.268435,31.982010,-6.434916,7.125542,-33.662277,2.528647,70.443985
591,-0.319724,-3.778292,7.415103,31.398071,-8.092722,8.238081,-32.590965,2.466292,70.791290
592,0.023358,-3.812970,7.697360,26.972837,-9.418848,8.607606,-31.601633,2.368384,71.184586
593,-0.139815,-4.214652,7.872715,24.156013,-7.387547,3.598285,-30.736752,2.234210,71.503952
594,-0.292070,-4.224650,8.668906,31.886419,-8.235559,-0.810906,-29.796459,2.032483,71.675507
595,-0.123100,-3.306231,8.866732,43.159058,-5.846401,-10.069331,-28.547352,1.738869,71.631630
596,-0.312011,-3.593358,8.898799,42.261604,-3.930481,-9.242387,-27.129875,1.443727,71.423019
597,-0.161369,-3.502332,9.074601,45.033310,-3.402236,-10.011700,-25.680618,1.191581,71.189743
598,-0.561001,-3.087688,9.030955,48.313400,-0.536478,-9.313636,-24.130205,0.996400,70.925194
599,-0.155029,-2.705024,8.546623,46.661873,-1.084905,-9.526044,-22.552149,0.847226,70.647255
600,-0.704753,-3.078847,8.110580,38.456226,0.188117,-3.608073,-21.136543,0.751897,70.449745
601,-0.516830,-3.224545,8.097822,35.346859,-1.263186,-3.102513,-19.907942,0.696321,70.351013
602,-0.883501,-2.869787,8.020812,30.742346,0.020825,-3.896382,-18.807772,0.638194,70.247955
603,-0.729496,-2.918561,8.217367,26.191343,-3.162504,0.307470,-17.859402,0.569553,70.207588
604,-1.007044,-3.110305,8.336173,20.245964,-2.123359,0.452465,-17.085110,0.489658,70.246262
605,-0.395093,-2.842319,9.116782,15.443663,-5.273553,-2.826550,-16.490324,0.360214,70.243973
606,-0.545032,-2.526994,9.489173,14.797994,-3.784323,-1.932415,-15.986491,0.192998,70.210251
607,-0.307970,-2.700134,9.444954,11.181400,-4.889797,-2.344969,-15.553569,0.034514,70.180878
608,-0.069137,-2.795428,9.529161,7.135929,-4.535822,-4.873354,-15.248210,-0.148896,70.106697
609,0.191173,-2.492757,9.595720,8.751171,-6.435559,-3.896025,-14.983042,-0.363615,70.013344
610,-0.066251,-2.329388,9.426664,11.372251,-1.151435,-0.351142,-14.647347,-0.503921,69.977242
611,-0.021423,-2.511867,9.286313,4.629311,-1.333781,0.095989,-14.380707,-0.545026,69.983330
612,0.125392,-2.295165,9.335107,5.960292,-2.592630,2.260828,-14.204753,-0.598731,70.037560
613,-0.178560,-2.075826,9.682755,7.652812,2.479011,5.811359,-13.979196,-0.567785,70.168526
614,-0.181671,-2.044838,9.915677,3.301765,-0.732703,6.462818,-13.798341,-0.490406,70.360062
615,-0.132265,-2.385338,10.222841,2.965476,-1.459669,8.061259,-13.695976,-0.468295,70.603897
616,-0.142787,-1.907570,10.559545,8.870329,-3.154189,7.070781,-13.500907,-0.483721,70.867104
617,-0.076886,-2.165003,10.393963,10.924477,-4.490571,6.671103,-13.173320,-0.554985,71.119377
618,0.051410,-2.291533,10.237403,11.126751,-4.559671,4.581173,-12.808128,-0.659842,71.336060
619,0.075676,-2.248236,9.882983,8.953903,-4.331011,3.504888,-12.475533,-0.774989,71.500031
620,0.191694,-2.000041,9.148360,4.565173,-3.779485,0.329325,-12.251555,-0.893346,71.591408
621,0.370775,-2.209457,8.796616,-7.803673,-1.924353,-2.433181,-12.305331,-0.993716,71.577408
622,-0.025773,-1.735725,8.840855,-12.687522,1.672210,-5.300340,-12.644670,-1.025662,71.452530
623,0.094013,-1.738745,8.542984,-15.930651,0.826657,-6.103445,-13.118183,-1.027388,71.258026
624,0.168345,-1.984500,8.934610,-17.697895,1.889820,-8.726664,-13.674104,-1.040636,71.007027
625,-0.099068,-1.946448,9.338173,-15.074399,3.300722,-8.417966,-14.214926,-1.025454,70.708839
626,-0.194765,-2.080467,9.543893,-12.139663,3.708024,-6.590254,-14.663775,-0.974645,70.437500
627,-0.076740,-2.608050,9.719825,-12.761797,3.061203,-4.358601,-15.075432,-0.912428,70.232193
628,0.026036,-2.551963,9.788317,-13.388315,2.812150,-2.979378,-15.509059,-0.850342,70.088379
629,-0.164837,-2.549684,9.651814,-15.077743,2.999551,0.475305,-15.982553,-0.768493,70.021935
630,0.121808,-2.753384,9.206328,-18.994652,0.623266,2.493778,-16.550831,-0.696791,70.052551
631,0.336293,-2.887599,8.776001,-24.162554,0.046491,0.959728,-17.270727,-0.669470,70.104286
632,0.403891,-2.961700,8.373477,-28.426243,0.375250,1.049498,-18.147509,-0.652502,70.133987
633,0.310827,-3.245767,7.552794,-32.649937,0.214026,-0.082165,-19.165508,-0.638031,70.146126
634,0.505667,-3.408811,6.894428,-38.921310,-0.366599,-3.451725,-20.357626,-0.660257,70.091515
635,0.828928,-3.455055,7.225396,-43.274330,0.585169,-9.014761,-21.724995,-0.731216,69.896149
636,0.333542,-3.567631,7.462736,-46.293961,3.436509,-8.345863,-23.213697,-0.779363,69.603088
637,0.250871,-3.983448,8.134007,-46.985195,2.697409,-9.877749,-24.763691,-0.809441,69.284409
638,-0.045246,-3.645141,9.630388,-41.057156,5.830512,-11.233829,-26.225311,-0.832484,68.905533
639,-0.156630,-3.965279,10.670737,-35.449226,5.829952,-9.793468,-27.494509,-0.817009,68.505341
640,-0.527308,-4.614929,10.481278,-22.760805,7.560944,-7.372325,-28.459665,-0.754082,68.148048
641,-0.276207,-4.485113,9.943632,-11.133435,6.513552,-8.626373,-29.020288,-0.676383,67.801720
642,-0.282177,-4.280620,9.437539,-8.747896,7.612683,-9.907602,-29.347239,-0.621138,67.417213
643,-0.082143,-5.107660,8.505589,-11.891231,5.135905,-9.756503,-29.687075,-0.597602,67.027336
644,0.077368,-4.915713,7.120812,-10.047665,4.401569,-11.117650,-30.048567,-0.633137,66.646408
645,0.425838,-4.610811,6.370633,-19.712063,1.556032,-12.215886,-30.539877,-0.743501,66.260475
646,0.206314,-4.966235,6.372178,-29.425436,2.927124,-11.290915,-31.353411,-0.881167,65.886009
647,0.285336,-5.329988,5.789060,-34.186138,0.892992,-9.299428,-32.408203,-1.008607,65.561157
648,0.327508,-5.250941,5.489348,-39.641296,1.731679,-10.416896,-33.632847,-1.151306,65.261787
649,0.044251,-5.231428,6.117886,-48.054665,1.475277,-9.329844,-35.087803,-1.292897,64.959984
650,-0.440319,-5.800406,6.974543,-54.954472,2.091204,-6.544720,-36.798416,-1.400337,64.711029
651,0.071617,-6.180463,7.385871,-56.684422,-2.207433,-6.185118,-38.654331,-1.532003,64.544731
652,-0.084528,-6.238379,7.926879,-55.492073,-0.836326,-6.447031,-40.519646,-1.705627,64.414391
653,0.194863,-6.669729,8.312176,-53.621391,-1.691919,-5.521164,-42.333920,-1.868991,64.292809
654,0.278404,-7.357110,8.244921,-49.029823,0.896848,-6.019904,-44.039867,-2.010401,64.161575
655,0.291717,-7.373471,7.876825,-41.098091,1.786439,-5.711334,-45.535564,-2.116062,63.991371
656,0.141263,-7.370790,7.601873,-32.938213,3.751594,-3.837244,-46.762699,-2.166726,63.814484
657,0.335087,-7.314181,7.358108,-26.289331,2.258501,-0.803907,-47.745003,-2.155423,63.688560
658,0.361080,-7.305315,7.103094,-21.356224,2.078599,2.151864,-48.537621,-2.090623,63.649796
659,0.106221,-7.512311,7.158119,-16.248785,1.756960,6.383604,-49.165970,-1.941551,63.695438
660,0.447625,-7.630146,7.182663,-10.016258,0.291205,6.966870,-49.607563,-1.750577,63.814610
661,0.334429,-7.657073,7.135484,-5.284173,0.158545,7.851243,-49.867031,-1.557378,63.968632
662,0.619413,-7.690863,7.251716,-2.312823,1.176578,4.514537,-49.996632,-1.385400,64.084389
663,0.344815,-7.896401,7.336626,1.378149,1.697593,4.297359,-50.013512,-1.242101,64.142120
664,0.648401,-7.591076,7.144401,4.826593,0.042132,2.296520,-49.911098,-1.139323,64.190666
665,0.495869,-7.525918,7.210529,5.334727,0.192108,2.314242,-49.742657,-1.078096,64.237312
666,0.549097,-7.642982,7.251172,5.520380,0.544254,1.699655,-49.562347,-1.019171,64.271271
667,0.123194,-7.826077,7.161569,6.906245,1.587527,3.122692,-49.355667,-0.935009,64.296516
668,0.179022,-7.536556,7.051888,8.271630,1.914860,3.805222,-49.103184,-0.809444,64.327698
669,0.349660,-7.602405,7.122619,8.304569,1.866956,3.554861,-48.827335,-0.675532,64.360687
670,0.533713,-7.420009,7.021178,10.787204,1.988383,3.144627,-48.509415,-0.549256,64.386177
671,0.427430,-7.324963,6.871172,11.400393,1.794117,3.849960,-48.139881,-0.420281,64.416634
672,0.700324,-7.209829,6.879108,14.191421,-4.621600,-1.022745,-47.713852,-0.416871,64.483192
673,0.526884,-7.164121,6.865973,13.879080,-4.563039,0.343635,-47.246922,-0.528633,64.588608
674,0.258032,-7.109410,7.005330,15.496909,-2.624754,3.260407,-46.758541,-0.566365,64.717163
675,-0.195130,-7.093436,6.915129,13.349986,0.058164,7.608712,-46.279137,-0.464350,64.872726
676,-0.010982,-7.164268,7.019013,10.989088,-3.801235,4.518920,-45.874783,-0.361979,65.057693
677,-0.192961,-7.085882,6.992031,10.708634,-2.927043,4.982048,-45.514374,-0.326934,65.248672
678,-0.429380,-7.251419,7.151890,8.891802,-4.535527,3.170612,-45.188728,-0.317677,65.432625
679,0.084701,-7.770226,7.063615,6.540417,-6.060494,0.948325,-44.932636,-0.393808,65.606178
680,0.270044,-7.744792,8.282787,-3.190727,-7.526758,-0.991882,-44.878159,-0.554690,65.765587
681,0.124729,-7.672954,9.637563,-17.019384,-10.154286,-3.556542,-45.216881,-0.816425,65.920708
682,0.132404,-8.403515,10.389292,-26.344185,-11.015162,-4.637808,-45.942329,-1.160745,66.077309
683,0.464335,-8.640099,10.789548,-25.483295,-9.126229,-5.592114,-46.809021,-1.515625,66.202858
684,-0.056029,-8.610560,10.844386,-21.363503,-4.539260,-3.229511,-47.591724,-1.778110,66.270103
686,-0.127047,-8.514701,9.497224,0.218616,0.856109,1.495563,-47.944958,-1.840680,66.296341
687,0.114210,-8.794976,7.538307,16.026514,6.024501,8.098510,-47.674881,-1.645212,66.318855
688,0.069337,-8.267929,6.405108,22.841253,9.856660,13.264011,-47.028252,-1.204039,66.365471
689,-0.288753,-7.429737,5.845357,28.986591,11.285349,17.446613,-46.166004,-0.590084,66.461090
690,-0.322297,-6.923843,5.411809,22.150278,9.464239,22.601841,-45.314724,0.129301,66.679237
691,-0.334884,-7.044309,5.174593,4.408962,11.198111,22.807285,-44.869701,0.908773,66.969109
692,-0.818465,-5.828067,6.119289,6.290904,13.832850,26.508390,-44.684509,1.784125,67.257721
693,-1.006590,-6.715270,5.572551,0.813364,12.409243,26.898367,-44.553234,2.720546,67.584389
694,-0.695509,-6.790394,4.717381,21.917208,-1.605404,0.815124,-44.164009,3.172323,67.788635
695,0.156197,-5.747027,5.972057,25.688873,-21.467276,-6.904521,-43.360565,2.823842,67.983040
696,-0.221237,-6.747250,6.675975,10.652658,-18.048828,-10.221719,-42.744473,2.148176,68.225311
697,0.071365,-7.336855,5.810584,14.558013,-20.138948,-17.881075,-42.321915,1.362640,68.311188
698,0.116040,-5.175580,6.677225,32.097668,-20.094727,-20.932997,-41.545170,0.431424,68.278046
699,-0.039833,-5.242815,7.165600,6.198429,-8.664986,5.822891,-40.906769,-0.095054,68.403450
700,-0.474751,-5.985079,5.822466,16.425907,8.191670,5.019975,-40.529076,0.017678,68.545341
701,-0.070679,-4.107531,5.625265,56.491005,-2.255724,8.205233,-39.313404,0.234568,68.650635
702,-0.139904,-4.152241,6.220479,49.596573,-2.338731,6.867495,-37.544598,0.331169,68.896126
703,0.094926,-4.695444,7.082899,51.379185,-4.918425,5.937560,-35.860622,0.361719,69.139519
704,-0.065942,-4.454552,7.932696,55.290154,-4.118063,-0.604464,-34.082378,0.289325,69.298965
705,-0.265076,-4.640956,8.761827,46.877277,-4.040018,0.126377,-32.379833,0.170449,69.367149
706,-0.419237,-4.944735,9.118836,45.264683,-0.921941,-4.083116,-30.844484,0.065589,69.354340
707,-0.419553,-4.212194,9.496705,72.279007,-2.158424,-2.911965,-28.885920,-0.037540,69.278770
708,-0.594031,-4.027802,8.837697,71.327087,-0.253796,-3.827569,-26.493317,-0.124905,69.197922
709,-0.165902,-3.714024,8.936074,71.735382,-3.864002,-3.187055,-24.109833,-0.237150,69.121368
710,-0.463601,-2.667311,9.218040,77.156166,-1.740258,-4.188737,-21.629057,-0.370560,69.044983
711,-0.364581,-2.560352,9.400341,64.874397,-3.193630,-5.051059,-19.262241,-0.501610,68.929131
712,-0.246253,-2.670697,9.373945,44.723183,-3.881563,-6.478462,-17.434860,-0.674119,68.784309
713,-0.124686,-2.539312,9.846647,34.819942,-4.421788,-6.364931,-16.107225,-0.868719,68.619705
714,-0.244724,-2.306889,9.487963,30.880234,-2.769482,-6.143597,-15.009549,-1.040172,68.451210
715,-0.124742,-2.696074,9.069651,16.635511,-1.854174,-6.365769,-14.214200,-1.167390,68.268799
716,-0.102408,-2.701356,8.679762,-3.908309,-2.211533,-8.965122,-13.997139,-1.295591,68.037552
717,-0.197095,-2.613252,9.264323,-17.261671,-1.323239,-9.500289,-14.343225,-1.428433,67.753700
718,-0.064211,-2.887416,9.356424,-26.766098,-3.235766,-14.684643,-15.067220,-1.604495,67.383156
719,-0.102748,-2.916541,9.577518,-28.135611,-2.411455,-14.741961,-15.968760,-1.826395,66.935555
720,0.229304,-2.767584,9.871436,-17.687868,-5.640528,-11.293954,-16.719551,-2.077287,66.556816
721,0.302849,-2.804704,9.938531,-1.822561,-4.272977,-6.109468,-17.035748,-2.319545,66.326759
722,0.530685,-2.930684,9.044373,5.068402,-5.701642,-1.985949,-16.978210,-2.517824,66.246078
723,0.423245,-2.485227,8.709520,12.741284,-2.975013,5.603264,-16.685801,-2.638724,66.345657
724,0.698262,-2.637165,8.681365,5.933565,-4.913028,6.190113,-16.385004,-2.708727,66.571571
725,0.554975,-2.631549,8.593075,-2.737932,-3.140657,2.889388,-16.340567,-2.794750,66.754875
726,0.788032,-2.271157,8.971467,-6.284246,-4.099803,1.430097,-16.496073,-2.890054,66.858215
727,0.690108,-2.340372,9.569230,-10.751617,-1.174488,-1.650741,-16.781130,-2.975292,66.879890
728,0.911458,-2.596035,9.719530,-12.899532,-1.929528,-5.497432,-17.170124,-3.059469,66.780983
729,0.933382,-2.830084,9.725534,-12.905473,0.713939,-9.084747,-17.587954,-3.151312,66.554726
730,0.833477,-2.861149,9.615222,-10.725710,2.285001,-9.774951,-17.964399,-3.199547,66.239700
731,0.590814,-3.180502,9.341759,-13.628279,3.870051,-11.435099,-18.349726,-3.212146,65.871315
732,0.649882,-3.261509,9.075504,-15.599198,4.316644,-12.827896,-18.812922,-3.211688,65.443901
733,0.465760,-3.333272,8.899892,-17.505253,6.850771,-15.782120,-19.336033,-3.191620,64.931641
734,0.403524,-3.098932,8.896047,-17.626760,8.667322,-16.931612,-19.888430,-3.130925,64.330399
735,0.652755,-3.305329,8.923584,-20.878963,8.942992,-18.625019,-20.494659,-3.059940,63.672047
736,0.729049,-3.306275,8.946300,-19.984068,9.558424,-22.790821,-21.135576,-3.017076,62.916225
737,0.650138,-3.379824,8.979985,-20.635668,9.565969,-24.882648,-21.767389,-3.010747,62.058987
738,0.676901,-3.660722,9.132357,-24.002447,7.881064,-24.415493,-22.465151,-3.050635,61.187168
739,0.520004,-3.818592,9.221581,-25.157240,6.181153,-24.123707,-23.239012,-3.149095,60.349472
740,0.261893,-3.858438,9.340023,-24.331560,5.285146,-21.466602,-24.020262,-3.278688,59.575542
741,0.202897,-3.959408,9.494034,-24.018932,4.028367,-17.001770,-24.788208,-3.402343,58.926533
742,0.175387,-4.142013,9.485645,-21.610502,3.530277,-14.191765,-25.516975,-3.509526,58.401520
743,0.238089,-4.043162,9.351470,-16.508476,3.883908,-13.429646,-26.123188,-3.598854,57.932461
744,0.137691,-4.221609,9.202690,-13.740889,5.520805,-11.575912,-26.599308,-3.643309,57.488583
745,0.451126,-4.443711,9.019103,-10.788167,5.177530,-13.325307,-26.979372,-3.671139,57.036907
746,0.349208,-4.555569,8.860259,-7.196678,6.790231,-14.754844,-27.246357,-3.706746,56.528347
747,0.475599,-4.469215,8.864159,-2.304212,6.406536,-15.385402,-27.369116,-3.741591,55.979958
748,0.373395,-4.420719,8.939916,0.871116,6.624766,-13.495648,-27.358356,-3.769752,55.451492
749,0.492816,-4.545031,9.011902,3.071820,4.963224,-10.531312,-27.263353,-3.781762,55.006115
750,0.396013,-4.455171,9.079707,5.578360,4.547411,-6.035138,-27.098194,-3.766796,54.687393
751,0.443132,-4.405512,8.909695,9.321414,5.264320,-0.719045,-26.838568,-3.671999,54.512524
752,0.432384,-4.503189,8.731986,5.826264,2.208555,2.478018,-26.584299,-3.547438,54.482647
753,0.529329,-4.760150,8.514910,-3.032677,1.326697,6.640851,-26.544449,-3.426703,54.592426
754,0.673923,-4.839489,8.456383,-8.100332,-2.954830,7.453380,-26.743166,-3.345530,54.814857
755,0.582414,-4.910836,8.625278,-7.254472,-3.192126,7.285754,-27.014612,-3.325804,55.080658
756,0.922436,-5.056399,8.801696,-10.398044,-5.900461,6.505111,-27.324804,-3.355688,55.354805
757,0.791081,-4.940824,8.913881,-11.191037,-5.781054,6.253827,-27.701181,-3.430077,55.633778
758,0.728246,-4.787115,8.948534,-11.355456,-6.073810,6.162936,-28.093643,-3.507843,55.909626
759,0.687737,-4.518404,8.771480,-10.166142,-5.548697,2.222601,-28.465706,-3.612215,56.124882
760,0.731318,-4.427189,8.342105,-10.064211,-5.522938,-1.369156,-28.809427,-3.767272,56.225964
761,0.301729,-4.505605,7.982868,-13.853091,-4.080022,-2.388341,-29.209627,-3.937532,56.248821
762,0.606909,-4.745846,7.790739,-18.812407,-6.553974,-5.357947,-29.752291,-4.155296,56.223667
763,0.782140,-4.843591,7.779927,-22.057472,-8.281855,-8.056256,-30.428192,-4.481268,56.153927
764,0.871798,-5.218291,7.927030,-26.791384,-8.501129,-5.278629,-31.238445,-4.835285,56.106247
765,1.001902,-5.560984,8.012855,-29.324951,-9.458359,-0.937937,-32.179649,-5.144523,56.175877
766,1.274708,-5.773787,8.092409,-30.359217,-9.950750,1.461219,-33.191040,-5.412314,56.358837
767,1.103717,-5.932545,7.905790,-30.405838,-9.495049,6.745349,-34.231972,-5.606127,56.653912
768,1.045848,-6.181030,7.726855,-29.778564,-9.217661,12.864501,-35.278927,-5.676335,57.102600
769,0.949312,-6.175692,7.502283,-26.615091,-10.064164,18.520609,-36.279232,-5.631598,57.718071
770,0.887079,-6.212416,7.361336,-23.907307,-10.560066,22.951826,-37.195076,-5.494119,58.481304
771,0.948397,-6.311570,7.140835,-20.439589,-11.839434,26.508205,-38.017166,-5.287242,59.366161
772,0.934904,-6.463569,7.042495,-17.076336,-11.502200,27.471199,-38.727871,-5.034190,60.316845
773,0.878340,-6.678390,6.796627,-13.451374,-10.902564,28.164589,-39.318272,-4.740735,61.275818
774,0.923976,-6.916095,6.577489,-10.302827,-9.847834,26.358231,-39.787933,-4.429009,62.199673
775,0.663593,-6.928138,6.582192,-6.247603,-8.601532,24.361567,-40.126942,-4.121993,63.047470
776,0.445152,-6.864796,7.007070,-1.799821,-8.736348,22.776222,-40.315723,-3.835538,63.835861
777,0.643229,-6.868687,7.007780,1.562172,-11.044246,21.271997,-40.370041,-3.611814,64.610512
778,0.822018,-6.771797,7.213483,2.754637,-11.545070,15.950712,-40.342766,-3.497181,65.328445
779,0.713527,-6.704655,7.496226,1.964828,-10.148772,11.101995,-40.299503,-3.481180,65.907242
780,0.882632,-6.684037,7.418389,-1.247666,-8.336607,5.340539,-40.312679,-3.538855,66.316292
781,1.003990,-6.741075,7.062953,-7.864449,-5.103613,-0.506026,-40.477634,-3.657146,66.523247
782,0.862198,-6.782023,7.239301,-14.019580,0.011546,-6.092103,-40.840614,-3.793002,66.495102
783,0.657909,-6.528929,7.344782,-16.898056,4.672540,-9.299562,-41.339516,-3.902575,66.249962
784,0.577675,-6.284520,7.332031,-17.850229,7.978468,-11.010212,-41.891663,-3.969587,65.856026
785,0.593421,-6.198981,7.541671,-16.502693,10.669476,-10.613297,-42.431187,-3.980990,65.379189
786,0.532173,-6.005428,7.696280,-13.294396,13.496643,-9.888771,-42.891693,-3.916255,64.853844
787,0.383819,-5.720980,7.568686,-9.296253,16.185848,-9.249964,-43.229931,-3.772428,64.281860
789,0.397490,-5.808720,7.955229,-6.939750,15.039824,-7.549175,-43.464550,-3.585960,63.719994
790,0.459423,-5.832640,8.332134,-1.958557,12.755879,-6.043384,-43.583366,-3.406013,63.235855
791,0.299313,-5.666124,8.434763,4.181736,10.432227,-3.502995,-43.524189,-3.235414,62.853676
792,0.359646,-5.411729,8.619994,11.616982,5.886565,-0.480970,-43.247959,-3.083189,62.618332
793,0.359813,-5.411309,9.170934,16.598721,1.160888,3.298575,-42.775322,-2.965043,62.572582
794,0.519483,-5.394416,9.017620,20.993349,-1.469642,5.309234,-42.154427,-2.871765,62.682110
795,0.777152,-5.453097,8.603084,22.012157,-2.108655,3.927218,-41.445400,-2.813507,62.836861
796,0.609246,-5.504115,8.353005,19.170025,0.754958,-0.892519,-40.761673,-2.797303,62.889942
797,0.628203,-5.693220,8.251845,15.440541,4.129527,-8.196445,-40.176575,-2.833951,62.721699
798,0.937662,-5.739991,7.918957,15.771758,5.747640,-18.655769,-39.633530,-2.995142,62.272324
799,1.013006,-5.761953,7.714678,16.913872,8.508619,-30.714062,-39.045227,-3.333301,61.484371
800,0.926156,-5.866732,7.764681,16.845861,9.390766,-39.848488,-38.413406,-3.836691,60.378429
801,1.489580,-6.044394,7.814361,16.855211,6.818867,-48.128201,-37.755104,-4.528708,59.054585
802,1.704483,-5.936800,7.665694,17.990574,7.337908,-55.582191,-37.042439,-5.391139,57.533077
803,1.565390,-5.840654,7.614384,17.104506,12.236953,-58.931797,-36.281422,-6.268956,55.798962
804,1.696772,-5.722961,7.845929,16.294043,17.312574,-57.457794,-35.509083,-7.007474,53.926861
805,1.400898,-5.475292,8.127623,20.053959,26.071877,-52.487743,-34.661007,-7.469086,51.996910
806,1.343866,-5.118983,8.193841,26.810461,35.485691,-46.686646,-33.625362,-7.547146,50.036411
807,1.084933,-5.102724,8.485060,28.706577,44.537468,-39.868763,-32.451035,-7.214703,48.083862
808,1.017291,-5.022478,8.867445,30.805576,50.794994,-35.590515,-31.231277,-6.528285,46.163532
809,0.582535,-4.856897,8.869534,34.235222,55.184574,-34.016113,-29.947144,-5.598104,44.255791
810,0.621296,-4.716271,8.716630,33.441559,55.460472,-34.405518,-28.651831,-4.547995,42.352257
811,0.173909,-4.665622,8.846008,31.223972,55.568382,-34.633953,-27.442564,-3.456468,40.462955
812,-0.058961,-4.358891,8.977959,33.600742,53.710072,-36.607063,-26.266790,-2.368709,38.579258
813,-0.496248,-4.068113,8.948981,36.006275,50.441250,-38.333584,-25.045856,-1.344969,36.702194
814,-0.695308,-3.743417,8.874722,37.612259,46.413074,-41.408562,-23.789845,-0.424616,34.825966
815,-0.714024,-3.699494,8.882835,36.140549,40.826729,-46.091976,-22.558891,0.337932,32.914619
816,-0.576686,-3.583702,8.973866,33.817043,33.436691,-52.313068,-21.413187,0.870990,30.931812
817,-0.569267,-3.450516,8.909101,32.043941,25.912037,-57.869019,-20.350729,1.139875,28.864820
818,-0.550090,-3.117538,8.992542,31.378967,18.868288,-61.636063,-19.335409,1.165292,26.739235
819,-0.543508,-2.942035,9.380030,30.601841,12.175149,-62.821453,-18.341492,0.985012,24.610241
820,-0.550303,-2.768033,9.603394,30.882191,6.224278,-61.946758,-17.345444,0.639782,22.538124
821,-0.390871,-2.596482,9.550335,31.677422,0.834782,-59.247276,-16.316114,0.167922,20.571943
822,-0.305866,-2.348150,9.564072,31.020420,-2.712526,-54.542946,-15.267395,-0.377715,18.756638
823,0.072503,-2.383533,9.494018,28.177637,-5.025767,-49.858894,-14.261504,-0.945375,17.107649
824,0.411040,-2.325572,9.315415,25.161089,-6.340822,-45.002575,-13.340532,-1.506339,15.617799
825,0.530216,-1.977879,9.382320,24.372648,-5.711222,-40.875427,-12.473345,-2.021732,14.267384
826,0.650847,-1.792902,9.662920,23.692413,-4.666813,-37.421127,-11.623853,-2.463047,13.026565
827,0.866563,-1.755601,9.731939,24.152933,-4.157569,-35.753376,-10.772487,-2.843979,11.857673
828,0.806198,-1.581655,9.723931,24.933731,-3.276749,-34.254959,-9.895340,-3.175002,10.730614
829,0.819245,-1.467022,9.738000,22.854033,-2.366474,-33.087494,-9.035846,-3.452171,9.637266
830,0.822602,-1.345070,9.743320,22.214510,-1.350914,-31.912848,-8.218734,-3.676011,8.573567
831,0.632920,-1.198969,9.650486,20.810186,-0.156645,-30.149330,-7.434718,-3.841734,7.550150
832,0.549014,-1.133231,9.694841,17.722828,0.993608,-26.437626,-6.728848,-3.944172,6.610404
833,0.622778,-1.136300,9.703538,13.715986,1.299651,-22.397369,-6.148556,-3.997505,5.795407
834,0.557373,-1.115138,9.730138,10.911050,2.084586,-18.934034,-5.689779,-4.012524,5.102749
835,0.598671,-1.120568,9.722705,7.610455,2.143879,-15.757875,-5.340380,-3.997985,4.519025
836,0.643956,-1.139519,9.718148,4.502708,2.429030,-13.117866,-5.104674,-3.965963,4.031650
837,0.687402,-1.127912,9.711318,1.209115,2.345022,-11.070601,-4.981333,-3.922213,3.622098
838,0.736128,-1.095165,9.785271,-1.386344,2.149889,-10.030228,-4.959966,-3.878134,3.264413
839,0.735577,-1.121379,9.799662,-4.340174,1.333302,-9.487112,-5.033183,-3.848701,2.934549
840,0.786234,-1.133859,9.807238,-10.326984,0.055011,-10.744681,-5.254863,-3.855964,2.595864
841,0.783213,-1.189906,9.839728,-15.388798,-0.929391,-12.086441,-5.657813,-3.906780,2.217575
842,0.722293,-1.288316,9.880667,-19.189369,-1.476147,-13.500408,-6.205080,-3.990824,1.796555
843,0.725620,-1.366437,9.850422,-23.314169,-2.469629,-14.711411,-6.880884,-4.109790,1.335784
844,0.856961,-1.396927,9.807206,-25.080265,-3.374286,-15.006036,-7.652295,-4.269125,0.855523
845,0.830756,-1.488531,9.810679,-25.794636,-3.163685,-14.065210,-8.464732,-4.444975,0.389723
846,0.895274,-1.565747,9.792630,-24.053728,-2.610121,-11.692126,-9.263083,-4.606270,-0.020824
847,0.992051,-1.697898,9.769268,-22.993881,-2.737994,-9.410994,-10.020002,-4.753127,-0.353694
848,1.003739,-1.788676,9.736794,-18.064945,-2.125612,-6.533392,-10.683459,-4.880714,-0.601396
849,0.897400,-1.874728,9.653365,-11.539532,-1.225319,-3.048121,-11.164250,-4.965856,-0.748135
850,0.952498,-1.816907,9.632540,-0.283312,-1.042071,1.506238,-11.359738,-5.007984,-0.766010
851,1.160444,-1.747869,9.599759,13.294363,-2.867175,5.994657,-11.154777,-5.047528,-0.630178
852,1.140665,-1.654039,9.607738,26.172630,0.980976,12.151562,-10.523688,-5.021588,-0.326085
853,1.063129,-1.528436,9.539520,38.872219,1.654161,17.661028,-9.481333,-4.892069,0.157165
854,0.831863,-1.544340,10.001345,45.798313,3.519891,21.619001,-8.123550,-4.706723,0.793034
855,0.807697,-1.430446,10.028357,46.293068,2.276607,20.493690,-6.644089,-4.520702,1.478570
856,0.547085,-1.285468,10.070647,39.674786,1.627838,17.041822,-5.259625,-4.391276,2.095907
857,0.529672,-1.064779,10.055717,30.703529,1.154791,12.864686,-4.124345,-4.304355,2.590250
858,0.612773,-0.935598,10.162725,20.691931,0.287131,7.787288,-3.293446,-4.258145,2.933101
859,0.888152,-0.589422,9.795405,14.087454,-1.805863,2.693359,-2.726947,-4.274312,3.109384
860,0.876251,-0.493113,9.820391,10.502666,-2.865226,0.969231,-2.322022,-4.349524,3.174084
861,0.900298,-0.444372,9.868673,8.807972,-2.532692,-0.474964,-2.001093,-4.439147,3.185796
862,0.890426,-0.368193,9.871811,8.487883,-1.834108,-1.731427,-1.710148,-4.513112,3.151299
863,0.874028,-0.295347,9.899180,8.319109,-1.074957,-2.469097,-1.424592,-4.563520,3.082415
864,0.819037,-0.225258,9.937423,8.340829,0.013292,-2.493931,-1.140350,-4.583077,2.999837
865,0.780732,-0.170299,9.912379,8.279796,0.657256,-2.171046,-0.857106,-4.573259,2.921634
866,0.751168,-0.102050,9.900236,8.678083,0.930325,-1.287875,-0.569856,-4.547514,2.863464
867,0.758850,-0.078502,9.901404,7.895742,0.612791,-0.204958,-0.291641,-4.521963,2.838307
868,0.744798,-0.048531,9.881679,7.336449,0.524906,0.696445,-0.038416,-4.502958,2.846474
869,0.762673,-0.035542,9.876188,6.724544,-0.018444,1.172471,0.193479,-4.494544,2.877731
870,0.796484,-0.007624,9.881798,6.475120,-0.150000,1.533140,0.409926,-4.497579,2.922957
871,0.854553,0.007786,9.862692,5.814926,-0.298923,1.391599,0.610926,-4.505488,2.971786
872,0.853137,0.029307,9.882137,5.219677,-0.308744,0.984195,0.791721,-4.516100,3.011382
873,0.879198,0.041742,9.874748,4.747950,-0.369153,0.721558,0.955613,-4.527834,3.039724
874,0.862066,0.077648,9.863509,3.846429,-0.360118,0.746826,1.096929,-4.540428,3.064053
875,0.860937,0.025405,9.868430,0.947671,-1.235260,1.145419,1.174361,-4.567636,3.095155
876,0.786417,0.060147,9.830485,2.487574,-0.249221,1.632525,1.227946,-4.593333,3.141083
877,0.812263,0.057826,9.793483,-0.124520,-0.667931,2.950450,1.261215,-4.610278,3.217355
878,0.704304,0.065927,9.816088,-1.479603,0.694307,4.490669,1.224477,-4.612510,3.341761
