seq,ax,ay,az,wroll,wpitch,wyaw,roll,pitch,yaw,q0,q1,q2,q3
1161,6.928518,-6.826195,-0.370379,-0.533740,0.071924,0.030979,-93.105759,-45.384129,94.358902,-0.636674,0.260684,0.671618,-0.274991
1163,6.927035,-6.818871,-0.428980,-0.673645,-0.749720,-0.023719,-93.137314,-45.383392,94.374954,-0.636562,0.260769,0.671729,-0.274900
1164,6.922547,-6.827602,-0.433502,-0.647468,-0.740281,0.125083,-93.184357,-45.380337,94.410110,-0.636362,0.260842,0.671915,-0.274836
1165,6.923085,-6.827791,-0.428912,-0.516132,-0.603902,0.115625,-93.226212,-45.375084,94.441658,-0.636177,0.260919,0.672077,-0.274796
1166,6.922884,-6.824634,-0.426271,-0.434770,-0.525166,0.074451,-93.260910,-45.370853,94.468147,-0.636023,0.260981,0.672213,-0.274763
1167,6.924580,-6.818541,-0.425169,-0.390510,-0.465882,-0.025698,-93.291321,-45.369095,94.491547,-0.635892,0.261022,0.672335,-0.274725
1168,6.925467,-6.817794,-0.420816,-0.294850,-0.377027,-0.031176,-93.317009,-45.369236,94.511597,-0.635786,0.261046,0.672443,-0.274685
1170,6.924996,-6.818385,-0.420824,-0.240085,-0.334743,-0.008786,-93.337959,-45.369209,94.528511,-0.635698,0.261063,0.672532,-0.274656
1171,6.929200,-6.812702,-0.418590,-0.182474,-0.282729,-0.108822,-93.355522,-45.370567,94.543297,-0.635626,0.261066,0.672610,-0.274627
1172,6.922291,-6.811236,-0.423178,-0.201671,-0.305834,-0.058948,-93.372017,-45.372784,94.557472,-0.635561,0.261062,0.672686,-0.274596
1173,6.920929,-6.816386,-0.423432,-0.176244,-0.287551,0.035712,-93.388329,-45.372589,94.571548,-0.635489,0.261071,0.672757,-0.274580
1174,6.920443,-6.816391,-0.422959,-0.139085,-0.268667,0.044539,-93.402885,-45.370705,94.584610,-0.635419,0.261086,0.672818,-0.274577
1175,6.919638,-6.816016,-0.417190,-0.077081,-0.194864,0.030028,-93.414223,-45.369003,94.595490,-0.635363,0.261094,0.672867,-0.274581
1177,6.918447,-6.813038,-0.420713,-0.121247,-0.228888,-0.006054,-93.424644,-45.368176,94.605476,-0.635313,0.261098,0.672913,-0.274579
1178,6.926394,-6.820996,-0.415249,-0.066772,-0.156528,-0.009013,-93.434303,-45.368050,94.614639,-0.635269,0.261099,0.672956,-0.274574
1179,6.929395,-6.820017,-0.416522,-0.071683,-0.157480,-0.074274,-93.441971,-45.369114,94.622192,-0.635236,0.261091,0.672994,-0.274565
1180,6.926228,-6.821152,-0.420313,-0.114403,-0.188236,-0.018829,-93.450996,-45.370316,94.630501,-0.635199,0.261085,0.673037,-0.274551
1181,6.921551,-6.818350,-0.423056,-0.133429,-0.211956,0.011362,-93.461876,-45.370037,94.639999,-0.635150,0.261091,0.673084,-0.274541
1182,6.917043,-6.831694,-0.421541,-0.099043,-0.188293,0.202432,-93.472290,-45.366077,94.649178,-0.635094,0.261118,0.673122,-0.274554
1184,6.914754,-6.834682,-0.426276,-0.139321,-0.230349,0.252869,-93.482864,-45.358082,94.658432,-0.635026,0.261167,0.673153,-0.274588
1185,6.911911,-6.841108,-0.422216,-0.089502,-0.175244,0.330343,-93.492897,-45.347969,94.667191,-0.634954,0.261229,0.673178,-0.274635
1186,6.912559,-6.836553,-0.421732,-0.079566,-0.152700,0.236361,-93.500656,-45.338207,94.674141,-0.634893,0.261287,0.673193,-0.274683
1187,6.917590,-6.838768,-0.419226,-0.036599,-0.102970,0.185322,-93.506454,-45.330929,94.679581,-0.634847,0.261329,0.673205,-0.274721
1188,6.923229,-6.831900,-0.417933,-0.014314,-0.066848,0.036035,-93.509933,-45.327072,94.683281,-0.634819,0.261349,0.673215,-0.274743
1189,6.926191,-6.826450,-0.412468,0.041454,0.004790,-0.064007,-93.510567,-45.327477,94.684792,-0.634815,0.261341,0.673220,-0.274745
1191,6.929250,-6.817465,-0.417374,-0.011066,-0.045401,-0.170392,-93.510979,-45.331333,94.686089,-0.634822,0.261314,0.673232,-0.274728
1192,6.931144,-6.821176,-0.420465,-0.038597,-0.070523,-0.135316,-93.514061,-45.336292,94.689270,-0.634821,0.261284,0.673256,-0.274699
1193,6.932823,-6.814265,-0.418883,-0.041140,-0.054369,-0.223195,-93.517868,-45.342129,94.692749,-0.634820,0.261251,0.673284,-0.274663
1194,6.930976,-6.812949,-0.425307,-0.112810,-0.123547,-0.194004,-93.523872,-45.348892,94.697571,-0.634813,0.261217,0.673323,-0.274616
1195,6.929480,-6.813702,-0.428948,-0.131876,-0.160785,-0.148819,-93.533104,-45.354305,94.704803,-0.634790,0.261195,0.673372,-0.274571
1196,6.927810,-6.818130,-0.425112,-0.082641,-0.097259,-0.075566,-93.541245,-45.357777,94.711243,-0.634765,0.261182,0.673413,-0.274540
1198,6.924283,-6.812793,-0.418318,0.001801,-0.027838,-0.081314,-93.544868,-45.360252,94.714432,-0.634756,0.261170,0.673434,-0.274522
1199,6.925559,-6.816391,-0.420215,-0.012559,-0.051924,-0.051840,-93.546532,-45.362389,94.716522,-0.634753,0.261154,0.673446,-0.274512
1200,6.926455,-6.815649,-0.416465,0.023180,-0.007239,-0.057342,-93.547470,-45.364143,94.718071,-0.634752,0.261140,0.673456,-0.274505
1201,6.921402,-6.814232,-0.416560,0.007226,-0.016628,-0.014083,-93.547432,-45.365303,94.718742,-0.634754,0.261130,0.673459,-0.274502
1202,6.924143,-6.809896,-0.419773,-0.044033,-0.057918,-0.088055,-93.549408,-45.366928,94.720657,-0.634749,0.261120,0.673472,-0.274492
1203,6.928608,-6.817863,-0.422446,-0.080895,-0.074767,-0.054019,-93.553871,-45.369160,94.724014,-0.634737,0.261112,0.673494,-0.274472
1205,6.927578,-6.817329,-0.426443,-0.103269,-0.104452,-0.038529,-93.560066,-45.370510,94.728394,-0.634716,0.261113,0.673522,-0.274452
1206,6.927451,-6.824207,-0.427515,-0.108380,-0.121976,0.023440,-93.567421,-45.370529,94.733765,-0.634687,0.261122,0.673552,-0.274438
1207,6.933010,-6.826898,-0.428011,-0.104207,-0.117462,-0.012738,-93.574982,-45.370102,94.739426,-0.634655,0.261133,0.673582,-0.274427
1208,6.932123,-6.829780,-0.421754,-0.013240,-0.052197,0.023047,-93.579788,-45.369751,94.743431,-0.634633,0.261138,0.673602,-0.274423
1209,6.931732,-6.830987,-0.426820,-0.049600,-0.100931,0.043793,-93.583351,-45.368484,94.746964,-0.634613,0.261144,0.673616,-0.274429
1210,6.928629,-6.829027,-0.421216,0.006759,-0.031996,0.056982,-93.586189,-45.366669,94.749947,-0.634595,0.261153,0.673626,-0.274439
1212,6.924057,-6.821301,-0.419268,0.039195,-0.001480,0.029625,-93.585899,-45.365192,94.750618,-0.634590,0.261156,0.673624,-0.274453
1213,6.926395,-6.816428,-0.411402,0.127649,0.090015,-0.047782,-93.581650,-45.365589,94.748550,-0.634605,0.261142,0.673610,-0.274464
1214,6.930216,-6.812189,-0.414596,0.092825,0.053688,-0.129509,-93.575752,-45.368687,94.745415,-0.634635,0.261110,0.673594,-0.274464
1215,6.930770,-6.815392,-0.408192,0.167463,0.114828,-0.097453,-93.568802,-45.372639,94.741760,-0.634670,0.261071,0.673577,-0.274462
1216,6.933687,-6.809055,-0.408876,0.156992,0.091202,-0.189344,-93.560219,-45.377617,94.737297,-0.634714,0.261021,0.673556,-0.274460
1217,6.939831,-6.810457,-0.409605,0.121441,0.077514,-0.239954,-93.553185,-45.384933,94.733940,-0.634758,0.260960,0.673546,-0.274441
1219,6.934666,-6.811882,-0.415962,0.045083,0.000800,-0.148041,-93.549500,-45.391472,94.732658,-0.634788,0.260910,0.673546,-0.274419
1220,6.931354,-6.815086,-0.415895,0.040236,-0.000109,-0.058193,-93.548279,-45.394905,94.732941,-0.634800,0.260882,0.673551,-0.274408
1221,6.931060,-6.810327,-0.416875,0.024081,-0.008000,-0.084444,-93.547493,-45.397266,94.733337,-0.634807,0.260861,0.673554,-0.274401
1222,6.930405,-6.824415,-0.415771,0.044991,0.001757,0.081945,-93.546440,-45.397297,94.733490,-0.634809,0.260854,0.673552,-0.274408
1223,6.926915,-6.827941,-0.411247,0.121630,0.048693,0.167091,-93.542557,-45.393208,94.731934,-0.634810,0.260865,0.673532,-0.274446
1224,6.929805,-6.828356,-0.411796,0.108402,0.043623,0.131143,-93.536858,-45.388340,94.729309,-0.634816,0.260877,0.673503,-0.274492
1226,6.930633,-6.824290,-0.415044,0.057708,0.003810,0.052191,-93.533104,-45.385338,94.727928,-0.634820,0.260882,0.673485,-0.274524
1227,6.930542,-6.824421,-0.416974,0.018009,-0.023730,0.023826,-93.532104,-45.384056,94.728287,-0.634818,0.260881,0.673481,-0.274539
1228,6.933009,-6.817993,-0.419835,-0.009189,-0.056218,-0.073781,-93.533340,-45.384800,94.730240,-0.634812,0.260872,0.673489,-0.274538
1229,6.934445,-6.814498,-0.423191,-0.050607,-0.093594,-0.130934,-93.537071,-45.388054,94.734085,-0.634803,0.260852,0.673513,-0.274519
1230,6.934209,-6.813927,-0.424041,-0.049045,-0.096971,-0.116968,-93.542213,-45.391975,94.738968,-0.634791,0.260829,0.673544,-0.274494
1231,6.934319,-6.824150,-0.421606,-0.003445,-0.065588,0.008379,-93.545937,-45.393612,94.742973,-0.634777,0.260817,0.673566,-0.274485
1233,6.935139,-6.821120,-0.423285,-0.007410,-0.067560,-0.010682,-93.548370,-45.393517,94.746132,-0.634764,0.260812,0.673578,-0.274488
1234,6.930726,-6.824913,-0.421067,0.004095,-0.031895,0.063808,-93.550064,-45.392536,94.748421,-0.634752,0.260814,0.673586,-0.274497
1235,6.932745,-6.822554,-0.422120,-0.010780,-0.028705,0.015948,-93.551094,-45.391140,94.749725,-0.634742,0.260820,0.673589,-0.274506
1236,6.931091,-6.828375,-0.417919,0.042129,0.018806,0.070738,-93.550652,-45.389690,94.749832,-0.634739,0.260825,0.673585,-0.274517
1237,6.927545,-6.824131,-0.417270,0.057815,0.033732,0.069908,-93.547943,-45.387405,94.748375,-0.634743,0.260832,0.673571,-0.274538
1238,6.927160,-6.823140,-0.407879,0.147728,0.124325,0.053022,-93.541725,-45.385525,94.744453,-0.634761,0.260831,0.673543,-0.274563
1239,6.929765,-6.824638,-0.412649,0.087232,0.073120,0.044297,-93.534378,-45.384109,94.739632,-0.634785,0.260827,0.673512,-0.274588
1240,6.927362,-6.824565,-0.412331,0.090607,0.069068,0.068811,-93.528900,-45.382378,94.736107,-0.634802,0.260827,0.673487,-0.274610
1241,6.928695,-6.821889,-0.416048,0.057557,0.009172,0.042109,-93.525002,-45.380611,94.734085,-0.634810,0.260828,0.673470,-0.274632
1242,6.931226,-6.822542,-0.416363,0.033126,-0.010854,0.013557,-93.523468,-45.379688,94.734047,-0.634811,0.260825,0.673465,-0.274646
1243,6.930450,-6.830508,-0.421421,-0.014359,-0.070672,0.102542,-93.524399,-45.377670,94.735809,-0.634800,0.260831,0.673467,-0.274662
1244,6.928558,-6.826682,-0.418571,0.025974,-0.045127,0.083156,-93.525963,-45.374466,94.738274,-0.634781,0.260843,0.673470,-0.274685
1245,6.929663,-6.829216,-0.417823,0.041807,-0.043307,0.098044,-93.526131,-45.371357,94.740097,-0.634768,0.260851,0.673469,-0.274711
1246,6.928615,-6.824107,-0.416648,0.031082,-0.023325,0.041526,-93.525902,-45.368965,94.741478,-0.634759,0.260856,0.673467,-0.274734
1247,6.929789,-6.820605,-0.418442,0.028380,-0.035173,-0.025487,-93.525894,-45.368637,94.742859,-0.634754,0.260849,0.673469,-0.274743
1248,6.932106,-6.814743,-0.418654,0.020924,-0.032828,-0.113220,-93.526344,-45.370869,94.744652,-0.634755,0.260829,0.673479,-0.274738
1249,6.933897,-6.815167,-0.417656,0.018337,-0.031674,-0.144552,-93.527054,-45.375095,94.746559,-0.634761,0.260797,0.673493,-0.274720
1250,6.932740,-6.817060,-0.418758,-0.009272,-0.042190,-0.105280,-93.528404,-45.379173,94.748680,-0.634764,0.260769,0.673509,-0.274701
1251,6.934200,-6.818198,-0.419090,-0.008786,-0.037576,-0.096612,-93.530251,-45.382450,94.750862,-0.634763,0.260748,0.673524,-0.274684
1252,6.932123,-6.824981,-0.418028,-0.012599,-0.041228,0.031631,-93.532013,-45.383453,94.752823,-0.634757,0.260740,0.673535,-0.274679
1253,6.926819,-6.825412,-0.415472,0.016235,-0.012714,0.096549,-93.532730,-45.381268,94.753922,-0.634747,0.260750,0.673535,-0.274693
1254,6.925732,-6.825660,-0.414648,0.025803,0.002580,0.118690,-93.531975,-45.377666,94.753845,-0.634739,0.260767,0.673526,-0.274717
1255,6.923833,-6.826168,-0.415525,0.028385,-0.009710,0.131568,-93.530930,-45.373508,94.753647,-0.634730,0.260786,0.673515,-0.274746
1256,6.923937,-6.832344,-0.416715,0.023316,-0.031941,0.186197,-93.530449,-45.368183,94.754173,-0.634716,0.260811,0.673505,-0.274782
1257,6.923191,-6.827028,-0.420114,-0.020290,-0.052520,0.108168,-93.531509,-45.363194,94.755745,-0.634696,0.260836,0.673501,-0.274813
1258,6.923744,-6.827980,-0.424441,-0.061502,-0.098442,0.093975,-93.535210,-45.359676,94.759018,-0.634670,0.260857,0.673511,-0.274829
1259,6.924450,-6.831718,-0.428276,-0.081919,-0.128405,0.123441,-93.541191,-45.355827,94.764069,-0.634633,0.260883,0.673529,-0.274844
1260,6.923795,-6.831933,-0.424070,-0.040165,-0.081330,0.118750,-93.546516,-45.351585,94.768684,-0.634598,0.260909,0.673544,-0.274862
1261,6.921970,-6.827386,-0.418207,0.020978,-0.019915,0.075262,-93.548332,-45.348251,94.770790,-0.634580,0.260926,0.673547,-0.274882
1262,6.922220,-6.824899,-0.412906,0.091667,0.037048,0.039993,-93.546051,-45.346355,94.770218,-0.634581,0.260928,0.673537,-0.274903
1263,6.924484,-6.823694,-0.413108,0.095166,0.035366,0.011289,-93.541664,-45.345581,94.768440,-0.634594,0.260918,0.673521,-0.274923
1264,6.922147,-6.827120,-0.413987,0.067623,0.020856,0.073590,-93.537903,-45.344215,94.766968,-0.634602,0.260914,0.673506,-0.274945
1265,6.921106,-6.824616,-0.419193,0.001558,-0.026560,0.057501,-93.536713,-45.342030,94.766922,-0.634599,0.260920,0.673498,-0.274964
1266,6.924007,-6.820992,-0.424572,-0.051681,-0.077612,-0.019034,-93.539261,-45.341282,94.769325,-0.634585,0.260924,0.673509,-0.274966
1267,6.921063,-6.826159,-0.423168,-0.032266,-0.064551,0.056179,-93.543030,-45.340530,94.772644,-0.634566,0.260930,0.673524,-0.274967
1268,6.920347,-6.828369,-0.421127,-0.020397,-0.043415,0.072893,-93.545578,-45.338268,94.775009,-0.634549,0.260943,0.673531,-0.274978
1269,6.921869,-6.821212,-0.417259,0.015112,-0.012101,-0.035428,-93.546570,-45.337589,94.776268,-0.634542,0.260945,0.673535,-0.274983
1270,6.921665,-6.819439,-0.413048,0.064844,0.030201,-0.059660,-93.545036,-45.339184,94.775986,-0.634550,0.260929,0.673534,-0.274981
1271,6.919213,-6.824950,-0.412116,0.073062,0.042346,0.031855,-93.541542,-45.339729,94.774315,-0.634564,0.260917,0.673522,-0.274989
1272,6.925843,-6.825768,-0.413922,0.046011,0.021679,-0.022387,-93.538475,-45.339642,94.772781,-0.634574,0.260909,0.673511,-0.275000
1273,6.922246,-6.825142,-0.414471,0.045350,0.009860,0.018401,-93.536423,-45.339737,94.772041,-0.634581,0.260902,0.673505,-0.275007
1274,6.921329,-6.824603,-0.417984,0.027570,-0.011756,0.023826,-93.535194,-45.339031,94.772018,-0.634582,0.260899,0.673501,-0.275018
1275,6.921764,-6.820066,-0.419432,0.005161,-0.038734,-0.034638,-93.535500,-45.339165,94.773232,-0.634578,0.260893,0.673504,-0.275022
1276,6.922761,-6.821915,-0.420254,0.001291,-0.040229,-0.040490,-93.536804,-45.340336,94.775208,-0.634574,0.260882,0.673514,-0.275019
1277,6.920862,-6.819303,-0.424271,-0.038755,-0.075978,-0.054403,-93.539474,-45.341793,94.778091,-0.634565,0.260871,0.673530,-0.275011
1278,6.926522,-6.820134,-0.425251,-0.049615,-0.070351,-0.107930,-93.543587,-45.344337,94.781792,-0.634554,0.260858,0.673553,-0.274993
1279,6.930187,-6.822119,-0.419637,0.005538,-0.009071,-0.110673,-93.545883,-45.347889,94.783997,-0.634553,0.260837,0.673571,-0.274971
1280,6.929394,-6.834468,-0.419021,0.045491,0.015951,0.048015,-93.544983,-45.348946,94.783920,-0.634558,0.260826,0.673570,-0.274970
1281,6.928106,-6.838552,-0.417107,0.069782,0.032342,0.112675,-93.542084,-45.346325,94.782555,-0.634561,0.260833,0.673555,-0.274994
1282,6.926379,-6.832374,-0.411247,0.118207,0.089403,0.066760,-93.536713,-45.343464,94.779404,-0.634573,0.260839,0.673530,-0.275025
1283,6.923362,-6.828145,-0.414083,0.078163,0.050087,0.041529,-93.530975,-45.341801,94.775940,-0.634589,0.260837,0.673505,-0.275049
1284,6.921820,-6.827605,-0.415799,0.057622,0.030366,0.036532,-93.527290,-45.340591,94.773926,-0.634599,0.260835,0.673489,-0.275066
1285,6.922031,-6.817703,-0.415215,0.042158,0.030724,-0.081877,-93.524635,-45.341400,94.772545,-0.634611,0.260824,0.673481,-0.275070
1286,6.920816,-6.811069,-0.412239,0.060904,0.048614,-0.131016,-93.521797,-45.345020,94.770973,-0.634631,0.260797,0.673478,-0.275057
1288,6.925257,-6.814170,-0.418056,0.028234,-0.010580,-0.143174,-93.519966,-45.349625,94.770477,-0.634649,0.260763,0.673481,-0.275039
1289,6.923697,-6.819976,-0.412046,0.099371,0.033135,-0.053374,-93.517670,-45.352921,94.770226,-0.634664,0.260733,0.673481,-0.275032
1290,6.922591,-6.822702,-0.415917,0.056765,-0.031316,0.014485,-93.515068,-45.353565,94.770248,-0.634672,0.260715,0.673476,-0.275044
1291,6.928638,-6.824465,-0.417972,0.028879,-0.056922,-0.025003,-93.515144,-45.353649,94.772346,-0.634667,0.260702,0.673481,-0.275055
1292,6.925306,-6.822228,-0.421894,-0.014474,-0.096982,-0.016907,-93.517532,-45.354187,94.776047,-0.634654,0.260691,0.673497,-0.275058
1293,6.921847,-6.826925,-0.418452,0.010215,-0.063277,0.077163,-93.520241,-45.353024,94.779755,-0.634636,0.260691,0.673509,-0.275069
1294,6.925305,-6.827197,-0.416822,0.035142,-0.025191,0.055350,-93.520828,-45.350723,94.781654,-0.634623,0.260696,0.673511,-0.275089
1295,6.927092,-6.829354,-0.413892,0.065955,0.010753,0.041591,-93.519302,-45.349102,94.781860,-0.634622,0.260695,0.673504,-0.275109
1296,6.922925,-6.828808,-0.407943,0.119065,0.068765,0.079294,-93.514748,-45.347172,94.779800,-0.634632,0.260693,0.673485,-0.275135
1297,6.927807,-6.825348,-0.409067,0.117988,0.060837,-0.010961,-93.508553,-45.346176,94.776642,-0.634651,0.260683,0.673461,-0.275160
1298,6.927169,-6.825109,-0.406548,0.125546,0.089937,-0.009877,-93.501968,-45.346676,94.773094,-0.634676,0.260665,0.673438,-0.275176
1299,6.925517,-6.824575,-0.408990,0.078184,0.058134,-0.005313,-93.496109,-45.347080,94.769615,-0.634699,0.260650,0.673417,-0.275189
1300,6.921263,-6.819657,-0.409801,0.076317,0.067113,-0.007810,-93.491425,-45.347416,94.766663,-0.634717,0.260640,0.673400,-0.275198
1301,6.924933,-6.824248,-0.410447,0.098795,0.061333,0.013572,-93.486343,-45.347458,94.763626,-0.634736,0.260629,0.673380,-0.275211
1302,6.925224,-6.833167,-0.405120,0.153085,0.112422,0.100588,-93.479103,-45.345734,94.759346,-0.634758,0.260624,0.673350,-0.275239
1303,6.923329,-6.831134,-0.408774,0.132667,0.047477,0.086412,-93.471466,-45.342789,94.755295,-0.634777,0.260623,0.673317,-0.275279
1304,6.924006,-6.829829,-0.407077,0.146056,0.058121,0.059367,-93.464897,-45.340469,94.752594,-0.634792,0.260615,0.673290,-0.275315
1305,6.925555,-6.827946,-0.408259,0.127638,0.035838,0.011272,-93.458679,-45.339397,94.750267,-0.634809,0.260601,0.673268,-0.275345
1306,6.924998,-6.820174,-0.410576,0.072895,0.006716,-0.078249,-93.454689,-45.340549,94.749359,-0.634823,0.260577,0.673259,-0.275357
1307,6.924537,-6.817996,-0.414084,0.022743,-0.041568,-0.086140,-93.453850,-45.343250,94.750420,-0.634830,0.260551,0.673264,-0.275352
1308,6.927936,-6.815120,-0.411498,0.034423,0.004496,-0.138642,-93.453743,-45.346947,94.751617,-0.634838,0.260522,0.673274,-0.275339
1309,6.928714,-6.816752,-0.414011,0.009357,-0.023551,-0.134110,-93.453613,-45.351456,94.752441,-0.634848,0.260491,0.673284,-0.275319
1310,6.927517,-6.817700,-0.413187,0.001512,-0.025666,-0.097545,-93.454491,-45.355267,94.753944,-0.634853,0.260465,0.673297,-0.275300
1311,6.925537,-6.828746,-0.406208,0.083052,0.039068,0.049682,-93.452904,-45.356075,94.753700,-0.634860,0.260453,0.673294,-0.275303
1312,6.925345,-6.819176,-0.402135,0.115735,0.087216,-0.049754,-93.447464,-45.356201,94.750710,-0.634880,0.260440,0.673275,-0.275318
1313,6.921653,-6.821453,-0.401595,0.087060,0.071596,0.015173,-93.441452,-45.356937,94.747002,-0.634904,0.260424,0.673253,-0.275329
1314,6.921060,-6.822623,-0.400880,0.077087,0.077228,0.059358,-93.436142,-45.355850,94.743370,-0.634922,0.260422,0.673230,-0.275346
1315,6.921413,-6.824693,-0.398338,0.102655,0.086935,0.069704,-93.430244,-45.353867,94.739304,-0.634940,0.260425,0.673203,-0.275369
1316,6.921853,-6.816690,-0.403530,0.020074,0.015136,-0.025644,-93.426437,-45.353237,94.736824,-0.634953,0.260422,0.673187,-0.275382
1317,6.921497,-6.821383,-0.407624,-0.049964,-0.040278,0.017729,-93.427361,-45.353336,94.737427,-0.634949,0.260423,0.673191,-0.275379
1318,6.919684,-6.822911,-0.405002,0.003634,-0.006676,0.046690,-93.428871,-45.352219,94.738457,-0.634940,0.260432,0.673194,-0.275382
1319,6.920470,-6.819519,-0.404634,0.020945,-0.003323,-0.013395,-93.428589,-45.351658,94.738640,-0.634939,0.260432,0.673193,-0.275388
1320,6.920954,-6.814366,-0.401623,0.033305,0.034414,-0.070836,-93.427246,-45.353092,94.738029,-0.634948,0.260420,0.673191,-0.275384
1321,6.919944,-6.819621,-0.401269,0.046185,0.038662,-0.006409,-93.424759,-45.354443,94.736397,-0.634961,0.260408,0.673184,-0.275382
1322,6.919352,-6.819635,-0.401761,0.044172,0.040545,0.009146,-93.421921,-45.354481,94.734528,-0.634972,0.260403,0.673173,-0.275388
1323,6.921072,-6.818238,-0.406192,-0.016663,-0.008379,-0.020364,-93.420937,-45.354698,94.733788,-0.634977,0.260401,0.673170,-0.275389
1324,6.922540,-6.815275,-0.402677,-0.004737,0.017440,-0.064622,-93.421219,-45.356117,94.733681,-0.634980,0.260395,0.673173,-0.275378
1325,6.924437,-6.818987,-0.406009,-0.024314,-0.020741,-0.037149,-93.421860,-45.357815,94.733902,-0.634983,0.260388,0.673178,-0.275366
1326,6.922432,-6.813665,-0.405213,-0.003316,-0.003917,-0.058857,-93.422836,-45.359383,94.734627,-0.634983,0.260380,0.673185,-0.275356
1327,6.925638,-6.820006,-0.405141,0.014749,-0.007836,-0.019970,-93.422928,-45.360683,94.735016,-0.634985,0.260371,0.673189,-0.275350
1328,6.929484,-6.819939,-0.405915,0.000717,-0.022810,-0.064767,-93.423271,-45.362061,94.735870,-0.634986,0.260360,0.673194,-0.275345
1329,6.925929,-6.820258,-0.408510,-0.023919,-0.047375,-0.028917,-93.424942,-45.363548,94.737671,-0.634982,0.260350,0.673205,-0.275337
1330,6.925715,-6.817094,-0.405026,0.009114,-0.010662,-0.066752,-93.426262,-45.365086,94.739174,-0.634980,0.260339,0.673215,-0.275328
1331,6.928567,-6.821595,-0.407254,-0.023227,-0.038464,-0.051201,-93.427437,-45.367001,94.740494,-0.634979,0.260327,0.673224,-0.275318
1332,6.929218,-6.813398,-0.402078,0.012907,0.009769,-0.143600,-93.428307,-45.370220,94.741463,-0.634984,0.260308,0.673235,-0.275300
1333,6.931967,-6.815538,-0.399372,0.044739,0.034303,-0.121637,-93.426865,-45.374672,94.740799,-0.635001,0.260278,0.673238,-0.275280
1334,6.932961,-6.817732,-0.399590,0.060383,0.024080,-0.096386,-93.424339,-45.378357,94.739716,-0.635020,0.260250,0.673237,-0.275268
1335,6.933906,-6.822160,-0.402697,0.015728,-0.011583,-0.049213,-93.423012,-45.380791,94.739632,-0.635029,0.260229,0.673238,-0.275261
1336,6.929359,-6.815024,-0.401951,0.014394,-0.005470,-0.072699,-93.422920,-45.382805,94.740211,-0.635034,0.260213,0.673243,-0.275253
1337,6.927083,-6.817786,-0.407771,-0.030361,-0.065232,-0.016788,-93.424469,-45.384224,94.742012,-0.635030,0.260203,0.673254,-0.275246
1338,6.920835,-6.819514,-0.404989,0.024233,-0.030571,0.058806,-93.426125,-45.383423,94.744209,-0.635019,0.260204,0.673261,-0.275253
1339,6.924587,-6.818592,-0.399981,0.072867,0.024934,0.011599,-93.424538,-45.382248,94.744247,-0.635019,0.260202,0.673255,-0.275269
1340,6.925605,-6.813226,-0.401059,0.056499,0.015545,-0.050629,-93.421730,-45.382938,94.743340,-0.635029,0.260188,0.673248,-0.275277
1341,6.928746,-6.815837,-0.400153,0.068581,0.020322,-0.046541,-93.419144,-45.384594,94.742615,-0.635041,0.260168,0.673243,-0.275279
1342,6.927691,-6.817311,-0.391853,0.152015,0.107803,-0.016274,-93.413368,-45.385765,94.739670,-0.635065,0.260147,0.673225,-0.275290
1343,6.930388,-6.816944,-0.396505,0.082921,0.041126,-0.046998,-93.407013,-45.386967,94.736252,-0.635091,0.260125,0.673204,-0.275301
1344,6.928164,-6.822853,-0.402920,0.033874,-0.015740,0.038865,-93.404633,-45.387123,94.735649,-0.635098,0.260114,0.673197,-0.275311
1345,6.922612,-6.823114,-0.408443,0.033622,-0.054068,0.096088,-93.404541,-45.384815,94.737114,-0.635088,0.260118,0.673196,-0.275333
1346,6.924834,-6.828421,-0.407668,0.172952,0.033479,0.110772,-93.401268,-45.381363,94.737320,-0.635086,0.260119,0.673182,-0.275373
1347,6.922128,-6.827689,-0.412057,0.158218,-0.004045,0.131336,-93.394989,-45.377346,94.736275,-0.635092,0.260113,0.673157,-0.275427
1348,6.922791,-6.823950,-0.411813,0.133896,0.000828,0.079472,-93.389961,-45.373837,94.736053,-0.635094,0.260107,0.673137,-0.275475
1349,6.920816,-6.817657,-0.405596,0.155963,0.042213,0.020209,-93.384308,-45.372223,94.734894,-0.635105,0.260091,0.673118,-0.275511
1350,6.925215,-6.822525,-0.398033,0.187332,0.088347,0.027457,-93.376350,-45.371555,94.731735,-0.635129,0.260069,0.673090,-0.275544
1351,6.924987,-6.817389,-0.395518,0.060001,0.025415,-0.015600,-93.370293,-45.371471,94.729027,-0.635149,0.260052,0.673070,-0.275565
1352,6.928683,-6.824188,-0.395797,0.021719,-0.002672,0.009217,-93.368561,-45.371605,94.728500,-0.635155,0.260045,0.673064,-0.275571
1353,6.928164,-6.824409,-0.392793,0.067519,0.018681,0.014015,-93.366776,-45.371231,94.728081,-0.635159,0.260040,0.673058,-0.275582
1354,6.926936,-6.819911,-0.395236,0.052679,-0.011301,-0.013888,-93.364647,-45.371235,94.727913,-0.635164,0.260029,0.673053,-0.275593
1355,6.925334,-6.820034,-0.392011,0.074310,0.023475,-0.013003,-93.362350,-45.371700,94.727661,-0.635171,0.260015,0.673048,-0.275603
1356,6.926746,-6.823406,-0.395232,0.035679,-0.007781,-0.006521,-93.360275,-45.372036,94.727318,-0.635177,0.260004,0.673043,-0.275611
1357,6.928327,-6.818820,-0.392923,0.051153,0.020865,-0.068706,-93.358673,-45.373306,94.727112,-0.635185,0.259989,0.673041,-0.275612
1358,6.929895,-6.818217,-0.394222,0.035421,-0.001587,-0.085142,-93.357063,-45.375889,94.726883,-0.635196,0.259966,0.673041,-0.275606
1359,6.933156,-6.820249,-0.393917,0.036280,-0.001861,-0.098803,-93.356102,-45.378937,94.727203,-0.635206,0.259942,0.673046,-0.275596
1360,6.931901,-6.819842,-0.398882,-0.002643,-0.060834,-0.073440,-93.356789,-45.381752,94.728943,-0.635208,0.259919,0.673057,-0.275586
1361,6.926790,-6.817935,-0.395363,0.044060,-0.015916,-0.023002,-93.357483,-45.383282,94.730896,-0.635206,0.259903,0.673066,-0.275584
1362,6.923066,-6.825689,-0.395534,0.055480,-0.028469,0.102109,-93.356499,-45.381920,94.731834,-0.635202,0.259900,0.673063,-0.275602
1363,6.921214,-6.829917,-0.395920,0.065052,-0.017878,0.160548,-93.355011,-45.377506,94.732567,-0.635192,0.259912,0.673052,-0.275640
1364,6.923538,-6.838103,-0.391039,0.112389,0.042552,0.215671,-93.351250,-45.371258,94.731445,-0.635186,0.259934,0.673029,-0.275691
1365,6.925513,-6.835722,-0.388960,0.109500,0.067872,0.150011,-93.345337,-45.365288,94.728333,-0.635190,0.259953,0.672996,-0.275743
1366,6.926649,-6.836077,-0.392674,0.064123,0.006400,0.122101,-93.340927,-45.360828,94.726196,-0.635193,0.259967,0.672972,-0.275782
1367,6.928552,-6.827999,-0.391211,0.047600,0.022631,0.012596,-93.338440,-45.358612,94.725319,-0.635195,0.259971,0.672960,-0.275804
1368,6.929823,-6.827373,-0.388418,0.048585,0.049869,-0.024999,-93.335640,-45.358898,94.723633,-0.635206,0.259964,0.672949,-0.275810
1369,6.929828,-6.824255,-0.391920,0.019344,0.002073,-0.040457,-93.333694,-45.360035,94.722488,-0.635216,0.259953,0.672944,-0.275808
1370,6.929873,-6.827281,-0.392033,0.032860,-0.001671,-0.009593,-93.332863,-45.360867,94.722549,-0.635220,0.259944,0.672944,-0.275809
1371,6.931378,-6.829769,-0.385733,0.099871,0.064028,-0.004683,-93.329613,-45.361164,94.721092,-0.635232,0.259932,0.672934,-0.275818
1372,6.927539,-6.831402,-0.392427,0.023226,-0.009353,0.052510,-93.326599,-45.360420,94.719734,-0.635240,0.259928,0.672922,-0.275833
1373,6.928130,-6.830925,-0.392297,0.029725,-0.020439,0.042401,-93.326111,-45.358814,94.720299,-0.635235,0.259931,0.672919,-0.275848
1374,6.926560,-6.827944,-0.394502,-0.006069,-0.037179,0.005051,-93.326653,-45.357971,94.721611,-0.635229,0.259931,0.672921,-0.275857
1375,6.928891,-6.822550,-0.395194,-0.023415,-0.049859,-0.077617,-93.328682,-45.359089,94.723770,-0.635222,0.259923,0.672933,-0.275850
1376,6.932671,-6.818467,-0.403812,-0.118443,-0.138517,-0.151890,-93.334435,-45.362717,94.728539,-0.635207,0.259906,0.672965,-0.275822
1377,6.934398,-6.817474,-0.399806,-0.049231,-0.093453,-0.173721,-93.341461,-45.367916,94.734482,-0.635192,0.259881,0.673006,-0.275785
1378,6.936814,-6.815012,-0.403624,-0.075373,-0.116347,-0.209493,-93.347466,-45.374092,94.739998,-0.635182,0.259846,0.673045,-0.275745
1379,6.933124,-6.817983,-0.402479,-0.057439,-0.101535,-0.121462,-93.353661,-45.379379,94.745605,-0.635169,0.259817,0.673082,-0.275710
1380,6.926157,-6.815102,-0.404299,-0.061200,-0.114827,-0.053953,-93.359474,-45.382095,94.750984,-0.635150,0.259803,0.673114,-0.275690
1381,6.921745,-6.819704,-0.401356,0.000485,-0.072186,0.057713,-93.363625,-45.381847,94.755402,-0.635129,0.259801,0.673133,-0.275691
1382,6.927084,-6.822872,-0.402819,-0.015191,-0.086680,0.041590,-93.366447,-45.380039,94.759026,-0.635109,0.259806,0.673145,-0.275705
1383,6.922359,-6.820277,-0.401826,-0.009149,-0.078417,0.066504,-93.369537,-45.378086,94.762787,-0.635088,0.259812,0.673157,-0.275719
1384,6.928373,-6.820521,-0.403042,-0.014696,-0.077263,0.008419,-93.372498,-45.376690,94.766373,-0.635069,0.259815,0.673170,-0.275729
1385,6.935279,-6.825745,-0.403025,-0.019908,-0.070520,-0.020519,-93.375572,-45.376743,94.769890,-0.635053,0.259811,0.673185,-0.275730
1386,6.938932,-6.822177,-0.402123,-0.033390,-0.055014,-0.102840,-93.378700,-45.378674,94.773041,-0.635044,0.259799,0.673204,-0.275719
1387,6.934883,-6.816774,-0.400883,-0.027655,-0.027118,-0.128009,-93.381325,-45.382427,94.775299,-0.635043,0.259779,0.673222,-0.275694
1388,6.934579,-6.825768,-0.404364,-0.047212,-0.062556,-0.013426,-93.384224,-45.384693,94.777618,-0.635037,0.259768,0.673239,-0.275677
1389,6.930807,-6.820147,-0.406011,-0.065596,-0.097145,-0.030628,-93.388840,-45.385265,94.781464,-0.635019,0.259768,0.673260,-0.275668
1391,6.929180,-6.824018,-0.405791,-0.065955,-0.099316,0.026961,-93.394356,-45.385143,94.786125,-0.634995,0.259772,0.673283,-0.275663
1392,6.925633,-6.825264,-0.408022,-0.082956,-0.124082,0.073646,-93.400497,-45.383240,94.791275,-0.634963,0.259787,0.673306,-0.275666
1393,6.927357,-6.822190,-0.405828,-0.034783,-0.113454,0.023953,-93.406380,-45.381390,94.796776,-0.634932,0.259798,0.673329,-0.275672
1394,6.927553,-6.816787,-0.399570,0.006294,-0.046227,-0.061814,-93.409576,-45.381847,94.800606,-0.634916,0.259790,0.673346,-0.275672
1395,6.926930,-6.823782,-0.399445,-0.010119,-0.041384,0.013233,-93.411179,-45.382576,94.802765,-0.634910,0.259782,0.673357,-0.275670
1396,6.927373,-6.824102,-0.396544,0.035731,0.003389,0.024620,-93.411354,-45.381912,94.803612,-0.634905,0.259782,0.673358,-0.275678
1397,6.929812,-6.825002,-0.398547,0.024994,-0.017299,0.013337,-93.410538,-45.381256,94.803879,-0.634905,0.259780,0.673355,-0.275688
1398,6.930543,-6.824416,-0.399981,-0.010975,-0.017503,-0.003553,-93.410881,-45.381069,94.804703,-0.634901,0.259778,0.673357,-0.275691
1399,6.932981,-6.822134,-0.396688,0.049499,0.023535,-0.043933,-93.410187,-45.381859,94.804626,-0.634905,0.259770,0.673357,-0.275691
1400,6.929471,-6.823454,-0.392892,0.120720,0.066319,0.018699,-93.405869,-45.382374,94.802528,-0.634922,0.259755,0.673343,-0.275701
1401,6.928398,-6.823246,-0.393514,0.111935,0.046086,0.023965,-93.400047,-45.381763,94.799805,-0.634940,0.259743,0.673322,-0.275724
1402,6.928948,-6.821939,-0.391338,0.121887,0.062098,0.004175,-93.394295,-45.381405,94.797195,-0.634958,0.259728,0.673301,-0.275745
1403,6.929580,-6.829286,-0.394805,0.074334,0.019013,0.077857,-93.389572,-45.380112,94.795158,-0.634970,0.259721,0.673283,-0.275769
1404,6.925200,-6.829743,-0.398258,0.019484,-0.022426,0.127349,-93.387856,-45.376694,94.794945,-0.634965,0.259733,0.673271,-0.275797
1405,6.930696,-6.825123,-0.401664,-0.029739,-0.054842,-0.000131,-93.389206,-45.374508,94.796593,-0.634952,0.259743,0.673274,-0.275811
1406,6.933197,-6.825415,-0.400171,-0.020123,-0.029572,-0.023659,-93.391487,-45.374817,94.798622,-0.634943,0.259742,0.673285,-0.275807
1407,6.926845,-6.822530,-0.403185,-0.037948,-0.062198,0.014103,-93.393997,-45.374886,94.800812,-0.634932,0.259742,0.673296,-0.275804
1408,6.924278,-6.825673,-0.396476,0.065342,0.014244,0.084576,-93.394249,-45.373192,94.801804,-0.634924,0.259748,0.673296,-0.275818
1409,6.928082,-6.822234,-0.397620,0.060915,0.012799,0.005076,-93.391609,-45.371735,94.801041,-0.634928,0.259746,0.673285,-0.275837
1410,6.927084,-6.821886,-0.395228,0.069948,0.035709,0.004804,-93.388611,-45.371624,94.799889,-0.634937,0.259737,0.673275,-0.275849
1411,6.922378,-6.820572,-0.394353,0.063863,0.036814,0.036051,-93.385117,-45.371010,94.798119,-0.634948,0.259731,0.673261,-0.275863
1412,6.926641,-6.818732,-0.392472,0.076346,0.053351,-0.030561,-93.381248,-45.371006,94.795967,-0.634962,0.259723,0.673247,-0.275874
1413,6.925196,-6.810490,-0.391793,0.062991,0.042674,-0.107008,-93.377457,-45.373398,94.793892,-0.634982,0.259700,0.673238,-0.275871
1414,6.923533,-6.811916,-0.391459,0.056550,0.037048,-0.073810,-93.374290,-45.376469,94.792244,-0.635002,0.259674,0.673232,-0.275863
1415,6.920838,-6.814771,-0.392947,0.051260,0.015447,0.000589,-93.371689,-45.377750,94.791115,-0.635014,0.259659,0.673226,-0.275865
1416,6.922829,-6.811706,-0.392677,0.070349,0.019127,-0.058347,-93.369133,-45.378746,94.790367,-0.635024,0.259644,0.673220,-0.275870
1417,6.922684,-6.818459,-0.392665,0.065301,0.020381,0.014755,-93.366249,-45.379505,94.789497,-0.635035,0.259629,0.673212,-0.275878
1418,6.922046,-6.824005,-0.401341,-0.026004,-0.073131,0.072011,-93.366394,-45.378006,94.790627,-0.635028,0.259632,0.673212,-0.275892
1419,6.921652,-6.828909,-0.402543,-0.026097,-0.079458,0.132887,-93.369637,-45.374447,94.793953,-0.635002,0.259650,0.673221,-0.275912
1420,6.925481,-6.826176,-0.404769,-0.029955,-0.097419,0.063736,-93.373352,-45.371006,94.797867,-0.634975,0.259668,0.673232,-0.275931
1421,6.922175,-6.830193,-0.404338,-0.016957,-0.103510,0.140779,-93.377319,-45.367405,94.802330,-0.634946,0.259684,0.673245,-0.275953
1422,6.920474,-6.832294,-0.400628,0.033619,-0.058687,0.170150,-93.379463,-45.362068,94.805740,-0.634918,0.259706,0.673247,-0.275989
1423,6.920064,-6.831351,-0.397987,0.064497,-0.018657,0.151385,-93.378807,-45.356647,94.807121,-0.634901,0.259726,0.673238,-0.276032
1424,6.920592,-6.827607,-0.396660,0.070565,-0.018164,0.093178,-93.376930,-45.352543,94.807648,-0.634893,0.259736,0.673227,-0.276069
1425,6.919745,-6.834383,-0.397865,0.044677,-0.040670,0.147220,-93.375771,-45.348480,94.808708,-0.634882,0.259746,0.673219,-0.276105
1426,6.921086,-6.833213,-0.400615,0.004992,-0.058811,0.101788,-93.376358,-45.344238,94.810715,-0.634864,0.259762,0.673217,-0.276136
1427,6.926056,-6.830028,-0.407763,-0.068476,-0.123128,0.006606,-93.380386,-45.342255,94.814880,-0.634839,0.259771,0.673232,-0.276147
1428,6.929435,-6.827025,-0.403852,-0.035656,-0.071781,-0.064373,-93.385460,-45.343025,94.819565,-0.634818,0.259767,0.673256,-0.276139
1429,6.932196,-6.827206,-0.403922,-0.052903,-0.064613,-0.097845,-93.389397,-45.345592,94.823036,-0.634808,0.259754,0.673279,-0.276120
1430,6.936058,-6.818127,-0.397846,0.006094,0.016585,-0.224624,-93.391304,-45.350910,94.824608,-0.634815,0.259725,0.673297,-0.276088
1431,6.936471,-6.820572,-0.399159,-0.009722,0.000121,-0.185314,-93.391487,-45.357742,94.824791,-0.634833,0.259686,0.673311,-0.276049
1432,6.934560,-6.819396,-0.392326,0.064934,0.060618,-0.159404,-93.389893,-45.363541,94.823837,-0.634855,0.259649,0.673316,-0.276020
1433,6.931925,-6.820025,-0.391891,0.083136,0.059248,-0.108270,-93.385666,-45.368111,94.821365,-0.634883,0.259614,0.673309,-0.276005
1434,6.931972,-6.824670,-0.390554,0.118961,0.081064,-0.041390,-93.380074,-45.370735,94.818245,-0.634910,0.259587,0.673294,-0.276006
1435,6.927210,-6.825585,-0.391964,0.113399,0.059162,0.026513,-93.373863,-45.371124,94.814949,-0.634933,0.259569,0.673272,-0.276022
1436,6.926749,-6.821498,-0.388848,0.141585,0.092941,-0.004953,-93.367027,-45.370911,94.811325,-0.634957,0.259554,0.673247,-0.276043
1437,6.926163,-6.822325,-0.388978,0.117085,0.084277,0.019404,-93.359718,-45.370846,94.807098,-0.634983,0.259539,0.673220,-0.276063
1438,6.927701,-6.820667,-0.389194,0.089608,0.076920,-0.016085,-93.353546,-45.370949,94.803284,-0.635007,0.259526,0.673197,-0.276078
1439,6.927061,-6.824071,-0.391368,0.054004,0.035378,0.016822,-93.349274,-45.371044,94.800621,-0.635023,0.259518,0.673180,-0.276088
1440,6.926863,-6.827794,-0.390640,0.066109,0.029892,0.062372,-93.346092,-45.369789,94.798973,-0.635031,0.259517,0.673167,-0.276104
1441,6.924233,-6.826922,-0.392015,0.064298,0.011687,0.087707,-93.343071,-45.367340,94.797775,-0.635034,0.259521,0.673152,-0.276129
1442,6.921309,-6.828863,-0.395198,0.041107,-0.010032,0.122749,-93.341064,-45.363831,94.797432,-0.635030,0.259532,0.673139,-0.276159
1443,6.919775,-6.836015,-0.398343,0.024224,-0.045871,0.216796,-93.340591,-45.358131,94.798294,-0.635013,0.259557,0.673129,-0.276199
1444,6.916455,-6.829910,-0.398537,0.017954,-0.040518,0.180609,-93.340965,-45.351433,94.799789,-0.634990,0.259589,0.673120,-0.276243
1445,6.914898,-6.829709,-0.398807,0.018549,-0.035225,0.174906,-93.341293,-45.345448,94.801109,-0.634970,0.259617,0.673113,-0.276282
1446,6.920158,-6.832376,-0.395090,0.057417,0.000512,0.110663,-93.340324,-45.340672,94.801537,-0.634958,0.259637,0.673102,-0.276317
1447,6.920104,-6.827612,-0.396066,0.031089,-0.028541,0.044787,-93.339172,-45.338051,94.801979,-0.634952,0.259643,0.673095,-0.276341
1448,6.920201,-6.815056,-0.398502,-0.013762,-0.055053,-0.106653,-93.340347,-45.339001,94.804039,-0.634947,0.259632,0.673105,-0.276340
1449,6.919502,-6.815773,-0.399236,-0.011835,-0.074041,-0.081851,-93.343132,-45.342010,94.807365,-0.634941,0.259610,0.673125,-0.276325
1450,6.924228,-6.814208,-0.404457,-0.096887,-0.128968,-0.133292,-93.348579,-45.345394,94.812462,-0.634926,0.259591,0.673156,-0.276303
1451,6.919981,-6.815247,-0.408268,-0.148814,-0.156058,-0.060571,-93.357658,-45.348343,94.819481,-0.634896,0.259583,0.673199,-0.276271
1452,6.922882,-6.815259,-0.401466,-0.058130,-0.064473,-0.067165,-93.364952,-45.350254,94.824883,-0.634872,0.259581,0.673233,-0.276248
1453,6.924028,-6.821281,-0.400227,-0.026573,-0.046553,-0.009057,-93.368301,-45.351414,94.827606,-0.634861,0.259577,0.673249,-0.276237
1454,6.925528,-6.822032,-0.395257,0.021733,0.019597,-0.022702,-93.368866,-45.351910,94.828293,-0.634860,0.259573,0.673253,-0.276234
1455,6.923585,-6.820323,-0.395175,0.026852,0.018419,-0.029958,-93.367470,-45.352829,94.827477,-0.634867,0.259565,0.673250,-0.276233
1456,6.930031,-6.819148,-0.394458,0.039437,0.026433,-0.100557,-93.365753,-45.355045,94.826591,-0.634879,0.259548,0.673248,-0.276225
1457,6.933628,-6.820582,-0.393064,0.054088,0.046829,-0.126420,-93.363159,-45.358887,94.825165,-0.634899,0.259520,0.673246,-0.276211
1458,6.931674,-6.816787,-0.394313,0.026604,0.024267,-0.144307,-93.360886,-45.363461,94.823853,-0.634920,0.259489,0.673246,-0.276191
1459,6.934125,-6.813994,-0.400903,-0.039827,-0.054399,-0.190722,-93.361946,-45.369007,94.825035,-0.634930,0.259456,0.673262,-0.276160
1460,6.936084,-6.819757,-0.398083,0.010861,-0.015544,-0.125942,-93.363922,-45.374207,94.827126,-0.634935,0.259425,0.673282,-0.276130
1461,6.933910,-6.817132,-0.399574,-0.003675,-0.036857,-0.116446,-93.364929,-45.378193,94.828712,-0.634940,0.259399,0.673296,-0.276111
1462,6.929228,-6.822015,-0.402662,-0.023714,-0.079004,-0.008507,-93.367462,-45.380157,94.831627,-0.634932,0.259384,0.673312,-0.276101
1463,6.932780,-6.829730,-0.400290,0.028392,-0.043040,0.046841,-93.369400,-45.379402,94.834473,-0.634919,0.259383,0.673322,-0.276109
1464,6.933506,-6.829951,-0.400518,0.043833,-0.027189,0.032286,-93.369308,-45.378017,94.836021,-0.634912,0.259381,0.673322,-0.276126
1465,6.932026,-6.823887,-0.395135,0.115426,0.031441,-0.030104,-93.366585,-45.377987,94.835922,-0.634918,0.259367,0.673315,-0.276142
1466,6.934754,-6.823706,-0.393278,0.144855,0.059834,-0.074153,-93.360809,-45.379810,94.833900,-0.634941,0.259336,0.673301,-0.276155
1467,6.937745,-6.816943,-0.399626,0.052908,-0.010756,-0.173306,-93.356926,-45.383976,94.833084,-0.634963,0.259295,0.673297,-0.276149
1468,6.932176,-6.818468,-0.402736,0.015425,-0.055220,-0.085258,-93.357155,-45.388218,94.834999,-0.634970,0.259261,0.673310,-0.276135
1469,6.930975,-6.814153,-0.398429,0.045339,-0.011146,-0.090773,-93.357437,-45.391075,94.836823,-0.634973,0.259236,0.673321,-0.276127
1470,6.931869,-6.812893,-0.403598,-0.038962,-0.072490,-0.103035,-93.358932,-45.394218,94.839073,-0.634972,0.259213,0.673336,-0.276113
1471,6.925550,-6.813029,-0.405881,-0.075893,-0.101929,-0.026968,-93.363914,-45.396214,94.843391,-0.634956,0.259204,0.673361,-0.276096
1472,6.928371,-6.814335,-0.400645,-0.002689,-0.034804,-0.030944,-93.367592,-45.397038,94.846703,-0.634942,0.259200,0.673379,-0.276088
1473,6.933262,-6.815733,-0.397540,0.040834,0.006703,-0.058317,-93.367516,-45.398499,94.847481,-0.634944,0.259186,0.673384,-0.276085
1474,6.931064,-6.820090,-0.398776,0.024534,-0.020094,0.004499,-93.366707,-45.399380,94.847878,-0.634948,0.259174,0.673384,-0.276086
1475,6.929295,-6.824992,-0.395905,0.063759,0.009305,0.082350,-93.365326,-45.397923,94.848007,-0.634947,0.259174,0.673378,-0.276104
1476,6.932696,-6.821076,-0.394526,0.084603,0.027372,0.004039,-93.362144,-45.396519,94.847008,-0.634952,0.259171,0.673366,-0.276125
1477,6.923730,-6.825995,-0.391304,0.110864,0.045890,0.132173,-93.357521,-45.394325,94.845093,-0.634961,0.259169,0.673346,-0.276154
1478,6.924660,-6.822381,-0.392861,0.054901,0.021670,0.075861,-93.353409,-45.390926,94.843201,-0.634966,0.259177,0.673325,-0.276187
1479,6.927512,-6.828038,-0.393882,0.044226,0.014145,0.103011,-93.350990,-45.387989,94.842110,-0.634966,0.259186,0.673311,-0.276211
1480,6.929822,-6.823328,-0.392404,0.058240,0.025394,0.028439,-93.348495,-45.385845,94.840996,-0.634968,0.259191,0.673299,-0.276232
1481,6.930181,-6.826210,-0.389499,0.073145,0.044084,0.046324,-93.345055,-45.384666,94.839256,-0.634977,0.259189,0.673284,-0.276249
1482,6.934421,-6.822917,-0.395937,-0.001005,-0.020315,-0.028988,-93.343430,-45.384396,94.838669,-0.634981,0.259185,0.673278,-0.276257
1483,6.933297,-6.827829,-0.396308,0.012923,-0.017700,0.033257,-93.343880,-45.384296,94.839569,-0.634978,0.259183,0.673281,-0.276260
1484,6.932913,-6.823025,-0.390902,0.067890,0.033175,-0.025556,-93.342262,-45.384186,94.839195,-0.634982,0.259177,0.673276,-0.276268
1485,6.930188,-6.828816,-0.395880,0.010411,-0.019543,0.052111,-93.340698,-45.383755,94.838829,-0.634985,0.259173,0.673271,-0.276278
1486,6.932889,-6.831572,-0.397633,-0.006410,-0.036632,0.058029,-93.341476,-45.381866,94.840019,-0.634976,0.259181,0.673272,-0.276290
1488,6.935547,-6.834652,-0.396011,0.026850,-0.019873,0.061246,-93.341972,-45.379829,94.841187,-0.634966,0.259189,0.673272,-0.276305
1489,6.934897,-6.826026,-0.392547,0.042763,0.018468,-0.041126,-93.340797,-45.379486,94.841187,-0.634968,0.259184,0.673268,-0.276314
1490,6.932475,-6.827738,-0.397649,-0.020918,-0.037781,0.011517,-93.340797,-45.379963,94.841682,-0.634968,0.259178,0.673270,-0.276314
1491,6.932044,-6.826207,-0.394045,0.012286,-0.004947,-0.003458,-93.341652,-45.379787,94.842682,-0.634963,0.259178,0.673274,-0.276316
1492,6.924261,-6.823469,-0.397446,-0.027956,-0.041090,0.053901,-93.342644,-45.378902,94.843697,-0.634956,0.259183,0.673277,-0.276321
1493,6.919662,-6.816599,-0.401280,-0.096424,-0.082702,0.031833,-93.346733,-45.377354,94.846535,-0.634936,0.259198,0.673290,-0.276321
1494,6.921546,-6.820421,-0.403528,-0.092470,-0.102868,0.058018,-93.352913,-45.375683,94.850800,-0.634907,0.259217,0.673312,-0.276318
1495,6.920478,-6.821719,-0.403062,-0.059416,-0.099833,0.071308,-93.358734,-45.373333,94.855415,-0.634876,0.259235,0.673332,-0.276323
1496,6.922903,-6.821918,-0.404825,-0.059646,-0.103137,0.056649,-93.364006,-45.371002,94.860039,-0.634846,0.259250,0.673350,-0.276330
1497,6.927875,-6.824974,-0.405813,-0.056884,-0.108103,0.016658,-93.369453,-45.369583,94.864952,-0.634818,0.259260,0.673372,-0.276334
1498,6.928062,-6.826908,-0.400141,0.011046,-0.044659,0.027240,-93.372734,-45.368702,94.868507,-0.634800,0.259262,0.673386,-0.276339
1499,6.927001,-6.825142,-0.394620,0.066462,0.012199,0.005528,-93.371964,-45.368130,94.869225,-0.634798,0.259257,0.673385,-0.276351
1500,6.929909,-6.828686,-0.393234,0.084998,0.044363,0.014199,-93.368469,-45.367851,94.867867,-0.634809,0.259247,0.673373,-0.276365
1501,6.926274,-6.824921,-0.394273,0.064697,0.028554,0.014388,-93.364716,-45.367443,94.866096,-0.634821,0.259239,0.673359,-0.276380
1502,6.928112,-6.823459,-0.390024,0.119850,0.071100,-0.015089,-93.359962,-45.367561,94.863739,-0.634837,0.259226,0.673342,-0.276394
1503,6.931056,-6.820257,-0.389496,0.119055,0.072499,-0.089799,-93.353676,-45.369446,94.860489,-0.634865,0.259200,0.673323,-0.276403
1504,6.931795,-6.821293,-0.389842,0.085473,0.056629,-0.076245,-93.348236,-45.372330,94.857643,-0.634892,0.259170,0.673309,-0.276402
1505,6.932333,-6.812816,-0.394069,0.008716,0.005544,-0.159330,-93.345856,-45.376308,94.856499,-0.634911,0.259140,0.673309,-0.276387
1506,6.935051,-6.811589,-0.392455,0.020179,0.019024,-0.193578,-93.345306,-45.382214,94.856407,-0.634928,0.259104,0.673319,-0.276357
1507,6.930277,-6.812383,-0.393143,0.002222,0.007427,-0.113745,-93.344795,-45.387352,94.856209,-0.634944,0.259073,0.673327,-0.276330
1508,6.927104,-6.817097,-0.392949,0.015594,0.018374,-0.009638,-93.344177,-45.389435,94.855766,-0.634952,0.259060,0.673328,-0.276319
1509,6.926879,-6.823180,-0.396435,-0.011382,-0.005641,0.066164,-93.343834,-45.388500,94.855385,-0.634951,0.259066,0.673325,-0.276324
1510,6.926072,-6.831185,-0.390647,0.046628,0.058789,0.149881,-93.342140,-45.384960,94.853821,-0.634949,0.259086,0.673311,-0.276345
1511,6.926774,-6.833188,-0.395933,-0.016407,0.003777,0.156196,-93.340271,-45.379929,94.851913,-0.634944,0.259116,0.673292,-0.276374
1512,6.928491,-6.834794,-0.397103,-0.031329,0.000125,0.139553,-93.340714,-45.375011,94.851418,-0.634931,0.259149,0.673282,-0.276397
1513,6.930534,-6.834989,-0.397306,-0.035816,0.005067,0.100671,-93.341499,-45.371017,94.850952,-0.634919,0.259179,0.673276,-0.276412
1514,6.932812,-6.828298,-0.395472,-0.006201,0.018062,0.006405,-93.341705,-45.369263,94.850266,-0.634916,0.259194,0.673271,-0.276417
1515,6.934121,-6.826073,-0.397020,0.007274,-0.009037,-0.027143,-93.341553,-45.369606,94.850075,-0.634917,0.259193,0.673271,-0.276415
1516,6.928228,-6.832530,-0.389158,0.116512,0.052702,0.103624,-93.338692,-45.368382,94.848946,-0.634923,0.259190,0.673259,-0.276433
1517,6.927097,-6.828249,-0.389791,0.099345,0.031371,0.054995,-93.333519,-45.365826,94.846733,-0.634933,0.259189,0.673237,-0.276465
1518,6.927431,-6.826034,-0.390151,0.087948,0.012589,0.029219,-93.329567,-45.364464,94.845573,-0.634941,0.259182,0.673222,-0.276490
1519,6.923116,-6.828311,-0.387935,0.114990,0.031566,0.078675,-93.325325,-45.362709,94.844368,-0.634949,0.259176,0.673206,-0.276518
1520,6.921816,-6.829847,-0.387714,0.082475,0.025041,0.101996,-93.320915,-45.359756,94.842781,-0.634955,0.259178,0.673186,-0.276552
1521,6.926743,-6.820686,-0.389212,0.027121,0.017945,-0.057108,-93.318314,-45.359058,94.841705,-0.634961,0.259174,0.673176,-0.276565
1522,6.928718,-6.829576,-0.384336,0.084108,0.063942,0.018252,-93.315125,-45.359787,94.839821,-0.634975,0.259163,0.673165,-0.276569
1523,6.928232,-6.837270,-0.384689,0.064308,0.051262,0.103836,-93.310577,-45.357857,94.836906,-0.634987,0.259166,0.673144,-0.276591
