seq,ax,ay,az,wroll,wpitch,wyaw,roll,pitch,yaw,q0,q1,q2,q3
30,0.377077,-0.815456,9.786180,-20.545853,1.686550,-1.916975,-4.763300,-2.198992,0.183191,0.998952,-0.041517,-0.019238,0.000800
31,0.138690,-3.346518,9.608207,-47.641220,1.803351,0.300245,-6.196282,-2.115439,0.161868,0.998369,-0.054011,-0.018509,0.000413
32,0.208729,-3.703704,9.598260,-43.617325,1.960741,-0.503782,-8.321195,-2.006897,0.171702,0.997212,-0.072515,-0.017575,0.000224
33,0.242927,-4.141208,9.634847,-36.860546,2.296586,-1.716764,-10.275013,-1.910883,0.144523,0.995845,-0.089513,-0.016721,-0.000237
34,0.116383,-4.524097,9.547525,-27.442572,2.148741,-2.890064,-11.961731,-1.814131,0.075006,0.994433,-0.104173,-0.015813,-0.000999
35,0.098507,-4.781751,9.210395,-17.357822,2.380910,-3.134064,-13.333838,-1.711380,-0.020331,0.993127,-0.116087,-0.014812,-0.001910
36,0.115376,-4.853105,8.823693,-8.185616,2.492504,-2.839415,-14.393285,-1.610113,-0.117830,0.992022,-0.125277,-0.013811,-0.002780
37,0.079680,-4.897100,8.550330,-2.310928,2.440811,-2.624118,-15.201067,-1.510169,-0.209104,0.991123,-0.132278,-0.012821,-0.003552
38,0.028663,-4.740276,8.226936,2.971774,2.155681,-2.309632,-15.808698,-1.408593,-0.292457,0.990417,-0.137540,-0.011824,-0.004218
39,0.062487,-4.597767,8.090689,4.659556,2.299326,-1.545009,-16.268312,-1.307519,-0.360152,0.989865,-0.141517,-0.010850,-0.004726
40,0.112262,-4.621966,8.258183,4.888736,2.354399,-1.303803,-16.660355,-1.213635,-0.414827,0.989382,-0.144906,-0.009955,-0.005116
41,0.108658,-4.630916,8.489622,5.099791,2.345341,-1.061094,-17.007729,-1.126292,-0.464060,0.988944,-0.147907,-0.009122,-0.005458
42,0.089775,-4.486461,8.613302,6.275482,2.198951,-0.549829,-17.282127,-1.038419,-0.502651,0.988593,-0.150276,-0.008300,-0.005698
43,0.073268,-4.485914,8.789416,4.813071,1.970167,-0.569592,-17.516632,-0.953163,-0.533381,0.988289,-0.152298,-0.007512,-0.005867
44,0.104753,-4.388254,8.873389,3.857445,1.480428,-0.845724,-17.756357,-0.886025,-0.566685,0.987971,-0.154365,-0.006876,-0.006079
45,0.039542,-4.166229,8.914587,2.839508,0.833524,-0.111696,-17.978443,-0.833683,-0.588411,0.987673,-0.156279,-0.006383,-0.006208
46,0.034878,-4.093210,8.968317,1.591388,0.085941,0.536883,-18.192413,-0.790368,-0.582205,0.987383,-0.158121,-0.006007,-0.006107
47,0.087212,-4.035730,8.905627,1.553442,-0.188642,0.729197,-18.405161,-0.766612,-0.557967,0.987090,-0.159952,-0.005825,-0.005876
48,0.141608,-3.893838,8.944001,1.723170,-0.002464,0.634611,-18.586027,-0.758111,-0.532236,0.986838,-0.161509,-0.005779,-0.005652
49,0.148830,-3.815452,9.084937,2.233386,0.548373,0.803995,-18.714214,-0.745512,-0.509840,0.986659,-0.162611,-0.005696,-0.005448
50,0.146287,-3.734047,9.218217,3.599831,1.003075,0.587317,-18.773970,-0.717900,-0.494116,0.986576,-0.163124,-0.005478,-0.005276
51,0.160005,-3.524350,9.464404,6.979237,1.028986,1.090868,-18.701702,-0.682853,-0.477167,0.986682,-0.162500,-0.005203,-0.005077
52,0.185050,-3.367105,9.887094,10.275053,0.966371,2.380260,-18.451204,-0.643786,-0.432479,0.987039,-0.160340,-0.004940,-0.004626
53,0.180711,-3.221000,10.108761,15.406811,0.674853,4.580621,-18.010267,-0.595344,-0.331068,0.987655,-0.156535,-0.004679,-0.003667
54,0.286508,-3.040780,10.212808,19.816965,-0.007360,5.815051,-17.378876,-0.558661,-0.170064,0.988508,-0.151084,-0.004595,-0.002204
55,0.272943,-2.988953,10.255941,23.514547,-0.541617,6.449775,-16.605314,-0.546203,0.027145,0.989508,-0.144399,-0.004751,-0.000454
56,0.313681,-2.843068,9.965447,24.300589,-0.013855,5.517370,-15.772529,-0.543074,0.220348,0.990531,-0.137196,-0.004958,0.001254
57,0.341945,-2.564503,9.439679,20.737682,1.527064,2.602774,-14.996946,-0.538042,0.343164,0.991435,-0.130484,-0.005046,0.002356
58,0.297931,-2.420918,9.168621,11.437248,3.425043,-0.259938,-14.444631,-0.505106,0.359094,0.992053,-0.125704,-0.004767,0.002555
59,-0.014942,-2.295738,8.880676,2.251195,4.706754,-3.295022,-14.212508,-0.402384,0.267753,0.992311,-0.123701,-0.003774,0.001884
60,-0.255829,-2.263927,8.912623,-7.443019,6.559489,-6.630628,-14.299798,-0.207210,0.061084,0.992222,-0.124464,-0.001861,0.000304
61,-0.424076,-2.447859,9.085090,-15.835693,7.788342,-9.224578,-14.704411,0.057633,-0.255097,0.991776,-0.127967,0.000784,-0.002143
62,-0.570100,-2.795593,9.154468,-21.286617,8.440531,-8.173055,-15.387960,0.371244,-0.606613,0.990980,-0.133862,0.003919,-0.004812
63,-0.726386,-2.996271,9.413952,-22.370495,8.435149,-5.784790,-16.212936,0.727853,-0.909374,0.989964,-0.140956,0.007407,-0.006961
64,-0.660456,-3.298846,9.402598,-22.267294,8.603694,-1.551683,-17.072081,1.108341,-1.111171,0.988844,-0.148325,0.011004,-0.008153
65,-0.431056,-3.514937,8.837650,-21.761490,7.581783,3.111666,-17.968102,1.467937,-1.171968,0.987620,-0.156009,0.014249,-0.008101
66,-0.193124,-3.813147,8.712279,-22.150143,6.200946,6.528226,-18.911749,1.761099,-1.097885,0.986275,-0.164116,0.016732,-0.006925
68,-0.106683,-4.032370,8.308990,-20.073147,3.495356,7.336884,-19.873127,1.961062,-0.940830,0.984846,-0.172388,0.018272,-0.005133
69,0.063429,-4.261569,7.813489,-19.345385,1.709705,5.902345,-20.850311,2.047378,-0.773950,0.983335,-0.180799,0.018792,-0.003409
70,0.335749,-4.597709,7.949236,-19.307570,2.214179,3.033309,-21.862444,2.027864,-0.670276,0.981705,-0.189496,0.018483,-0.002387
71,0.276501,-4.785312,8.097419,-18.097839,2.709372,-0.607906,-22.857191,1.956712,-0.674605,0.980033,-0.198016,0.017902,-0.002386
72,0.074292,-4.887943,7.883592,-15.856560,3.024676,-2.739922,-23.792576,1.895855,-0.774139,0.978389,-0.205999,0.017580,-0.003199
73,-0.124989,-5.044184,8.462487,-13.674615,3.649989,-3.643467,-24.620657,1.879817,-0.926601,0.976872,-0.213041,0.017750,-0.004402
74,-0.220323,-5.379333,8.494798,-7.699096,3.219531,-3.303305,-25.288013,1.898052,-1.089371,0.975605,-0.218699,0.018241,-0.005649
75,-0.437930,-5.484023,8.278287,-2.233360,0.877261,-2.396954,-25.788742,1.919451,-1.215341,0.974631,-0.222937,0.018693,-0.006599
76,-0.443595,-5.751525,8.353278,2.447944,-0.335706,-0.481913,-26.139372,1.932579,-1.274399,0.973939,-0.225907,0.018941,-0.007018
77,-0.416345,-5.859216,8.373546,7.474045,-0.724693,1.665055,-26.338305,1.946817,-1.261274,0.973545,-0.227598,0.019048,-0.006845
78,-0.360744,-5.910119,8.212839,10.162361,-1.305992,2.640089,-26.420067,1.959653,-1.194748,0.973384,-0.228302,0.019029,-0.006241
79,-0.399155,-5.720330,8.247488,10.413828,-1.728603,3.341980,-26.441051,1.968285,-1.095428,0.973346,-0.228496,0.018906,-0.005377
80,-0.309631,-5.718213,8.289597,10.486891,-1.641585,4.085061,-26.430199,1.976228,-0.971228,0.973372,-0.228423,0.018725,-0.004308
81,-0.200235,-5.446212,8.309625,10.445662,-2.241343,3.537159,-26.387436,1.954043,-0.839290,0.973465,-0.228083,0.018272,-0.003238
82,-0.150788,-5.300577,8.415019,9.315166,-2.613824,2.345284,-26.316650,1.885816,-0.724496,0.973617,-0.227506,0.017463,-0.002410
83,-0.032043,-5.140632,8.479583,8.662481,-2.035740,0.335479,-26.237928,1.778434,-0.657642,0.973788,-0.226856,0.016416,-0.002066
84,0.061825,-5.091972,8.643490,8.241898,-1.100690,-2.979034,-26.147709,1.632501,-0.680339,0.973983,-0.226097,0.015219,-0.002560
85,0.076729,-4.917746,8.670225,7.775691,-0.660080,-6.861204,-26.044308,1.446570,-0.819690,0.974201,-0.225216,0.013910,-0.004124
86,0.254120,-4.900817,9.081546,6.056903,0.201614,-7.278021,-25.937874,1.233812,-1.031628,0.974418,-0.224306,0.012512,-0.006356
87,0.244488,-4.590360,8.695401,6.654629,0.776376,-9.077348,-25.818468,1.014678,-1.286328,0.974648,-0.223287,0.011138,-0.008963
88,0.021929,-4.447396,8.829848,5.338989,1.123934,-9.130934,-25.681700,0.832245,-1.574872,0.974896,-0.222120,0.010135,-0.011785
89,-0.077679,-4.302599,8.973752,5.389257,0.141096,-6.749035,-25.523962,0.705083,-1.823120,0.975176,-0.220774,0.009514,-0.014157
90,-0.108561,-4.156518,9.079616,5.825775,0.403510,-5.325366,-25.318523,0.617216,-2.008590,0.975547,-0.219024,0.009096,-0.015921
91,-0.295000,-4.014651,8.734519,6.515656,-0.124361,-5.778517,-25.082096,0.564714,-2.177638,0.975973,-0.217006,0.008936,-0.017479
92,-0.382722,-4.088427,9.199444,5.166921,-0.421657,-3.741284,-24.852230,0.546843,-2.317069,0.976384,-0.215040,0.009010,-0.018718
93,-0.112597,-4.025194,9.012960,5.992645,-1.115792,-1.681207,-24.627193,0.521587,-2.387856,0.976793,-0.213121,0.008890,-0.019386
94,-0.087001,-3.960194,8.832158,5.164198,-0.537458,-1.336342,-24.415220,0.477769,-2.421892,0.977180,-0.211319,0.008543,-0.019774
95,-0.184389,-3.699396,8.897626,3.676662,-1.375134,0.337627,-24.219662,0.454615,-2.423507,0.977539,-0.209656,0.008315,-0.019845
96,-0.196505,-3.732626,8.837835,3.025421,-1.278875,2.000945,-24.041668,0.458073,-2.369236,0.977872,-0.208140,0.008215,-0.019388
97,-0.124196,-3.764146,8.910438,2.488552,-1.606855,2.931804,-23.897692,0.468308,-2.274103,0.978149,-0.206916,0.008106,-0.018568
98,-0.195059,-3.826101,9.033775,2.104235,-1.693742,3.069179,-23.776802,0.478184,-2.159992,0.978385,-0.205891,0.007966,-0.017584
99,-0.068048,-3.801754,9.107119,1.507814,-1.675376,2.728924,-23.672712,0.477908,-2.048536,0.978588,-0.205010,0.007748,-0.016640
100,0.156818,-4.070271,9.054225,1.227104,-1.280301,1.804152,-23.614235,0.432544,-1.959478,0.978705,-0.204523,0.007193,-0.015965
101,0.092950,-4.029647,9.131057,0.859280,-0.876155,-0.335294,-23.594463,0.360489,-1.922800,0.978745,-0.204367,0.006509,-0.015781
102,-0.043480,-3.974559,9.008311,0.566259,-0.033946,-1.728509,-23.579432,0.310456,-1.948323,0.978768,-0.204245,0.006125,-0.016089
103,0.235428,-3.967509,9.072281,-0.045663,1.256817,-0.771828,-23.576300,0.275388,-1.994704,0.978767,-0.204221,0.005908,-0.016548
104,-0.035420,-4.065157,9.012043,-0.151028,1.920428,-1.177797,-23.595329,0.274617,-2.045742,0.978726,-0.204381,0.005995,-0.016984
105,-0.318767,-3.884574,8.947314,-0.250273,1.980085,-0.428504,-23.614307,0.355272,-2.096364,0.978685,-0.204528,0.006777,-0.017272
106,-0.305770,-3.749453,9.046770,-0.319994,1.738161,0.719300,-23.529512,0.566701,-2.116012,0.978833,-0.203767,0.008605,-0.017068
107,-0.190777,-3.758843,9.087921,0.398091,1.030884,1.693177,-23.347925,0.789858,-2.095550,0.979153,-0.202180,0.010449,-0.016513
108,-0.603770,-3.734655,9.014215,0.864290,0.202037,0.521820,-23.168083,1.097885,-2.067260,0.979462,-0.200594,0.013006,-0.015747
109,-0.372402,-3.613920,9.156590,1.586573,-0.378189,0.966369,-23.022572,1.356338,-2.040773,0.979703,-0.199309,0.015150,-0.015087
110,-0.318479,-3.663565,9.267702,3.389012,-0.431452,1.824009,-22.874313,1.394206,-1.991100,0.979964,-0.198041,0.015368,-0.014616
111,-0.232880,-3.711936,9.273104,5.885687,-1.060095,3.627676,-22.665125,1.415119,-1.896367,0.980334,-0.196261,0.015358,-0.013798
112,-0.214157,-3.694942,9.356791,7.845201,-1.438552,4.508129,-22.387478,1.423325,-1.754014,0.980823,-0.193903,0.015154,-0.012603
113,-0.000878,-3.919359,9.469997,9.426166,-2.204722,4.863608,-22.074244,1.392591,-1.585988,0.981369,-0.191247,0.014576,-0.011257
114,-0.066359,-4.174942,9.447595,11.159425,-3.660688,4.947433,-21.765549,1.312084,-1.398944,0.981904,-0.188636,0.013548,-0.009826
115,0.077403,-4.352664,9.436278,12.521580,-5.359306,3.860857,-21.465950,1.168922,-1.209610,0.982420,-0.186106,0.011987,-0.008471
116,0.162327,-4.400432,9.480588,13.264037,-5.930364,1.191854,-21.167421,0.945240,-1.065954,0.982926,-0.183582,0.009816,-0.007629
117,0.187497,-4.595693,9.617548,14.131474,-5.805622,-2.810814,-20.872738,0.669488,-1.024337,0.983410,-0.181082,0.007365,-0.007733
118,0.082304,-4.392855,9.315598,17.199202,-5.207753,-8.366837,-20.533676,0.367801,-1.136644,0.983941,-0.178192,0.004926,-0.009188
119,0.143199,-4.062345,9.059984,18.065094,-3.501992,-14.240214,-20.113503,0.052420,-1.441470,0.984558,-0.174604,0.002647,-0.012306
120,-0.086182,-3.825350,8.586998,16.570431,-0.384595,-18.299204,-19.692165,-0.208245,-1.930154,0.985124,-0.171008,0.001090,-0.016906
121,-0.252390,-3.753850,8.766979,12.452717,3.219855,-18.039719,-19.359713,-0.320584,-2.516430,0.985511,-0.168162,0.000935,-0.022116
122,-0.189700,-3.316835,8.694675,9.363722,4.627072,-15.118985,-19.097483,-0.312374,-3.080595,0.985773,-0.165898,0.001772,-0.026960
123,-0.231431,-2.997944,8.929601,5.600687,5.274381,-9.451586,-18.866564,-0.222685,-3.521151,0.986000,-0.163880,0.003119,-0.030626
124,-0.108630,-2.886385,9.257648,4.955439,5.372295,-3.939858,-18.646553,-0.072553,-3.789534,0.986247,-0.161937,0.004732,-0.032730
125,0.128299,-2.701511,9.707615,7.224974,4.328583,0.352577,-18.346884,0.066223,-3.897657,0.986642,-0.159312,0.005992,-0.033480
126,0.103808,-2.496924,9.384953,11.524186,0.809667,1.747229,-17.898186,0.130803,-3.891137,0.987263,-0.155429,0.006408,-0.033359
127,0.157659,-2.550595,9.283386,14.668217,-1.630461,3.216639,-17.336908,0.106477,-3.808113,0.988035,-0.150603,0.005926,-0.032706
128,0.265296,-2.546809,9.348594,16.031351,-3.414541,3.906272,-16.728674,0.003781,-3.670206,0.988856,-0.145392,0.004691,-0.031678
129,0.127015,-2.456866,9.459027,16.239321,-4.609582,6.425500,-16.102243,-0.126266,-3.467711,0.989685,-0.140025,0.003147,-0.030113
130,-0.069090,-2.321939,9.536012,16.712833,-5.639602,8.488544,-15.458392,-0.227481,-3.182406,0.990523,-0.134494,0.001768,-0.027783
131,-0.209809,-2.218036,9.652392,17.369495,-5.306753,11.668626,-14.789213,-0.274809,-2.810519,0.991375,-0.128721,0.000779,-0.024628
132,-0.203288,-2.202789,9.718993,16.965599,-5.056211,14.023206,-14.124663,-0.274951,-2.352605,0.992195,-0.122972,0.000143,-0.020668
133,-0.223724,-2.397007,9.474696,15.250661,-5.551831,15.010557,-13.549623,-0.267642,-1.840059,0.992882,-0.117989,-0.000425,-0.016220
134,-0.217268,-2.681708,9.147832,11.058646,-6.073378,13.684608,-13.173174,-0.279618,-1.329165,0.993327,-0.114725,-0.001093,-0.011802
135,0.107294,-2.839080,9.122516,4.438463,-6.210591,12.132774,-13.061201,-0.355939,-0.862685,0.993476,-0.113753,-0.002230,-0.007833
136,0.292705,-3.022906,9.241630,-3.105140,-5.925420,8.494933,-13.232656,-0.510564,-0.480712,0.993319,-0.115237,-0.003942,-0.004680
137,-0.065031,-3.079323,9.292027,-10.029320,-6.065855,6.058027,-13.665749,-0.658236,-0.196527,0.992878,-0.118981,-0.005499,-0.002386
138,-0.272085,-2.834373,9.320957,-14.554555,-5.276635,6.828704,-14.252280,-0.724119,0.058907,0.992256,-0.124048,-0.006334,-0.000274
139,0.190823,-2.799311,9.562085,-17.263626,-3.495691,8.746845,-14.896856,-0.761041,0.347691,0.991538,-0.129610,-0.006979,0.002148
140,0.287962,-2.618141,9.726827,-18.214512,-2.531433,7.040831,-15.538524,-0.814973,0.628749,0.990786,-0.135140,-0.007788,0.004475
141,0.092421,-2.446610,9.675641,-16.834949,-3.381432,4.475732,-16.101204,-0.869736,0.840201,0.990097,-0.139985,-0.008542,0.006197
142,0.440792,-2.318871,9.648406,-13.549225,-1.989926,3.015376,-16.527994,-0.949509,0.984005,0.989556,-0.143654,-0.009434,0.007307
143,0.708758,-2.523415,9.859322,-9.500449,0.144375,-0.065614,-16.814196,-1.062954,1.038797,0.989183,-0.146110,-0.010501,0.007611
144,0.266588,-2.288458,9.833037,-4.874759,0.403439,-4.379518,-16.929983,-1.148276,0.963404,0.989034,-0.147109,-0.011148,0.006840
145,-0.065299,-2.590343,9.775060,-0.601563,0.546985,-2.554490,-16.898203,-1.144476,0.845903,0.989081,-0.146847,-0.010963,0.005834
146,0.207357,-2.823487,9.740664,3.031958,2.517104,1.585385,-16.798367,-1.069208,0.814499,0.989216,-0.145993,-0.010268,0.005668
147,0.184536,-2.888801,9.749802,5.175990,2.611713,3.765930,-16.641270,-0.961598,0.874917,0.989419,-0.144640,-0.009408,0.006340
148,0.045110,-2.916476,9.582249,5.800095,0.683016,4.567063,-16.460064,-0.854110,0.992433,0.989646,-0.143074,-0.008616,0.007504
149,0.162190,-2.952685,9.339717,5.752648,-0.273679,6.859023,-16.298674,-0.781160,1.173743,0.989837,-0.141674,-0.008200,0.009173
150,0.296477,-2.774984,9.201594,4.496649,-0.405017,7.434268,-16.163626,-0.747901,1.406102,0.989984,-0.140494,-0.008186,0.011231
151,0.198912,-2.604042,9.114110,1.704178,-1.255102,5.741975,-16.068665,-0.743509,1.624788,0.990077,-0.139658,-0.008406,0.013132
152,0.162028,-2.603725,9.042826,0.388854,-1.441334,5.339110,-16.031599,-0.750141,1.814637,0.990099,-0.139323,-0.008689,0.014767
153,0.071059,-2.393753,9.112144,0.234873,-0.956082,6.475925,-15.996328,-0.732643,2.014591,0.990115,-0.139006,-0.008776,0.016519
154,-0.012809,-2.651334,9.171835,0.990329,-1.136027,8.632089,-15.954277,-0.673397,2.265967,0.990129,-0.138633,-0.008562,0.018766
155,-0.167738,-2.782547,9.273324,2.172830,-1.875854,9.767448,-15.923164,-0.585862,2.574874,0.990114,-0.138359,-0.008174,0.021543
156,-0.111619,-2.765888,9.238274,4.794215,-2.667518,12.727828,-15.841729,-0.495380,2.956623,0.990136,-0.137648,-0.007835,0.024957
157,-0.065824,-3.008454,9.174839,4.073659,-3.480623,14.137847,-15.761328,-0.427637,3.416037,0.990124,-0.136938,-0.007782,0.029013
158,0.024816,-3.015051,9.368098,2.840255,-3.466773,14.581929,-15.741099,-0.384701,3.908924,0.990014,-0.136742,-0.007994,0.033324
159,0.063998,-2.509924,9.432943,1.822333,-3.311100,11.105880,-15.692115,-0.371356,4.351855,0.989936,-0.136291,-0.008391,0.037170
160,0.156720,-2.735899,9.485402,-0.344435,-3.369138,7.150666,-15.660465,-0.407456,4.674840,0.989865,-0.135980,-0.009076,0.039920
161,0.331700,-2.730363,9.499530,-0.573404,-2.331715,1.379559,-15.693198,-0.503204,4.837530,0.989770,-0.136215,-0.010108,0.041208
162,0.259642,-2.379744,9.693944,0.685644,-0.241447,-5.444451,-15.659104,-0.614899,4.783595,0.989831,-0.135884,-0.010996,0.040613
163,0.157158,-2.524223,9.548542,1.374123,0.699920,-10.821851,-15.564491,-0.707246,4.519811,0.990033,-0.135060,-0.011450,0.038234
164,0.125663,-2.926042,9.592047,1.140598,2.241074,-13.432718,-15.528836,-0.774826,4.117350,0.990203,-0.134769,-0.011548,0.034680
165,0.131979,-2.324493,9.638116,2.245428,4.156111,-13.638719,-15.454254,-0.792669,3.653855,0.990422,-0.134165,-0.011137,0.030661
166,-0.081326,-2.551898,9.571632,0.881511,4.388180,-12.787220,-15.344019,-0.745599,3.190691,0.990668,-0.133268,-0.010162,0.026722
167,-0.048176,-2.818788,9.323537,0.298508,3.857388,-11.070489,-15.339061,-0.670631,2.771123,0.990766,-0.133278,-0.009025,0.023183
168,0.038751,-2.616139,9.306085,-0.859861,3.350928,-8.896004,-15.382806,-0.612414,2.418856,0.990783,-0.133694,-0.008120,0.020202
169,0.058139,-2.495941,9.417862,-3.609560,2.903903,-5.899066,-15.450886,-0.562650,2.153372,0.990749,-0.134309,-0.007391,0.017960
171,0.039985,-2.677059,9.125978,-4.308471,2.340896,-4.592857,-15.588534,-0.512923,1.961523,0.990617,-0.135519,-0.006755,0.016351
172,0.240617,-2.686511,9.360041,-5.616327,2.295059,-2.056783,-15.780423,-0.480644,1.834187,0.990407,-0.137190,-0.006351,0.015278
173,0.050957,-2.638951,9.407341,-6.194686,1.286350,-0.790286,-15.983335,-0.451272,1.772346,0.990171,-0.138951,-0.006050,0.014768
174,0.299758,-2.812101,9.261390,-6.939420,1.350325,-0.192155,-16.218607,-0.437379,1.744603,0.989887,-0.140987,-0.005926,0.014533
175,0.184104,-2.840456,8.878570,-5.525140,1.292137,-1.156596,-16.476671,-0.443473,1.711204,0.989571,-0.143217,-0.005969,0.014224
176,0.349687,-3.096206,8.663820,-8.833837,-0.028031,-1.429805,-16.813656,-0.486190,1.664845,0.989151,-0.146123,-0.006321,0.013752
177,0.373715,-2.989997,7.981483,-10.754169,-0.022305,-4.043822,-17.283089,-0.592053,1.579526,0.988551,-0.150166,-0.007178,0.012851
178,0.471197,-3.285895,7.398420,-16.671259,1.751869,-2.551602,-17.954655,-0.697072,1.469025,0.987663,-0.155951,-0.008008,0.011713
179,0.184089,-3.483863,7.231236,-21.209335,1.605041,-4.385855,-18.884005,-0.750693,1.346409,0.986376,-0.163958,-0.008389,0.010515
180,0.096461,-3.325311,7.378940,-33.070190,1.357780,-4.031840,-20.059767,-0.762400,1.201590,0.984653,-0.174080,-0.008377,0.009167
181,-0.003368,-3.559415,7.714961,-41.108292,1.028258,-3.424480,-21.503933,-0.751727,1.073895,0.982391,-0.186485,-0.008193,0.007983
182,-0.152537,-3.700151,8.158442,-47.868935,1.591564,-0.935591,-23.143703,-0.686778,0.991119,0.979630,-0.200535,-0.007606,0.007271
183,0.051777,-3.588596,8.631607,-50.400681,0.433589,-1.649640,-24.828915,-0.630086,0.937322,0.976580,-0.214927,-0.007128,0.006806
184,0.179169,-3.701151,8.969177,-54.488331,1.407125,-3.348002,-26.513737,-0.639750,0.847711,0.973319,-0.229267,-0.007130,0.005920
185,-0.053682,-4.138540,8.952235,-50.268719,2.550093,-3.203018,-28.172329,-0.620225,0.719507,0.969906,-0.243339,-0.006778,0.004773
186,0.147671,-4.364970,8.704687,-46.700764,4.152382,-1.135361,-29.719410,-0.542798,0.601018,0.966539,-0.256423,-0.005923,0.003855
187,0.275473,-4.781917,8.559760,-42.524094,4.228561,-2.778851,-31.161978,-0.482936,0.474181,0.963240,-0.268579,-0.005171,0.002854
188,-0.234841,-5.125877,8.616254,-39.026573,4.526184,-1.196425,-32.500278,-0.377955,0.340975,0.960042,-0.279819,-0.003999,0.001934
189,-0.208266,-5.580578,8.069269,-30.124506,2.632812,2.409525,-33.688965,-0.195864,0.291856,0.957092,-0.289769,-0.002374,0.001942
190,0.337781,-6.059108,8.062820,-21.453236,2.728935,1.632821,-34.661003,-0.087121,0.297349,0.954599,-0.297880,-0.001499,0.002251
191,0.050672,-5.621935,7.581089,-11.623757,4.253165,-0.891170,-35.319065,-0.025126,0.241621,0.952874,-0.303359,-0.000849,0.001943
192,-0.368996,-5.827843,7.710605,-12.741115,4.894222,-1.472427,-35.801479,0.117643,0.121000,0.951589,-0.307370,0.000652,0.001320
193,0.121102,-5.936772,7.466576,-13.536587,4.830250,-5.155930,-36.332653,0.212090,-0.064228,0.950154,-0.311775,0.001933,0.000044
194,-0.170658,-5.834265,7.985469,-19.634445,5.989948,-7.302911,-36.938652,0.231552,-0.338636,0.948489,-0.316789,0.002853,-0.002163
195,-0.550529,-5.704921,7.828973,-24.265522,4.642872,-6.976126,-37.650112,0.307474,-0.635831,0.946495,-0.322659,0.004330,-0.004386
196,-0.427414,-6.494495,8.580283,-31.588287,2.432219,-6.775915,-38.553661,0.362566,-0.890330,0.943909,-0.330098,0.005551,-0.006289
197,0.009016,-6.294972,8.322149,-27.556591,1.026970,-5.997594,-39.499294,0.305436,-1.092887,0.941141,-0.337870,0.005731,-0.008075
198,-0.180269,-6.570353,8.590849,-24.551674,0.883550,-4.431975,-40.294636,0.223303,-1.246395,0.938760,-0.344394,0.005576,-0.009540
199,-0.006355,-6.444311,8.192678,-17.901255,1.255912,-3.261559,-40.915199,0.176509,-1.366678,0.936870,-0.349472,0.005611,-0.010636
200,0.219254,-6.881127,8.051380,-15.436626,1.008589,-2.819146,-41.418930,0.105941,-1.467453,0.935313,-0.353589,0.005393,-0.011651
201,0.290922,-6.459501,7.696697,-11.284394,2.134477,-3.435834,-41.826687,0.010711,-1.579666,0.934033,-0.356920,0.005008,-0.012843
202,0.082055,-6.871243,7.653378,-10.528923,2.550881,-2.132848,-42.162678,-0.039762,-1.700478,0.932966,-0.359658,0.005014,-0.013971
203,0.057806,-6.566432,7.400378,-9.436311,1.951133,-2.015405,-42.485199,-0.046755,-1.801949,0.931937,-0.362279,0.005317,-0.014804
204,0.246638,-6.986848,7.309106,-10.203918,0.461703,-1.206780,-42.825859,-0.087845,-1.868548,0.930845,-0.365050,0.005239,-0.015460
205,0.214267,-6.706927,7.300997,-8.308817,0.734652,-1.869208,-43.154453,-0.160366,-1.919351,0.929783,-0.367725,0.004858,-0.016090
206,0.132513,-7.120097,7.204557,-6.935617,0.752830,-2.668916,-43.434391,-0.230394,-1.991116,0.928867,-0.370001,0.004562,-0.016885
207,0.285094,-6.980035,7.380763,-5.835578,1.103643,-4.878595,-43.677418,-0.335603,-2.103359,0.928054,-0.371981,0.004110,-0.018126
208,0.147853,-7.056454,7.328563,-4.241008,1.991591,-5.563870,-43.848541,-0.457710,-2.264594,0.927460,-0.373378,0.003674,-0.019823
209,0.191484,-6.754963,7.554594,-3.499220,2.426395,-4.889493,-43.938362,-0.548787,-2.441459,0.927126,-0.374113,0.003530,-0.021548
210,0.293810,-6.844831,7.588593,-3.558321,1.164329,-2.908969,-43.972652,-0.631778,-2.577276,0.926978,-0.374400,0.003308,-0.022917
211,0.146939,-6.629084,7.620852,-3.510514,-0.569216,0.838605,-43.989262,-0.675710,-2.610031,0.926912,-0.374541,0.003063,-0.023325
212,0.101758,-6.634747,7.583052,-2.640136,-2.465945,4.950962,-43.973049,-0.647318,-2.506830,0.926989,-0.374408,0.002953,-0.022398
213,0.530134,-6.809792,7.677753,-1.569921,-4.007291,8.880054,-43.937489,-0.611096,-2.267256,0.927154,-0.374120,0.002457,-0.020342
214,0.256157,-6.790236,7.508974,0.217376,-4.729286,9.735868,-43.875645,-0.566427,-1.943752,0.927414,-0.373620,0.001752,-0.017580
215,0.220403,-6.712811,7.629611,1.644569,-5.046790,11.389859,-43.757359,-0.471805,-1.577857,0.927858,-0.372657,0.001310,-0.014311
216,0.333891,-7.022964,7.602629,3.350924,-6.208171,11.662848,-43.602993,-0.384924,-1.171214,0.928410,-0.371402,0.000677,-0.010737
217,0.347795,-7.200864,7.841409,4.629865,-6.269423,10.576182,-43.429573,-0.340123,-0.759705,0.929005,-0.369995,-0.000305,-0.007257
218,0.037213,-7.592546,7.782221,5.208210,-6.411435,9.572028,-43.264088,-0.291327,-0.370590,0.929560,-0.368649,-0.001171,-0.003943
219,0.052098,-7.735388,8.444984,-2.641160,-7.291880,8.766352,-43.224880,-0.244615,0.008533,0.929694,-0.368325,-0.002012,-0.000717
220,0.177216,-7.929687,9.137584,-10.065996,-9.013165,7.624917,-43.374935,-0.266623,0.393438,0.929208,-0.369533,-0.003431,0.002331
221,-0.101520,-8.073177,9.608243,-12.395500,-8.204413,5.860956,-43.634388,-0.317069,0.753488,0.928357,-0.371620,-0.005012,0.005076
222,-0.060426,-8.242331,10.061628,-13.969459,-5.015127,3.492811,-43.916107,-0.340913,1.017549,0.927427,-0.373887,-0.006079,0.007123
223,-0.161065,-8.339556,10.300551,-9.787462,-0.673744,0.607398,-44.120598,-0.327815,1.131362,0.926751,-0.375536,-0.006359,0.008076
224,-0.406330,-8.637446,9.584868,-4.267460,3.408346,0.427566,-44.208675,-0.217097,1.111024,0.926462,-0.376259,-0.005403,0.008270
225,-0.399729,-8.609974,8.908062,6.525647,10.038806,2.010254,-44.123375,0.059406,0.983792,0.926744,-0.375595,-0.002744,0.008151
226,-0.203101,-8.042263,8.582058,22.332830,12.671252,4.473316,-43.618938,0.469589,0.799857,0.928383,-0.371536,0.001211,0.008003
227,-0.523669,-7.852934,7.659379,36.136234,9.796649,6.782269,-42.669109,0.937800,0.681470,0.931407,-0.363840,0.005459,0.008517
228,-0.283499,-6.953563,6.938022,45.218075,8.031384,8.323663,-41.407162,1.389407,0.670047,0.935312,-0.353568,0.009274,0.009756
229,0.143895,-6.234900,6.766841,52.505512,6.972273,6.269655,-39.854092,1.705057,0.690737,0.939976,-0.340864,0.011934,0.010737
230,0.039768,-6.101838,6.672578,52.123638,3.781236,3.177834,-38.190350,1.855024,0.696280,0.944803,-0.327182,0.013309,0.011037
231,0.078425,-5.857066,6.669696,47.688698,2.799727,-3.152002,-36.647823,1.852618,0.624330,0.949129,-0.314427,0.013634,0.010254
232,0.461081,-5.024334,6.675661,40.730125,7.177002,-5.801480,-35.252522,1.745841,0.400915,0.952919,-0.302821,0.013460,0.007947
233,0.351099,-4.680905,6.590321,28.658485,7.530241,-7.102136,-34.115074,1.632216,0.079900,0.955911,-0.293312,0.013412,0.004845
234,0.104744,-4.521844,6.576322,23.212404,7.123780,-6.568457,-33.270855,1.570947,-0.248289,0.958062,-0.286225,0.013755,0.001849
235,0.167379,-3.891188,6.569118,22.730442,8.092286,-9.606869,-32.468620,1.529069,-0.612806,0.960047,-0.279469,0.014306,-0.001404
236,-0.053617,-4.001826,6.258568,16.327921,6.118917,-7.702732,-31.775318,1.494092,-0.982998,0.961714,-0.273611,0.014888,-0.004681
237,-0.465306,-4.087977,6.450490,15.381773,2.417103,-8.787621,-31.269821,1.489813,-1.292396,0.962895,-0.269326,0.015558,-0.007356
238,-0.314333,-3.432211,6.802723,21.142550,0.226123,-7.371396,-30.586308,1.448954,-1.543305,0.964469,-0.263548,0.015747,-0.009655
239,-0.701916,-3.677528,7.153914,24.546179,-2.591876,-0.803560,-29.663578,1.438733,-1.636125,0.966553,-0.255763,0.015790,-0.010587
240,-0.534079,-4.060781,7.768921,27.044682,-4.990136,2.845233,-28.688320,1.461789,-1.540032,0.968701,-0.247537,0.015687,-0.009859
241,-0.383205,-4.053934,8.260401,36.246494,-6.041235,7.114934,-27.531609,1.439996,-1.302986,0.971171,-0.237781,0.014910,-0.008053
242,-0.373174,-3.795843,8.310712,43.638649,-7.127533,11.112962,-26.076000,1.419227,-0.929003,0.974137,-0.225475,0.013894,-0.005104
243,-0.332232,-4.565107,8.960467,40.307774,-7.728622,12.081994,-24.623060,1.389751,-0.471765,0.976933,-0.213161,0.012726,-0.001436
244,0.045492,-4.161635,9.075193,42.562992,-6.305046,8.621142,-23.251965,1.291849,-0.061890,0.979423,-0.201503,0.011151,0.001743
245,-0.315877,-3.922562,8.813940,39.599567,-6.881945,10.281301,-21.890465,1.187161,0.312197,0.981747,-0.189887,0.009654,0.004642
246,-0.243136,-3.568276,8.834678,29.056860,-5.584825,8.299156,-20.756454,1.124395,0.676063,0.983565,-0.180190,0.008589,0.007570
247,-0.088612,-3.847482,9.098056,20.853249,-4.799004,7.850519,-19.966051,1.048897,0.987821,0.984768,-0.173420,0.007520,0.010076
248,-0.521758,-3.779514,9.049549,20.094357,-4.226644,7.563683,-19.379669,1.022871,1.278553,0.985616,-0.168395,0.006920,0.012500
249,-0.424376,-3.546115,8.888455,18.395473,-4.027925,6.225562,-18.838898,1.041352,1.539491,0.986367,-0.163760,0.006765,0.014740
250,-0.532042,-3.441448,9.091715,13.695181,-2.730531,5.331485,-18.388760,1.071242,1.757045,0.986970,-0.159900,0.006777,0.016628
251,-0.685102,-3.304790,9.063795,12.863184,-2.406530,6.358594,-18.015530,1.156658,1.968181,0.987444,-0.156708,0.007279,0.018542
252,-0.759899,-3.170389,9.167203,8.700178,-2.785860,8.188379,-17.706858,1.280162,2.225168,0.987804,-0.154083,0.008048,0.020904
253,-0.413542,-2.769286,8.957214,5.982450,-4.318962,7.005933,-17.466896,1.339040,2.502745,0.988064,-0.152044,0.008231,0.023358
254,-0.478787,-2.976159,9.568786,-1.755442,-4.349219,5.370226,-17.376040,1.317991,2.743430,0.988135,-0.151273,0.007750,0.025399
255,-0.205884,-2.901287,9.070345,1.169739,-5.472169,5.000992,-17.384619,1.240975,2.957319,0.988085,-0.151345,0.006802,0.027143
256,-0.083801,-2.960721,9.024137,-2.578053,-4.494130,2.049825,-17.428606,1.100623,3.118641,0.988005,-0.151703,0.005368,0.028351
257,0.139936,-2.815657,9.002552,-6.774422,-3.389627,-2.987341,-17.599056,0.914729,3.143094,0.987793,-0.153132,0.003690,0.028322
258,0.018969,-3.303419,8.999206,-12.004029,-1.847211,-4.879585,-17.965515,0.729617,3.044399,0.987340,-0.156246,0.002139,0.027232
259,0.205142,-3.441459,8.514509,-11.781930,-0.640503,-4.994136,-18.501022,0.575529,2.899746,0.986646,-0.160823,0.000888,0.025780
260,0.004757,-3.671643,8.836766,-20.932222,0.085583,-3.997800,-19.216171,0.463960,2.759738,0.985662,-0.166954,-0.000028,0.024419
261,-0.037330,-3.516116,8.638377,-21.595203,-0.543178,-5.081240,-20.071581,0.388340,2.618959,0.984423,-0.174293,-0.000646,0.023093
262,-0.187514,-3.299896,8.342810,-24.867249,0.929397,-4.022231,-20.939316,0.353251,2.473840,0.983105,-0.181737,-0.000892,0.021787
263,-0.332968,-3.157407,8.177159,-32.902946,1.767387,-1.565396,-21.937851,0.415801,2.369964,0.981500,-0.190308,-0.000373,0.020993
264,-0.482464,-3.267977,8.033235,-45.607841,0.750039,-1.173058,-23.254509,0.532384,2.310088,0.979251,-0.201592,0.000487,0.020680
265,-0.359151,-3.419200,7.684560,-47.648098,2.439689,-4.243034,-24.828979,0.641453,2.203105,0.976399,-0.215044,0.001333,0.019978
266,-0.419286,-3.514699,7.402198,-57.038780,2.900919,0.231157,-26.601692,0.780404,2.101422,0.972961,-0.230142,0.002408,0.019412
267,-0.177611,-4.611264,7.540367,-60.832798,1.227232,-0.450821,-28.678904,0.894393,2.062573,0.968624,-0.247755,0.003103,0.019370
268,-0.233413,-4.643396,7.406275,-55.129742,2.910427,-1.581494,-30.783606,0.958307,1.995131,0.963915,-0.265509,0.003441,0.019004
269,-0.063471,-4.960224,7.301163,-47.520664,3.400264,-0.057101,-32.637077,1.035535,1.914037,0.959499,-0.281071,0.003979,0.018568
270,-0.106036,-5.325511,7.711915,-41.748650,3.729786,0.730216,-34.237953,1.121305,1.856637,0.955478,-0.294456,0.004582,0.018363
271,0.180443,-5.636640,8.043435,-28.224663,5.400457,-3.481491,-35.464222,1.166594,1.731928,0.952286,-0.304663,0.005093,0.017495
272,-0.364120,-5.583539,7.902807,-17.961344,6.489865,-1.668761,-36.249470,1.252771,1.546916,0.950192,-0.311180,0.006190,0.016229
274,-0.027787,-5.937285,8.346435,-14.047236,4.875426,-1.185047,-36.764690,1.374572,1.396562,0.948788,-0.315449,0.007539,0.015347
275,-0.089132,-5.790729,8.555256,-9.021999,5.282677,-2.639370,-37.080067,1.430474,1.245793,0.947929,-0.318052,0.008378,0.014275
276,-0.275424,-5.787809,8.228561,-10.143073,3.655972,-1.432399,-37.306698,1.492830,1.104138,0.947307,-0.319919,0.009261,0.013295
277,-0.077786,-6.134039,8.306220,-14.903666,2.381744,-1.803252,-37.668156,1.520598,1.001608,0.946301,-0.322898,0.009737,0.012555
278,-0.082267,-5.862645,8.249834,-16.325502,1.638438,-3.094312,-38.126148,1.479232,0.897960,0.945019,-0.326667,0.009641,0.011622
279,-0.311769,-6.099657,8.151387,-17.149128,1.679567,-3.045523,-38.612209,1.442891,0.785530,0.943640,-0.330662,0.009617,0.010632
280,-0.004329,-6.341448,8.235132,-17.078693,1.197278,-2.777030,-39.136700,1.395490,0.681225,0.942132,-0.334969,0.009483,0.009680
281,-0.021768,-6.332854,8.179365,-14.836861,1.599900,-3.180047,-39.621033,1.312421,0.576534,0.940725,-0.338938,0.009070,0.008615
282,-0.609987,-6.310329,8.147793,-13.899605,1.119293,-0.759868,-40.034111,1.321905,0.498807,0.939502,-0.342321,0.009349,0.008038
283,-0.346468,-6.771862,8.131719,-14.517384,-0.916085,3.683805,-40.462997,1.410688,0.534475,0.938202,-0.345838,0.009938,0.008633
284,0.127957,-6.499425,7.928571,-13.757332,-2.817514,3.309850,-40.902611,1.406603,0.664166,0.936858,-0.349446,0.009476,0.009719
285,-0.561847,-6.590126,7.707437,-13.143754,-3.107472,4.300155,-41.315998,1.408038,0.825671,0.935577,-0.352836,0.008955,0.011076
286,-0.315935,-6.555946,7.763394,-13.630367,-3.270581,4.655845,-41.726208,1.471907,1.008457,0.934280,-0.356199,0.008868,0.012797
287,-0.006273,-7.190098,7.750850,-13.886722,-3.577374,4.541326,-42.179741,1.467313,1.198778,0.932841,-0.359908,0.008182,0.014367
288,0.164426,-6.822980,7.808401,-10.345058,-2.054795,0.910884,-42.582287,1.379841,1.329593,0.931566,-0.363187,0.007006,0.015182
289,-0.285019,-7.215615,7.489061,-8.777966,-0.440534,-0.328321,-42.906864,1.310435,1.365196,0.930538,-0.365822,0.006285,0.015269
290,0.184645,-7.379733,7.534960,-9.268085,0.918907,-2.426625,-43.267838,1.240732,1.325024,0.929396,-0.368745,0.005801,0.014739
291,0.121233,-7.294891,7.372741,-7.422019,1.812783,-4.120707,-43.609203,1.110859,1.213581,0.928322,-0.371499,0.005066,0.013433
292,0.078517,-6.799762,7.159209,-6.105285,2.868463,-3.889016,-43.865433,1.002581,1.062934,0.927517,-0.373562,0.004651,0.011872
293,-0.281165,-6.901352,7.009521,-9.656176,2.857711,-2.582892,-44.143223,0.976930,0.919002,0.926626,-0.375803,0.004887,0.010635
294,-0.128835,-6.971196,7.227063,-11.397310,2.433534,0.362171,-44.506378,1.022275,0.830696,0.925434,-0.378735,0.005511,0.010087
295,-0.380540,-6.863696,7.193445,-9.857547,0.803914,1.746255,-44.839508,1.104613,0.818118,0.924322,-0.381425,0.006188,0.010276
296,-0.359565,-6.936643,7.104945,-8.835032,-0.320537,2.706221,-45.121460,1.207278,0.865252,0.923365,-0.383704,0.006832,0.011014
297,-0.465544,-7.169363,7.134895,-7.759202,-1.342731,1.323909,-45.385979,1.285375,0.932227,0.922462,-0.385840,0.007210,0.011832
298,-0.283166,-7.242098,7.136325,-4.353341,-1.727136,-0.526911,-45.587914,1.295183,0.977791,0.921774,-0.387468,0.007114,0.012244
299,-0.201504,-7.195937,7.241572,-1.716467,-2.677778,-2.147431,-45.673344,1.215021,0.999387,0.921492,-0.388154,0.006387,0.012152
300,-0.106885,-7.158143,7.414194,0.398721,-3.041009,-2.348908,-45.643974,1.078460,1.016248,0.921605,-0.387914,0.005234,0.011824
301,-0.061601,-7.332592,7.813562,2.825374,-3.117411,-2.146056,-45.503574,0.924598,1.038748,0.922093,-0.386779,0.003935,0.011479
302,0.092477,-7.432431,8.047715,4.481549,-3.750835,-1.877646,-45.272110,0.751559,1.074876,0.922884,-0.384908,0.002443,0.011181
303,0.079462,-7.419804,9.123655,-0.087669,-5.554673,-1.719129,-45.012291,0.546726,1.144901,0.923764,-0.382803,0.000583,0.011056
304,-0.024124,-7.278563,9.793368,0.855338,-7.823852,-0.048345,-44.696281,0.335357,1.284451,0.924816,-0.380238,-0.001555,0.011479
305,0.031843,-7.544011,10.266167,1.070709,-9.220149,2.908842,-44.314861,0.147393,1.520077,0.926062,-0.377135,-0.003812,0.012770
306,-0.215422,-7.642404,10.302880,3.118650,-9.052278,5.068056,-43.909527,0.028458,1.828866,0.927360,-0.373830,-0.005736,0.014895
307,-0.533911,-7.875428,10.117855,1.671976,-6.395405,7.395322,-43.543533,0.052068,2.157631,0.928501,-0.370852,-0.006562,0.017653
308,-0.526623,-8.154257,9.120034,9.175757,-2.958663,8.923119,-43.200657,0.224919,2.462944,0.929542,-0.368083,-0.006087,0.020705
309,-0.456004,-8.152465,8.152954,20.617140,0.366666,7.606563,-42.703735,0.473675,2.694544,0.931061,-0.364081,-0.004712,0.023403
310,-0.278975,-7.986112,7.245022,33.719547,3.047953,4.481680,-41.940037,0.714695,2.805046,0.933415,-0.357908,-0.002937,0.025086
311,0.006002,-7.569894,6.712865,45.580887,3.116648,-0.262411,-40.859291,0.843522,2.787854,0.936736,-0.349112,-0.001595,0.025364
312,0.351962,-7.024600,6.249478,59.442463,1.831540,-1.831333,-39.400574,0.806336,2.703277,0.941128,-0.337154,-0.001329,0.024579
313,0.298962,-6.492121,5.894203,62.379761,0.891129,-1.200002,-37.700329,0.691230,2.627895,0.946056,-0.323134,-0.001702,0.023649
314,0.167613,-5.998726,6.334239,57.776104,0.234625,0.028057,-35.991394,0.600369,2.594030,0.950786,-0.308975,-0.002011,0.023146
315,0.179312,-5.776349,6.771115,50.005028,-0.841441,1.631574,-34.407677,0.534614,2.617756,0.954967,-0.295793,-0.002301,0.023200
316,0.178143,-5.608999,6.993151,38.005760,-0.577742,3.303776,-33.123466,0.489672,2.695676,0.958211,-0.285063,-0.002610,0.023764
317,0.173585,-5.220928,8.045234,28.805523,0.091864,0.856002,-32.096584,0.453836,2.756170,0.960717,-0.276457,-0.002843,0.024207
318,0.167522,-5.008534,8.399749,25.758398,0.289975,-1.132444,-31.157501,0.395001,2.748123,0.962957,-0.268563,-0.003121,0.024024
319,0.341243,-5.065248,8.250357,12.499724,2.546477,-5.081748,-30.501856,0.302239,2.634230,0.964509,-0.263035,-0.003502,0.022870
320,0.278432,-4.774870,8.239622,4.920455,4.950942,-6.774233,-30.212206,0.218413,2.399919,0.965221,-0.260588,-0.003618,0.020715
321,0.063480,-4.170225,7.726515,4.621608,5.258945,-10.583080,-30.007174,0.165971,2.064191,0.965745,-0.258862,-0.003264,0.017773
322,0.090205,-4.211814,6.429046,1.398713,6.499390,-12.984962,-29.936356,0.108851,1.625902,0.965968,-0.258269,-0.002747,0.013952
323,0.138936,-3.995628,5.643870,4.025462,8.397452,-15.037444,-30.025255,0.046511,1.096944,0.965823,-0.259024,-0.002088,0.009351
324,-0.231451,-3.585114,5.493759,14.822029,6.903636,-12.814135,-29.887651,0.050572,0.567233,0.966167,-0.257871,-0.000850,0.004896
325,-0.049687,-3.137155,5.953801,17.483141,4.917093,-15.723951,-29.370554,0.036109,0.056682,0.967333,-0.253509,0.000179,0.000558
326,-0.185764,-3.707724,6.981391,17.793268,4.299246,-11.675586,-28.709637,-0.015936,-0.416585,0.968773,-0.247925,0.000767,-0.003556
327,-0.139669,-3.532030,8.233838,21.895674,2.408826,-8.065134,-27.904791,-0.027133,-0.758740,0.970475,-0.241112,0.001367,-0.006483
328,-0.236004,-3.614701,9.645173,23.557213,0.820545,-5.011647,-26.880077,-0.032317,-0.976384,0.972578,-0.232422,0.001706,-0.008353
329,-0.160395,-3.841973,10.080883,25.774248,1.263268,-8.783628,-25.779833,-0.056539,-1.197066,0.974746,-0.223071,0.001849,-0.010293
330,-0.776725,-4.259612,9.753994,29.022272,1.303421,-2.961989,-24.695969,0.004858,-1.390966,0.976795,-0.213832,0.002637,-0.011848
331,-0.522132,-3.815964,9.334736,31.609198,-0.150109,-0.651419,-23.589087,0.147785,-1.451234,0.978811,-0.204370,0.003851,-0.012133
332,-0.572371,-3.642154,9.143628,27.378256,-2.566592,2.254205,-22.515844,0.244608,-1.406240,0.980687,-0.195185,0.004489,-0.011619
333,-0.364965,-3.556811,8.928119,21.981335,-5.349391,4.833229,-21.637131,0.273437,-1.244941,0.982171,-0.187663,0.004383,-0.010223
334,-0.282329,-3.135786,9.013591,18.438475,-6.981808,10.428930,-20.894503,0.244261,-0.931791,0.983391,-0.181307,0.003571,-0.007610
335,-0.052963,-2.770875,9.027265,16.113617,-7.451649,9.054131,-20.186428,0.164491,-0.542158,0.984513,-0.175241,0.002242,-0.004406
336,-0.020929,-2.968386,9.224002,12.972382,-7.593558,8.663498,-19.572508,0.029821,-0.178572,0.985448,-0.169972,0.000521,-0.001491
337,-0.090570,-2.908345,9.043653,14.625386,-5.231378,6.257131,-19.027466,-0.079693,0.127029,0.986245,-0.165283,-0.000869,0.000978
338,-0.076046,-3.051179,9.015328,13.592550,-3.758756,5.591864,-18.514383,-0.136196,0.362334,0.986971,-0.160862,-0.001682,0.002930
339,-0.050609,-3.282417,8.828105,12.476936,-2.527238,3.914905,-18.112698,-0.165416,0.545892,0.987523,-0.157397,-0.002175,0.004477
340,0.083648,-3.432720,9.056231,9.481074,-1.919909,1.749622,-17.841394,-0.204403,0.658882,0.987888,-0.155054,-0.002654,0.005404
341,0.074687,-3.365971,9.174727,7.409877,-0.293329,-0.171535,-17.663158,-0.243262,0.695490,0.988126,-0.153515,-0.003029,0.005671
342,-0.094612,-3.330834,9.406553,6.814335,0.091259,-0.316479,-17.512318,-0.237442,0.689078,0.988327,-0.152214,-0.002963,0.005628
343,-0.106415,-3.085812,9.377330,5.173702,0.794872,-1.880499,-17.365242,-0.200135,0.650011,0.988524,-0.150949,-0.002583,0.005344
344,-0.199774,-3.279939,9.297882,1.180067,1.065181,-3.273599,-17.316717,-0.150007,0.559046,0.988592,-0.150534,-0.002029,0.004626
345,-0.014534,-3.198204,9.025464,-0.942940,1.588732,-3.299489,-17.401237,-0.107236,0.441534,0.988485,-0.151267,-0.001508,0.003667
346,-0.233720,-2.994913,9.021254,-5.334882,1.784224,-4.106648,-17.571474,-0.054217,0.306994,0.988263,-0.152738,-0.000877,0.002575
347,-0.215850,-3.095258,9.002049,-11.158060,1.123783,-4.127921,-17.895617,0.009888,0.161322,0.987829,-0.155535,-0.000134,0.001404
348,-0.175346,-3.019648,8.850173,-13.686763,0.780690,-4.669548,-18.358643,0.044722,0.011714,0.987194,-0.159525,0.000369,0.000163
349,-0.152583,-2.963608,8.914201,-18.064745,-0.169768,-3.442640,-18.908234,0.051787,-0.120063,0.986417,-0.164257,0.000618,-0.000959
350,-0.409866,-3.075459,8.815681,-21.235655,-1.866266,-1.303182,-19.570667,0.063317,-0.184175,0.985450,-0.169956,0.000818,-0.001490
351,0.013839,-3.043206,8.351647,-25.557156,-2.540499,1.559533,-20.366613,0.043691,-0.155971,0.984246,-0.176797,0.000616,-0.001272
352,0.064198,-3.457432,7.751979,-32.923229,-2.743508,4.754797,-21.426985,-0.014320,-0.026315,0.982569,-0.185898,-0.000080,-0.000249
353,0.014577,-4.017323,7.486917,-38.448162,-2.818333,6.286806,-22.833965,-0.042669,0.179443,0.980211,-0.197947,-0.000675,0.001461
354,0.550863,-3.917131,6.774003,-40.280724,-1.723110,5.563354,-24.436563,-0.117501,0.392172,0.977343,-0.211632,-0.001726,0.003128
355,0.175262,-4.274264,6.487129,-43.293053,0.200587,6.071278,-26.164467,-0.164769,0.582231,0.974034,-0.226339,-0.002551,0.004624
356,0.407730,-4.284630,6.094196,-47.865055,0.867026,7.151450,-28.054546,-0.134648,0.774004,0.970160,-0.242370,-0.002777,0.006268
357,0.387251,-4.581310,6.553390,-53.070103,3.559762,6.627796,-30.065092,-0.075342,0.943635,0.965747,-0.259354,-0.002771,0.007782
358,0.261360,-4.441825,7.114490,-56.760708,5.079186,5.876824,-32.077991,0.065345,1.052040,0.961032,-0.276285,-0.001989,0.008981
359,-0.123727,-5.219110,7.934155,-56.086578,5.803908,7.202801,-34.023872,0.315034,1.137758,0.956185,-0.292582,-0.000276,0.010298
360,0.298168,-5.349022,8.009594,-49.334454,5.982320,3.976912,-35.800259,0.553283,1.178726,0.951517,-0.307386,0.001433,0.011272
361,-0.063494,-5.785029,8.601861,-42.075405,7.501943,0.139076,-37.279125,0.727300,1.101899,0.947466,-0.319650,0.002940,0.011140
362,-0.177346,-5.727177,8.277075,-34.536865,5.765444,-2.447356,-38.464855,0.880404,0.937192,0.944110,-0.329440,0.004560,0.010252
363,-0.285832,-6.110937,7.860871,-32.377350,4.547838,-3.050027,-39.516178,0.978356,0.758269,0.941054,-0.338083,0.005798,0.009113
364,-0.186142,-6.119507,7.505772,-33.639194,1.950784,-5.036723,-40.599972,0.992963,0.585183,0.937826,-0.346959,0.006355,0.007796
365,-0.262552,-6.336204,7.718783,-37.981815,0.620226,-3.265079,-41.763577,0.947331,0.452882,0.934267,-0.356457,0.006315,0.006639
366,-0.355806,-6.692565,7.419558,-39.075806,-0.864376,-4.240033,-43.029785,0.893223,0.363077,0.930280,-0.366753,0.006090,0.005806
367,-0.253943,-6.990672,7.636233,-37.211098,0.007052,-5.050188,-44.296970,0.809353,0.260065,0.926178,-0.377013,0.005686,0.004765
368,-0.082018,-7.113519,7.775084,-32.057800,1.418542,-7.403152,-45.403503,0.683067,0.096544,0.922508,-0.385932,0.005174,0.003078
369,-0.057938,-7.128039,7.526235,-30.136265,4.676336,-6.054284,-46.363323,0.577963,-0.131415,0.919251,-0.393637,0.005088,0.000931
370,-0.057034,-7.298742,7.189846,-27.995089,6.907191,-7.684015,-47.274792,0.530319,-0.427750,0.916092,-0.400924,0.005736,-0.001564
371,0.039412,-7.610421,7.174247,-24.637897,8.729074,-7.154594,-48.123573,0.502069,-0.786355,0.913088,-0.407681,0.006798,-0.004480
372,0.044040,-7.809029,6.848353,-20.302744,9.382065,-7.656739,-48.876789,0.486277,-1.175501,0.910369,-0.413649,0.008107,-0.007583
373,0.198802,-7.881479,6.511272,-16.845226,10.451579,-7.423457,-49.544888,0.463209,-1.589860,0.907908,-0.418921,0.009483,-0.010903
374,0.015829,-8.105800,6.842508,-12.699479,10.695581,-9.366130,-50.079262,0.432216,-2.039414,0.905894,-0.423114,0.010949,-0.014527
375,0.124768,-8.189529,7.056644,-9.226417,9.816539,-8.311847,-50.436600,0.390269,-2.490371,0.904504,-0.425898,0.012339,-0.018209
377,-0.009372,-7.857034,7.174540,-5.795754,7.471094,-4.042420,-50.612972,0.384786,-2.842984,0.903787,-0.427251,0.013639,-0.020991
378,-0.013770,-7.820311,7.314157,-4.140971,4.426826,1.676699,-50.643917,0.466658,-3.020317,0.903643,-0.427455,0.014951,-0.022081
379,0.095205,-7.808129,7.378044,-2.071013,1.088011,6.994449,-50.586628,0.609961,-2.998445,0.903870,-0.426974,0.015989,-0.021381
380,0.124533,-8.029602,7.330650,2.100071,-2.330215,11.105117,-50.437870,0.782987,-2.789340,0.904468,-0.425792,0.016550,-0.019108
381,-0.033623,-8.228098,7.388254,7.146862,-4.437647,12.511873,-50.167400,0.974777,-2.449898,0.905527,-0.423665,0.016765,-0.015756
382,-0.066456,-8.726021,7.811421,6.887909,-5.846164,10.480770,-49.835716,1.131914,-2.070933,0.906796,-0.421067,0.016570,-0.012227
383,0.278189,-7.754368,8.813409,8.103635,-8.210049,4.132685,-49.361404,1.100432,-1.730722,0.908564,-0.417362,0.015031,-0.009713
384,-0.319990,-7.790384,9.908249,17.125418,-10.212234,3.024722,-48.527863,0.944566,-1.413359,0.911604,-0.410803,0.012582,-0.007857
385,-0.459006,-7.590155,10.352685,23.774775,-11.168920,6.171325,-47.355244,0.850511,-1.037273,0.915784,-0.401501,0.010432,-0.005309
386,-0.253680,-7.321640,10.766577,28.637468,-10.407415,11.083417,-45.949966,0.842062,-0.569626,0.920653,-0.390280,0.008706,-0.001708
387,-0.612422,-7.044769,10.561919,35.970634,-7.743016,17.167475,-44.340286,1.008706,-0.014915,0.926032,-0.377343,0.008201,0.003201
388,-0.993467,-7.878252,9.563046,47.085720,-7.208555,26.398222,-42.587429,1.441923,0.690954,0.931613,-0.363184,0.009534,0.010187
389,-0.652898,-7.913964,8.028324,47.908489,-9.002638,30.694098,-40.918537,1.987942,1.584465,0.936607,-0.349680,0.011419,0.019015
390,-0.547432,-7.726520,7.525739,50.526268,-11.135649,32.058453,-39.381233,2.464961,2.597922,0.940902,-0.337236,0.012610,0.028584
391,-0.993135,-7.355247,6.905478,52.592628,-14.429761,32.749928,-37.865475,2.892107,3.700376,0.944842,-0.324956,0.013386,0.038714
392,-0.502479,-6.892630,6.456477,51.298473,-18.644045,31.376757,-36.412060,3.168643,4.872990,0.948350,-0.313150,0.012963,0.048999
393,-0.402847,-6.130186,6.251532,46.505302,-19.739630,29.409744,-35.069687,3.235436,6.052636,0.951375,-0.302167,0.010982,0.058815
394,-0.254476,-6.032991,6.907120,37.296410,-17.572948,25.068293,-33.904747,3.193170,7.137841,0.953816,-0.292557,0.008456,0.067629
395,-0.151867,-5.580008,7.014932,35.067448,-14.464932,16.493843,-32.873562,3.049006,7.997518,0.955934,-0.283948,0.005730,0.074371
396,-0.098216,-5.281329,6.923024,32.124523,-12.675396,9.158412,-31.912130,2.799793,8.589842,0.957984,-0.275805,0.002842,0.078681
397,-0.068254,-4.927639,7.736857,31.921051,-8.999846,-0.357547,-30.935818,2.468534,8.896647,0.960208,-0.267444,0.000017,0.080461
398,-0.094171,-5.084682,7.768566,33.324608,-7.289655,-8.095757,-29.907612,2.073686,8.908366,0.962696,-0.258576,-0.002607,0.079675
399,-0.078062,-4.147634,7.394442,37.877796,-5.901366,-14.980921,-28.763010,1.621677,8.677847,0.965525,-0.248678,-0.005121,0.076783
400,-0.146878,-3.956848,7.066548,33.066566,-4.046034,-16.371147,-27.587513,1.184132,8.294406,0.968387,-0.238516,-0.007233,0.072687
401,0.159946,-4.217694,7.460861,32.085152,-2.534101,-19.829039,-26.559639,0.752555,7.805217,0.970879,-0.229604,-0.009257,0.067744
402,0.052404,-4.159367,6.933866,32.691814,-3.253120,-18.858721,-25.616117,0.311810,7.265394,0.973117,-0.221408,-0.011398,0.062385
403,0.127373,-4.010081,7.684884,29.253244,-0.967493,-19.955971,-24.716887,-0.074284,6.707686,0.975163,-0.213623,-0.013153,0.057008
404,-0.158379,-4.547420,8.274548,24.380339,-0.550926,-17.769327,-23.946264,-0.358965,6.144666,0.976869,-0.206990,-0.014179,0.051781
405,-0.068963,-4.662499,9.517492,17.712921,-1.519722,-19.565262,-23.369867,-0.603658,5.589384,0.978150,-0.202035,-0.015027,0.046680
406,-0.126015,-4.040344,10.213799,14.322277,-0.268273,-18.422262,-22.836365,-0.838214,5.019107,0.979306,-0.197459,-0.015831,0.041472
407,-0.140286,-4.000597,10.549769,7.837496,0.955790,-17.482182,-22.377893,-0.999023,4.461578,0.980278,-0.193558,-0.016099,0.036493
408,-0.262071,-3.745143,9.737550,3.756001,0.564013,-16.230768,-22.104000,-1.105420,3.931192,0.980894,-0.191253,-0.016037,0.031814
409,0.058229,-3.139681,8.753347,6.057482,1.823212,-16.842545,-21.852533,-1.208678,3.404010,0.981444,-0.189144,-0.015981,0.027163
410,0.153527,-2.658725,7.433370,11.949553,3.466718,-13.383248,-21.446802,-1.294966,2.901370,0.982212,-0.185715,-0.015810,0.022771
411,0.166794,-2.724564,6.640497,11.028031,3.533864,-12.304419,-21.026470,-1.339804,2.459332,0.982965,-0.182161,-0.015408,0.018966
412,-0.004141,-2.558301,6.617848,16.509054,2.340721,-12.409657,-20.577829,-1.366835,2.039974,0.983732,-0.178362,-0.014913,0.015384
413,0.033378,-2.597647,7.408514,18.474564,2.376061,-12.911597,-19.960751,-1.387087,1.616650,0.984727,-0.173113,-0.014365,0.011795
414,0.039178,-2.434739,8.521440,19.599720,2.324405,-10.026002,-19.207067,-1.394367,1.228052,0.985878,-0.166679,-0.013784,0.008536
415,-0.274805,-2.659587,9.748405,18.526299,2.074560,-9.548265,-18.398022,-1.344837,0.892360,0.987056,-0.159758,-0.012829,0.005810
416,-0.325665,-2.560477,10.018019,19.728033,1.803552,-9.575547,-17.586592,-1.254871,0.566844,0.988183,-0.152806,-0.011578,0.003214
417,-0.288884,-2.663451,10.037725,16.380859,2.263454,-7.999087,-16.837292,-1.151956,0.265477,0.989175,-0.146374,-0.010283,0.000820
418,-0.557479,-2.485261,9.804205,16.027399,1.746880,-3.854467,-16.182230,-0.995140,0.056268,0.990009,-0.140738,-0.008667,-0.000736
419,-0.541803,-2.862652,9.562798,12.704156,0.067677,-2.918829,-15.657354,-0.821838,-0.059809,0.990654,-0.136212,-0.007034,-0.001494
420,-0.438132,-2.615603,9.017022,11.231533,-0.786081,-3.541189,-15.277958,-0.703989,-0.158784,0.991105,-0.132936,-0.005905,-0.002190
421,-0.130658,-2.552657,9.141751,7.466988,-1.351701,-1.897627,-14.982916,-0.658240,-0.235971,0.991444,-0.130388,-0.005427,-0.002791
422,-0.120977,-2.556845,9.250389,5.971498,-1.214078,-1.909755,-14.774848,-0.656000,-0.285815,0.991678,-0.128590,-0.005356,-0.003210
423,0.362835,-2.671626,9.340292,4.037979,-0.577778,-3.249518,-14.641601,-0.708863,-0.360911,0.991822,-0.127441,-0.005734,-0.003912
424,0.269935,-2.560563,9.535609,2.653800,1.060830,-4.220067,-14.561290,-0.781238,-0.483103,0.991902,-0.126754,-0.006228,-0.005046
425,0.371969,-2.578692,9.526778,2.360722,1.374944,-2.573651,-14.496348,-0.816902,-0.602701,0.991965,-0.126200,-0.006408,-0.006117
426,0.140388,-2.650139,9.478037,1.118441,2.041634,-1.330055,-14.472871,-0.806739,-0.679483,0.991988,-0.126000,-0.006237,-0.006769
427,0.196335,-2.624675,9.437781,-0.372617,1.939362,0.403390,-14.505721,-0.753500,-0.710396,0.991953,-0.126284,-0.005740,-0.006980
428,0.211944,-2.564048,9.511550,-2.502980,1.768375,2.564081,-14.588425,-0.698367,-0.677559,0.991867,-0.126996,-0.005294,-0.006639
429,0.113381,-2.533143,9.422566,-4.547828,1.318181,4.070159,-14.728703,-0.629928,-0.583303,0.991720,-0.128203,-0.004799,-0.005753
430,0.173266,-2.651090,9.502254,-8.881594,1.003805,5.255795,-14.981469,-0.559836,-0.442656,0.991444,-0.130382,-0.004340,-0.004467
431,0.185198,-2.738107,9.491346,-12.016049,0.544412,4.770530,-15.372261,-0.509711,-0.287642,0.991001,-0.133756,-0.004072,-0.003082
432,0.283807,-2.709219,9.542475,-15.730317,-0.180568,3.883923,-15.868988,-0.499216,-0.149857,0.990416,-0.138045,-0.004134,-0.001897
433,0.220395,-2.796769,9.528031,-17.997944,-0.630907,2.647872,-16.452238,-0.521460,-0.041012,0.989701,-0.143080,-0.004453,-0.001005
434,0.415094,-2.854991,9.405775,-19.072290,-1.024863,1.456047,-17.089981,-0.583671,0.033074,0.988887,-0.148583,-0.005080,-0.000471
435,0.119787,-2.902301,9.337866,-22.253910,-1.986398,0.325277,-17.791889,-0.664559,0.077162,0.987955,-0.154634,-0.005834,-0.000232
436,0.216151,-2.954620,9.297681,-23.978205,-2.575476,0.682321,-18.563158,-0.746558,0.117032,0.986887,-0.161276,-0.006594,-0.000043
437,0.151317,-3.129892,9.088685,-26.911062,-2.807493,1.890830,-19.417994,-0.833287,0.187097,0.985652,-0.168628,-0.007443,0.000383
438,0.124187,-3.287029,8.805740,-28.128906,-3.689486,2.795702,-20.367987,-0.910223,0.297964,0.984214,-0.176783,-0.008278,0.001155
439,0.184715,-3.250466,8.522127,-33.268387,-4.731710,3.674631,-21.426237,-1.006545,0.449270,0.982531,-0.185849,-0.009359,0.002219
440,0.286032,-3.390964,8.439941,-34.684547,-5.564968,5.150164,-22.582680,-1.132330,0.650550,0.980592,-0.195730,-0.010801,0.003632
441,-0.061294,-3.413302,7.663802,-37.440563,-7.385326,7.959427,-23.829826,-1.228956,0.937294,0.978384,-0.206354,-0.012182,0.005789
442,0.406993,-4.185145,7.412005,-37.227669,-8.174231,6.720388,-25.227983,-1.362706,1.270190,0.975763,-0.218224,-0.014024,0.008219
443,0.552203,-4.108361,6.717355,-32.924259,-5.434074,3.732471,-26.649582,-1.576967,1.533045,0.972942,-0.230249,-0.016472,0.009845
444,-0.063679,-5.099540,7.114705,-28.805840,-3.377213,4.217726,-27.999073,-1.660266,1.727857,0.970138,-0.241649,-0.017703,0.011124
445,0.294553,-5.339334,6.806409,-17.830309,-1.419321,1.306387,-29.175497,-1.651589,1.857616,0.967594,-0.251577,-0.018028,0.012056
446,0.695675,-5.093036,6.898428,-9.611947,2.027418,-4.245051,-29.991465,-1.735595,1.820818,0.965775,-0.258452,-0.018738,0.011428
447,-0.255020,-4.458502,7.444253,-12.051225,4.340744,-2.940338,-30.517624,-1.695024,1.669342,0.964596,-0.262915,-0.018102,0.010160
448,-0.179618,-5.068758,8.476254,-21.959194,3.383015,-0.249806,-31.108288,-1.483450,1.557618,0.963255,-0.267932,-0.016114,0.009623
449,0.326816,-4.575245,8.042048,-25.363417,3.290133,-2.195247,-31.871546,-1.364362,1.463133,0.961465,-0.274372,-0.014953,0.009008
450,-0.161713,-4.525982,8.473266,-39.341877,4.158548,0.626276,-32.838844,-1.236256,1.371467,0.959130,-0.282506,-0.013730,0.008430
451,-0.102422,-5.638578,8.648531,-50.213726,3.098398,4.784645,-34.258644,-0.999891,1.376468,0.955568,-0.294397,-0.011876,0.008909
452,0.820886,-6.043115,8.216633,-50.171246,3.710140,1.226082,-35.980297,-0.887319,1.393446,0.951040,-0.308732,-0.011120,0.009174
453,0.109133,-6.082762,7.526829,-48.101089,4.637608,0.221833,-37.721573,-0.831043,1.333281,0.946245,-0.323160,-0.010623,0.008666
454,0.371138,-6.448232,7.521831,-50.454674,5.240255,0.174468,-39.484150,-0.720431,1.238383,0.941172,-0.337696,-0.009567,0.008048
455,0.150198,-6.872321,7.138506,-48.406116,5.816928,-2.160284,-41.281815,-0.631933,1.096941,0.935770,-0.352439,-0.008535,0.007014
456,0.079940,-6.761571,7.360746,-44.976433,7.301651,-3.796067,-42.954475,-0.535519,0.878305,0.930539,-0.366084,-0.007155,0.005421
457,-0.258443,-6.695890,7.139477,-41.044273,7.492559,-2.288295,-44.417091,-0.380615,0.634448,0.925802,-0.377954,-0.005168,0.003870
458,-0.010787,-7.079254,7.499864,-37.850426,7.942896,-0.849171,-45.712841,-0.184157,0.414089,0.921476,-0.388415,-0.002884,0.002706
459,-0.341863,-6.904986,7.664684,-26.870899,6.980224,-0.700970,-46.691910,0.021841,0.215666,0.918127,-0.396282,-0.000571,0.001803
460,0.135176,-6.797184,7.765393,-14.616759,5.349106,0.809792,-47.192406,0.190862,0.066025,0.916388,-0.400289,0.001296,0.001195
461,-0.014871,-6.471673,7.572000,-6.267157,4.171028,-1.349458,-47.287945,0.273804,-0.055868,0.916053,-0.401050,0.002384,0.000512
462,0.136311,-6.547985,7.681445,-3.252049,4.949164,-1.848519,-47.166443,0.314045,-0.202475,0.916477,-0.400074,0.003219,-0.000523
463,0.221860,-6.476645,7.629689,3.252867,5.205328,-3.840047,-46.883118,0.305338,-0.389636,0.917461,-0.397801,0.003797,-0.002060
464,0.161226,-6.558510,7.266671,6.605010,6.460959,-4.439947,-46.477703,0.279441,-0.624796,0.918857,-0.394546,0.004392,-0.004048
465,0.146804,-6.639464,6.992334,3.946131,7.725777,-5.435030,-46.141407,0.273752,-0.908974,0.919998,-0.391836,0.005306,-0.006362
466,0.244621,-7.147460,7.144958,4.459268,9.230134,-3.413389,-45.917667,0.305108,-1.214595,0.920741,-0.390020,0.006586,-0.008721
467,-0.312732,-7.486210,7.378808,9.243215,7.606532,-0.692684,-45.656929,0.446258,-1.463462,0.921608,-0.387893,0.008544,-0.010260
468,-0.035556,-7.315501,7.316199,11.881661,5.250586,1.953358,-45.282032,0.635589,-1.601163,0.922860,-0.384841,0.010497,-0.010760
469,-0.125669,-7.366730,7.732345,9.155074,4.017621,3.860751,-44.883461,0.809011,-1.641595,0.924189,-0.381601,0.011993,-0.010545
470,-0.184934,-7.642970,8.073297,8.758658,3.820787,4.445197,-44.519814,1.003110,-1.634305,0.925393,-0.378640,0.013503,-0.009883
471,-0.179154,-7.542772,8.073048,8.131806,3.384374,2.127325,-44.177670,1.167031,-1.638951,0.926514,-0.375851,0.014814,-0.009422
472,-0.024083,-7.979877,7.696816,5.922226,4.656913,-1.707408,-43.953449,1.244918,-1.727412,0.927237,-0.374013,0.015714,-0.009913
473,-0.410734,-8.119811,7.935470,0.129443,5.050591,-4.597532,-43.930866,1.283928,-1.917025,0.927292,-0.373798,0.016646,-0.011323
474,-0.335239,-8.031874,8.429129,-5.202285,3.074610,-6.652869,-44.049496,1.275896,-2.146699,0.926880,-0.374725,0.017344,-0.013190
475,-0.555112,-7.754226,9.405984,-11.360415,-0.086988,-5.174116,-44.228210,1.209746,-2.320723,0.926275,-0.376156,0.017401,-0.014787
476,-0.495663,-7.830657,10.260036,-8.836874,-2.538993,0.935877,-44.327827,1.177667,-2.335749,0.925946,-0.376965,0.017204,-0.014999
477,-0.222880,-7.470490,11.036325,-4.708999,-4.589804,6.093588,-44.195206,1.190915,-2.161526,0.926403,-0.375917,0.016723,-0.013566
478,-0.465718,-7.599479,11.147058,6.183618,-4.948381,11.016299,-43.746330,1.286957,-1.837185,0.927900,-0.372315,0.016393,-0.010693
480,-0.210854,-8.068702,9.851833,24.114727,-5.314590,16.663805,-42.932762,1.488742,-1.377684,0.930544,-0.365753,0.016489,-0.006433
481,-0.249429,-8.161660,8.441592,41.745617,-5.975367,20.231380,-41.749500,1.751011,-0.794989,0.934268,-0.356177,0.016748,-0.001037
482,-0.121370,-7.833423,7.195951,51.132404,-7.249606,17.916441,-40.322575,1.973656,-0.175138,0.938595,-0.344588,0.016694,0.004501
483,-0.473836,-7.409586,6.260096,55.897823,-6.959662,18.136118,-38.831734,2.168886,0.428542,0.942932,-0.332427,0.016607,0.009818
484,0.038499,-6.670467,5.764691,54.592632,-8.481090,16.314007,-37.377525,2.289069,1.024359,0.946989,-0.320520,0.016057,0.014866
485,-0.517001,-5.567503,6.379134,44.625351,-7.866200,16.344402,-35.992062,2.371691,1.611874,0.950690,-0.309131,0.015336,0.019768
486,-0.126340,-5.463180,7.025847,32.574539,-8.087477,14.169921,-34.798290,2.442467,2.176168,0.953735,-0.299291,0.014657,0.024489
487,-0.985653,-5.076021,7.613070,26.070967,-8.157480,14.272281,-33.813736,2.531013,2.720220,0.956123,-0.291166,0.014224,0.029126
488,-0.710510,-4.815147,8.261539,18.495232,-9.998818,11.104797,-32.950039,2.624160,3.246330,0.958123,-0.284031,0.013918,0.033647
489,-0.564295,-5.022054,8.872971,13.597738,-9.435573,6.528705,-32.250294,2.556927,3.676544,0.959725,-0.278212,0.012516,0.037002
490,-0.491624,-4.982608,8.771649,16.883688,-9.694927,1.520687,-31.603434,2.373486,3.965435,0.961232,-0.272777,0.010497,0.038920
491,-0.412466,-4.356265,8.582437,19.914938,-8.844975,-3.499562,-30.832287,2.098588,4.104196,0.963066,-0.266245,0.008125,0.039379
492,0.237915,-4.068759,8.186388,19.279573,-6.872286,-8.040872,-29.991041,1.702157,4.077792,0.965091,-0.259062,0.005134,0.038203
493,0.132432,-3.735591,7.663007,21.213795,-5.671951,-9.243601,-29.145199,1.249315,3.934491,0.967108,-0.251805,0.001908,0.035963
494,-0.290407,-3.242597,6.419156,16.819790,-4.874037,-8.276230,-28.382572,0.922892,3.765462,0.968863,-0.245276,-0.000251,0.033824
495,-0.123570,-3.288560,6.143086,5.303898,-2.839876,-9.680017,-27.963371,0.692307,3.563691,0.969841,-0.241673,-0.001653,0.031631
496,-0.385276,-3.759745,6.132086,3.702856,-1.721143,-9.731783,-27.885155,0.524760,3.312889,0.970090,-0.240975,-0.002522,0.029157
497,-0.536681,-3.909801,6.411303,3.293178,-2.161586,-11.121617,-27.917244,0.428483,3.034539,0.970099,-0.241231,-0.002760,0.026598
498,-0.357183,-3.949903,6.917751,2.061205,-2.338066,-8.876708,-27.939857,0.324866,2.774168,0.970118,-0.241407,-0.003093,0.024175
499,-0.257146,-4.136950,8.057303,5.207554,-2.279764,-6.863844,-27.841347,0.205800,2.578144,0.970373,-0.240556,-0.003669,0.022268
500,-0.243024,-4.230309,8.792842,12.669631,-3.166095,-5.739114,-27.483130,0.080543,2.434650,0.971154,-0.237504,-0.004364,0.020804
501,0.014067,-3.807115,9.368424,17.782265,-2.519006,-3.926261,-26.819218,-0.055040,2.335086,0.972537,-0.231853,-0.005193,0.019709
502,-0.001178,-3.949738,9.436563,20.339176,-0.941209,-0.195379,-25.986671,-0.139158,2.299153,0.974205,-0.224769,-0.005694,0.019276
503,-0.168873,-4.121171,9.326795,26.971498,0.082795,0.468451,-25.068014,-0.125997,2.309239,0.975973,-0.216953,-0.005446,0.019432
504,-0.137410,-3.763152,9.176023,32.503490,0.598747,-0.894112,-23.974442,-0.076783,2.298436,0.978000,-0.207639,-0.004821,0.019480
505,0.064090,-3.520741,9.291182,33.930851,1.314466,-0.410366,-22.742567,-0.043195,2.266172,0.980180,-0.197120,-0.004268,0.019312
506,-0.274529,-3.475013,8.961743,32.173481,1.377162,1.465051,-21.541672,0.033867,2.265668,0.982189,-0.186851,-0.003404,0.019477
507,-0.237046,-3.184147,9.098516,29.674414,0.851013,2.646237,-20.431765,0.156824,2.317390,0.983939,-0.177348,-0.002240,0.020144
508,-0.205599,-2.871748,9.421425,23.618612,0.500284,2.226699,-19.424044,0.256051,2.387306,0.985444,-0.168705,-0.001312,0.020910
509,-0.171165,-2.955592,9.623122,20.973265,0.117448,4.909341,-18.558956,0.341084,2.497516,0.986664,-0.161275,-0.000577,0.021988
510,-0.302704,-2.901441,9.468897,19.490469,-0.163114,6.027917,-17.802771,0.441751,2.671830,0.987666,-0.154780,0.000200,0.023629
511,-0.151950,-2.708756,9.534447,17.794001,0.133098,4.868277,-17.107733,0.534294,2.846271,0.988543,-0.148806,0.000915,0.025253
512,-0.079405,-2.607233,9.524681,15.445991,-0.223934,3.954263,-16.474455,0.582836,2.988352,0.989315,-0.143353,0.001296,0.026534
513,-0.052501,-2.518512,9.252505,14.430040,0.474905,1.685205,-15.912159,0.605915,3.078058,0.989984,-0.138503,0.001517,0.027331
514,0.004405,-2.339456,9.424716,10.189831,0.735748,0.079908,-15.434534,0.614438,3.101503,0.990546,-0.134378,0.001677,0.027537
515,-0.041129,-2.451069,9.330881,8.311695,0.918757,-1.594057,-15.070529,0.613480,3.070338,0.990976,-0.131230,0.001792,0.027261
516,0.046033,-2.217843,9.274560,4.520015,1.176511,-3.210045,-14.808874,0.600277,2.984380,0.991294,-0.128962,0.001837,0.026498
517,-0.073173,-2.185330,9.527063,0.934456,1.489218,-4.113418,-14.646160,0.590066,2.855708,0.991506,-0.127550,0.001930,0.025371
518,-0.059140,-2.189508,9.675788,-1.666853,0.959678,-4.656654,-14.581080,0.583906,2.704758,0.991611,-0.126983,0.002058,0.024057
519,-0.056536,-2.282620,9.481681,-2.920857,1.151894,-7.368234,-14.598293,0.557036,2.502560,0.991635,-0.127123,0.002046,0.022277
520,0.067706,-2.134913,9.815817,-6.329423,1.725521,-9.626630,-14.684861,0.506926,2.217095,0.991594,-0.127859,0.001914,0.019753
521,-0.165897,-2.546479,9.613107,-5.967552,1.572877,-9.461841,-14.847219,0.468686,1.895930,0.991465,-0.129253,0.001918,0.016934
522,0.005290,-2.478704,9.177546,-6.547448,1.427910,-9.873843,-15.067111,0.432686,1.571602,0.991261,-0.131145,0.001945,0.014091
523,0.075091,-2.527268,9.249539,-8.505260,1.299593,-8.828621,-15.330166,0.366035,1.258881,0.990995,-0.133408,0.001700,0.011313
524,0.012080,-2.464624,9.209087,-9.608491,1.291830,-7.462954,-15.630891,0.307624,0.985849,0.990668,-0.136000,0.001490,0.008888
525,0.055712,-2.566622,9.030207,-11.436538,1.058255,-6.080495,-15.980457,0.261164,0.758151,0.990265,-0.139016,0.001337,0.006869
526,0.232230,-2.532434,9.127924,-15.225386,1.401357,-7.177702,-16.420721,0.190618,0.534813,0.989737,-0.142814,0.000980,0.004857
527,0.142991,-2.572752,9.368487,-20.132599,0.937204,-8.116222,-16.978577,0.098470,0.280106,0.989040,-0.147626,0.000489,0.002544
528,-0.159841,-2.758130,9.062049,-22.288616,0.912773,-8.274923,-17.662682,0.043085,0.010477,0.988145,-0.153526,0.000357,0.000148
529,-0.122267,-3.110669,8.346202,-24.396204,-0.495496,-6.335423,-18.497667,0.007641,-0.223522,0.986998,-0.160722,0.000379,-0.001915
530,-0.127556,-3.096759,7.710303,-27.901897,-1.595528,-5.471697,-19.497446,-0.055955,-0.398837,0.985553,-0.169328,0.000108,-0.003513
531,-0.089784,-3.082467,7.703604,-34.299168,-2.155390,-4.376029,-20.652367,-0.138905,-0.532144,0.983791,-0.179255,-0.000360,-0.004786
532,-0.183140,-3.687411,7.422792,-35.687073,-2.756402,-2.726428,-21.986359,-0.215021,-0.613092,0.981632,-0.190699,-0.000822,-0.005610
533,0.163025,-3.939856,7.491238,-35.596718,-1.625641,-4.671962,-23.413319,-0.319451,-0.698595,0.979174,-0.202913,-0.001493,-0.006535
534,0.198316,-3.780756,8.104383,-35.222103,0.191558,-6.770181,-24.745213,-0.457146,-0.861657,0.976733,-0.214290,-0.002285,-0.008199
535,0.193252,-4.330035,9.375788,-34.932350,1.535748,-8.029135,-25.946383,-0.568977,-1.095866,0.974408,-0.224528,-0.002691,-0.010433
536,-0.112537,-4.504586,9.635993,-22.029036,2.097341,-6.042354,-26.875566,-0.607192,-1.332760,0.972529,-0.232430,-0.002451,-0.012543
537,0.060099,-4.289996,10.033391,-14.040335,2.642236,-5.660809,-27.378426,-0.595167,-1.543708,0.971476,-0.236699,-0.001858,-0.014317
538,-0.028021,-4.305878,10.067257,-6.206933,1.078262,-2.103837,-27.548967,-0.578196,-1.688965,0.971105,-0.238144,-0.001391,-0.015516
539,0.006166,-4.426212,9.939220,-0.029179,0.553466,-1.494938,-27.490595,-0.554987,-1.756396,0.971218,-0.237648,-0.001062,-0.016038
540,-0.283277,-4.077747,8.919249,7.106721,0.005916,2.133840,-27.238075,-0.484429,-1.752409,0.971745,-0.235498,-0.000507,-0.015857
541,0.058781,-4.326715,8.303761,2.814566,-1.023867,2.265178,-27.018419,-0.417429,-1.679690,0.972209,-0.233627,-0.000118,-0.015103
542,0.165585,-4.483590,7.890090,0.850402,0.547789,2.069839,-27.017679,-0.402114,-1.611251,0.972220,-0.233619,-0.000127,-0.014491
543,0.220987,-4.413466,7.254920,-3.354239,1.637137,1.918695,-27.203007,-0.375171,-1.567601,0.971848,-0.235188,0.000035,-0.014066
544,-0.005017,-4.570217,6.954629,-11.702133,1.637071,3.609395,-27.670671,-0.298459,-1.509391,0.970891,-0.239144,0.000621,-0.013412
545,0.084609,-4.854938,6.766043,-21.802172,2.264234,3.868815,-28.522301,-0.179872,-1.428428,0.969102,-0.246341,0.001549,-0.012468
546,0.032333,-5.202796,6.928945,-31.549957,0.645194,5.286391,-29.751518,-0.069847,-1.317321,0.966419,-0.256714,0.002362,-0.011267
547,0.140260,-4.782294,6.682291,-34.397285,-1.013574,6.005055,-31.145920,0.000467,-1.151168,0.963241,-0.268452,0.002701,-0.009676
548,-0.026546,-5.205362,7.615710,-45.017139,-2.536516,7.718632,-32.657345,0.055463,-0.925165,0.959634,-0.281134,0.002734,-0.007612
549,0.146451,-5.540807,7.840874,-44.132710,-3.236982,6.139256,-34.263233,0.086463,-0.679323,0.955615,-0.294558,0.002467,-0.005443
550,0.255962,-5.434475,8.207132,-41.329773,-3.211258,3.162030,-35.725418,0.035232,-0.489887,0.951786,-0.306733,0.001604,-0.003975
551,0.051867,-5.306935,8.433654,-37.703728,0.266161,3.166496,-36.952972,0.018605,-0.374823,0.948449,-0.316913,0.001191,-0.003051
552,0.008973,-5.844427,8.614401,-40.835789,1.367845,4.300235,-38.129627,0.107797,-0.292078,0.945147,-0.326634,0.001722,-0.002102
553,-0.089704,-6.326689,8.418281,-34.179287,3.647604,3.692937,-39.296230,0.262838,-0.240251,0.941773,-0.336236,0.002865,-0.001203
554,-0.003238,-6.389922,8.240328,-28.554443,4.853095,3.988975,-40.285194,0.456586,-0.232325,0.938832,-0.344347,0.004439,-0.000531
555,-0.012726,-6.474416,8.232760,-24.191448,5.234525,5.380579,-41.088997,0.672747,-0.222739,0.936386,-0.350917,0.006180,0.000240
556,0.049469,-6.675571,8.120724,-19.486628,4.933810,4.202477,-41.738300,0.877764,-0.213895,0.934373,-0.356210,0.007822,0.000985
557,-0.063754,-6.903020,8.294169,-11.203527,4.916905,3.196794,-42.174320,1.051490,-0.230595,0.933000,-0.359755,0.009285,0.001424
558,0.103479,-6.295569,8.023933,-4.932872,3.268732,3.201228,-42.318039,1.179034,-0.240959,0.932539,-0.360918,0.010354,0.001753
559,-0.076180,-6.187020,8.450012,-4.350438,2.093571,5.351105,-42.260323,1.291357,-0.191361,0.932710,-0.360447,0.011113,0.002505
560,-0.022973,-6.701239,8.447959,-0.867242,0.350801,6.458808,-42.137573,1.413702,-0.068503,0.933081,-0.359454,0.011727,0.003877
561,-0.007315,-6.627758,8.360226,3.377144,-1.390488,5.829964,-41.934013,1.485108,0.098859,0.933704,-0.357811,0.011793,0.005443
562,-0.067502,-6.624221,8.246455,3.919564,-2.004114,5.260634,-41.664314,1.514235,0.277874,0.934530,-0.355629,0.011488,0.006965
563,-0.139678,-6.802909,8.085656,4.008563,-1.007839,0.797182,-41.430412,1.504587,0.389168,0.935248,-0.353732,0.011080,0.007821
564,-0.195517,-6.983037,7.906840,4.025511,0.907101,-1.990764,-41.264191,1.465147,0.376132,0.935766,-0.352375,0.010809,0.007577
565,-0.052925,-7.261639,8.020577,3.863669,1.140442,-2.708062,-41.153763,1.405280,0.294168,0.936117,-0.351466,0.010578,0.006713
566,-0.061886,-7.519820,7.987999,3.417784,-0.538249,-1.521054,-41.096531,1.319269,0.232843,0.936305,-0.350994,0.010067,0.005943
567,-0.115214,-6.936218,9.379642,-4.057464,-3.948839,0.555610,-41.054440,1.214192,0.270966,0.936442,-0.350655,0.009094,0.005930
568,-0.070056,-6.790448,10.361975,-5.263180,-8.618319,6.694317,-40.946732,1.101478,0.505223,0.936768,-0.349792,0.007463,0.007492
569,0.171989,-6.969866,11.505412,-0.559982,-10.446612,10.772958,-40.671570,0.995043,0.940426,0.937580,-0.347563,0.005290,0.010712
570,-0.372288,-6.447586,12.587757,8.936732,-8.316549,10.235779,-40.042397,0.956666,1.418147,0.939426,-0.342427,0.003606,0.014485
571,-0.627525,-6.005206,12.588240,19.178587,-5.966481,9.033534,-38.987846,1.022281,1.827553,0.942472,-0.333785,0.003087,0.018010
572,-0.450953,-7.079364,10.887033,31.775688,-3.930709,8.299766,-37.709320,1.126055,2.164768,0.946067,-0.323271,0.003193,0.021051
573,-0.215794,-7.526620,9.760584,41.922188,-1.133627,5.647772,-36.351078,1.216012,2.404060,0.949773,-0.312055,0.003537,0.023239
574,-0.425733,-7.140235,8.060526,49.676414,1.086679,2.373184,-34.928520,1.312213,2.511163,0.953537,-0.300258,0.004345,0.024337
575,-0.087251,-7.005713,6.341000,46.348026,-1.095345,2.150386,-33.701618,1.360604,2.565589,0.956678,-0.290042,0.004871,0.024865
576,0.290644,-6.866278,6.273904,42.037575,-0.843865,-0.117418,-32.780872,1.272113,2.598090,0.958984,-0.282333,0.004250,0.024880
577,-0.369676,-5.665870,6.034388,47.745075,-0.258033,-0.141987,-31.786367,1.216812,2.591597,0.961408,-0.273990,0.004018,0.024655
578,0.055497,-5.096492,6.009323,36.817490,-0.584586,-4.817473,-30.770792,1.155785,2.519641,0.963822,-0.265447,0.003889,0.023873
579,0.014384,-5.183969,6.873627,26.454926,-0.014127,-7.477342,-30.026287,0.983886,2.341079,0.965584,-0.259146,0.003000,0.021954
580,-0.334093,-4.745075,7.302740,30.985960,-1.263852,-9.349672,-29.264883,0.825860,2.103940,0.967345,-0.252696,0.002334,0.019584
581,-0.260886,-4.774100,7.701433,23.203167,-1.092759,-10.469604,-28.480192,0.674564,1.832283,0.969110,-0.246041,0.001772,0.016945
583,0.020164,-4.689856,8.508159,11.921697,-0.886755,-12.355649,-27.958645,0.466067,1.512190,0.970277,-0.241601,0.000759,0.013787
584,-0.567813,-4.775828,9.046458,9.786901,-2.133260,-6.065691,-27.603849,0.318098,1.264153,0.971056,-0.238580,0.000064,0.011375
585,-0.418397,-4.194276,8.867301,8.079642,-6.780784,-2.027857,-27.256056,0.224933,1.213663,0.971785,-0.235624,-0.000588,0.010755
586,-0.132598,-4.282209,8.707001,-2.029264,-7.444314,2.696539,-27.084984,0.075122,1.332614,0.972129,-0.234158,-0.002086,0.011459
587,-0.047882,-4.021587,8.123012,-0.411596,-8.652776,6.242827,-27.087852,-0.079376,1.587694,0.972099,-0.234159,-0.003918,0.013307
588,0.065055,-4.383135,7.461575,2.647615,-7.577008,6.416778,-27.105457,-0.226680,1.898840,0.972027,-0.234276,-0.005806,0.015645
589,0.538500,-3.602656,6.962234,13.537770,-2.921787,2.119580,-26.911722,-0.402334,2.105058,0.972394,-0.232593,-0.007688,0.017048
590,0.517181,-3.405980,6.225481,18.975958,0.219401,-4.822206,-26.411837,-0.618595,2.084192,0.973403,-0.228315,-0.009409,0.016473
591,0.689418,-3.651672,6.320640,19.877222,1.215032,-5.646600,-25.873777,-0.852104,1.916520,0.974482,-0.223719,-0.010990,0.014635
592,0.195871,-3.240483,6.830332,20.481167,2.522244,-8.594935,-25.261683,-1.011001,1.674668,0.975685,-0.218511,-0.011804,0.012330
593,0.273891,-3.028836,8.009768,17.745707,0.982452,-8.353911,-24.514641,-1.107250,1.391353,0.977111,-0.212162,-0.012019,0.009813
594,-0.369479,-3.485743,8.461165,11.284105,-0.659192,-5.878761,-23.887661,-1.145437,1.170367,0.978272,-0.206832,-0.011892,0.007923
595,-0.268607,-3.935580,9.327685,6.145116,-1.818315,3.400645,-23.531578,-1.073181,1.148858,0.978916,-0.203800,-0.011212,0.007905
596,-0.567615,-3.496013,9.818669,6.737689,-0.310044,5.383100,-23.216658,-0.904764,1.296040,0.979471,-0.201114,-0.010009,0.009490
597,-0.058224,-4.031770,9.867963,10.086082,-1.626397,8.998233,-22.837124,-0.728184,1.528227,0.980117,-0.197870,-0.008868,0.011814
598,-0.172913,-4.294385,8.926697,17.303514,0.044773,8.725213,-22.422712,-0.577403,1.811943,0.980797,-0.194324,-0.008016,0.014530
599,0.082792,-4.338786,8.816841,20.934525,-0.106122,7.031517,-21.925634,-0.441401,2.057457,0.981598,-0.190072,-0.007195,0.016894
600,-0.113565,-3.928128,8.779424,26.712587,1.760199,2.035690,-21.256521,-0.335049,2.189259,0.982671,-0.184347,-0.006397,0.018237
601,0.267852,-4.092596,8.613687,28.961142,1.746449,-2.432221,-20.460354,-0.286414,2.163377,0.983932,-0.177524,-0.005812,0.018134
602,0.050014,-3.512253,8.449920,28.528652,3.757491,-4.679955,-19.631964,-0.268239,2.021006,0.985211,-0.170417,-0.005313,0.016978
603,0.236760,-3.050418,8.933879,21.342932,3.526959,-3.907876,-18.827795,-0.225800,1.845684,0.986408,-0.163512,-0.004578,0.015567
604,0.158625,-2.689925,9.243842,13.989848,4.335514,-3.486787,-18.167929,-0.179932,1.686452,0.987354,-0.157842,-0.003874,0.014284
605,0.267485,-2.795383,8.939264,5.145940,4.765610,-2.264594,-17.777750,-0.110569,1.547792,0.987901,-0.154492,-0.003040,0.013195
606,0.181376,-2.411509,8.948496,-7.711144,6.277558,-2.803326,-17.747511,-0.012524,1.410770,0.987956,-0.154245,-0.002007,0.012147
607,0.056715,-2.775826,9.254605,-24.930824,6.304893,-1.155370,-18.213667,0.138664,1.283191,0.987330,-0.158279,-0.000578,0.011248
608,-0.335922,-2.892316,9.196057,-33.631462,8.685488,-0.685335,-19.152597,0.397200,1.173767,0.986001,-0.166386,0.001714,0.010677
609,-0.416421,-3.140306,9.202525,-39.583988,9.427474,-1.919677,-20.352043,0.748032,1.029669,0.984199,-0.176720,0.004837,0.009997
610,-0.611651,-3.288715,9.758220,-44.091358,9.348586,-3.765877,-21.707306,1.104115,0.827269,0.982027,-0.188356,0.008103,0.008904
611,-0.726861,-3.870866,9.721578,-38.431519,9.211788,-3.854173,-23.051899,1.456807,0.589781,0.979729,-0.199857,0.011428,0.007583
612,-0.767102,-4.091860,9.463367,-24.408300,10.182823,-7.415459,-24.114668,1.795909,0.285666,0.977808,-0.208902,0.014805,0.005711
613,-0.728106,-4.271050,9.495944,-11.582941,9.203657,-12.423339,-24.738054,2.058086,-0.150818,0.976635,-0.214149,0.017824,0.002562
614,-0.902050,-4.124568,9.127204,5.972862,8.500706,-11.893613,-24.843346,2.266833,-0.643082,0.976408,-0.214951,0.020524,-0.001225
615,-0.483793,-4.648070,8.927303,11.612450,7.234530,-11.525718,-24.615938,2.416860,-1.109263,0.976796,-0.212909,0.022667,-0.004960
616,-0.509251,-4.490231,8.950934,19.722256,6.158854,-15.107038,-24.212244,2.457237,-1.609910,0.977503,-0.209360,0.023909,-0.009237
617,-0.425158,-4.116704,8.878082,22.044434,3.989043,-15.493088,-23.594805,2.416439,-2.147292,0.978568,-0.203984,0.024467,-0.014027
618,-0.170192,-4.011992,8.892707,15.928385,1.336855,-11.522694,-23.008472,2.291177,-2.597514,0.979553,-0.198905,0.024106,-0.018219
619,0.099118,-4.199176,9.237967,5.963871,-0.824260,-9.749750,-22.700348,2.072507,-2.929935,0.980053,-0.196255,0.022756,-0.021504
620,0.063862,-3.550999,8.953840,7.544692,-2.884767,-8.561272,-22.491474,1.787560,-3.188749,0.980385,-0.194492,0.020719,-0.024245
621,0.024980,-3.390589,8.897933,3.099951,-3.542867,-3.593026,-22.261988,1.520083,-3.333928,0.980761,-0.192575,0.018625,-0.025980
622,0.325594,-3.409713,9.021765,-3.845729,-5.667477,-0.787054,-22.208124,1.238164,-3.341669,0.980865,-0.192189,0.016213,-0.026530
623,0.268252,-4.028642,9.314507,-10.217954,-5.793202,-2.897652,-22.434298,0.908947,-3.325258,0.980498,-0.194214,0.013421,-0.026917
624,0.232826,-4.301735,9.184117,-9.557629,-5.728064,-9.210608,-22.845411,0.550473,-3.438183,0.979769,-0.197813,0.010648,-0.028454
625,-0.060497,-4.592927,9.169111,-11.046075,-5.919035,-12.152697,-23.324299,0.181754,-3.690721,0.978858,-0.201985,0.008062,-0.031217
626,-0.079533,-4.865589,8.869953,-14.947294,-8.651959,-12.032151,-23.948647,-0.201073,-3.963569,0.977641,-0.207408,0.005459,-0.034193
627,-0.377389,-5.070676,8.425435,-15.150018,-9.448239,-9.259431,-24.708893,-0.566756,-4.162815,0.976148,-0.213990,0.002943,-0.036535
628,-0.091921,-4.743816,7.709248,-14.155042,-11.268336,-2.726785,-25.487392,-0.890556,-4.196261,0.974621,-0.220713,0.000501,-0.037421
629,0.057959,-4.713034,7.453779,-21.966152,-13.135921,5.469050,-26.378260,-1.202249,-3.974283,0.972900,-0.228371,-0.002297,-0.036151
630,0.312724,-4.885154,7.863570,-29.375799,-13.294648,9.392213,-27.499054,-1.487842,-3.549108,0.970701,-0.237934,-0.005246,-0.033161
631,0.729354,-5.146579,8.207098,-33.701317,-11.134278,7.947013,-28.772036,-1.784714,-3.096048,0.968068,-0.248740,-0.008369,-0.030033
632,0.704132,-5.377857,8.340816,-34.941261,-8.948108,4.478357,-30.106981,-2.080125,-2.743490,0.965135,-0.260023,-0.011307,-0.027827
633,0.429771,-5.500334,8.504466,-33.590000,-6.790701,0.176661,-31.398785,-2.320061,-2.536051,0.962140,-0.270900,-0.013498,-0.026776
634,0.317689,-5.682724,8.474539,-29.710115,-3.635082,-2.106094,-32.565388,-2.480142,-2.466824,0.959312,-0.280693,-0.014735,-0.026724
635,0.202445,-5.792531,8.024918,-24.205173,-1.207186,-2.676666,-33.581718,-2.552583,-2.485008,0.956764,-0.289202,-0.015056,-0.027187
636,0.019430,-5.954853,7.810373,-17.430788,1.217818,-1.589967,-34.418770,-2.514115,-2.538585,0.954622,-0.296185,-0.014398,-0.027644
637,0.311280,-6.061070,7.766751,-10.125417,4.236351,0.593841,-35.027084,-2.383473,-2.598179,0.953053,-0.301238,-0.013008,-0.027873
638,0.430557,-6.060834,7.706615,-3.558532,6.513062,1.402638,-35.391720,-2.206062,-2.668424,0.952112,-0.304253,-0.011258,-0.028028
639,0.319579,-5.828995,7.795884,1.450608,6.603098,2.078650,-35.518673,-1.990298,-2.744029,0.951803,-0.305282,-0.009233,-0.028095
640,0.091074,-5.582377,7.788512,4.113191,6.044755,3.143859,-35.455662,-1.731203,-2.794228,0.952010,-0.304721,-0.006962,-0.027820
641,0.105251,-5.513589,7.631714,3.785065,4.027698,5.498516,-35.335106,-1.458071,-2.773549,0.952384,-0.303673,-0.004776,-0.026918
642,-0.109325,-5.427903,7.690644,0.498194,0.849467,6.130444,-35.271988,-1.212749,-2.662062,0.952616,-0.303104,-0.003046,-0.025341
643,-0.271030,-5.165061,7.724573,-0.420245,-1.373380,7.482712,-35.240547,-0.984615,-2.472410,0.952770,-0.302802,-0.001657,-0.023162
644,-0.081102,-5.063563,7.909259,0.083739,-2.323655,9.129441,-35.164516,-0.784529,-2.212116,0.953044,-0.302137,-0.000694,-0.020469
645,0.028803,-5.179570,8.368710,-0.696908,-4.009619,10.496788,-35.053448,-0.639156,-1.885584,0.953405,-0.301193,-0.000363,-0.017369
646,-0.118507,-4.923203,8.672961,2.499305,-4.307003,10.782243,-34.842354,-0.509341,-1.517599,0.954019,-0.299420,-0.000276,-0.013966
647,0.195667,-4.660502,8.802407,7.526993,-3.449367,11.728348,-34.420139,-0.388115,-1.137782,0.955164,-0.295892,-0.000297,-0.010486
648,0.305873,-4.625981,9.217047,7.133307,-3.722666,12.123438,-33.872700,-0.304359,-0.744263,0.956600,-0.291318,-0.000649,-0.006987
649,-0.021684,-4.160430,9.538146,6.750648,-4.145418,10.995718,-33.268311,-0.219185,-0.353262,0.958144,-0.286263,-0.000950,-0.003501
650,0.118604,-3.616546,9.440852,9.040349,-4.151519,10.577602,-32.538311,-0.140870,0.021658,0.959956,-0.280150,-0.001233,-0.000163
651,0.153606,-3.371516,9.604076,7.417873,-5.407456,11.573958,-31.738073,-0.104198,0.417161,0.961883,-0.273434,-0.001870,0.003253
652,-0.046550,-3.411368,10.034225,4.254279,-7.034122,13.482865,-31.004162,-0.071518,0.880272,0.963593,-0.267261,-0.002655,0.007235
653,0.004685,-3.412437,10.108665,3.513768,-7.497965,15.091210,-30.352116,-0.028293,1.412677,0.965053,-0.261763,-0.003465,0.011833
654,0.347637,-3.705424,9.960242,3.380268,-7.385208,16.647556,-29.776100,-0.015347,1.994119,0.966284,-0.256890,-0.004600,0.016783
655,0.295090,-3.926651,10.040663,3.611059,-6.273113,16.442904,-29.279097,-0.012213,2.585372,0.967289,-0.252671,-0.005805,0.021800
656,0.161708,-4.009813,10.198463,5.039485,-4.527671,13.935685,-28.797865,0.026509,3.114772,0.968228,-0.248586,-0.006534,0.026382
657,0.033888,-3.959353,10.005030,10.223086,-2.627990,9.795797,-28.230993,0.088731,3.518974,0.969343,-0.243785,-0.006737,0.029966
658,0.112488,-3.894531,9.532851,17.864771,-0.565023,4.509948,-27.487692,0.133596,3.754717,0.970837,-0.237491,-0.006651,0.032099
659,0.180255,-3.952411,9.153187,22.750313,0.782195,-1.618258,-26.599770,0.119091,3.795971,0.972637,-0.229955,-0.006608,0.032471
660,0.189770,-4.017803,8.959744,26.512402,1.393868,-7.107123,-25.642044,0.037341,3.649085,0.974571,-0.221804,-0.006748,0.031117
661,0.324324,-3.980676,8.670965,31.793989,1.453078,-11.956662,-24.598715,-0.121777,3.340494,0.976639,-0.212899,-0.007247,0.028252
662,0.424934,-3.939788,8.431087,34.604797,0.738523,-16.092115,-23.479105,-0.372306,2.897278,0.978781,-0.203317,-0.008324,0.024091
663,0.381409,-3.926380,8.606080,34.725193,-0.613869,-18.506317,-22.349840,-0.687351,2.363842,0.980838,-0.193639,-0.009881,0.019073
664,0.300873,-3.938193,8.804318,36.331699,-1.406116,-18.419460,-21.215563,-1.010345,1.804163,0.982776,-0.183918,-0.011563,0.013851
665,0.344958,-3.786736,8.705231,38.878048,-1.673365,-18.840694,-20.034903,-1.322258,1.241331,0.984653,-0.173803,-0.013246,0.008660
666,0.412269,-3.579795,8.757182,38.767715,-1.876535,-19.568632,-18.819376,-1.637673,0.658137,0.986441,-0.163392,-0.015037,0.003329
667,0.429985,-3.374782,8.988029,36.838535,-1.948464,-19.669409,-17.623024,-1.946521,0.057881,0.988056,-0.153154,-0.016863,-0.002103
668,0.281485,-3.131224,9.142384,35.313816,-1.486175,-18.552443,-16.462582,-2.201551,-0.533262,0.989492,-0.143230,-0.018347,-0.007355
669,0.070061,-2.819337,9.338216,33.894539,-0.417823,-16.664806,-15.321031,-2.349691,-1.087894,0.990796,-0.133462,-0.019054,-0.012140
670,0.191590,-2.531442,9.570873,32.061916,0.498036,-14.171358,-14.197850,-2.416087,-1.584646,0.991983,-0.123833,-0.019211,-0.016324
671,0.157499,-2.269728,9.729070,32.313858,0.736359,-12.167752,-13.074038,-2.442074,-2.016796,0.993076,-0.114174,-0.019165,-0.019906
672,0.216243,-2.181456,9.810545,32.458992,1.032666,-8.780139,-11.946477,-2.432022,-2.364611,0.994089,-0.104454,-0.018955,-0.022725
673,0.265874,-2.040596,9.796657,34.134533,0.897074,-5.490198,-10.811682,-2.403015,-2.604052,0.995032,-0.094639,-0.018730,-0.024592
674,0.575197,-1.825128,9.806949,35.533848,0.558321,-3.779636,-9.634771,-2.406010,-2.760537,0.995916,-0.084441,-0.018892,-0.025760
675,0.469872,-1.637355,9.751458,36.939266,-0.387877,-1.280193,-8.415687,-2.441498,-2.845110,0.996732,-0.073863,-0.019419,-0.026316
676,0.563137,-1.422094,9.739513,36.933186,-0.565002,1.533593,-7.180471,-2.480312,-2.839361,0.997464,-0.063122,-0.020043,-0.026076
677,0.572782,-1.068410,9.729705,39.278637,-1.230481,1.463371,-5.891441,-2.539531,-2.787934,0.998110,-0.051900,-0.020874,-0.025427
678,0.756578,-0.847340,9.735658,39.297138,-1.506958,-0.193823,-4.545036,-2.640414,-2.765388,0.998635,-0.040186,-0.022059,-0.025018
679,0.626782,-0.638580,9.702931,38.891418,-2.500638,-1.324570,-3.205760,-2.769992,-2.789212,0.999004,-0.028543,-0.023473,-0.024997
680,0.571060,-0.413608,9.790930,38.162186,-2.946376,-2.493449,-1.886134,-2.897147,-2.851246,0.999225,-0.017077,-0.024859,-0.025284
681,0.494672,-0.224266,9.764640,36.581474,-3.332494,-2.888673,-0.607794,-3.015598,-2.940554,0.999307,-0.005976,-0.026168,-0.025789
682,0.399778,-0.038893,9.771162,33.680786,-3.060809,-1.851049,0.587103,-3.108209,-3.020517,0.999275,0.004405,-0.027246,-0.026207
683,0.262574,0.151859,9.797390,31.634594,-2.575331,0.009049,1.691508,-3.154643,-3.053209,0.999168,0.014017,-0.027906,-0.026222
684,0.283034,0.289239,9.798525,28.445438,-1.648774,1.892034,2.697353,-3.162030,-3.023462,0.999012,0.022792,-0.028194,-0.025715
686,0.273123,0.394676,9.740861,24.047684,-0.774101,4.020690,3.558941,-3.143895,-2.925716,0.998838,0.030331,-0.028202,-0.024655
687,0.264633,0.395607,9.798184,20.370033,0.236391,6.034902,4.256203,-3.098403,-2.756193,0.998680,0.036460,-0.027902,-0.023021
688,0.289552,0.461861,9.852105,17.989296,0.860808,7.275475,4.824764,-3.034845,-2.529438,0.998545,0.041483,-0.027380,-0.020930
689,0.410531,0.544362,9.835550,15.727539,1.054817,7.684423,5.306160,-2.982023,-2.273873,0.998417,0.045748,-0.026905,-0.018610
690,0.417140,0.632962,9.822088,14.691097,0.885565,7.490638,5.731628,-2.949107,-2.014872,0.998287,0.049521,-0.026576,-0.016268
691,0.460247,0.684548,9.841909,14.034598,0.633875,6.573566,6.128002,-2.930843,-1.775015,0.998145,0.053032,-0.026362,-0.014095
692,0.517220,0.786233,9.831137,13.272818,0.220373,5.398620,6.503947,-2.934421,-1.571262,0.997989,0.056353,-0.026339,-0.012232
693,0.567603,0.844153,9.770339,11.499369,-0.257287,4.679930,6.843201,-2.964006,-1.400970,0.997828,0.059343,-0.026544,-0.010656
694,0.511362,0.878007,9.822984,9.422240,-0.791399,4.902737,7.114964,-3.008790,-1.240858,0.997688,0.061741,-0.026873,-0.009175
695,0.547682,0.899738,9.886615,7.024633,-1.197309,5.035515,7.304539,-3.065699,-1.076500,0.997584,0.063425,-0.027293,-0.007668
696,0.553198,0.963822,9.915848,5.301482,-1.154607,4.768501,7.425071,-3.131009,-0.915194,0.997511,0.064507,-0.027779,-0.006198
697,0.509768,1.055479,9.809165,3.514307,-0.986748,4.943998,7.500144,-3.186195,-0.755673,0.997463,0.065195,-0.028172,-0.004759
698,0.442083,1.008060,9.904932,0.756652,-0.588395,5.224774,7.500179,-3.217359,-0.587390,0.997462,0.065234,-0.028348,-0.003277
699,0.405053,1.005731,9.872332,0.098628,-0.156398,5.664240,7.434123,-3.221524,-0.404862,0.997502,0.064704,-0.028279,-0.001702
700,0.431174,0.999062,9.811606,-0.029893,0.580791,6.462296,7.355114,-3.207272,-0.199382,0.997552,0.064068,-0.028039,0.000059
701,0.495334,1.003795,9.847585,-0.085154,1.168384,7.399220,7.274450,-3.185722,0.037490,0.997599,0.063423,-0.027720,0.002090
702,0.562713,0.969647,9.940951,-0.389150,1.380521,7.298522,7.185297,-3.168132,0.289978,0.997646,0.062708,-0.027431,0.004257
703,0.626837,1.046806,9.881082,1.282969,1.348430,6.274649,7.128292,-3.161224,0.523737,0.997668,0.062267,-0.027246,0.006275
704,0.702652,1.126935,9.881908,1.758875,1.194175,4.240617,7.132428,-3.168510,0.705201,0.997653,0.062347,-0.027210,0.007859
705,0.689706,1.187258,9.889486,2.141788,0.563796,2.034156,7.172548,-3.187322,0.813811,0.997618,0.062723,-0.027312,0.008825
706,0.714789,1.243086,9.882461,3.058840,-0.174929,0.033692,7.251231,-3.220857,0.849168,0.997564,0.063418,-0.027578,0.009170
707,0.682447,1.291354,9.866337,4.709912,-0.793096,-1.551724,7.386458,-3.267400,0.821672,0.997479,0.064591,-0.027988,0.008989
708,0.663360,1.347063,9.829227,5.256258,-1.041953,-2.195652,7.569315,-3.315869,0.754841,0.997367,0.066168,-0.028434,0.008480
709,0.645531,1.345614,9.871083,5.498943,-1.031369,-2.186487,7.765773,-3.360154,0.676915,0.997247,0.067860,-0.028851,0.007876
710,0.597928,1.401873,9.841047,6.106316,-0.872723,-2.160544,7.974824,-3.391536,0.599971,0.997118,0.069660,-0.029156,0.007278
711,0.521777,1.348942,9.751341,5.671453,-0.585820,-2.297882,8.180741,-3.399419,0.522549,0.996994,0.071433,-0.029260,0.006662
712,0.535003,1.298372,9.739649,4.124093,-0.100510,-2.516094,8.334494,-3.385888,0.442244,0.996905,0.072750,-0.029184,0.005994
713,0.553691,1.250417,9.754680,2.112435,0.084228,-3.442317,8.346154,-3.352302,0.349584,0.996911,0.072827,-0.028951,0.005170
714,0.508802,1.258896,9.741554,1.643446,0.110280,-4.598953,8.310138,-3.308093,0.223468,0.996950,0.072482,-0.028647,0.004036
715,0.505189,1.148740,9.776812,-0.483963,0.415545,-6.805437,8.286181,-3.256211,0.039477,0.996983,0.072228,-0.028313,0.002396
716,0.556781,1.235699,9.839603,-1.372336,1.039693,-10.791143,8.214346,-3.181590,-0.244484,0.997049,0.071535,-0.027842,-0.000139
717,0.498158,1.373878,9.922811,-4.258012,0.748282,-14.035259,8.112297,-3.085469,-0.648723,0.997128,0.070555,-0.027255,-0.003741
718,0.397426,1.333143,9.864079,-7.908103,0.890311,-14.412175,7.918602,-2.968724,-1.114260,0.997249,0.068770,-0.026512,-0.007909
719,0.308473,1.310352,9.691164,-12.759087,1.752661,-15.198051,7.585348,-2.817781,-1.597407,0.997434,0.065778,-0.025453,-0.012279
720,0.276215,1.318302,9.752257,-17.336874,2.599794,-14.609076,7.104558,-2.633061,-2.081612,0.997676,0.061516,-0.024053,-0.016701
721,0.201306,1.175742,9.775331,-20.782423,2.465789,-11.519113,6.485195,-2.442232,-2.504843,0.997960,0.056072,-0.022508,-0.020612
722,0.177982,1.140597,9.755831,-18.435558,2.414204,-7.283178,5.842729,-2.268297,-2.808558,0.998230,0.050456,-0.021010,-0.023462
723,0.209767,1.355615,9.845439,-9.514773,1.671333,-2.323958,5.428189,-2.133679,-2.963636,0.998394,0.046847,-0.019816,-0.024945
724,0.415837,1.462120,10.036551,4.946927,-0.365693,6.436351,5.450606,-2.101026,-2.897255,0.998404,0.047061,-0.019509,-0.024376
725,0.453794,1.245661,9.898927,22.030136,-3.292494,15.149374,5.982335,-2.212587,-2.548670,0.998227,0.051731,-0.020436,-0.021198
726,0.333361,1.135740,9.853015,29.975872,-4.226383,19.124403,6.874911,-2.405610,-1.996540,0.997851,0.059572,-0.021995,-0.016129
727,0.373898,1.190132,9.848081,31.324854,-4.026432,19.725609,7.881842,-2.614005,-1.371910,0.997323,0.068433,-0.023577,-0.010373
728,0.387584,1.113401,9.855618,27.384766,-3.330546,17.448927,8.802428,-2.812216,-0.774559,0.996741,0.076550,-0.024984,-0.004854
729,0.339851,1.081524,9.786862,17.786285,-1.917411,11.648886,9.449866,-2.950252,-0.304876,0.996274,0.082276,-0.025874,-0.000530
730,0.303131,1.424146,9.820463,6.475743,0.106178,5.349851,9.763011,-2.984882,-0.026097,0.996035,0.085061,-0.025970,0.001989
731,0.423967,1.592366,9.813226,2.276215,0.602285,3.573652,9.864838,-2.962247,0.124652,0.995961,0.085980,-0.025658,0.003306
732,0.409083,1.517649,9.753240,2.094467,0.733631,3.567537,9.898799,-2.937147,0.247601,0.995937,0.086303,-0.025347,0.004363
733,0.449856,1.491364,9.693188,1.843991,0.845118,3.106703,9.913342,-2.911633,0.364192,0.995927,0.086454,-0.025036,0.005360
734,0.413386,1.498315,9.705283,1.250168,0.956596,2.824404,9.912019,-2.882174,0.469303,0.995929,0.086465,-0.024701,0.006251
735,0.465407,1.511039,9.735479,0.798263,1.106208,3.138744,9.894564,-2.851277,0.575592,0.995943,0.086336,-0.024353,0.007148
736,0.505532,1.594579,9.756136,0.421181,1.341213,3.372217,9.873787,-2.827619,0.691413,0.995956,0.086179,-0.024062,0.008133
737,0.540135,1.617045,9.779125,-0.422768,1.435783,3.685044,9.844822,-2.809828,0.816506,0.995972,0.085953,-0.023816,0.009201
738,0.551114,1.629299,9.787369,-0.853172,1.330427,3.907845,9.798776,-2.799753,0.950130,0.995997,0.085580,-0.023632,0.010345
739,0.539196,1.618061,9.827909,-0.606059,0.933619,3.781210,9.750407,-2.798246,1.083855,0.996021,0.085187,-0.023524,0.011496
740,0.527462,1.621589,9.831906,-0.033923,0.352187,3.469934,9.716349,-2.808615,1.207594,0.996031,0.084917,-0.023526,0.012572
741,0.511400,1.643187,9.818670,0.297140,-0.255167,2.764967,9.703161,-2.832134,1.311031,0.996024,0.084825,-0.023655,0.013486
742,0.497102,1.642006,9.822149,0.605332,-0.555790,2.087461,9.705424,-2.862377,1.389004,0.996006,0.084864,-0.023860,0.014187
743,0.419831,1.633003,9.810766,0.974478,-0.647165,1.844814,9.702995,-2.856622,1.451580,0.996001,0.084855,-0.023764,0.014726
744,0.414115,1.601954,9.779525,1.415324,-0.765955,2.154545,9.710149,-2.844312,1.514866,0.995990,0.084929,-0.023609,0.015268
745,0.402726,1.571683,9.741792,2.083581,-1.064937,2.908340,9.744858,-2.868427,1.593965,0.995948,0.085250,-0.023755,0.015981
746,0.412940,1.569379,9.733788,2.507670,-1.226583,4.266401,9.792183,-2.905999,1.706662,0.995888,0.085688,-0.023991,0.016998
747,0.442827,1.587153,9.764415,3.709980,-1.414187,5.644303,9.863977,-2.960627,1.863329,0.995797,0.086352,-0.024337,0.018415
748,0.538358,1.644689,9.843739,5.179348,-1.777335,6.453044,9.982643,-3.043285,2.054039,0.995655,0.087434,-0.024891,0.020160
749,0.584470,1.721525,9.837527,6.201674,-1.765171,6.904728,10.151949,-3.149375,2.263674,0.995460,0.088967,-0.025620,0.022099
750,0.576437,1.772289,9.829189,5.997201,-1.405100,7.267908,10.343051,-3.252987,2.487006,0.995238,0.090694,-0.026306,0.024162
751,0.600460,1.731800,9.781158,5.128925,-1.402085,7.045131,10.510593,-3.349669,2.713774,0.995029,0.092218,-0.026928,0.026247
752,0.610853,1.653295,9.709107,2.864333,-1.363977,6.392049,10.607303,-3.444471,2.927237,0.994873,0.093126,-0.027556,0.028198
753,0.659455,1.549754,9.664439,1.824935,-1.249593,5.891572,10.624853,-3.537689,3.123706,0.994783,0.093346,-0.028201,0.029983
754,0.728540,1.637266,9.505462,1.991017,-1.376364,4.347373,10.629532,-3.637011,3.286646,0.994706,0.093449,-0.028929,0.031478
755,0.845066,1.701378,9.602503,-1.781219,-1.472710,2.165349,10.596855,-3.747392,3.386659,0.994671,0.093216,-0.029815,0.032426
756,0.846119,1.686280,9.773189,-3.108917,-1.694218,1.057583,10.483553,-3.860013,3.431867,0.994715,0.092270,-0.030789,0.032878
757,0.796912,1.789348,9.818689,-3.015937,-2.536716,0.099343,10.360999,-3.971055,3.439507,0.994775,0.091234,-0.031782,0.032997
