seq,ax,ay,az,wroll,wpitch,wyaw,roll,pitch,yaw,q0,q1,q2,q3
60,0.177568,-3.473113,8.886163,-21.281111,2.276920,1.835644,-21.347799,-1.066235,0.416701,0.982655,-0.185176,-0.009817,0.001850
61,-0.197714,-7.405849,6.645282,-29.296793,-0.203013,3.970747,-22.192141,-0.998246,0.493764,0.981267,-0.192409,-0.009378,0.002552
62,-0.229108,-7.263363,6.466880,-98.839142,6.156079,7.689992,-24.329655,-0.830514,0.632988,0.977513,-0.210677,-0.008249,0.003872
63,-0.397380,-7.135208,6.429547,-88.705635,9.352868,10.008148,-27.455164,-0.468856,0.785632,0.971411,-0.237271,-0.005601,0.005689
64,-0.381881,-7.215138,6.592813,-77.422386,7.336392,9.588428,-30.222561,-0.068209,0.938597,0.965390,-0.260681,-0.002710,0.007752
65,-0.341556,-7.149079,6.744862,-63.045963,5.211571,8.335257,-32.562126,0.265462,1.084513,0.959846,-0.280357,-0.000430,0.009734
66,-0.301635,-6.967135,6.775047,-51.727253,2.732907,7.048488,-34.473305,0.517155,1.225039,0.955010,-0.296345,0.001142,0.011547
67,-0.138866,-6.921373,6.935269,-43.393200,-1.739288,3.429186,-36.056927,0.631297,1.357853,0.950801,-0.309525,0.001571,0.012972
68,-0.106398,-6.865548,7.042494,-11.673901,-3.236184,0.853610,-36.973454,0.607074,1.463962,0.948285,-0.317119,0.000973,0.013795
69,-0.115927,-6.804668,7.070737,-9.916002,-2.341115,-1.040644,-37.332764,0.530936,1.517381,0.947285,-0.320084,0.000151,0.014027
70,-0.114095,-6.789394,7.035910,-9.544830,-1.341180,-2.760064,-37.657234,0.443733,1.504457,0.946383,-0.322756,-0.000572,0.013675
71,-0.063521,-6.780109,6.976314,-9.737775,-0.450691,-3.922799,-37.979099,0.351894,1.434773,0.945487,-0.325405,-0.001171,0.012838
72,-0.140673,-6.762995,6.853287,-10.850356,1.256344,-4.392062,-38.322884,0.276881,1.317500,0.944523,-0.328235,-0.001491,0.011653
73,-0.137296,-6.764040,6.827322,-11.506917,2.449124,-4.240499,-38.696190,0.235650,1.166496,0.943465,-0.331308,-0.001432,0.010286
74,-0.135810,-6.778946,6.821840,-12.874559,2.303234,-3.567952,-39.103153,0.215579,1.015507,0.942296,-0.334657,-0.001193,0.008980
75,-0.078114,-6.888373,6.792776,-15.502237,1.413355,-3.274950,-39.576546,0.191156,0.888049,0.940916,-0.338547,-0.001054,0.007857
76,-0.087309,-7.120493,6.793391,-17.298664,1.200062,-2.875199,-40.123539,0.158863,0.781435,0.939297,-0.343034,-0.001037,0.006881
77,-0.025871,-7.192531,6.707792,-16.425690,0.423751,-2.065037,-40.685795,0.126072,0.701205,0.937608,-0.347637,-0.001096,0.006120
78,-0.002088,-7.147319,6.599184,-15.618050,-0.085079,-1.085340,-41.219929,0.095880,0.657847,0.935981,-0.352003,-0.001238,0.005668
79,0.018969,-7.211631,6.581400,-15.200245,-0.033655,-0.186633,-41.733574,0.080318,0.643283,0.934395,-0.356194,-0.001345,0.005495
80,-0.011409,-7.266104,6.597123,-12.785014,0.087529,0.902214,-42.199970,0.088938,0.651574,0.932937,-0.359995,-0.001323,0.005584
81,-0.000022,-7.275829,6.589881,-9.660723,-0.193635,1.513758,-42.574001,0.114750,0.682536,0.931754,-0.363039,-0.001229,0.005913
82,0.010545,-7.277894,6.548023,-23.808960,-1.155383,1.405515,-43.131718,0.131333,0.733507,0.929973,-0.367570,-0.001287,0.006374
83,0.042477,-7.354466,6.527934,-22.066914,-2.203247,0.511336,-43.896164,0.112765,0.795166,0.927498,-0.373763,-0.001681,0.006804
84,0.068089,-7.345348,6.547296,-17.060186,-2.915340,-0.540480,-44.548168,0.051279,0.854235,0.925354,-0.379030,-0.002411,0.007068
85,0.115457,-7.264237,6.566885,-12.159863,-3.491472,-2.325395,-45.035164,-0.058159,0.895485,0.923735,-0.382951,-0.003462,0.007024
86,0.110459,-7.177137,6.587559,-8.510404,-2.997559,-2.592045,-45.379715,-0.192500,0.914394,0.922581,-0.385718,-0.004628,0.006714
87,0.125363,-7.204955,6.681042,-5.744223,-2.433878,-2.858164,-45.617298,-0.320729,0.915257,0.921780,-0.387620,-0.005676,0.006277
88,0.093941,-7.192647,6.814804,-0.609109,-1.159729,-2.421108,-45.723068,-0.425512,0.896593,0.921423,-0.388464,-0.006461,0.005767
89,0.061541,-7.136376,6.811795,1.876466,-0.380299,-1.904727,-45.701702,-0.495033,0.864593,0.921497,-0.388289,-0.006911,0.005275
90,0.001737,-7.121741,6.804651,1.949864,0.471018,-0.440995,-45.637665,-0.521937,0.836177,0.921714,-0.387774,-0.007028,0.004959
91,-0.020898,-7.123452,6.804847,1.545789,0.693730,0.637689,-45.579311,-0.506012,0.824591,0.921913,-0.387306,-0.006858,0.004924
92,-0.007579,-7.103325,6.783712,1.286045,0.102399,1.589921,-45.532249,-0.470213,0.841110,0.922071,-0.386929,-0.006624,0.005180
93,0.016467,-7.036331,6.677107,0.404415,-0.830385,2.783486,-45.504547,-0.426705,0.900840,0.922162,-0.386706,-0.006474,0.005809
94,-0.012660,-7.015559,6.681591,0.949528,-0.863683,5.038633,-45.482750,-0.353514,1.012362,0.922229,-0.386530,-0.006260,0.006955
95,-0.065157,-7.033026,6.741292,2.656157,-0.983276,7.691219,-45.423512,-0.223906,1.183134,0.922416,-0.386055,-0.005789,0.008770
96,-0.011527,-6.981461,6.745880,4.512807,-3.281936,7.695776,-45.304657,-0.091379,1.413907,0.922792,-0.385100,-0.005488,0.011079
98,-0.066862,-6.915308,6.923427,6.616703,-3.250964,8.266026,-45.119377,0.020705,1.678627,0.923380,-0.383607,-0.005453,0.013597
99,-0.075507,-6.867891,7.055953,7.359255,-3.588788,7.351272,-44.886105,0.124125,1.943289,0.924119,-0.381727,-0.005473,0.016087
100,-0.012576,-6.766241,7.175793,8.722926,-4.577288,5.071143,-44.617451,0.173213,2.186160,0.924972,-0.379554,-0.005843,0.018222
101,0.091942,-6.664495,7.227943,8.835740,-5.673744,1.579460,-44.324322,0.128902,2.384995,0.925910,-0.377169,-0.006809,0.019698
102,0.088668,-6.546865,7.300032,9.309163,-4.434179,-0.741993,-44.021801,0.017761,2.512465,0.926888,-0.374696,-0.008073,0.020384
103,0.134925,-6.520895,7.343227,9.199264,-4.183153,-3.515174,-43.713409,-0.135011,2.560852,0.927895,-0.372169,-0.009412,0.020301
104,0.168964,-6.553934,7.436588,9.002406,-3.715279,-5.896107,-43.409988,-0.338543,2.537948,0.928893,-0.369675,-0.010934,0.019483
105,0.171519,-6.675504,7.436677,2.623204,-1.362861,-5.656151,-43.215637,-0.532246,2.455943,0.929539,-0.368070,-0.012209,0.018214
106,0.211534,-6.689938,7.358990,3.693335,-0.263975,-7.189010,-43.108917,-0.698530,2.318388,0.929907,-0.367189,-0.013101,0.016576
107,0.201936,-6.785129,7.370003,4.440986,1.251433,-6.966223,-42.970875,-0.847522,2.134699,0.930374,-0.366063,-0.013703,0.014624
108,0.288287,-6.752081,7.197247,5.256645,0.458790,-7.658428,-42.806103,-0.992522,1.936669,0.930922,-0.364724,-0.014230,0.012573
109,0.283540,-6.570907,6.985979,4.849103,2.455360,-6.280917,-42.633919,-1.114437,1.733008,0.931487,-0.363331,-0.014556,0.010553
110,0.228229,-6.432590,6.995378,3.810603,6.454485,-3.159672,-42.485420,-1.111488,1.516610,0.931975,-0.362151,-0.013834,0.008821
111,0.134589,-6.378058,7.129599,1.188686,8.928021,-0.997174,-42.398102,-0.969067,1.292382,0.932272,-0.361484,-0.011962,0.007457
112,0.145724,-6.291423,7.359155,3.504282,10.751628,-1.465976,-42.316162,-0.754396,1.040987,0.932551,-0.360864,-0.009418,0.006096
113,0.022870,-6.230588,7.458850,11.398298,12.815755,-2.468775,-42.064346,-0.507383,0.728618,0.933361,-0.358855,-0.006415,0.004346
114,-0.202551,-6.396074,7.629393,19.642012,14.560968,-2.490394,-41.544674,-0.222225,0.362987,0.934993,-0.354647,-0.002937,0.002274
115,-0.252699,-6.422960,7.565403,25.680630,14.493281,-3.453395,-40.788834,0.077256,-0.030190,0.937316,-0.348480,0.000724,-0.000012
116,-0.264302,-6.412555,7.621442,30.202709,14.284419,-4.642020,-39.859043,0.355722,-0.443222,0.940105,-0.340849,0.004237,-0.002578
117,-0.376335,-6.376747,7.419774,29.670334,13.742562,-2.151519,-38.864555,0.645116,-0.826830,0.943009,-0.332640,0.007709,-0.004931
118,-0.464837,-6.263115,7.333552,22.501480,12.822759,0.857468,-37.999329,0.978659,-1.119025,0.945468,-0.325456,0.011254,-0.006453
119,-0.320334,-6.014310,7.335473,14.350073,10.760553,3.011702,-37.389088,1.329120,-1.308600,0.947158,-0.320355,0.014646,-0.007099
120,-0.359986,-5.812952,7.600353,11.860762,10.042130,5.312110,-36.954933,1.689220,-1.407767,0.948331,-0.316702,0.017873,-0.006979
121,-0.490056,-5.662026,7.670907,10.635199,7.695647,8.705158,-36.579750,2.065924,-1.397659,0.949325,-0.313542,0.020943,-0.005921
122,-0.413249,-5.626794,7.774283,11.963564,5.370421,9.103146,-36.198929,2.417418,-1.287879,0.950321,-0.310353,0.023540,-0.004127
123,-0.410640,-5.568239,7.836855,11.606685,2.554984,5.463204,-35.800880,2.667008,-1.168919,0.951358,-0.307039,0.025279,-0.002552
124,-0.488372,-5.587947,7.911648,8.041282,2.004693,2.028455,-35.470692,2.801482,-1.111533,0.952217,-0.304290,0.026236,-0.001790
125,-0.355364,-5.600892,7.826005,5.611484,-1.245248,-3.089983,-35.244205,2.801523,-1.133289,0.952816,-0.302402,0.026290,-0.002023
126,-0.181383,-5.671422,7.697617,3.354221,0.237636,-7.188443,-35.101013,2.689074,-1.263702,0.953209,-0.301198,0.025695,-0.003436
127,-0.335774,-5.525656,7.610244,1.623328,2.882876,-10.221941,-35.030342,2.564867,-1.531336,0.953403,-0.300571,0.025362,-0.006005
128,-0.315147,-5.525036,7.643153,1.064019,3.967039,-9.651118,-35.000397,2.468259,-1.868419,0.953474,-0.300264,0.025440,-0.009070
129,-0.199713,-5.569890,7.603296,2.453525,3.796045,-8.727723,-34.955624,2.398662,-2.193866,0.953570,-0.299833,0.025709,-0.011971
130,-0.356943,-5.633184,7.467436,3.699883,4.560528,-6.966113,-34.865299,2.363220,-2.488328,0.953776,-0.299023,0.026173,-0.014535
131,-0.584281,-5.692611,7.411755,5.093618,5.331765,-3.586132,-34.728695,2.398279,-2.727057,0.954096,-0.297822,0.027068,-0.016462
132,-0.447142,-6.022321,7.504304,-6.602675,4.261296,-0.972084,-34.760448,2.486408,-2.880765,0.953980,-0.298026,0.028206,-0.017505
133,-0.481974,-6.344397,7.577086,-8.308814,3.394005,1.109883,-35.012150,2.592245,-2.951998,0.953300,-0.300075,0.029311,-0.017757
134,-0.603690,-6.316981,7.552641,10.457521,1.205454,3.351718,-34.975574,2.697639,-2.935030,0.953385,-0.299746,0.030138,-0.017348
135,-0.591153,-6.443930,7.470500,11.047833,-0.110502,4.557503,-34.612484,2.787829,-2.836934,0.954333,-0.296725,0.030579,-0.016392
136,-0.369541,-6.532000,7.536062,11.803779,-1.460260,2.693960,-34.226017,2.834588,-2.722287,0.955337,-0.293523,0.030620,-0.015419
137,-0.504983,-6.290578,7.428566,13.436371,-0.736331,1.251842,-33.801651,2.841001,-2.647143,0.956427,-0.290001,0.030426,-0.014889
138,-0.612012,-6.082705,7.491210,13.087012,-0.891443,-0.366655,-33.358250,2.826501,-2.619807,0.957547,-0.286309,0.030179,-0.014815
139,-0.654431,-6.217938,7.643192,10.772750,-1.547227,-1.468371,-32.960754,2.775707,-2.623150,0.958542,-0.282998,0.029711,-0.015073
140,-0.594596,-6.087568,7.869192,10.422993,-2.737615,-2.495406,-32.608303,2.679881,-2.639998,0.959419,-0.280068,0.028903,-0.015541
141,-0.710804,-5.762971,8.007073,10.711568,-3.232408,-1.444086,-32.256157,2.560683,-2.642013,0.960291,-0.277147,0.027862,-0.015936
142,-0.640785,-5.708988,8.165233,9.647848,-4.622951,-0.452185,-31.914968,2.433001,-2.599212,0.961134,-0.274328,0.026641,-0.015966
143,-0.525872,-5.658120,8.185636,9.022829,-4.621190,-0.835318,-31.601179,2.290749,-2.536286,0.961908,-0.271743,0.025254,-0.015849
144,-0.449942,-5.429741,8.233958,10.325470,-3.198228,-0.858169,-31.277006,2.164832,-2.492348,0.962693,-0.269060,0.024049,-0.015848
145,-0.473399,-4.969522,8.288856,13.730343,-2.059380,-0.085954,-30.874905,2.081639,-2.460614,0.963644,-0.265705,0.023220,-0.015859
146,-0.302522,-4.984674,8.453705,15.174272,-2.530730,0.360035,-30.391638,2.018137,-2.417736,0.964769,-0.261661,0.022520,-0.015741
147,-0.273722,-4.753188,8.560092,19.247950,-1.921999,-0.044394,-29.816492,1.956592,-2.375939,0.966082,-0.256837,0.021829,-0.015640
148,-0.236272,-4.528767,8.748955,22.781513,-3.143533,1.515643,-29.113911,1.895112,-2.313060,0.967653,-0.250934,0.021075,-0.015378
149,-0.127757,-4.382867,8.813485,25.160902,-5.039851,1.372024,-28.311426,1.798702,-2.205275,0.969410,-0.244190,0.019922,-0.014819
150,0.173522,-4.689658,8.855095,23.575027,-6.349579,-0.858654,-27.496323,1.634989,-2.108757,0.971149,-0.237335,0.018229,-0.014482
151,-0.030609,-4.501774,8.903974,23.994400,-4.629235,-2.344272,-26.702604,1.447720,-2.072767,0.972788,-0.230642,0.016466,-0.014680
152,-0.150726,-4.573453,9.070183,21.644203,-3.891553,-1.354890,-25.941847,1.292981,-2.065110,0.974310,-0.224208,0.015038,-0.015027
153,-0.130563,-4.808303,9.099896,18.135723,-2.927858,-1.662665,-25.278788,1.168790,-2.061368,0.975598,-0.218588,0.013886,-0.015320
154,-0.228286,-4.789852,9.228223,15.203048,-1.689746,-1.957743,-24.723602,1.073511,-2.083535,0.976647,-0.213873,0.013041,-0.015754
155,-0.459247,-4.640389,9.467822,13.034373,-0.387670,-2.188440,-24.253880,1.013323,-2.132098,0.977512,-0.209873,0.012552,-0.016332
156,-0.444782,-4.585478,9.492178,10.960576,-0.960193,-3.472342,-23.855303,0.954321,-2.209132,0.978227,-0.206474,0.012131,-0.017139
157,-0.378860,-4.504760,9.420161,9.351190,-1.534382,-6.567785,-23.518927,0.848984,-2.345644,0.978811,-0.203607,0.011423,-0.018528
158,-0.326503,-4.078107,9.274549,11.689552,-1.486030,-11.302965,-23.171644,0.684659,-2.599121,0.979383,-0.200648,0.010406,-0.021018
159,-0.413107,-3.936414,8.965245,12.638093,0.161691,-15.349982,-22.770317,0.490911,-2.999490,0.980000,-0.197224,0.009365,-0.024812
160,-0.529660,-3.860772,8.780754,12.217551,2.527347,-15.591940,-22.359682,0.334311,-3.492916,0.980581,-0.193711,0.008770,-0.029333
161,-0.495275,-3.817228,8.755369,10.199483,2.878345,-12.136686,-21.988487,0.243273,-3.954931,0.981073,-0.190524,0.008663,-0.033468
162,-0.231234,-3.503917,8.818716,10.372458,1.557656,-8.643194,-21.646969,0.183213,-4.303957,0.981528,-0.187592,0.008621,-0.036582
163,-0.153889,-3.326119,9.004917,15.874952,3.843831,-2.873538,-21.210203,0.196986,-4.515521,0.982167,-0.183829,0.008939,-0.038406
164,-0.075857,-3.187592,9.198813,20.039595,1.612949,0.666126,-20.611984,0.269039,-4.582474,0.983094,-0.178669,0.009461,-0.038914
165,0.053076,-3.257240,9.323746,16.936495,-0.850457,1.786931,-19.995586,0.295342,-4.548480,0.984053,-0.173372,0.009425,-0.038633
166,0.297742,-2.947520,9.020543,21.467999,-1.363370,-1.844100,-19.355486,0.260372,-4.536873,0.985009,-0.167886,0.008892,-0.038636
167,0.232905,-3.102381,8.936340,19.722712,0.741148,-3.480752,-18.669348,0.221501,-4.617332,0.985968,-0.161992,0.008440,-0.039436
168,0.050588,-3.182705,9.067459,13.939343,1.203234,-5.046534,-18.108894,0.207297,-4.762486,0.986697,-0.157163,0.008324,-0.040746
169,0.027023,-3.199821,9.064059,3.250462,-0.538692,-4.826498,-17.822929,0.166950,-4.922420,0.987026,-0.154703,0.008090,-0.042199
170,-0.366051,-3.080193,9.003868,0.622691,1.552276,-2.358320,-17.758680,0.146339,-5.041536,0.987067,-0.154149,0.008049,-0.043257
171,-0.721517,-3.309982,9.391395,-6.003792,1.129075,3.814898,-17.848356,0.196296,-5.032095,0.986952,-0.154903,0.008501,-0.043102
172,-0.508212,-3.379985,9.500989,-9.331656,-3.308324,8.284902,-18.103222,0.223949,-4.829079,0.986681,-0.157103,0.008556,-0.041297
173,-0.342987,-3.339183,9.542572,-10.396188,-6.917328,9.453758,-18.430971,0.154724,-4.494977,0.986341,-0.159972,0.007612,-0.038494
174,-0.204027,-3.311061,9.691680,-9.590243,-8.962080,10.086324,-18.763577,0.007721,-4.101987,0.985992,-0.162906,0.005900,-0.035299
175,0.114815,-3.290772,9.826596,-7.103747,-9.508710,9.481935,-19.042446,-0.177915,-3.693767,0.985703,-0.165376,0.003801,-0.032041
176,0.793175,-3.103230,9.962826,-2.242172,-10.730346,3.491802,-19.199894,-0.425854,-3.379024,0.985543,-0.166802,0.001254,-0.029690
177,-0.082313,-2.877225,9.619249,2.005956,-3.642261,-3.539487,-19.204729,-0.652381,-3.301108,0.985537,-0.166899,-0.000806,-0.029349
178,0.048986,-3.292852,9.352074,-0.497689,0.889822,-4.850598,-19.178291,-0.741694,-3.418169,0.985536,-0.166695,-0.001411,-0.030485
179,-0.111078,-3.285880,9.287576,-2.795574,4.739669,-5.622396,-19.230751,-0.710533,-3.613874,0.985409,-0.167140,-0.000844,-0.032123
180,0.029183,-3.410771,9.335840,-8.498878,3.711698,-6.575592,-19.416210,-0.644909,-3.852338,0.985075,-0.168717,0.000124,-0.034078
181,-0.350551,-3.713802,9.041295,-17.363791,5.316453,-3.240866,-19.845078,-0.558243,-4.057039,0.984383,-0.172376,0.001304,-0.035706
182,0.260302,-3.740606,9.402983,-22.888649,1.742559,-0.299460,-20.515133,-0.468387,-4.152980,0.983336,-0.178101,0.002433,-0.036382
183,0.112517,-3.359615,9.282887,-22.093390,0.128318,1.089211,-21.264822,-0.434799,-4.151948,0.982154,-0.184520,0.002957,-0.036302
184,0.300435,-3.325579,9.140891,-21.316818,-1.863719,1.898665,-21.988731,-0.443436,-4.095047,0.980986,-0.190725,0.003018,-0.035810
185,0.413533,-3.121898,8.744208,-16.994471,-2.875726,3.903848,-22.628197,-0.479886,-3.975674,0.979939,-0.196210,0.002701,-0.034834
186,0.360086,-3.059063,8.671272,-11.212817,-2.976723,4.372503,-23.099730,-0.516308,-3.810691,0.979169,-0.200255,0.002245,-0.033476
187,0.390098,-3.233982,8.605226,-6.785629,-3.594848,6.032849,-23.401585,-0.548565,-3.608124,0.978693,-0.202846,0.001699,-0.031797
188,0.457457,-3.350877,8.783256,-2.387067,-4.317593,6.963280,-23.556938,-0.583326,-3.356912,0.978481,-0.204184,0.000998,-0.029712
189,0.423937,-3.580907,8.985869,6.331706,-9.477653,4.517451,-23.494230,-0.717852,-3.089695,0.978646,-0.203680,-0.000642,-0.027669
190,0.204728,-3.790476,9.193742,6.257711,-3.857932,5.875879,-23.287909,-0.853244,-2.842508,0.979055,-0.201943,-0.002285,-0.025794
191,0.252071,-3.869550,9.359150,4.357214,-3.027755,6.325171,-23.114408,-0.878625,-2.610453,0.979407,-0.200459,-0.002947,-0.023852
192,0.207027,-3.920991,9.332064,5.217493,-3.406004,6.211265,-22.958443,-0.895509,-2.376196,0.979724,-0.199122,-0.003530,-0.021874
193,0.012709,-3.902257,9.279208,5.286031,-2.387174,5.570981,-22.786833,-0.908158,-2.157708,0.980060,-0.197650,-0.004048,-0.020022
194,0.079218,-3.982430,9.079724,1.381299,-2.116286,6.327032,-22.679041,-0.900768,-1.945791,0.980281,-0.196719,-0.004368,-0.018193
195,-0.050281,-3.895694,9.071750,2.589365,0.130787,7.691480,-22.616327,-0.841276,-1.717404,0.980429,-0.196166,-0.004260,-0.016135
196,-0.015212,-3.784101,8.988979,4.711116,-0.850851,5.897333,-22.497614,-0.765499,-1.503634,0.980666,-0.195135,-0.003992,-0.014172
197,-0.009580,-3.733135,8.971972,5.856700,-0.362705,5.480597,-22.323860,-0.711946,-1.320573,0.980986,-0.193636,-0.003864,-0.012508
198,0.169786,-3.736043,9.032231,5.797229,-3.605183,3.361059,-22.131638,-0.717441,-1.159133,0.981326,-0.191985,-0.004203,-0.011129
199,0.000619,-3.614342,9.141910,9.254556,1.521562,1.783917,-21.881977,-0.717516,-1.066558,0.981750,-0.189843,-0.004381,-0.010326
201,0.194523,-3.644621,9.107902,7.211606,-1.139794,-2.754021,-21.607296,-0.717680,-1.084011,0.982201,-0.187490,-0.004378,-0.010466
202,0.075028,-3.688049,9.098966,4.560348,2.610023,-2.694410,-21.409912,-0.728243,-1.177403,0.982513,-0.185802,-0.004336,-0.011276
203,0.090750,-3.677010,9.103563,3.259462,2.483757,-4.172783,-21.277903,-0.690864,-1.314964,0.982715,-0.184672,-0.003806,-0.012390
204,0.005659,-3.746599,9.120980,0.675228,3.611833,-4.040544,-21.210400,-0.645801,-1.479370,0.982808,-0.184094,-0.003163,-0.013726
205,0.117041,-3.604977,9.147856,2.998825,0.486139,-3.936638,-21.147522,-0.630180,-1.628041,0.982891,-0.183557,-0.002798,-0.014974
206,0.085093,-3.584106,9.242184,3.226567,0.512675,-1.969298,-21.042641,-0.650046,-1.725859,0.983044,-0.182662,-0.002827,-0.015843
207,0.174333,-3.541233,9.203816,2.629263,-1.758226,-0.956870,-20.944599,-0.686884,-1.763962,0.983192,-0.181826,-0.003096,-0.016226
208,0.191032,-3.514572,9.310943,2.536056,-2.576443,-0.804641,-20.858480,-0.764837,-1.765600,0.983322,-0.181097,-0.003774,-0.016360
209,0.262265,-3.429841,9.232265,3.209171,-4.219254,0.248274,-20.763178,-0.874001,-1.734020,0.983467,-0.180291,-0.004775,-0.016258
210,0.238224,-3.617641,9.135745,-3.042912,-3.763145,1.222317,-20.761538,-0.989703,-1.663928,0.983469,-0.180287,-0.005878,-0.015838
211,0.269444,-3.424798,9.031868,-0.716003,-4.260193,0.996799,-20.825674,-1.101554,-1.581815,0.983368,-0.180844,-0.006959,-0.015313
212,0.151774,-3.504375,9.159821,-2.528108,-1.316336,2.233336,-20.881401,-1.169257,-1.498425,0.983284,-0.181324,-0.007664,-0.014708
213,-0.026345,-3.444542,9.047394,-2.116582,3.361507,2.914962,-20.960144,-1.106768,-1.430414,0.983174,-0.181989,-0.007226,-0.014030
214,0.031491,-3.337299,9.114711,-2.848611,-0.355016,1.144453,-21.043716,-1.035737,-1.385174,0.983053,-0.182697,-0.006679,-0.013534
215,-0.078618,-3.128864,9.216823,-2.230829,0.161403,1.544677,-21.129156,-1.022619,-1.342217,0.982923,-0.183426,-0.006625,-0.013150
216,-0.124775,-3.313936,9.104712,-2.838637,-0.249084,1.310329,-21.214439,-1.006799,-1.297306,0.982793,-0.184154,-0.006551,-0.012744
217,-0.034744,-3.241844,8.980614,-4.408128,-1.081614,0.718317,-21.335915,-1.015195,-1.257750,0.982601,-0.185194,-0.006674,-0.012425
218,0.116829,-3.301924,9.080026,-6.684523,-1.898795,0.913255,-21.521580,-1.051494,-1.214290,0.982301,-0.186786,-0.007036,-0.012123
219,-0.105269,-3.392390,8.964140,-10.167221,-0.587009,0.444731,-21.803118,-1.081642,-1.177959,0.981840,-0.189199,-0.007324,-0.011879
220,0.290125,-3.582119,8.724847,-13.910141,-1.948527,-0.665767,-22.204639,-1.122174,-1.165510,0.981168,-0.192640,-0.007650,-0.011866
221,0.256001,-3.538746,8.729548,-18.097431,-0.503065,-2.236933,-22.737513,-1.178403,-1.194642,0.980253,-0.197207,-0.008026,-0.012247
222,0.303210,-3.839334,8.111844,-23.885960,-1.425517,-0.954409,-23.436459,-1.228758,-1.230928,0.979022,-0.203188,-0.008317,-0.012695
223,0.634038,-3.939830,7.489300,-31.816298,-4.757146,-4.834805,-24.363729,-1.362144,-1.277399,0.977325,-0.211117,-0.009266,-0.013404
224,0.511486,-3.853913,7.038848,-38.364056,-3.559486,-3.946021,-25.531408,-1.549410,-1.351879,0.975090,-0.221085,-0.010579,-0.014492
225,0.388252,-4.177554,6.656338,-48.025311,-3.586485,-3.523416,-26.969368,-1.711319,-1.410653,0.972207,-0.233321,-0.011651,-0.015451
226,0.371538,-4.404067,6.444118,-54.955120,-3.198006,-1.587181,-28.684660,-1.851121,-1.433067,0.968581,-0.247859,-0.012551,-0.016115
227,0.438984,-4.258720,6.795905,-55.905575,-1.436304,-4.388945,-30.530237,-1.967642,-1.481287,0.964437,-0.263439,-0.013160,-0.016989
228,-0.067513,-4.677126,7.287053,-57.711845,4.548542,0.442752,-32.420494,-1.957296,-1.564468,0.959949,-0.279320,-0.012589,-0.017875
229,0.105935,-5.074278,7.422714,-56.519169,4.526529,-1.248358,-34.320728,-1.838522,-1.657848,0.955191,-0.295200,-0.011060,-0.018554
230,0.310416,-5.435410,7.480529,-56.581413,4.759484,-0.639325,-36.201576,-1.730143,-1.773028,0.950217,-0.310839,-0.009542,-0.019395
231,0.387307,-6.035324,7.525620,-56.478844,4.594120,-1.817896,-38.081646,-1.630684,-1.899738,0.944984,-0.326387,-0.008042,-0.020311
232,0.197250,-6.503581,7.369141,-54.867966,3.946289,1.166772,-39.934174,-1.526829,-1.997884,0.939583,-0.341616,-0.006568,-0.020934
233,0.623239,-6.674199,6.997807,-50.754498,-0.039132,0.174989,-41.693424,-1.463303,-2.023311,0.934234,-0.355995,-0.005649,-0.021042
234,0.536061,-6.996489,6.897441,-49.018028,-0.389136,0.396344,-43.356194,-1.462369,-2.011909,0.928972,-0.369513,-0.005372,-0.021026
235,-0.160396,-6.937473,6.854180,-44.375885,1.843426,3.765238,-44.913231,-1.396741,-1.979014,0.923882,-0.382093,-0.004667,-0.020614
236,0.165057,-6.839138,6.439905,-42.319889,-0.819026,3.897005,-46.359699,-1.293625,-1.901450,0.919015,-0.393712,-0.003845,-0.019695
237,-0.118429,-6.893184,6.510201,-42.908669,0.650848,4.084600,-47.781971,-1.198372,-1.808955,0.914087,-0.405076,-0.003168,-0.018667
238,-0.523685,-7.065393,6.253931,-44.934105,2.135734,7.162950,-49.247494,-1.027105,-1.719457,0.908869,-0.416716,-0.001896,-0.017374
239,-0.214114,-7.507276,6.293355,-46.555836,-1.446543,7.575709,-50.774464,-0.831638,-1.570081,0.903280,-0.428772,-0.000682,-0.015489
240,0.236549,-7.853894,6.322343,-42.791481,-3.559962,3.695506,-52.265839,-0.736847,-1.388129,0.897656,-0.440484,-0.000437,-0.013707
241,-0.134801,-7.880940,6.450511,-37.108070,-1.818629,3.247496,-53.599083,-0.698533,-1.247312,0.892490,-0.450895,-0.000533,-0.012464
242,0.007011,-8.521221,6.317927,-33.109020,-2.657853,3.937476,-54.770737,-0.644992,-1.116667,0.887851,-0.459993,-0.000515,-0.011241
243,0.327481,-8.467187,6.379770,-24.968197,-3.703696,0.058192,-55.740005,-0.650828,-0.991576,0.883940,-0.467485,-0.000976,-0.010304
244,-0.093488,-8.570326,6.293684,-17.250492,0.058826,0.265827,-56.444260,-0.680215,-0.938417,0.881053,-0.472910,-0.001358,-0.010022
245,0.042297,-8.546407,6.297538,-13.908353,0.724895,-0.613634,-56.963390,-0.677765,-0.952419,0.878900,-0.476896,-0.001235,-0.010126
246,-0.040330,-9.030317,6.189318,-12.694543,1.431067,0.474570,-57.406387,-0.660198,-0.983889,0.877049,-0.480290,-0.000930,-0.010298
247,0.196278,-8.691019,6.080149,-7.356781,1.980807,-3.097809,-57.739758,-0.666606,-1.055292,0.875641,-0.482840,-0.000648,-0.010873
248,-0.089761,-8.976505,6.163833,-4.796227,3.956445,-1.113100,-57.940876,-0.673263,-1.176496,0.874779,-0.484377,-0.000167,-0.011827
249,0.265804,-8.785700,6.013307,-2.816011,2.435501,-2.561222,-58.066330,-0.668719,-1.299262,0.874236,-0.485334,0.000400,-0.012745
250,0.029652,-8.874977,5.838598,-1.718390,3.129328,-1.870951,-58.140503,-0.682415,-1.417062,0.873907,-0.485900,0.000804,-0.013701
251,0.154639,-8.583265,5.855369,1.832650,3.244777,-2.733600,-58.137032,-0.691506,-1.547805,0.873904,-0.485873,0.001288,-0.014737
252,0.268401,-8.822571,5.874139,1.439175,2.982696,-2.210213,-58.080887,-0.706598,-1.679472,0.874123,-0.485445,0.001724,-0.015806
253,0.694296,-9.501727,5.628467,-3.917198,2.174881,-3.369735,-58.120659,-0.740131,-1.801604,0.873933,-0.485749,0.001991,-0.016879
254,0.428409,-9.385698,6.433751,-12.441626,4.295898,-2.464620,-58.391411,-0.766131,-1.944480,0.872758,-0.487812,0.002441,-0.018073
255,0.438226,-9.723000,6.842255,-31.117306,2.826202,3.164759,-59.116188,-0.694646,-2.039862,0.869649,-0.493312,0.003509,-0.018473
256,0.863432,-10.237862,7.692157,-50.346546,-0.745470,5.631867,-60.474335,-0.550857,-1.995952,0.863765,-0.503571,0.004618,-0.017468
257,0.286983,-10.545649,7.675547,-62.523438,-2.184447,8.628188,-62.356403,-0.365939,-1.839548,0.855420,-0.517676,0.005578,-0.015387
258,-0.034076,-10.462922,7.244998,-66.442146,-5.126726,13.346462,-64.506210,-0.093205,-1.566741,0.845614,-0.533620,0.006608,-0.011996
259,0.271288,-11.504199,6.497176,-56.397594,-9.451066,16.409252,-66.552162,0.256732,-1.139955,0.836005,-0.548627,0.007331,-0.007088
260,-0.095166,-11.479911,6.139809,-23.545946,-9.372330,15.519668,-67.880402,0.624681,-0.644339,0.829612,-0.558285,0.007662,-0.001621
261,-0.510884,-11.428800,4.270264,4.491240,-8.720038,19.807018,-68.190613,1.056766,-0.143642,0.828077,-0.560537,0.008339,0.004132
262,-0.076968,-11.210762,4.189542,30.185520,-5.630078,21.797493,-67.601303,1.608143,0.339951,0.830869,-0.556282,0.010011,0.010272
263,-0.413841,-10.888268,4.583830,60.065239,-4.228050,25.199982,-66.081543,2.262588,0.800133,0.838024,-0.545232,0.012744,0.016617
264,-0.595645,-9.864571,3.499648,82.008041,-2.156853,24.504980,-63.693825,2.966209,1.249313,0.848977,-0.527683,0.016234,0.022914
265,-0.269790,-9.406220,2.600723,81.116211,-0.253675,22.919685,-60.953243,3.645911,1.653426,0.861078,-0.507273,0.020099,0.028561
266,-0.371369,-7.819282,3.806710,95.916023,2.330285,15.898610,-57.984020,4.219829,1.952755,0.873663,-0.484837,0.023945,0.032737
267,-0.363678,-7.429633,3.464558,102.522507,1.070309,10.798594,-54.663742,4.619489,2.154253,0.887136,-0.459363,0.027172,0.035187
268,-0.377782,-6.414616,3.038008,97.148140,3.122114,3.506051,-51.331654,4.851051,2.243448,0.899997,-0.433397,0.029666,0.035956
269,-0.384583,-5.510468,3.679379,87.487373,2.997406,-3.797513,-48.263844,4.911601,2.163113,0.911275,-0.409129,0.031387,0.034725
270,-0.462433,-4.722642,4.290090,85.025200,2.406876,-10.888104,-45.410374,4.793606,1.930471,0.921293,-0.386247,0.032077,0.031666
271,-0.413997,-5.136480,3.954888,66.476646,1.546847,-11.200321,-42.912247,4.583517,1.620777,0.929654,-0.365986,0.032044,0.027778
272,-0.494207,-4.131349,4.608912,59.669758,1.404724,-14.725592,-40.838352,4.331463,1.265714,0.936293,-0.349006,0.031563,0.023527
273,-0.299190,-4.102014,5.860786,51.649326,-0.367319,-20.878929,-39.017414,3.963411,0.798994,0.941924,-0.333970,0.030267,0.018116
274,-0.492968,-4.565685,7.073979,48.342907,0.987511,-19.281258,-37.386181,3.556940,0.266543,0.946767,-0.320412,0.028653,0.012149
275,-0.443331,-4.634579,7.731537,51.109505,0.207381,-21.489155,-35.761887,3.168073,-0.291982,0.951351,-0.306855,0.027090,0.006064
276,-0.643908,-4.457995,8.648125,50.027554,1.163260,-22.635639,-34.108570,2.765738,-0.908438,0.955775,-0.293000,0.025396,-0.000499
277,-0.656302,-5.018279,8.882257,41.478085,0.221573,-21.117830,-32.611870,2.383891,-1.530633,0.959561,-0.280414,0.023713,-0.006977
278,-0.706228,-4.880853,8.645811,37.629799,0.527135,-16.392061,-31.314463,2.063412,-2.067672,0.962668,-0.269481,0.022203,-0.012512
279,-0.565039,-4.481891,8.254604,29.549706,0.376872,-14.694525,-30.210316,1.811619,-2.520940,0.965186,-0.260160,0.020990,-0.017116
280,-0.640035,-4.659487,8.361749,16.004253,0.934064,-7.685635,-29.461254,1.644875,-2.855401,0.966823,-0.253824,0.020212,-0.020445
281,-0.522163,-4.816562,8.158797,10.187601,-0.175929,-6.638113,-29.030722,1.539262,-3.070001,0.967736,-0.250179,0.019712,-0.022565
282,-0.286791,-4.488082,7.952266,10.352528,-1.213942,-6.499887,-28.693031,1.413237,-3.250586,0.968438,-0.247328,0.018970,-0.024422
283,-0.318088,-4.647769,8.122099,6.235611,-0.635568,-5.568656,-28.420370,1.290029,-3.412546,0.968993,-0.245030,0.018217,-0.026101
284,-0.250484,-4.659240,8.381468,4.742723,-0.744483,-3.255080,-28.239983,1.199957,-3.531089,0.969352,-0.243511,0.017666,-0.027324
285,-0.297134,-4.621398,8.310642,5.362470,-1.041807,-3.737137,-28.073349,1.118732,-3.619807,0.969685,-0.242111,0.017126,-0.028272
286,-0.220285,-4.682941,8.286513,-0.978663,-1.920210,-1.499542,-28.001299,1.034135,-3.673645,0.969825,-0.241518,0.016506,-0.028917
287,-0.493841,-4.837740,8.621607,-6.646289,-0.923485,1.093011,-28.128075,0.989113,-3.657285,0.969562,-0.242606,0.016123,-0.028856
288,-0.174804,-4.632044,8.402540,-8.943684,-3.085538,1.006655,-28.386847,0.946817,-3.594782,0.969027,-0.244816,0.015697,-0.028382
289,-0.543133,-5.126000,8.000196,-17.223495,-1.776491,3.666232,-28.821222,0.912952,-3.487627,0.968118,-0.248511,0.015286,-0.027490
290,-0.302317,-4.919676,7.802001,-20.059137,-3.042314,2.670672,-29.440495,0.894223,-3.356165,0.966792,-0.253762,0.014985,-0.026340
291,-0.139345,-4.762032,7.510926,-21.967047,-2.989428,0.409869,-30.139498,0.832527,-3.261724,0.965247,-0.259683,0.014412,-0.025592
292,-0.097284,-4.622899,7.013569,-25.691982,-2.229315,-1.903872,-30.933479,0.745078,-3.239025,0.963429,-0.266390,0.013801,-0.025505
293,-0.367598,-4.758558,6.586620,-32.710552,-0.813920,-1.358350,-31.907055,0.673600,-3.258991,0.961125,-0.274581,0.013465,-0.025726
294,0.433459,-4.562859,6.163877,-38.756149,-5.290874,-7.484421,-33.098778,0.508626,-3.328468,0.958197,-0.284595,0.012525,-0.026575
295,-0.097608,-4.572747,6.269344,-45.710033,-1.430128,-4.686645,-34.507111,0.302924,-3.435238,0.954593,-0.296391,0.011414,-0.027841
296,-0.027133,-4.818774,6.108036,-54.336063,-3.745393,-3.367112,-36.174500,0.154891,-3.494230,0.950155,-0.310281,0.010750,-0.028562
297,0.318889,-5.175681,6.522203,-61.018993,-3.874404,-5.267658,-38.096592,-0.033502,-3.532313,0.944792,-0.326219,0.009782,-0.029228
298,0.189216,-5.412142,6.902877,-63.118458,-1.420166,-4.846354,-40.164730,-0.208085,-3.607442,0.938713,-0.343254,0.009103,-0.030185
299,-0.055200,-5.955816,7.150596,-63.000076,0.502444,-2.418617,-42.265610,-0.299144,-3.688068,0.932231,-0.360421,0.009168,-0.030955
300,0.515417,-6.513975,7.224551,-55.960274,-0.873699,-5.931372,-44.247005,-0.399046,-3.784683,0.925820,-0.376503,0.009212,-0.031901
301,0.415148,-6.585262,7.240371,-44.590847,3.768393,-7.863947,-45.920750,-0.527486,-3.981686,0.920147,-0.390002,0.009316,-0.033782
302,-0.168171,-6.835964,6.912968,-36.551308,5.321887,-2.510998,-47.270767,-0.548270,-4.210428,0.915416,-0.400801,0.010347,-0.035570
304,0.225800,-6.982155,6.611731,-32.511230,4.088052,-5.488315,-48.419781,-0.541960,-4.415676,0.911287,-0.409938,0.011488,-0.037074
305,-0.122550,-6.977102,6.486824,-31.815023,5.716880,-5.320452,-49.489384,-0.570363,-4.657454,0.907336,-0.418408,0.012491,-0.038983
306,-0.128526,-7.263022,6.423275,-36.383926,4.599271,-4.119496,-50.623604,-0.580497,-4.890179,0.903068,-0.427345,0.013664,-0.040730
307,-0.145554,-7.688830,6.322978,-41.651772,3.071857,-2.900533,-51.922268,-0.591997,-5.063076,0.898102,-0.437533,0.014695,-0.041971
308,-0.073164,-8.089192,6.103742,-45.571861,2.504275,-3.384250,-53.374325,-0.619124,-5.200476,0.892429,-0.448869,0.015553,-0.042958
309,-0.145358,-8.463324,6.072577,-45.113319,0.427862,2.263291,-54.884914,-0.605687,-5.251079,0.886419,-0.460582,0.016425,-0.043086
310,0.296086,-8.853355,6.059082,-40.960155,-2.536686,4.294401,-56.320137,-0.535911,-5.159961,0.880630,-0.471638,0.017125,-0.041890
311,0.209361,-8.865401,5.682653,-34.523216,-3.097739,6.023866,-57.579475,-0.443395,-4.987448,0.875475,-0.481285,0.017566,-0.039993
312,-0.131103,-9.285948,5.723127,-29.090662,-3.427676,10.418117,-58.641060,-0.268406,-4.750211,0.871095,-0.489358,0.018253,-0.037279
313,0.332368,-9.386128,5.454374,-23.628227,-6.030906,9.927604,-59.520485,-0.058809,-4.440413,0.867449,-0.496016,0.018784,-0.033885
314,0.220611,-9.491509,5.485971,-18.323914,-4.621433,6.703983,-60.219627,0.091555,-4.147767,0.864513,-0.501305,0.018845,-0.030905
315,-0.202767,-9.407660,5.485685,-12.334841,-1.366850,6.767384,-60.730030,0.237762,-3.950332,0.862344,-0.505144,0.019212,-0.028690
316,-0.242274,-9.620255,5.448349,-10.312575,-0.803025,5.955928,-61.106674,0.405520,-3.815532,0.860734,-0.507954,0.019969,-0.026870
317,-0.054212,-9.631651,5.333334,-7.681264,-0.215266,3.756109,-61.405792,0.539283,-3.722797,0.859441,-0.510180,0.020629,-0.025527
318,-0.155074,-9.701550,5.603280,-5.346782,0.446035,3.043338,-61.622402,0.640738,-3.672137,0.858497,-0.511786,0.021211,-0.024655
319,-0.009827,-10.197881,5.678771,-16.512096,-1.731822,1.605432,-61.986053,0.698903,-3.616626,0.856886,-0.514503,0.021475,-0.023911
320,0.141360,-10.359941,7.026217,-40.921925,-4.305995,-4.993166,-62.942558,0.602331,-3.553605,0.852565,-0.521674,0.020668,-0.023702
321,-0.302642,-10.357586,6.724250,-62.451004,-1.101931,-5.147983,-64.665169,0.411076,-3.547667,0.844607,-0.534479,0.019585,-0.024237
322,0.271037,-11.109550,6.954402,-64.447769,1.462130,-7.769783,-66.780060,0.217748,-3.641184,0.834554,-0.550006,0.019070,-0.025481
323,0.214147,-11.392891,5.614406,-55.471706,2.692670,-7.574229,-68.778336,0.007791,-3.802135,0.824767,-0.564498,0.018793,-0.027337
324,0.091116,-11.584130,4.802602,-28.268114,5.034822,-2.577399,-70.173462,-0.105211,-3.982074,0.817770,-0.574495,0.019220,-0.028957
325,0.051464,-12.008052,3.213204,4.967275,6.203375,6.931227,-70.561722,0.026464,-4.133766,0.815804,-0.577202,0.021020,-0.029309
326,0.637546,-12.272773,3.469798,44.876804,5.808616,8.171958,-69.731438,0.331510,-4.235993,0.819991,-0.571174,0.023499,-0.028671
327,0.400231,-11.371882,2.637829,60.084023,5.709098,9.435322,-67.983002,0.674710,-4.308344,0.828644,-0.558482,0.025893,-0.027875
328,0.286601,-10.714222,3.289646,65.827721,6.128982,11.167167,-65.885826,1.067926,-4.355089,0.838763,-0.543090,0.028477,-0.026821
329,0.510843,-9.530579,4.414760,74.875168,6.123778,7.999903,-63.542801,1.443877,-4.403378,0.849715,-0.525690,0.030930,-0.026029
330,0.276748,-8.327625,3.885932,87.650688,6.240517,7.412553,-60.837105,1.766794,-4.465066,0.861897,-0.505351,0.033006,-0.025789
331,0.223230,-7.483054,3.424238,83.956551,3.536242,8.827719,-57.978928,2.082433,-4.467187,0.874243,-0.483581,0.034768,-0.025285
332,-0.252185,-6.455796,3.909446,86.718422,1.136695,12.798046,-55.131046,2.426472,-4.333538,0.886020,-0.461619,0.036249,-0.023718
333,-0.181934,-5.794548,4.233812,88.848274,1.339485,9.088280,-52.198807,2.745364,-4.150913,0.897567,-0.438736,0.037426,-0.021982
334,-0.447090,-5.353284,3.490859,76.791756,1.991498,11.080236,-49.431484,3.040201,-3.980834,0.907911,-0.416880,0.038600,-0.020455
335,-0.537800,-4.884155,3.758888,62.949787,0.924338,11.519057,-47.091846,3.353734,-3.766789,0.916237,-0.398216,0.039935,-0.018433
336,-0.857603,-4.429045,4.519866,59.663666,-0.528721,13.919190,-45.031418,3.663879,-3.477168,0.923249,-0.381669,0.041130,-0.015776
337,-0.736839,-4.435134,4.889362,52.085987,-5.077380,14.179086,-43.143005,3.922968,-3.075215,0.929418,-0.366460,0.041679,-0.012359
338,-1.033303,-4.798403,5.520360,42.776653,-9.296088,18.822384,-41.522629,4.116891,-2.505752,0.934517,-0.353428,0.041324,-0.007703
339,-0.822057,-5.425414,6.294219,34.477936,-15.587523,16.161549,-40.183720,4.185678,-1.791835,0.938598,-0.342719,0.039660,-0.002131
340,-0.308813,-5.592378,7.242876,36.904266,-20.199718,10.183455,-38.943077,4.006166,-1.071143,0.942299,-0.332812,0.036067,0.002843
341,-0.278347,-6.098540,7.392344,31.685478,-18.189976,4.962885,-37.760593,3.660806,-0.474342,0.945749,-0.323299,0.031561,0.006421
342,-0.132149,-6.600909,7.602468,25.003170,-16.245295,1.711957,-36.789677,3.271318,-0.037228,0.948521,-0.315426,0.027188,0.008699
343,0.038849,-6.257142,7.986521,22.944393,-13.123844,-2.470577,-35.975697,2.869732,0.243534,0.950805,-0.308768,0.023160,0.009754
344,-0.219133,-5.882201,8.088093,22.480099,-7.916856,-2.363036,-35.212276,2.537447,0.382331,0.952897,-0.302467,0.020095,0.009877
345,-0.394520,-5.694795,8.224617,17.936527,-3.100774,-3.128209,-34.537464,2.334326,0.412038,0.954697,-0.296860,0.018384,0.009480
346,-0.292194,-5.350379,8.538615,16.872608,-1.855175,-1.846364,-33.958260,2.219240,0.389866,0.956207,-0.292030,0.017528,0.008908
347,-0.547161,-4.893607,8.684636,20.069248,0.632709,-4.164021,-33.345329,2.146787,0.317654,0.957773,-0.286902,0.017150,0.008030
348,-0.350432,-4.907070,8.296002,25.295990,1.380790,-6.979599,-32.595711,2.073739,0.143412,0.959652,-0.280606,0.017017,0.006279
349,-0.535464,-4.682554,8.254043,26.038771,3.140264,-5.406866,-31.747868,2.027516,-0.071556,0.961718,-0.273468,0.017189,0.004239
350,-0.511775,-4.915507,8.346598,25.366951,1.721889,-1.506345,-30.896193,2.036883,-0.212334,0.963727,-0.266291,0.017626,0.002949
351,-0.695879,-4.819430,8.393403,28.001869,0.022547,-0.410047,-30.008278,2.046005,-0.254674,0.965761,-0.258809,0.017820,0.002476
352,-0.385684,-4.713474,8.503018,27.951687,-2.248321,1.464669,-29.074593,2.022523,-0.221009,0.967840,-0.250938,0.017568,0.002563
353,-0.477937,-4.671485,8.721766,21.725801,-3.130173,4.524754,-28.242115,1.991926,-0.090277,0.969639,-0.243921,0.017049,0.003477
354,0.167301,-4.743073,8.788468,17.240705,-6.271682,-0.033352,-27.587963,1.888756,0.049277,0.971026,-0.238406,0.015904,0.004347
355,-0.137132,-4.591105,8.632204,11.590197,-2.780443,-4.445079,-27.107426,1.720388,0.052552,0.972039,-0.234337,0.014487,0.003964
356,0.013419,-4.546404,8.553854,4.930338,0.293234,-8.997615,-26.837370,1.581636,-0.128363,0.972611,-0.232028,0.013685,0.002113
357,-0.257961,-4.454640,8.571370,1.124575,4.128518,-10.848077,-26.745346,1.498136,-0.456899,0.972808,-0.231212,0.013641,-0.000855
358,-0.509550,-4.207495,8.687816,-0.141370,5.155309,-9.078675,-26.738586,1.486760,-0.823231,0.972815,-0.231110,0.014283,-0.003989
359,-0.842806,-4.194858,8.726687,-1.780857,6.959899,-7.624608,-26.779634,1.541681,-1.162834,0.972710,-0.231409,0.015437,-0.006755
360,-0.729430,-3.987163,8.946249,1.202322,4.932664,-3.207076,-26.796291,1.637215,-1.413414,0.972651,-0.231504,0.016755,-0.008687
361,-0.646306,-3.959489,8.931787,12.987152,7.502370,3.945734,-26.562315,1.827978,-1.495484,0.973096,-0.229478,0.018521,-0.009035
362,-0.477622,-4.141065,8.950815,8.974010,2.327960,3.484461,-26.195120,2.029935,-1.457245,0.973805,-0.226337,0.020133,-0.008370
363,-0.400999,-4.134829,8.883143,7.587430,0.166302,2.348355,-25.916637,2.110041,-1.388056,0.974347,-0.223970,0.020658,-0.007674
364,-0.368782,-4.029302,8.958313,9.403918,-1.237829,3.599840,-25.629862,2.137070,-1.290910,0.974907,-0.221545,0.020681,-0.006847
365,-0.149056,-4.119346,8.776093,3.449669,-5.342875,-0.835737,-25.412395,2.057965,-1.202005,0.975341,-0.219720,0.019824,-0.006281
366,-0.313900,-4.151241,8.894642,-0.713281,-0.291488,-0.879540,-25.366323,1.960875,-1.187437,0.975443,-0.219343,0.018967,-0.006351
367,-0.237025,-4.061373,8.904142,-3.787851,0.070070,-1.304827,-25.442421,1.941920,-1.218744,0.975298,-0.219987,0.018870,-0.006641
368,-0.326027,-4.140018,8.901867,-6.939249,1.294240,-2.384278,-25.623411,1.935932,-1.284057,0.974946,-0.221518,0.018956,-0.007179
369,-0.354978,-4.285800,8.515230,-10.275095,1.608852,-2.225288,-25.913383,1.946112,-1.374320,0.974375,-0.223968,0.019237,-0.007879
370,-0.337708,-4.535151,8.458284,-14.127282,0.490434,-1.768247,-26.322641,1.948204,-1.449522,0.973563,-0.227433,0.019432,-0.008445
371,-0.262605,-4.530010,8.286593,-13.887345,-0.123878,-2.297847,-26.791681,1.923322,-1.512931,0.972622,-0.231409,0.019384,-0.008953
372,-0.282613,-4.852444,7.995728,-16.626799,-0.212996,0.468498,-27.301060,1.904466,-1.537572,0.971584,-0.235729,0.019314,-0.009115
373,0.025552,-4.702405,7.650790,-20.304499,-2.417862,-1.170033,-27.916239,1.860097,-1.527560,0.970311,-0.240949,0.018966,-0.009020
374,0.194997,-4.784426,7.353402,-28.631239,-3.602563,-5.233036,-28.733257,1.721163,-1.574022,0.968578,-0.247874,0.017956,-0.009578
375,-0.215342,-4.707999,7.422177,-32.971863,-0.196468,-3.138075,-29.762560,1.597911,-1.664943,0.966316,-0.256569,0.017206,-0.010460
376,0.038885,-4.415950,7.010858,-37.724724,-2.506547,-4.750219,-30.943182,1.492576,-1.755314,0.963621,-0.266514,0.016637,-0.011287
377,-0.396075,-4.602314,6.792642,-49.107315,0.463416,-5.584770,-32.393394,1.373168,-1.884262,0.960166,-0.278689,0.016092,-0.012447
378,-0.280520,-5.514428,6.771680,-55.799610,-2.208795,-3.014908,-34.143909,1.270386,-1.987826,0.955791,-0.293326,0.015688,-0.013327
379,-0.512387,-5.021795,6.568460,-51.491913,-1.593248,0.671500,-35.931503,1.195596,-1.983463,0.951103,-0.308214,0.015262,-0.013246
380,-0.077456,-5.748189,6.401147,-55.252567,-6.460630,1.584518,-37.707878,1.110358,-1.872593,0.946226,-0.322949,0.014449,-0.012332
381,-0.219319,-6.381048,6.375829,-53.068195,-6.132545,2.140959,-39.509460,0.984681,-1.693524,0.941053,-0.337826,0.013081,-0.011004
382,0.067654,-6.322547,6.300404,-42.481434,-7.995363,1.920208,-41.098278,0.848868,-1.489563,0.936301,-0.350881,0.011498,-0.009571
383,0.197264,-6.000716,6.486855,-37.365036,-5.883098,-0.589052,-42.426533,0.690858,-1.319254,0.932187,-0.361745,0.009786,-0.008551
384,-0.009300,-6.856267,6.768645,-38.539558,-2.797217,-1.938487,-43.690723,0.556665,-1.251340,0.928145,-0.372027,0.008572,-0.008328
385,-0.278832,-6.437376,6.777840,-36.687122,1.532450,-4.914152,-44.944946,0.462099,-1.318196,0.924012,-0.382168,0.008123,-0.009088
386,-0.002881,-6.741062,6.596897,-44.446396,0.714933,-5.438313,-46.298111,0.365471,-1.465555,0.919421,-0.393053,0.007960,-0.010506
387,0.100263,-7.156327,6.917019,-50.505646,1.830228,-8.834007,-47.881332,0.220054,-1.658582,0.913880,-0.405722,0.007628,-0.012449
388,-0.323610,-7.375462,6.539897,-52.784981,2.999728,-6.632611,-49.603065,0.079665,-1.889168,0.907647,-0.419409,0.007546,-0.014673
389,-0.288234,-7.709946,6.559635,-54.647076,1.480210,-4.006184,-51.393272,-0.009729,-2.059188,0.900956,-0.433538,0.007715,-0.016229
390,0.294378,-8.071813,6.171103,-51.670712,-1.290001,-5.995750,-53.164627,-0.139997,-2.163489,0.894122,-0.447424,0.007356,-0.017430
391,-0.258520,-8.529199,6.386393,-45.791054,1.692600,-2.333484,-54.788254,-0.248405,-2.250978,0.887670,-0.460057,0.007113,-0.018437
392,-0.250463,-8.279013,5.902501,-39.152905,-0.389221,1.378642,-56.203629,-0.249135,-2.277377,0.881915,-0.470984,0.007443,-0.018554
393,-0.394858,-8.920584,5.852815,-37.177799,-1.414072,2.943539,-57.475868,-0.205649,-2.212622,0.876647,-0.480744,0.007710,-0.017792
394,0.011893,-8.627610,5.676348,-28.331430,-2.459441,0.274338,-58.567848,-0.194514,-2.129387,0.872039,-0.489080,0.007609,-0.017037
395,-0.372749,-8.996329,5.455976,-25.993437,-0.888452,1.820359,-59.473423,-0.193318,-2.063800,0.868157,-0.495960,0.007468,-0.016474
396,-0.273841,-8.630831,5.223987,-21.012270,-0.743797,1.148622,-60.256939,-0.164156,-2.015293,0.864755,-0.501884,0.007588,-0.015929
397,-0.106212,-9.089922,5.034090,-19.730114,0.058053,-0.422388,-60.935997,-0.159214,-1.999413,0.861768,-0.507000,0.007649,-0.015742
398,0.365455,-8.868259,5.172273,-11.823709,1.176719,-4.687112,-61.461685,-0.223851,-2.058521,0.859419,-0.510952,0.007500,-0.016439
399,-0.030114,-9.107764,5.138903,-7.987065,3.514570,-1.911145,-61.791309,-0.283304,-2.179736,0.857922,-0.513422,0.007646,-0.017591
400,0.115394,-9.536235,5.451871,-5.300023,2.965179,-1.641290,-62.012177,-0.284617,-2.302821,0.856911,-0.515066,0.008223,-0.018502
401,0.791605,-9.704792,5.851828,-3.539945,1.275186,-5.455761,-62.158855,-0.356039,-2.420649,0.856223,-0.516164,0.008244,-0.019694
402,0.289809,-9.998816,7.069400,-1.255071,3.067352,-5.655820,-62.237633,-0.486079,-2.571104,0.855825,-0.516761,0.007964,-0.021398
403,0.215300,-10.114985,7.848090,-4.091858,2.047078,-7.216818,-62.325058,-0.636319,-2.746379,0.855375,-0.517425,0.007650,-0.023379
404,0.486974,-10.511771,8.423680,-11.757178,0.897154,-7.844112,-62.587132,-0.836228,-2.905957,0.854124,-0.519400,0.006937,-0.025456
405,0.361068,-10.555032,7.983470,-14.753701,2.438980,-4.185033,-63.026699,-0.989244,-3.046958,0.852065,-0.522689,0.006539,-0.027175
407,0.308930,-10.682669,7.727357,-1.402137,3.551240,5.270173,-63.294643,-0.928071,-3.127723,0.850833,-0.524665,0.007427,-0.027480
408,0.190422,-10.733319,6.750823,12.677567,1.653696,16.201582,-63.107887,-0.569521,-3.043568,0.851768,-0.523223,0.009663,-0.025230
409,-0.186311,-10.984274,4.748089,30.994099,-2.624913,27.818045,-62.381683,0.075247,-2.692964,0.855219,-0.517734,0.012731,-0.019762
410,0.158585,-10.344145,3.710388,54.890808,-4.547957,30.904552,-60.945896,0.879814,-2.122870,0.861768,-0.506907,0.016010,-0.012072
411,-0.411594,-9.447716,4.101274,79.387245,-5.725276,37.433258,-58.692013,1.777238,-1.401188,0.871599,-0.489822,0.019509,-0.003057
412,-0.911117,-8.762485,3.506297,82.052414,-9.432067,37.341827,-55.968399,2.688692,-0.515031,0.882875,-0.469001,0.022826,0.007041
413,0.096377,-7.751308,3.354599,80.983452,-12.145718,25.071800,-53.206280,3.327931,0.381915,0.893704,-0.447703,0.024471,0.015982
414,0.307762,-6.040907,4.771193,87.495842,-8.455873,16.902765,-50.357700,3.663853,1.087399,0.904352,-0.425483,0.024894,0.022183
415,-0.173677,-5.738054,4.843693,79.830139,-5.646452,15.548233,-47.535580,3.915115,1.621477,0.914366,-0.403198,0.025559,0.026708
416,0.003077,-5.176393,4.590245,62.280468,-6.726498,6.447966,-45.140503,4.037545,2.024104,0.922454,-0.384092,0.025749,0.029818
417,0.214091,-4.728603,4.555433,49.373135,-5.358074,-3.227782,-43.267994,3.930147,2.204432,0.928596,-0.369004,0.024781,0.030510
418,-0.563391,-4.417001,4.624349,40.507378,-1.311122,-1.993842,-41.769695,3.788515,2.216282,0.933386,-0.356827,0.023987,0.029841
419,-0.786984,-4.801642,4.501168,24.749195,-1.806947,-2.354742,-40.683624,3.701490,2.195644,0.936759,-0.347955,0.023620,0.029180
420,-0.897633,-4.756410,5.343536,19.512314,-4.293871,-4.152283,-39.947041,3.553782,2.178853,0.939027,-0.341914,0.022646,0.028451
421,-0.644808,-4.846980,6.210529,24.005445,-5.349641,-7.927510,-39.224915,3.301637,2.126242,0.941252,-0.335963,0.020907,0.027138
422,-1.033034,-5.206267,7.319572,26.896521,-4.595433,-5.570672,-38.380577,3.031407,2.054770,0.943794,-0.328987,0.019085,0.025621
423,-0.941389,-5.380200,8.138767,30.181826,-4.386189,-6.638949,-37.432816,2.788396,1.985913,0.946561,-0.321140,0.017482,0.024214
424,-1.035705,-5.627439,8.394182,31.144459,-3.661820,-4.613546,-36.414059,2.568473,1.916472,0.949445,-0.312685,0.016063,0.022884
425,-0.916814,-5.780251,8.114479,31.523315,-2.673357,-4.958091,-35.372604,2.389524,1.848937,0.952301,-0.304020,0.014962,0.021702
426,-1.151004,-5.747844,8.112805,28.428024,-3.411049,-0.775203,-34.374348,2.251646,1.828459,0.954946,-0.295699,0.014054,0.021045
427,-1.002275,-5.547480,7.845473,24.659935,-3.063106,-0.809859,-33.488110,2.147658,1.866701,0.957218,-0.288300,0.013252,0.020994
428,-1.038396,-5.511747,7.675790,20.027426,-2.339128,1.392200,-32.741253,2.077548,1.924067,0.959080,-0.282056,0.012660,0.021215
429,-1.011469,-5.271926,7.983844,17.488935,-1.860259,1.317872,-32.113270,2.042792,1.999695,0.960604,-0.276800,0.012302,0.021696
430,-0.952272,-4.899035,8.361220,17.772179,-1.183524,0.984874,-31.523495,2.019921,2.059078,0.962009,-0.271857,0.012081,0.022077
431,-0.652357,-4.899985,8.354374,18.800934,-0.796255,-0.443184,-30.913082,1.996354,2.083897,0.963443,-0.266728,0.011942,0.022166
432,-0.735546,-4.885144,8.475741,22.432417,0.203599,-0.036269,-30.225954,1.983721,2.082055,0.965028,-0.260945,0.011973,0.022050
433,-0.556851,-4.570973,8.495242,23.838306,-0.170044,-1.794469,-29.455738,1.969018,2.055238,0.966768,-0.254448,0.012056,0.021710
434,-0.370640,-4.607635,8.383747,19.734735,-0.442500,-3.461188,-28.731979,1.917434,1.983687,0.968378,-0.248324,0.011912,0.020917
435,-0.285397,-4.556717,8.510859,14.471256,-0.300502,-3.647609,-28.165131,1.850016,1.885434,0.969624,-0.243513,0.011654,0.019884
436,-0.185302,-4.356184,8.403033,9.304482,0.636900,-6.017982,-27.773472,1.779370,1.740482,0.970487,-0.240176,0.011427,0.018468
437,-0.129545,-4.274907,8.524961,0.639248,2.126566,-7.757549,-27.614599,1.713321,1.515718,0.970863,-0.238802,0.011361,0.016411
438,-0.314610,-4.470836,8.387699,-7.566215,3.725870,-7.568682,-27.738115,1.680889,1.244119,0.970646,-0.239818,0.011637,0.014055
439,-0.385506,-4.415989,8.267831,-11.864804,5.147121,-9.317913,-28.071321,1.679705,0.926090,0.969980,-0.242607,0.012260,0.011394
440,-0.395457,-4.489480,7.949334,-18.468250,5.745816,-10.269760,-28.587837,1.684542,0.552435,0.968908,-0.246935,0.013055,0.008300
441,-0.281671,-4.770411,7.940003,-24.155931,5.659267,-11.540715,-29.310247,1.674789,0.142186,0.967358,-0.252991,0.013825,0.004898
442,-0.530494,-4.624186,8.029260,-25.842728,6.642512,-9.333009,-30.155312,1.680171,-0.261767,0.965477,-0.260067,0.014751,0.001608
443,-0.541552,-4.849417,8.275048,-28.259274,5.830580,-9.098466,-31.067934,1.702521,-0.632017,0.963373,-0.267697,0.015791,-0.001335
444,-0.297891,-4.946482,8.392847,-28.586960,4.020598,-10.273861,-32.025925,1.673414,-0.993237,0.961096,-0.275693,0.016426,-0.004302
445,-0.096630,-5.003684,8.485081,-26.183191,3.360951,-10.093093,-32.948685,1.594865,-1.345902,0.958834,-0.283382,0.016675,-0.007315
446,-0.570140,-4.964650,8.335290,-24.715685,5.217700,-5.499339,-33.805099,1.571322,-1.641705,0.956670,-0.290500,0.017283,-0.009720
447,-0.173711,-5.421356,7.975172,-28.840111,2.489225,-7.124992,-34.704433,1.558920,-1.887736,0.954338,-0.297963,0.017895,-0.011665
448,0.085868,-5.456481,7.443607,-29.719852,1.669340,-8.702979,-35.687050,1.463432,-2.143525,0.951726,-0.306113,0.017885,-0.013891
449,-0.163761,-5.683627,6.822395,-31.841288,2.886043,-6.042166,-36.718998,1.379592,-2.386829,0.948903,-0.314649,0.017983,-0.015975
450,-0.516778,-5.734460,6.352054,-37.236671,1.942173,-4.587788,-37.874718,1.336118,-2.576351,0.945656,-0.324182,0.018321,-0.017480
451,-0.045994,-5.764696,5.944571,-42.355175,-1.570251,-9.583134,-39.205235,1.193612,-2.764933,0.941801,-0.335142,0.017903,-0.019233
452,-0.322664,-5.783312,5.715822,-45.390404,-0.196957,-6.860124,-40.671024,0.995220,-2.956664,0.937404,-0.347178,0.017106,-0.021173
453,-0.154539,-5.716061,5.652318,-48.178555,-1.370661,-6.692828,-42.232643,0.825977,-3.108309,0.932554,-0.359938,0.016492,-0.022704
454,0.027804,-5.998054,5.653393,-52.412704,-2.026601,-7.668892,-43.910500,0.621072,-3.244520,0.927148,-0.373585,0.015609,-0.024231
455,0.017490,-6.207553,6.052195,-50.918827,-0.469701,-7.990820,-45.633671,0.407769,-3.400541,0.921379,-0.387516,0.014784,-0.025970
456,0.132711,-6.517971,6.303124,-47.664635,-0.519023,-6.765490,-47.277222,0.218388,-3.557905,0.915673,-0.400718,0.014192,-0.027675
457,0.004158,-6.837260,6.533865,-43.751633,0.117092,-7.164859,-48.800838,0.041243,-3.708066,0.910209,-0.412884,0.013693,-0.029315
458,-0.073524,-7.223922,6.692661,-38.513794,0.613569,-5.927787,-50.171597,-0.116584,-3.859088,0.905145,-0.423765,0.013355,-0.030926
459,0.010242,-6.983284,6.640238,-29.626337,1.238915,-6.291529,-51.306618,-0.254691,-4.011790,0.900842,-0.432728,0.013151,-0.032514
460,0.044727,-7.232304,6.313196,-26.297340,1.776522,-4.508508,-52.237782,-0.364825,-4.162721,0.897235,-0.440046,0.013132,-0.034010
461,-0.144905,-7.461205,6.081936,-24.573612,1.509113,-2.202975,-53.084824,-0.420549,-4.274007,0.893915,-0.446669,0.013382,-0.034998
462,0.440069,-7.639965,5.861602,-22.963055,-2.008329,-3.074522,-53.876694,-0.496268,-4.319564,0.890779,-0.452851,0.013215,-0.035557
463,0.255226,-7.718745,5.513916,-23.177376,-1.207903,-2.780318,-54.645515,-0.606906,-4.333220,0.887696,-0.458846,0.012651,-0.036016
464,0.184442,-8.246042,5.596164,-27.426924,-2.763399,3.058684,-55.489502,-0.640973,-4.276258,0.884303,-0.465387,0.012421,-0.035621
465,0.415618,-8.420319,5.690539,-26.995047,-5.364362,2.442360,-56.398277,-0.641136,-4.112433,0.880634,-0.472403,0.012027,-0.034263
466,0.127172,-8.545009,5.707046,-23.575264,-5.610998,5.370297,-57.243568,-0.632385,-3.888204,0.877193,-0.478907,0.011409,-0.032420
467,-0.009195,-8.683959,5.681157,-18.590334,-4.645556,5.210720,-57.948776,-0.575268,-3.649230,0.874304,-0.484307,0.011034,-0.030285
468,-0.116656,-8.753857,6.071003,-12.847483,-3.297931,7.773497,-58.474762,-0.461110,-3.422660,0.872149,-0.488312,0.011077,-0.028024
469,-0.088613,-9.025127,6.079857,-7.552897,-2.033373,5.446536,-58.816002,-0.319291,-3.231975,0.870757,-0.490897,0.011421,-0.025934
470,-0.217007,-9.262799,5.841656,-3.604877,0.631087,5.008901,-59.002438,-0.182152,-3.121953,0.870000,-0.492296,0.012032,-0.024491
471,-0.040604,-9.216900,5.662671,-0.878234,1.714978,3.713686,-59.077206,-0.037371,-3.080643,0.869705,-0.492839,0.012969,-0.023547
472,0.087652,-9.119103,5.616207,-0.245432,1.467560,4.206128,-59.095901,0.103125,-3.058312,0.869645,-0.492955,0.013943,-0.022771
473,0.253870,-9.189400,5.340423,0.113949,-1.920613,3.923811,-59.097885,0.215508,-2.982235,0.869663,-0.492956,0.014469,-0.021710
474,0.111191,-8.822050,5.135015,2.309513,-3.635244,3.642585,-59.056911,0.276104,-2.837992,0.869871,-0.492651,0.014301,-0.020360
475,0.146453,-8.618287,5.338347,4.515524,-5.237612,5.159267,-58.942112,0.325663,-2.635663,0.870403,-0.491795,0.013788,-0.018625
476,0.248348,-8.783137,5.521093,6.570560,-5.873951,5.187524,-58.755825,0.377429,-2.387961,0.871243,-0.490399,0.013092,-0.016542
477,-0.083782,-9.725091,5.586673,4.433506,-5.169911,7.301995,-58.570488,0.459467,-2.122474,0.872075,-0.489005,0.012556,-0.014193
478,0.019717,-9.808142,5.948444,-7.761890,-7.149157,5.309340,-58.623463,0.531933,-1.837744,0.871884,-0.489428,0.011898,-0.011711
479,0.025874,-10.052015,7.445162,-31.719048,-9.082713,4.706702,-59.278564,0.535667,-1.519944,0.869101,-0.494435,0.010622,-0.009216
480,0.057815,-10.566735,8.274793,-53.194733,-9.795573,4.218374,-60.690544,0.507568,-1.173207,0.862966,-0.505139,0.008995,-0.006598
481,-0.171058,-11.267114,8.657399,-67.654442,-7.809350,6.346719,-62.701160,0.523975,-0.831523,0.853986,-0.520226,0.007680,-0.003818
482,0.078662,-10.934161,8.807323,-64.413055,-7.420990,6.646202,-64.898186,0.606647,-0.507911,0.843861,-0.536517,0.006846,-0.000900
483,-0.472928,-11.372890,8.381641,-40.320633,-4.692572,12.807917,-66.639130,0.819347,-0.190748,0.835604,-0.549283,0.006889,0.002537
484,-0.451987,-11.736973,6.762113,-5.487118,-4.748368,16.584364,-67.396294,1.208298,0.146611,0.831918,-0.554797,0.008063,0.006914
485,-0.658008,-11.370103,5.732888,34.968964,-5.697422,19.808681,-66.894821,1.698658,0.543907,0.834252,-0.551163,0.009752,0.012130
486,-0.739529,-10.794422,4.428882,72.716385,-7.997857,21.352425,-65.083519,2.231218,1.033078,0.842711,-0.537938,0.011564,0.018071
487,-0.762345,-10.356169,2.727880,85.495056,-6.232349,21.621244,-62.424725,2.767391,1.564098,0.854753,-0.518294,0.013579,0.024182
488,-0.414122,-9.160181,3.087373,90.211838,-4.145348,14.454754,-59.474987,3.207870,2.007752,0.867590,-0.496182,0.015613,0.029089
489,-0.581313,-8.836316,3.006704,96.946236,1.096956,11.502845,-56.341896,3.545750,2.282042,0.880655,-0.472327,0.017871,0.032149
490,-0.123672,-8.042429,1.912246,82.182816,4.380028,3.135482,-53.354488,3.796025,2.347924,0.892567,-0.449230,0.020395,0.033164
491,0.023981,-6.571246,3.447056,70.371735,5.576839,-5.961088,-50.824116,3.859176,2.188512,0.902292,-0.429384,0.022217,0.031686
492,-0.098993,-5.706668,4.427916,73.370956,3.617808,-10.529855,-48.448994,3.747655,1.894322,0.911111,-0.410530,0.023036,0.028482
493,0.073891,-6.120122,4.022790,63.173100,1.066373,-16.417429,-46.197029,3.470292,1.532737,0.919169,-0.392471,0.022605,0.024175
494,-0.161895,-4.438284,4.796771,62.655315,1.480385,-18.223665,-44.125607,3.090329,1.096210,0.926296,-0.375708,0.021397,0.018991
495,-0.451956,-3.856536,5.139247,57.357479,2.474655,-13.638448,-42.148293,2.775205,0.663404,0.932776,-0.359595,0.020515,0.014108
496,-0.426440,-4.670406,4.525479,42.512482,2.283484,-12.377569,-40.501972,2.548752,0.284705,0.937931,-0.346098,0.020006,0.010028
497,-0.458902,-4.514497,5.894518,39.285763,2.096524,-11.135968,-39.153824,2.353579,-0.063095,0.941997,-0.334991,0.019535,0.006363
498,-0.659303,-4.147722,6.120910,41.692825,3.189151,-3.715670,-37.814426,2.268545,-0.311849,0.945873,-0.323921,0.019609,0.003840
499,-0.135975,-4.786396,6.109360,31.902777,-0.379966,-6.428488,-36.594471,2.204174,-0.475457,0.949282,-0.313810,0.019564,0.002100
500,-0.259515,-5.519196,8.421630,39.001740,-1.449284,-9.471972,-35.420048,2.023616,-0.671571,0.952475,-0.304048,0.018604,-0.000210
501,-0.581491,-4.883144,8.609158,52.010761,-1.117380,-6.530714,-33.909943,1.836705,-0.866550,0.956419,-0.291458,0.017535,-0.002559
502,-0.498812,-5.189684,8.245768,47.695290,-1.704635,-6.723192,-32.253441,1.677202,-1.026381,0.960545,-0.277596,0.016547,-0.004538
503,-0.667561,-4.827603,8.851965,45.650723,-0.783048,-9.218204,-30.703682,1.503115,-1.231226,0.964217,-0.264572,0.015492,-0.006888
504,-0.733147,-4.753113,9.119442,45.796894,-1.683768,-6.775681,-29.185097,1.334143,-1.441623,0.967637,-0.251765,0.014435,-0.009241
505,-0.848248,-4.222707,8.297303,44.710014,-0.417159,-2.736100,-27.679661,1.228185,-1.564405,0.970857,-0.239030,0.013671,-0.010691
506,-0.483488,-4.261755,8.696248,35.811241,-1.523107,-5.301410,-26.340057,1.138876,-1.669385,0.973580,-0.227665,0.012995,-0.011920
507,-0.465159,-3.796327,8.732368,36.354275,-0.089905,-2.956349,-25.139599,1.054658,-1.781421,0.975904,-0.217454,0.012365,-0.013169
508,-0.357701,-3.673529,8.622327,31.365538,-0.450167,-1.231978,-24.012159,1.017582,-1.841364,0.977990,-0.207841,0.012027,-0.013869
510,-0.369587,-3.354140,8.660770,30.835007,0.479898,0.837620,-22.975691,1.015538,-1.847605,0.979830,-0.198986,0.011894,-0.014034
511,-0.315975,-3.424280,8.686609,23.699942,0.121367,2.145200,-22.066099,1.043951,-1.805641,0.981382,-0.191203,0.011956,-0.013721
512,-0.351463,-3.282830,8.758058,20.572279,0.480192,4.684298,-21.326366,1.095454,-1.703598,0.982605,-0.184867,0.012144,-0.012840
513,-0.485789,-3.209624,8.962232,13.315938,0.495514,5.316751,-20.758627,1.170622,-1.553924,0.983520,-0.180002,0.012490,-0.011497
514,-0.420600,-3.379617,9.006830,8.177992,3.542777,7.901293,-20.396452,1.311163,-1.371345,0.984091,-0.176895,0.013379,-0.009751
515,-0.533414,-3.342325,9.192078,4.956541,5.313152,6.951211,-20.173016,1.535529,-1.190422,0.984427,-0.174973,0.015011,-0.007880
516,-0.445784,-3.301710,9.185259,4.352731,3.093763,4.816927,-20.013937,1.734516,-1.054381,0.984656,-0.173604,0.016504,-0.006430
517,-0.450126,-3.141511,9.256385,4.722840,1.395844,4.714422,-19.858803,1.859016,-0.930476,0.984882,-0.172276,0.017379,-0.005200
518,-0.500704,-3.180158,9.243386,2.782021,1.724057,5.182385,-19.729151,1.963801,-0.792786,0.985068,-0.171174,0.018068,-0.003879
519,-0.490156,-3.127253,9.173202,1.833704,0.394247,5.752039,-19.646608,2.058460,-0.633015,0.985182,-0.170482,0.018641,-0.002378
520,-0.388678,-3.196628,9.025059,-3.590162,-3.724621,5.332475,-19.668964,2.068353,-0.440244,0.985149,-0.170705,0.018440,-0.000702
521,-0.383730,-3.117658,9.071237,-5.430610,-3.972300,5.475805,-19.811787,2.008527,-0.227242,0.984944,-0.171969,0.017607,0.001062
522,-0.267501,-3.339618,8.982282,-8.084462,-3.653039,4.179843,-20.030325,1.943901,-0.032522,0.984621,-0.173879,0.016754,0.002671
523,-0.202948,-3.325535,8.972333,-9.481974,-2.498694,-0.154482,-20.319830,1.870861,0.065876,0.984186,-0.176382,0.015968,0.003446
524,-0.122762,-3.246158,8.987099,-9.930569,-1.676794,-3.741949,-20.644556,1.783051,0.029372,0.983696,-0.179167,0.015262,0.003040
525,-0.178378,-3.397155,8.677715,-11.939443,0.143770,-5.636564,-21.013248,1.703676,-0.107707,0.983127,-0.182315,0.014789,0.001787
526,-0.093125,-3.456889,8.335126,-17.224260,0.348257,-8.032543,-21.505592,1.628760,-0.323044,0.982346,-0.186513,0.014489,-0.000118
527,-0.031820,-3.633662,7.997436,-24.799932,0.081717,-7.853868,-22.212839,1.536830,-0.571530,0.981184,-0.192547,0.014120,-0.002310
528,-0.043602,-3.740050,7.791171,-33.005924,-0.475900,-5.533856,-23.181498,1.444530,-0.774854,0.979525,-0.200816,0.013707,-0.004091
529,-0.208464,-3.958059,7.535030,-42.259140,0.252939,-2.663702,-24.438833,1.385696,-0.898285,0.977263,-0.211541,0.013477,-0.005101
530,-0.180671,-4.117966,7.441193,-53.321056,-1.417370,-0.853148,-26.032650,1.342869,-0.942819,0.974228,-0.225112,0.013270,-0.005376
531,-0.117204,-4.520232,7.731042,-61.164452,-2.717045,0.213759,-27.939770,1.276341,-0.921086,0.970353,-0.241302,0.012748,-0.005111
532,-0.285129,-4.746107,7.777687,-61.429291,-1.945100,0.937365,-29.981144,1.217465,-0.866729,0.965907,-0.258560,0.012219,-0.004558
533,-0.294547,-5.067169,8.028668,-57.717979,-1.859167,0.603855,-31.965105,1.176304,-0.811928,0.961291,-0.275253,0.011819,-0.003985
534,-0.130111,-5.468009,8.126941,-53.792156,-1.481450,-1.211105,-33.822601,1.124108,-0.790220,0.956707,-0.290805,0.011391,-0.003744
535,-0.169676,-6.194461,8.440018,-40.504028,0.638206,-1.955578,-35.394482,1.082802,-0.825788,0.952630,-0.303901,0.011192,-0.003993
536,-0.048203,-6.194218,8.138194,-23.953102,1.698686,-5.418069,-36.470852,1.042470,-0.948051,0.949731,-0.312827,0.011229,-0.005011
537,-0.383879,-6.093663,8.021971,-14.069402,4.310111,-5.761280,-37.108273,1.011503,-1.157408,0.947967,-0.318087,0.011581,-0.006766
538,-0.438489,-6.023302,7.845003,-13.903279,4.143610,-6.464515,-37.578846,1.000150,-1.404837,0.946636,-0.321953,0.012211,-0.008795
539,-0.216870,-5.991762,7.584929,-13.166000,3.150901,-8.934218,-38.034672,0.938901,-1.682187,0.945326,-0.325694,0.012528,-0.011208
540,-0.279633,-5.474411,7.223005,-21.664455,2.408726,-9.504107,-38.619705,0.821077,-1.980830,0.943620,-0.330502,0.012477,-0.013943
541,-0.487663,-5.526309,7.176212,-32.287766,2.551594,-6.770905,-39.522377,0.714118,-2.243499,0.940953,-0.337914,0.012483,-0.016317
542,-0.201851,-5.878298,7.203789,-40.887608,0.543147,-5.503145,-40.744072,0.621373,-2.432927,0.937267,-0.347923,0.012472,-0.018014
543,-0.011110,-6.059778,6.702165,-42.363556,0.504743,-4.864933,-42.132778,0.519803,-2.574008,0.932956,-0.359260,0.012305,-0.019329
544,-0.233953,-6.330614,6.709839,-43.075569,1.358224,-0.987749,-43.557335,0.476182,-2.666573,0.928401,-0.370829,0.012491,-0.020066
545,0.052685,-6.432633,6.546575,-35.888115,0.988932,-1.413674,-44.873653,0.476077,-2.722184,0.924070,-0.381462,0.012905,-0.020370
546,0.074095,-6.783791,6.177840,-33.988903,1.382333,-0.893936,-46.038578,0.476423,-2.777377,0.920134,-0.390830,0.013302,-0.020680
547,0.191944,-6.638760,6.022505,-31.881784,1.622117,-3.883635,-47.137047,0.452997,-2.868413,0.916328,-0.399626,0.013630,-0.021361
548,0.156287,-6.875604,6.221962,-30.985725,2.540879,-4.111193,-48.185783,0.401429,-3.009599,0.912602,-0.407990,0.013917,-0.022543
549,-0.072725,-6.801974,6.006516,-30.336317,3.799838,-3.719146,-49.208851,0.373216,-3.175085,0.908888,-0.416107,0.014495,-0.023833
550,-0.151030,-7.336061,6.306753,-33.206882,3.908166,-1.675603,-50.268871,0.387687,-3.331133,0.904968,-0.424473,0.015407,-0.024877
551,0.061870,-7.486040,6.363504,-32.009857,2.154648,-2.293138,-51.356548,0.400139,-3.451111,0.900873,-0.433023,0.016194,-0.025626
552,-0.068130,-8.149441,6.889770,-30.897821,1.902953,0.811148,-52.405388,0.422383,-3.519678,0.896858,-0.441235,0.016866,-0.025927
553,0.122964,-8.314001,6.917721,-24.450151,1.295853,0.774559,-53.328003,0.475478,-3.546047,0.893276,-0.448424,0.017591,-0.025788
554,0.248572,-9.131395,7.323299,-18.746929,2.636225,-0.347735,-54.048332,0.519998,-3.594642,0.890432,-0.454011,0.018291,-0.025878
555,0.198393,-9.191270,7.217933,-9.860324,5.360529,-4.134377,-54.526493,0.537251,-3.746454,0.888497,-0.457693,0.019139,-0.026910
556,-0.023063,-9.279651,7.301726,-3.849188,10.048798,-4.946378,-54.757809,0.562690,-4.043539,0.887501,-0.459427,0.020581,-0.029070
557,-0.156832,-8.875575,6.962758,4.530365,13.013293,-5.576361,-54.750858,0.641473,-4.458629,0.887427,-0.459270,0.022853,-0.031970
558,-0.310096,-8.831470,6.880342,10.905769,14.287653,-4.016364,-54.499340,0.774780,-4.922176,0.888312,-0.457178,0.025666,-0.035082
559,-0.252779,-8.373137,6.639911,16.257984,12.196373,-2.573380,-54.053024,0.943549,-5.344658,0.889972,-0.453551,0.028512,-0.037794
560,-0.227496,-8.110060,6.256558,16.764109,9.294975,0.607190,-53.508274,1.128998,-5.652962,0.892036,-0.449160,0.030984,-0.039601
561,-0.275976,-8.171515,6.390303,16.073542,5.711157,3.643250,-52.964466,1.335613,-5.810976,0.894125,-0.444788,0.033020,-0.040176
562,-0.079024,-8.888271,5.916671,5.817319,1.444986,4.273710,-52.600082,1.513003,-5.826171,0.895547,-0.441859,0.034336,-0.039714
563,-0.058335,-8.500542,6.426229,-15.357591,-3.267781,0.951921,-52.757065,1.563934,-5.749257,0.894972,-0.443086,0.034491,-0.038869
564,0.096049,-8.787194,7.620142,-42.417358,-7.181686,-1.989126,-53.716599,1.445952,-5.620186,0.891262,-0.450654,0.033391,-0.038040
565,-0.075539,-9.335838,8.465561,-59.331261,-8.120770,0.031733,-55.407722,1.271681,-5.431389,0.884558,-0.463885,0.031840,-0.036793
566,-0.151329,-9.730548,8.548976,-65.183372,-7.566425,3.960263,-57.476849,1.182638,-5.176414,0.876107,-0.479887,0.030751,-0.034636
567,-0.229746,-9.692451,9.245896,-51.256168,-6.893115,10.416591,-59.409672,1.260548,-4.845132,0.867991,-0.494655,0.030491,-0.031266
568,-0.901294,-11.021930,9.107754,-18.548195,-7.354795,21.524391,-60.560833,1.601945,-4.372266,0.863124,-0.503356,0.031296,-0.025895
569,-0.636904,-11.161210,7.109644,33.279617,-9.628591,24.786360,-60.294624,2.131895,-3.743264,0.864431,-0.501345,0.032478,-0.018900
570,-0.194396,-10.936878,5.890435,69.085640,-10.069382,25.920509,-58.558716,2.690099,-3.028322,0.872004,-0.488222,0.033387,-0.011566
571,-0.486339,-10.268798,5.051150,87.915085,-12.521759,26.970987,-55.902069,3.225452,-2.232680,0.883088,-0.467958,0.033984,-0.004014
572,-0.312378,-9.647386,4.322010,90.658569,-15.128302,20.989225,-52.877888,3.606017,-1.391041,0.895070,-0.444649,0.033572,0.003144
573,0.344115,-8.472579,3.656489,85.614189,-12.984949,10.258618,-49.898357,3.719895,-0.697727,0.906271,-0.421405,0.031994,0.008173
574,-0.614261,-7.274757,4.071561,68.704880,-5.300618,14.404738,-47.295368,3.824986,-0.195207,0.915540,-0.400835,0.031254,0.011827
575,-0.663054,-6.663492,4.566323,53.819752,-4.536860,11.639709,-45.225376,4.025239,0.222441,0.922528,-0.384325,0.031674,0.015294
576,-0.404316,-6.087614,5.203879,58.340401,-3.205935,3.565611,-43.337334,4.109850,0.494551,0.928671,-0.369142,0.031731,0.017248
577,-0.639527,-5.279175,5.458613,61.564056,-1.012094,1.366853,-41.331776,4.112222,0.603534,0.934972,-0.352863,0.031712,0.017587
578,-0.547352,-4.808871,5.643197,53.786781,-1.869255,0.058466,-39.406376,4.090547,0.652800,0.940768,-0.337119,0.031680,0.017392
579,-0.160951,-4.736277,6.155787,48.043232,-2.642136,-5.478699,-37.711349,3.975432,0.629187,0.945690,-0.323166,0.031050,0.016402
580,-0.406964,-4.421728,6.225542,46.273075,-1.654153,-7.481579,-36.148544,3.787955,0.499811,0.950082,-0.310214,0.030067,0.014398
581,-0.419410,-4.409935,6.502323,35.196648,-0.497691,-8.048326,-34.803280,3.608300,0.309547,0.953730,-0.299000,0.029235,0.011992
582,-0.319104,-4.806471,7.116617,27.447662,-0.658030,-12.951514,-33.776390,3.394966,0.030826,0.956451,-0.290385,0.028267,0.008863
583,-0.612559,-4.718279,7.386556,32.445850,2.423012,-15.417078,-32.801792,3.159608,-0.380846,0.958965,-0.282160,0.027385,0.004597
584,-0.500411,-4.492161,7.563997,32.185516,0.500826,-18.672453,-31.751617,2.897316,-0.888058,0.961574,-0.273269,0.026435,-0.000536
585,-0.887934,-4.727476,8.387415,32.592030,3.238322,-17.305239,-30.698360,2.639647,-1.433424,0.964076,-0.264332,0.025520,-0.005963
586,-0.598755,-4.609939,8.479510,33.946259,0.077668,-18.040689,-29.613251,2.391530,-1.971248,0.966532,-0.255117,0.024568,-0.011294
587,-0.790818,-4.504982,8.384199,32.876282,2.336955,-11.766527,-28.517668,2.185520,-2.425088,0.968899,-0.245812,0.023691,-0.015809
588,-0.592972,-4.393041,8.711558,30.959425,-0.996045,-10.046376,-27.466183,2.034968,-2.757161,0.971079,-0.236878,0.022955,-0.019153
589,-0.759102,-4.468616,8.743787,32.336769,0.276199,-4.695125,-26.418617,1.913157,-2.970659,0.973178,-0.227979,0.022170,-0.021418
590,-0.530489,-3.921725,8.499990,34.428387,-1.329541,-3.603462,-25.309824,1.837379,-3.087783,0.975322,-0.218549,0.021540,-0.022774
591,-0.677947,-3.844109,8.755611,31.237534,-0.158105,0.497534,-24.216648,1.793342,-3.124344,0.977359,-0.209240,0.021013,-0.023371
592,-0.588719,-3.400180,8.954662,32.332104,-1.119958,0.862575,-23.156340,1.783195,-3.095222,0.979260,-0.200195,0.020658,-0.023333
593,-0.799655,-3.343518,8.996976,27.168533,0.385086,5.189664,-22.161686,1.810804,-2.997322,0.980978,-0.191699,0.020528,-0.022627
594,-0.650870,-3.263591,9.239409,23.882360,-1.063115,4.529424,-21.305939,1.860571,-2.842827,0.982408,-0.184383,0.020536,-0.021375
595,-0.665394,-3.264546,9.310003,20.140692,-1.670801,4.572413,-20.567125,1.872251,-2.684700,0.983603,-0.178071,0.020252,-0.020131
596,-0.829629,-3.257948,9.355088,16.535339,-0.807027,4.835146,-19.950592,1.887856,-2.523201,0.984573,-0.172801,0.020034,-0.018829
597,-0.565850,-3.347004,9.295613,12.470117,1.069651,4.238671,-19.462461,1.943011,-2.382273,0.985316,-0.168618,0.020221,-0.017620
598,-0.421747,-3.363578,9.294291,7.988748,-2.525456,1.534058,-19.118107,1.951893,-2.283463,0.985833,-0.165672,0.020101,-0.016818
599,-0.358588,-3.507501,9.192622,1.220903,-3.952366,1.015798,-18.962130,1.863699,-2.207925,0.986078,-0.164360,0.019211,-0.016323
600,-0.106006,-3.406416,9.329401,0.990234,-8.612683,-3.630270,-18.924463,1.651515,-2.181083,0.986158,-0.164080,0.017342,-0.016403
601,-0.086245,-3.542082,9.296456,3.466721,-4.734911,-5.164142,-18.852005,1.393579,-2.247752,0.986274,-0.163495,0.015206,-0.017357
602,-0.140244,-3.460611,9.244073,2.917168,-3.828626,-6.548260,-18.748812,1.195557,-2.386646,0.986413,-0.162627,0.013683,-0.018848
603,-0.326084,-3.501040,9.432274,2.032994,-1.929019,-6.720395,-18.669813,1.033714,-2.565351,0.986502,-0.161959,0.012530,-0.020625
604,-0.328933,-3.225929,9.742356,2.769775,-2.925050,-6.212574,-18.592793,0.888174,-2.743783,0.986583,-0.161307,0.011514,-0.022375
605,-0.414174,-3.322627,9.524612,3.451251,-3.271282,-3.474497,-18.490801,0.738936,-2.864028,0.986706,-0.160451,0.010378,-0.023630
606,-0.253111,-2.764870,9.914252,6.540141,-5.046819,-0.759580,-18.324522,0.585138,-2.887221,0.986936,-0.159051,0.009051,-0.024059
607,-0.160103,-2.994376,10.146152,8.837739,-6.457400,3.310704,-18.067310,0.416310,-2.786977,0.987312,-0.156880,0.007405,-0.023446
608,0.270095,-2.699198,10.005052,16.904673,-9.304851,4.011774,-17.637157,0.203735,-2.590302,0.987931,-0.153227,0.005222,-0.022063
609,0.127819,-2.764053,9.719320,20.570383,-6.885816,2.635395,-17.012304,-0.020935,-2.404240,0.988782,-0.147887,0.002923,-0.020776
610,0.275067,-2.587452,9.419239,21.509949,-5.685678,2.955529,-16.311285,-0.195077,-2.255050,0.989689,-0.141868,0.001107,-0.019720
611,0.198556,-2.795473,9.016220,16.164032,-3.473661,4.439735,-15.684101,-0.307857,-2.094579,0.990472,-0.136468,-0.000167,-0.018473
613,0.166319,-2.639601,8.705218,8.397578,-1.624373,4.204564,-15.275641,-0.351187,-1.933129,0.990975,-0.132942,-0.000795,-0.017126
614,-0.067009,-2.460684,8.648391,-0.687376,0.992709,3.378617,-15.147865,-0.328114,-1.808434,0.991142,-0.131833,-0.000758,-0.016021
615,0.012479,-2.354624,8.754303,-7.702344,0.615048,5.853135,-15.288398,-0.261802,-1.667036,0.991001,-0.133040,-0.000329,-0.014722
616,-0.124202,-2.398558,9.209834,-11.153235,1.303133,6.086749,-15.603368,-0.177942,-1.483771,0.990657,-0.135753,0.000219,-0.013039
617,-0.089880,-2.474547,9.420068,-10.927052,0.961162,5.196225,-15.971755,-0.090420,-1.313090,0.990236,-0.138929,0.000811,-0.011457
618,-0.235763,-2.459445,9.635013,-7.781434,1.717390,4.727363,-16.283682,-0.001576,-1.166623,0.989869,-0.141617,0.001428,-0.010080
619,-0.124798,-2.762238,9.720517,-7.985545,0.779089,6.861775,-16.546316,0.092901,-0.993069,0.989557,-0.143880,0.002049,-0.008459
620,0.041944,-2.893388,9.699024,-7.408241,0.015280,4.911630,-16.802488,0.161844,-0.808904,0.989245,-0.146091,0.002429,-0.006777
621,0.026191,-2.888291,9.654743,-8.258315,-0.159515,4.734784,-17.063108,0.206392,-0.654422,0.988918,-0.148341,0.002628,-0.005380
622,0.255247,-2.854762,9.409381,-9.734048,-1.038261,2.016248,-17.362556,0.220631,-0.541044,0.988532,-0.150927,0.002616,-0.004377
623,0.317433,-2.844044,9.221416,-9.812197,0.717256,-1.780020,-17.688320,0.216778,-0.535716,0.988099,-0.153737,0.002588,-0.004329
624,0.435760,-2.835799,9.127022,-7.555440,2.493914,-5.869188,-17.978312,0.228781,-0.673456,0.987701,-0.156233,0.002890,-0.005493
625,0.143036,-2.857156,8.832072,-5.893945,6.844117,-7.146397,-18.203661,0.309476,-0.927977,0.987376,-0.158162,0.003948,-0.007569
626,0.215261,-3.154400,8.512335,-5.486403,7.820939,-11.052518,-18.395792,0.446366,-1.292630,0.987079,-0.159790,0.005648,-0.010512
627,-0.031493,-3.407068,8.283831,-7.519138,9.785349,-14.455497,-18.616985,0.589753,-1.788930,0.986711,-0.161649,0.007603,-0.014573
628,-0.070820,-3.597829,8.425152,-12.881124,9.437261,-16.714663,-18.963802,0.725703,-2.383969,0.986126,-0.164567,0.009672,-0.019475
629,-0.366864,-3.902389,8.335657,-20.380215,11.268721,-18.602846,-19.527323,0.857308,-3.053555,0.985172,-0.169323,0.011889,-0.024989
630,-0.171916,-3.893540,8.657300,-26.491089,9.223468,-21.254316,-20.320192,0.951757,-3.794521,0.983794,-0.176026,0.014011,-0.031123
631,-0.387285,-3.862664,8.972893,-35.262741,9.787794,-21.528664,-21.362394,0.993955,-4.573857,0.981918,-0.184849,0.015912,-0.037605
632,-0.159284,-4.200956,9.646005,-42.164772,8.727224,-19.943316,-22.665997,1.020485,-5.330297,0.979484,-0.195885,0.017859,-0.043842
633,-0.248254,-4.337708,9.503601,-42.086662,9.292840,-18.969568,-24.082745,1.038310,-6.044764,0.976696,-0.207852,0.019848,-0.049676
634,-0.103017,-4.323302,9.637792,-39.328850,7.737370,-18.478498,-25.451860,1.034505,-6.730258,0.973830,-0.219382,0.021721,-0.055269
635,-0.130037,-4.678185,9.656927,-37.756416,6.092775,-16.975409,-26.747461,0.981583,-7.362398,0.970966,-0.230281,0.023167,-0.060484
636,0.010061,-4.965136,9.359243,-34.108494,5.401808,-15.268638,-27.954279,0.904730,-7.927794,0.968172,-0.240420,0.024339,-0.065177
637,-0.107852,-5.064002,8.849658,-29.694368,5.708895,-16.222061,-29.025787,0.817131,-8.477399,0.965551,-0.249396,0.025406,-0.069769
638,-0.025059,-4.960289,8.842121,-25.932558,4.919831,-15.887395,-29.960169,0.708118,-9.030450,0.963125,-0.257206,0.026299,-0.074455
639,-0.342151,-5.302785,8.676296,-23.823601,6.215429,-13.432703,-30.795319,0.621220,-9.545931,0.960869,-0.264157,0.027301,-0.078785
640,-0.280341,-5.265193,8.471029,-16.820154,6.553292,-12.316341,-31.477757,0.581465,-10.023159,0.958936,-0.269787,0.028561,-0.082710
641,-0.365760,-5.222859,8.433351,-8.418744,6.343741,-11.002990,-31.902832,0.560401,-10.466764,0.957598,-0.273244,0.029749,-0.086361
642,-0.351506,-4.931710,8.354604,1.066932,5.361036,-8.535530,-32.029068,0.553733,-10.846315,0.957004,-0.274204,0.030697,-0.089515
643,-0.256376,-5.247937,8.121606,0.458941,6.458147,-3.884847,-32.006493,0.611242,-11.126282,0.956848,-0.273892,0.031829,-0.091721
644,0.146447,-5.345728,8.165534,0.917207,-2.749474,-7.947492,-31.985682,0.559165,-11.326298,0.956726,-0.273706,0.031856,-0.093521
645,0.022120,-5.552160,8.041571,-4.556933,-0.395857,-6.043454,-32.047604,0.391101,-11.496208,0.956403,-0.274319,0.030910,-0.095326
646,0.250465,-5.719640,8.048996,-7.276619,-4.111736,-8.556308,-32.245716,0.197952,-11.662182,0.955745,-0.276092,0.029864,-0.097123
647,0.302123,-5.927703,7.977274,-13.284569,-3.429554,-9.633606,-32.588551,-0.070698,-11.850747,0.954687,-0.279133,0.028375,-0.099259
648,0.247925,-6.066616,8.066871,-0.626258,2.527674,-6.787195,-32.819836,-0.231263,-12.072799,0.953884,-0.281144,0.027783,-0.101443
649,0.008979,-5.986246,7.877617,-2.132833,3.806154,-5.438319,-32.864971,-0.252857,-12.301281,0.953563,-0.281483,0.028205,-0.103387
650,0.042079,-5.919788,8.006037,-13.033472,2.453867,-2.864977,-33.117027,-0.240727,-12.474154,0.952788,-0.283526,0.028961,-0.104732
651,-0.174757,-5.685500,8.170259,-1.429653,4.869980,2.593663,-33.357841,-0.141301,-12.544843,0.952154,-0.285419,0.030183,-0.105011
652,-0.221127,-5.328658,7.929269,13.963189,0.401502,1.535694,-33.149021,-0.030089,-12.535296,0.952713,-0.283584,0.030893,-0.104711
653,0.061583,-5.318828,7.591787,15.107218,-1.666491,0.598058,-32.664551,-0.028457,-12.493795,0.953941,-0.279564,0.030362,-0.104492
654,0.044688,-5.635335,7.747546,10.640379,-1.028159,0.228051,-32.235466,-0.058960,-12.458002,0.955006,-0.276027,0.029630,-0.104380
655,-0.033230,-5.643754,7.687708,5.656926,0.545338,-2.480144,-31.963816,-0.085732,-12.485522,0.955625,-0.273779,0.029225,-0.104743
656,-0.015159,-5.764887,7.572757,-6.413350,1.135322,-5.126026,-31.976200,-0.129163,-12.607886,0.955472,-0.273891,0.029167,-0.105864
657,0.049392,-6.022066,7.938204,-20.797321,0.354214,-3.629245,-32.429333,-0.186024,-12.744549,0.954238,-0.277684,0.029443,-0.107024
658,-0.267264,-5.761178,8.388916,-26.489981,0.718875,-0.052408,-33.217213,-0.204452,-12.805738,0.952244,-0.284240,0.030177,-0.107373
659,-0.261221,-5.350292,8.262263,-27.312317,-1.567962,3.478452,-34.114063,-0.184762,-12.750235,0.950048,-0.291680,0.031038,-0.106623
660,-0.058011,-5.364017,8.240315,-29.643555,-4.869794,7.694363,-35.063927,-0.167654,-12.536032,0.947800,-0.299589,0.031502,-0.104546
661,0.057513,-5.325742,8.272568,-29.830070,-7.540392,10.676152,-36.056137,-0.158193,-12.166722,0.945504,-0.307879,0.031492,-0.101197
662,-0.126607,-5.335538,8.290459,-30.637352,-9.000329,13.834074,-37.065117,-0.136575,-11.674464,0.943188,-0.316310,0.031201,-0.096806
663,-0.030325,-5.537048,8.201335,-30.660608,-11.637023,14.893942,-38.087929,-0.117414,-11.085257,0.940816,-0.324861,0.030551,-0.091633
664,0.137894,-5.572136,8.148796,-28.975935,-13.569245,14.542177,-39.083279,-0.140000,-10.439936,0.938452,-0.333209,0.029285,-0.086146
665,0.095195,-5.572886,8.006192,-28.376902,-14.150444,14.437615,-40.041058,-0.188683,-9.773534,0.936105,-0.341244,0.027623,-0.080601
666,0.034359,-5.689145,7.905463,-28.422413,-13.977914,15.581436,-40.990078,-0.220097,-9.088731,0.933703,-0.349167,0.025947,-0.074886
667,0.174690,-5.719363,7.657193,-27.618692,-14.582764,15.716000,-41.926739,-0.231530,-8.382672,0.931257,-0.356951,0.024267,-0.068970
668,0.173976,-5.710318,7.451461,-27.160692,-14.643534,16.006182,-42.842583,-0.234997,-7.663899,0.928787,-0.364533,0.022503,-0.062961
669,0.202561,-5.908101,7.347845,-27.563826,-14.738422,16.065132,-43.757465,-0.224844,-6.939115,0.926228,-0.372070,0.020734,-0.056889
670,0.169538,-6.037015,7.174385,-26.564533,-14.711327,15.993836,-44.662239,-0.204081,-6.213959,0.923606,-0.379489,0.018949,-0.050811
671,0.276583,-6.099555,6.921731,-26.166037,-15.145416,15.275193,-45.543442,-0.186194,-5.493696,0.920964,-0.386687,0.017053,-0.044816
672,0.293702,-6.408541,6.807562,-28.169142,-14.556355,14.648875,-46.451187,-0.171355,-4.791282,0.918131,-0.394065,0.015111,-0.039001
673,0.275671,-6.638325,6.461928,-29.296791,-13.032458,12.483322,-47.410694,-0.154847,-4.146657,0.915005,-0.401814,0.013308,-0.033669
674,0.296507,-6.842581,6.284921,-31.154602,-10.570847,10.075248,-48.419540,-0.139245,-3.602822,0.911583,-0.409910,0.011783,-0.029169
675,0.225458,-7.189553,6.341198,-34.220001,-7.336958,9.237594,-49.509876,-0.092078,-3.166441,0.907751,-0.418598,0.010840,-0.025426
676,0.148117,-7.551291,6.501871,-35.593475,-4.806153,8.609258,-50.673500,0.006567,-2.820314,0.903535,-0.427807,0.010583,-0.022218
677,0.114648,-7.622526,6.694715,-31.766211,-3.363808,7.924440,-51.795635,0.136387,-2.541563,0.899364,-0.436636,0.010757,-0.019431
678,0.033828,-7.748564,7.173142,-25.424026,-2.718946,9.235689,-52.747719,0.300590,-2.286333,0.895756,-0.444090,0.011212,-0.016709
679,-0.175007,-7.755050,7.402541,-15.875936,-2.323592,10.541055,-53.434090,0.513523,-2.021022,0.893125,-0.449440,0.011931,-0.013738
680,-0.070049,-7.498105,7.361068,-5.118702,-2.921143,7.767798,-53.781284,0.707083,-1.769391,0.891791,-0.452142,0.012486,-0.010980
681,-0.186081,-7.360389,7.367197,4.690411,-2.220409,3.520869,-53.786072,0.808079,-1.588993,0.891789,-0.452184,0.012560,-0.009177
682,-0.224608,-7.284472,7.225936,10.519657,-0.744805,-1.416432,-53.531734,0.806918,-1.528324,0.892795,-0.450211,0.012293,-0.008737
683,-0.167853,-7.052032,6.902874,12.030095,0.939952,-6.615864,-53.157013,0.701362,-1.610806,0.894256,-0.447294,0.011762,-0.009833
684,0.000161,-6.885047,6.636090,10.072934,2.247612,-11.321975,-52.790962,0.494562,-1.833183,0.895655,-0.444442,0.010977,-0.012411
685,0.009222,-7.105512,6.605318,6.913478,4.274143,-12.734057,-52.509983,0.241651,-2.162719,0.896690,-0.442251,0.010239,-0.015992
686,0.095205,-7.280417,6.335191,3.467211,5.352741,-11.393645,-52.337883,0.020667,-2.535043,0.897280,-0.440908,0.009917,-0.019774
687,0.024579,-7.330428,6.079646,1.444006,5.983718,-8.930512,-52.255718,-0.131878,-2.891654,0.897514,-0.440261,0.010079,-0.023160
688,0.048247,-7.502056,6.103491,1.572639,4.832760,-6.623233,-52.204556,-0.226422,-3.192922,0.897636,-0.439853,0.010484,-0.025887
689,0.005601,-7.747581,6.109435,4.898701,2.346106,-3.840282,-52.095798,-0.290698,-3.394410,0.897997,-0.438996,0.010728,-0.027723
690,0.216012,-7.692173,5.983222,7.243019,-3.968642,-7.546129,-51.892803,-0.456803,-3.489975,0.898726,-0.437433,0.009740,-0.029125
691,0.430033,-7.439456,5.785518,10.337841,-5.436205,-9.653331,-51.599133,-0.778899,-3.544300,0.899779,-0.435195,0.007342,-0.030799
692,0.721407,-7.284622,5.811893,10.212538,-7.346735,-15.391737,-51.254967,-1.238062,-3.638029,0.900970,-0.432584,0.003992,-0.033289
693,0.832175,-7.381914,6.045976,7.259313,-6.667228,-21.420036,-50.958305,-1.862264,-3.841380,0.901881,-0.430376,-0.000246,-0.037239
694,0.816392,-7.419035,6.242557,6.588260,-4.783409,-26.426289,-50.713814,-2.601181,-4.197055,0.902463,-0.428609,-0.004819,-0.042795
695,0.606577,-7.302954,6.358741,4.791575,-2.655685,-27.607773,-50.499500,-3.375880,-4.673308,0.902801,-0.427111,-0.009235,-0.049414
696,0.461898,-7.376363,6.730567,3.159606,-0.133182,-25.850628,-50.332432,-4.092212,-5.206218,0.902878,-0.426004,-0.012980,-0.056247
697,0.335973,-7.510421,7.014547,6.628020,1.969263,-22.317961,-50.128239,-4.689731,-5.744788,0.903070,-0.424603,-0.015804,-0.062666
698,0.337339,-7.425344,7.027991,15.373526,2.250503,-16.395592,-49.721340,-5.138014,-6.215900,0.904066,-0.421578,-0.017838,-0.067960
699,0.594552,-7.210126,7.095781,23.186913,1.879927,-12.264262,-49.045021,-5.455369,-6.581059,0.906136,-0.416382,-0.019429,-0.071882
700,0.765941,-7.130675,7.257046,31.552835,2.650231,-9.901962,-48.103367,-5.682054,-6.883826,0.909198,-0.409043,-0.020742,-0.074921
701,0.927832,-7.035267,7.395687,42.083416,2.380187,-7.874839,-46.849770,-5.843470,-7.147453,0.913344,-0.399173,-0.021932,-0.077345
702,1.008460,-6.870206,7.514616,49.917538,1.322711,-7.012979,-45.294228,-5.978989,-7.365391,0.918445,-0.386828,-0.023333,-0.079238
703,1.081973,-6.569620,7.577066,53.743752,-0.021067,-8.576382,-43.545570,-6.145026,-7.567277,0.923994,-0.372871,-0.025226,-0.081032
704,1.101371,-6.186463,7.662563,55.456154,-1.274744,-8.771190,-41.704357,-6.356622,-7.766301,0.929586,-0.358103,-0.027624,-0.082879
705,1.135961,-5.878589,7.894320,57.013435,-2.514479,-7.049387,-39.812431,-6.576420,-7.925638,0.935109,-0.342835,-0.030311,-0.084356
706,1.160722,-5.627023,8.071682,56.681648,-3.201718,-5.051639,-37.906647,-6.776768,-8.023579,0.940474,-0.327346,-0.033079,-0.085203
707,1.222230,-5.332033,8.098380,56.432713,-3.190024,-2.806874,-36.017052,-6.940309,-8.064537,0.945601,-0.311876,-0.035721,-0.085417
708,1.218384,-5.040524,8.172824,56.889297,-1.279905,-0.166517,-34.129150,-7.029473,-8.062445,0.950551,-0.296293,-0.037871,-0.085024
709,1.163387,-5.078278,8.200474,56.139149,1.922407,2.249497,-32.248688,-7.001350,-8.039508,0.955321,-0.280635,-0.039082,-0.084133
710,0.944693,-4.971273,8.138535,53.953911,5.407802,3.979470,-30.417309,-6.843000,-8.014737,0.959808,-0.265252,-0.039149,-0.082935
711,0.984121,-4.809922,7.951373,48.539848,6.621332,4.936411,-28.713037,-6.595392,-7.984755,0.963827,-0.250823,-0.038357,-0.081567
712,0.800259,-4.710204,7.917558,40.521549,8.819553,5.952674,-27.233454,-6.283008,-7.945232,0.967206,-0.238197,-0.036848,-0.080102
713,0.655692,-4.725374,7.924129,32.135357,10.968841,7.588028,-26.028397,-5.887081,-7.891478,0.969927,-0.227805,-0.034439,-0.078492
714,0.462692,-4.553967,8.084713,24.690199,12.537609,9.014778,-25.089346,-5.414232,-7.810961,0.972075,-0.219595,-0.031219,-0.076645
716,0.404148,-4.509100,8.222003,18.196842,12.494957,11.099341,-24.386309,-4.894976,-7.680959,0.973753,-0.213337,-0.027513,-0.074407
717,0.176015,-4.419948,8.568439,16.351923,13.435472,12.363112,-23.825142,-4.340651,-7.500239,0.975157,-0.208253,-0.023484,-0.071751
718,0.155998,-4.180872,8.797195,19.452469,12.427003,13.905761,-23.244688,-3.770618,-7.270532,0.976577,-0.202989,-0.019393,-0.068686
719,0.133957,-3.935716,9.018791,22.815378,10.248800,15.574847,-22.559042,-3.231283,-6.964301,0.978150,-0.196836,-0.015724,-0.065045
720,0.177352,-3.654347,9.196543,27.101116,7.377025,16.736893,-21.747581,-2.756130,-6.575603,0.979885,-0.189636,-0.012763,-0.060835
721,0.298960,-3.368691,9.340518,30.791113,4.076692,16.032467,-20.802660,-2.380108,-6.135256,0.981745,-0.181338,-0.010739,-0.056368
722,0.316510,-3.119168,9.393275,32.968502,1.340645,14.995233,-19.758057,-2.116293,-5.680855,0.983637,-0.172230,-0.009670,-0.051976
723,0.381172,-2.977923,9.495100,33.054768,-0.987615,13.313375,-18.673662,-1.955553,-5.236781,0.985451,-0.162814,-0.009410,-0.047837
724,0.360870,-2.828194,9.509686,33.851727,-2.309533,10.995718,-17.572233,-1.881838,-4.834245,0.987147,-0.153274,-0.009773,-0.044180
725,0.259725,-2.676570,9.483156,34.442390,-2.691803,8.969295,-16.445385,-1.864388,-4.491369,0.988738,-0.143523,-0.010486,-0.041102
726,0.174290,-2.509279,9.423254,33.696751,-2.227097,7.638934,-15.319290,-1.867657,-4.202506,0.990200,-0.133773,-0.011255,-0.038504
727,0.110637,-2.394551,9.444366,31.593468,-1.488349,6.799271,-14.239333,-1.866248,-3.953942,0.991498,-0.124409,-0.011875,-0.036245
728,0.015366,-2.313379,9.463054,29.386328,-0.573731,6.135016,-13.230147,-1.848493,-3.736327,0.992625,-0.115645,-0.012260,-0.034236
729,-0.010604,-2.174031,9.456352,26.048241,-0.445619,5.727534,-12.312595,-1.821386,-3.539728,0.993581,-0.107664,-0.012483,-0.032407
730,0.070980,-2.110325,9.506849,21.290218,-0.891849,5.096632,-11.529405,-1.805913,-3.358543,0.994346,-0.100847,-0.012729,-0.030735
731,0.123670,-2.072654,9.558208,17.951258,-1.043438,3.701376,-10.880157,-1.809028,-3.208343,0.994940,-0.095196,-0.013055,-0.029361
732,0.177951,-2.013936,9.534835,15.072912,-0.791134,1.782823,-10.332804,-1.822285,-3.112808,0.995405,-0.090434,-0.013386,-0.028479
733,0.188751,-1.909527,9.625285,8.167431,1.646010,0.113207,-9.946380,-1.802754,-3.084189,0.995715,-0.087069,-0.013334,-0.028170
734,0.271335,-1.820333,9.723941,5.059817,-0.081522,-3.383006,-9.724097,-1.786415,-3.142437,0.995870,-0.085141,-0.013203,-0.028638
735,0.286817,-1.746187,9.716336,2.595476,-0.568559,-6.815258,-9.591271,-1.825674,-3.308230,0.995919,-0.084015,-0.013456,-0.030092
736,0.347003,-1.734070,9.686432,-4.366731,-0.340609,-9.985461,-9.611920,-1.887380,-3.581917,0.995819,-0.084242,-0.013786,-0.032518
737,0.312187,-1.705740,9.857931,-11.008591,-0.105318,-12.594791,-9.855776,-1.958465,-3.951755,0.995515,-0.086425,-0.014055,-0.035813
738,0.345286,-1.736274,9.793773,-14.878436,-0.753614,-14.290533,-10.271870,-2.050989,-4.390673,0.995033,-0.090122,-0.014384,-0.039748
739,0.375223,-1.787421,9.719483,-18.105717,-1.350630,-14.041832,-10.804691,-2.171901,-4.848795,0.994413,-0.094846,-0.014869,-0.043888
740,0.512976,-1.853180,9.809982,-17.897854,-2.216843,-12.810637,-11.387944,-2.316496,-5.276824,0.993716,-0.100016,-0.015527,-0.047800
741,0.460743,-1.912038,9.824234,-14.241930,-1.401021,-10.594830,-11.908146,-2.454359,-5.647039,0.993061,-0.104631,-0.016167,-0.051202
742,0.525121,-1.858700,9.633679,-9.758906,-1.633067,-7.757374,-12.295513,-2.567905,-5.935768,0.992542,-0.108076,-0.016705,-0.053862
743,0.524860,-2.033403,9.699997,-7.100130,-1.420699,-4.466335,-12.567891,-2.661453,-6.123982,0.992169,-0.110503,-0.017206,-0.055619
744,0.465289,-1.963678,9.748882,7.067679,-0.626585,-0.989374,-12.564603,-2.714568,-6.205397,0.992119,-0.110511,-0.017589,-0.056374
745,0.405142,-1.880230,9.628661,18.381414,0.148504,4.970938,-12.143598,-2.708070,-6.138849,0.992553,-0.106852,-0.017802,-0.055727
746,0.448513,-1.779465,9.708141,32.878937,-0.835248,10.999069,-11.301611,-2.665079,-5.875685,0.993446,-0.099495,-0.018066,-0.053277
747,0.440225,-1.805039,9.786257,43.558872,-0.856406,15.018617,-10.047663,-2.612369,-5.443902,0.994681,-0.088527,-0.018525,-0.049288
748,0.400244,-1.486340,9.751770,52.134663,0.174136,16.382530,-8.476356,-2.539342,-4.925154,0.996030,-0.074766,-0.018903,-0.044475
749,0.366664,-1.491477,9.758041,48.274956,1.314150,15.571647,-6.826041,-2.444059,-4.400385,0.997215,-0.060293,-0.018988,-0.039583
750,0.258674,-1.326507,9.795704,36.978611,1.969751,10.960639,-5.423552,-2.342449,-3.966432,0.998040,-0.047980,-0.018768,-0.035527
751,0.216078,-1.150790,9.809585,24.295321,2.160821,6.451620,-4.413783,-2.249113,-3.683122,0.998526,-0.039111,-0.018364,-0.032861
752,0.195326,-0.953924,9.825860,14.636111,2.057775,3.534109,-3.771149,-2.167183,-3.522101,0.998789,-0.033463,-0.017881,-0.031331
753,0.208590,-0.886841,9.829680,3.170008,4.384380,2.112598,-3.477585,-2.054105,-3.434952,0.998914,-0.030861,-0.016999,-0.030496
754,0.232552,-0.752528,9.849082,4.487909,0.664446,1.119670,-3.351634,-1.966860,-3.386300,0.998974,-0.029734,-0.016284,-0.030031
755,0.260421,-0.717004,9.843360,3.194640,0.117750,1.830435,-3.225255,-1.951036,-3.337890,0.999021,-0.028622,-0.016192,-0.029588
756,0.251166,-0.776693,9.888038,-2.071898,1.758902,1.726348,-3.208484,-1.916470,-3.280422,0.999045,-0.028459,-0.015909,-0.029076
757,0.224768,-0.768166,9.881272,2.569287,0.585492,1.142207,-3.201694,-1.874763,-3.234863,0.999065,-0.028383,-0.015558,-0.028668
