seq,ax,ay,az,wroll,wpitch,wyaw,roll,pitch,yaw,q0,q1,q2,q3
134,-6.888949,-6.843297,0.005700,0.001333,-0.085871,0.049587,-89.952286,45.190464,-89.932732,0.654001,-0.269623,0.653460,-0.269400
136,-6.899263,-6.830106,0.027591,0.820898,-0.906015,0.936426,-89.921913,45.206886,-89.909248,0.654166,-0.269490,0.653372,-0.269346
137,-6.896167,-6.835530,0.025972,0.593545,-0.676312,0.437668,-89.871727,45.229748,-89.871765,0.654426,-0.269287,0.653220,-0.269287
138,-6.892713,-6.826148,0.026616,0.388220,-0.452612,0.459145,-89.836357,45.244637,-89.844986,0.654606,-0.269153,0.653109,-0.269251
139,-6.889266,-6.825490,0.028124,0.257000,-0.313519,0.201262,-89.812675,45.255600,-89.826790,0.654730,-0.269058,0.653037,-0.269219
140,-6.892959,-6.826496,0.027456,0.065575,-0.120899,0.190236,-89.799973,45.262100,-89.816467,0.654799,-0.269007,0.652998,-0.269196
141,-6.886218,-6.832916,0.023375,-0.166945,0.129932,-0.389212,-89.801834,45.258789,-89.816711,0.654787,-0.269036,0.652995,-0.269205
143,-6.889594,-6.840079,0.023450,-0.162334,0.121767,-0.498762,-89.811615,45.244007,-89.822754,0.654715,-0.269141,0.652997,-0.269269
144,-6.888150,-6.843698,0.018181,-0.330826,0.283902,-0.557720,-89.826683,45.226414,-89.832413,0.654616,-0.269273,0.653014,-0.269338
145,-6.889300,-6.846171,0.017202,-0.284929,0.230505,-0.446414,-89.845650,45.209705,-89.844666,0.654504,-0.269407,0.653048,-0.269396
146,-6.889459,-6.851185,0.016487,-0.181574,0.126680,-0.460610,-89.859459,45.194607,-89.853172,0.654416,-0.269523,0.653064,-0.269452
147,-6.891487,-6.850072,0.014640,-0.183119,0.107644,-0.195808,-89.869492,45.183670,-89.858749,0.654354,-0.269611,0.653075,-0.269489
148,-6.889880,-6.851277,0.020938,0.144848,-0.219189,-0.195525,-89.868286,45.177147,-89.856140,0.654347,-0.269656,0.653051,-0.269518
150,-6.890590,-6.852913,0.021893,0.213320,-0.277075,-0.162893,-89.853996,45.171154,-89.844421,0.654395,-0.269676,0.652975,-0.269566
151,-6.892729,-6.859612,0.018736,0.058679,-0.084972,-0.279963,-89.843414,45.163750,-89.835884,0.654422,-0.269706,0.652913,-0.269620
152,-6.888958,-6.856388,0.020123,0.079095,-0.099224,-0.241582,-89.838043,45.155052,-89.831566,0.654425,-0.269750,0.652869,-0.269676
153,-6.889163,-6.851378,0.021193,0.121020,-0.126700,0.055636,-89.830940,45.151943,-89.826233,0.654447,-0.269757,0.652833,-0.269704
154,-6.886187,-6.847845,0.019070,0.011581,-0.008845,0.094159,-89.826447,45.154434,-89.823029,0.654471,-0.269736,0.652821,-0.269697
155,-6.887147,-6.842717,0.022536,0.115798,-0.117599,0.312286,-89.822189,45.161205,-89.820015,0.654504,-0.269690,0.652819,-0.269665
157,-6.883506,-6.839721,0.024885,0.158467,-0.199101,0.214075,-89.812279,45.169956,-89.812485,0.654565,-0.269626,0.652799,-0.269629
158,-6.889212,-6.843667,0.025393,0.135757,-0.174760,0.206971,-89.801086,45.176952,-89.803604,0.654629,-0.269573,0.652769,-0.269602
159,-6.888769,-6.846705,0.022515,-0.031212,-0.013563,-0.004032,-89.796173,45.180317,-89.799141,0.654658,-0.269551,0.652754,-0.269585
160,-6.894996,-6.842319,0.017692,-0.256485,0.203762,0.387214,-89.804138,45.186718,-89.803604,0.654644,-0.269535,0.652799,-0.269529
161,-6.893017,-6.846995,0.009543,-0.553518,0.480194,0.077792,-89.829086,45.194508,-89.819748,0.654566,-0.269541,0.652914,-0.269434
162,-6.892191,-6.847783,0.011247,-0.367109,0.290717,-0.053618,-89.857376,45.194946,-89.837990,0.654457,-0.269596,0.653024,-0.269375
164,-6.888270,-6.842375,0.008294,-0.366784,0.275204,-0.007954,-89.879097,45.193939,-89.851364,0.654372,-0.269649,0.653105,-0.269333
165,-6.885832,-6.844661,0.007740,-0.292471,0.192341,-0.171736,-89.897942,45.190964,-89.862442,0.654295,-0.269711,0.653168,-0.269306
166,-6.882776,-6.850874,0.009738,-0.115895,0.023238,-0.498842,-89.908379,45.179790,-89.867561,0.654232,-0.269805,0.653178,-0.269339
167,-6.881634,-6.856431,0.010856,-0.028902,-0.069114,-0.667676,-89.910057,45.160351,-89.866524,0.654185,-0.269931,0.653134,-0.269435
168,-6.882414,-6.857170,0.007348,-0.156581,0.070290,-0.480011,-89.913193,45.141220,-89.866585,0.654133,-0.270058,0.653096,-0.269526
169,-6.887642,-6.864457,0.011367,0.021153,-0.111263,-0.368545,-89.914787,45.127079,-89.865654,0.654098,-0.270153,0.653064,-0.269593
171,-6.892224,-6.865800,0.014661,0.151025,-0.244378,-0.118700,-89.905983,45.118954,-89.857269,0.654120,-0.270197,0.653004,-0.269641
172,-6.890034,-6.860746,0.015774,0.147652,-0.249832,0.070857,-89.892731,45.118137,-89.845596,0.654176,-0.270193,0.652944,-0.269655
173,-6.893276,-6.853347,0.017266,0.147583,-0.250461,0.501724,-89.879425,45.127674,-89.833755,0.654258,-0.270130,0.652907,-0.269609
174,-6.892375,-6.852954,0.021017,0.232925,-0.350103,0.394184,-89.862991,45.142574,-89.819519,0.654365,-0.270032,0.652870,-0.269536
175,-6.892251,-6.845497,0.021726,0.182587,-0.305303,0.539246,-89.845039,45.158104,-89.803970,0.654480,-0.269929,0.652828,-0.269461
176,-6.892003,-6.838732,0.022921,0.148913,-0.268032,0.650913,-89.829849,45.177921,-89.790352,0.654594,-0.269807,0.652807,-0.269357
178,-6.894460,-6.836437,0.024800,0.150205,-0.272354,0.646323,-89.815735,45.199512,-89.777473,0.654708,-0.269677,0.652795,-0.269240
179,-6.893756,-6.831501,0.029502,0.277737,-0.385568,0.600687,-89.797485,45.220257,-89.761810,0.654836,-0.269543,0.652764,-0.269136
180,-6.896660,-6.827844,0.027754,0.130822,-0.209805,0.659118,-89.780602,45.241230,-89.747612,0.654958,-0.269408,0.652741,-0.269032
181,-6.895319,-6.828755,0.027057,0.019053,-0.093574,0.372048,-89.772926,45.258385,-89.740326,0.655033,-0.269308,0.652747,-0.268936
182,-6.895425,-6.828764,0.026091,-0.052110,-0.020820,0.208096,-89.771507,45.268047,-89.737564,0.655065,-0.269260,0.652760,-0.268873
183,-6.898865,-6.830696,0.025430,-0.089721,0.021567,0.187301,-89.773865,45.274635,-89.737541,0.655075,-0.269236,0.652781,-0.268822
192,-6.899720,-6.833886,0.021204,-0.236668,0.170940,0.023807,-89.782532,45.278168,-89.742088,0.655052,-0.269240,0.652820,-0.268778
193,-6.896155,-6.832069,0.021626,-0.177517,0.104765,-0.077878,-89.794090,45.277283,-89.748634,0.655008,-0.269274,0.652861,-0.268755
194,-6.898953,-6.837709,0.021708,-0.119171,0.050080,-0.184997,-89.801643,45.272907,-89.752312,0.654971,-0.269321,0.652877,-0.268758
195,-6.899916,-6.836223,0.020482,-0.134809,0.063276,-0.043155,-89.807800,45.269108,-89.755020,0.654942,-0.269362,0.652889,-0.268760
196,-6.892891,-6.838207,0.017360,-0.215609,0.148464,-0.366245,-89.817230,45.262302,-89.760063,0.654892,-0.269426,0.652906,-0.268774
197,-6.892683,-6.830961,0.020843,-0.049746,-0.024071,-0.007377,-89.823761,45.256081,-89.763039,0.654855,-0.269482,0.652914,-0.268789
199,-6.898305,-6.832576,0.021588,-0.001985,-0.083914,0.213932,-89.822792,45.259521,-89.760460,0.654871,-0.269472,0.652914,-0.268760
200,-6.892764,-6.830752,0.017828,-0.151721,0.059030,0.035245,-89.824928,45.263676,-89.759857,0.654877,-0.269464,0.652927,-0.268721
201,-6.889622,-6.832208,0.017526,-0.141593,0.065049,-0.167952,-89.831902,45.261463,-89.762802,0.654849,-0.269499,0.652945,-0.268711
202,-6.890474,-6.834182,0.020408,0.000242,-0.085811,-0.204087,-89.833931,45.255260,-89.762337,0.654831,-0.269549,0.652934,-0.268732
203,-6.884322,-6.844547,0.019578,-0.016535,-0.075111,-0.803786,-89.831551,45.238461,-89.758598,0.654806,-0.269653,0.652880,-0.268820
204,-6.880533,-6.844744,0.014585,-0.237200,0.136581,-0.804961,-89.836891,45.211651,-89.760170,0.654727,-0.269827,0.652833,-0.268952
206,-6.879510,-6.847354,0.021238,0.050414,-0.145350,-0.688483,-89.839935,45.186760,-89.760063,0.654662,-0.269987,0.652781,-0.269076
207,-6.879366,-6.852795,0.024989,0.200220,-0.315914,-0.686193,-89.828094,45.163830,-89.749252,0.654662,-0.270112,0.652673,-0.269212
208,-6.883470,-6.851125,0.025272,0.143487,-0.266705,-0.232261,-89.812645,45.148491,-89.735558,0.654695,-0.270189,0.652568,-0.269309
209,-6.885648,-6.855085,0.030665,0.272418,-0.402198,-0.161051,-89.794540,45.141903,-89.719780,0.654759,-0.270213,0.652472,-0.269360
210,-6.885171,-6.849350,0.033674,0.317426,-0.431134,0.110231,-89.770752,45.140995,-89.700089,0.654860,-0.270194,0.652368,-0.269388
211,-6.886408,-6.845079,0.032075,0.144077,-0.255972,0.343124,-89.751503,45.148495,-89.683807,0.654961,-0.270134,0.652302,-0.269362
212,-6.888582,-6.842107,0.030221,-0.010396,-0.084762,0.472557,-89.743507,45.162071,-89.675667,0.655030,-0.270057,0.652297,-0.269283
213,-6.884699,-6.843675,0.028488,-0.106307,0.016363,0.121535,-89.744270,45.171963,-89.673988,0.655055,-0.270015,0.652318,-0.269213
214,-6.889342,-6.842392,0.024906,-0.240986,0.155580,0.271225,-89.752907,45.178528,-89.678017,0.655041,-0.270004,0.652363,-0.269149
215,-6.894435,-6.852981,0.022667,-0.288675,0.193223,-0.016752,-89.767578,45.182789,-89.686241,0.654997,-0.270017,0.652427,-0.269089
216,-6.893492,-6.852954,0.023769,-0.180551,0.084123,-0.103769,-89.780052,45.180801,-89.692810,0.654948,-0.270062,0.652467,-0.269066
217,-6.896895,-6.850222,0.024304,-0.104713,0.001169,0.162740,-89.786224,45.181786,-89.694817,0.654931,-0.270080,0.652489,-0.269037
218,-6.895935,-6.853556,0.027582,0.041097,-0.153959,-0.016796,-89.784714,45.184216,-89.691193,0.654948,-0.270078,0.652483,-0.269011
219,-6.895838,-6.849151,0.024803,-0.067423,-0.025829,0.125142,-89.782127,45.186008,-89.686928,0.654969,-0.270078,0.652471,-0.268991
220,-6.895071,-6.851064,0.031811,0.196704,-0.278407,0.001830,-89.774864,45.188099,-89.679726,0.655007,-0.270065,0.652442,-0.268980
221,-6.895540,-6.846224,0.026248,-0.047227,-0.025975,0.197217,-89.767265,45.191406,-89.672516,0.655050,-0.270044,0.652415,-0.268963
222,-6.891656,-6.849874,0.026447,-0.071265,-0.007637,-0.138739,-89.768661,45.192364,-89.671715,0.655051,-0.270051,0.652418,-0.268945
223,-6.894083,-6.846438,0.025069,-0.110855,0.042335,0.090552,-89.772278,45.191566,-89.672531,0.655038,-0.270071,0.652427,-0.268933
224,-6.893769,-6.843751,0.025672,-0.090946,-0.004920,0.186563,-89.776253,45.196182,-89.673393,0.655038,-0.270063,0.652449,-0.268889
225,-6.895018,-6.837508,0.022984,-0.178962,0.077052,0.441966,-89.781937,45.206673,-89.675049,0.655045,-0.270026,0.652491,-0.268807
226,-6.892616,-6.843421,0.020028,-0.272843,0.163866,0.015512,-89.793480,45.214310,-89.680702,0.655022,-0.270016,0.652550,-0.268730
227,-6.896358,-6.845503,0.015505,-0.389509,0.302868,0.017234,-89.812355,45.214890,-89.691750,0.654953,-0.270058,0.652622,-0.268682
228,-6.894414,-6.844555,0.012646,-0.419435,0.326739,-0.042268,-89.836411,45.214504,-89.706642,0.654861,-0.270113,0.652712,-0.268632
229,-6.893417,-6.849872,0.015327,-0.176389,0.098152,-0.281299,-89.853493,45.209133,-89.716721,0.654784,-0.270184,0.652763,-0.268623
230,-6.888160,-6.850920,0.017594,-0.015650,-0.082586,-0.476324,-89.856964,45.196495,-89.717117,0.654746,-0.270273,0.652742,-0.268678
231,-6.887835,-6.851705,0.020856,0.126480,-0.227021,-0.400359,-89.849976,45.181877,-89.709854,0.654745,-0.270358,0.652674,-0.268760
232,-6.885954,-6.852113,0.023904,0.198586,-0.313267,-0.353668,-89.835510,45.169277,-89.697113,0.654780,-0.270420,0.652580,-0.268841
233,-6.887634,-6.851103,0.023027,0.103478,-0.207739,-0.129312,-89.821777,45.161205,-89.684837,0.654822,-0.270457,0.652500,-0.268895
234,-6.883914,-6.845489,0.017057,-0.208895,0.096120,0.017169,-89.821678,45.159336,-89.682213,0.654824,-0.270482,0.652489,-0.268891
235,-6.883634,-6.846890,0.015619,-0.249647,0.159918,-0.022621,-89.833595,45.159252,-89.688255,0.654782,-0.270517,0.652531,-0.268858
236,-6.885143,-6.842607,0.016305,-0.153529,0.073170,0.214342,-89.844223,45.162468,-89.693756,0.654751,-0.270528,0.652577,-0.268811
237,-6.882173,-6.838955,0.014543,-0.172760,0.080280,0.211900,-89.852226,45.169582,-89.697365,0.654741,-0.270512,0.652621,-0.268746
238,-6.882085,-6.846163,0.015525,-0.089236,0.009132,-0.127446,-89.858078,45.170990,-89.699471,0.654725,-0.270526,0.652643,-0.268716
239,-6.884563,-6.843626,0.018728,0.083632,-0.136712,0.068765,-89.856033,45.170010,-89.696457,0.654735,-0.270537,0.652629,-0.268716
240,-6.889332,-6.836850,0.018627,0.058449,-0.124008,0.534587,-89.849274,45.180058,-89.690254,0.654789,-0.270476,0.652622,-0.268662
241,-6.893087,-6.836439,0.020968,0.112992,-0.181768,0.599249,-89.841240,45.198936,-89.682953,0.654869,-0.270364,0.652631,-0.268558
242,-6.889009,-6.840408,0.024787,0.239266,-0.288850,0.103864,-89.827415,45.210629,-89.671761,0.654955,-0.270282,0.652600,-0.268506
243,-6.891930,-6.839285,0.026780,0.243821,-0.301075,0.143431,-89.809456,45.214718,-89.657784,0.655039,-0.270236,0.652534,-0.268505
244,-6.892944,-6.839799,0.022665,-0.030913,-0.062701,0.120826,-89.799774,45.219101,-89.649162,0.655092,-0.270205,0.652502,-0.268486
245,-6.891095,-6.841640,0.020895,-0.137530,0.048738,-0.074800,-89.802345,45.219864,-89.648819,0.655089,-0.270217,0.652509,-0.268465
246,-6.888686,-6.843102,0.021545,-0.106062,0.005755,-0.239921,-89.807335,45.214619,-89.650131,0.655062,-0.270268,0.652511,-0.268474
247,-6.896623,-6.841505,0.021759,-0.084506,-0.025280,0.189882,-89.810188,45.213787,-89.649673,0.655054,-0.270292,0.652515,-0.268460
248,-6.897141,-6.843405,0.017897,-0.223753,0.107215,0.148830,-89.816696,45.219444,-89.651604,0.655048,-0.270286,0.652548,-0.268402
249,-6.894452,-6.851702,0.022544,-0.001673,-0.102783,-0.348213,-89.820518,45.216114,-89.651695,0.655031,-0.270326,0.652549,-0.268399
250,-6.892934,-6.854256,0.019444,-0.106142,0.006678,-0.479609,-89.820747,45.202309,-89.649490,0.655003,-0.270418,0.652512,-0.268464
251,-6.892470,-6.854239,0.020537,-0.066571,-0.043569,-0.366156,-89.823059,45.188217,-89.648682,0.654967,-0.270517,0.652482,-0.268527
252,-6.889888,-6.851042,0.021299,-0.025236,-0.078584,-0.224046,-89.822563,45.178371,-89.645836,0.654952,-0.270586,0.652451,-0.268570
253,-6.887552,-6.839350,0.022401,0.018987,-0.124681,0.240491,-89.819260,45.178635,-89.641029,0.654971,-0.270593,0.652432,-0.268560
254,-6.891529,-6.838837,0.023412,0.060193,-0.145641,0.426198,-89.813362,45.189732,-89.634583,0.655026,-0.270533,0.652429,-0.268493
255,-6.889460,-6.840486,0.031407,0.349603,-0.439303,0.164200,-89.796684,45.199543,-89.620697,0.655121,-0.270461,0.652381,-0.268453
256,-6.890167,-6.840505,0.030551,0.243183,-0.318682,0.099475,-89.774071,45.203888,-89.602745,0.655227,-0.270409,0.652296,-0.268454
257,-6.888820,-6.849801,0.029270,0.087469,-0.168253,-0.365007,-89.760406,45.199429,-89.591255,0.655275,-0.270421,0.652226,-0.268491
258,-6.890207,-6.857711,0.033601,0.200169,-0.264365,-0.589900,-89.748413,45.183479,-89.581108,0.655290,-0.270501,0.652136,-0.268593
259,-6.890392,-6.858320,0.030345,0.008941,-0.079004,-0.458664,-89.739258,45.165985,-89.573112,0.655290,-0.270594,0.652054,-0.268699
260,-6.892624,-6.856883,0.025601,-0.229002,0.161624,-0.142918,-89.744354,45.155964,-89.575127,0.655250,-0.270669,0.652047,-0.268739
261,-6.895229,-6.848220,0.023124,-0.298323,0.242854,0.394729,-89.759903,45.160187,-89.584663,0.655201,-0.270680,0.652116,-0.268681
262,-6.897514,-6.841380,0.025357,-0.149384,0.083612,0.721708,-89.772774,45.178818,-89.592278,0.655196,-0.270604,0.652208,-0.268545
263,-6.895261,-6.836356,0.022013,-0.233853,0.151406,0.654578,-89.783012,45.201767,-89.597702,0.655212,-0.270501,0.652300,-0.268386
264,-6.891322,-6.830318,0.025687,-0.034913,-0.049363,0.520211,-89.789116,45.221348,-89.600006,0.655238,-0.270411,0.652366,-0.268253
265,-6.892348,-6.831867,0.023502,-0.091115,0.004951,0.310079,-89.790421,45.235180,-89.598877,0.655270,-0.270346,0.652400,-0.268160
266,-6.887543,-6.842359,0.024818,-0.028417,-0.066996,-0.428748,-89.791374,45.233200,-89.597427,0.655266,-0.270371,0.652394,-0.268158
267,-6.889584,-6.844129,0.026833,0.059985,-0.151393,-0.404317,-89.787247,45.219303,-89.592339,0.655255,-0.270455,0.652339,-0.268231
268,-6.888209,-6.848870,0.027592,0.074339,-0.160123,-0.512174,-89.779831,45.204014,-89.585045,0.655255,-0.270542,0.652268,-0.268319
269,-6.889088,-6.855630,0.028676,0.073474,-0.155092,-0.605434,-89.772163,45.185379,-89.577705,0.655247,-0.270646,0.652188,-0.268427
270,-6.887969,-6.854821,0.024958,-0.104839,0.031146,-0.425405,-89.770668,45.168190,-89.574867,0.655217,-0.270752,0.652137,-0.268518
271,-6.888648,-6.848783,0.024571,-0.130851,0.052836,0.007570,-89.776031,45.161228,-89.576897,0.655183,-0.270810,0.652138,-0.268538
272,-6.887768,-6.845552,0.018433,-0.333935,0.260796,0.176614,-89.789032,45.164322,-89.584290,0.655143,-0.270825,0.652193,-0.268489
273,-6.887098,-6.847193,0.015075,-0.399434,0.320162,0.058793,-89.810982,45.168274,-89.598007,0.655068,-0.270850,0.652286,-0.268420
274,-6.886929,-6.841260,0.014100,-0.327613,0.251687,0.252384,-89.832664,45.173477,-89.611496,0.654997,-0.270867,0.652381,-0.268344
275,-6.883791,-6.840342,0.020181,0.013735,-0.084534,0.106516,-89.840683,45.179474,-89.615425,0.654983,-0.270856,0.652424,-0.268286
276,-6.884006,-6.840529,0.027168,0.326283,-0.382438,0.049243,-89.827179,45.182053,-89.604370,0.655047,-0.270828,0.652372,-0.268286
277,-6.883027,-6.838903,0.024048,0.134854,-0.177632,0.053627,-89.810097,45.183739,-89.591118,0.655122,-0.270796,0.652305,-0.268297
278,-6.880255,-6.836370,0.029034,0.251818,-0.290856,0.028582,-89.795784,45.185081,-89.580040,0.655185,-0.270769,0.652248,-0.268308
279,-6.880026,-6.838849,0.023741,-0.028465,-0.021427,-0.086062,-89.786835,45.184109,-89.572662,0.655221,-0.270766,0.652208,-0.268322
280,-6.884536,-6.836353,0.026546,0.049710,-0.103578,0.203792,-89.784370,45.186066,-89.569695,0.655238,-0.270757,0.652200,-0.268308
281,-6.886248,-6.834233,0.018316,-0.279393,0.228227,0.335754,-89.790253,45.195061,-89.572594,0.655238,-0.270723,0.652242,-0.268240
282,-6.880314,-6.836980,0.025299,0.017967,-0.084923,-0.093575,-89.797005,45.199104,-89.575966,0.655224,-0.270720,0.652275,-0.268198
283,-6.886553,-6.835361,0.024097,-0.002093,-0.069879,0.174631,-89.794144,45.200447,-89.572296,0.655242,-0.270716,0.652263,-0.268185
284,-6.891042,-6.836690,0.029201,0.188958,-0.257265,0.269560,-89.785507,45.207836,-89.564522,0.655298,-0.270669,0.652242,-0.268148
285,-6.893589,-6.839557,0.025666,0.006636,-0.075476,0.197931,-89.776619,45.215595,-89.556595,0.655356,-0.270619,0.652221,-0.268109
286,-6.895839,-6.847995,0.023715,-0.134829,0.044310,-0.125824,-89.778229,45.216805,-89.555855,0.655356,-0.270626,0.652226,-0.268088
287,-6.900012,-6.848316,0.022435,-0.159430,0.091153,0.017664,-89.785423,45.215004,-89.559074,0.655328,-0.270659,0.652246,-0.268076
288,-6.893851,-6.851229,0.021951,-0.151212,0.075434,-0.319414,-89.793427,45.209991,-89.563057,0.655288,-0.270711,0.652262,-0.268082
289,-6.889327,-6.846968,0.019854,-0.203419,0.115926,-0.267250,-89.802574,45.200226,-89.567619,0.655233,-0.270793,0.652271,-0.268112
290,-6.886807,-6.847037,0.019780,-0.164750,0.063194,-0.281233,-89.811760,45.191093,-89.571907,0.655180,-0.270873,0.652281,-0.268136
291,-6.885134,-6.845093,0.026675,0.163372,-0.248407,-0.183228,-89.808693,45.183346,-89.567566,0.655179,-0.270924,0.652245,-0.268173
292,-6.884203,-6.843443,0.027050,0.147261,-0.245659,-0.088508,-89.795227,45.178780,-89.555893,0.655228,-0.270940,0.652175,-0.268209
293,-6.889807,-6.839635,0.021035,-0.139688,0.059917,0.325983,-89.791977,45.182728,-89.551483,0.655255,-0.270924,0.652166,-0.268180
294,-6.891195,-6.846274,0.024157,-0.032609,-0.041080,0.070071,-89.795158,45.189335,-89.551910,0.655262,-0.270902,0.652191,-0.268126
295,-6.892029,-6.849990,0.027525,0.110206,-0.182452,-0.114950,-89.790100,45.188572,-89.546608,0.655284,-0.270907,0.652164,-0.268129
297,-6.892533,-6.852013,0.022820,-0.104183,0.023965,-0.171362,-89.787369,45.183792,-89.542892,0.655289,-0.270940,0.652138,-0.268151
298,-6.891087,-6.851181,0.021398,-0.168623,0.081274,-0.145461,-89.793678,45.178505,-89.545395,0.655255,-0.270992,0.652146,-0.268159
299,-6.891745,-6.850932,0.025363,0.011704,-0.101445,-0.065527,-89.795967,45.174988,-89.544937,0.655243,-0.271028,0.652142,-0.268164
300,-6.891379,-6.848385,0.022351,-0.086922,0.001327,0.062303,-89.795563,45.174938,-89.542587,0.655249,-0.271039,0.652135,-0.268153
301,-6.889606,-6.840134,0.015857,-0.339919,0.265983,0.328612,-89.807137,45.181461,-89.548866,0.655222,-0.271032,0.652193,-0.268086
302,-6.888465,-6.837542,0.017318,-0.224247,0.145022,0.338656,-89.823402,45.192612,-89.558548,0.655187,-0.271007,0.652280,-0.267985
303,-6.892455,-6.837946,0.020139,-0.039101,-0.036702,0.369987,-89.829582,45.204426,-89.561058,0.655194,-0.270960,0.652329,-0.267897
304,-6.889949,-6.838355,0.021391,0.033314,-0.116479,0.153304,-89.827065,45.213135,-89.557388,0.655229,-0.270917,0.652335,-0.267840
305,-6.885550,-6.837099,0.022673,0.069319,-0.159512,-0.053328,-89.820717,45.214790,-89.550850,0.655263,-0.270909,0.652308,-0.267829
306,-6.886550,-6.838483,0.026996,0.200839,-0.299836,-0.092348,-89.808517,45.212341,-89.540001,0.655312,-0.270915,0.652248,-0.267851
307,-6.886911,-6.838952,0.027593,0.166819,-0.247199,-0.082833,-89.793205,45.209393,-89.527069,0.655371,-0.270918,0.652175,-0.267881
308,-6.885768,-6.839656,0.023759,-0.055387,-0.028103,-0.119119,-89.786743,45.206009,-89.520576,0.655394,-0.270937,0.652137,-0.267900
309,-6.885422,-6.843803,0.028836,0.120163,-0.206971,-0.264205,-89.781738,45.199596,-89.515045,0.655404,-0.270976,0.652096,-0.267933
310,-6.891109,-6.847989,0.028260,0.059418,-0.153072,-0.148273,-89.772728,45.192699,-89.506561,0.655429,-0.271012,0.652039,-0.267975
311,-6.890118,-6.850645,0.028646,0.031742,-0.119428,-0.226055,-89.766663,45.186443,-89.500153,0.655444,-0.271050,0.651995,-0.268009
312,-6.889075,-6.848179,0.028780,0.004225,-0.117246,-0.108476,-89.762123,45.180862,-89.494598,0.655455,-0.271087,0.651957,-0.268035
313,-6.887498,-6.846772,0.026033,-0.136206,0.007411,-0.077148,-89.762489,45.177757,-89.492027,0.655452,-0.271122,0.651945,-0.268036
314,-6.889754,-6.843705,0.021406,-0.329007,0.196222,0.171034,-89.773651,45.179337,-89.496826,0.655419,-0.271149,0.651986,-0.267991
315,-6.890973,-6.839789,0.018844,-0.363333,0.236165,0.363312,-89.792397,45.188267,-89.506989,0.655371,-0.271148,0.652075,-0.267891
316,-6.888634,-6.839198,0.013944,-0.468467,0.336855,0.211399,-89.815842,45.197880,-89.520493,0.655306,-0.271150,0.652185,-0.267780
317,-6.888444,-6.837843,0.007558,-0.608597,0.488580,0.160788,-89.847633,45.204121,-89.540001,0.655200,-0.271185,0.652320,-0.267675
318,-6.893380,-6.841162,0.012416,-0.254767,0.152207,0.169454,-89.872757,45.209648,-89.555130,0.655118,-0.271211,0.652428,-0.267587
319,-6.894098,-6.840136,0.011316,-0.175046,0.076537,0.178732,-89.883743,45.215466,-89.560524,0.655093,-0.271210,0.652480,-0.267522
320,-6.889327,-6.839109,0.012003,-0.109817,0.010304,-0.025462,-89.889938,45.218021,-89.562569,0.655079,-0.271219,0.652506,-0.267484
321,-6.895239,-6.840240,0.015876,0.066159,-0.177416,0.129615,-89.887856,45.219746,-89.558609,0.655098,-0.271220,0.652495,-0.267463
322,-6.897209,-6.842679,0.021991,0.297474,-0.418215,0.101521,-89.871796,45.223579,-89.544510,0.655177,-0.271187,0.652434,-0.267452
323,-6.898481,-6.833244,0.026286,0.389263,-0.523636,0.493720,-89.844498,45.233467,-89.522194,0.655317,-0.271101,0.652341,-0.267423
324,-6.899103,-6.830586,0.025184,0.223684,-0.361062,0.522364,-89.819366,45.250351,-89.501183,0.655465,-0.270981,0.652273,-0.267350
325,-6.899980,-6.831046,0.028303,0.248252,-0.364702,0.385534,-89.799248,45.265450,-89.483932,0.655587,-0.270878,0.652221,-0.267279
326,-6.893940,-6.831533,0.025521,0.052872,-0.164265,-0.000607,-89.785309,45.271835,-89.471375,0.655664,-0.270833,0.652174,-0.267250
327,-6.890598,-6.834760,0.021250,-0.171107,0.079034,-0.321972,-89.785858,45.266445,-89.469376,0.655655,-0.270879,0.652158,-0.267267
328,-6.887080,-6.839283,0.014334,-0.449776,0.375992,-0.596065,-89.803909,45.251175,-89.480225,0.655552,-0.271007,0.652189,-0.267313
329,-6.884374,-6.848049,0.018259,-0.217117,0.152338,-0.913981,-89.824005,45.226044,-89.492859,0.655417,-0.271193,0.652206,-0.267415
330,-6.888357,-6.842679,0.014801,-0.276688,0.188321,-0.326927,-89.837997,45.205372,-89.500999,0.655317,-0.271345,0.652208,-0.267500
331,-6.891911,-6.840742,0.018347,-0.079601,-0.013756,0.071774,-89.846886,45.201138,-89.505142,0.655276,-0.271396,0.652229,-0.267497
332,-6.890403,-6.836181,0.017400,-0.083807,-0.021375,0.231074,-89.849007,45.206177,-89.504295,0.655285,-0.271385,0.652244,-0.267451
333,-6.888361,-6.844757,0.017215,-0.080480,-0.042741,-0.226466,-89.850670,45.206249,-89.502785,0.655285,-0.271402,0.652244,-0.267433
334,-6.887883,-6.835094,0.016118,-0.098223,-0.017686,0.149116,-89.852638,45.204956,-89.501358,0.655280,-0.271429,0.652242,-0.267421
335,-6.883933,-6.842821,0.015725,-0.076246,-0.011790,-0.288451,-89.855072,45.202641,-89.500679,0.655271,-0.271460,0.652241,-0.267416
336,-6.887265,-6.845438,0.016634,-0.007808,-0.059066,-0.228076,-89.855301,45.194027,-89.499031,0.655254,-0.271520,0.652217,-0.267455
337,-6.886647,-6.845607,0.023997,0.284142,-0.349828,-0.166751,-89.843849,45.187428,-89.489380,0.655288,-0.271547,0.652152,-0.267502
338,-6.889757,-6.839714,0.026097,0.307718,-0.373963,0.243893,-89.821846,45.188683,-89.472267,0.655383,-0.271511,0.652063,-0.267523
339,-6.890559,-6.846974,0.022242,0.032407,-0.106881,-0.022277,-89.808098,45.192345,-89.460876,0.655451,-0.271477,0.652013,-0.267515
340,-6.890047,-6.843915,0.025378,0.071945,-0.163403,0.042572,-89.801826,45.192669,-89.454491,0.655482,-0.271475,0.651983,-0.267512
341,-6.887848,-6.844588,0.023130,-0.046506,-0.038454,-0.069655,-89.798019,45.192204,-89.449722,0.655501,-0.271483,0.651962,-0.267509
342,-6.890743,-6.846197,0.017537,-0.280995,0.200883,-0.018052,-89.806213,45.190746,-89.453568,0.655469,-0.271516,0.651987,-0.267493
343,-6.892580,-6.848930,0.014497,-0.348980,0.280017,-0.043176,-89.824783,45.189758,-89.464951,0.655396,-0.271564,0.652055,-0.267458
344,-6.890555,-6.849348,0.015860,-0.192383,0.129858,-0.133145,-89.840691,45.186836,-89.474655,0.655329,-0.271616,0.652108,-0.267440
345,-6.892158,-6.852537,0.013669,-0.207189,0.137040,-0.157886,-89.851830,45.181995,-89.480972,0.655276,-0.271671,0.652138,-0.267440
346,-6.888812,-6.854263,0.007587,-0.405612,0.319480,-0.307924,-89.869720,45.174248,-89.491798,0.655191,-0.271756,0.652186,-0.267444
347,-6.893954,-6.856677,0.009186,-0.267287,0.171513,-0.125436,-89.889183,45.167046,-89.503426,0.655101,-0.271842,0.652242,-0.267441
348,-6.890039,-6.856467,0.011908,-0.064952,-0.027562,-0.193931,-89.897148,45.161728,-89.506844,0.655062,-0.271899,0.652256,-0.267446
349,-6.890227,-6.856436,0.016725,0.159820,-0.248914,-0.125566,-89.890938,45.156391,-89.500320,0.655079,-0.271931,0.652214,-0.267474
350,-6.889433,-6.856051,0.019511,0.254324,-0.326999,-0.098636,-89.874390,45.152634,-89.486725,0.655141,-0.271935,0.652134,-0.267512
351,-6.892278,-6.857909,0.027658,0.497625,-0.568399,-0.038271,-89.846863,45.150318,-89.465576,0.655251,-0.271911,0.652014,-0.267561
352,-6.889851,-6.854004,0.030104,0.475477,-0.535184,0.042636,-89.812141,45.150333,-89.439484,0.655394,-0.271861,0.651871,-0.267609
353,-6.890979,-6.852498,0.032129,0.379483,-0.442994,0.141689,-89.781502,45.153347,-89.416359,0.655528,-0.271800,0.651752,-0.267634
354,-6.897205,-6.850886,0.029964,0.143299,-0.213647,0.405636,-89.761734,45.162426,-89.400772,0.655632,-0.271724,0.651690,-0.267606
355,-6.901956,-6.850188,0.026140,-0.113031,0.037057,0.541820,-89.758202,45.178207,-89.396507,0.655687,-0.271638,0.651710,-0.267511
356,-6.901591,-6.848682,0.024215,-0.199335,0.126632,0.435857,-89.766083,45.194515,-89.400284,0.655697,-0.271569,0.651776,-0.267395
357,-6.902298,-6.854194,0.020358,-0.325722,0.247870,0.085449,-89.781090,45.203232,-89.409096,0.655661,-0.271555,0.651853,-0.267310
358,-6.900766,-6.854960,0.023039,-0.132608,0.066648,-0.089378,-89.793999,45.203182,-89.416519,0.655613,-0.271586,0.651900,-0.267279
359,-6.899078,-6.853547,0.020897,-0.154444,0.087116,-0.093172,-89.801376,45.200150,-89.420174,0.655580,-0.271625,0.651919,-0.267276
360,-6.900532,-6.851833,0.020264,-0.138294,0.080588,0.053590,-89.809067,45.199490,-89.424141,0.655551,-0.271650,0.651945,-0.267258
361,-6.897112,-6.849313,0.021767,-0.045467,-0.017589,0.035836,-89.813202,45.200996,-89.425644,0.655541,-0.271657,0.651962,-0.267235
362,-6.896212,-6.845915,0.022499,0.010890,-0.067906,0.116623,-89.812317,45.203526,-89.423592,0.655554,-0.271649,0.651961,-0.267214
363,-6.896419,-6.842585,0.016823,-0.238220,0.154220,0.227010,-89.817535,45.209259,-89.425613,0.655550,-0.271635,0.651991,-0.267163
364,-6.893003,-6.838675,0.017238,-0.206003,0.106359,0.188798,-89.829300,45.216202,-89.431755,0.655524,-0.271628,0.652050,-0.267091
365,-6.889722,-6.836264,0.020185,-0.044601,-0.071893,0.093969,-89.834038,45.220913,-89.432549,0.655522,-0.271623,0.652074,-0.267042
366,-6.889640,-6.838038,0.016093,-0.174943,0.074441,-0.029173,-89.837738,45.221996,-89.432602,0.655515,-0.271638,0.652085,-0.267015
367,-6.885686,-6.841891,0.020150,0.003818,-0.109647,-0.345913,-89.840019,45.215748,-89.431801,0.655497,-0.271691,0.652074,-0.267033
368,-6.884042,-6.843114,0.023798,0.167748,-0.253515,-0.395555,-89.831108,45.203369,-89.423264,0.655510,-0.271759,0.652003,-0.267106
369,-6.881157,-6.845260,0.025422,0.206435,-0.271223,-0.460837,-89.816109,45.189075,-89.410912,0.655541,-0.271825,0.651905,-0.267202
370,-6.878317,-6.844378,0.027159,0.213667,-0.272181,-0.417799,-89.800049,45.174400,-89.398140,0.655575,-0.271890,0.651802,-0.267304
371,-6.877163,-6.838149,0.032589,0.341416,-0.417927,-0.079585,-89.779243,45.166061,-89.381851,0.655643,-0.271911,0.651695,-0.267377
372,-6.878726,-6.836850,0.023037,-0.134489,0.063076,0.115789,-89.769836,45.166637,-89.373459,0.655686,-0.271901,0.651654,-0.267379
373,-6.879014,-6.838047,0.019178,-0.333291,0.247619,0.066252,-89.782845,45.169701,-89.380806,0.655645,-0.271917,0.651710,-0.267330
374,-6.880413,-6.840983,0.019280,-0.274362,0.168151,-0.031620,-89.799950,45.170303,-89.390633,0.655583,-0.271955,0.651774,-0.267285
375,-6.884075,-6.845994,0.011993,-0.480733,0.372521,-0.073227,-89.821609,45.168594,-89.403427,0.655498,-0.272016,0.651851,-0.267245
376,-6.887177,-6.851436,0.007852,-0.550197,0.437546,-0.145691,-89.852379,45.164978,-89.422585,0.655372,-0.272104,0.651960,-0.267200
377,-6.885755,-6.850069,0.016190,-0.087614,-0.038345,-0.106778,-89.869698,45.160778,-89.432022,0.655299,-0.272173,0.652012,-0.267180
378,-6.887379,-6.848101,0.018928,0.107235,-0.226184,0.081713,-89.864944,45.160362,-89.425774,0.655324,-0.272184,0.651985,-0.267173
379,-6.889380,-6.848042,0.016240,-0.010771,-0.084362,0.153332,-89.858124,45.164265,-89.418427,0.655366,-0.272164,0.651961,-0.267148
380,-6.886175,-6.843283,0.022193,0.185191,-0.278367,0.174175,-89.849129,45.169704,-89.409843,0.655420,-0.272131,0.651933,-0.267119
381,-6.888127,-6.848447,0.021326,0.118538,-0.201064,-0.002697,-89.836014,45.172539,-89.398491,0.655484,-0.272104,0.651882,-0.267112
382,-6.892678,-6.855877,0.019934,0.009954,-0.078467,-0.154328,-89.829201,45.169914,-89.391891,0.655510,-0.272117,0.651845,-0.267128
383,-6.892521,-6.859244,0.020667,0.021515,-0.075109,-0.264714,-89.826126,45.162922,-89.388306,0.655510,-0.272160,0.651812,-0.267165
384,-6.894714,-6.857765,0.021709,0.039140,-0.098362,-0.045515,-89.822220,45.157745,-89.384224,0.655516,-0.272191,0.651781,-0.267194
385,-6.894403,-6.863227,0.022088,0.038044,-0.097800,-0.223799,-89.817650,45.153233,-89.379601,0.655527,-0.272216,0.651748,-0.267219
386,-6.891836,-6.852335,0.024641,0.112613,-0.168578,0.143688,-89.810692,45.151890,-89.373314,0.655556,-0.272220,0.651714,-0.267230
387,-6.885909,-6.845024,0.022081,-0.022026,-0.040613,0.209728,-89.805656,45.157764,-89.368347,0.655593,-0.272186,0.651705,-0.267197
388,-6.886291,-6.843056,0.021709,-0.081607,-0.005090,0.251838,-89.806595,45.165455,-89.367226,0.655611,-0.272154,0.651723,-0.267141
389,-6.884979,-6.842334,0.021490,-0.094917,-0.002748,0.154140,-89.809380,45.172222,-89.367004,0.655620,-0.272132,0.651745,-0.267086
390,-6.887919,-6.835770,0.019373,-0.169206,0.069960,0.461219,-89.814865,45.182484,-89.368546,0.655628,-0.272097,0.651786,-0.267004
391,-6.887893,-6.836592,0.018291,-0.186184,0.082052,0.322488,-89.823303,45.195553,-89.372086,0.655630,-0.272050,0.651845,-0.266902
392,-6.892803,-6.838883,0.020255,-0.062933,-0.035938,0.308924,-89.828178,45.206074,-89.373116,0.655640,-0.272012,0.651884,-0.266820
393,-6.888494,-6.836949,0.018763,-0.083355,0.002461,0.121869,-89.830040,45.213253,-89.372299,0.655654,-0.271987,0.651904,-0.266764
394,-6.889072,-6.837433,0.017789,-0.110094,0.035350,0.066405,-89.833885,45.216396,-89.373177,0.655650,-0.271986,0.651922,-0.266729
395,-6.885324,-6.843388,0.021486,0.047293,-0.127523,-0.349936,-89.833389,45.211655,-89.371010,0.655645,-0.272022,0.651905,-0.266746
396,-6.884243,-6.849439,0.018867,-0.053018,-0.028634,-0.589831,-89.830910,45.195988,-89.367386,0.655623,-0.272118,0.651853,-0.266829
397,-6.885885,-6.842378,0.017737,-0.117770,0.031805,-0.106145,-89.833847,45.184395,-89.367500,0.655589,-0.272200,0.651832,-0.266880
398,-6.888765,-6.843933,0.019496,-0.048362,-0.048385,0.051454,-89.836342,45.183479,-89.367119,0.655582,-0.272222,0.651835,-0.266868
400,-6.885723,-6.848175,0.020525,-0.002503,-0.109112,-0.231731,-89.834557,45.180473,-89.363411,0.655588,-0.272250,0.651815,-0.266875
401,-6.887106,-6.849500,0.017972,-0.102803,-0.001930,-0.202696,-89.834465,45.173225,-89.360809,0.655578,-0.272306,0.651791,-0.266902
402,-6.887869,-6.848799,0.020367,-0.010064,-0.090316,-0.068268,-89.834808,45.168705,-89.358650,0.655571,-0.272346,0.651776,-0.266913
403,-6.883259,-6.856598,0.024324,0.145465,-0.254170,-0.514263,-89.826820,45.158981,-89.350548,0.655587,-0.272401,0.651715,-0.266968
404,-6.883318,-6.857439,0.020830,-0.022798,-0.077127,-0.460727,-89.819275,45.142712,-89.342796,0.655585,-0.272495,0.651640,-0.267059
405,-6.885198,-6.855700,0.024890,0.111327,-0.195740,-0.169064,-89.813263,45.132198,-89.336403,0.655590,-0.272557,0.651585,-0.267117
406,-6.886744,-6.855389,0.023656,0.040323,-0.128364,0.002578,-89.805321,45.129406,-89.328758,0.655620,-0.272571,0.651542,-0.267134
407,-6.889615,-6.857526,0.025416,0.073522,-0.166095,0.043919,-89.798485,45.130157,-89.321785,0.655654,-0.272567,0.651511,-0.267129
408,-6.890276,-6.853230,0.025515,0.061051,-0.137570,0.237824,-89.791153,45.134850,-89.314606,0.655700,-0.272539,0.651488,-0.267103
409,-6.889034,-6.850511,0.028183,0.133713,-0.207442,0.258267,-89.782082,45.143082,-89.306396,0.655759,-0.272487,0.651467,-0.267060
410,-6.890794,-6.844438,0.019340,-0.260769,0.192940,0.492252,-89.783920,45.155594,-89.305992,0.655785,-0.272428,0.651501,-0.266976
411,-6.888007,-6.840757,0.022034,-0.148211,0.082593,0.418998,-89.795296,45.170803,-89.312431,0.655778,-0.272370,0.651579,-0.266861
412,-6.887876,-6.830530,0.019483,-0.194041,0.138775,0.698197,-89.804657,45.189438,-89.317581,0.655787,-0.272289,0.651658,-0.266731
413,-6.888134,-6.830355,0.012126,-0.450004,0.382120,0.535571,-89.824066,45.210026,-89.329803,0.655760,-0.272213,0.651781,-0.266573
414,-6.888612,-6.836551,0.009721,-0.452499,0.377394,0.113928,-89.851830,45.220886,-89.347733,0.655677,-0.272208,0.651914,-0.266456
415,-6.889191,-6.834778,0.015009,-0.106404,0.028779,0.119885,-89.867950,45.224792,-89.357323,0.655625,-0.272223,0.651984,-0.266396
416,-6.890049,-6.837966,0.011024,-0.188072,0.106211,-0.016269,-89.875122,45.226528,-89.360512,0.655605,-0.272236,0.652012,-0.266364
417,-6.891000,-6.845269,0.017771,0.106912,-0.202401,-0.296308,-89.874863,45.221313,-89.358246,0.655599,-0.272277,0.651994,-0.266382
418,-6.893205,-6.846673,0.022555,0.292856,-0.386551,-0.212514,-89.858337,45.212814,-89.344345,0.655651,-0.272310,0.651902,-0.266445
419,-6.890553,-6.848826,0.023693,0.259676,-0.348803,-0.325317,-89.836800,45.203815,-89.326981,0.655721,-0.272337,0.651789,-0.266520
420,-6.890365,-6.859203,0.020706,0.034458,-0.126067,-0.676409,-89.823990,45.187096,-89.315826,0.655739,-0.272422,0.651693,-0.266625
421,-6.894804,-6.861596,0.023402,0.076916,-0.177375,-0.437513,-89.817101,45.168522,-89.308739,0.655729,-0.272529,0.651615,-0.266729
422,-6.892692,-6.861016,0.017534,-0.182476,0.090053,-0.313891,-89.817436,45.155994,-89.306732,0.655704,-0.272614,0.651581,-0.266787
423,-6.892898,-6.861730,0.015845,-0.243124,0.151298,-0.222756,-89.828606,45.147064,-89.312469,0.655644,-0.272696,0.651600,-0.266808
424,-6.898047,-6.860096,0.013819,-0.285406,0.182542,0.130283,-89.843010,45.145538,-89.320366,0.655587,-0.272742,0.651648,-0.266780
425,-6.892735,-6.857875,0.017406,-0.089315,-0.028685,0.029589,-89.851822,45.148205,-89.323990,0.655564,-0.272757,0.651684,-0.266735
426,-6.890413,-6.851783,0.016712,-0.056164,-0.034117,0.160592,-89.853188,45.151379,-89.322495,0.655572,-0.272755,0.651691,-0.266701
427,-6.888244,-6.844869,0.017459,-0.024100,-0.073595,0.311996,-89.852692,45.159241,-89.319916,0.655597,-0.272722,0.651703,-0.266644
428,-6.884402,-6.840348,0.021014,0.122299,-0.207152,0.274339,-89.846321,45.169003,-89.313240,0.655650,-0.272668,0.651695,-0.266586
429,-6.883606,-6.835111,0.018847,0.005562,-0.092581,0.352465,-89.839134,45.179436,-89.306114,0.655708,-0.272608,0.651687,-0.266527
430,-6.886722,-6.836556,0.020240,0.050979,-0.118354,0.317434,-89.834625,45.190590,-89.301079,0.655756,-0.272547,0.651691,-0.266460
431,-6.887461,-6.836560,0.021673,0.072586,-0.149568,0.248110,-89.828033,45.200001,-89.294701,0.655809,-0.272492,0.651683,-0.266407
432,-6.890471,-6.844182,0.021756,0.049960,-0.129090,-0.012034,-89.821297,45.203918,-89.288094,0.655849,-0.272469,0.651661,-0.266385
433,-6.892634,-6.848557,0.017990,-0.137110,0.054289,-0.148532,-89.821503,45.201244,-89.286331,0.655846,-0.272495,0.651651,-0.266389
434,-6.887167,-6.853345,0.017618,-0.137716,0.061428,-0.529261,-89.828056,45.189953,-89.289116,0.655798,-0.272581,0.651646,-0.266432
435,-6.888214,-6.847195,0.017706,-0.116401,0.027332,-0.134768,-89.833824,45.178894,-89.291260,0.655754,-0.272665,0.651638,-0.266475
436,-6.883656,-6.845262,0.015494,-0.184110,0.093872,-0.143577,-89.840874,45.174259,-89.294151,0.655720,-0.272715,0.651650,-0.266478
437,-6.880036,-6.846823,0.015443,-0.146935,0.075891,-0.327633,-89.849258,45.166412,-89.298187,0.655672,-0.272785,0.651660,-0.266498
438,-6.876669,-6.848499,0.016351,-0.082307,-0.012384,-0.446768,-89.854179,45.153503,-89.299736,0.655627,-0.272878,0.651644,-0.266553
439,-6.882211,-6.842750,0.021059,0.120091,-0.222079,0.135883,-89.849632,45.148312,-89.294212,0.655639,-0.272913,0.651608,-0.266577
440,-6.877342,-6.846972,0.020072,0.062210,-0.158561,-0.176863,-89.840210,45.147610,-89.285217,0.655681,-0.272914,0.651563,-0.266583
441,-6.877514,-6.851285,0.019596,-0.003131,-0.099465,-0.331850,-89.834923,45.139122,-89.279152,0.655688,-0.272967,0.651516,-0.266627
442,-6.881614,-6.852506,0.022537,0.075803,-0.195098,-0.134565,-89.828812,45.131336,-89.272232,0.655700,-0.273015,0.651467,-0.266666
443,-6.885794,-6.850567,0.028001,0.267735,-0.370148,0.184662,-89.813614,45.132137,-89.258865,0.655770,-0.273000,0.651401,-0.266672
444,-6.881115,-6.849556,0.026758,0.143948,-0.235587,0.021280,-89.796593,45.135536,-89.244537,0.655851,-0.272965,0.651336,-0.266667
445,-6.885232,-6.844990,0.025106,0.001843,-0.093235,0.334543,-89.788643,45.141445,-89.236748,0.655902,-0.272930,0.651313,-0.266634
446,-6.890483,-6.841227,0.028136,0.087690,-0.175296,0.630861,-89.782593,45.157524,-89.230316,0.655968,-0.272840,0.651322,-0.266540
447,-6.888614,-6.835042,0.025385,-0.039602,-0.041073,0.650494,-89.778076,45.178860,-89.225082,0.656040,-0.272722,0.651350,-0.266413
448,-6.886695,-6.833041,0.023366,-0.144995,0.047463,0.443930,-89.781197,45.197105,-89.225136,0.656075,-0.272636,0.651402,-0.266292
449,-6.891312,-6.835931,0.022084,-0.172177,0.073020,0.342698,-89.788452,45.210224,-89.227921,0.656081,-0.272587,0.651457,-0.266191
450,-6.893919,-6.836227,0.020229,-0.212758,0.115324,0.300216,-89.797989,45.220955,-89.232323,0.656073,-0.272556,0.651515,-0.266101
451,-6.887758,-6.840180,0.020832,-0.164399,0.032647,-0.203706,-89.806740,45.222557,-89.235802,0.656048,-0.272577,0.651547,-0.266062
452,-6.887925,-6.839234,0.023237,-0.031036,-0.094011,-0.162490,-89.808990,45.216454,-89.234375,0.656032,-0.272633,0.651535,-0.266076
453,-6.890077,-6.839801,0.014884,-0.333650,0.237378,-0.025212,-89.817482,45.213337,-89.237778,0.655997,-0.272680,0.651555,-0.266065
454,-6.887336,-6.841475,0.017709,-0.179259,0.085945,-0.178011,-89.831467,45.209965,-89.245430,0.655938,-0.272735,0.651597,-0.266048
455,-6.884092,-6.843266,0.018977,-0.058884,-0.029638,-0.334601,-89.836411,45.201424,-89.246811,0.655903,-0.272804,0.651592,-0.266077
456,-6.888867,-6.843019,0.017323,-0.076433,0.011914,-0.044209,-89.838379,45.195107,-89.246414,0.655885,-0.272854,0.651580,-0.266100
457,-6.887948,-6.847781,0.016386,-0.115340,0.033745,-0.217439,-89.842369,45.190754,-89.247520,0.655863,-0.272895,0.651582,-0.266108
458,-6.885198,-6.851655,0.020783,0.069008,-0.157072,-0.453885,-89.841110,45.179562,-89.244644,0.655847,-0.272968,0.651545,-0.266163
459,-6.887672,-6.853341,0.019416,0.004291,-0.090052,-0.318347,-89.835770,45.166676,-89.238853,0.655843,-0.273044,0.651488,-0.266234
460,-6.889113,-6.856603,0.022892,0.105348,-0.200800,-0.267163,-89.829094,45.156902,-89.232018,0.655852,-0.273100,0.651433,-0.266288
461,-6.891887,-6.858149,0.025617,0.181214,-0.276653,-0.129248,-89.816345,45.150269,-89.220764,0.655894,-0.273129,0.651360,-0.266334
462,-6.894265,-6.856354,0.022436,0.018513,-0.089343,0.109391,-89.806885,45.149914,-89.212120,0.655935,-0.273126,0.651317,-0.266341
463,-6.897705,-6.853141,0.025139,0.077911,-0.155787,0.374432,-89.801140,45.157963,-89.206284,0.655981,-0.273080,0.651309,-0.266294
464,-6.898710,-6.851288,0.026563,0.108810,-0.182133,0.415689,-89.792313,45.171108,-89.198227,0.656051,-0.273001,0.651301,-0.266223
465,-6.895829,-6.847538,0.022509,-0.072549,0.009271,0.306208,-89.788773,45.183132,-89.194084,0.656097,-0.272936,0.651312,-0.266151
466,-6.888617,-6.846603,0.020107,-0.190211,0.118741,-0.057160,-89.795288,45.187290,-89.197098,0.656084,-0.272932,0.651344,-0.266107
467,-6.886158,-6.843753,0.021471,-0.117425,0.031619,-0.095694,-89.802956,45.184757,-89.200668,0.656052,-0.272970,0.651364,-0.266098
468,-6.880643,-6.842726,0.020364,-0.123430,0.046305,-0.248689,-89.808281,45.179016,-89.202538,0.656021,-0.273023,0.651367,-0.266112
469,-6.880676,-6.840976,0.020962,-0.077407,-0.010290,-0.126309,-89.812271,45.172771,-89.203423,0.655995,-0.273076,0.651364,-0.266130
470,-6.888709,-6.844940,0.025043,0.083831,-0.190215,0.115944,-89.808807,45.172588,-89.198685,0.656014,-0.273084,0.651344,-0.266123
471,-6.893059,-6.849225,0.023286,-0.004046,-0.092644,0.112999,-89.802719,45.176384,-89.191978,0.656053,-0.273066,0.651323,-0.266098
472,-6.895405,-6.850913,0.021319,-0.107586,0.006949,0.113101,-89.803131,45.180153,-89.189941,0.656066,-0.273058,0.651328,-0.266062
473,-6.895761,-6.850344,0.020468,-0.139182,0.034181,0.115466,-89.807907,45.183964,-89.190880,0.656061,-0.273059,0.651350,-0.266019
474,-6.895046,-6.862007,0.015445,-0.313151,0.210584,-0.404183,-89.819565,45.179161,-89.196701,0.656008,-0.273120,0.651380,-0.266013
475,-6.890842,-6.861470,0.014315,-0.293580,0.208988,-0.515363,-89.836761,45.163853,-89.206673,0.655909,-0.273248,0.651407,-0.266060
476,-6.887327,-6.848589,0.015676,-0.157452,0.073562,0.007329,-89.849030,45.155392,-89.213387,0.655845,-0.273329,0.651431,-0.266077
477,-6.884932,-6.850392,0.017652,-0.015479,-0.054158,-0.078477,-89.852242,45.154209,-89.213844,0.655833,-0.273351,0.651437,-0.266068
478,-6.888100,-6.850426,0.021330,0.143478,-0.212102,0.055102,-89.845642,45.153809,-89.207558,0.655862,-0.273351,0.651405,-0.266072
479,-6.889924,-6.836804,0.026570,0.327242,-0.398206,0.680290,-89.827538,45.166039,-89.193077,0.655967,-0.273261,0.651358,-0.266022
480,-6.887459,-6.832686,0.026123,0.223143,-0.302751,0.629019,-89.806541,45.187828,-89.176414,0.656106,-0.273111,0.651322,-0.265922
481,-6.888961,-6.843782,0.024795,0.073081,-0.145992,0.047161,-89.794044,45.199078,-89.165749,0.656187,-0.273036,0.651295,-0.265867
482,-6.892802,-6.843044,0.024362,-0.019723,-0.066150,0.119676,-89.789566,45.201828,-89.160706,0.656215,-0.273023,0.651279,-0.265848
483,-6.895242,-6.843707,0.019499,-0.228272,0.147126,0.175534,-89.795044,45.206760,-89.162590,0.656209,-0.273016,0.651308,-0.265800
484,-6.894341,-6.841641,0.013003,-0.464837,0.385388,0.175405,-89.815514,45.212639,-89.175163,0.656145,-0.273028,0.651400,-0.265722
485,-6.891068,-6.841945,0.010773,-0.461128,0.376455,-0.016832,-89.843735,45.215324,-89.193184,0.656042,-0.273072,0.651514,-0.265649
486,-6.894676,-6.838540,0.008169,-0.430559,0.343372,0.231479,-89.870667,45.218933,-89.210197,0.655947,-0.273109,0.651626,-0.265573
487,-6.892181,-6.842240,0.004969,-0.424155,0.328671,-0.043650,-89.896202,45.222088,-89.226089,0.655856,-0.273147,0.651731,-0.265500
488,-6.892895,-6.844799,0.007131,-0.223204,0.113817,-0.154600,-89.914421,45.218796,-89.236565,0.655781,-0.273210,0.651790,-0.265475
489,-6.890115,-6.850305,0.011050,0.018588,-0.128693,-0.461036,-89.917595,45.208534,-89.236237,0.655751,-0.273289,0.651772,-0.265514
490,-6.895200,-6.844250,0.008534,-0.059282,-0.041766,0.082459,-89.915421,45.202217,-89.232216,0.655751,-0.273335,0.651742,-0.265540
491,-6.895679,-6.844199,0.016961,0.266163,-0.377016,0.166436,-89.904938,45.206352,-89.222305,0.655808,-0.273308,0.651704,-0.265519
492,-6.895226,-6.843946,0.018656,0.271504,-0.393262,0.122312,-89.883041,45.211151,-89.204071,0.655914,-0.273259,0.651621,-0.265512
493,-6.892383,-6.840177,0.017253,0.122356,-0.224669,0.117359,-89.866081,45.215122,-89.189430,0.655997,-0.273223,0.651557,-0.265502
494,-6.894412,-6.840274,0.025291,0.364400,-0.451628,0.163284,-89.846596,45.219769,-89.173416,0.656091,-0.273176,0.651485,-0.265494
495,-6.891618,-6.850240,0.024158,0.223618,-0.311286,-0.392224,-89.824005,45.215916,-89.155388,0.656178,-0.273171,0.651380,-0.265541
