seq,ax,ay,az,wroll,wpitch,wyaw,roll,pitch,yaw,q0,q1,q2,q3
61,0.776539,-8.962157,0.035727,-30.463236,-0.584946,5.160572,-89.771683,-4.951992,87.356018,0.532996,-0.488768,-0.509039,0.466798
62,0.107137,-7.678154,-5.694503,-63.424763,-11.128751,25.043144,-91.352020,-4.446751,87.546921,0.523349,-0.497435,-0.514121,0.462972
63,0.000144,-7.426669,-5.738002,-53.594868,-9.987905,27.205856,-93.324066,-3.563308,87.864777,0.509695,-0.508727,-0.519742,0.459646
64,-0.134403,-7.141312,-5.518179,-41.833775,-8.046525,26.888880,-94.926666,-2.642801,88.100906,0.497590,-0.518610,-0.523391,0.457722
65,-0.419664,-7.107518,-5.768294,-33.731075,-7.855671,29.043398,-96.192261,-1.689513,88.275208,0.486908,-0.527222,-0.525306,0.457177
66,-0.575049,-7.593800,-5.951335,-25.843058,-9.834590,30.950718,-97.188576,-0.662326,88.452301,0.476960,-0.534801,-0.525881,0.458198
67,-0.899583,-7.844192,-6.106666,-21.732138,-10.515230,24.585964,-97.982170,0.299587,88.667023,0.467972,-0.540956,-0.526116,0.459968
68,-1.225523,-7.886229,-5.492496,-22.370125,-8.055908,15.247809,-98.714958,1.001148,88.876785,0.460398,-0.545741,-0.527176,0.460745
69,-1.650808,-8.053782,-4.796932,-20.472288,-5.778827,11.125373,-99.425621,1.471576,89.034660,0.454158,-0.549692,-0.528862,0.460308
70,-1.845978,-8.391514,-4.524458,-14.702302,-4.616008,2.819333,-100.008163,1.729935,89.166077,0.449606,-0.552384,-0.530779,0.459347
71,-1.915445,-9.078688,-4.221534,-3.446552,-2.267975,-8.349318,-100.306908,1.659377,89.295074,0.447985,-0.552683,-0.532883,0.458134
72,-2.022645,-9.518482,-4.852078,4.760127,1.904624,-13.019603,-100.283333,1.309946,89.364403,0.449485,-0.550916,-0.534534,0.456868
73,-2.082577,-10.021801,-5.813962,6.501950,5.006714,-9.839434,-100.096634,0.914552,89.318222,0.452441,-0.548859,-0.535161,0.455690
74,-1.763447,-10.390106,-6.964257,-1.139230,8.252578,-10.329762,-100.009392,0.544946,89.159203,0.455235,-0.547812,-0.535540,0.453718
75,-1.340647,-10.204328,-7.270807,-16.618965,13.643894,-10.419936,-100.307220,0.140075,88.861198,0.456888,-0.548808,-0.536910,0.449211
76,-0.895111,-9.185391,-7.508032,-38.301319,19.416964,-8.709183,-101.222084,-0.276238,88.379890,0.456313,-0.553095,-0.539806,0.440991
77,-0.414877,-8.345910,-6.843213,-57.351517,23.335924,-5.831400,-102.810974,-0.661889,87.734207,0.452852,-0.560973,-0.544214,0.429027
78,-0.097125,-7.791666,-6.570502,-65.890434,23.973186,-5.055166,-104.853981,-1.026803,87.012947,0.447137,-0.571069,-0.549580,0.414621
79,0.155607,-7.193311,-6.133864,-67.358253,22.251310,-5.127120,-107.059235,-1.401889,86.319405,0.440287,-0.581580,-0.555339,0.399388
80,0.186902,-6.699028,-5.931885,-63.288033,18.372892,-3.280218,-109.219200,-1.746000,85.719788,0.432923,-0.591504,-0.560926,0.384788
81,0.124456,-6.379159,-5.767832,-55.821411,13.149327,-1.881940,-111.188477,-2.008369,85.256836,0.425471,-0.600245,-0.565962,0.371978
82,0.084761,-6.198487,-5.752103,-45.501575,6.901134,-0.956691,-112.866020,-2.177873,84.965019,0.418384,-0.607293,-0.570389,0.361672
83,0.233760,-6.017119,-5.584373,-34.724857,2.299958,-2.534730,-114.198288,-2.292861,84.847885,0.412219,-0.612324,-0.574320,0.353966
84,0.380802,-6.126075,-5.488664,-25.258898,-1.629507,-5.378167,-115.199699,-2.417708,84.892830,0.407327,-0.615268,-0.578051,0.348407
85,0.541334,-6.525395,-5.361547,-16.376181,-3.465566,-10.015855,-115.901756,-2.612924,85.080132,0.403947,-0.616169,-0.581828,0.344441
86,1.067643,-7.120087,-5.467377,-10.303546,-2.812092,-15.407329,-116.360001,-2.947557,85.360703,0.402295,-0.615261,-0.585802,0.341244
87,1.417726,-7.838743,-5.695293,-8.167888,-0.830989,-20.178196,-116.685730,-3.451283,85.680046,0.402092,-0.613120,-0.590106,0.337906
88,1.598564,-8.449245,-5.853989,-8.612895,1.219404,-23.035442,-116.986572,-4.096900,85.999901,0.402744,-0.610399,-0.594747,0.333895
89,1.672586,-8.739787,-5.830519,-7.881633,2.274374,-22.679939,-117.284576,-4.801461,86.296417,0.403792,-0.607566,-0.599387,0.329472
90,1.833477,-8.561571,-5.883205,-6.968307,2.718605,-21.131132,-117.555740,-5.487895,86.559814,0.405005,-0.604845,-0.603662,0.325155
91,1.630828,-8.156179,-5.501498,-4.916323,1.292676,-17.700024,-117.778313,-6.092096,86.802322,0.406140,-0.602315,-0.607393,0.321466
92,1.553979,-7.814488,-5.204482,-1.676896,-2.462315,-12.107882,-117.915688,-6.522274,87.053078,0.406850,-0.600010,-0.610376,0.319222
93,1.505037,-7.327369,-4.941159,0.215096,-6.085261,-5.982803,-117.970909,-6.721938,87.321960,0.406803,-0.598091,-0.612525,0.318766
94,1.589134,-7.249520,-5.007055,1.067484,-8.961771,0.528378,-117.980438,-6.684616,87.587883,0.405826,-0.596829,-0.613828,0.319866
95,1.364260,-7.515391,-5.337679,0.555790,-13.090425,7.835105,-117.982941,-6.389091,87.848740,0.403608,-0.596450,-0.614324,0.322418
96,1.056607,-7.801820,-5.719766,-0.877354,-16.227280,14.598573,-118.015526,-5.829569,88.106071,0.399904,-0.597090,-0.614105,0.326246
97,0.692206,-8.051088,-5.905465,-2.626296,-17.776035,21.096458,-118.094727,-5.038020,88.327339,0.394859,-0.598853,-0.613132,0.330954
98,0.222826,-8.406683,-6.114391,-3.941587,-18.782665,26.761616,-118.216766,-4.047288,88.488594,0.388710,-0.601714,-0.611355,0.336289
99,-0.568914,-8.418546,-6.113184,-5.939206,-19.974808,29.896378,-118.388580,-2.909685,88.609764,0.381610,-0.605384,-0.609039,0.341989
100,-1.243043,-8.255072,-5.854064,-7.246695,-19.694561,31.254986,-118.612076,-1.698645,88.704422,0.373872,-0.609524,-0.606476,0.347687
101,-1.629605,-8.268888,-5.723070,-7.422763,-18.352928,30.558867,-118.857620,-0.490557,88.765060,0.366070,-0.613815,-0.603772,0.353106
102,-1.876491,-8.075305,-5.674257,-6.855996,-15.554160,26.855999,-119.095474,0.620222,88.795815,0.358853,-0.617845,-0.601155,0.357919
103,-2.040365,-7.826245,-5.506216,-5.744599,-11.820710,22.369524,-119.305466,1.558893,88.793785,0.352753,-0.621359,-0.598795,0.361833
104,-1.971363,-7.811849,-5.449204,-6.433181,-8.310994,21.139921,-119.510529,2.355327,88.729973,0.347601,-0.624697,-0.596521,0.364815
105,-1.838991,-7.808257,-5.497663,-6.840655,-3.020980,16.498829,-119.738411,2.994001,88.583824,0.343409,-0.628021,-0.594366,0.366590
106,-1.827835,-7.636456,-5.474725,-8.971173,0.967734,13.038980,-120.013863,3.437936,88.367798,0.340210,-0.631248,-0.592605,0.366882
107,-1.842440,-7.745681,-5.408941,-9.284684,5.173836,8.001874,-120.334496,3.689646,88.102386,0.337938,-0.634287,-0.591338,0.365783
108,-1.854661,-7.896070,-5.497020,-10.775736,6.597082,5.619911,-120.687263,3.785652,87.817352,0.336374,-0.637066,-0.590564,0.363639
109,-1.870332,-7.957476,-5.548495,-11.227101,7.489092,4.238498,-121.072884,3.806138,87.530830,0.335022,-0.639729,-0.590119,0.360923
110,-1.719465,-7.936613,-5.574124,-10.332981,8.957299,2.413220,-121.451477,3.758645,87.238319,0.334076,-0.642209,-0.589826,0.357864
111,-1.531310,-7.967644,-5.667522,-9.579093,10.315006,0.157830,-121.802383,3.626725,86.941673,0.333733,-0.644395,-0.589680,0.354478
112,-1.189943,-7.888157,-5.719355,-10.966732,11.730395,-4.396842,-122.161537,3.372211,86.666870,0.333914,-0.646159,-0.590060,0.350440
113,-0.664364,-7.721072,-5.848304,-13.949817,14.303929,-10.047529,-122.589783,2.936503,86.428871,0.334538,-0.647446,-0.591413,0.345148
114,-0.241658,-7.531711,-5.955554,-18.117907,16.145260,-16.171864,-123.132736,2.294021,86.239426,0.335446,-0.648262,-0.593993,0.338238
115,0.245768,-7.518771,-5.969756,-21.344614,17.752655,-21.677397,-123.794289,1.456179,86.115860,0.336503,-0.648556,-0.597823,0.329772
116,0.663580,-7.532485,-6.044808,-22.725798,18.673681,-24.263664,-124.529808,0.481698,86.043404,0.337699,-0.648428,-0.602452,0.320238
117,0.927906,-7.381315,-6.154480,-21.118290,18.962523,-23.664173,-125.260384,-0.532228,85.985863,0.339074,-0.648096,-0.607129,0.310475
118,1.199699,-7.315839,-6.188865,-18.015467,17.742910,-20.531410,-125.911369,-1.487094,85.916885,0.340605,-0.647749,-0.611220,0.301365
119,1.585909,-7.335607,-6.243990,-14.188944,16.406416,-16.349602,-126.444931,-2.319088,85.820206,0.342210,-0.647538,-0.614390,0.293447
120,1.779719,-7.349894,-6.304548,-10.997841,13.657507,-11.476694,-126.858986,-2.990142,85.694862,0.343702,-0.647574,-0.616574,0.286973
121,1.943685,-7.355089,-6.246491,-8.171618,10.780518,-8.313830,-127.171387,-3.498648,85.568047,0.344909,-0.647768,-0.618008,0.281958
122,2.046099,-7.483375,-6.231319,-6.976219,9.916058,-8.423982,-127.417023,-3.929549,85.462433,0.346024,-0.647866,-0.619162,0.277805
123,1.931213,-7.555113,-6.155874,-5.833725,7.850147,-7.159139,-127.624969,-4.315880,85.385536,0.347044,-0.647820,-0.620249,0.274191
124,1.773399,-7.511897,-6.067136,-4.332666,6.227264,-6.133411,-127.790466,-4.634663,85.335274,0.347885,-0.647692,-0.621193,0.271275
125,1.712808,-7.359232,-6.122938,-4.713122,5.130465,-5.209628,-127.938446,-4.900104,85.301750,0.348505,-0.647571,-0.622041,0.268813
126,1.685211,-7.223870,-6.129297,-6.766883,4.569360,-3.722584,-128.126648,-5.116966,85.266014,0.348650,-0.647722,-0.622838,0.266407
127,1.676587,-7.103716,-6.233607,-8.443575,3.067848,-0.649069,-128.375183,-5.252982,85.210983,0.348077,-0.648391,-0.623450,0.264087
128,1.661203,-7.107522,-6.371973,-9.446663,2.752182,1.534951,-128.665527,-5.301832,85.125610,0.346882,-0.649598,-0.623757,0.261960
129,1.466064,-7.150251,-6.475190,-9.450567,2.010171,4.917268,-128.968552,-5.267777,84.995857,0.345281,-0.651315,-0.623625,0.260120
130,1.096884,-7.165425,-6.504989,-8.757477,1.148908,11.800730,-129.252426,-5.084757,84.778427,0.343207,-0.653861,-0.622568,0.259008
131,0.594861,-7.231021,-6.542142,-6.833884,-0.046219,21.264635,-129.481277,-4.670281,84.413490,0.340573,-0.657665,-0.619947,0.259138
132,0.075952,-7.282088,-6.518300,-4.197657,-1.607387,28.589521,-129.626663,-4.011957,83.904381,0.337478,-0.662625,-0.615660,0.260765
133,-0.426106,-7.271196,-6.399581,-1.214203,-3.371855,33.077736,-129.679810,-3.167596,83.311508,0.334157,-0.668196,-0.610143,0.263778
134,-0.756907,-7.320734,-6.455838,0.132192,-4.336964,33.472725,-129.669235,-2.231798,82.701881,0.330797,-0.673826,-0.604065,0.267653
135,-0.961730,-7.389773,-6.415049,1.175632,-4.696409,28.742104,-129.630493,-1.337372,82.156036,0.327695,-0.678848,-0.598327,0.271635
136,-1.143616,-7.262125,-6.335982,1.548106,-4.466594,20.104122,-129.578354,-0.612791,81.754776,0.325228,-0.682589,-0.593818,0.275098
137,-1.309737,-7.247661,-6.309627,2.132826,-3.336166,12.900487,-129.515533,-0.105815,81.504868,0.323594,-0.684945,-0.590757,0.277748
138,-1.363543,-7.329084,-6.339936,1.635860,-3.496865,9.223695,-129.452942,0.251212,81.358360,0.322486,-0.686388,-0.588719,0.279792
139,-1.289139,-7.344931,-6.278660,2.110829,-1.614417,4.238808,-129.391006,0.478641,81.281670,0.321874,-0.687156,-0.587461,0.281254
140,-1.178435,-7.508268,-6.323387,3.645805,1.863183,-1.882907,-129.295319,0.506390,81.253601,0.322374,-0.687097,-0.586978,0.281831
141,-0.876733,-7.645057,-6.389052,4.803353,3.422173,-4.991494,-129.154449,0.361943,81.257858,0.323950,-0.686330,-0.587070,0.281702
142,-0.466092,-7.590078,-6.355581,4.352930,4.642669,-7.039653,-129.001740,0.121559,81.279953,0.326045,-0.685199,-0.587515,0.281111
143,-0.112069,-7.448943,-6.312251,3.235843,5.116395,-7.689684,-128.875275,-0.171605,81.307747,0.328236,-0.683977,-0.588207,0.280087
144,0.248489,-7.554962,-6.331852,1.410207,5.290208,-7.002124,-128.797943,-0.471097,81.326233,0.330186,-0.682919,-0.588981,0.278747
145,0.665606,-7.465123,-6.239780,0.240832,5.255169,-7.171865,-128.770554,-0.765332,81.337250,0.331826,-0.682051,-0.589814,0.277160
147,0.901618,-7.582118,-6.257156,-0.576485,4.711954,-6.687817,-128.776382,-1.049452,81.352425,0.333206,-0.681278,-0.590719,0.275473
148,1.088041,-7.652283,-6.350012,-1.713906,3.718214,-6.684532,-128.815186,-1.311183,81.382584,0.334238,-0.680576,-0.591726,0.273792
149,1.088489,-7.740685,-6.361246,-2.920239,1.502650,-5.035819,-128.893753,-1.517888,81.437408,0.334695,-0.679999,-0.592816,0.272306
150,0.918747,-7.440314,-6.364785,-7.008496,0.994051,-4.327173,-129.061035,-1.665378,81.503281,0.334298,-0.679772,-0.594013,0.270747
151,0.771340,-7.251888,-6.360789,-12.238920,1.521229,-2.529954,-129.383026,-1.780401,81.543144,0.332881,-0.680211,-0.595324,0.268501
152,0.751320,-7.075068,-6.333729,-14.406471,2.120301,-1.465334,-129.826996,-1.870342,81.538902,0.330713,-0.681292,-0.596579,0.265639
153,0.551862,-7.030770,-6.259727,-13.602323,2.274084,0.297823,-130.292343,-1.932330,81.495361,0.328361,-0.682702,-0.597560,0.262715
154,0.360642,-6.905160,-6.248065,-12.213384,1.718100,2.604043,-130.719849,-1.938728,81.413345,0.326031,-0.684334,-0.598064,0.260212
155,0.337796,-6.999416,-6.216568,-7.336789,1.404141,3.696044,-131.042068,-1.893354,81.305290,0.324116,-0.685924,-0.598026,0.258498
156,0.268931,-7.183450,-6.351628,-1.019807,0.635471,3.514907,-131.177963,-1.825101,81.200645,0.323188,-0.687021,-0.597524,0.257908
157,0.040613,-7.246124,-6.436722,2.335881,-0.009237,2.582427,-131.153702,-1.755428,81.125900,0.323145,-0.687512,-0.596836,0.258247
158,-0.067432,-7.314455,-6.561556,2.610143,-1.598184,2.513130,-131.070206,-1.673807,81.090240,0.323308,-0.687661,-0.596216,0.259076
159,0.061894,-7.486651,-6.643039,3.331836,-1.924506,1.159707,-130.971283,-1.589080,81.094345,0.323458,-0.687567,-0.595790,0.260116
160,0.121205,-7.502271,-6.625418,3.235452,-2.288139,-0.350118,-130.863052,-1.532889,81.138588,0.323719,-0.687169,-0.595658,0.261145
161,0.095589,-7.425909,-6.619554,1.308009,-2.807441,-0.487113,-130.789261,-1.487914,81.212006,0.323763,-0.686688,-0.595809,0.262008
162,0.140701,-7.471360,-6.551027,0.528422,-3.128214,0.202611,-130.760635,-1.426883,81.290047,0.323443,-0.686351,-0.596047,0.262747
163,0.250120,-7.419152,-6.388293,0.962332,-2.613763,0.009600,-130.737503,-1.361730,81.360268,0.323086,-0.686080,-0.596238,0.263459
164,0.257286,-7.300346,-6.309632,0.972627,-1.938465,-0.668268,-130.706772,-1.320556,81.424942,0.322909,-0.685757,-0.596444,0.264050
165,0.243147,-7.338008,-6.263648,1.554814,-1.510677,-0.332060,-130.665878,-1.295722,81.479408,0.322900,-0.685419,-0.596608,0.264566
166,0.279595,-7.388866,-6.161767,3.165840,-0.862277,-0.993824,-130.588211,-1.286747,81.523834,0.323216,-0.684990,-0.596670,0.265150
167,0.313112,-7.339427,-6.139824,3.814631,-0.481167,-1.483950,-130.472870,-1.303587,81.567696,0.323890,-0.684395,-0.596710,0.265773
168,0.290134,-7.354331,-6.161656,3.872827,-0.285101,-1.646364,-130.345749,-1.335037,81.611267,0.324710,-0.683731,-0.596761,0.266369
169,0.329211,-7.477960,-6.122459,5.417016,0.139545,-1.461077,-130.191757,-1.372984,81.646599,0.325741,-0.683016,-0.596716,0.267042
170,0.350362,-7.523362,-6.200055,5.169736,0.502006,-1.934420,-130.015991,-1.423167,81.674873,0.326980,-0.682244,-0.596611,0.267736
171,0.335704,-7.526225,-6.203327,5.171082,0.548142,-2.125118,-129.844406,-1.486281,81.704895,0.328255,-0.681440,-0.596560,0.268336
172,0.298499,-7.569446,-6.190887,5.379282,0.487449,-2.099741,-129.669418,-1.551454,81.736687,0.329555,-0.680609,-0.596517,0.268947
173,0.301123,-7.575515,-6.183836,5.586914,0.345969,-1.818344,-129.487503,-1.610638,81.767586,0.330865,-0.679775,-0.596435,0.269627
174,0.256409,-7.594743,-6.198581,4.800890,-0.018505,-1.162171,-129.315155,-1.652489,81.794914,0.332037,-0.679029,-0.596306,0.270352
175,0.243904,-7.573116,-6.200545,4.293430,-0.290978,-0.519123,-129.164200,-1.670932,81.816628,0.332974,-0.678431,-0.596129,0.271090
176,0.220722,-7.535909,-6.192015,3.253799,-0.851165,0.814535,-129.038757,-1.655105,81.828300,0.333608,-0.678046,-0.595857,0.271871
177,0.192091,-7.569864,-6.142206,2.311251,-1.314268,2.289730,-128.945877,-1.592185,81.823776,0.333846,-0.677959,-0.595436,0.272718
178,0.133816,-7.646442,-6.149351,2.144592,-1.610660,3.416273,-128.871033,-1.487567,81.801956,0.333806,-0.678120,-0.594838,0.273669
179,0.057833,-7.591488,-6.205807,1.819253,-1.629168,3.435144,-128.804230,-1.364763,81.772385,0.333644,-0.678391,-0.594161,0.274664
180,-0.036828,-7.506263,-6.157835,1.546678,-1.686118,3.678169,-128.747421,-1.237733,81.741211,0.333405,-0.678710,-0.593485,0.275627
181,-0.144226,-7.513508,-6.168322,1.122254,-2.751407,4.505442,-128.702377,-1.085057,81.713570,0.332957,-0.679108,-0.592785,0.276692
182,-0.187501,-7.478266,-6.186662,2.321876,-3.525514,3.028682,-128.645035,-0.921651,81.716766,0.332452,-0.679338,-0.592205,0.277973
183,-0.269672,-7.505924,-6.223034,3.263306,-5.159466,0.393919,-128.553116,-0.786758,81.794327,0.332117,-0.679010,-0.592061,0.279477
184,-0.034393,-7.511140,-6.061739,4.065881,-6.581067,-7.148794,-128.434006,-0.753062,82.017593,0.332103,-0.677596,-0.592996,0.280941
185,0.161287,-7.521541,-5.917899,3.102977,-9.468005,-15.759759,-128.321014,-0.886271,82.464409,0.332358,-0.674612,-0.595731,0.282032
186,0.559924,-7.644665,-5.755292,4.156861,-10.105937,-24.938231,-128.212509,-1.216688,83.140793,0.333035,-0.669917,-0.600359,0.282608
187,0.875677,-7.785299,-5.776228,3.548394,-10.211652,-28.098299,-128.104980,-1.702492,83.953430,0.334179,-0.664055,-0.606174,0.282681
188,1.190782,-7.828358,-5.670032,2.123095,-9.120437,-28.168545,-128.039185,-2.241972,84.785835,0.335322,-0.658000,-0.612291,0.282303
189,1.274266,-7.970422,-5.744102,1.299075,-7.699345,-22.570845,-128.014465,-2.735314,85.528313,0.336224,-0.652604,-0.617808,0.281734
190,1.325218,-7.956338,-5.733089,2.615388,-6.010509,-14.532336,-127.977699,-3.081927,86.089775,0.336878,-0.648506,-0.621829,0.281568
191,1.341616,-7.985661,-5.693318,4.182872,-5.835445,-6.446013,-127.884781,-3.236418,86.460915,0.337306,-0.645787,-0.624106,0.282270
192,1.250738,-7.849649,-5.598763,7.135104,-5.982730,-1.982129,-127.709694,-3.226784,86.702965,0.337642,-0.643979,-0.625010,0.283993
193,1.131087,-7.790478,-5.614447,10.764714,-6.325620,2.129292,-127.420197,-3.099865,86.864265,0.338193,-0.642601,-0.624858,0.286779
194,0.967229,-7.769142,-5.559870,14.414150,-6.569197,6.949094,-127.004631,-2.849490,86.943985,0.338994,-0.641644,-0.623587,0.290716
195,0.639741,-7.906505,-5.686837,16.610449,-6.908712,11.197223,-126.487450,-2.472869,86.942970,0.339895,-0.641180,-0.621237,0.295677
196,0.090266,-7.924984,-5.730022,15.989875,-7.124256,15.235240,-125.941284,-1.979362,86.871284,0.340524,-0.641340,-0.618050,0.301231
197,-0.455665,-8.112826,-5.821070,15.825404,-8.301239,19.291664,-125.407288,-1.362092,86.744339,0.340585,-0.642176,-0.614183,0.307231
198,-0.787359,-8.268477,-6.073996,14.969493,-8.509674,18.847624,-124.891594,-0.681138,86.607300,0.340247,-0.643288,-0.610060,0.313432
199,-1.141410,-8.527513,-6.303950,12.063272,-7.474981,14.988368,-124.440422,-0.065811,86.505630,0.339808,-0.644210,-0.606439,0.318993
200,-1.341848,-8.695955,-6.091253,10.400109,-6.213457,10.026511,-124.066223,0.407202,86.459541,0.339539,-0.644662,-0.603721,0.323488
201,-1.290500,-8.909245,-6.110069,6.433735,-4.210423,3.598893,-123.785538,0.692632,86.477020,0.339559,-0.644532,-0.602163,0.326615
202,-1.057350,-8.922552,-5.968315,-2.742255,-0.639816,-4.491186,-123.723129,0.725227,86.552551,0.339522,-0.644041,-0.602311,0.327349
203,-0.804531,-8.854726,-5.439459,-11.674406,2.494893,-9.941827,-123.962280,0.508272,86.660858,0.339019,-0.643575,-0.604255,0.325198
204,-0.545936,-8.425519,-4.772161,-15.970153,3.848229,-12.700928,-124.422363,0.136776,86.785530,0.338054,-0.643239,-0.607361,0.321054
205,-0.082405,-7.909191,-4.342715,-16.833485,5.753812,-14.820282,-124.969322,-0.331401,86.915062,0.337111,-0.642856,-0.610983,0.315899
206,0.158514,-7.335013,-3.902741,-11.810909,6.174463,-13.913173,-125.447899,-0.837257,87.028648,0.336807,-0.642244,-0.614389,0.310823
207,0.466916,-6.878088,-3.472356,0.996726,5.441574,-11.374922,-125.629784,-1.292745,87.115944,0.337975,-0.641034,-0.616664,0.307529
208,0.758598,-6.722303,-3.528642,16.614346,4.429255,-8.176001,-125.337685,-1.653634,87.170738,0.341375,-0.638853,-0.617207,0.307223
209,1.193103,-7.155539,-4.591978,24.737968,6.936005,-10.763077,-124.649330,-2.020919,87.196121,0.347078,-0.635595,-0.616538,0.308930
210,0.968553,-8.030252,-5.843742,26.811785,7.542227,-9.842959,-123.789993,-2.440610,87.189690,0.354055,-0.631774,-0.615374,0.311163
211,1.090176,-8.715543,-6.507762,24.196487,9.092222,-10.486174,-122.937843,-2.876084,87.144333,0.361138,-0.628059,-0.614055,0.313141
212,1.028885,-8.989400,-7.100143,13.627208,8.034237,-9.713627,-122.304344,-3.313556,87.085495,0.367034,-0.625033,-0.613266,0.313886
213,0.916016,-9.024689,-7.179351,-1.369764,6.549664,-6.831001,-122.096481,-3.676423,87.026924,0.370201,-0.623563,-0.613429,0.312769
214,0.692659,-8.720942,-6.492790,-13.046590,2.436667,0.769521,-122.332001,-3.841806,86.954262,0.369969,-0.624203,-0.614151,0.310341
215,0.835276,-8.188254,-5.754694,-20.020540,-0.497430,4.353368,-122.878319,-3.787345,86.881165,0.366904,-0.626519,-0.615069,0.307484
216,0.732316,-7.698536,-5.420417,-23.184553,-3.030421,6.624610,-123.595100,-3.602147,86.830116,0.362152,-0.629634,-0.616177,0.304520
217,0.849728,-7.726025,-5.174808,-20.146791,-1.818048,6.034101,-124.314186,-3.382077,86.779335,0.357181,-0.632822,-0.617180,0.301740
218,0.706642,-7.745298,-5.277978,-15.735380,-1.269781,3.597251,-124.909370,-3.220692,86.730423,0.353173,-0.635406,-0.618019,0.299300
219,0.453538,-7.762570,-5.410745,-10.949286,-1.818660,2.264665,-125.353325,-3.111199,86.716225,0.350172,-0.637164,-0.618792,0.297485
220,0.584590,-7.812061,-5.525139,-6.950081,-1.808141,0.384136,-125.652908,-3.040193,86.739845,0.348071,-0.638155,-0.619504,0.296344
221,0.602142,-7.817661,-5.744965,-6.394484,-1.617089,-0.563662,-125.877869,-3.009288,86.787964,0.346531,-0.638665,-0.620268,0.295450
222,0.400609,-7.817496,-5.888525,-7.710160,-2.009364,-0.347879,-126.115982,-2.986066,86.845863,0.344932,-0.639136,-0.621140,0.294467
223,0.447465,-7.774059,-5.828731,-8.234411,-2.125292,0.243201,-126.384644,-2.946722,86.902534,0.343080,-0.639748,-0.622038,0.293405
224,0.560484,-7.630708,-5.775077,-8.704676,-1.713718,0.075055,-126.669434,-2.904369,86.950874,0.341142,-0.640456,-0.622921,0.292245
225,0.450024,-7.509668,-5.670960,-8.757451,-1.928569,1.254228,-126.962234,-2.850252,86.986229,0.339128,-0.641286,-0.623718,0.291067
226,0.443505,-7.561551,-5.615527,-6.395064,-2.459470,2.528722,-127.215775,-2.755843,87.006592,0.337155,-0.642189,-0.624222,0.290288
227,0.469007,-7.524934,-5.675763,-4.321612,-2.980567,3.082200,-127.395111,-2.626508,87.022102,0.335423,-0.642993,-0.624416,0.290098
228,0.369609,-7.509592,-5.740865,-3.703518,-3.203764,2.327384,-127.530067,-2.492254,87.049133,0.333882,-0.643614,-0.624550,0.290211
229,0.423962,-7.626777,-5.788650,-2.737478,-3.264084,1.235248,-127.639519,-2.379460,87.098381,0.332541,-0.643976,-0.624802,0.290404
230,0.447057,-7.767632,-5.891534,-2.460849,-4.077466,1.535585,-127.728951,-2.268120,87.167046,0.331269,-0.644169,-0.625116,0.290753
231,0.381238,-7.833381,-5.961382,-2.740011,-5.131882,1.481345,-127.819107,-2.134357,87.257637,0.329817,-0.644304,-0.625496,0.291288
232,0.215547,-7.796294,-6.048103,-3.517405,-6.331070,1.819059,-127.927597,-1.973652,87.374748,0.328047,-0.644417,-0.626001,0.291950
233,0.227440,-7.668702,-6.058789,-4.656353,-6.585056,2.375105,-128.067978,-1.786042,87.501427,0.325926,-0.644639,-0.626569,0.292616
234,0.038877,-7.589057,-6.070590,-5.333412,-6.555720,5.701936,-128.237061,-1.544874,87.590500,0.323447,-0.645287,-0.626858,0.293320
235,-0.168678,-7.479795,-5.835414,-4.214807,-5.944729,9.540130,-128.396286,-1.216362,87.596497,0.320759,-0.646589,-0.626419,0.294338
236,-0.204934,-7.329948,-5.640967,-2.910480,-4.278123,12.200666,-128.513321,-0.826620,87.504616,0.318225,-0.648460,-0.625153,0.295663
237,-0.006462,-7.596123,-5.703142,-2.358221,-0.784776,11.773487,-128.599014,-0.461536,87.321602,0.316235,-0.650661,-0.623348,0.296770
238,0.070518,-8.254940,-6.083045,-3.484075,2.379958,11.838070,-128.694809,-0.170775,87.055077,0.314806,-0.653135,-0.621289,0.297174
239,0.098324,-8.651882,-6.408779,-8.201995,4.816717,9.529556,-128.889099,0.031649,86.738426,0.313421,-0.655907,-0.619430,0.296412
240,0.234178,-8.834709,-7.038164,-17.975882,7.022204,5.854726,-129.325684,0.106042,86.423470,0.311325,-0.658990,-0.618543,0.293621
241,0.244392,-8.906859,-7.539100,-28.295454,8.608121,3.573853,-130.097198,0.060241,86.122505,0.307888,-0.662583,-0.618891,0.288378
242,0.073336,-8.259915,-7.439237,-36.413181,8.540299,3.871789,-131.175613,-0.031960,85.824722,0.302871,-0.666838,-0.620090,0.281220
244,-0.042556,-7.073676,-7.038615,-41.620262,7.422713,5.116067,-132.475677,-0.097909,85.526680,0.296356,-0.671692,-0.621665,0.273011
245,-0.005488,-5.990366,-6.798982,-40.924603,6.290005,5.771286,-133.850693,-0.122001,85.236084,0.289078,-0.676727,-0.623242,0.264658
246,0.009447,-5.237844,-6.485713,-31.929825,5.366171,5.756703,-135.064194,-0.120942,84.963028,0.282504,-0.681242,-0.624386,0.257377
247,-0.012641,-4.463268,-6.247157,-20.618341,4.543635,5.633132,-135.939423,-0.105581,84.711945,0.277762,-0.684784,-0.624798,0.252084
248,0.144053,-4.076481,-6.099890,-5.572872,5.406024,4.106325,-136.375473,-0.112579,84.480049,0.275697,-0.687086,-0.624380,0.249106
249,0.261109,-4.102548,-6.086378,13.909452,6.394505,1.477184,-136.235977,-0.190259,84.276855,0.277397,-0.687685,-0.623044,0.248908
250,0.263718,-4.223251,-5.706948,34.908615,6.658990,-0.687082,-135.421570,-0.336822,84.115738,0.283426,-0.686242,-0.620653,0.252053
251,0.146331,-4.259932,-5.147331,55.902626,5.464926,-0.753263,-133.907242,-0.495588,83.988785,0.293609,-0.682754,-0.616912,0.258960
252,0.112417,-4.624564,-4.158374,83.478371,3.665782,0.156474,-131.583878,-0.605835,83.883499,0.308225,-0.676956,-0.611203,0.270477
253,0.106498,-5.297748,-3.554761,110.193405,1.201657,1.681904,-128.357056,-0.634085,83.801193,0.327517,-0.668370,-0.602945,0.287178
254,-0.052853,-6.459706,-2.673347,134.179718,-1.619890,2.937826,-124.288040,-0.567571,83.760582,0.350806,-0.656714,-0.591937,0.308661
255,-0.103516,-8.269948,-1.845448,149.669510,-4.061726,5.802022,-119.564629,-0.393586,83.763298,0.376689,-0.642201,-0.578165,0.333780
256,-0.034227,-10.932293,-1.428876,148.201050,-6.176219,6.315724,-114.610054,-0.136361,83.822075,0.402651,-0.625843,-0.562619,0.360073
257,-0.096962,-13.652578,-1.488622,125.734886,-9.053946,5.781100,-110.053459,0.146629,83.979469,0.425333,-0.609536,-0.547644,0.384245
258,-0.350523,-16.100794,-2.172930,80.092575,-11.944164,3.472713,-106.626877,0.403987,84.262138,0.441167,-0.596120,-0.536383,0.402872
259,-0.564951,-17.911911,-3.604407,11.092133,-14.121842,2.297771,-105.104980,0.616949,84.653061,0.446647,-0.589149,-0.532156,0.412577
260,-0.763911,-19.017069,-5.097741,-69.452324,-12.582991,0.530666,-106.072601,0.784178,85.068092,0.439383,-0.591544,-0.537113,0.410521
261,-1.263161,-17.906097,-5.099267,-137.013885,-7.512223,1.791101,-109.507782,0.925726,85.373787,0.419714,-0.603458,-0.550258,0.396099
262,-0.705686,-13.890464,-5.294213,-193.733810,2.577331,1.052189,-115.010658,1.003280,85.430801,0.389689,-0.622871,-0.568677,0.369839
263,-0.628226,-10.348071,-5.513876,-233.701706,12.444768,0.202681,-122.115974,0.905835,85.199089,0.351524,-0.646740,-0.589501,0.332636
264,-0.412910,-6.776928,-3.748479,-242.061676,21.682199,-2.592330,-130.014191,0.543783,84.761932,0.309194,-0.670853,-0.609451,0.287967
265,0.414669,-2.418412,-1.815469,-242.140518,35.682903,-15.500436,-138.042633,-0.330207,84.282333,0.267274,-0.691648,-0.627246,0.238221
266,0.883431,0.293135,-1.244275,-283.730591,56.658535,-35.651039,-146.751999,-2.059793,84.009415,0.224081,-0.708475,-0.644939,0.178620
267,0.272348,0.819443,-2.569945,-264.627960,27.878588,-18.292727,-155.832138,-3.718494,84.108116,0.176610,-0.721129,-0.659688,0.116595
268,0.742497,2.342177,-2.523031,-249.307663,29.758381,-22.109417,-164.365265,-4.839217,84.432579,0.128749,-0.729218,-0.669346,0.060336
269,0.960703,3.536166,-4.426396,-210.735031,22.814939,-19.585819,-172.034912,-5.834378,84.929543,0.085445,-0.732571,-0.675241,0.009377
270,0.132123,3.779290,-6.488007,-164.624878,7.209540,-14.679759,-178.319931,-6.378904,85.458427,0.048501,-0.732799,-0.678010,-0.030933
271,0.248232,4.841212,-7.766063,-130.718750,5.090941,-13.806748,176.717056,-6.576210,85.943069,0.018155,-0.731308,-0.679031,-0.061444
272,0.529489,5.237387,-7.936491,-106.186943,8.286475,-12.735369,172.721680,-6.757916,86.406647,-0.005918,-0.728756,-0.679294,-0.086253
273,0.515843,4.840977,-8.238878,-78.426392,7.399991,-10.801004,169.596893,-6.956394,86.835770,-0.024203,-0.725817,-0.679228,-0.106083
274,0.541942,4.983282,-7.859034,-66.534233,4.986199,-9.647078,167.136292,-7.090196,87.213516,-0.038580,-0.722934,-0.679037,-0.121606
275,0.875232,5.159811,-7.570097,-53.862293,5.951059,-9.517106,165.086273,-7.190471,87.570190,-0.050485,-0.720057,-0.678878,-0.134513
276,0.848645,4.633495,-8.262723,-32.724133,3.774857,-7.929047,163.602539,-7.268410,87.896179,-0.058925,-0.717451,-0.679024,-0.143941
277,0.786142,4.470862,-8.129841,-29.406637,-0.260453,-6.583799,162.535522,-7.254280,88.146683,-0.065360,-0.715380,-0.679238,-0.150314
278,0.512363,4.348742,-8.118979,-24.173819,-4.332929,-4.211325,161.624008,-7.125958,88.295731,-0.071622,-0.713881,-0.679127,-0.155020
279,0.661453,3.987519,-8.461514,-14.588965,-4.283993,1.980190,160.979370,-6.977837,88.285095,-0.076547,-0.713437,-0.678385,-0.157927
280,0.716370,3.722907,-8.844906,-10.114251,-3.530179,5.355700,160.586975,-6.894819,88.125603,-0.079714,-0.714060,-0.676965,-0.159632
281,0.945770,3.810666,-9.024233,-10.147093,-1.296580,6.357226,160.274826,-6.884267,87.913162,-0.082021,-0.715086,-0.675218,-0.161260
282,0.894238,3.655502,-8.783801,-10.739274,-1.410771,6.871646,159.953720,-6.916826,87.688797,-0.084149,-0.716195,-0.673315,-0.163186
283,0.959374,3.710566,-9.013028,-10.247537,-1.365684,5.834888,159.630051,-6.946551,87.472496,-0.086304,-0.717244,-0.671455,-0.165106
284,0.725882,3.872452,-9.075121,-11.793140,-2.843827,2.242589,159.281036,-6.928115,87.320709,-0.088820,-0.717853,-0.670027,-0.166920
285,0.830561,4.090620,-9.288104,-12.102790,-2.958052,0.842058,158.892715,-6.856234,87.237656,-0.091805,-0.717981,-0.669046,-0.168682
286,0.759220,4.300863,-9.216865,-16.498301,-4.434195,-0.711582,158.421600,-6.742308,87.190460,-0.095506,-0.717786,-0.668225,-0.170694
287,0.889855,4.297709,-8.955647,-18.009840,-3.090372,-1.143640,157.848572,-6.614456,87.172371,-0.099885,-0.717304,-0.667449,-0.173235
288,1.065182,4.353956,-8.727138,-17.295330,-1.223437,-2.325581,157.257187,-6.525972,87.198471,-0.104073,-0.716553,-0.666849,-0.176159
289,1.076292,4.431694,-8.640476,-16.509768,-0.920218,-3.387816,156.685394,-6.455924,87.272552,-0.107948,-0.715534,-0.666537,-0.179126
290,0.995428,4.372763,-8.354408,-15.611787,-1.565952,-3.754640,156.139633,-6.370368,87.365646,-0.111717,-0.714394,-0.666397,-0.181868
291,0.841519,4.237030,-8.286872,-11.394944,-2.135346,-3.901031,155.679428,-6.261983,87.457550,-0.115083,-0.713305,-0.666413,-0.183975
292,0.848444,4.517853,-8.729525,-8.565966,-2.478660,-4.278594,155.336746,-6.135512,87.550323,-0.117819,-0.712297,-0.666647,-0.185293
293,0.686431,4.601209,-8.783269,-9.155465,-3.919762,-3.692045,155.033340,-5.982991,87.626602,-0.120489,-0.711390,-0.666883,-0.186211
294,0.706235,4.632094,-8.679590,-8.094361,-3.731948,-2.456220,154.741867,-5.824005,87.665497,-0.123182,-0.710695,-0.666915,-0.186984
295,0.682975,4.621141,-8.599974,-7.772806,-3.647756,-1.913392,154.476105,-5.681643,87.678604,-0.125657,-0.710185,-0.666800,-0.187681
296,0.823743,4.648996,-8.579288,-7.294979,-2.346355,-1.237026,154.224579,-5.568849,87.682716,-0.127880,-0.709766,-0.666603,-0.188465
297,0.781538,4.494071,-8.431355,-4.886208,-1.495846,-1.760112,154.019913,-5.489431,87.699768,-0.129592,-0.709353,-0.666506,-0.189193
298,0.770656,4.410572,-8.408944,-1.312954,-0.038424,-2.299082,153.911850,-5.436777,87.749565,-0.130492,-0.708885,-0.666725,-0.189559
299,0.835394,4.227270,-8.250569,0.713205,1.114904,-2.722383,153.893951,-5.416095,87.832993,-0.130588,-0.708356,-0.667246,-0.189633
300,0.784943,4.222626,-7.939854,4.761961,2.170171,-4.752188,153.972321,-5.410547,87.969566,-0.129911,-0.707644,-0.668229,-0.189298
301,0.472984,3.501966,-7.314088,16.690605,2.502039,-5.884528,154.311539,-5.403328,88.163918,-0.127541,-0.706882,-0.669998,-0.187492
302,0.421947,2.827161,-6.364244,30.198566,3.759888,-4.142282,155.074463,-5.426380,88.360481,-0.122379,-0.706587,-0.672407,-0.183377
303,0.182976,1.965333,-5.467381,48.743042,2.304050,-2.410258,156.376541,-5.473858,88.502289,-0.113840,-0.707142,-0.675249,-0.176154
304,0.201322,1.014478,-4.878225,72.886238,3.091626,4.155564,158.402527,-5.568430,88.509895,-0.100739,-0.709079,-0.678167,-0.164770
305,0.255241,0.218829,-4.699096,92.971458,2.690341,12.112860,161.187424,-5.753286,88.288033,-0.082649,-0.712763,-0.680348,-0.149211
306,0.624901,0.017392,-4.758677,97.498360,5.527804,17.109224,164.403320,-6.029176,87.861549,-0.061435,-0.717482,-0.681282,-0.131532
307,0.606832,-0.249489,-5.269073,100.324638,2.722352,17.578352,167.754440,-6.302260,87.331757,-0.039301,-0.722213,-0.681234,-0.113069
308,1.052069,0.033715,-6.007926,90.880035,4.498169,18.325283,171.001801,-6.530743,86.762100,-0.017918,-0.726455,-0.680372,-0.095063
309,0.969705,-0.338469,-6.759282,91.235687,1.797392,13.278431,174.093552,-6.703434,86.251091,0.002375,-0.729701,-0.679325,-0.077774
310,0.375227,-0.251226,-7.144190,89.062698,-8.795129,8.107385,177.138718,-6.613368,85.883957,0.021037,-0.731578,-0.678857,-0.059192
311,0.299661,-0.229944,-7.426984,93.551552,-6.368727,5.957002,-179.792740,-6.365330,85.640076,0.039061,-0.732291,-0.678722,-0.039496
312,0.577654,-1.576687,-8.854586,112.848740,4.995208,12.311286,-176.321915,-6.331634,85.335617,0.060971,-0.732594,-0.677667,-0.018869
313,0.997718,-1.985563,-10.126107,93.857277,6.477304,9.911144,-172.837067,-6.488260,84.949638,0.084140,-0.732567,-0.675475,0.000457
314,1.102069,-1.466023,-10.397038,61.449154,9.214827,5.777137,-170.216522,-6.708271,84.651421,0.102189,-0.732015,-0.673431,0.014221
315,1.696784,-2.413766,-11.919720,55.665516,15.316681,6.400358,-168.232162,-7.071869,84.374878,0.117013,-0.731399,-0.671433,0.023256
316,2.007690,-2.326429,-13.130633,36.105545,10.148612,6.882951,-166.663910,-7.438315,84.065140,0.129203,-0.731143,-0.669218,0.029728
317,2.613688,-1.669782,-13.085260,5.833903,2.143230,-1.509365,-165.947235,-7.616493,83.928429,0.134834,-0.730916,-0.668220,0.032600
318,1.774287,-2.067621,-13.433113,17.293751,-3.354134,-2.813124,-165.571716,-7.614438,84.003967,0.137194,-0.730032,-0.668590,0.034894
319,1.680777,-1.885518,-13.871694,25.333244,-8.766699,-2.642346,-164.879669,-7.442285,84.144470,0.140566,-0.728575,-0.669180,0.040216
320,1.525359,-1.627634,-13.307549,21.130278,-11.901898,1.489107,-164.119385,-7.115509,84.255775,0.143481,-0.727373,-0.669434,0.046903
321,1.395160,-1.936274,-13.013117,19.077475,-15.330420,4.330289,-163.453186,-6.652772,84.289261,0.145042,-0.726898,-0.669093,0.053819
322,0.867332,-1.634327,-13.332365,17.495361,-19.914234,6.086133,-162.844040,-6.040373,84.293159,0.145394,-0.726845,-0.668428,0.061321
323,1.118319,-0.874656,-11.790285,9.608374,-17.606947,9.618417,-162.386002,-5.365434,84.229614,0.144469,-0.727447,-0.667301,0.068253
324,1.366719,-1.450929,-11.323031,19.754793,-18.187664,16.691507,-161.875839,-4.663291,83.994072,0.143839,-0.729008,-0.664956,0.075440
325,1.783854,-1.381156,-10.375708,38.558998,-14.500600,12.959956,-160.881485,-3.989338,83.699326,0.146528,-0.730253,-0.661821,0.085162
326,1.582575,-2.160512,-9.437382,78.285194,-13.198024,10.257263,-158.921280,-3.422442,83.495468,0.155954,-0.729533,-0.658402,0.099834
327,1.055487,-2.496088,-7.896502,98.451897,-12.935664,7.987808,-155.970993,-2.903096,83.383598,0.171869,-0.726635,-0.654283,0.119906
328,1.075116,-3.765158,-7.940544,117.826424,-12.750226,8.476173,-152.366776,-2.398234,83.324181,0.191883,-0.721981,-0.649094,0.143532
329,0.462705,-4.464304,-6.855141,131.413376,-12.178138,8.037187,-148.216629,-1.901819,83.291771,0.215195,-0.715588,-0.642435,0.170007
330,0.240406,-6.088856,-6.471706,133.119873,-11.252562,9.157677,-143.813919,-1.418687,83.273148,0.239906,-0.707810,-0.634376,0.197527
331,-0.003282,-6.319893,-6.846375,108.212296,-9.349420,6.543424,-139.798111,-0.988272,83.279839,0.262212,-0.699818,-0.626167,0.222293
332,0.062165,-6.793279,-6.276035,93.524803,-7.610727,9.229383,-136.439728,-0.602560,83.272957,0.280551,-0.692718,-0.618423,0.242871
333,-0.253371,-7.282396,-5.969844,83.638969,-7.743268,11.294119,-133.489014,-0.180850,83.211784,0.296190,-0.686565,-0.610520,0.261085
334,-0.062283,-7.645020,-6.023854,72.484657,-7.664437,8.198200,-130.888672,0.231703,83.183235,0.309587,-0.680810,-0.603150,0.277242
335,-0.470970,-7.333920,-6.223352,56.259041,-10.061712,6.996691,-128.743622,0.615547,83.248100,0.320102,-0.675512,-0.597147,0.290920
336,-0.473433,-7.266439,-5.441735,50.807087,-12.012161,9.213220,-126.958038,1.054958,83.372253,0.327973,-0.670920,-0.591972,0.303101
337,-0.521755,-7.717574,-5.533142,57.271980,-15.438525,10.092932,-125.153030,1.584292,83.552185,0.335259,-0.666130,-0.586551,0.315960
338,-0.561110,-8.115536,-5.719104,63.171188,-17.888081,7.348663,-123.136696,2.136651,83.848663,0.343223,-0.660105,-0.580854,0.330256
339,-0.623325,-8.747466,-5.424733,66.505516,-19.724873,6.839797,-120.959351,2.669876,84.255104,0.351739,-0.652898,-0.575031,0.345462
340,-0.509990,-9.131779,-4.913983,74.413155,-19.877386,8.496092,-118.588837,3.219394,84.701492,0.360951,-0.644836,-0.568392,0.361706
341,-0.255426,-10.180467,-5.041761,81.263588,-17.834084,6.333563,-115.968498,3.726437,85.147423,0.371551,-0.635733,-0.560641,0.378780
342,-0.209884,-10.573558,-4.671161,84.649269,-14.590166,-0.309348,-113.174469,4.041807,85.598618,0.383794,-0.625282,-0.552538,0.395506
343,-0.301369,-10.812175,-3.627508,88.902817,-11.077363,-4.274034,-110.253609,4.128793,86.026619,0.397638,-0.613548,-0.544241,0.411394
344,-0.423858,-10.742460,-3.946694,87.258400,-7.175443,-7.153211,-107.294807,4.045857,86.377579,0.412451,-0.601162,-0.535610,0.426158
345,-0.583477,-10.429127,-3.583029,76.892754,-3.302331,-12.669444,-104.543274,3.775638,86.637352,0.427084,-0.588951,-0.527655,0.438539
347,-0.842566,-10.108307,-2.870284,66.445648,-0.169075,-11.348469,-102.146416,3.399421,86.787674,0.440519,-0.577851,-0.520681,0.448244
348,-0.948096,-9.902596,-3.176706,53.967701,3.050585,-7.270312,-100.139740,3.085337,86.800690,0.451998,-0.568825,-0.514135,0.455851
349,-0.803240,-9.839960,-3.524765,35.296505,4.627033,-5.687893,-98.657249,2.850885,86.709396,0.460777,-0.562449,-0.508743,0.460994
350,-0.782117,-9.773365,-3.021801,20.401640,6.080273,-0.771733,-97.736977,2.718581,86.548126,0.466543,-0.558936,-0.504805,0.463789
351,-0.737847,-9.711791,-2.890035,8.253677,6.823143,6.734479,-97.270363,2.788706,86.321495,0.469414,-0.558293,-0.501507,0.465241
352,-0.659789,-10.106393,-3.015069,-1.926344,7.514085,11.642048,-97.179138,3.062240,86.045258,0.469729,-0.560169,-0.498605,0.465787
353,-0.423589,-10.367407,-2.499848,-10.940002,7.562260,12.535389,-97.410683,3.429811,85.744133,0.468133,-0.563818,-0.496472,0.465271
354,-0.315341,-10.141254,-2.019173,-12.774738,9.517626,14.901288,-97.827736,3.845103,85.400436,0.465559,-0.568560,-0.494655,0.464016
355,-0.219525,-10.401051,-2.323628,-15.099778,10.889684,14.141828,-98.321030,4.276581,84.994720,0.462752,-0.573902,-0.492742,0.462280
356,0.045548,-10.860158,-2.870974,-22.929127,12.261661,8.664431,-98.988770,4.594250,84.554642,0.459692,-0.579637,-0.491824,0.459144
357,0.225776,-10.874790,-2.757893,-31.632650,13.624236,1.589184,-99.934776,4.691658,84.099106,0.456245,-0.585724,-0.492851,0.453725
358,-0.071886,-10.734192,-3.350588,-38.520435,13.535674,-1.632597,-101.139854,4.607886,83.652252,0.452196,-0.592133,-0.495650,0.446351
359,-0.394318,-10.752637,-4.255825,-52.122856,11.609589,-5.427321,-102.680672,4.406007,83.265129,0.446622,-0.599161,-0.500441,0.437144
360,-0.025646,-10.895378,-4.611395,-69.385651,11.592619,-12.101401,-104.727760,4.029995,82.957764,0.438769,-0.607149,-0.508103,0.425067
361,-0.619307,-10.802405,-5.282134,-81.539513,11.704650,-14.984483,-107.258308,3.488690,82.708038,0.428737,-0.616060,-0.518204,0.410024
362,-0.972066,-10.438548,-6.341609,-93.817352,10.954088,-12.640596,-110.190819,2.931469,82.497993,0.416246,-0.626046,-0.529541,0.392926
363,-0.364438,-10.542016,-7.183741,-111.708199,12.088977,-13.855598,-113.622337,2.378880,82.307457,0.400642,-0.637461,-0.542055,0.373236
364,-0.057646,-10.754467,-7.603896,-121.112183,14.169959,-14.074416,-117.505417,1.770831,82.113983,0.382430,-0.649858,-0.555419,0.350630
365,-0.426576,-10.272294,-8.134695,-123.960403,14.790671,-9.645211,-121.590431,1.190183,81.889389,0.362595,-0.662610,-0.568167,0.326588
366,0.249800,-10.175999,-8.652858,-128.780533,15.147676,-7.686203,-125.801079,0.674739,81.635979,0.341313,-0.675449,-0.579858,0.301727
367,0.561865,-10.510626,-8.796441,-132.562363,16.354914,-12.504771,-130.151642,0.087816,81.430138,0.318966,-0.687581,-0.591302,0.275417
368,0.246399,-10.153037,-8.604531,-120.026276,15.114074,-16.383312,-134.354340,-0.620740,81.364578,0.297396,-0.697585,-0.602413,0.249057
369,0.092484,-9.629102,-8.534437,-106.537514,13.528420,-15.092072,-138.125778,-1.328353,81.412048,0.277932,-0.705264,-0.612216,0.224828
370,0.353921,-9.115152,-8.718033,-100.587418,13.715748,-15.671352,-141.576859,-2.005280,81.510979,0.260011,-0.711448,-0.620743,0.202269
371,0.492328,-8.190719,-8.390031,-85.731514,15.700347,-15.863336,-144.684372,-2.712238,81.636848,0.244234,-0.716235,-0.628125,0.181155
372,0.750743,-7.230792,-8.209719,-69.139351,15.089091,-12.718485,-147.269409,-3.403482,81.743454,0.231612,-0.719745,-0.633906,0.162748
373,0.608537,-6.554965,-8.187244,-61.351059,13.908217,-7.763980,-149.445602,-3.993404,81.780151,0.221070,-0.722800,-0.638034,0.146969
374,0.840617,-6.231715,-8.248135,-69.191368,9.702156,-7.320875,-151.622482,-4.458910,81.805763,0.209819,-0.725965,-0.641530,0.131870
375,0.786395,-6.044690,-7.759351,-73.728600,7.647264,-9.424412,-154.012909,-4.843640,81.923149,0.196629,-0.728929,-0.645372,0.116171
376,0.750258,-5.684576,-7.435009,-83.951653,3.142076,-10.467172,-156.659286,-5.145639,82.150429,0.181220,-0.731554,-0.649663,0.099634
377,0.465049,-4.916500,-7.224227,-100.575569,-0.321844,-12.268041,-159.763351,-5.330106,82.486916,0.162132,-0.734035,-0.654447,0.081276
378,0.581093,-4.421073,-7.074456,-115.114403,-2.670789,-11.116076,-163.391129,-5.406057,82.874535,0.139041,-0.736487,-0.659238,0.060496
379,0.562942,-3.493106,-6.271994,-122.745949,1.388350,-13.694751,-167.389450,-5.489020,83.282074,0.113605,-0.738455,-0.663615,0.037324
380,0.545646,-2.597017,-6.129795,-117.292099,1.128214,-15.443291,-171.430344,-5.619574,83.751961,0.088196,-0.739173,-0.667582,0.013415
381,0.402640,-2.068624,-5.543762,-107.347046,1.702094,-17.005527,-175.222275,-5.729845,84.285469,0.064375,-0.738508,-0.671104,-0.009095
382,0.233832,-1.387866,-5.390433,-93.720047,0.788534,-19.236355,-178.630341,-5.804393,84.888512,0.042976,-0.736527,-0.674405,-0.029304
383,0.005127,-1.008594,-4.774639,-81.834648,0.639068,-19.051720,178.381363,-5.827919,85.529556,0.024158,-0.733612,-0.677517,-0.046896
384,-0.061050,-0.513987,-5.015708,-62.763458,0.114865,-18.451189,175.909348,-5.809858,86.157288,0.008557,-0.730249,-0.680368,-0.061338
385,0.017302,-0.348159,-4.880554,-49.806431,0.495308,-17.501551,173.973419,-5.767924,86.758003,-0.003651,-0.726719,-0.683081,-0.072577
386,-0.095107,0.178939,-5.396079,-39.319450,-1.597528,-18.657000,172.428635,-5.678800,87.357048,-0.013556,-0.723021,-0.685893,-0.081289
387,0.087109,0.197326,-5.969781,-27.810474,-1.843111,-12.417546,171.260483,-5.549134,87.864220,-0.021320,-0.719786,-0.688322,-0.087560
388,0.704475,0.587063,-6.994243,-17.749598,2.572884,-12.252062,170.461823,-5.495763,88.274025,-0.026330,-0.717145,-0.690307,-0.092117
389,0.860400,0.713027,-7.844021,-8.955327,2.666075,-10.576872,169.979065,-5.517511,88.665382,-0.028893,-0.714673,-0.692340,-0.095259
390,0.967592,1.022168,-8.779703,-1.112546,2.345497,-6.752858,169.782303,-5.549189,88.965767,-0.029674,-0.712813,-0.694019,-0.096722
391,1.140367,0.966571,-9.153008,2.968234,2.107138,-0.158662,169.800858,-5.601933,89.092873,-0.029129,-0.712060,-0.694780,-0.096967
392,1.091799,0.696246,-8.760301,12.224289,2.274451,1.942125,170.055664,-5.679083,89.076271,-0.027087,-0.712241,-0.694826,-0.095893
393,0.737598,0.625566,-8.221771,24.638241,-0.401045,2.483411,170.676773,-5.722236,89.008415,-0.023017,-0.712797,-0.694879,-0.092378
394,0.619710,-0.011467,-7.415179,41.302425,-2.445597,3.954543,171.787033,-5.691685,88.894424,-0.016382,-0.713675,-0.695055,-0.085437
395,0.395112,-0.347440,-6.602670,53.799862,-5.289365,3.369913,173.385437,-5.579618,88.755981,-0.007201,-0.714669,-0.695390,-0.075031
396,0.445655,-0.719836,-6.079832,65.353806,-4.075865,2.321446,175.381378,-5.433451,88.645592,0.004296,-0.715365,-0.695982,-0.062004
397,0.435737,-0.986415,-6.095538,71.299866,-3.790732,0.181011,177.662735,-5.304919,88.596130,0.017732,-0.715460,-0.696822,-0.047343
398,0.596483,-1.105895,-6.248031,65.649323,-1.957629,1.904192,179.947556,-5.209537,88.559334,0.031401,-0.715215,-0.697425,-0.032856
399,0.498411,-0.650141,-6.381137,49.479149,-2.372612,-0.912848,-178.133011,-5.137449,88.544159,0.042935,-0.714709,-0.697795,-0.020725
400,0.790690,-0.751439,-6.827240,44.301281,2.077405,0.515515,-176.571014,-5.132468,88.550896,0.052644,-0.714018,-0.698055,-0.011178
401,0.686466,-0.814211,-7.135784,42.922394,3.690611,-5.447999,-175.124420,-5.234478,88.626732,0.062274,-0.712780,-0.698612,-0.002961
402,0.733888,-0.459505,-7.676927,38.662155,4.714230,-5.852993,-173.781067,-5.391465,88.801613,0.071571,-0.710836,-0.699693,0.004358
403,0.922182,-1.176512,-7.892358,46.965130,9.175111,-10.837117,-172.378189,-5.654660,89.051140,0.081839,-0.708196,-0.701163,0.011461
404,1.209009,-1.719066,-8.905941,63.633652,12.027239,-8.549740,-170.562698,-6.051649,89.319969,0.095409,-0.704839,-0.702628,0.020323
405,1.289994,-2.280690,-9.480970,63.326115,11.551284,-12.587231,-168.477753,-6.502645,89.596283,0.110876,-0.700862,-0.703964,0.030574
406,0.808437,-2.515318,-10.156503,62.517742,5.459976,-4.527622,-166.406387,-6.840613,89.814484,0.125493,-0.697036,-0.704752,0.041443
407,1.200540,-3.049221,-10.864892,57.607651,5.285380,-2.571944,-164.413361,-7.044595,89.883179,0.138797,-0.694080,-0.704436,0.052520
408,1.235830,-3.405189,-11.244088,61.108601,2.140784,4.229298,-162.427719,-7.155523,89.820900,0.151506,-0.691807,-0.703107,0.063953
409,1.628330,-3.450703,-11.371222,51.528740,1.612108,4.636823,-160.530914,-7.168653,89.658928,0.163121,-0.690177,-0.700986,0.075271
410,1.447105,-4.114059,-11.507925,56.933880,1.142448,10.540107,-158.691971,-7.123706,89.403839,0.174100,-0.689095,-0.698121,0.086399
411,2.081058,-3.907463,-11.523536,54.839256,2.426436,8.456418,-156.790359,-7.059444,89.085632,0.185403,-0.688146,-0.694627,0.097852
412,1.984839,-4.752529,-10.633641,71.196983,3.289571,9.124278,-154.652573,-7.025681,88.777420,0.198307,-0.686486,-0.690803,0.110467
413,1.796908,-4.642264,-10.746845,80.113960,-0.660695,8.987956,-152.096405,-6.929399,88.486046,0.213330,-0.683816,-0.686321,0.125896
414,1.420855,-5.772240,-10.044888,90.937714,-1.877339,11.167095,-149.214661,-6.727479,88.211647,0.229639,-0.680266,-0.681047,0.143799
415,1.218728,-5.447901,-9.891936,92.688866,-6.095059,12.049544,-146.126999,-6.408568,87.954002,0.246435,-0.676025,-0.674933,0.163482
416,1.031165,-6.465323,-9.204176,96.472687,-6.037231,16.184063,-142.948013,-5.970848,87.685875,0.263059,-0.671475,-0.667833,0.184174
417,0.865526,-6.979240,-9.687631,88.116653,-8.591957,20.525663,-139.841568,-5.399767,87.358139,0.278573,-0.667339,-0.659617,0.204843
418,0.626446,-6.924320,-9.363728,69.159119,-8.037502,23.372316,-137.189957,-4.708580,86.991058,0.290852,-0.664502,-0.651157,0.223244
419,0.594778,-6.727315,-9.415373,54.477871,-8.596509,24.800537,-135.100967,-3.953751,86.602028,0.299610,-0.663173,-0.643066,0.238540
420,0.759927,-6.956247,-9.148184,41.668873,-8.041512,25.180502,-133.475189,-3.164579,86.217232,0.305558,-0.663002,-0.635551,0.251274
421,1.127756,-7.122783,-9.018691,33.441303,-6.144673,19.474977,-132.207214,-2.458678,85.883469,0.309835,-0.663221,-0.629076,0.261542
422,1.035957,-6.675509,-8.659651,25.012596,-4.539945,12.896804,-131.224457,-1.937503,85.657326,0.313249,-0.663110,-0.624182,0.269366
423,0.906334,-7.418836,-8.045708,22.191267,-3.970119,6.916388,-130.434464,-1.594859,85.548813,0.316243,-0.662405,-0.620792,0.275368
424,0.852495,-7.437051,-7.702005,22.187559,-1.940717,2.050828,-129.694366,-1.416907,85.528221,0.319616,-0.660922,-0.618410,0.280351
425,0.815336,-6.943047,-6.944666,19.247612,0.183575,-1.880462,-129.004333,-1.396061,85.549347,0.323427,-0.658926,-0.616776,0.284251
426,0.534672,-6.678930,-6.243266,15.475589,1.212977,-0.212754,-128.425735,-1.437793,85.553215,0.326962,-0.657153,-0.615469,0.287131
427,0.340103,-6.942968,-5.140451,20.530981,3.139766,1.072651,-127.823982,-1.471388,85.487274,0.330753,-0.655691,-0.613667,0.289974
428,0.424020,-6.826787,-4.472580,31.132587,5.976816,3.941553,-126.958519,-1.497336,85.315750,0.336272,-0.654018,-0.610554,0.293948
429,0.164239,-7.091443,-3.633641,42.964611,4.819145,10.748869,-125.716331,-1.406848,85.025597,0.343630,-0.652120,-0.605424,0.300200
430,0.174413,-8.506942,-3.130312,61.816044,5.603892,11.701066,-123.962288,-1.199050,84.668777,0.353463,-0.649238,-0.598124,0.309519
431,-0.211003,-8.864391,-3.537383,76.808014,2.934281,13.282404,-121.646255,-0.925932,84.323921,0.366089,-0.644535,-0.588963,0.321989
432,-0.055485,-8.921762,-3.883643,76.980820,0.779139,13.261020,-119.080879,-0.575100,84.046906,0.379475,-0.638634,-0.578927,0.336139
433,-0.080764,-8.994385,-4.016485,69.109779,-1.408609,12.469907,-116.646141,-0.190942,83.855698,0.391636,-0.632564,-0.569299,0.349833
434,-0.057525,-8.914817,-4.052641,61.334549,-2.677521,9.428141,-114.473122,0.167811,83.759460,0.402106,-0.626628,-0.560776,0.362186
435,-0.143053,-8.460985,-3.941859,52.617558,-3.683942,9.189265,-112.574814,0.494829,83.732994,0.410929,-0.621061,-0.553372,0.373095
436,0.110122,-8.491009,-3.595932,44.540833,-3.435422,7.713950,-110.955917,0.800499,83.738503,0.418170,-0.616167,-0.546942,0.382527
437,-0.094355,-8.706007,-3.304874,43.911846,-4.066152,8.466503,-109.481613,1.096738,83.762619,0.424562,-0.611605,-0.540981,0.391184
438,-0.077285,-9.150199,-3.245446,46.800152,-4.855262,6.912732,-107.968773,1.387200,83.821045,0.431015,-0.606653,-0.534955,0.400028
439,-0.045025,-9.322675,-3.047316,48.527885,-5.166622,4.231531,-106.377579,1.614040,83.926003,0.437952,-0.600902,-0.529003,0.408987
440,-0.233851,-9.545235,-3.120476,48.835571,-6.641161,4.571334,-104.750740,1.808234,84.076561,0.444981,-0.594614,-0.523142,0.418029
441,-0.161846,-10.185922,-2.763278,49.562943,-7.561600,2.959774,-103.104530,1.987147,84.276070,0.451903,-0.587895,-0.517373,0.427185
442,-0.383847,-10.311959,-2.619879,50.156898,-7.680126,3.796995,-101.434845,2.151271,84.500633,0.458811,-0.580841,-0.511548,0.436389
443,-0.443732,-10.554280,-2.354211,47.281429,-6.669254,3.963921,-99.802979,2.322413,84.711861,0.465434,-0.573947,-0.505613,0.445321
444,-0.460724,-10.801287,-2.398047,42.280018,-5.086982,4.235301,-98.303383,2.488086,84.883934,0.471473,-0.567678,-0.499881,0.453403
445,-0.357452,-10.957124,-2.228552,33.197296,-3.497007,2.671672,-97.039986,2.621134,85.010384,0.476596,-0.562404,-0.494893,0.460043
446,-0.484079,-10.916729,-2.061517,25.370281,-1.103511,3.193817,-96.060936,2.726949,85.075539,0.480645,-0.558438,-0.490796,0.465024
447,-0.448442,-11.007533,-1.673967,18.031105,0.582247,2.420926,-95.337646,2.820788,85.074806,0.483744,-0.555758,-0.487431,0.468546
448,-0.400355,-10.967059,-1.980470,9.588577,2.835765,2.297392,-94.880501,2.893954,85.010986,0.485894,-0.554377,-0.484923,0.470555
450,-0.397445,-11.079042,-2.245623,-2.343886,4.580257,2.758014,-94.766411,2.967403,84.880524,0.486655,-0.554728,-0.483495,0.470824
451,-0.512674,-10.771508,-2.441958,-14.752602,5.499505,1.718039,-95.060448,3.027211,84.706459,0.485677,-0.556941,-0.483590,0.469123
452,-0.443616,-10.706389,-3.233521,-30.331295,6.158589,-1.014414,-95.822098,3.020322,84.511581,0.482787,-0.560957,-0.485774,0.465046
453,-0.132369,-10.631240,-3.662822,-48.759914,6.341890,-7.010750,-97.149994,2.863704,84.319305,0.477729,-0.566750,-0.490867,0.457842
454,-0.315923,-10.409527,-4.302079,-68.435127,4.906792,-11.319689,-99.109474,2.534523,84.176437,0.470026,-0.574246,-0.499324,0.447205
455,-0.202506,-10.464681,-4.682969,-85.469673,3.246516,-15.408716,-101.675560,2.071571,84.123047,0.459389,-0.583202,-0.510876,0.433409
456,-0.165022,-10.556989,-5.398220,-102.157127,3.896363,-15.883230,-104.800438,1.536545,84.126511,0.445815,-0.593630,-0.524675,0.416615
457,-0.106398,-10.493779,-5.863286,-120.122993,3.622040,-13.908648,-108.501137,1.025667,84.149208,0.428782,-0.605894,-0.539934,0.396875
458,-0.126879,-10.215427,-6.656610,-135.524551,4.268520,-10.871533,-112.756157,0.593691,84.172783,0.408031,-0.619897,-0.555987,0.374321
459,0.016799,-10.004925,-6.975632,-143.570114,5.830679,-6.695467,-117.400429,0.258488,84.145691,0.384341,-0.635044,-0.571681,0.349544
460,0.301433,-9.411528,-7.567736,-149.276917,7.999016,-3.512695,-122.272484,-0.002015,84.031761,0.358658,-0.650656,-0.586191,0.323096
461,0.561251,-9.215655,-8.254801,-147.159088,10.445709,-2.803800,-127.202866,-0.261846,83.840126,0.332193,-0.665807,-0.599181,0.295519
462,0.320380,-9.210638,-8.666360,-135.817902,9.753113,-2.764248,-131.908493,-0.546270,83.639687,0.306561,-0.679270,-0.610367,0.268447
463,0.355543,-9.231734,-8.886915,-114.485611,8.807357,-3.612530,-136.071259,-0.837049,83.491127,0.283570,-0.690116,-0.619518,0.243977
464,0.802127,-9.435411,-9.231892,-91.517242,10.085732,-8.109465,-139.499039,-1.201233,83.423927,0.264912,-0.697904,-0.626932,0.222953
465,0.316334,-9.442873,-9.322389,-67.084892,7.604316,-11.437928,-142.141693,-1.635802,83.488617,0.251007,-0.702618,-0.633192,0.205890
466,0.347493,-9.268184,-9.053752,-49.482601,4.456611,-13.579928,-144.090225,-2.047590,83.700722,0.240930,-0.704825,-0.638697,0.192978
467,0.649776,-8.873977,-8.824450,-38.394981,7.276413,-15.187601,-145.565369,-2.484293,83.979820,0.233804,-0.705497,-0.643640,0.182585
468,0.541495,-8.506928,-8.645071,-38.052238,8.634502,-12.429281,-146.850494,-2.960793,84.214378,0.228169,-0.705886,-0.647912,0.172842
469,0.456586,-7.462478,-8.284889,-49.268543,5.722447,-9.441578,-148.315613,-3.357841,84.394058,0.221086,-0.707022,-0.651818,0.162402
470,0.619598,-6.915695,-8.142460,-65.447205,2.459841,-3.964012,-150.234558,-3.588885,84.517403,0.210351,-0.709529,-0.655554,0.150237
471,0.538256,-6.471069,-7.791297,-79.246162,1.760771,-0.971402,-152.647736,-3.689331,84.557098,0.195884,-0.713413,-0.658954,0.135833
472,0.382337,-5.480319,-7.630023,-102.916595,-2.311217,-0.405228,-155.683670,-3.690591,84.582207,0.176898,-0.718205,-0.662480,0.118360
473,0.248085,-4.531498,-7.330523,-130.916092,-6.676985,-1.048145,-159.582306,-3.561590,84.662552,0.151557,-0.723499,-0.666506,0.096687
474,-0.111764,-3.961745,-6.829379,-136.656891,-9.538370,0.397275,-164.041183,-3.309038,84.758080,0.121775,-0.728543,-0.670189,0.072406
475,0.509494,-3.261672,-6.164568,-128.729340,0.845054,-5.133447,-168.463272,-3.187080,84.870087,0.092819,-0.732136,-0.673140,0.047371
476,0.334663,-2.301279,-5.829682,-121.759247,1.940331,-9.015173,-172.644226,-3.272681,85.091537,0.066509,-0.733682,-0.675861,0.022363
477,0.176819,-1.791338,-5.414628,-104.576035,1.580531,-8.510287,-176.427826,-3.360089,85.376297,0.042769,-0.733762,-0.678059,-0.000417
478,0.356995,-1.478760,-5.123485,-75.742569,5.793362,-11.029179,-179.449188,-3.494725,85.697609,0.024259,-0.732702,-0.679849,-0.019088
479,0.233617,-1.053571,-4.926320,-56.824696,6.374597,-16.452190,178.313843,-3.694091,86.157074,0.011270,-0.730284,-0.682225,-0.033584
480,-0.611493,-0.453863,-4.813030,-49.847172,-7.043337,-18.439009,176.499420,-3.658160,86.738159,-0.000284,-0.726905,-0.685317,-0.044155
481,-0.490519,-0.167415,-5.008765,-42.982620,-7.060891,-14.659285,174.920349,-3.382983,87.273300,-0.011708,-0.723607,-0.688158,-0.051909
482,-0.292227,0.059298,-5.187051,-33.335686,-5.499115,-14.322807,173.622559,-3.126363,87.733772,-0.021213,-0.720619,-0.690561,-0.058170
483,-0.109381,0.476104,-5.975924,-25.213133,-4.841968,-11.864821,172.625092,-2.903332,88.147018,-0.028606,-0.717864,-0.692747,-0.062884
484,0.154452,0.689684,-7.060495,-19.158407,-4.042890,-6.067593,171.872070,-2.716386,88.423561,-0.034296,-0.715936,-0.694160,-0.066351
485,0.491394,0.519515,-8.184658,-9.021763,-2.245459,-3.663700,171.395737,-2.588921,88.568916,-0.037960,-0.714866,-0.694863,-0.068491
486,0.472334,0.786108,-9.050230,0.958456,-3.212127,-5.694888,171.255142,-2.475513,88.709557,-0.039443,-0.713929,-0.695724,-0.068687
487,0.504284,0.701565,-9.771865,7.976974,-3.500704,-4.985968,171.397369,-2.338187,88.868889,-0.039300,-0.712964,-0.696883,-0.067025
488,0.315181,0.725965,-9.962734,13.552423,-4.785038,-6.252957,171.749695,-2.174224,89.034126,-0.038016,-0.712023,-0.698206,-0.063919
489,0.344430,0.742324,-9.560969,16.828835,-3.666016,-5.846145,172.249466,-2.006721,89.214363,-0.035840,-0.711032,-0.699687,-0.059892
490,0.395179,0.856965,-9.312322,17.370399,-2.482145,-2.791872,172.815033,-1.886466,89.343956,-0.033003,-0.710375,-0.700837,-0.055730
491,0.404449,0.655439,-8.992955,17.988089,-1.582774,2.180817,173.404266,-1.818113,89.346001,-0.029768,-0.710506,-0.701158,-0.051703
492,0.348087,0.651337,-8.671624,18.092659,-1.666683,4.775088,174.009415,-1.777199,89.224831,-0.026317,-0.711385,-0.700687,-0.047719
493,0.394599,0.489142,-8.389030,21.324581,-0.939475,5.202275,174.671585,-1.750487,89.055000,-0.022434,-0.712558,-0.699906,-0.043470
494,0.373107,0.432915,-8.483641,25.894295,-1.217863,4.686423,175.463623,-1.728814,88.887680,-0.017697,-0.713715,-0.699155,-0.038471
495,0.353921,0.214636,-8.101488,28.737968,-0.510039,2.629052,176.377808,-1.708680,88.763954,-0.012161,-0.714586,-0.698675,-0.032754
496,0.301144,0.070215,-7.936900,35.597839,0.254144,-0.424154,177.451096,-1.706235,88.727074,-0.005491,-0.714893,-0.698721,-0.026192
497,0.339515,0.174459,-7.743884,38.980469,2.012425,-1.860067,178.692749,-1.742447,88.766457,0.002483,-0.714670,-0.699204,-0.018844
498,0.261309,-0.061576,-7.545682,41.267132,2.658952,-1.684693,-179.971848,-1.819506,88.826569,0.011287,-0.714218,-0.699744,-0.011170
499,0.188730,-0.440137,-7.323066,45.843792,2.770577,-1.460154,-178.521896,-1.910690,88.877838,0.020881,-0.713688,-0.700146,-0.002874
500,0.115961,-0.488907,-7.324876,49.624001,1.817789,-0.729619,-176.932205,-1.988573,88.911278,0.031253,-0.713104,-0.700332,0.006363
501,0.107430,-0.772820,-7.157352,51.451855,1.803591,-1.858606,-175.249344,-2.051800,88.950081,0.042102,-0.712309,-0.700414,0.016267
502,0.060236,-1.185079,-7.521767,56.460167,0.625790,-0.291123,-173.452393,-2.095472,88.981750,0.053525,-0.711347,-0.700280,0.026991
503,0.155074,-1.699115,-7.731294,57.020676,1.326891,2.276515,-171.560196,-2.123608,88.944496,0.065447,-0.710578,-0.699518,0.038354
504,0.199548,-1.781918,-8.015040,60.068867,2.299323,3.649958,-169.605286,-2.167415,88.837151,0.077872,-0.709983,-0.698116,0.049937
505,0.435304,-2.266060,-8.634800,58.126629,4.766332,3.105400,-167.630829,-2.260804,88.703583,0.090731,-0.709275,-0.696378,0.061272
506,0.556782,-2.549067,-8.916563,61.000813,6.396732,2.916515,-165.640244,-2.418587,88.563232,0.104078,-0.708303,-0.694445,0.072252
507,0.776069,-2.842225,-9.033849,60.350628,9.106842,0.769235,-163.612747,-2.651371,88.435631,0.118085,-0.706889,-0.692447,0.082952
508,1.066242,-2.946810,-9.275491,64.557899,12.536894,-1.782326,-161.527084,-3.000285,88.344093,0.133092,-0.704780,-0.690559,0.093273
509,1.400988,-3.420176,-9.247105,59.355736,16.069408,-7.857830,-159.462173,-3.502916,88.336876,0.148766,-0.701679,-0.689197,0.102582
510,1.162147,-3.653767,-9.025554,65.337677,16.485317,-10.014164,-157.389740,-4.116110,88.415520,0.164984,-0.697546,-0.688339,0.111356
511,1.439814,-4.034073,-9.200382,63.832348,16.186092,-8.929810,-155.243134,-4.741067,88.486038,0.181626,-0.692948,-0.687252,0.120495
512,1.589990,-4.811127,-8.903266,72.266266,17.880066,-11.477411,-152.980927,-5.400168,88.544289,0.199059,-0.687765,-0.685879,0.130095
513,1.461358,-5.393944,-9.016308,81.191299,14.631841,-8.547266,-150.428207,-6.034887,88.581505,0.217967,-0.681762,-0.683857,0.141532
514,1.418659,-5.780450,-8.830607,96.394768,10.227515,-5.002720,-147.467957,-6.506124,88.559937,0.238241,-0.675075,-0.680518,0.156239
515,1.168723,-6.403633,-8.519660,101.358238,5.064891,0.313023,-144.165451,-6.760648,88.479202,0.259163,-0.667842,-0.675666,0.174063
516,0.899874,-7.650564,-8.300026,109.690269,3.078888,7.535915,-140.628998,-6.788501,88.289757,0.280124,-0.660567,-0.668931,0.194199
517,0.944313,-7.946164,-7.914851,109.388687,-0.197433,15.073827,-136.944580,-6.577491,87.971245,0.300653,-0.653599,-0.660114,0.216022
518,0.854304,-8.485644,-7.723265,101.060043,-1.571240,15.882272,-133.402252,-6.194126,87.622345,0.319358,-0.647018,-0.650323,0.237609
519,0.957848,-8.583646,-7.639819,83.652824,-0.172343,18.532705,-130.288925,-5.747960,87.259087,0.335251,-0.641402,-0.640546,0.256731
520,1.266734,-9.094797,-7.652544,71.596199,0.699379,18.090858,-127.665443,-5.280376,86.865974,0.348323,-0.637096,-0.631140,0.272841
521,1.593577,-8.558270,-7.121631,62.912186,2.123141,14.236615,-125.392891,-4.876067,86.505974,0.359689,-0.633234,-0.622540,0.286499
522,1.207497,-8.469107,-7.248021,56.496269,0.845495,10.281993,-123.381081,-4.566972,86.233940,0.369872,-0.629231,-0.615059,0.298271
523,1.283447,-8.431265,-6.881368,49.177414,1.473462,7.733059,-121.605362,-4.334233,86.039764,0.378919,-0.625183,-0.608629,0.308443
524,0.938858,-9.232116,-6.267093,51.813580,-0.127154,11.226908,-119.909286,-4.074229,85.858643,0.387325,-0.621286,-0.602235,0.318269
525,0.751879,-9.104445,-5.680442,59.919273,0.339121,9.432229,-118.035896,-3.774812,85.687988,0.396429,-0.616730,-0.595102,0.329152
526,0.329750,-9.228710,-5.602978,59.820564,-0.184028,10.290625,-116.031273,-3.483142,85.536469,0.406172,-0.611445,-0.587504,0.340586
527,0.559896,-9.631683,-4.880994,58.733845,1.433377,12.864368,-114.045486,-3.142419,85.353897,0.415609,-0.606390,-0.579410,0.351916
528,0.391855,-9.590349,-4.378029,62.763180,1.519602,13.383944,-112.009995,-2.759577,85.136978,0.425161,-0.601312,-0.570606,0.363416
529,0.394866,-9.453313,-4.158498,59.353500,1.849506,10.823136,-109.966576,-2.403130,84.939964,0.434767,-0.595851,-0.561736,0.374689
530,0.665571,-9.723435,-3.726619,52.117310,2.560415,9.923391,-108.102165,-2.100313,84.757935,0.443593,-0.590657,-0.553512,0.384673
531,0.436155,-10.102924,-3.406347,45.433437,0.650527,9.372517,-106.471725,-1.809381,84.611214,0.451105,-0.586036,-0.546134,0.393451
532,0.266323,-9.685163,-3.026482,42.603428,-0.319214,6.294129,-105.002548,-1.559450,84.534927,0.457698,-0.581476,-0.539693,0.401409
533,0.166902,-9.689728,-2.771244,39.600368,-0.950311,8.097339,-103.631783,-1.321687,84.496368,0.463674,-0.577017,-0.533724,0.408898
534,0.016760,-9.935804,-2.749896,35.494133,-1.720625,9.470897,-102.379929,-1.026412,84.473595,0.468695,-0.573123,-0.527929,0.416108
535,-0.148806,-9.659729,-2.693413,30.835175,-2.978150,10.755040,-101.274704,-0.680426,84.480927,0.472615,-0.569842,-0.522522,0.422949
536,0.276850,-9.120035,-2.484023,27.223799,-2.847742,6.228294,-100.307571,-0.384145,84.523079,0.475921,-0.566763,-0.517922,0.428993
537,0.152056,-9.534426,-2.604497,21.341370,-3.153370,7.683027,-99.498505,-0.138504,84.581955,0.478590,-0.564059,-0.514148,0.434098
538,0.164318,-9.789362,-2.444376,18.256233,-2.852479,4.238033,-98.838600,0.073609,84.648926,0.480628,-0.561806,-0.511077,0.438373
539,0.227490,-9.395376,-2.209049,16.456062,-1.633724,0.115376,-98.259987,0.156495,84.712196,0.482846,-0.559409,-0.508816,0.441619
540,0.120566,-9.771633,-2.334349,12.993617,-1.109740,-1.124001,-97.769058,0.146202,84.759987,0.485099,-0.557084,-0.507195,0.443947
541,-0.049855,-10.306523,-2.097841,11.075431,-0.551487,0.019493,-97.367844,0.131601,84.789902,0.486995,-0.555194,-0.505845,0.445777
542,-0.217788,-10.216998,-1.864430,9.264457,-0.459372,0.250664,-97.028809,0.138165,84.806023,0.488543,-0.553705,-0.504574,0.447372
543,-0.152725,-10.255788,-1.661197,6.320494,-1.558961,2.302092,-96.768982,0.184441,84.834297,0.489483,-0.552652,-0.503496,0.448858
544,-0.197639,-10.750142,-1.294652,6.731834,-1.998389,4.324520,-96.551254,0.301037,84.880333,0.489838,-0.551975,-0.502363,0.450570
545,-0.222671,-10.764248,-0.991889,8.349199,-1.312262,6.562013,-96.299652,0.487514,84.914825,0.490092,-0.551477,-0.500735,0.452712
546,-0.289752,-10.845143,-1.246816,6.586110,-0.245827,9.408438,-96.050758,0.754915,84.911995,0.490122,-0.551470,-0.498579,0.455061
547,-0.092010,-11.129380,-1.631427,-0.169119,2.086132,9.304844,-95.944786,1.061865,84.848816,0.489530,-0.552489,-0.496520,0.456710
548,-0.049487,-11.285994,-1.693433,-8.185402,5.095187,8.387351,-96.087120,1.342518,84.698700,0.488201,-0.554837,-0.495139,0.456787
549,0.052771,-10.904099,-2.359570,-21.600916,6.428009,4.449394,-96.588860,1.533889,84.483971,0.485770,-0.558635,-0.495256,0.454617
550,0.114358,-10.897411,-3.029908,-37.297955,6.482379,0.889834,-97.576530,1.595477,84.259056,0.481545,-0.564013,-0.497784,0.449683
551,0.179184,-10.685464,-3.241310,-52.110214,7.433283,-5.081034,-99.072350,1.492502,84.039330,0.475454,-0.570832,-0.502957,0.441734
553,0.225523,-10.359728,-3.727335,-68.625534,6.816037,-9.019047,-101.088600,1.219390,83.846100,0.467309,-0.578973,-0.510815,0.430674
554,0.394738,-9.991572,-4.512486,-87.617477,5.866575,-13.247085,-103.693733,0.811351,83.719131,0.456374,-0.588573,-0.521474,0.416376
555,0.264057,-9.998191,-5.195800,-103.990967,5.408047,-12.839329,-106.885628,0.342266,83.652428,0.442240,-0.599752,-0.534347,0.398992
556,0.154481,-9.574591,-5.808880,-120.739723,5.301929,-11.649383,-110.627586,-0.101200,83.615387,0.424670,-0.612582,-0.548534,0.378827
557,0.041828,-9.344049,-6.512183,-136.453049,4.413879,-6.545363,-114.908424,-0.442828,83.584320,0.403263,-0.627094,-0.563321,0.356090
558,0.046118,-8.982831,-7.018816,-145.454819,3.818642,-3.097915,-119.598778,-0.647634,83.537956,0.378425,-0.642700,-0.577826,0.331434
559,0.026948,-8.675025,-7.679030,-143.057571,2.898388,0.608539,-124.397484,-0.741441,83.466370,0.351859,-0.658091,-0.591065,0.306192
560,0.305661,-8.426223,-8.168613,-128.532944,2.776100,3.778965,-128.914108,-0.738671,83.348267,0.325931,-0.672072,-0.601972,0.282343
561,0.790588,-8.748727,-8.298965,-105.983452,5.450375,1.049496,-132.814651,-0.766696,83.192970,0.303373,-0.683537,-0.610378,0.261115
562,0.541854,-8.947953,-8.687778,-81.073112,2.674480,2.241079,-135.926895,-0.821843,83.056808,0.285284,-0.692134,-0.616555,0.243770
563,0.680652,-9.415312,-8.950360,-57.015808,0.369078,2.203112,-138.225586,-0.808554,82.968613,0.271450,-0.698223,-0.620753,0.231226
564,0.813777,-9.650743,-8.743747,-39.011139,0.050775,-4.272030,-139.825790,-0.836542,82.990356,0.261782,-0.701770,-0.624116,0.222413
565,0.371511,-9.617816,-8.244292,-34.192505,-3.083921,-8.684097,-141.048721,-0.935719,83.188545,0.254445,-0.703243,-0.627883,0.215567
566,-0.108969,-8.938313,-8.388473,-39.508640,-10.193212,-3.633396,-142.281647,-0.890032,83.486771,0.246069,-0.704386,-0.631907,0.209723
567,0.569521,-7.938640,-8.165324,-48.425236,-6.765846,-10.374688,-143.752090,-0.804618,83.844040,0.235909,-0.705662,-0.636580,0.202864
568,0.204161,-7.409678,-7.623335,-56.419006,-6.354584,-12.574736,-145.505630,-0.847849,84.281662,0.224585,-0.706665,-0.642394,0.193690
569,-0.590356,-6.499754,-7.489727,-67.569077,-14.652102,-9.082873,-147.578430,-0.754741,84.775520,0.210455,-0.707979,-0.648685,0.183527
570,-0.146346,-5.495144,-7.808767,-84.924973,-14.148607,-12.729961,-150.124893,-0.531900,85.335930,0.192571,-0.709628,-0.655718,0.171401
571,-0.024157,-5.019072,-7.343003,-89.735672,-10.088830,-15.590123,-153.039154,-0.401193,85.942146,0.172888,-0.710979,-0.663443,0.156405
572,-0.445587,-4.860573,-7.104833,-89.987946,-13.293223,-11.992030,-156.035843,-0.247078,86.523148,0.152630,-0.712058,-0.670723,0.140742
573,-0.239717,-3.796452,-7.145875,-101.462280,-11.787662,-12.832066,-159.225235,-0.017738,87.065269,0.130821,-0.713081,-0.677500,0.124076
574,0.280139,-2.948145,-7.168667,-110.996986,-2.347894,-10.776079,-162.762756,0.077121,87.512878,0.107779,-0.714200,-0.683712,0.104121
575,0.039168,-2.485362,-6.847436,-109.219795,0.096221,-4.913169,-166.429001,0.045331,87.772308,0.084883,-0.715703,-0.688338,0.082190
576,0.041494,-1.839534,-6.664170,-112.875519,0.693681,-4.021647,-170.126450,0.003828,87.914894,0.061925,-0.717187,-0.691547,0.059758
577,0.244843,-0.928893,-6.542102,-112.387978,4.161996,-4.634117,-173.876648,-0.095977,88.046181,0.038987,-0.718002,-0.693988,0.036516
578,0.338141,-0.330354,-6.532285,-109.377274,6.523729,-3.126014,-177.568878,-0.283089,88.160767,0.016957,-0.718164,-0.695546,0.012983
579,0.219409,-0.137328,-6.176274,-106.565773,7.166162,-2.823911,178.835342,-0.511679,88.256607,-0.004186,-0.717770,-0.696192,-0.010281
580,0.015040,0.284391,-6.055523,-100.608177,5.226712,-2.402207,175.384995,-0.713288,88.353676,-0.024541,-0.716772,-0.696117,-0.032518
581,0.189719,0.950364,-6.078489,-97.310127,8.369551,-3.369450,172.087769,-0.927716,88.474297,-0.043794,-0.715118,-0.695544,-0.053916
582,0.165060,1.161345,-6.148115,-91.640045,9.749892,-4.662078,168.937988,-1.203621,88.655205,-0.061640,-0.712694,-0.694744,-0.074825
583,-0.016852,1.453751,-6.480466,-75.089851,8.387828,-7.911216,166.155075,-1.453840,88.924507,-0.077192,-0.709523,-0.694186,-0.093403
584,0.163068,1.685775,-6.952041,-52.708515,9.882625,-10.112411,164.016327,-1.671553,89.293228,-0.088754,-0.705895,-0.694390,-0.107969
585,0.425989,1.941766,-7.587615,-30.696932,14.077132,-13.808572,162.611053,-1.940513,89.789444,-0.095257,-0.701971,-0.695782,-0.118536
586,0.118002,1.981025,-8.333300,-8.171027,11.373244,-17.138636,161.940994,-2.188785,90.409477,-0.097172,-0.697844,-0.698595,-0.124641
587,0.024796,2.122687,-9.034475,5.457418,8.503239,-16.881172,161.870682,-2.328703,91.051559,-0.096035,-0.693980,-0.702266,-0.126457
588,-0.060936,2.039616,-9.384571,15.024861,6.534948,-16.481611,162.187149,-2.396180,91.658165,-0.093039,-0.690571,-0.706205,-0.125417
589,-0.085551,2.055792,-9.722221,21.262606,3.509321,-14.409502,162.769333,-2.401257,92.199905,-0.088921,-0.687690,-0.710087,-0.122280
590,-0.138671,2.009423,-9.717172,19.166525,-0.217727,-11.639967,163.425400,-2.327890,92.631485,-0.084996,-0.685448,-0.713436,-0.118096
591,-0.002461,2.006734,-9.691196,18.473101,-0.974125,-8.477070,164.040253,-2.215022,92.947853,-0.081710,-0.683834,-0.716058,-0.113820
592,-0.009106,2.023288,-9.550488,19.006720,-1.285899,-5.777109,164.656662,-2.114795,93.166595,-0.078452,-0.682821,-0.718057,-0.109522
593,0.216928,1.953748,-9.425843,18.337629,-0.240308,-1.328486,165.275131,-2.059644,93.274475,-0.075014,-0.682519,-0.719329,-0.105388
594,0.120374,2.059267,-9.417117,17.335052,-0.373187,-0.003642,165.868973,-2.044388,93.293533,-0.071555,-0.682768,-0.719992,-0.101580
595,0.233185,1.783885,-9.243194,19.068357,0.075644,2.608682,166.477234,-2.050005,93.250175,-0.067931,-0.683415,-0.720258,-0.097765
596,0.217468,2.020839,-9.250177,15.345736,-0.607077,3.891124,167.054642,-2.066284,93.142670,-0.064472,-0.684434,-0.720087,-0.094171
597,0.220395,1.820063,-8.804279,3.247401,-1.040243,6.786118,167.371017,-2.078983,92.962921,-0.062647,-0.685746,-0.719260,-0.092160
598,0.114798,1.787216,-8.413762,-1.420873,-2.318864,8.338218,167.410828,-2.079599,92.704552,-0.062612,-0.687388,-0.717743,-0.091772
599,0.114324,1.624596,-8.011637,-3.173956,-2.341365,9.899392,167.345596,-2.070317,92.390747,-0.063314,-0.689310,-0.715813,-0.091952
600,0.023702,1.604107,-7.777892,-2.258901,-2.453721,10.880715,167.267899,-2.068485,92.035095,-0.064079,-0.691484,-0.713609,-0.092228
601,0.261903,1.030363,-7.286849,6.861825,-0.217096,12.257290,167.358704,-2.109721,91.648857,-0.063583,-0.693960,-0.711315,-0.091697
602,0.088356,1.161653,-7.361400,20.518061,-2.026633,9.900616,167.828812,-2.152287,91.279884,-0.060756,-0.696526,-0.709414,-0.088840
603,0.163069,0.844671,-7.292185,33.656403,-0.934437,8.750002,168.743484,-2.166641,90.965172,-0.055334,-0.698943,-0.708173,-0.083110
604,0.166467,0.666633,-7.568382,47.500481,-1.438112,9.128852,170.107376,-2.182063,90.664864,-0.047111,-0.701415,-0.707266,-0.074646
605,0.311616,0.529882,-7.566031,55.790775,-1.262162,8.585817,171.839935,-2.183678,90.366020,-0.036658,-0.703892,-0.706480,-0.063859
606,0.104686,0.449423,-7.944000,61.155193,-3.519813,9.375581,173.800079,-2.141780,90.058945,-0.025010,-0.706300,-0.705598,-0.051441
607,0.310161,0.066443,-7.934920,71.588135,-1.364727,7.675695,176.022385,-2.085946,89.768303,-0.011748,-0.708437,-0.704686,-0.037375
608,0.254416,-0.076700,-8.370973,76.986382,-2.608693,10.346532,178.508423,-2.033644,89.465477,0.003243,-0.710388,-0.703466,-0.021765
609,0.459057,-0.567434,-8.458782,78.689346,-0.112204,8.659899,-178.887253,-1.989743,89.148376,0.019101,-0.712083,-0.701813,-0.005554
610,0.353949,-1.279236,-8.845119,90.142799,-0.458515,8.092067,-176.065369,-1.967623,88.870369,0.036523,-0.713104,-0.700007,0.011778
611,0.519594,-1.488210,-9.196626,89.633560,1.670835,7.832347,-173.062088,-1.962257,88.604286,0.055235,-0.713527,-0.697802,0.030023
612,0.547612,-2.356843,-9.353155,89.196045,2.960433,7.229377,-170.074799,-2.001794,88.345177,0.074163,-0.713393,-0.695188,0.047788
613,0.787529,-2.852121,-9.404524,90.171104,4.862262,5.579520,-167.079147,-2.087185,88.110451,0.093433,-0.712563,-0.692294,0.065220
614,0.730547,-3.238717,-9.208961,87.920944,5.061665,2.744022,-164.106537,-2.212504,87.935463,0.112761,-0.710833,-0.689379,0.082202
615,0.739023,-3.523870,-9.218264,80.624138,6.158271,2.055385,-161.294144,-2.366603,87.803719,0.131202,-0.708471,-0.686479,0.097986
616,0.856457,-4.109892,-8.941467,80.493813,7.486018,-0.176537,-158.605881,-2.569372,87.696663,0.149090,-0.705583,-0.683543,0.112666
617,0.713992,-4.241971,-8.932778,74.195915,5.680223,2.591762,-156.023560,-2.755879,87.575249,0.166182,-0.702504,-0.680305,0.126710
618,0.838954,-4.925017,-9.060145,71.768684,6.277229,0.720272,-153.585449,-2.913008,87.439934,0.182174,-0.699369,-0.676834,0.139971
619,0.943418,-4.904866,-9.229290,67.264961,7.846470,-0.039385,-151.263046,-3.116077,87.321075,0.197645,-0.695896,-0.673423,0.152206
620,1.214270,-5.501800,-9.289863,58.107830,9.276280,-0.403520,-149.166718,-3.367372,87.185936,0.211981,-0.692509,-0.670090,0.162709
621,1.029368,-6.065398,-9.751619,56.966980,6.441928,-0.936723,-147.242218,-3.601873,87.067101,0.225100,-0.689103,-0.666925,0.172272
622,1.109719,-6.182699,-9.516595,52.129219,5.603430,-2.907310,-145.420715,-3.804133,87.008743,0.237265,-0.685375,-0.664097,0.181498
623,0.954881,-6.452489,-9.444304,48.041843,4.091614,-4.692640,-143.752258,-4.008908,87.018509,0.248357,-0.681367,-0.661805,0.189924
624,0.991647,-6.784035,-9.458168,45.297493,0.699793,-0.486879,-142.198410,-4.124327,87.039444,0.258185,-0.677568,-0.659506,0.198229
625,0.899659,-6.622577,-8.994473,44.982033,-2.233382,-0.738812,-140.696289,-4.117200,87.070847,0.266948,-0.673961,-0.657022,0.206973
626,0.839539,-6.762995,-8.447673,48.936623,-3.542200,1.858374,-139.134659,-4.031322,87.118439,0.275541,-0.670187,-0.654246,0.216537
627,1.046232,-7.045756,-8.609075,60.729908,-3.490662,3.381725,-137.308151,-3.885896,87.131149,0.285360,-0.665986,-0.650479,0.227836
628,0.910442,-7.139291,-8.226797,62.890057,-3.580116,4.394765,-135.247635,-3.711376,87.118889,0.296358,-0.661250,-0.645819,0.240497
629,1.176909,-7.701509,-7.796845,67.882942,-1.434094,3.230990,-133.067062,-3.562139,87.090179,0.308139,-0.656036,-0.640612,0.253541
630,1.075924,-7.861863,-7.631889,72.148750,-1.627972,1.640093,-130.733170,-3.467799,87.074341,0.320965,-0.649965,-0.634993,0.267040
631,1.040603,-7.524039,-7.420028,62.107311,-0.307131,-0.944644,-128.497650,-3.438126,87.092033,0.333382,-0.643566,-0.629686,0.279599
632,0.820135,-7.552968,-6.800723,50.052116,-0.599697,-2.446343,-126.631859,-3.473600,87.138969,0.343884,-0.637695,-0.625406,0.289752
633,0.549615,-7.551214,-6.352787,46.125694,-2.166106,0.134478,-125.032967,-3.477665,87.199188,0.352613,-0.632496,-0.621646,0.298612
634,0.182353,-7.703931,-5.945530,42.714851,-4.937663,2.509059,-123.556915,-3.374578,87.271935,0.359998,-0.627820,-0.617855,0.307405
635,0.132283,-7.883514,-5.520044,42.255047,-4.575887,7.159539,-122.143578,-3.153104,87.317390,0.366441,-0.623769,-0.613622,0.316390
636,0.251788,-8.415868,-5.060654,47.290237,-4.995307,9.797390,-120.650749,-2.829107,87.305901,0.372899,-0.620015,-0.608418,0.326121
637,0.363249,-8.732129,-5.022586,49.632282,-3.741556,11.948441,-119.033188,-2.442462,87.251663,0.379795,-0.616205,-0.602270,0.336627
638,0.439608,-8.768578,-4.798066,49.325138,-3.124614,12.023843,-117.380783,-2.036633,87.163536,0.386847,-0.612435,-0.595592,0.347194
639,0.592827,-8.692097,-4.628930,48.008720,-1.475322,10.513660,-115.755692,-1.666555,87.064095,0.393938,-0.608614,-0.588867,0.357264
640,0.488814,-8.711889,-4.611731,42.138004,-1.387182,9.251748,-114.251015,-1.348028,86.968292,0.400609,-0.604938,-0.582547,0.366336
641,0.352103,-8.715014,-4.280413,37.803520,-1.049430,9.208311,-112.917099,-1.049862,86.882408,0.406422,-0.601672,-0.576765,0.374372
642,0.374293,-8.797699,-4.147024,35.995235,-1.192717,7.882357,-111.686119,-0.772241,86.808815,0.411737,-0.598585,-0.571349,0.381744
643,0.386441,-9.004952,-3.873142,35.662533,-0.575197,7.853477,-110.491226,-0.516933,86.742012,0.416930,-0.595470,-0.566075,0.388773
644,0.095228,-9.105066,-3.812398,33.718937,-1.329639,8.291153,-109.334579,-0.253215,86.680229,0.421846,-0.592452,-0.560839,0.395607
645,-0.037068,-9.244615,-3.564310,32.326069,-1.328105,9.102357,-108.233864,0.035505,86.628731,0.426298,-0.589638,-0.555676,0.402270
646,-0.073822,-9.533142,-3.431028,31.892200,-1.795112,10.331714,-107.163849,0.359836,86.579773,0.430396,-0.587016,-0.550419,0.408913
647,-0.152820,-9.555305,-2.999084,31.559198,-1.951381,9.643967,-106.106766,0.696671,86.544174,0.434305,-0.584394,-0.545149,0.415542
648,0.012828,-9.571218,-2.913496,30.433447,-2.690882,7.533360,-105.073692,0.993212,86.541794,0.438148,-0.581534,-0.540212,0.421918
649,-0.109487,-9.675326,-2.498535,29.848936,-3.271896,7.745340,-104.068474,1.264734,86.574043,0.441821,-0.578503,-0.535579,0.428116
650,0.045345,-9.926940,-2.353066,30.224329,-3.676136,3.387631,-103.065704,1.472286,86.643059,0.445623,-0.575055,-0.531327,0.434077
651,0.045125,-9.751758,-2.010168,28.673031,-3.129946,-3.418226,-102.081322,1.496574,86.754219,0.450007,-0.570784,-0.528034,0.439181
652,-0.142502,-9.911117,-1.950539,27.128687,-3.102300,-5.570205,-101.148109,1.370825,86.886627,0.454716,-0.566022,-0.525608,0.443382
653,-0.458680,-9.790400,-1.964631,24.456276,-2.231640,-5.059779,-100.285713,1.213332,87.007095,0.459226,-0.561437,-0.523495,0.447049
654,-0.569589,-9.716780,-1.934520,20.873581,-1.268175,-1.989835,-99.528694,1.107596,87.084793,0.463109,-0.557633,-0.521345,0.450305
656,-0.400898,-9.614106,-1.604535,19.298897,-0.605537,2.186357,-98.858604,1.115761,87.114983,0.466205,-0.554810,-0.518816,0.453508
657,-0.288047,-9.738041,-1.662570,18.370548,-0.926379,5.135032,-98.230644,1.240162,87.121895,0.468640,-0.552699,-0.515835,0.456962
658,-0.253084,-9.504786,-1.535952,16.700974,-1.989816,7.456846,-97.645691,1.454715,87.140923,0.470397,-0.551052,-0.512683,0.460679
659,-0.147359,-9.728386,-1.208277,15.782228,-3.654904,7.168128,-97.102608,1.708547,87.202812,0.471593,-0.549535,-0.509713,0.464547
660,-0.211246,-9.846346,-1.209522,15.595485,-4.497674,4.724990,-96.576180,1.921599,87.314178,0.472687,-0.547707,-0.507195,0.468334
661,-0.387672,-9.933565,-1.149497,13.811012,-4.399967,2.203269,-96.081421,2.052750,87.448990,0.473896,-0.545585,-0.505246,0.471684
662,-0.479701,-9.770369,-0.923557,12.160159,-3.433982,0.897262,-95.644081,2.117515,87.573761,0.475164,-0.543481,-0.503755,0.474425
663,-0.479928,-9.992653,-0.871588,10.350279,-2.127058,-0.595632,-95.265511,2.131323,87.665642,0.476512,-0.541560,-0.502560,0.476532
664,-0.407561,-9.884793,-0.704354,9.891367,-1.212432,-2.112031,-94.925957,2.091295,87.725159,0.478048,-0.539725,-0.501599,0.478084
665,-0.335241,-9.721370,-0.495797,10.523367,-0.846652,-2.795190,-94.584251,2.012615,87.766212,0.479839,-0.537802,-0.500706,0.479392
666,-0.441336,-9.674262,-0.610983,9.782234,-1.082256,-0.081633,-94.244598,1.967276,87.801994,0.481485,-0.536039,-0.499648,0.480819
667,-0.540717,-9.910382,-0.552346,8.359957,-1.483894,2.722690,-93.940834,2.014235,87.841461,0.482527,-0.534779,-0.498351,0.482520
668,-0.427313,-9.758889,-0.534253,6.755716,-1.507936,2.748498,-93.687340,2.108540,87.885117,0.483101,-0.533903,-0.497073,0.484231
669,-0.418123,-9.967102,-0.526732,4.083415,-0.770697,3.181506,-93.505493,2.209566,87.916824,0.483359,-0.533409,-0.496008,0.485607
670,-0.306823,-10.301354,-0.126276,6.755400,0.028526,2.429010,-93.324570,2.303641,87.923584,0.483750,-0.532999,-0.494859,0.486840
671,-0.115578,-10.225203,0.058493,12.058376,1.109583,-0.407227,-93.011848,2.336224,87.902794,0.485145,-0.531899,-0.493288,0.488247
672,0.021865,-10.204819,0.169753,16.940279,2.376804,-3.962298,-92.530716,2.260659,87.848305,0.487944,-0.529782,-0.491316,0.489745
673,-0.247061,-10.558331,0.332473,19.379423,2.774811,-3.320125,-91.928513,2.136017,87.767288,0.491622,-0.527042,-0.488918,0.491420
674,-0.432905,-10.512088,0.194874,20.341812,3.101856,-2.936216,-91.269974,2.029053,87.672188,0.495523,-0.524168,-0.486130,0.493338
675,-0.337626,-10.439597,0.029538,14.476973,3.842039,-4.604649,-90.693588,1.901399,87.558533,0.499203,-0.521617,-0.483699,0.494719
676,-0.615360,-10.313471,-0.269098,5.216952,4.547817,-3.068147,-90.369797,1.772155,87.419952,0.501836,-0.520247,-0.482254,0.494909
677,-0.505308,-10.246435,-0.439455,-4.748525,4.514940,-2.451505,-90.366547,1.679079,87.269493,0.502904,-0.520477,-0.481976,0.493852
678,-0.412652,-9.831558,-0.429583,-11.844483,5.372826,-3.683090,-90.647751,1.575276,87.105606,0.502780,-0.521968,-0.482908,0.491489
679,-0.120271,-9.395568,-0.544472,-17.152683,6.333328,-4.431042,-91.136093,1.436951,86.912605,0.501976,-0.524349,-0.484736,0.487965
680,-0.331587,-9.433652,-0.891770,-22.412828,7.063227,0.078290,-91.800888,1.358667,86.691216,0.500202,-0.527871,-0.486889,0.483827
681,-0.102996,-9.489637,-0.749396,-25.895203,7.153558,-0.200021,-92.611656,1.347476,86.454735,0.497494,-0.532362,-0.489252,0.479294
682,-0.424680,-9.476181,-0.792740,-26.840548,6.343927,3.969040,-93.495979,1.398161,86.226669,0.494094,-0.537370,-0.491644,0.474754
683,-0.220715,-9.587568,-1.512638,-31.940241,6.695215,4.609212,-94.481445,1.525612,86.000153,0.489819,-0.543085,-0.494078,0.470130
684,-0.304820,-9.993855,-1.363311,-35.079708,7.196172,4.567228,-95.605133,1.657536,85.756020,0.484873,-0.549441,-0.496921,0.464847
685,-0.046052,-9.791225,-1.623953,-35.888096,7.046045,-1.535889,-96.794830,1.682106,85.514473,0.480000,-0.555596,-0.500444,0.458769
686,-0.204807,-9.857253,-2.237265,-40.251209,5.696463,-5.460305,-98.069061,1.538931,85.318398,0.475214,-0.561218,-0.505166,0.451678
687,-0.139076,-10.089900,-2.842380,-49.107555,6.453225,-10.706441,-99.561943,1.241446,85.159279,0.469837,-0.566954,-0.511469,0.442963
688,-0.170066,-10.164389,-3.010508,-59.400753,6.348787,-14.538803,-101.372314,0.788931,85.025536,0.463409,-0.573240,-0.519595,0.432052
689,-0.368393,-10.092366,-4.051920,-75.411690,5.166669,-14.695810,-103.619141,0.271701,84.943466,0.454788,-0.580721,-0.529618,0.418850
690,-0.350091,-10.160927,-4.611643,-95.119286,4.828050,-12.303876,-106.459824,-0.206059,84.900024,0.442662,-0.590336,-0.541455,0.402963
691,-0.259626,-10.126045,-5.053533,-112.146263,6.927087,-7.143367,-109.910950,-0.574695,84.816292,0.426739,-0.602550,-0.554261,0.384217
692,0.023954,-9.657233,-5.752491,-127.277222,7.572433,-4.105305,-113.895134,-0.837515,84.663673,0.407310,-0.616924,-0.567376,0.362751
693,-0.035980,-9.538382,-6.512298,-134.179520,7.373241,2.017102,-118.243317,-0.977547,84.456505,0.384930,-0.632552,-0.580045,0.339492
694,0.365732,-9.109132,-7.064539,-136.330521,8.160184,3.892612,-122.739922,-1.023097,84.185669,0.360798,-0.648436,-0.591524,0.315364
695,0.523519,-8.772496,-7.832109,-132.164810,9.773034,5.501140,-127.201271,-1.065470,83.851929,0.336355,-0.663630,-0.601541,0.290876
696,0.514933,-8.534423,-8.271088,-121.205673,6.764948,6.524004,-131.410995,-1.084105,83.512306,0.312647,-0.677301,-0.609862,0.267550
697,0.505443,-8.808279,-8.736604,-102.658073,4.869963,7.751609,-135.131363,-1.044021,83.209236,0.290937,-0.688816,-0.616309,0.247086
698,0.928463,-8.653978,-8.933299,-88.705116,7.915923,2.711991,-138.312469,-1.079280,82.937096,0.272440,-0.698029,-0.621354,0.229022
699,0.786908,-8.750690,-8.709217,-68.604874,8.053954,0.161976,-140.927948,-1.251019,82.726967,0.257762,-0.704871,-0.625493,0.213247
700,0.422645,-8.927255,-8.832785,-49.068184,3.511718,-3.921227,-142.886505,-1.441361,82.656792,0.246836,-0.709195,-0.628997,0.201189
701,0.324969,-8.983118,-9.136526,-38.159012,3.054119,-9.010639,-144.342773,-1.658024,82.765312,0.238805,-0.711275,-0.632595,0.192049
702,0.565398,-8.366894,-9.062384,-46.352985,8.174996,-13.094998,-145.757278,-2.022978,82.959717,0.231699,-0.712433,-0.636798,0.182326
703,0.621312,-7.792728,-8.431878,-47.986946,10.846792,-14.999897,-147.337982,-2.545432,83.175316,0.224407,-0.713442,-0.641498,0.170653
704,0.212017,-7.300376,-8.369356,-49.157093,5.613465,-15.009833,-148.970367,-3.042240,83.455376,0.216585,-0.714142,-0.646411,0.158885
705,0.210262,-6.409230,-8.193604,-65.295135,2.300099,-13.521947,-150.896683,-3.394801,83.801865,0.206073,-0.715138,-0.651677,0.146385
706,0.907991,-5.678269,-7.311779,-74.933182,9.037746,-13.209777,-153.251999,-3.769857,84.108368,0.193090,-0.716888,-0.656964,0.131092
707,0.137004,-4.833779,-6.824640,-66.306320,0.294500,-12.293050,-155.626755,-4.092595,84.424515,0.179701,-0.718444,-0.661902,0.115890
708,-0.310932,-4.367424,-7.202351,-64.561501,-8.254857,-8.271110,-157.833069,-4.106756,84.793785,0.165584,-0.719608,-0.666348,0.103569
709,0.610514,-3.709838,-7.017016,-74.523293,1.483716,-9.535872,-160.172852,-4.107679,85.113464,0.150611,-0.720970,-0.670338,0.090357
710,0.479491,-3.059865,-6.723509,-73.772728,4.922039,-8.213383,-162.661469,-4.302474,85.358711,0.135888,-0.722412,-0.673837,0.074827
711,0.081204,-2.544905,-7.228407,-73.149162,-0.554953,-5.372362,-165.124039,-4.434766,85.555977,0.121002,-0.723868,-0.676617,0.059693
712,0.714693,-2.493114,-7.482018,-76.850929,5.572544,-4.989942,-167.634445,-4.556406,85.705559,0.105772,-0.725352,-0.678765,0.044219
713,0.690711,-1.949779,-7.507460,-80.251022,5.059962,-5.959053,-170.263214,-4.764841,85.850029,0.090298,-0.726571,-0.680580,0.027419
714,0.431305,-1.523403,-7.808512,-81.037422,1.400202,-4.005443,-172.962326,-4.895658,85.999161,0.073920,-0.727526,-0.682003,0.010643
715,0.943731,-1.573903,-8.130599,-77.263199,5.405474,-4.874429,-175.610931,-5.022860,86.136314,0.057848,-0.728159,-0.682937,-0.005864
716,0.664562,-0.980177,-8.225618,-79.556908,3.420203,-9.675068,-178.244003,-5.182788,86.370544,0.042100,-0.727839,-0.684085,-0.022487
717,0.518237,-0.363299,-8.166448,-85.043053,0.371260,-9.455164,178.985275,-5.248871,86.690468,0.024995,-0.726718,-0.685351,-0.039370
718,0.638708,-0.037131,-8.152972,-87.883537,0.959449,-9.328340,176.076248,-5.257333,87.005913,0.006748,-0.725232,-0.686126,-0.056789
719,0.378473,0.551765,-8.089176,-91.459274,-1.469747,-12.645164,173.056000,-5.214127,87.370789,-0.012389,-0.722972,-0.686725,-0.074619
720,0.345182,1.452905,-7.743630,-100.298073,-2.542063,-12.550561,169.826035,-5.086165,87.777962,-0.033199,-0.719866,-0.687017,-0.093261
721,0.561553,1.774608,-7.512343,-100.346535,-1.033877,-10.371775,166.453247,-4.949131,88.140762,-0.054840,-0.716348,-0.686384,-0.112762
722,0.441870,2.242292,-7.424626,-93.283020,-1.319946,-10.460439,163.201324,-4.820109,88.465935,-0.075550,-0.712482,-0.685084,-0.131613
723,0.521523,2.562754,-7.264624,-83.714142,0.586231,-10.511770,160.226486,-4.699114,88.794952,-0.094322,-0.708225,-0.683633,-0.148884
724,0.557790,2.802164,-7.194271,-67.992363,1.869404,-9.473010,157.673203,-4.618115,89.121063,-0.110100,-0.703934,-0.682269,-0.163901
725,0.528541,3.030298,-7.244619,-51.804913,2.211278,-8.777336,155.652908,-4.560388,89.427940,-0.122371,-0.700001,-0.681240,-0.175884
726,0.676067,3.198450,-7.504789,-31.246662,4.130976,-7.163393,154.246368,-4.543952,89.714195,-0.130592,-0.696729,-0.680800,-0.184461
727,0.876321,3.272689,-8.130231,-7.258043,5.753727,-7.862558,153.580948,-4.582155,90.012276,-0.133914,-0.694234,-0.681462,-0.188988
728,0.838120,3.398144,-8.498146,1.704418,4.453005,-8.182564,153.463028,-4.615776,90.328392,-0.133900,-0.692253,-0.683124,-0.190259
729,0.853642,3.415542,-9.023295,9.320782,3.508175,-8.742785,153.621674,-4.609089,90.641037,-0.132466,-0.690563,-0.685284,-0.189635
730,0.753998,3.243557,-9.317643,18.021128,1.808057,-10.197050,154.051559,-4.549600,90.964447,-0.129709,-0.689047,-0.688034,-0.187078
731,0.482656,3.517868,-9.426718,13.540684,-1.463722,-11.724686,154.551682,-4.396529,91.297127,-0.127105,-0.687429,-0.691085,-0.183538
732,0.392658,3.475654,-9.104583,5.035473,-3.939615,-8.990752,154.840897,-4.167442,91.571335,-0.126343,-0.685830,-0.693546,-0.180745
733,0.340034,3.640116,-9.159183,5.741285,-5.111287,-7.983010,155.007019,-3.910830,91.763947,-0.126627,-0.684552,-0.695352,-0.178441
734,0.429390,3.649371,-8.975745,3.177371,-4.571243,-6.580048,155.145630,-3.662229,91.916382,-0.127095,-0.683491,-0.696852,-0.176306
735,0.536950,3.834088,-8.916383,0.222753,-3.546464,-5.748296,155.194244,-3.453143,92.046249,-0.127896,-0.682512,-0.698013,-0.174926
736,0.622244,3.751647,-8.872106,1.755354,-2.385755,-5.449215,155.219666,-3.285100,92.174393,-0.128587,-0.681561,-0.699063,-0.173927
737,0.606508,3.937344,-8.902950,2.089982,-0.799105,-7.261049,155.274185,-3.148212,92.344833,-0.128850,-0.680420,-0.700359,-0.172983
738,0.537579,3.960192,-8.942936,1.910774,-0.360830,-7.168906,155.329468,-3.030152,92.555580,-0.128936,-0.679053,-0.701864,-0.172190
739,0.366220,4.087350,-8.981287,-3.391970,-1.211026,-6.222380,155.294815,-2.913124,92.747681,-0.129578,-0.677696,-0.703119,-0.171934
740,0.236979,4.233659,-9.110260,-12.138894,-1.207778,-4.367927,155.028839,-2.802323,92.891052,-0.131620,-0.676378,-0.703726,-0.173083
741,0.348042,4.222151,-9.196787,-19.401937,-0.112714,-1.210163,154.499557,-2.742659,92.965767,-0.134998,-0.675230,-0.703448,-0.176072
742,0.303978,4.467043,-9.037046,-36.621387,0.067712,0.367473,153.565277,-2.735707,92.977959,-0.140523,-0.674023,-0.702071,-0.181776
743,0.472055,4.624271,-8.675628,-43.759697,1.877424,1.808294,152.226578,-2.780981,92.960358,-0.148137,-0.672505,-0.699724,-0.190205
744,0.580142,4.578324,-8.532692,-31.914019,3.197539,0.776670,150.965439,-2.875829,92.962502,-0.154941,-0.670958,-0.697444,-0.198445
745,0.645334,4.654030,-8.214886,-18.467531,3.133898,0.243749,150.123962,-2.976211,92.999474,-0.159180,-0.669726,-0.696013,-0.204191
746,0.541698,4.722784,-8.117270,-4.366482,1.718714,0.546071,149.741882,-3.052862,93.028572,-0.160888,-0.669130,-0.695366,-0.206992
747,0.523495,4.399172,-8.330617,19.441973,-0.197062,2.063716,149.994492,-3.096632,93.003601,-0.159188,-0.669700,-0.695599,-0.205676
748,0.397047,4.245475,-8.953983,35.205067,-3.931509,3.686159,150.911575,-3.084028,92.886047,-0.154106,-0.671649,-0.696555,-0.199872
749,0.187128,3.915336,-9.414208,48.260124,-9.163417,5.980860,152.315475,-2.968712,92.640076,-0.146988,-0.674829,-0.697690,-0.190340
750,-0.042796,2.991340,-10.489780,66.096504,-13.784518,9.359115,154.240967,-2.742328,92.239090,-0.137648,-0.679368,-0.698755,-0.176788
751,-0.058799,2.146017,-11.956422,60.703979,-14.307489,10.666142,156.376205,-2.456656,91.739891,-0.127437,-0.684538,-0.699346,-0.161502
752,0.520345,2.129948,-11.925391,36.370922,-7.737353,6.226430,158.010010,-2.227599,91.337639,-0.119604,-0.688500,-0.699459,-0.149735
753,0.292260,2.095243,-10.382560,12.171954,-3.751823,2.858413,158.826920,-2.105185,91.126404,-0.115712,-0.690499,-0.699388,-0.143801
754,0.118956,2.330132,-9.102299,-11.795521,-0.381331,2.707221,158.837250,-2.074544,91.014885,-0.115977,-0.691158,-0.698767,-0.143442
755,0.375669,2.921794,-7.670827,-38.968952,4.975915,-0.055045,157.991699,-2.162204,91.001892,-0.120553,-0.690457,-0.697499,-0.149104
756,0.478865,3.563692,-6.258765,-46.785007,6.704545,-1.521846,156.558746,-2.331896,91.101334,-0.128002,-0.688486,-0.695946,-0.158938
757,-0.072830,3.631709,-6.461377,-32.143909,-1.888580,2.085477,155.242508,-2.409137,91.125542,-0.135394,-0.686917,-0.694109,-0.167408
759,0.197553,3.990107,-7.355652,-20.243757,-4.212978,5.146693,154.375793,-2.367792,90.973587,-0.141067,-0.686740,-0.691974,-0.172221
760,0.732526,4.440278,-8.011445,-20.132030,-2.401202,5.078221,153.711182,-2.342894,90.772026,-0.145508,-0.687092,-0.689794,-0.175829
761,0.568370,4.658221,-8.440667,-17.469864,-3.707895,4.763642,153.092361,-2.325334,90.579544,-0.149624,-0.687430,-0.687708,-0.179196
762,0.593683,5.201545,-8.587523,-18.643064,-2.790579,4.934731,152.498291,-2.302853,90.386177,-0.153630,-0.687772,-0.685646,-0.182366
763,0.525843,5.579968,-7.611880,-19.760067,-1.577168,5.078657,151.865601,-2.316378,90.204422,-0.157639,-0.688017,-0.683516,-0.185980
764,0.673534,5.312510,-7.787041,-5.293577,-0.721277,6.959584,151.456039,-2.377935,90.009438,-0.160047,-0.688696,-0.681575,-0.188515
765,0.517572,4.623847,-8.305701,11.192183,-2.859905,9.658612,151.565857,-2.457344,89.737183,-0.159356,-0.690577,-0.679986,-0.187956
766,0.604996,4.998410,-8.710600,17.058161,-3.806701,10.497336,152.051819,-2.517809,89.388206,-0.156627,-0.693399,-0.678571,-0.184955
767,0.752513,4.757314,-7.321102,25.413448,-2.049839,11.014445,152.775848,-2.597213,89.024849,-0.152341,-0.696630,-0.677394,-0.180658
768,0.810507,4.045105,-8.591255,43.190113,-4.181355,10.181241,153.935837,-2.662564,88.662216,-0.145440,-0.700363,-0.676874,-0.173726
769,0.783245,4.207800,-8.956167,44.466305,-2.834017,3.725739,155.408569,-2.655581,88.402206,-0.136843,-0.703705,-0.677466,-0.164661
770,0.635679,4.853193,-7.591322,43.851192,0.928947,-1.609674,156.882324,-2.640099,88.356926,-0.127936,-0.705658,-0.679270,-0.155789
771,0.622837,3.915322,-8.157296,55.823227,2.069604,-4.413183,158.538071,-2.647584,88.469032,-0.117539,-0.706774,-0.682132,-0.146119
772,0.508651,4.002409,-8.342614,58.262283,1.798615,-8.272163,160.428833,-2.633603,88.689812,-0.105686,-0.707284,-0.685831,-0.134963
773,0.252036,4.144593,-7.686044,59.742645,2.980312,-8.883986,162.381409,-2.617469,88.986221,-0.093398,-0.707187,-0.689880,-0.123401
774,0.264699,3.630936,-6.935814,70.467232,1.268519,-3.952151,164.540497,-2.624347,89.211723,-0.079799,-0.707463,-0.693470,-0.110581
775,0.438407,2.816871,-7.397711,89.459480,-0.095162,-0.315664,167.201355,-2.626944,89.285431,-0.063274,-0.708679,-0.696304,-0.094506
776,0.309591,2.251006,-5.842078,109.352562,-2.196408,4.772557,170.516235,-2.604683,89.204994,-0.042939,-0.710694,-0.698262,-0.074159
777,0.254195,0.948920,-6.348928,146.987732,-6.899628,10.328483,174.795837,-2.487806,88.935768,-0.017200,-0.713430,-0.698919,-0.047271
778,0.434944,-0.294103,-5.626122,185.176071,-9.133310,14.068054,-179.661301,-2.239724,88.517754,0.015756,-0.716014,-0.697806,-0.011935
779,0.116418,-1.762690,-5.717649,223.079254,-17.419470,16.799011,-172.860596,-1.766554,88.034500,0.055461,-0.716983,-0.694135,0.032196
780,-0.137810,-3.754404,-6.054180,253.372498,-25.964350,19.862789,-164.943558,-0.942949,87.573532,0.100224,-0.714927,-0.686767,0.084767
781,-0.142095,-5.983734,-7.688132,268.219147,-28.245525,18.785322,-156.297333,0.116858,87.264557,0.147957,-0.708499,-0.675167,0.142435
782,-0.822566,-9.273759,-9.016404,270.064178,-28.665291,19.087225,-147.385025,1.244068,87.156754,0.196220,-0.697348,-0.659366,0.201100
783,-1.148691,-12.384582,-10.046928,252.816025,-23.134476,16.251678,-138.726135,2.280063,87.204445,0.242330,-0.682380,-0.640189,0.256498
784,-1.192863,-14.847613,-10.167912,221.883286,-12.258784,12.090018,-130.857071,3.024708,87.292107,0.284229,-0.665434,-0.619539,0.304274
785,-1.662420,-15.997312,-9.061995,179.624710,-0.537038,7.199639,-124.197510,3.404265,87.269356,0.320416,-0.648931,-0.599513,0.341768
786,-1.772414,-16.896488,-6.036200,144.119507,5.939733,5.938025,-118.830124,3.539676,87.082092,0.350339,-0.634560,-0.581361,0.369615
787,-1.354880,-16.087187,-3.207140,119.192352,6.616504,2.790333,-114.466179,3.573159,86.830994,0.374929,-0.622105,-0.565385,0.390836
788,-1.420032,-14.637507,-1.145208,104.651047,3.104847,1.246261,-110.751518,3.572697,86.656380,0.395520,-0.610466,-0.551493,0.408350
789,-1.307803,-13.124163,0.069891,99.413513,-2.728650,0.216529,-107.354904,3.594513,86.642570,0.413382,-0.598615,-0.538991,0.424575
790,-0.904229,-12.193670,0.220731,97.571716,-9.004192,-0.986695,-104.062767,3.636506,86.834351,0.429467,-0.585760,-0.527384,0.440807
791,-0.699506,-10.701208,-0.485299,87.010475,-9.714344,-3.964790,-100.968643,3.625103,87.157120,0.443896,-0.572456,-0.516953,0.456082
792,-0.601749,-9.598492,-1.044144,67.302383,-6.236243,-6.295642,-98.380531,3.501803,87.448921,0.456097,-0.560526,-0.508476,0.468229
793,-0.144157,-9.194814,-1.290320,44.635674,-1.902890,-9.348247,-96.505867,3.260764,87.618118,0.465617,-0.551314,-0.502607,0.476067
794,-0.085459,-8.947805,-1.023882,25.331614,3.303421,-10.750507,-95.339470,2.924963,87.630356,0.472691,-0.545169,-0.499257,0.479683
795,-0.196779,-8.761803,-0.778824,12.157643,7.362907,-9.601590,-94.721870,2.571087,87.483467,0.477847,-0.541843,-0.497517,0.480151
796,-0.335312,-8.131736,-0.127032,7.862331,8.979571,-6.711620,-94.398903,2.278087,87.233665,0.481741,-0.540405,-0.496268,0.479172
797,-0.443124,-7.574904,0.519341,11.115391,8.300642,-1.356424,-94.093361,2.122543,86.956238,0.485038,-0.539693,-0.494366,0.478614
798,-0.857414,-6.884225,1.104893,21.541018,6.641990,8.487718,-93.558937,2.224588,86.699478,0.488173,-0.538936,-0.490471,0.480285
799,-1.059010,-6.529659,1.505417,33.842342,2.211261,21.133114,-92.643623,2.709773,86.524971,0.491055,-0.537716,-0.483630,0.485623
800,0.965883,-7.245809,-0.759215,20.509302,1.692156,5.387415,-91.742355,3.149324,86.442528,0.493686,-0.535959,-0.477417,0.491014
801,-0.394354,-8.414213,-1.741333,7.514470,1.906274,11.821824,-91.279114,3.434436,86.375519,0.494883,-0.535390,-0.473813,0.493912
802,-0.229211,-9.799449,-2.580672,-7.806077,-0.075234,14.274423,-91.286606,3.868496,86.334702,0.493111,-0.537339,-0.471665,0.495622
803,0.051821,-10.951621,-3.140211,-20.413448,-4.023650,14.733901,-91.753029,4.353547,86.389816,0.488526,-0.541050,-0.471717,0.496075
804,0.136420,-11.597873,-4.015390,-32.896824,-4.279466,10.037741,-92.631889,4.771282,86.512268,0.481958,-0.545920,-0.474185,0.494810
805,-1.962575,-11.193669,-2.058536,-33.413223,-6.543859,23.840158,-93.723915,5.345054,86.660957,0.473483,-0.552096,-0.476994,0.493438
806,-0.438233,-10.637517,-1.578243,-24.603853,-9.627233,24.745216,-94.669411,6.172138,86.872620,0.464183,-0.558260,-0.478345,0.494031
807,-1.075537,-9.829128,-1.431905,-14.996349,-9.733416,25.331512,-95.300629,7.031192,87.123802,0.456001,-0.562995,-0.478413,0.496206
808,-0.762798,-9.387416,-1.414487,-8.311337,-6.058655,20.415154,-95.664314,7.815053,87.315163,0.449677,-0.566564,-0.477386,0.498898
809,-0.590613,-9.077090,-1.123966,-0.044414,-4.569592,18.503460,-95.787460,8.478095,87.428078,0.445418,-0.569029,-0.475473,0.501731
810,-0.391021,-8.831543,-1.038253,9.504951,-5.081407,15.298267,-95.613640,9.054572,87.533783,0.443060,-0.570039,-0.472605,0.505369
811,-0.375240,-8.885715,-0.903962,12.010615,-5.703909,11.072726,-95.232582,9.509033,87.673447,0.442157,-0.569663,-0.469528,0.509436
812,0.510575,-9.547373,-0.763435,14.928064,-5.785814,1.039895,-94.754311,9.726803,87.849312,0.442701,-0.567900,-0.467264,0.513001
813,0.267009,-9.655675,-0.570459,23.968018,-7.719425,-8.680877,-94.066208,9.617126,88.087265,0.445555,-0.563857,-0.465856,0.516260
814,0.009322,-10.058261,-0.433088,32.150005,-8.688828,-21.271675,-93.080841,9.135935,88.395805,0.451272,-0.556932,-0.465143,0.519444
815,-0.228700,-10.486176,-0.006094,42.127819,-8.151973,-33.303780,-91.794380,8.239167,88.719131,0.460227,-0.547040,-0.465018,0.522204
816,-0.397227,-10.591540,0.337659,56.260002,-8.089314,-45.433544,-90.116219,6.931705,89.014572,0.472852,-0.533804,-0.464822,0.524790
817,-1.115406,-10.190875,0.652304,70.641167,-8.328010,-51.150620,-87.975784,5.318179,89.262733,0.488829,-0.517158,-0.463641,0.527855
818,-1.191293,-9.873969,0.846004,76.413811,-6.986404,-53.695423,-85.514366,3.560162,89.417862,0.506727,-0.498295,-0.461165,0.531278
819,-1.089045,-9.854839,1.194018,81.101807,-4.080367,-54.899662,-82.891136,1.742158,89.418221,0.525580,-0.478373,-0.457505,0.534429
820,-1.193533,-9.478524,1.136777,82.097900,-0.725206,-53.904682,-80.176407,-0.062093,89.230141,0.544842,-0.458110,-0.452578,0.537080
821,-1.638376,-9.244404,1.216247,78.333786,2.278506,-44.514935,-77.499939,-1.665414,88.887047,0.563102,-0.438889,-0.446321,0.539528
822,-0.970245,-9.057066,1.790800,76.095291,3.831769,-41.373260,-74.910233,-3.030388,88.445328,0.579902,-0.421022,-0.439040,0.541938
823,-1.819740,-9.271628,1.704068,68.926781,11.776352,-22.588079,-72.461304,-3.979840,87.895172,0.594656,-0.405837,-0.430099,0.544698
824,-1.845272,-8.856506,1.823983,57.341011,12.689292,-0.784381,-70.322060,-4.219296,87.380318,0.605392,-0.395337,-0.419283,0.549009
825,-0.408720,-9.019627,2.407871,48.043003,4.302453,7.883074,-68.550644,-4.008489,87.153252,0.611856,-0.387819,-0.408906,0.554999
826,0.393386,-9.048479,2.938483,42.558578,3.380948,12.528762,-67.041840,-3.643930,87.162506,0.615718,-0.381567,-0.399714,0.561718
827,0.042569,-8.736134,3.029960,36.426456,5.750464,21.573795,-65.730858,-3.061988,87.250313,0.617798,-0.377197,-0.390518,0.568809
828,0.729283,-8.484540,3.351886,31.421543,-3.502870,18.995705,-64.612175,-2.432508,87.499344,0.618256,-0.373571,-0.382448,0.576141
829,0.564017,-8.503516,3.607048,24.937151,-6.411685,18.558189,-63.689541,-1.940657,87.921494,0.617584,-0.369748,-0.376558,0.583164
830,-0.555715,-8.010406,3.587871,13.671593,-0.581795,29.361553,-63.059235,-1.278624,88.383644,0.615187,-0.368300,-0.371318,0.589935
831,-0.964896,-7.977304,3.327676,-9.022790,-2.775562,38.833107,-62.989063,-0.290810,88.947945,0.609380,-0.371263,-0.367541,0.596434
832,-0.795844,-8.545881,3.138061,-29.845097,-8.295138,43.962193,-63.633068,0.860027,89.730789,0.599459,-0.378151,-0.367380,0.602232
833,0.253897,-10.084930,2.723393,-44.003830,-18.805490,42.972710,-64.838615,1.969120,90.765739,0.586255,-0.386816,-0.371368,0.607259
834,0.210723,-9.689511,2.582989,-22.714731,-25.465324,40.033516,-65.898262,2.919073,92.012093,0.572706,-0.393034,-0.376312,0.613125
835,-0.259803,-10.132216,3.806296,-4.610772,-30.597754,46.612366,-66.269142,3.857853,93.454880,0.560284,-0.394993,-0.378439,0.621970
836,0.207169,-11.725061,3.449987,37.248955,-40.350464,26.836546,-65.609978,4.491249,95.038818,0.551544,-0.389895,-0.377018,0.633749
837,0.740257,-10.705848,3.601885,75.933815,-40.183559,7.776857,-63.612545,4.432087,96.505325,0.550232,-0.375189,-0.371050,0.647148
838,-0.916319,-8.737614,4.073469,111.682671,-23.236691,8.441965,-60.409466,4.169557,97.569626,0.555290,-0.354912,-0.357480,0.661739
839,-1.828040,-8.613198,4.525512,98.877106,-14.186878,16.065771,-56.849125,4.187679,98.312851,0.561613,-0.335403,-0.338840,0.676228
840,-0.620401,-9.246396,3.240605,78.953911,-18.918030,-2.197058,-53.845516,4.064106,98.896057,0.567111,-0.318212,-0.323266,0.687478
841,-0.106293,-6.207848,4.188791,72.325897,-8.559463,-10.710971,-51.310745,3.614578,99.133316,0.573940,-0.302299,-0.310948,0.694636
842,-1.166021,-6.511168,4.573472,56.445805,7.609917,6.768255,-49.167931,3.551631,99.103607,0.579858,-0.291216,-0.298159,0.700042
843,-1.788150,-7.554004,5.074943,21.262604,4.547896,9.080095,-47.871994,3.883512,99.123116,0.582045,-0.286580,-0.288527,0.704165
844,-1.178242,-8.900910,6.405157,9.764834,1.761441,0.279206,-47.353172,4.070038,99.149864,0.582641,-0.284994,-0.284418,0.705985
845,-0.983734,-8.521359,8.202924,30.096756,14.948454,-29.200754,-46.725887,3.906957,98.616425,0.587937,-0.282126,-0.280101,0.704471
846,-2.046419,-9.551318,7.216362,59.281120,29.785566,-21.528326,-45.312099,3.815670,97.490822,0.598544,-0.276958,-0.269168,0.701846
847,-1.819621,-7.997948,6.319715,97.756966,29.219984,-34.974144,-42.788612,3.869552,96.126038,0.612745,-0.267035,-0.250192,0.700457
848,-0.326600,-6.855062,6.877843,101.211067,24.968384,-58.368916,-39.588127,3.526972,94.360817,0.631586,-0.251301,-0.228593,0.696916
849,-0.180985,-5.330170,5.687571,115.658295,31.540445,-70.487648,-36.104034,2.950385,92.090996,0.653959,-0.232633,-0.206017,0.689765
850,-1.171190,-3.886818,4.528817,107.558899,37.637478,-47.781509,-32.503525,2.790998,89.814034,0.674939,-0.214658,-0.180951,0.682375
851,-0.692217,-3.357737,6.227163,63.436920,21.611513,-52.400780,-29.754597,2.776089,87.870224,0.691466,-0.201082,-0.161233,0.674866
852,-0.246922,-4.297584,7.636105,6.087923,11.177011,-52.873810,-28.675430,2.391511,86.074844,0.704461,-0.194759,-0.154192,0.664852
853,0.186762,-3.871556,7.490666,7.119594,10.759807,-48.262650,-28.515945,1.898725,84.421509,0.715023,-0.193184,-0.153554,0.654097
854,0.710587,-3.401854,8.283063,-9.964866,6.756186,-52.693035,-28.609373,1.350920,82.803787,0.724856,-0.192872,-0.154822,0.642973
856,1.309612,-2.767420,9.026432,-16.783163,-0.693868,-47.238358,-29.080618,0.634038,81.296997,0.733503,-0.193971,-0.159479,0.631597
857,0.505022,-1.803179,11.076924,-23.588467,-9.504570,-27.906784,-29.756948,-0.130058,80.290054,0.738974,-0.195571,-0.166384,0.622885
858,0.172914,-4.262167,12.359742,-58.586205,-13.162339,3.176901,-31.124166,-0.666006,80.126640,0.738268,-0.201718,-0.176958,0.618835
859,0.469201,-3.250427,12.539777,-9.438558,-11.946229,-12.716461,-32.258057,-1.108730,80.213882,0.736435,-0.206477,-0.186065,0.616774
860,0.262873,-2.109763,10.865018,54.900963,-11.661557,-4.614987,-31.499941,-1.594497,80.174217,0.738703,-0.199026,-0.185023,0.616825
861,-0.119624,-2.500214,9.899307,50.903423,-8.106346,4.677629,-29.741617,-1.876814,80.340469,0.741150,-0.185870,-0.177622,0.620160
862,0.876144,-3.151839,7.979649,35.425148,-0.792237,-10.464030,-28.302475,-2.052358,80.327187,0.743720,-0.175604,-0.170930,0.621953
863,1.418252,-1.212144,7.331477,55.648369,-3.010031,-36.986107,-26.758478,-2.475793,79.655052,0.750160,-0.164203,-0.164310,0.619111
864,0.705267,-2.448374,7.531941,12.345096,-0.326194,-10.080469,-25.593870,-2.873139,78.975945,0.755883,-0.155341,-0.159676,0.615640
865,0.891884,-3.735635,8.777575,-38.245789,-0.639958,-9.369996,-26.010920,-3.028977,78.690811,0.757008,-0.157648,-0.162541,0.612916
866,1.221938,-3.901534,9.189080,-32.949589,0.308811,-17.122700,-27.175995,-3.232620,78.298492,0.757682,-0.164814,-0.169529,0.608288
867,1.000771,-4.237898,8.836154,-13.426461,1.548856,-9.277187,-27.925398,-3.407880,77.893120,0.758929,-0.169437,-0.174049,0.604172
868,0.700974,-4.015262,8.603048,7.828128,4.614225,-2.594326,-28.005472,-3.409723,77.669830,0.759988,-0.170297,-0.174152,0.602568
869,0.933129,-4.510918,8.805920,1.363452,-0.467793,2.311674,-27.850220,-3.350556,77.633270,0.760344,-0.169640,-0.172893,0.602666
870,1.018190,-4.866413,9.371881,-3.317321,-3.211724,7.100495,-27.892578,-3.331375,77.800903,0.759378,-0.169770,-0.173239,0.603748
871,0.609990,-4.917072,9.604032,12.145559,-2.078548,12.733042,-27.764643,-3.254994,78.134933,0.757717,-0.168830,-0.172557,0.606289
872,-0.030878,-4.805783,9.527555,30.786438,2.442411,19.777004,-27.075186,-3.000428,78.613838,0.755890,-0.164939,-0.167930,0.610921
873,-0.576852,-4.705116,9.115297,41.176815,6.664508,23.504839,-25.903706,-2.543309,79.192329,0.753937,-0.158879,-0.159486,0.617171
874,-1.305956,-3.941147,9.048592,61.605614,12.802431,22.630653,-24.212608,-1.924183,79.751602,0.752520,-0.150403,-0.147041,0.624076
875,-1.712343,-3.371778,9.031455,84.720207,14.048237,22.610973,-21.788637,-1.219211,80.271004,0.751997,-0.137750,-0.129808,0.631407
876,-1.864253,-2.900834,9.259568,86.933655,14.157106,19.363825,-18.937004,-0.536587,80.763885,0.751856,-0.122317,-0.110097,0.638460
877,-1.802251,-2.404482,9.355697,80.807549,13.426792,12.741380,-16.144732,0.061792,81.135483,0.752061,-0.107018,-0.090919,0.643960
878,-1.579181,-1.131068,9.475470,87.861038,10.692057,5.332105,-13.334266,0.525730,81.324593,0.753079,-0.091038,-0.072194,0.647590
879,-1.294377,-0.666950,9.325552,75.913155,6.698485,2.229365,-10.605620,0.833685,81.388779,0.754495,-0.074794,-0.054766,0.649726
880,-1.250635,-0.606029,8.992051,51.433544,6.107934,0.611898,-8.484118,1.051474,81.400681,0.755579,-0.062044,-0.041297,0.650804
881,-1.206021,-0.690219,8.810737,34.217709,2.379832,0.567291,-7.056994,1.194040,81.400757,0.756234,-0.053438,-0.032247,0.651318
882,-1.114593,-0.673635,9.376910,25.201817,-4.039179,2.545366,-6.065671,1.172537,81.455666,0.756363,-0.046759,-0.026776,0.651929
883,-0.882451,-1.326638,9.901166,9.104891,-9.055885,5.019603,-5.491189,0.968324,81.603569,0.755814,-0.041774,-0.024911,0.652977
884,-0.649636,-1.221716,10.024684,4.850154,-10.681220,7.987727,-5.255104,0.661417,81.850670,0.754584,-0.038414,-0.025674,0.654575
885,-0.402155,-0.866403,10.132339,4.832412,-10.062791,9.668099,-5.090839,0.343756,82.175018,0.752872,-0.035443,-0.026929,0.656660
886,-0.289396,-0.631389,10.129378,6.937851,-7.092178,7.937405,-4.893431,0.084482,82.492203,0.751178,-0.032584,-0.027592,0.658717
887,-0.284899,-0.501721,9.798258,8.416411,-1.565790,3.656016,-4.637428,-0.043341,82.696663,0.750103,-0.030123,-0.027012,0.660083
888,-0.384835,-0.489727,9.501789,4.791317,2.577059,0.025201,-4.417303,-0.021806,82.756386,0.749810,-0.028792,-0.025618,0.660530
889,-0.421205,-0.617426,9.514200,2.575609,4.632424,-3.311862,-4.294538,0.093798,82.692574,0.750183,-0.028669,-0.024138,0.660167
890,-0.437194,-0.801715,9.668703,0.898998,4.805190,-6.377166,-4.237108,0.238602,82.519806,0.751160,-0.029161,-0.022815,0.659081
891,-0.404194,-0.958065,9.823547,-1.639300,4.412744,-6.746349,-4.250645,0.375592,82.290298,0.752443,-0.030082,-0.021934,0.657604
892,-0.138115,-1.085686,9.886635,-5.585371,0.754761,-7.840949,-4.372822,0.443152,82.041336,0.753821,-0.031320,-0.022124,0.655960
893,-0.153277,-1.118302,10.025977,-7.168175,0.220362,-8.879375,-4.587455,0.437522,81.762192,0.755358,-0.032756,-0.023310,0.654078
894,-0.243315,-1.069325,9.951928,-7.183647,0.246119,-8.993876,-4.828866,0.420804,81.464668,0.756988,-0.034317,-0.024709,0.652060
895,-0.265948,-1.201479,9.955200,-7.653445,-0.528899,-7.715899,-5.078114,0.392063,81.187599,0.758493,-0.035863,-0.026230,0.650165
896,-0.125924,-1.229922,9.914788,-6.987959,-2.264077,-7.828121,-5.323700,0.322188,80.933815,0.759872,-0.037154,-0.028004,0.648405
897,-0.056259,-1.216942,9.798050,-6.043022,-2.092261,-6.785127,-5.541979,0.226861,80.698204,0.761159,-0.038124,-0.029793,0.646758
898,-0.110943,-1.238661,9.770236,-7.229167,-2.510536,-4.851977,-5.763758,0.131417,80.512749,0.762158,-0.039110,-0.031615,0.645435
899,-0.023783,-1.310063,9.790060,-6.057174,-2.869704,-3.017118,-5.985348,0.028747,80.391472,0.762794,-0.040041,-0.033504,0.644531
900,-0.032956,-1.178557,9.696318,-1.925122,-2.212258,-1.834453,-6.118349,-0.064024,80.319992,0.763177,-0.040426,-0.034844,0.643982
901,-0.061089,-1.016065,9.794723,3.330043,-1.300796,0.273391,-6.094897,-0.124999,80.300331,0.763313,-0.039933,-0.035112,0.643837
902,-0.079515,-0.976834,9.932031,6.153619,-1.136139,1.991558,-5.936933,-0.161424,80.342094,0.763143,-0.038664,-0.034481,0.644150
903,0.071638,-0.828909,9.749699,10.725291,-1.745530,3.095008,-5.655895,-0.200634,80.431274,0.762744,-0.036546,-0.033191,0.644813
904,0.046873,-0.744670,9.849190,11.662869,-1.144976,4.397718,-5.283255,-0.236692,80.560173,0.762142,-0.033827,-0.031372,0.645764
905,0.112299,-0.780979,9.887576,9.603642,-2.173311,5.768080,-4.929585,-0.276671,80.733826,0.761273,-0.031204,-0.029692,0.647000
906,0.108614,-0.754133,9.875397,8.130649,-2.538751,6.531040,-4.635154,-0.337778,80.944679,0.760171,-0.028850,-0.028488,0.648456
907,0.102557,-0.739258,9.736915,7.051362,-2.371794,7.754342,-4.383696,-0.400608,81.188484,0.758864,-0.026768,-0.027539,0.650116
908,0.034042,-0.727632,9.823853,6.553813,-2.289215,8.004395,-4.158941,-0.458472,81.456184,0.757404,-0.024889,-0.026705,0.651925
909,0.074442,-0.640699,9.761842,6.964356,-3.551597,7.733130,-3.935970,-0.537049,81.724701,0.755935,-0.022907,-0.026010,0.653729
910,0.163009,-0.412051,9.746648,9.275934,-4.865127,8.736047,-3.668283,-0.658827,82.007912,0.754386,-0.020383,-0.025336,0.655625
911,0.164694,-0.483739,9.843850,8.346858,-5.535225,9.350917,-3.378591,-0.813336,82.319466,0.752669,-0.017525,-0.024743,0.657700
912,0.180450,-0.383588,9.961272,8.917943,-6.404980,8.412953,-3.095699,-0.995266,82.626358,0.750965,-0.014556,-0.024353,0.659732
913,0.316264,-0.311543,9.923200,10.068338,-7.323720,8.941445,-2.785081,-1.208967,82.927017,0.749284,-0.011227,-0.023994,0.661718
914,0.390404,-0.322186,9.895650,10.234130,-7.298926,8.989803,-2.453879,-1.438773,83.236778,0.747533,-0.007669,-0.023604,0.663761
915,0.258631,-0.402397,10.038290,7.545807,-5.183631,5.095316,-2.164074,-1.637187,83.479797,0.746145,-0.004580,-0.023229,0.665362
916,0.329671,-0.332896,9.894814,4.615132,-4.258566,0.315168,-1.964283,-1.791244,83.575623,0.745596,-0.002364,-0.023074,0.665995
917,0.331186,-0.275507,10.010871,0.818578,-5.111077,-4.999425,-1.871393,-1.949979,83.502808,0.746019,-0.000852,-0.023566,0.665507
918,0.416568,-0.288936,9.885563,-3.118720,-7.027522,-10.276911,-1.900893,-2.160614,83.254883,0.747452,0.000126,-0.025108,0.663841
919,0.434700,-0.174866,9.905147,-7.344268,-5.768147,-16.214676,-2.058084,-2.389053,82.820717,0.749955,0.000321,-0.027509,0.660916
920,0.544577,-0.182812,9.950661,-9.316478,-5.667819,-17.036016,-2.312082,-2.600696,82.273781,0.753094,-0.000265,-0.030357,0.657212
921,0.503821,-0.147816,9.872718,-10.476467,-6.962468,-15.816235,-2.616437,-2.834602,81.735252,0.756164,-0.001080,-0.033633,0.653516
922,0.558157,-0.237890,9.790285,-10.257601,-4.981558,-12.896964,-2.937825,-3.056690,81.266304,0.758821,-0.002084,-0.036922,0.650249
923,0.547414,-0.159332,9.938486,-10.799269,-2.136709,-11.007812,-3.267415,-3.196777,80.874382,0.761028,-0.003606,-0.039706,0.647493
924,0.662704,-0.313874,9.857069,-10.310726,-2.013926,-6.878069,-3.602700,-3.283748,80.580566,0.762670,-0.005448,-0.042163,0.645388
925,0.586022,-0.277261,9.860171,-5.231956,-1.595687,-3.833813,-3.851617,-3.355480,80.406044,0.763638,-0.006767,-0.044032,0.644105
926,0.731555,-0.245428,9.904552,4.214917,-2.142091,-0.147995,-3.864887,-3.422094,80.343918,0.763986,-0.006505,-0.044546,0.643660
927,0.875962,-0.158983,9.871784,15.452313,-4.183342,4.274874,-3.541656,-3.522815,80.419441,0.763574,-0.003754,-0.043403,0.644249
928,0.868104,-0.109338,9.886347,29.294737,-4.263411,10.606781,-2.811872,-3.649583,80.675354,0.762133,0.001913,-0.040139,0.646173
929,0.673598,0.079582,9.991432,43.240337,-4.760485,17.304962,-1.633540,-3.781724,81.146843,0.759388,0.010637,-0.034327,0.649644
930,0.693433,0.156504,9.918589,45.018936,-4.574038,20.128996,-0.204920,-3.927125,81.774338,0.755595,0.021077,-0.027073,0.654140
931,0.650349,0.245301,10.071722,39.499802,-1.818920,18.655779,1.158548,-4.038801,82.421211,0.751553,0.030816,-0.019851,0.658654
932,0.522605,0.365843,10.066955,31.119652,0.901186,15.315797,2.295391,-4.071029,82.987770,0.747932,0.038521,-0.013337,0.662522
933,0.465852,0.412871,9.989176,17.386511,2.861477,10.760230,3.072916,-4.028671,83.425644,0.745133,0.043383,-0.008399,0.665451
934,0.576132,0.441376,9.952309,4.047871,3.622564,4.777519,3.411808,-3.935251,83.690765,0.743497,0.045059,-0.005718,0.667195
935,0.664120,0.494657,9.975471,-2.521787,3.336410,1.076708,3.430237,-3.825195,83.795212,0.742925,0.044544,-0.004855,0.667874
936,0.623511,0.545246,9.879902,-3.775169,2.255957,0.315257,3.323428,-3.733475,83.823868,0.742834,0.043319,-0.004871,0.668055
937,0.610678,0.477499,9.846086,-5.812614,1.370697,0.834531,3.162176,-3.674203,83.846443,0.742784,0.041930,-0.005418,0.668195
938,0.626206,0.442452,9.868260,-5.421400,1.172083,0.646872,2.973222,-3.633207,83.873398,0.742710,0.040468,-0.006244,0.668360
939,0.571156,0.410505,9.927948,-5.181206,1.118832,0.331024,2.795363,-3.595892,83.891640,0.742678,0.039099,-0.007033,0.668469
940,0.552166,0.436117,9.914289,-4.029650,0.641228,0.595314,2.640797,-3.567319,83.908478,0.742642,0.037932,-0.007744,0.668569
941,0.573866,0.397806,9.918508,-4.431401,0.610137,0.842485,2.498232,-3.547562,83.933388,0.742550,0.036894,-0.008439,0.668721
942,0.545124,0.381988,9.898260,-4.035628,0.922416,0.963309,2.355190,-3.523318,83.964592,0.742421,0.035829,-0.009107,0.668913
943,0.576122,0.378209,9.922691,-4.564696,0.448799,1.367292,2.209414,-3.502033,84.004410,0.742240,0.034764,-0.009808,0.669160
944,0.620265,0.369150,9.921224,-5.002518,0.207520,1.740240,2.046771,-3.493027,84.056664,0.741986,0.033662,-0.010684,0.669485
945,0.580774,0.274970,9.891685,-5.715672,0.779887,1.688735,1.864621,-3.478533,84.114433,0.741705,0.032404,-0.011638,0.669842
946,0.559452,0.216129,9.907101,-5.716055,1.104259,1.553997,1.670766,-3.448809,84.169525,0.741445,0.030982,-0.012563,0.670180
947,0.565457,0.174975,9.947675,-5.564717,1.045194,1.161286,1.479984,-3.414241,84.215836,0.741234,0.029551,-0.013443,0.670461
948,0.535698,0.123162,9.959306,-5.435453,1.018878,0.531777,1.294925,-3.380528,84.244926,0.741119,0.028160,-0.014301,0.670630
949,0.528449,0.073693,9.927718,-4.866192,0.636361,-0.229074,1.122902,-3.353045,84.250565,0.741135,0.026888,-0.015128,0.670647
950,0.564984,-0.033272,9.926221,-5.569386,0.101223,-0.735142,0.949904,-3.340454,84.234688,0.741270,0.025693,-0.016063,0.670522
951,0.580648,-0.144386,9.887239,-5.835353,-0.158983,-1.320045,0.761827,-3.340899,84.200348,0.741512,0.024474,-0.017173,0.670273
952,0.620807,-0.172174,9.898034,-5.985126,-0.520475,-2.279803,0.568336,-3.351519,84.140114,0.741902,0.023274,-0.018386,0.669852
953,0.683760,-0.210866,9.901435,-6.790217,-0.969040,-3.165582,0.360761,-3.375594,84.049019,0.742471,0.022055,-0.019773,0.669224
954,0.751637,-0.232017,9.869578,-7.837130,-1.544428,-3.609249,0.123686,-3.416999,83.935715,0.743168,0.020740,-0.021446,0.668440
955,0.855239,-0.268967,9.793579,-8.116610,-2.602968,-4.650846,-0.133901,-3.486134,83.797783,0.744003,0.019444,-0.023421,0.667482
956,1.063562,-0.302865,9.701035,-9.593987,-4.128077,-6.571630,-0.417523,-3.599200,83.610924,0.745116,0.018219,-0.025836,0.666185
957,1.233046,-0.134173,9.728902,-9.300520,-5.269466,-7.757668,-0.717167,-3.758159,83.373154,0.746514,0.017136,-0.028647,0.664532
959,1.245010,-0.089317,9.719616,-9.826872,-5.230298,-8.235995,-1.018198,-3.937137,83.108643,0.748058,0.016140,-0.031595,0.662684
960,1.233029,-0.046721,9.736049,-8.895301,-3.817514,-10.200686,-1.308885,-4.094140,82.803757,0.749832,0.015060,-0.034341,0.660565
961,1.289380,0.070222,9.745716,-6.897168,-2.126181,-12.229547,-1.545218,-4.202413,82.431549,0.751985,0.014020,-0.036457,0.658022
962,1.299749,0.165236,9.825093,-5.404098,-0.104525,-13.512773,-1.718679,-4.251701,82.002617,0.754456,0.013023,-0.037825,0.655131
963,1.378198,-0.001779,9.690739,-6.527980,1.331936,-16.302050,-1.880663,-4.246792,81.503960,0.757317,0.011760,-0.038770,0.651789
964,1.579576,-0.102326,9.724391,-6.665297,2.164445,-20.870665,-2.054672,-4.209826,80.881119,0.760871,0.010185,-0.039572,0.647616
965,1.736089,-0.105004,9.644813,-8.037119,2.228328,-24.965284,-2.243631,-4.165247,80.112968,0.765216,0.008407,-0.040401,0.642450
966,1.845169,-0.094897,9.643636,-10.985719,2.766218,-29.334284,-2.494913,-4.119493,79.202972,0.770315,0.006142,-0.041555,0.636278
967,1.956172,-0.041474,9.572863,-13.968173,2.219639,-35.197353,-2.833455,-4.086573,78.122078,0.776300,0.003275,-0.043246,0.628870
968,2.024756,-0.120740,9.651413,-17.337040,1.994429,-40.452301,-3.264906,-4.083565,76.856216,0.783204,-0.000168,-0.045594,0.620090
969,2.024370,-0.044454,9.542415,-18.015707,2.405761,-44.147953,-3.753052,-4.096774,75.440979,0.790791,-0.004029,-0.048279,0.610165
970,2.177101,-0.069525,9.669241,-19.192337,1.833295,-46.239716,-4.264688,-4.131520,73.929710,0.798739,-0.008049,-0.051141,0.599446
