seq,ax,ay,az,wroll,wpitch,wyaw,roll,pitch,yaw,q0,q1,q2,q3
5508,-0.156891,-7.229904,-6.541232,-0.235336,0.207098,0.046874,-132.137131,0.921903,-178.981186,0.010959,-0.004863,0.913995,-0.405549
5510,-0.161185,-7.231616,-6.582655,-0.232400,0.228452,0.065197,-132.147598,0.926675,-178.979385,0.011003,-0.004861,0.914032,-0.405465
5511,-0.162443,-7.228836,-6.581238,-0.160908,0.213174,0.083534,-132.162781,0.924767,-178.986649,0.010962,-0.004812,0.914086,-0.405344
5512,-0.162800,-7.223236,-6.578485,-0.133661,0.075819,0.072882,-132.176041,0.924845,-178.992111,0.010943,-0.004769,0.914133,-0.405239
5513,-0.157793,-7.215962,-6.583833,-0.132378,0.005616,0.075952,-132.189606,0.926535,-178.994919,0.010946,-0.004742,0.914181,-0.405131
5514,-0.153622,-7.210093,-6.587988,-0.062472,-0.046252,0.094254,-132.203629,0.928472,-178.996506,0.010955,-0.004724,0.914231,-0.405019
5515,-0.150254,-7.204659,-6.585770,-0.001739,-0.075208,0.100325,-132.216110,0.930435,-178.997360,0.010967,-0.004711,0.914275,-0.404919
5517,-0.146537,-7.202279,-6.588239,-0.038668,-0.078204,0.085012,-132.228302,0.931518,-178.997726,0.010974,-0.004706,0.914318,-0.404822
5518,-0.156383,-7.213495,-6.584295,-0.049614,-0.065956,0.088024,-132.239655,0.933155,-178.998047,0.010985,-0.004698,0.914358,-0.404731
5519,-0.153527,-7.214008,-6.582314,-0.057442,-0.056777,0.075796,-132.248947,0.935385,-178.998489,0.011001,-0.004688,0.914390,-0.404657
5520,-0.158800,-7.220349,-6.576008,-0.083527,-0.059811,0.055943,-132.256683,0.937410,-178.998627,0.011017,-0.004680,0.914418,-0.404595
5521,-0.155983,-7.222291,-6.578363,-0.141612,-0.056746,0.029991,-132.264145,0.939114,-178.998215,0.011031,-0.004678,0.914444,-0.404535
5522,-0.157259,-7.223608,-6.580071,-0.120341,-0.039942,0.029972,-132.271957,0.939945,-178.997742,0.011039,-0.004680,0.914472,-0.404473
5524,-0.156650,-7.221406,-6.582957,-0.120438,-0.027716,0.029954,-132.279648,0.940478,-178.997635,0.011044,-0.004680,0.914499,-0.404411
5525,-0.155631,-7.217311,-6.582827,-0.111395,-0.029219,0.031457,-132.287704,0.940643,-178.997696,0.011044,-0.004679,0.914527,-0.404347
5526,-0.147768,-7.214827,-6.581846,-0.093200,-0.030698,0.031408,-132.295456,0.939553,-178.997726,0.011035,-0.004684,0.914554,-0.404285
5527,-0.147645,-7.215289,-6.581602,-0.056685,-0.030630,0.051174,-132.301956,0.937579,-178.997971,0.011018,-0.004689,0.914577,-0.404234
5528,-0.151104,-7.221834,-6.576227,-0.035383,-0.036677,0.064846,-132.305847,0.936647,-178.998474,0.011009,-0.004689,0.914591,-0.404203
5529,-0.148650,-7.221871,-6.571723,-0.009453,-0.048833,0.067841,-132.306976,0.936348,-178.998917,0.011005,-0.004687,0.914595,-0.404194
5531,-0.149014,-7.222222,-6.571006,0.002765,-0.051828,0.072357,-132.306717,0.936044,-178.999252,0.011001,-0.004685,0.914594,-0.404196
5532,-0.150307,-7.224979,-6.578616,-0.012498,-0.053302,0.082980,-132.306961,0.936219,-178.999695,0.011001,-0.004681,0.914595,-0.404194
5533,-0.154411,-7.221690,-6.579903,-0.023207,-0.042581,0.075308,-132.308624,0.937108,-179.000305,0.011006,-0.004673,0.914601,-0.404181
5534,-0.150392,-7.214767,-6.582858,-0.035480,-0.051697,0.073741,-132.312119,0.937862,-179.000854,0.011010,-0.004666,0.914613,-0.404153
5535,-0.151521,-7.205864,-6.588201,-0.046291,-0.054701,0.073691,-132.318314,0.938281,-179.001282,0.011012,-0.004662,0.914635,-0.404103
5536,-0.151603,-7.205132,-6.583142,-0.078485,-0.047026,0.069068,-132.325974,0.938754,-179.001724,0.011014,-0.004658,0.914662,-0.404042
5538,-0.153999,-7.203151,-6.576683,-0.048079,-0.060721,0.082761,-132.332336,0.939770,-179.002167,0.011020,-0.004651,0.914685,-0.403991
5539,-0.155713,-7.204321,-6.572975,-0.031371,-0.068323,0.091888,-132.336533,0.941890,-179.002579,0.011035,-0.004641,0.914699,-0.403958
5540,-0.156055,-7.201447,-6.577085,-0.046704,-0.065248,0.075079,-132.340652,0.944191,-179.002853,0.011052,-0.004631,0.914714,-0.403924
5541,-0.155372,-7.208873,-6.575610,-0.084918,-0.068272,0.059793,-132.345306,0.945924,-179.002762,0.011066,-0.004626,0.914730,-0.403887
5542,-0.159165,-7.205615,-6.581953,-0.074299,-0.074356,0.059772,-132.350296,0.947911,-179.002396,0.011083,-0.004622,0.914748,-0.403847
5543,-0.155938,-7.201274,-6.585640,-0.095766,-0.063654,0.042966,-132.357071,0.949626,-179.001907,0.011098,-0.004621,0.914771,-0.403793
5545,-0.155750,-7.201536,-6.590216,-0.100476,-0.068200,0.030726,-132.365265,0.950316,-179.001190,0.011106,-0.004625,0.914800,-0.403727
5546,-0.153814,-7.207633,-6.585347,-0.079217,-0.072738,0.033738,-132.372147,0.950611,-179.000244,0.011111,-0.004632,0.914824,-0.403672
5547,-0.151335,-7.212597,-6.586134,-0.019761,-0.068111,0.048944,-132.375793,0.950445,-178.999481,0.011113,-0.004639,0.914837,-0.403643
5548,-0.154999,-7.216853,-6.585589,0.004632,-0.066538,0.045841,-132.376877,0.950513,-178.998901,0.011115,-0.004644,0.914841,-0.403634
5549,-0.155404,-7.221922,-6.577269,0.016869,-0.068027,0.045801,-132.375366,0.951138,-178.998245,0.011123,-0.004646,0.914836,-0.403646
5550,-0.152358,-7.228477,-6.574186,0.020017,-0.083244,0.048804,-132.371216,0.951581,-178.997391,0.011129,-0.004651,0.914821,-0.403679
5552,-0.153048,-7.223937,-6.572281,0.020126,-0.090824,0.053325,-132.366409,0.952004,-178.996323,0.011137,-0.004658,0.914804,-0.403718
5553,-0.155622,-7.209451,-6.574288,0.007972,-0.090784,0.054805,-132.363907,0.953076,-178.995270,0.011149,-0.004662,0.914795,-0.403737
5554,-0.148799,-7.211166,-6.571870,0.015618,-0.102939,0.073058,-132.362885,0.953888,-178.994308,0.011159,-0.004667,0.914791,-0.403745
5555,-0.147521,-7.212223,-6.576425,0.033943,-0.101338,0.088236,-132.361496,0.953986,-178.993591,0.011162,-0.004672,0.914787,-0.403756
5556,-0.146529,-7.201297,-6.581251,0.044585,-0.095152,0.089672,-132.361679,0.953848,-178.993195,0.011163,-0.004676,0.914787,-0.403755
5557,-0.153073,-7.201561,-6.584503,0.030759,-0.082878,0.092652,-132.363876,0.954377,-178.993118,0.011167,-0.004675,0.914795,-0.403737
5559,-0.152553,-7.208852,-6.580018,0.007804,-0.093506,0.086492,-132.365738,0.955713,-178.992996,0.011178,-0.004671,0.914801,-0.403722
5560,-0.150872,-7.210902,-6.578175,0.000153,-0.064456,0.077274,-132.366394,0.956277,-178.992905,0.011183,-0.004670,0.914804,-0.403717
5561,-0.151755,-7.204656,-6.581338,-0.041081,-0.055239,0.046688,-132.368378,0.955762,-178.992844,0.011179,-0.004673,0.914811,-0.403701
5562,-0.147069,-7.202779,-6.575472,-0.056388,-0.047539,0.045086,-132.371735,0.954118,-178.992630,0.011166,-0.004680,0.914823,-0.403674
5563,-0.146040,-7.208457,-6.574718,-0.051824,-0.052031,0.046520,-132.374054,0.951655,-178.992447,0.011147,-0.004691,0.914831,-0.403656
5564,-0.144246,-7.202698,-6.571685,-0.042666,-0.045838,0.044895,-132.375595,0.948865,-178.992264,0.011126,-0.004702,0.914836,-0.403644
5566,-0.147729,-7.196751,-6.577185,-0.045753,-0.065591,0.049382,-132.378372,0.946656,-178.991974,0.011109,-0.004713,0.914846,-0.403622
5567,-0.144184,-7.204924,-6.573849,-0.030526,-0.074665,0.066079,-132.380829,0.945142,-178.991562,0.011098,-0.004721,0.914855,-0.403603
5568,-0.153610,-7.214083,-6.576290,-0.027454,-0.080705,0.073637,-132.381058,0.945024,-178.991211,0.011098,-0.004725,0.914856,-0.403601
5569,-0.150508,-7.206791,-6.574080,-0.041162,-0.066925,0.064430,-132.381226,0.945766,-178.990921,0.011105,-0.004724,0.914856,-0.403599
5570,-0.142792,-7.213895,-6.578624,-0.033513,-0.054641,0.071975,-132.381775,0.944588,-178.990952,0.011096,-0.004728,0.914858,-0.403595
5571,-0.145271,-7.221934,-6.573228,-0.025823,-0.054552,0.082558,-132.380463,0.942713,-178.991302,0.011080,-0.004732,0.914854,-0.403606
5573,-0.152534,-7.222558,-6.576131,-0.031836,-0.056016,0.085540,-132.378021,0.942516,-178.991776,0.011076,-0.004729,0.914845,-0.403625
5574,-0.144234,-7.218658,-6.573579,-0.008867,-0.046797,0.091571,-132.375732,0.942246,-178.992447,0.011072,-0.004724,0.914837,-0.403644
5575,-0.147309,-7.223706,-6.571455,0.032425,-0.055875,0.102166,-132.371902,0.941431,-178.993301,0.011063,-0.004720,0.914824,-0.403675
5576,-0.150916,-7.217813,-6.568038,0.032527,-0.068024,0.091418,-132.366989,0.941869,-178.993896,0.011064,-0.004713,0.914806,-0.403714
5577,-0.149435,-7.215496,-6.573439,0.028018,-0.075600,0.077624,-132.363403,0.942559,-178.993973,0.011070,-0.004710,0.914794,-0.403742
5578,-0.147298,-7.206948,-6.571973,0.035670,-0.072485,0.074502,-132.361465,0.942543,-178.993851,0.011070,-0.004710,0.914787,-0.403758
5580,-0.149669,-7.210126,-6.570683,0.026528,-0.083103,0.062226,-132.359924,0.942452,-178.993469,0.011071,-0.004714,0.914781,-0.403770
5581,-0.147924,-7.211399,-6.574143,0.031122,-0.081516,0.071313,-132.358322,0.942507,-178.992920,0.011073,-0.004718,0.914776,-0.403783
5582,-0.155564,-7.221443,-6.574863,0.047939,-0.075366,0.086520,-132.355804,0.943615,-178.992752,0.011083,-0.004715,0.914767,-0.403803
5583,-0.151640,-7.217478,-6.568052,0.043425,-0.060070,0.069694,-132.351913,0.944978,-178.992798,0.011094,-0.004709,0.914753,-0.403834
5584,-0.150352,-7.216630,-6.566704,0.014502,-0.056967,0.062007,-132.348343,0.945026,-178.992783,0.011094,-0.004709,0.914741,-0.403862
5585,-0.154446,-7.215487,-6.575097,-0.025133,-0.041663,0.052801,-132.347061,0.945029,-178.992844,0.011094,-0.004708,0.914736,-0.403872
5586,-0.153325,-7.208724,-6.576417,-0.051087,-0.038573,0.034449,-132.348816,0.944919,-178.992828,0.011093,-0.004709,0.914742,-0.403858
5587,-0.149304,-7.193768,-6.579028,-0.066427,-0.046152,0.037446,-132.353821,0.943948,-178.992645,0.011086,-0.004714,0.914760,-0.403818
5588,-0.151327,-7.198843,-6.583513,-0.063500,-0.043043,0.052646,-132.360626,0.942992,-178.992645,0.011078,-0.004718,0.914784,-0.403764
5589,-0.152622,-7.208417,-6.584117,-0.057488,-0.030788,0.043441,-132.366089,0.942440,-178.992859,0.011073,-0.004719,0.914803,-0.403721
5590,-0.150089,-7.215080,-6.578513,-0.037676,-0.032265,0.051018,-132.368652,0.941583,-178.993164,0.011065,-0.004720,0.914812,-0.403700
5591,-0.149909,-7.216086,-6.573205,-0.036119,-0.042892,0.044853,-132.368729,0.940520,-178.993301,0.011056,-0.004723,0.914813,-0.403700
5592,-0.150722,-7.219466,-6.571646,-0.045211,-0.039788,0.028009,-132.367676,0.939403,-178.993057,0.011048,-0.004728,0.914809,-0.403708
5593,-0.150260,-7.218293,-6.571640,-0.046662,-0.045842,0.035582,-132.366440,0.938309,-178.992676,0.011040,-0.004735,0.914805,-0.403718
5594,-0.150947,-7.211790,-6.571908,-0.013041,-0.051896,0.056890,-132.365509,0.937808,-178.992477,0.011037,-0.004738,0.914801,-0.403726
5595,-0.149745,-7.203156,-6.572267,-0.000826,-0.062529,0.059888,-132.365448,0.937782,-178.992371,0.011037,-0.004739,0.914801,-0.403726
5596,-0.149749,-7.205064,-6.578650,-0.005434,-0.064002,0.068986,-132.366653,0.937880,-178.992279,0.011038,-0.004740,0.914805,-0.403717
5597,-0.149450,-7.217052,-6.579341,-0.000870,-0.063948,0.075031,-132.367249,0.938100,-178.992325,0.011040,-0.004739,0.914807,-0.403712
5598,-0.151823,-7.210000,-6.579640,-0.005448,-0.066952,0.070400,-132.367416,0.938658,-178.992355,0.011044,-0.004737,0.914808,-0.403710
5599,-0.155914,-7.208797,-6.579718,-0.016154,-0.082179,0.062737,-132.368668,0.940212,-178.992020,0.011058,-0.004734,0.914812,-0.403700
5600,-0.156573,-7.213810,-6.578995,-0.022268,-0.080632,0.065766,-132.369705,0.942500,-178.991470,0.011078,-0.004730,0.914816,-0.403692
5601,-0.160910,-7.221222,-6.578576,-0.014613,-0.080624,0.073385,-132.369308,0.945519,-178.991028,0.011103,-0.004723,0.914814,-0.403694
5602,-0.160533,-7.213419,-6.579068,-0.032898,-0.077571,0.068807,-132.369141,0.948989,-178.990662,0.011132,-0.004714,0.914814,-0.403695
5603,-0.157444,-7.219533,-6.579481,-0.051191,-0.077558,0.067265,-132.369858,0.951681,-178.990280,0.011155,-0.004708,0.914816,-0.403690
5604,-0.153131,-7.219913,-6.578919,-0.055733,-0.074471,0.070278,-132.370270,0.953106,-178.989929,0.011168,-0.004705,0.914817,-0.403686
5605,-0.153426,-7.215268,-6.579658,-0.057233,-0.066794,0.068700,-132.371201,0.953742,-178.989731,0.011174,-0.004705,0.914821,-0.403678
5606,-0.148803,-7.208914,-6.582360,-0.052668,-0.065208,0.074738,-132.373505,0.953656,-178.989716,0.011173,-0.004705,0.914829,-0.403660
5607,-0.150958,-7.203348,-6.579640,-0.028295,-0.066668,0.077718,-132.376450,0.953325,-178.989838,0.011170,-0.004706,0.914839,-0.403637
5608,-0.151653,-7.198921,-6.577252,-0.013087,-0.063557,0.083759,-132.379013,0.953539,-178.990082,0.011170,-0.004704,0.914848,-0.403616
5609,-0.152387,-7.206038,-6.577611,-0.008542,-0.055872,0.082173,-132.380630,0.953897,-178.990494,0.011172,-0.004699,0.914854,-0.403603
5611,-0.150705,-7.215199,-6.577199,-0.026841,-0.058867,0.080584,-132.380768,0.953983,-178.990906,0.011171,-0.004696,0.914854,-0.403602
5612,-0.151274,-7.219269,-6.575272,-0.046622,-0.051176,0.078990,-132.379929,0.953785,-178.991302,0.011168,-0.004693,0.914851,-0.403609
5613,-0.148261,-7.218065,-6.577630,-0.064873,-0.052635,0.068234,-132.379517,0.953003,-178.991638,0.011161,-0.004693,0.914850,-0.403612
5614,-0.146192,-7.221971,-6.575896,-0.070911,-0.057133,0.060515,-132.379318,0.951334,-178.991699,0.011147,-0.004698,0.914849,-0.403614
5615,-0.147911,-7.214702,-6.580282,-0.078491,-0.049425,0.060427,-132.379990,0.949545,-178.991714,0.011133,-0.004705,0.914852,-0.403609
5616,-0.147063,-7.207927,-6.579197,-0.057127,-0.053926,0.061869,-132.382172,0.947969,-178.991821,0.011120,-0.004710,0.914860,-0.403592
5617,-0.144252,-7.203681,-6.578794,-0.052569,-0.058419,0.058725,-132.384781,0.946040,-178.991791,0.011104,-0.004717,0.914869,-0.403571
5618,-0.140779,-7.206156,-6.576074,-0.048005,-0.055268,0.072350,-132.386932,0.943428,-178.991882,0.011083,-0.004726,0.914876,-0.403554
5619,-0.143784,-7.210545,-6.579614,-0.031214,-0.055170,0.076820,-132.388046,0.941034,-178.992188,0.011063,-0.004732,0.914880,-0.403545
5620,-0.142314,-7.218800,-6.582100,-0.040345,-0.068811,0.073667,-132.388336,0.939131,-178.992340,0.011047,-0.004737,0.914882,-0.403543
5621,-0.142840,-7.215087,-6.582479,-0.049472,-0.068719,0.070512,-132.388763,0.937260,-178.992249,0.011032,-0.004744,0.914883,-0.403540
5622,-0.146711,-7.209827,-6.585333,-0.023536,-0.068639,0.076529,-132.390121,0.936171,-178.992218,0.011024,-0.004749,0.914888,-0.403529
5623,-0.154572,-7.223582,-6.583638,-0.032674,-0.073168,0.079527,-132.390442,0.937021,-178.992218,0.011031,-0.004746,0.914889,-0.403527
5624,-0.150633,-7.223037,-6.582965,-0.047875,-0.068554,0.079485,-132.389572,0.938470,-178.992218,0.011042,-0.004741,0.914886,-0.403534
5625,-0.144738,-7.215303,-6.575162,-0.035605,-0.071541,0.085518,-132.388672,0.938500,-178.992310,0.011042,-0.004740,0.914883,-0.403541
5626,-0.148001,-7.221075,-6.576052,-0.027901,-0.066894,0.086965,-132.386917,0.938196,-178.992493,0.011039,-0.004739,0.914877,-0.403555
5627,-0.143309,-7.226080,-6.572219,-0.061362,-0.069870,0.073148,-132.384277,0.937504,-178.992554,0.011033,-0.004741,0.914867,-0.403576
5628,-0.137668,-7.218235,-6.580571,-0.064327,-0.069769,0.074561,-132.383102,0.935200,-178.992432,0.011016,-0.004750,0.914863,-0.403585
5629,-0.141439,-7.208278,-6.578130,-0.052099,-0.065087,0.085127,-132.384308,0.932810,-178.992554,0.010996,-0.004757,0.914868,-0.403576
5630,-0.147283,-7.208519,-6.580043,-0.062784,-0.048223,0.075886,-132.386368,0.931738,-178.992966,0.010986,-0.004758,0.914875,-0.403560
5631,-0.144399,-7.208700,-6.580352,-0.049058,-0.051206,0.077337,-132.388504,0.930931,-178.993469,0.010978,-0.004757,0.914883,-0.403543
5632,-0.148493,-7.208883,-6.578859,-0.046006,-0.046565,0.069636,-132.390091,0.930254,-178.993927,0.010971,-0.004756,0.914888,-0.403530
5633,-0.148053,-7.208623,-6.576321,-0.044466,-0.031251,0.058896,-132.391083,0.929705,-178.994400,0.010964,-0.004754,0.914892,-0.403523
5634,-0.146026,-7.212801,-6.579891,-0.058176,-0.040347,0.048147,-132.391922,0.928483,-178.994705,0.010954,-0.004756,0.914895,-0.403516
5635,-0.143072,-7.210759,-6.578877,-0.029161,-0.047905,0.064854,-132.392532,0.926827,-178.994873,0.010940,-0.004761,0.914897,-0.403511
5636,-0.143064,-7.212612,-6.577548,-0.039812,-0.041722,0.054085,-132.392563,0.924901,-178.995087,0.010924,-0.004766,0.914897,-0.403511
5637,-0.144620,-7.211603,-6.578784,-0.032150,-0.043175,0.060108,-132.392548,0.923179,-178.995316,0.010909,-0.004770,0.914897,-0.403512
5638,-0.150267,-7.212742,-6.576714,-0.015329,-0.056856,0.060050,-132.391998,0.922850,-178.995407,0.010906,-0.004770,0.914895,-0.403516
5639,-0.153859,-7.212927,-6.576779,-0.012234,-0.053777,0.055441,-132.390793,0.923989,-178.995316,0.010916,-0.004767,0.914891,-0.403526
5640,-0.156772,-7.214758,-6.580925,-0.042716,-0.049189,0.049325,-132.390335,0.925834,-178.995209,0.010931,-0.004761,0.914889,-0.403529
5641,-0.156656,-7.207066,-6.579855,-0.044231,-0.052236,0.053898,-132.391373,0.927984,-178.995102,0.010948,-0.004755,0.914893,-0.403520
5642,-0.155755,-7.210548,-6.580796,-0.039652,-0.046123,0.050836,-132.392746,0.929877,-178.995071,0.010963,-0.004748,0.914898,-0.403509
5643,-0.152505,-7.208413,-6.583875,-0.064073,-0.055257,0.046234,-132.394684,0.930991,-178.994919,0.010973,-0.004746,0.914904,-0.403494
5644,-0.149278,-7.210081,-6.581523,-0.048821,-0.062846,0.049242,-132.396820,0.931247,-178.994537,0.010976,-0.004748,0.914912,-0.403477
5645,-0.147387,-7.210725,-6.578956,-0.042701,-0.065843,0.041553,-132.397736,0.930783,-178.993973,0.010974,-0.004754,0.914915,-0.403469
5646,-0.148474,-7.211204,-6.577890,-0.051824,-0.071891,0.039965,-132.398117,0.930198,-178.993179,0.010972,-0.004763,0.914916,-0.403466
5647,-0.148763,-7.209219,-6.576334,-0.054840,-0.084048,0.044486,-132.398529,0.930087,-178.992172,0.010975,-0.004771,0.914918,-0.403463
5648,-0.145933,-7.207524,-6.574719,-0.038019,-0.079412,0.045947,-132.398712,0.929790,-178.991165,0.010976,-0.004780,0.914918,-0.403461
5649,-0.149019,-7.212914,-6.571509,-0.056270,-0.064096,0.042832,-132.398010,0.929298,-178.990356,0.010975,-0.004789,0.914916,-0.403467
5650,-0.154007,-7.216268,-6.571472,-0.047023,-0.071690,0.045843,-132.396255,0.929912,-178.989624,0.010983,-0.004792,0.914910,-0.403481
5651,-0.155773,-7.224583,-6.573895,-0.040804,-0.068621,0.054976,-132.393417,0.931691,-178.988968,0.010999,-0.004791,0.914900,-0.403503
5652,-0.154352,-7.231773,-6.573975,-0.036083,-0.059448,0.056480,-132.389267,0.933424,-178.988556,0.011015,-0.004788,0.914885,-0.403536
5653,-0.160671,-7.233758,-6.574446,-0.014557,-0.051812,0.065624,-132.384003,0.935712,-178.988449,0.011034,-0.004780,0.914866,-0.403578
5654,-0.157958,-7.228138,-6.576940,0.006944,-0.071650,0.064096,-132.378937,0.938660,-178.988312,0.011058,-0.004770,0.914848,-0.403618
5655,-0.151289,-7.225448,-6.576464,-0.003633,-0.068572,0.062538,-132.374985,0.940264,-178.987930,0.011072,-0.004767,0.914834,-0.403649
5656,-0.149614,-7.220445,-6.581265,-0.002042,-0.070047,0.054852,-132.372635,0.940406,-178.987503,0.011075,-0.004770,0.914826,-0.403668
5657,-0.151711,-7.214561,-6.583003,0.008652,-0.066944,0.056322,-132.372025,0.940480,-178.987061,0.011077,-0.004773,0.914824,-0.403673
5658,-0.149716,-7.213115,-6.581403,-0.002038,-0.068419,0.059319,-132.372223,0.940611,-178.986694,0.011079,-0.004775,0.914825,-0.403671
5659,-0.146981,-7.213745,-6.579183,-0.009667,-0.057676,0.057724,-132.372391,0.939965,-178.986465,0.011075,-0.004780,0.914825,-0.403670
5660,-0.146872,-7.216165,-6.576042,0.002565,-0.060658,0.059173,-132.371613,0.938828,-178.986298,0.011067,-0.004785,0.914822,-0.403676
5661,-0.146650,-7.221005,-6.569881,-0.003470,-0.062114,0.052991,-132.369019,0.937680,-178.986008,0.011059,-0.004791,0.914813,-0.403697
5662,-0.144043,-7.220710,-6.568027,-0.014048,-0.060513,0.043751,-132.365448,0.935988,-178.985519,0.011047,-0.004800,0.914801,-0.403726
5663,-0.146144,-7.222049,-6.570714,-0.030735,-0.058911,0.043666,-132.362488,0.934138,-178.984970,0.011034,-0.004811,0.914790,-0.403750
5664,-0.147319,-7.221159,-6.573268,-0.029129,-0.049690,0.055799,-132.360458,0.932877,-178.984711,0.011025,-0.004817,0.914783,-0.403766
5665,-0.149350,-7.219930,-6.574995,-0.041277,-0.043530,0.048106,-132.359421,0.932042,-178.984680,0.011019,-0.004820,0.914780,-0.403774
5666,-0.151807,-7.215092,-6.575652,-0.053451,-0.032805,0.046533,-132.359726,0.931620,-178.984787,0.011015,-0.004821,0.914781,-0.403772
5667,-0.150211,-7.216699,-6.576705,-0.056482,-0.052601,0.049538,-132.360794,0.931479,-178.984802,0.011014,-0.004822,0.914784,-0.403763
5668,-0.146471,-7.213691,-6.572907,-0.047301,-0.060176,0.040323,-132.361557,0.930806,-178.984406,0.011010,-0.004827,0.914787,-0.403757
5669,-0.146942,-7.216939,-6.570257,-0.057936,-0.072322,0.020417,-132.361572,0.929546,-178.983429,0.011003,-0.004839,0.914787,-0.403757
5670,-0.146450,-7.218670,-6.569400,-0.076177,-0.076838,0.020348,-132.361176,0.928269,-178.982010,0.010998,-0.004855,0.914786,-0.403760
5671,-0.143881,-7.207146,-6.576128,-0.053262,-0.084399,0.024850,-132.362305,0.926804,-178.980515,0.010991,-0.004872,0.914790,-0.403751
5672,-0.145247,-7.204605,-6.575315,-0.044134,-0.064491,0.032402,-132.364929,0.925255,-178.979340,0.010983,-0.004888,0.914799,-0.403730
5673,-0.149317,-7.207111,-6.573214,-0.034994,-0.055281,0.039972,-132.366837,0.924443,-178.978683,0.010979,-0.004896,0.914806,-0.403715
5674,-0.156464,-7.204149,-6.579376,-0.021288,-0.041523,0.065887,-132.368759,0.925485,-178.978699,0.010987,-0.004892,0.914812,-0.403700
5675,-0.153452,-7.201673,-6.582942,0.012218,-0.039983,0.076554,-132.371399,0.927402,-178.979340,0.011000,-0.004881,0.914822,-0.403679
5676,-0.152448,-7.211038,-6.576758,-0.001553,-0.041483,0.084156,-132.372620,0.928872,-178.980164,0.011009,-0.004869,0.914826,-0.403669
5677,-0.156268,-7.212967,-6.575979,-0.003064,-0.041464,0.096341,-132.372147,0.930922,-178.981155,0.011022,-0.004854,0.914824,-0.403672
5678,-0.151739,-7.216050,-6.579506,0.016794,-0.039914,0.091737,-132.371155,0.932843,-178.982254,0.011033,-0.004838,0.914821,-0.403680
5679,-0.149612,-7.220038,-6.573312,0.019892,-0.041398,0.082534,-132.368805,0.933510,-178.983185,0.011035,-0.004828,0.914813,-0.403699
5680,-0.154843,-7.218134,-6.569796,0.016918,-0.045940,0.074864,-132.365295,0.934439,-178.983826,0.011041,-0.004819,0.914800,-0.403727
5681,-0.161523,-7.229200,-6.569531,0.030761,-0.041358,0.073331,-132.360428,0.936952,-178.984344,0.011059,-0.004806,0.914783,-0.403766
5682,-0.158704,-7.226806,-6.567798,0.029367,-0.044415,0.050444,-132.354477,0.939614,-178.984604,0.011080,-0.004794,0.914762,-0.403813
5683,-0.158706,-7.221197,-6.564797,0.005069,-0.047462,0.038229,-132.349518,0.941393,-178.984390,0.011095,-0.004789,0.914744,-0.403852
5684,-0.154164,-7.230065,-6.563489,-0.010060,-0.058125,0.018369,-132.344666,0.942154,-178.983643,0.011104,-0.004792,0.914727,-0.403891
5685,-0.151895,-7.239439,-6.561981,-0.023612,-0.048932,0.012219,-132.338425,0.941522,-178.982559,0.011103,-0.004802,0.914705,-0.403941
5686,-0.146310,-7.233993,-6.563941,-0.024956,-0.050400,0.004522,-132.332382,0.939471,-178.981415,0.011091,-0.004818,0.914684,-0.403989
5687,-0.146163,-7.234235,-6.565625,-0.041591,-0.062535,0.007489,-132.327866,0.936744,-178.980072,0.011074,-0.004838,0.914668,-0.404025
5688,-0.151441,-7.238092,-6.570051,-0.049084,-0.073159,0.019631,-132.324249,0.935313,-178.978622,0.011068,-0.004854,0.914655,-0.404054
5689,-0.152677,-7.227288,-6.569736,-0.045933,-0.079224,0.033319,-132.322052,0.935453,-178.977264,0.011074,-0.004864,0.914648,-0.404071
5690,-0.146785,-7.217187,-6.572664,-0.050476,-0.079173,0.039367,-132.322372,0.935284,-178.976120,0.011076,-0.004874,0.914649,-0.404069
5691,-0.145044,-7.217010,-6.568776,-0.055046,-0.079103,0.033185,-132.323792,0.934011,-178.974976,0.011070,-0.004888,0.914654,-0.404057
5692,-0.140496,-7.213915,-6.571352,-0.053516,-0.060705,0.030039,-132.325409,0.931536,-178.973953,0.011054,-0.004905,0.914659,-0.404045
5693,-0.131956,-7.210126,-6.568675,-0.018430,-0.052956,0.029908,-132.327011,0.926911,-178.973236,0.011019,-0.004927,0.914665,-0.404032
5694,-0.126111,-7.209484,-6.575800,0.004426,-0.048223,0.029739,-132.328491,0.920209,-178.972672,0.010968,-0.004955,0.914671,-0.404021
5695,-0.130561,-7.216902,-6.575865,0.027279,-0.052648,0.034148,-132.329254,0.913615,-178.972168,0.010917,-0.004982,0.914673,-0.404016
5696,-0.134248,-7.214675,-6.580155,0.018093,-0.044893,0.044692,-132.329681,0.908680,-178.971878,0.010879,-0.005002,0.914675,-0.404013
5697,-0.135302,-7.217134,-6.579445,0.019578,-0.046310,0.046100,-132.330582,0.904801,-178.971786,0.010848,-0.005017,0.914678,-0.404006
5698,-0.136545,-7.220201,-6.581751,-0.004867,-0.043160,0.050570,-132.331451,0.901520,-178.971786,0.010822,-0.005028,0.914682,-0.403999
5699,-0.139047,-7.219909,-6.583123,-0.029313,-0.047651,0.059632,-132.333221,0.899140,-178.971924,0.010802,-0.005036,0.914688,-0.403985
5700,-0.144871,-7.207325,-6.582292,-0.030904,-0.047590,0.062618,-132.336700,0.898341,-178.972168,0.010795,-0.005037,0.914700,-0.403958
5701,-0.136703,-7.206255,-6.584557,-0.002015,-0.061257,0.065600,-132.341095,0.897522,-178.972321,0.010787,-0.005039,0.914716,-0.403923
5702,-0.138771,-7.204545,-6.584116,-0.002125,-0.065753,0.067039,-132.345276,0.896109,-178.972321,0.010776,-0.005045,0.914730,-0.403889
5703,-0.139058,-7.207994,-6.577244,0.005427,-0.070257,0.070011,-132.348160,0.895260,-178.972229,0.010769,-0.005048,0.914741,-0.403867
5704,-0.142864,-7.207673,-6.571167,0.005399,-0.054936,0.071471,-132.349030,0.895015,-178.972290,0.010767,-0.005049,0.914744,-0.403860
5705,-0.140842,-7.214737,-6.571477,-0.009853,-0.056407,0.068358,-132.348770,0.894881,-178.972473,0.010765,-0.005048,0.914743,-0.403862
5706,-0.143702,-7.211504,-6.567438,-0.032710,-0.048724,0.057618,-132.348343,0.894639,-178.972580,0.010763,-0.005048,0.914741,-0.403865
5707,-0.144290,-7.213485,-6.566239,-0.031142,-0.054784,0.060620,-132.347839,0.894808,-178.972610,0.010764,-0.005047,0.914740,-0.403869
5708,-0.153451,-7.213923,-6.570744,-0.058571,-0.048662,0.037711,-132.347916,0.896155,-178.972412,0.010776,-0.005044,0.914740,-0.403868
5709,-0.152739,-7.224545,-6.576612,-0.058535,-0.056295,0.031609,-132.348480,0.898329,-178.971878,0.010795,-0.005040,0.914742,-0.403864
5710,-0.150708,-7.225774,-6.574885,-0.056952,-0.054763,0.025498,-132.348282,0.899905,-178.971115,0.010810,-0.005041,0.914741,-0.403865
5711,-0.154927,-7.233876,-6.573619,-0.049232,-0.056287,0.033123,-132.346664,0.901714,-178.970352,0.010828,-0.005040,0.914735,-0.403878
5712,-0.155469,-7.238423,-6.573137,-0.050633,-0.047141,0.023975,-132.343567,0.904014,-178.969650,0.010849,-0.005038,0.914724,-0.403902
5714,-0.155539,-7.233073,-6.573511,-0.030672,-0.048676,0.045345,-132.340332,0.906367,-178.969177,0.010869,-0.005033,0.914713,-0.403928
5715,-0.156911,-7.219027,-6.575254,-0.026035,-0.057842,0.036200,-132.339005,0.909117,-178.968735,0.010893,-0.005027,0.914708,-0.403938
5716,-0.158541,-7.218736,-6.579021,-0.003142,-0.057858,0.034691,-132.339325,0.912166,-178.968109,0.010919,-0.005021,0.914709,-0.403935
5717,-0.156943,-7.213696,-6.578400,-0.003162,-0.053293,0.045387,-132.340179,0.915142,-178.967651,0.010945,-0.005014,0.914712,-0.403928
5718,-0.154127,-7.214074,-6.573648,0.013607,-0.053292,0.062173,-132.340591,0.917624,-178.967560,0.010965,-0.005006,0.914713,-0.403924
5719,-0.146164,-7.213773,-6.569045,0.001413,-0.048683,0.049931,-132.339874,0.918406,-178.967545,0.010971,-0.005003,0.914711,-0.403930
5720,-0.142100,-7.226002,-6.564485,0.009111,-0.034886,0.052910,-132.337082,0.917016,-178.967636,0.010960,-0.005007,0.914701,-0.403952
5721,-0.143943,-7.225320,-6.561989,-0.016710,-0.024135,0.054358,-132.332779,0.915085,-178.968033,0.010943,-0.005011,0.914686,-0.403987
5722,-0.140401,-7.226674,-6.565296,-0.027279,-0.024063,0.045120,-132.329269,0.912769,-178.968491,0.010923,-0.005015,0.914673,-0.404015
5723,-0.143891,-7.227140,-6.572349,-0.034825,-0.028570,0.032833,-132.327209,0.910317,-178.968674,0.010903,-0.005022,0.914666,-0.404032
5724,-0.148062,-7.232030,-6.577716,-0.013405,-0.033099,0.041933,-132.325867,0.909144,-178.968719,0.010894,-0.005025,0.914661,-0.404043
5725,-0.148407,-7.224934,-6.577377,-0.030156,-0.042218,0.046470,-132.325302,0.909040,-178.968765,0.010893,-0.005025,0.914659,-0.404047
5726,-0.143460,-7.235088,-6.577988,-0.002649,-0.048274,0.064728,-132.324326,0.908740,-178.968872,0.010890,-0.005025,0.914656,-0.404055
5727,-0.148117,-7.231888,-6.573981,0.005049,-0.048226,0.055519,-132.321747,0.908580,-178.968994,0.010888,-0.005025,0.914647,-0.404076
5728,-0.147832,-7.226413,-6.574109,-0.025416,-0.051242,0.047847,-132.320084,0.908918,-178.968887,0.010891,-0.005024,0.914641,-0.404089
5729,-0.138142,-7.216105,-6.574558,-0.049824,-0.048127,0.038623,-132.321030,0.907603,-178.968628,0.010882,-0.005031,0.914644,-0.404081
5730,-0.142262,-7.213040,-6.574520,-0.028489,-0.040421,0.043117,-132.323441,0.905337,-178.968475,0.010864,-0.005041,0.914653,-0.404063
5731,-0.148481,-7.207672,-6.572354,-0.040740,-0.051054,0.033910,-132.326187,0.904669,-178.968231,0.010860,-0.005045,0.914663,-0.404041
5732,-0.145378,-7.213099,-6.574455,-0.059090,-0.057120,0.032343,-132.329315,0.904587,-178.967667,0.010861,-0.005050,0.914674,-0.404016
5733,-0.143137,-7.212345,-6.572609,-0.053009,-0.060120,0.024657,-132.332047,0.903719,-178.966873,0.010856,-0.005060,0.914683,-0.403994
5734,-0.150160,-7.218974,-6.569468,-0.054525,-0.064659,0.033770,-132.333450,0.903676,-178.965988,0.010859,-0.005067,0.914688,-0.403983
5735,-0.147572,-7.217745,-6.567254,-0.080423,-0.064633,0.024585,-132.334076,0.904355,-178.965027,0.010868,-0.005073,0.914690,-0.403977
5736,-0.142913,-7.204760,-6.570572,-0.101783,-0.053905,0.013852,-132.336975,0.903611,-178.964005,0.010866,-0.005084,0.914701,-0.403954
5737,-0.144534,-7.198981,-6.571940,-0.072847,-0.046221,0.039735,-132.342026,0.902425,-178.963394,0.010858,-0.005093,0.914718,-0.403914
5738,-0.144514,-7.207141,-6.573729,-0.051539,-0.035491,0.062571,-132.346146,0.901908,-178.963577,0.010853,-0.005094,0.914733,-0.403881
5739,-0.145811,-7.205675,-6.576769,-0.042428,-0.036972,0.053367,-132.349411,0.901668,-178.964005,0.010849,-0.005092,0.914744,-0.403855
5740,-0.144437,-7.207294,-6.579030,-0.024172,-0.044556,0.060949,-132.352585,0.901508,-178.964325,0.010847,-0.005090,0.914756,-0.403830
5741,-0.142627,-7.216688,-6.578977,-0.008942,-0.056710,0.059365,-132.354202,0.901166,-178.964447,0.010844,-0.005090,0.914761,-0.403817
5742,-0.143803,-7.219380,-6.577908,-0.027243,-0.064286,0.045571,-132.354416,0.900759,-178.964127,0.010842,-0.005094,0.914762,-0.403815
5743,-0.146176,-7.209377,-6.572670,-0.011972,-0.079500,0.047047,-132.354660,0.901015,-178.963379,0.010846,-0.005099,0.914763,-0.403813
5744,-0.145619,-7.205993,-6.573030,-0.004354,-0.079460,0.056160,-132.355316,0.901872,-178.962585,0.010856,-0.005103,0.914765,-0.403808
5745,-0.150100,-7.204090,-6.571669,-0.012004,-0.077904,0.056128,-132.356369,0.903381,-178.961929,0.010870,-0.005103,0.914769,-0.403799
5746,-0.152726,-7.200331,-6.576304,-0.008997,-0.056529,0.065271,-132.358368,0.905733,-178.961655,0.010890,-0.005097,0.914776,-0.403783
5747,-0.153433,-7.201044,-6.576436,-0.016690,-0.054998,0.059162,-132.361206,0.908256,-178.961716,0.010910,-0.005088,0.914786,-0.403760
5748,-0.153025,-7.207940,-6.581475,-0.044213,-0.050413,0.036267,-132.364304,0.910255,-178.961533,0.010926,-0.005083,0.914797,-0.403735
5749,-0.148931,-7.218912,-6.580292,-0.041177,-0.054969,0.042348,-132.366287,0.911236,-178.961121,0.010935,-0.005083,0.914804,-0.403719
5750,-0.148457,-7.224277,-6.583043,-0.050307,-0.054935,0.027050,-132.366837,0.911381,-178.960541,0.010938,-0.005087,0.914805,-0.403715
5751,-0.146790,-7.231058,-6.575406,-0.060914,-0.071679,0.025478,-132.365906,0.911152,-178.959518,0.010940,-0.005096,0.914802,-0.403722
5752,-0.143933,-7.230647,-6.574390,-0.059272,-0.079258,0.020841,-132.363541,0.910460,-178.958115,0.010940,-0.005109,0.914794,-0.403741
5753,-0.144499,-7.226685,-6.572240,-0.033222,-0.068518,0.042139,-132.360916,0.909638,-178.956940,0.010937,-0.005121,0.914784,-0.403762
5754,-0.145686,-7.221336,-6.569863,-0.049911,-0.063889,0.042080,-132.358673,0.909220,-178.956192,0.010937,-0.005128,0.914777,-0.403780
5755,-0.146971,-7.221432,-6.563620,-0.029969,-0.053163,0.054237,-132.356110,0.909194,-178.955765,0.010938,-0.005131,0.914767,-0.403800
5756,-0.149445,-7.217164,-6.562469,-0.019176,-0.048552,0.055723,-132.352737,0.909745,-178.955688,0.010943,-0.005130,0.914756,-0.403827
5757,-0.150520,-7.213488,-6.566473,-0.016046,-0.040898,0.061797,-132.350403,0.910767,-178.955856,0.010951,-0.005125,0.914747,-0.403845
5758,-0.149437,-7.213701,-6.566574,-0.041933,-0.053079,0.061768,-132.349380,0.911874,-178.956055,0.010959,-0.005119,0.914744,-0.403854
5759,-0.152478,-7.219344,-6.566255,-0.031184,-0.057636,0.041906,-132.348068,0.913148,-178.955811,0.010970,-0.005116,0.914739,-0.403864
5760,-0.152553,-7.220523,-6.568303,-0.038736,-0.054569,0.054096,-132.346283,0.914729,-178.955460,0.010984,-0.005113,0.914733,-0.403878
5761,-0.150140,-7.218868,-6.571034,-0.037148,-0.062176,0.052543,-132.345245,0.916070,-178.955185,0.010996,-0.005111,0.914729,-0.403886
5762,-0.149256,-7.222342,-6.570769,-0.034039,-0.054514,0.054033,-132.344269,0.916846,-178.954910,0.011003,-0.005110,0.914725,-0.403894
5763,-0.151190,-7.226013,-6.574411,-0.012612,-0.049906,0.058575,-132.342621,0.917643,-178.954849,0.011010,-0.005108,0.914720,-0.403907
5764,-0.150258,-7.219109,-6.588028,0.001127,-0.026986,0.063119,-132.342636,0.918330,-178.955261,0.011014,-0.005102,0.914720,-0.403907
5765,-0.143199,-7.224693,-6.589936,0.057541,0.017318,0.041699,-132.343353,0.916825,-178.956345,0.010998,-0.005099,0.914722,-0.403901
5766,-0.145207,-7.227404,-6.589364,0.068196,0.049428,0.032473,-132.342270,0.913350,-178.958023,0.010964,-0.005098,0.914719,-0.403910
5767,-0.149365,-7.227093,-6.583776,0.075824,0.044897,0.026317,-132.339981,0.910408,-178.959839,0.010934,-0.005093,0.914711,-0.403929
5768,-0.148898,-7.222394,-6.579078,0.066679,0.051034,0.014073,-132.337189,0.907947,-178.961472,0.010909,-0.005089,0.914701,-0.403952
5769,-0.145455,-7.224101,-6.566478,0.052997,0.025134,0.020131,-132.333313,0.905224,-178.962769,0.010883,-0.005087,0.914688,-0.403983
5770,-0.153029,-7.217761,-6.571330,0.002699,-0.029772,0.036885,-132.330276,0.904444,-178.963318,0.010875,-0.005086,0.914677,-0.404008
5771,-0.152792,-7.217870,-6.570964,-0.009486,-0.054181,0.047559,-132.329544,0.906060,-178.963211,0.010888,-0.005081,0.914674,-0.404013
5772,-0.146380,-7.209977,-6.574601,-0.017125,-0.057208,0.053636,-132.330353,0.907201,-178.962982,0.010898,-0.005078,0.914677,-0.404007
5773,-0.146271,-7.217772,-6.574461,-0.021724,-0.058691,0.052064,-132.331757,0.907418,-178.962753,0.010901,-0.005080,0.914682,-0.403995
5774,-0.152358,-7.215589,-6.578554,-0.012584,-0.049507,0.050507,-132.332916,0.908338,-178.962585,0.010908,-0.005078,0.914686,-0.403986
5775,-0.149927,-7.207118,-6.572382,-0.032457,-0.046436,0.044383,-132.335007,0.909554,-178.962494,0.010918,-0.005075,0.914693,-0.403969
5776,-0.149958,-7.203636,-6.573716,-0.041663,-0.047936,0.042830,-132.338150,0.910280,-178.962341,0.010925,-0.005074,0.914704,-0.403944
5777,-0.153710,-7.212878,-6.570389,-0.029482,-0.049446,0.051969,-132.340347,0.911633,-178.962219,0.010936,-0.005070,0.914712,-0.403926
5778,-0.153341,-7.207615,-6.567863,-0.026427,-0.046386,0.058062,-132.341125,0.913604,-178.962265,0.010951,-0.005063,0.914715,-0.403920
5779,-0.151993,-7.205117,-6.563867,-0.032525,-0.046372,0.065677,-132.341934,0.915397,-178.962509,0.010965,-0.005054,0.914718,-0.403913
5780,-0.154339,-7.208885,-6.563781,-0.023349,-0.055515,0.070241,-132.342087,0.917499,-178.962769,0.010981,-0.005045,0.914718,-0.403912
5781,-0.152716,-7.214781,-6.562413,-0.024824,-0.049399,0.070226,-132.340973,0.919686,-178.963028,0.010997,-0.005035,0.914714,-0.403921
5782,-0.149487,-7.211828,-6.564891,-0.041554,-0.037164,0.064091,-132.340027,0.920765,-178.963425,0.011004,-0.005028,0.914711,-0.403928
5783,-0.154228,-7.220095,-6.568936,-0.041505,-0.043242,0.073218,-132.339584,0.921932,-178.963959,0.011012,-0.005020,0.914709,-0.403932
5784,-0.155225,-7.229285,-6.565559,-0.058199,-0.050861,0.057944,-132.337799,0.923933,-178.964203,0.011027,-0.005010,0.914703,-0.403946
5785,-0.153252,-7.233089,-6.565636,-0.061117,-0.038639,0.057924,-132.334763,0.925454,-178.964325,0.011039,-0.005004,0.914692,-0.403970
5786,-0.160970,-7.232286,-6.563127,-0.042660,-0.041690,0.060972,-132.331024,0.927663,-178.964584,0.011056,-0.004994,0.914679,-0.403999
5787,-0.165741,-7.235971,-6.561156,-0.015031,-0.052402,0.064053,-132.325928,0.931841,-178.964722,0.011089,-0.004977,0.914661,-0.404040
5788,-0.161016,-7.226887,-6.556752,-0.020975,-0.063111,0.053399,-132.320511,0.936034,-178.964523,0.011123,-0.004964,0.914641,-0.404082
5789,-0.159465,-7.222116,-6.561073,-0.014754,-0.055490,0.062560,-132.316711,0.939138,-178.964294,0.011149,-0.004954,0.914628,-0.404112
5790,-0.157101,-7.217201,-6.563571,-0.005533,-0.058535,0.056448,-132.314575,0.941478,-178.964188,0.011168,-0.004946,0.914620,-0.404129
5791,-0.152109,-7.217839,-6.568421,-0.036022,-0.056980,0.054890,-132.314178,0.942520,-178.963989,0.011177,-0.004944,0.914619,-0.404132
5792,-0.147826,-7.215777,-6.568227,-0.061953,-0.053873,0.045673,-132.315414,0.941926,-178.963745,0.011173,-0.004948,0.914623,-0.404122
5793,-0.148333,-7.219647,-6.570879,-0.054314,-0.043127,0.045600,-132.317047,0.940490,-178.963577,0.011162,-0.004955,0.914629,-0.404110
5794,-0.143858,-7.216055,-6.568757,-0.039046,-0.047629,0.048570,-132.318237,0.938487,-178.963501,0.011146,-0.004963,0.914633,-0.404100
5795,-0.143164,-7.217763,-6.565245,-0.028341,-0.059750,0.050000,-132.318497,0.936064,-178.963272,0.011128,-0.004973,0.914634,-0.404098
5796,-0.139167,-7.218749,-6.567219,-0.014573,-0.068808,0.037685,-132.317871,0.933164,-178.962646,0.011107,-0.004988,0.914632,-0.404104
5797,-0.139679,-7.215738,-6.567958,-0.002343,-0.070230,0.040622,-132.317322,0.929887,-178.961807,0.011084,-0.005007,0.914630,-0.404108
5798,-0.137541,-7.215456,-6.566836,0.006825,-0.068599,0.040506,-132.316727,0.926565,-178.960999,0.011060,-0.005025,0.914628,-0.404113
5799,-0.142331,-7.214162,-6.568492,-0.002322,-0.057821,0.034298,-132.316376,0.923580,-178.960266,0.011039,-0.005041,0.914627,-0.404116
5800,-0.141004,-7.217031,-6.566172,-0.011466,-0.051635,0.029628,-132.316132,0.920936,-178.959625,0.011020,-0.005055,0.914626,-0.404119
5801,-0.139838,-7.219650,-6.561204,-0.025152,-0.042392,0.032583,-132.314926,0.917875,-178.959137,0.010998,-0.005070,0.914622,-0.404128
5802,-0.144428,-7.224171,-6.562724,-0.018973,-0.040790,0.026394,-132.312836,0.915290,-178.958725,0.010978,-0.005082,0.914615,-0.404145
5803,-0.146642,-7.217019,-6.565913,-0.023498,-0.051417,0.024808,-132.311554,0.913848,-178.958130,0.010969,-0.005092,0.914610,-0.404156
5804,-0.145546,-7.219088,-6.565045,-0.034148,-0.058997,0.020173,-132.311356,0.912803,-178.957260,0.010964,-0.005103,0.914610,-0.404157
5805,-0.143872,-7.215818,-6.568035,-0.028024,-0.057414,0.021636,-132.311630,0.911441,-178.956284,0.010956,-0.005115,0.914611,-0.404155
5806,-0.145771,-7.213667,-6.571569,0.000955,-0.069565,0.038360,-132.312561,0.910514,-178.955399,0.010952,-0.005126,0.914614,-0.404148
5807,-0.143415,-7.209442,-6.572861,-0.023503,-0.074087,0.047455,-132.314529,0.910085,-178.954620,0.010951,-0.005134,0.914621,-0.404132
5808,-0.141400,-7.212111,-6.577036,-0.026615,-0.070968,0.047382,-132.317642,0.909171,-178.953934,0.010946,-0.005143,0.914632,-0.404107
5809,-0.140553,-7.208979,-6.580764,-0.022120,-0.061738,0.059509,-132.321503,0.907870,-178.953537,0.010937,-0.005151,0.914645,-0.404076
5811,-0.146619,-7.215358,-6.577727,-0.031345,-0.063203,0.065549,-132.325027,0.907520,-178.953445,0.010934,-0.005153,0.914658,-0.404048
5812,-0.148810,-7.216191,-6.574511,-0.035952,-0.061640,0.062457,-132.327225,0.908455,-178.953369,0.010942,-0.005151,0.914666,-0.404031
5813,-0.149804,-7.214806,-6.573447,-0.028335,-0.061611,0.063952,-132.328796,0.909813,-178.953278,0.010953,-0.005147,0.914671,-0.404018
5814,-0.150997,-7.221765,-6.566825,-0.029836,-0.052433,0.060874,-132.328812,0.911314,-178.953247,0.010965,-0.005141,0.914671,-0.404018
5815,-0.153691,-7.221093,-6.563501,-0.037394,-0.066152,0.048650,-132.327225,0.913181,-178.952972,0.010981,-0.005137,0.914665,-0.404030
5816,-0.152405,-7.214234,-6.568072,-0.032768,-0.073771,0.045584,-132.326584,0.915232,-178.952286,0.011000,-0.005135,0.914663,-0.404035
5817,-0.151613,-7.205990,-6.573018,-0.031263,-0.072225,0.037933,-132.328445,0.916827,-178.951431,0.011016,-0.005137,0.914670,-0.404020
5818,-0.152604,-7.208998,-6.567726,-0.034348,-0.073730,0.025704,-132.330750,0.918124,-178.950363,0.011030,-0.005141,0.914678,-0.404001
5819,-0.152405,-7.209551,-6.564226,-0.025189,-0.075236,0.033312,-132.331558,0.919450,-178.949188,0.011044,-0.005145,0.914680,-0.403994
5820,-0.149223,-7.217267,-6.561139,-0.002253,-0.072156,0.045487,-132.330231,0.920436,-178.948227,0.011056,-0.005150,0.914676,-0.404005
5821,-0.148436,-7.216300,-6.558354,-0.006749,-0.058382,0.042389,-132.327301,0.920702,-178.947556,0.011060,-0.005154,0.914665,-0.404028
5822,-0.144941,-7.212717,-6.554804,-0.009714,-0.055280,0.049961,-132.324356,0.920190,-178.947144,0.011058,-0.005158,0.914655,-0.404052
5823,-0.140014,-7.216158,-6.560733,-0.008114,-0.064361,0.065137,-132.321869,0.918791,-178.946915,0.011048,-0.005165,0.914646,-0.404072
5824,-0.140635,-7.210033,-6.565337,-0.006557,-0.058173,0.058939,-132.320877,0.916940,-178.946777,0.011033,-0.005173,0.914643,-0.404080
5825,-0.141793,-7.211232,-6.567042,-0.014186,-0.047412,0.052748,-132.321243,0.915087,-178.946732,0.011019,-0.005179,0.914644,-0.404077
5826,-0.138567,-7.210703,-6.566864,-0.024872,-0.042750,0.041976,-132.322037,0.912638,-178.946686,0.010999,-0.005189,0.914647,-0.404071
5827,-0.140949,-7.218560,-6.568578,-0.026385,-0.041142,0.032729,-132.322433,0.909842,-178.946487,0.010978,-0.005200,0.914648,-0.404068
5828,-0.141384,-7.215756,-6.566061,-0.030934,-0.030386,0.023491,-132.322327,0.907217,-178.946213,0.010958,-0.005211,0.914648,-0.404069
5829,-0.138680,-7.214638,-6.563363,-0.047685,-0.036413,0.021880,-132.322372,0.904221,-178.945877,0.010935,-0.005225,0.914648,-0.404069
5830,-0.137629,-7.217092,-6.567436,-0.058335,-0.042432,0.009580,-132.322891,0.900774,-178.945251,0.010910,-0.005242,0.914650,-0.404065
5831,-0.141885,-7.226624,-6.570626,-0.046083,-0.057619,0.015602,-132.322983,0.898091,-178.944275,0.010892,-0.005259,0.914651,-0.404065
5832,-0.142597,-7.226525,-6.571241,-0.049077,-0.052983,0.015537,-132.322372,0.896461,-178.943222,0.010882,-0.005273,0.914648,-0.404070
5833,-0.141545,-7.221754,-6.574125,-0.038361,-0.055978,0.015474,-132.322510,0.894872,-178.942200,0.010873,-0.005287,0.914649,-0.404068
5834,-0.141731,-7.222709,-6.577019,-0.033775,-0.058972,0.032195,-132.323410,0.893506,-178.941315,0.010865,-0.005299,0.914652,-0.404061
5835,-0.138014,-7.218303,-6.572984,-0.030721,-0.052802,0.055011,-132.324387,0.892155,-178.940918,0.010856,-0.005307,0.914656,-0.404054
5836,-0.137749,-7.219929,-6.573096,-0.026135,-0.054253,0.062557,-132.325043,0.890619,-178.940918,0.010844,-0.005313,0.914658,-0.404049
5837,-0.136493,-7.217215,-6.571393,-0.020021,-0.060279,0.067050,-132.325409,0.889168,-178.940948,0.010832,-0.005317,0.914659,-0.404046
5838,-0.138683,-7.221692,-6.573110,-0.020006,-0.054101,0.062390,-132.325470,0.887923,-178.940979,0.010822,-0.005322,0.914660,-0.404045
5839,-0.142589,-7.223871,-6.574502,-0.006248,-0.046414,0.054697,-132.324982,0.887316,-178.941040,0.010817,-0.005323,0.914658,-0.404049
5840,-0.150316,-7.223471,-6.579463,-0.000134,-0.052493,0.045514,-132.324692,0.888223,-178.940948,0.010825,-0.005321,0.914657,-0.404052
5841,-0.150050,-7.216947,-6.579353,-0.023044,-0.031123,0.036351,-132.325897,0.889823,-178.940842,0.010838,-0.005316,0.914661,-0.404042
5842,-0.151629,-7.214309,-6.580592,-0.030723,-0.021963,0.034823,-132.328629,0.891092,-178.941025,0.010847,-0.005310,0.914671,-0.404020
5843,-0.155661,-7.211226,-6.578262,-0.023151,-0.017394,0.043989,-132.331696,0.893063,-178.941452,0.010861,-0.005300,0.914681,-0.403995
5844,-0.154803,-7.208154,-6.574155,-0.036936,-0.026567,0.031802,-132.334656,0.895455,-178.941788,0.010879,-0.005289,0.914692,-0.403971
5845,-0.153916,-7.207870,-6.569319,-0.038492,-0.034207,0.028763,-132.337067,0.897502,-178.941742,0.010895,-0.005283,0.914700,-0.403952
5846,-0.154620,-7.212513,-6.565706,-0.029328,-0.040320,0.030298,-132.337860,0.899552,-178.941483,0.010912,-0.005278,0.914703,-0.403945
5847,-0.155240,-7.215981,-6.560769,-0.036901,-0.052538,0.013524,-132.336823,0.901713,-178.940796,0.010932,-0.005276,0.914699,-0.403953
5848,-0.150606,-7.227027,-6.555237,-0.045930,-0.061693,0.018097,-132.333481,0.903259,-178.939667,0.010949,-0.005279,0.914687,-0.403980
5849,-0.151523,-7.236719,-6.557040,-0.048794,-0.064733,0.027235,-132.328003,0.904444,-178.938507,0.010962,-0.005283,0.914668,-0.404023
5850,-0.149260,-7.241353,-6.559881,-0.047062,-0.050983,0.040945,-132.321854,0.905494,-178.937729,0.010974,-0.005285,0.914646,-0.404072
5851,-0.145418,-7.239319,-6.562346,-0.016354,-0.061629,0.059213,-132.315796,0.905939,-178.937347,0.010979,-0.005286,0.914625,-0.404121
5852,-0.146441,-7.243874,-6.561752,0.011296,-0.055483,0.085103,-132.309021,0.906522,-178.937424,0.010984,-0.005283,0.914601,-0.404175
5853,-0.149874,-7.242458,-6.566277,0.026726,-0.043243,0.091168,-132.301971,0.907908,-178.938080,0.010993,-0.005272,0.914576,-0.404231
5854,-0.146625,-7.233559,-6.567564,0.043629,-0.040158,0.092655,-132.296402,0.909202,-178.939041,0.011000,-0.005259,0.914556,-0.404275
5855,-0.146597,-7.227272,-6.567336,0.046748,-0.055375,0.080398,-132.292389,0.909975,-178.939758,0.011004,-0.005250,0.914542,-0.404307
5856,-0.148369,-7.220208,-6.567745,0.039142,-0.061439,0.069673,-132.290039,0.910930,-178.939987,0.011011,-0.005245,0.914534,-0.404326
5857,-0.144414,-7.217360,-6.570571,0.029973,-0.058341,0.058941,-132.289444,0.911301,-178.939972,0.011014,-0.005244,0.914532,-0.404330
5858,-0.145879,-7.215178,-6.570844,0.008569,-0.059814,0.049727,-132.290268,0.911013,-178.939758,0.011012,-0.005247,0.914535,-0.404324
5859,-0.144116,-7.219348,-6.572731,-0.005204,-0.047552,0.042039,-132.291718,0.910343,-178.939484,0.011008,-0.005251,0.914540,-0.404312
5860,-0.143074,-7.217345,-6.572114,-0.018973,-0.047491,0.048077,-132.293488,0.909122,-178.939346,0.010998,-0.005257,0.914546,-0.404298
5861,-0.143008,-7.218417,-6.575726,-0.031226,-0.041323,0.041904,-132.296036,0.907711,-178.939285,0.010987,-0.005263,0.914555,-0.404278
5862,-0.147374,-7.215700,-6.574847,-0.060274,-0.044324,0.035746,-132.299606,0.906808,-178.939133,0.010980,-0.005267,0.914568,-0.404250
5863,-0.143599,-7.213287,-6.572977,-0.066434,-0.045801,0.021961,-132.303833,0.905866,-178.938705,0.010974,-0.005274,0.914582,-0.404216
5864,-0.145332,-7.210056,-6.572292,-0.064966,-0.054905,0.029533,-132.308197,0.904726,-178.938080,0.010967,-0.005284,0.914598,-0.404181
5865,-0.145740,-7.216341,-6.571080,-0.054324,-0.054858,0.021854,-132.311661,0.904050,-178.937317,0.010964,-0.005293,0.914610,-0.404154
5866,-0.145332,-7.221096,-6.569736,-0.040588,-0.051762,0.034012,-132.313141,0.903425,-178.936630,0.010962,-0.005300,0.914615,-0.404142
5867,-0.143913,-7.230018,-6.567883,-0.020699,-0.054764,0.032431,-132.312256,0.902677,-178.936035,0.010958,-0.005308,0.914612,-0.404149
5868,-0.146292,-7.232846,-6.566354,0.002280,-0.053193,0.041534,-132.309097,0.902199,-178.935471,0.010956,-0.005314,0.914601,-0.404174
5869,-0.148689,-7.230927,-6.568330,0.013052,-0.039426,0.041496,-132.305450,0.902389,-178.935211,0.010959,-0.005315,0.914588,-0.404203
5870,-0.148816,-7.231965,-6.566763,0.013134,-0.033297,0.033836,-132.301926,0.902639,-178.935120,0.010961,-0.005314,0.914576,-0.404231
