seq,ax,ay,az,wroll,wpitch,wyaw,roll,pitch,yaw,q0,q1,q2,q3
62,0.081671,-0.328412,9.917795,0.146145,-0.671835,0.109437,-1.896567,-0.471550,0.015614,0.999855,-0.016549,-0.004117,0.000068
63,0.050085,-0.275878,9.942628,-0.586299,-0.316294,-0.047734,-1.866190,-0.451497,0.014877,0.999860,-0.016284,-0.003942,0.000066
64,0.071465,-0.275494,9.922168,-1.158521,-0.137761,0.219303,-1.817569,-0.429366,0.017377,0.999867,-0.015860,-0.003749,0.000092
65,0.081863,-0.289961,9.921908,-1.257707,-0.134709,0.568740,-1.802024,-0.434045,0.030222,0.999869,-0.015724,-0.003791,0.000204
66,0.082840,-0.316190,9.929941,-1.280595,0.083498,0.568740,-1.828231,-0.445875,0.049078,0.999865,-0.015952,-0.003897,0.000366
67,0.074694,-0.358479,9.929410,-1.292802,0.057557,0.579422,-1.906093,-0.446705,0.068405,0.999854,-0.016631,-0.003908,0.000532
68,0.074167,-0.364709,9.921944,-1.048655,-0.639791,0.841881,-2.003762,-0.451077,0.092863,0.999839,-0.017482,-0.003950,0.000741
69,0.070871,-0.374857,9.910821,-0.737365,-1.356976,0.954799,-2.081959,-0.475221,0.124339,0.999826,-0.018163,-0.004166,0.001010
70,0.075446,-0.398592,9.899150,-0.751100,-1.482102,0.899866,-2.158533,-0.510623,0.157379,0.999812,-0.018829,-0.004481,0.001289
71,0.087923,-0.389691,9.889475,-0.831974,-1.430220,0.814414,-2.228113,-0.552625,0.188143,0.999798,-0.019435,-0.004854,0.001548
72,0.100500,-0.363730,9.889643,-0.685485,-1.424117,0.796103,-2.250525,-0.602790,0.216781,0.999792,-0.019628,-0.005296,0.001788
73,0.106515,-0.370444,9.911940,-0.575618,-1.106724,0.805259,-2.240924,-0.649453,0.244787,0.999791,-0.019542,-0.005708,0.002025
74,0.115676,-0.387748,9.925763,-0.632076,-0.696250,0.696918,-2.246158,-0.682527,0.270821,0.999788,-0.019586,-0.006001,0.002246
75,0.116880,-0.375821,9.930457,-0.592403,-0.726769,0.580948,-2.255817,-0.706596,0.292908,0.999784,-0.019668,-0.006215,0.002434
76,0.109934,-0.379135,9.924795,-0.506951,-0.847317,0.617570,-2.254807,-0.721210,0.313663,0.999783,-0.019658,-0.006346,0.002613
77,0.111115,-0.405402,9.909816,-0.593928,-0.691672,0.693866,-2.276066,-0.725740,0.336551,0.999779,-0.019842,-0.006390,0.002811
78,0.113896,-0.417441,9.894590,-0.683959,-0.445998,0.548903,-2.327976,-0.724363,0.358382,0.999769,-0.020294,-0.006383,0.002998
79,0.109269,-0.412235,9.885939,-0.639707,-0.050784,0.307807,-2.376829,-0.710918,0.373309,0.999761,-0.020720,-0.006270,0.003128
80,0.103665,-0.419810,9.899953,-0.508476,0.442090,0.098755,-2.410867,-0.677029,0.379978,0.999756,-0.021017,-0.005977,0.003191
81,0.104925,-0.419063,9.920460,-0.429129,0.582476,0.005674,-2.434419,-0.635479,0.381081,0.999754,-0.021224,-0.005615,0.003207
82,0.116400,-0.408483,9.937755,-0.232285,0.359691,0.013303,-2.435752,-0.614901,0.380620,0.999755,-0.021236,-0.005435,0.003207
83,0.115826,-0.409778,9.937265,0.010338,0.239143,-0.145393,-2.418749,-0.616669,0.377771,0.999758,-0.021088,-0.005450,0.003182
84,0.115573,-0.402669,9.922543,0.225493,-0.020265,-0.249156,-2.392171,-0.626958,0.370800,0.999762,-0.020856,-0.005538,0.003121
85,0.110585,-0.391749,9.899652,0.333834,-0.162176,-0.221689,-2.353306,-0.638674,0.362759,0.999769,-0.020517,-0.005637,0.003050
86,0.106003,-0.391938,9.901737,0.353671,0.268135,-0.468889,-2.313371,-0.635611,0.350872,0.999777,-0.020169,-0.005607,0.002949
87,0.104179,-0.391325,9.894472,0.173612,0.718283,-0.766445,-2.286343,-0.612193,0.329441,0.999783,-0.019935,-0.005399,0.002768
88,0.106259,-0.391074,9.908247,0.205656,0.797631,-0.693200,-2.269813,-0.583773,0.304019,0.999788,-0.019793,-0.005146,0.002552
89,0.091417,-0.405698,9.921387,0.228545,0.947172,-0.893096,-2.268397,-0.548492,0.276509,0.999790,-0.019782,-0.004833,0.002318
90,0.087352,-0.403757,9.927214,0.231597,1.050935,-1.015170,-2.278081,-0.503005,0.243579,0.999791,-0.019869,-0.004431,0.002038
91,0.089472,-0.406763,9.924368,0.416233,0.773216,-0.636741,-2.284317,-0.469499,0.215015,0.999791,-0.019925,-0.004134,0.001794
92,0.077038,-0.391005,9.931817,0.484900,0.654194,-0.536030,-2.274353,-0.444861,0.194586,0.999794,-0.019839,-0.003915,0.001621
93,0.069129,-0.386995,9.927567,0.469642,0.773216,-0.641319,-2.248718,-0.412312,0.173968,0.999800,-0.019617,-0.003627,0.001447
94,0.075123,-0.383012,9.897903,0.576456,0.831201,-0.529926,-2.221184,-0.383155,0.153347,0.999806,-0.019378,-0.003369,0.001273
95,0.065246,-0.387625,9.914485,0.570352,1.131809,-0.729822,-2.199936,-0.353383,0.131088,0.999810,-0.019193,-0.003105,0.001085
96,0.053405,-0.379829,9.913287,0.462011,1.661305,-1.179970,-2.184145,-0.301238,0.097511,0.999815,-0.019057,-0.002645,0.000801
97,0.051126,-0.386403,9.911454,0.686323,2.059571,-1.183022,-2.170507,-0.233983,0.055831,0.999818,-0.018939,-0.002051,0.000448
98,0.037300,-0.386068,9.913974,0.523048,2.235053,-0.906829,-2.164621,-0.160509,0.018383,0.999821,-0.018889,-0.001403,0.000134
99,0.017753,-0.377243,9.948303,0.364353,2.300668,-0.590963,-2.158653,-0.075654,-0.009379,0.999822,-0.018837,-0.000659,-0.000094
100,0.022030,-0.385006,9.907669,0.474219,2.160282,-0.224741,-2.154498,-0.000977,-0.025746,0.999823,-0.018800,-0.000004,-0.000225
101,0.016305,-0.380334,9.875259,0.516945,2.282356,0.091126,-2.153688,0.053571,-0.030745,0.999823,-0.018793,0.000472,-0.000259
102,-0.007592,-0.377591,9.849875,0.626811,2.857630,0.336800,-2.146986,0.125712,-0.026837,0.999824,-0.018735,0.001101,-0.000214
103,-0.010897,-0.388948,9.849119,0.935049,3.822015,0.405466,-2.141748,0.227849,-0.018680,0.999823,-0.018689,0.001991,-0.000126
104,-0.032719,-0.371846,9.874953,0.913685,5.076326,0.274237,-2.128135,0.363072,-0.012930,0.999822,-0.018570,0.003170,-0.000054
105,-0.085230,-0.358619,9.930365,0.736679,5.926265,0.234562,-2.094592,0.558664,-0.011160,0.999821,-0.018277,0.004876,-0.000008
106,-0.133591,-0.360723,9.961787,0.657330,6.289437,0.164370,-2.060610,0.807364,-0.011795,0.999814,-0.017980,0.007046,0.000024
107,-0.174044,-0.373311,9.986870,0.503211,6.290963,-0.096563,-2.049283,1.070207,-0.018296,0.999797,-0.017880,0.009341,0.000007
108,-0.287677,-0.359925,9.981403,0.616130,7.676503,0.069763,-2.043612,1.405490,-0.027256,0.999766,-0.017829,0.012267,-0.000019
109,-0.333787,-0.371400,9.930223,-0.285691,10.409435,0.255926,-2.046931,1.818754,-0.032773,0.999715,-0.017855,0.015874,-0.000002
110,-0.406667,-0.380299,9.904821,-1.558314,13.963315,0.663348,-2.094322,2.295177,-0.032687,0.999632,-0.018266,0.020030,0.000081
112,-0.499710,-0.396447,9.896904,-1.811617,17.736927,1.751333,-2.172999,2.899539,-0.013094,0.999500,-0.018953,0.025298,0.000366
113,-0.666192,-0.411523,9.910427,-2.191572,22.300972,2.967495,-2.263684,3.671737,0.038395,0.999291,-0.019754,0.032024,0.000968
114,-0.774429,-0.399021,9.863005,-2.685973,24.124453,2.998014,-2.357302,4.565948,0.105623,0.998994,-0.020590,0.039807,0.001740
115,-0.954370,-0.424393,9.855100,-2.020668,23.587326,3.023955,-2.440624,5.482874,0.171909,0.998626,-0.021344,0.047786,0.002517
116,-1.090612,-0.472317,9.848160,-0.845707,22.877769,3.042266,-2.508957,6.380173,0.237183,0.998206,-0.021974,0.055590,0.003284
117,-1.261282,-0.484531,9.815569,-0.256699,23.135653,2.094666,-2.562644,7.267546,0.284755,0.997733,-0.022474,0.063307,0.003897
118,-1.389132,-0.478086,9.788050,0.176663,22.972378,1.429362,-2.597374,8.153412,0.304679,0.997206,-0.022796,0.071013,0.004263
119,-1.485312,-0.475037,9.787864,0.559671,22.798424,1.186740,-2.611392,9.001796,0.309990,0.996649,-0.022929,0.078393,0.004484
120,-1.621107,-0.455260,9.774871,0.744307,23.552231,1.073821,-2.605013,9.833181,0.310245,0.996054,-0.022879,0.085622,0.004645
121,-1.765409,-0.419350,9.728306,1.029655,23.460674,0.381051,-2.572026,10.673493,0.299941,0.995406,-0.022589,0.092927,0.004693
122,-1.900685,-0.395708,9.734231,1.237181,22.586319,0.835777,-2.511473,11.494987,0.290593,0.994725,-0.022059,0.100065,0.004717
123,-1.997054,-0.380901,9.684488,1.665966,20.884912,0.803733,-2.430320,12.254249,0.293134,0.994055,-0.021359,0.106656,0.004806
124,-2.114073,-0.358376,9.663394,1.983359,20.021238,1.044829,-2.331155,12.951736,0.303523,0.993404,-0.020511,0.112707,0.004926
125,-2.251126,-0.376795,9.667457,2.253448,19.281164,1.176059,-2.230854,13.622676,0.320629,0.992744,-0.019661,0.118523,0.005086
126,-2.336323,-0.354270,9.659472,2.657818,17.544661,1.514814,-2.128336,14.245160,0.346290,0.992101,-0.018803,0.123915,0.005301
127,-2.395032,-0.373953,9.634473,2.598307,15.347330,1.221836,-2.031691,14.772665,0.373341,0.991533,-0.018000,0.128481,0.005510
128,-2.459426,-0.345922,9.607813,2.749374,13.786308,0.805259,-1.946398,15.211215,0.388690,0.991046,-0.017284,0.132276,0.005610
129,-2.572452,-0.363275,9.598573,2.686811,13.183567,0.141481,-1.872377,15.618207,0.385075,0.990581,-0.016644,0.135800,0.005549
130,-2.566911,-0.353825,9.518879,2.799729,12.837182,-0.499407,-1.818516,16.001150,0.355795,0.990130,-0.016146,0.139116,0.005283
131,-2.637371,-0.339515,9.477078,2.891285,15.223729,-1.125037,-1.768560,16.401392,0.303389,0.989647,-0.015653,0.142583,0.004822
132,-2.753689,-0.323790,9.429984,2.853136,18.620438,-1.669793,-1.720761,16.924374,0.228767,0.988995,-0.015146,0.147110,0.004184
133,-2.837689,-0.333842,9.369557,2.642559,21.673815,-1.941407,-1.688701,17.579416,0.134856,0.988145,-0.014743,0.152774,0.003415
134,-2.959787,-0.335091,9.307214,2.392307,24.992702,-2.402237,-1.682063,18.352476,0.020915,0.987096,-0.014519,0.159452,0.002521
135,-3.141637,-0.301323,9.307450,1.759048,27.867546,-2.277111,-1.684772,19.253523,-0.099990,0.985813,-0.014349,0.167224,0.001598
136,-3.321080,-0.354959,9.266844,1.005241,29.175264,-1.558400,-1.717319,20.251232,-0.212705,0.984317,-0.014426,0.175814,0.000808
137,-3.473589,-0.349289,9.212007,1.035759,29.031826,-1.591970,-1.778959,21.275606,-0.322422,0.982700,-0.014738,0.184620,0.000101
138,-3.647712,-0.336325,9.177968,0.808396,28.076599,-1.997867,-1.835940,22.277100,-0.437473,0.981042,-0.014982,0.193216,-0.000650
139,-3.815545,-0.312863,9.163542,0.881641,26.817711,-1.265422,-1.872425,23.236589,-0.539355,0.979385,-0.015057,0.201437,-0.001319
140,-3.938858,-0.326150,9.080358,1.629344,24.675312,-0.723719,-1.877831,24.127687,-0.614063,0.977788,-0.014904,0.209056,-0.001815
141,-4.051756,-0.269994,9.013710,1.804826,22.775532,-1.218118,-1.848670,24.934841,-0.678301,0.976295,-0.014474,0.215946,-0.002296
142,-4.155115,-0.276336,8.987869,1.159359,20.807091,-1.126563,-1.811875,25.655123,-0.740128,0.974923,-0.013982,0.222085,-0.002787
143,-4.225606,-0.278485,8.922127,1.206663,19.745047,-0.517718,-1.788633,26.299292,-0.791079,0.973662,-0.013628,0.227567,-0.003171
144,-4.279249,-0.297222,8.851305,1.540841,19.778616,-0.183541,-1.766367,26.901772,-0.830318,0.972455,-0.013305,0.232687,-0.003461
145,-4.399916,-0.311848,8.802998,1.580516,20.799461,-0.830533,-1.760431,27.519279,-0.884728,0.971187,-0.013085,0.237929,-0.003844
146,-4.510967,-0.282438,8.751146,2.155789,21.476971,-1.157082,-1.750649,28.181141,-0.957358,0.969796,-0.012783,0.243542,-0.004383
147,-4.636125,-0.240776,8.658643,2.888233,22.351324,-1.477526,-1.697767,28.890884,-1.030047,0.968273,-0.012104,0.249550,-0.005008
148,-4.796869,-0.252096,8.643943,2.634929,22.319283,-1.614859,-1.634238,29.640369,-1.107933,0.966625,-0.011313,0.255882,-0.005698
149,-4.892457,-0.252504,8.579548,2.186307,20.413401,-1.842222,-1.600358,30.361902,-1.198495,0.964995,-0.010739,0.261969,-0.006436
150,-4.947045,-0.212489,8.508332,1.951315,18.409861,-1.379867,-1.565933,30.997095,-1.277690,0.963528,-0.010188,0.267319,-0.007092
151,-5.036613,-0.242499,8.471831,1.099849,16.317818,-1.015170,-1.542356,31.543270,-1.339471,0.962243,-0.009775,0.271912,-0.007590
152,-5.067051,-0.259151,8.436613,0.890796,14.680500,-0.633689,-1.554423,32.002880,-1.398460,0.961140,-0.009674,0.275775,-0.007991
153,-5.117382,-0.228507,8.344891,1.200559,15.502975,-0.824430,-1.559100,32.434399,-1.451510,0.960092,-0.009526,0.279397,-0.008362
154,-5.241716,-0.187166,8.287951,1.093745,17.936825,-0.482623,-1.527651,32.949348,-1.486173,0.958828,-0.009105,0.283708,-0.008655
155,-5.371464,-0.154472,8.224064,1.292115,21.205357,0.776266,-1.447786,33.606102,-1.474575,0.957196,-0.008374,0.289191,-0.008665
156,-5.480271,-0.165231,8.129689,1.546944,24.240421,1.537703,-1.337604,34.402176,-1.423199,0.955177,-0.007477,0.295822,-0.008412
157,-5.605656,-0.157909,8.036779,1.885700,26.715473,2.146547,-1.217573,35.309940,-1.352830,0.952818,-0.006544,0.303366,-0.008027
158,-5.781386,-0.181651,8.000508,1.815507,27.273962,3.045317,-1.097789,36.279549,-1.263555,0.950231,-0.005670,0.311403,-0.007496
159,-5.860775,-0.176502,7.903738,2.139003,25.618334,2.817954,-0.988623,37.216496,-1.171998,0.947666,-0.004912,0.319151,-0.006940
160,-5.958162,-0.188849,7.851389,1.948263,22.828941,1.430888,-0.914574,38.041058,-1.122507,0.945352,-0.004353,0.325955,-0.006659
161,-6.054388,-0.179309,7.796721,1.963522,20.845238,1.163851,-0.877511,38.753040,-1.114543,0.943311,-0.003997,0.331819,-0.006634
162,-6.148574,-0.167883,7.723045,1.392826,19.123995,0.602310,-0.857894,39.389427,-1.121943,0.941455,-0.003749,0.337052,-0.006695
163,-6.177392,-0.150439,7.632105,1.286011,17.830009,-0.046208,-0.856391,39.962543,-1.149100,0.939757,-0.003597,0.341757,-0.006870
164,-6.254587,-0.176530,7.572683,0.808396,17.225742,-0.893096,-0.892893,40.491642,-1.213652,0.938164,-0.003645,0.346096,-0.007240
165,-6.319237,-0.172485,7.494500,0.579508,17.202854,-1.178444,-0.968611,41.013046,-1.310973,0.936571,-0.003909,0.350369,-0.007754
166,-6.412874,-0.158423,7.430227,0.066798,17.491253,-1.649955,-1.053965,41.551407,-1.417082,0.934906,-0.004213,0.354775,-0.008299
167,-6.501893,-0.154187,7.362808,-0.102581,17.744558,-1.637748,-1.140534,42.115273,-1.523374,0.933138,-0.004511,0.359381,-0.008829
168,-6.591157,-0.141457,7.295846,0.402501,18.858482,-1.396652,-1.200977,42.715038,-1.613918,0.931236,-0.004631,0.364268,-0.009299
169,-6.661472,-0.132534,7.214898,0.715315,19.803032,-0.964815,-1.219814,43.356461,-1.678208,0.929178,-0.004481,0.369478,-0.009676
170,-6.744622,-0.149858,7.126909,0.718367,20.688068,-0.627585,-1.223945,44.034237,-1.727245,0.926974,-0.004251,0.374969,-0.009969
171,-6.803716,-0.134921,7.026267,1.205137,21.173313,-0.293408,-1.212112,44.737904,-1.763013,0.924653,-0.003926,0.380653,-0.010201
172,-6.879119,-0.153233,6.942397,1.476752,21.686024,0.612992,-1.172081,45.454243,-1.773098,0.922258,-0.003455,0.386422,-0.010319
173,-6.985260,-0.159330,6.875414,1.327211,21.693653,1.379007,-1.120098,46.176735,-1.756169,0.919808,-0.002981,0.392223,-0.010264
174,-7.097197,-0.141186,6.795617,1.340944,21.686024,2.025999,-1.045488,46.904186,-1.704492,0.917308,-0.002450,0.398046,-0.010014
175,-7.162966,-0.136624,6.694155,1.792618,21.553268,2.882043,-0.931271,47.632000,-1.611754,0.914772,-0.001755,0.403852,-0.009585
176,-7.251528,-0.126763,6.614199,2.186307,21.631090,3.092621,-0.786001,48.354630,-1.493472,0.912220,-0.000919,0.409599,-0.009080
177,-7.317748,-0.083327,6.514325,2.227507,21.946955,2.228947,-0.629420,49.079418,-1.378356,0.909622,-0.000001,0.415348,-0.008660
178,-7.379161,-0.043679,6.391772,1.691907,21.679920,1.002103,-0.489844,49.806202,-1.291668,0.906976,0.000869,0.421098,-0.008424
179,-7.455845,-0.051804,6.303518,1.232604,21.959164,0.187259,-0.406642,50.533691,-1.256394,0.904286,0.001471,0.426841,-0.008400
180,-7.575061,-0.066584,6.228847,-0.041544,21.782156,-1.640800,-0.435706,51.263496,-1.313051,0.901546,0.001529,0.432593,-0.008686
181,-7.649986,-0.077200,6.128820,-1.524744,21.473919,-2.617392,-0.592835,51.988331,-1.463752,0.898782,0.000948,0.438297,-0.009214
182,-7.739580,-0.092926,6.054207,-1.402669,20.640764,-2.135200,-0.794078,52.689758,-1.637828,0.896070,0.000133,0.443806,-0.009733
183,-7.789854,-0.148536,5.976905,-1.352314,19.804556,-1.640800,-0.999573,53.348022,-1.809108,0.893492,-0.000707,0.448964,-0.010191
184,-7.832961,-0.125515,5.873522,-1.160048,18.975979,-2.020755,-1.199391,53.965397,-1.979332,0.891044,-0.001489,0.453790,-0.010643
185,-7.854023,-0.114899,5.766471,-0.275011,18.864586,-1.477526,-1.335019,54.562901,-2.111986,0.888653,-0.001906,0.458444,-0.011039
186,-7.876910,-0.136209,5.659220,1.363833,19.488689,-0.438371,-1.382647,55.166260,-2.192797,0.886220,-0.001833,0.463121,-0.011373
187,-7.917896,-0.137521,5.531711,1.511848,21.336586,-0.734400,-1.392831,55.820629,-2.260972,0.883556,-0.001504,0.468175,-0.011745
188,-8.025876,-0.098441,5.405181,1.653759,23.901667,-0.905304,-1.387648,56.580521,-2.325944,0.880428,-0.001042,0.474023,-0.012133
189,-8.154620,-0.134296,5.321711,1.893329,26.216496,0.213200,-1.357091,57.448524,-2.367276,0.876812,-0.000456,0.480673,-0.012423
190,-8.330044,-0.131306,5.262366,1.737685,25.653429,0.693866,-1.313443,58.349369,-2.384150,0.873008,0.000135,0.487545,-0.012578
191,-8.473355,-0.136601,5.195310,0.864856,21.649401,0.258977,-1.291358,59.163826,-2.403273,0.869521,0.000554,0.493733,-0.012674
192,-8.555903,-0.146804,5.142622,-0.152936,15.535019,-0.215585,-1.338891,59.779781,-2.461151,0.866851,0.000574,0.498403,-0.012797
193,-8.533522,-0.158156,5.088226,-0.641233,8.587481,-0.278148,-1.436835,60.129494,-2.543296,0.865318,0.000268,0.501056,-0.012925
194,-8.504015,-0.154718,5.032359,-1.123425,1.974120,-0.642845,-1.575176,60.164318,-2.647531,0.865154,-0.000312,0.501335,-0.013100
195,-8.416147,-0.171895,4.981334,-1.152418,-1.773553,-0.615378,-1.747470,59.959568,-2.774326,0.866032,-0.001110,0.499810,-0.013349
196,-8.362354,-0.142426,4.970914,-0.918951,-2.583820,-0.644370,-1.853117,59.686543,-2.845127,0.867209,-0.001670,0.497759,-0.013486
197,-8.367220,-0.141038,4.983114,-0.627499,-2.386975,-0.421585,-1.858708,59.447010,-2.835229,0.868247,-0.001817,0.495946,-0.013442
198,-8.374841,-0.158082,4.996632,-0.340625,-1.945983,-0.233896,-1.852028,59.274048,-2.819892,0.868996,-0.001877,0.494635,-0.013394
199,-8.373590,-0.157331,5.017740,-0.102581,-1.746087,0.005674,-1.848736,59.145893,-2.811627,0.869548,-0.001920,0.493663,-0.013375
200,-8.367575,-0.165722,5.033173,0.053063,-1.874264,0.190311,-1.838355,59.031715,-2.799336,0.870041,-0.001923,0.492795,-0.013353
201,-8.357802,-0.164931,5.036481,0.167508,-2.037538,0.260503,-1.828663,58.926041,-2.789248,0.870496,-0.001920,0.491992,-0.013342
202,-8.338823,-0.146384,5.040638,0.339938,-2.122990,0.307807,-1.783836,58.829357,-2.752095,0.870915,-0.001763,0.491251,-0.013273
203,-8.363116,-0.155186,5.063596,0.364353,-2.098575,0.315436,-1.725655,58.742886,-2.705865,0.871291,-0.001540,0.490587,-0.013190
204,-8.355555,-0.137073,5.070318,0.428442,-1.865109,0.159792,-1.668842,58.672115,-2.663469,0.871599,-0.001307,0.490042,-0.013126
205,-8.376111,-0.115183,5.095079,0.318574,-1.634694,0.126222,-1.572537,58.615002,-2.588494,0.871852,-0.000908,0.489596,-0.012979
206,-8.368073,-0.120754,5.108734,0.167508,-1.915464,0.437510,-1.467658,58.553925,-2.500145,0.872124,-0.000501,0.489119,-0.012766
207,-8.341725,-0.124981,5.114765,0.008811,-1.837642,0.655718,-1.394313,58.478157,-2.429748,0.872454,-0.000259,0.488534,-0.012557
209,-8.327276,-0.113294,5.115482,-0.033914,-1.485153,0.916651,-1.324179,58.406982,-2.355225,0.872766,-0.000058,0.487985,-0.012301
210,-8.313685,-0.132014,5.114085,0.030175,-1.437850,1.044829,-1.273256,58.351063,-2.294095,0.873010,0.000059,0.487553,-0.012062
211,-8.296193,-0.107520,5.107115,0.098841,-1.121983,0.756429,-1.232557,58.310966,-2.245049,0.873186,0.000152,0.487244,-0.011868
212,-8.327211,-0.101013,5.124131,0.112575,-0.763391,0.608414,-1.168456,58.294029,-2.181204,0.873264,0.000366,0.487108,-0.011657
213,-8.349125,-0.101612,5.148679,0.323152,-0.539080,0.571792,-1.109867,58.288448,-2.126964,0.873293,0.000581,0.487060,-0.011494
214,-8.352268,-0.095763,5.161743,0.088160,-0.584857,0.025511,-1.075014,58.274029,-2.097723,0.873357,0.000720,0.486947,-0.011421
215,-8.343087,-0.084758,5.162727,-0.267381,-0.743554,-0.487200,-1.065573,58.246944,-2.090978,0.873472,0.000758,0.486740,-0.011414
216,-8.325054,-0.101721,5.167552,-0.325366,-1.143346,-0.035527,-1.078943,58.201027,-2.098216,0.873667,0.000679,0.486391,-0.011419
217,-8.283949,-0.116020,5.157125,-0.278062,-1.201331,0.220829,-1.119121,58.136375,-2.121790,0.873938,0.000461,0.485902,-0.011438
218,-8.290973,-0.114673,5.169406,-0.322314,-1.068576,0.037718,-1.169196,58.072296,-2.153151,0.874207,0.000200,0.485418,-0.011475
219,-8.289080,-0.118901,5.175475,-0.113263,-1.009065,0.262029,-1.207091,58.018467,-2.176134,0.874432,-0.000002,0.485011,-0.011499
220,-8.296245,-0.124656,5.187770,0.092737,-0.902250,0.669451,-1.223680,57.973270,-2.181343,0.874623,-0.000115,0.484668,-0.011475
221,-8.318154,-0.127396,5.205696,0.057641,-0.845791,0.277289,-1.241301,57.935883,-2.189717,0.874780,-0.000222,0.484384,-0.011471
222,-8.321761,-0.112721,5.217285,0.065271,-1.050265,0.052978,-1.252632,57.898067,-2.197775,0.874939,-0.000281,0.484097,-0.011491
223,-8.286652,-0.111645,5.191529,-0.090374,-1.247109,0.046874,-1.245840,57.860077,-2.190341,0.875100,-0.000268,0.483806,-0.011469
224,-8.285213,-0.097112,5.185496,-0.229233,-1.207435,0.150637,-1.218782,57.835678,-2.160697,0.875206,-0.000191,0.483617,-0.011361
225,-8.288693,-0.095499,5.192660,-0.242966,-1.154028,0.324592,-1.167792,57.821548,-2.106206,0.875271,-0.000034,0.483504,-0.011162
226,-8.263382,-0.088844,5.193224,-0.209396,-1.109776,0.493970,-1.105493,57.800220,-2.039420,0.875367,0.000156,0.483335,-0.010918
227,-8.278855,-0.085491,5.199081,-0.340625,-0.941924,0.355111,-1.044438,57.778912,-1.972106,0.875463,0.000335,0.483167,-0.010664
228,-8.298570,-0.087283,5.213309,-0.271958,-0.912932,0.315436,-1.002942,57.767853,-1.922098,0.875514,0.000439,0.483079,-0.010459
229,-8.278522,-0.091828,5.224408,-0.223129,-1.173865,0.457348,-0.979014,57.740330,-1.887682,0.875633,0.000472,0.482866,-0.010300
230,-8.263451,-0.097711,5.224092,-0.278062,-1.334087,0.411570,-0.976204,57.689091,-1.870132,0.875850,0.000412,0.482475,-0.010185
231,-8.272490,-0.089941,5.228248,-0.349781,-1.247109,0.301704,-0.980303,57.642082,-1.858011,0.876049,0.000322,0.482116,-0.010081
232,-8.256701,-0.083324,5.232616,-0.322314,-1.274576,0.490918,-0.961729,57.600872,-1.825410,0.876225,0.000320,0.481799,-0.009915
233,-8.259009,-0.073181,5.241709,-0.366566,-1.273050,1.072296,-0.900487,57.556889,-1.749678,0.876416,0.000463,0.481458,-0.009599
234,-8.271096,-0.078332,5.253913,-0.323840,-1.028902,1.363747,-0.819551,57.520554,-1.649569,0.876577,0.000657,0.481174,-0.009178
235,-8.262087,-0.064182,5.272480,-0.268907,-1.057894,1.130281,-0.740979,57.479580,-1.552379,0.876756,0.000844,0.480855,-0.008769
236,-8.236680,-0.059710,5.259917,0.016441,-1.241005,0.941066,-0.662035,57.427021,-1.463460,0.876982,0.001069,0.480448,-0.008425
237,-8.233863,-0.048358,5.261267,0.277374,-0.943450,0.869348,-0.579237,57.384361,-1.381357,0.877166,0.001353,0.480116,-0.008147
238,-8.218224,-0.056410,5.265426,0.538309,-0.594013,0.851037,-0.507071,57.353741,-1.316434,0.877298,0.001631,0.479878,-0.007955
239,-8.217913,-0.045631,5.258056,0.471167,-0.787805,0.757955,-0.451414,57.330887,-1.269171,0.877396,0.001856,0.479699,-0.007828
240,-8.242327,-0.045536,5.255082,0.417759,-0.748131,0.838829,-0.399448,57.329571,-1.223422,0.877404,0.002063,0.479687,-0.007696
241,-8.245795,-0.018326,5.261343,0.294159,-0.363598,0.933436,-0.320676,57.348236,-1.151072,0.877329,0.002365,0.479826,-0.007470
242,-8.236045,-0.023940,5.264062,0.336885,-0.218635,1.243199,-0.218807,57.364914,-1.054538,0.877263,0.002742,0.479949,-0.007157
243,-8.242822,-0.038949,5.266625,0.248382,-0.177435,1.197422,-0.164727,57.375179,-0.995251,0.877222,0.002908,0.480026,-0.006929
244,-8.249068,-0.030738,5.276374,0.220915,0.175054,0.664874,-0.158218,57.385761,-0.979616,0.877179,0.002893,0.480107,-0.006836
245,-8.241201,-0.021609,5.278905,0.336885,0.413098,0.515333,-0.150937,57.394634,-0.970725,0.877142,0.002912,0.480175,-0.006798
246,-8.243229,-0.049104,5.280258,0.306367,0.321542,0.358162,-0.178665,57.398285,-0.995286,0.877126,0.002803,0.480204,-0.006870
247,-8.264050,-0.045241,5.290717,-0.055277,0.100283,-0.429215,-0.268863,57.396782,-1.075445,0.877129,0.002449,0.480196,-0.007105
248,-8.262045,-0.020912,5.285756,-0.175826,-0.182013,-0.893097,-0.343044,57.390835,-1.146558,0.877151,0.002178,0.480153,-0.007339
249,-8.247319,-0.022243,5.271325,-0.072063,-0.415480,-0.842741,-0.373173,57.383030,-1.184015,0.877182,0.002104,0.480095,-0.007500
250,-8.244628,-0.032679,5.269470,-0.149885,-0.505509,-0.941926,-0.407318,57.374992,-1.225637,0.877214,0.002016,0.480035,-0.007676
251,-8.242947,-0.040798,5.268917,-0.139203,-0.571124,-0.740504,-0.458190,57.366104,-1.279471,0.877248,0.001851,0.479969,-0.007876
252,-8.234102,-0.054893,5.259350,0.066798,-0.656576,-0.316297,-0.510085,57.359165,-1.331569,0.877274,0.001671,0.479919,-0.008058
253,-8.230546,-0.052841,5.260133,0.152249,-0.427687,-0.236948,-0.547906,57.357254,-1.371382,0.877280,0.001548,0.479907,-0.008205
254,-8.246848,-0.056733,5.281054,0.289582,-0.055361,0.188785,-0.559407,57.357708,-1.387662,0.877277,0.001529,0.479911,-0.008281
255,-8.255536,-0.057390,5.294274,0.346041,0.002624,0.300177,-0.553317,57.353657,-1.387053,0.877294,0.001572,0.479879,-0.008302
256,-8.257309,-0.042697,5.303366,0.135464,-0.224739,-0.005008,-0.533498,57.337086,-1.374453,0.877364,0.001669,0.479751,-0.008290
257,-8.251718,-0.038468,5.293576,-0.125470,-0.400220,-0.117926,-0.508480,57.315437,-1.354586,0.877455,0.001775,0.479584,-0.008245
258,-8.240625,-0.033722,5.292802,-0.160565,-0.505509,-0.107245,-0.484146,57.294167,-1.332047,0.877546,0.001865,0.479420,-0.008176
259,-8.237459,-0.025653,5.289708,-0.310106,-0.571124,-0.581808,-0.463020,57.272289,-1.313792,0.877638,0.001948,0.479251,-0.008126
260,-8.239428,-0.022256,5.281350,-0.345202,-0.479568,-0.641318,-0.448466,57.263588,-1.303300,0.877675,0.002015,0.479183,-0.008107
261,-8.246873,-0.037996,5.281010,-0.195662,-0.359020,-0.473467,-0.451908,57.272152,-1.308597,0.877639,0.002012,0.479249,-0.008133
262,-8.245742,-0.025111,5.289918,0.056116,-0.136235,-0.458208,-0.449515,57.283485,-1.312988,0.877591,0.002049,0.479336,-0.008175
263,-8.244053,-0.031500,5.287071,0.094264,-0.160650,-0.262889,-0.427280,57.290371,-1.302865,0.877563,0.002178,0.479387,-0.008190
264,-8.228670,-0.040243,5.276043,0.088160,-0.247628,-0.203378,-0.423147,57.294823,-1.306117,0.877544,0.002224,0.479421,-0.008232
265,-8.225144,-0.054244,5.278068,0.136989,-0.224739,-0.188119,-0.452842,57.294563,-1.337756,0.877543,0.002129,0.479420,-0.008350
266,-8.229605,-0.037268,5.271320,0.042383,-0.157598,-0.204904,-0.475702,57.298759,-1.363020,0.877524,0.002060,0.479454,-0.008448
267,-8.221473,-0.059008,5.268988,0.060693,-0.110295,-0.091986,-0.497384,57.308735,-1.385367,0.877481,0.001988,0.479531,-0.008527
268,-8.211419,-0.076667,5.279334,0.220915,-0.030946,-0.035526,-0.562746,57.305752,-1.445461,0.877490,0.001739,0.479512,-0.008714
269,-8.219388,-0.070953,5.286165,0.207182,-0.070620,-0.011112,-0.628967,57.290215,-1.507600,0.877551,0.001490,0.479398,-0.008915
270,-8.240926,-0.050864,5.288740,0.138515,-0.041628,-0.098089,-0.643133,57.283421,-1.525339,0.877579,0.001455,0.479346,-0.008992
271,-8.245337,-0.051998,5.305292,0.304841,0.149113,0.008726,-0.616818,57.281811,-1.510232,0.877586,0.001593,0.479332,-0.008986
272,-8.259491,-0.045501,5.307912,0.240753,0.106387,-0.030948,-0.580728,57.279087,-1.487745,0.877599,0.001775,0.479309,-0.008965
273,-8.264903,-0.023576,5.295592,0.147672,-0.066043,-0.104193,-0.517663,57.288078,-1.441352,0.877564,0.002065,0.479374,-0.008873
274,-8.256270,-0.032949,5.296373,0.182767,-0.307139,0.179629,-0.445256,57.295631,-1.384350,0.877535,0.002382,0.479427,-0.008739
275,-8.233933,-0.031274,5.291833,0.217864,-0.415480,0.384103,-0.388097,57.284611,-1.336745,0.877584,0.002619,0.479339,-0.008614
276,-8.231345,-0.038252,5.285269,0.091212,-0.610798,0.171999,-0.357675,57.265717,-1.310413,0.877664,0.002740,0.479193,-0.008541
277,-8.214875,-0.041083,5.284731,0.039330,-0.728294,-0.067571,-0.367811,57.242142,-1.319751,0.877762,0.002699,0.479013,-0.008572
278,-8.222461,-0.047106,5.293163,-0.113263,-0.716087,-0.149971,-0.405054,57.213440,-1.351909,0.877880,0.002545,0.478795,-0.008665
279,-8.214783,-0.033497,5.287607,-0.116314,-0.601642,-0.328504,-0.434327,57.191883,-1.377536,0.877969,0.002426,0.478632,-0.008741
280,-8.208910,-0.050665,5.296430,-0.064433,-0.677939,-0.172860,-0.459605,57.169773,-1.400688,0.878060,0.002327,0.478464,-0.008814
281,-8.192203,-0.051988,5.294567,-0.055277,-0.693198,0.193363,-0.489672,57.137775,-1.423989,0.878192,0.002190,0.478220,-0.008870
282,-8.192685,-0.027202,5.295465,-0.250596,-0.731346,0.141481,-0.473505,57.106007,-1.402995,0.878326,0.002223,0.477976,-0.008779
283,-8.190812,-0.028590,5.291525,-0.300950,-0.699302,-0.047733,-0.432128,57.084137,-1.359577,0.878420,0.002356,0.477806,-0.008621
284,-8.198490,-0.047227,5.293598,-0.246017,-0.410902,0.028563,-0.430208,57.078335,-1.350404,0.878445,0.002332,0.477762,-0.008559
285,-8.209931,-0.036148,5.294811,-0.264329,-0.157599,-0.040104,-0.444227,57.091164,-1.355099,0.878391,0.002246,0.477861,-0.008535
286,-8.217495,-0.027847,5.304295,-0.235336,-0.110295,-0.238474,-0.435391,57.109177,-1.343194,0.878317,0.002266,0.477999,-0.008479
287,-8.236388,-0.048457,5.304603,0.079004,-0.024843,0.181155,-0.432040,57.130016,-1.338704,0.878230,0.002275,0.478158,-0.008457
288,-8.239344,-0.047724,5.300932,0.292633,0.187261,0.394785,-0.433864,57.162041,-1.340237,0.878096,0.002271,0.478404,-0.008459
289,-8.237366,-0.024597,5.307542,0.347567,0.280342,0.263555,-0.394984,57.190739,-1.310608,0.877978,0.002448,0.478621,-0.008392
290,-8.232817,-0.024855,5.308228,0.478796,0.136905,0.443614,-0.323642,57.203041,-1.255860,0.877929,0.002767,0.478712,-0.008270
291,-8.229275,-0.020427,5.299123,0.391819,0.176579,0.240666,-0.260870,57.210224,-1.209128,0.877901,0.003053,0.478763,-0.008174
292,-8.217999,-0.005769,5.300860,0.297212,0.266609,0.088074,-0.200728,57.215553,-1.165273,0.877880,0.003331,0.478801,-0.008089
293,-8.217835,-0.000584,5.309647,0.159878,0.083498,0.048400,-0.137155,57.205929,-1.117016,0.877921,0.003616,0.478724,-0.007985
294,-8.230008,-0.023266,5.311528,-0.032387,-0.206428,-0.061467,-0.124604,57.187061,-1.108371,0.878001,0.003674,0.478579,-0.007972
295,-8.232546,-0.028101,5.309324,-0.357410,-0.427687,-0.510089,-0.184821,57.169811,-1.158666,0.878071,0.003422,0.478450,-0.008107
296,-8.221229,-0.026176,5.303861,-0.355885,-0.647421,-0.529926,-0.260317,57.151283,-1.221476,0.878146,0.003104,0.478311,-0.008274
297,-8.201826,-0.034469,5.296400,-0.262803,-0.755761,-0.693200,-0.330054,57.127460,-1.282395,0.878243,0.002821,0.478132,-0.008452
298,-8.209901,-0.040034,5.305063,-0.137678,-0.558917,-0.639793,-0.399506,57.105087,-1.347106,0.878333,0.002557,0.477965,-0.008659
299,-8.208695,-0.030998,5.312535,0.004233,-0.526872,-0.430741,-0.434036,57.085030,-1.383853,0.878414,0.002443,0.477813,-0.008799
300,-8.212153,-0.033846,5.314166,0.104945,-0.464309,-0.331556,-0.433739,57.067265,-1.391966,0.878488,0.002477,0.477676,-0.008864
301,-8.225385,-0.049968,5.325050,0.100367,-0.247628,-0.125556,-0.446572,57.058014,-1.409700,0.878525,0.002452,0.477606,-0.008947
302,-8.241979,-0.040721,5.344972,-0.154463,-0.220161,-0.062993,-0.464725,57.048927,-1.425854,0.878562,0.002379,0.477537,-0.008996
303,-8.223741,-0.052867,5.338944,-0.398611,-0.639791,-0.200326,-0.492871,57.025940,-1.444057,0.878657,0.002236,0.477363,-0.009020
304,-8.208291,-0.051412,5.321387,-0.638180,-0.882413,-0.476519,-0.548931,56.997196,-1.482605,0.878775,0.001964,0.477146,-0.009085
305,-8.201189,-0.053603,5.321521,-0.659544,-0.700828,-0.285778,-0.601543,56.976116,-1.515368,0.878861,0.001694,0.476988,-0.009119
306,-8.190056,-0.045351,5.322789,-0.580195,-0.757287,-0.064519,-0.619429,56.955215,-1.516084,0.878948,0.001557,0.476829,-0.009052
307,-8.161877,-0.069731,5.304076,-0.203292,-0.743553,0.049926,-0.635157,56.933811,-1.518304,0.879037,0.001443,0.476666,-0.009005
308,-8.187836,-0.055396,5.311404,-0.006448,-0.241524,-0.095037,-0.652343,56.933109,-1.530090,0.879039,0.001360,0.476662,-0.009024
309,-8.219114,-0.050387,5.331310,0.260589,0.291024,0.191836,-0.625889,56.959263,-1.510593,0.878931,0.001485,0.476861,-0.008982
310,-8.224178,-0.047868,5.339406,0.420812,0.240668,0.167422,-0.575733,56.987286,-1.474850,0.878817,0.001725,0.477073,-0.008914
312,-8.212248,-0.051429,5.329991,0.411656,0.188787,-0.058415,-0.541141,57.004242,-1.456524,0.878747,0.001915,0.477200,-0.008916
313,-8.236308,-0.034043,5.335660,0.155301,0.255928,-0.207956,-0.512194,57.023094,-1.442624,0.878669,0.002082,0.477343,-0.008929
314,-8.219273,-0.026850,5.318961,0.162930,0.002624,0.190311,-0.454306,57.044418,-1.398688,0.878583,0.002345,0.477503,-0.008831
315,-8.186045,-0.025595,5.307511,0.304841,-0.136235,0.544326,-0.374142,57.051079,-1.331292,0.878559,0.002679,0.477549,-0.008648
316,-8.175518,-0.017697,5.309732,0.420812,0.178105,0.620622,-0.283918,57.044407,-1.255174,0.878590,0.003053,0.477493,-0.008441
317,-8.216143,-0.004544,5.338246,0.480323,0.417676,0.619096,-0.181279,57.039635,-1.170446,0.878613,0.003487,0.477451,-0.008219
318,-8.216154,-0.006677,5.349699,0.495582,0.335276,0.651140,-0.086396,57.030109,-1.092997,0.878655,0.003891,0.477374,-0.008021
319,-8.208765,-0.017092,5.354677,0.356723,0.133853,0.316963,-0.045640,57.003857,-1.061963,0.878765,0.004072,0.477171,-0.007954
320,-8.210382,-0.006692,5.348478,0.106472,-0.101139,-0.230845,-0.052112,56.973434,-1.073091,0.878891,0.004067,0.476938,-0.008014
321,-8.210223,-0.018383,5.340314,0.016441,-0.308665,-0.226267,-0.084588,56.953190,-1.106182,0.878974,0.003954,0.476784,-0.008133
322,-8.196783,-0.035300,5.330716,-0.035440,-0.395643,-0.197274,-0.154349,56.940548,-1.168230,0.879025,0.003676,0.476690,-0.008320
323,-8.214211,-0.039307,5.338121,0.007287,-0.415480,-0.091985,-0.237075,56.933586,-1.239782,0.879051,0.003338,0.476640,-0.008525
324,-8.214540,-0.031699,5.345328,0.053063,-0.442946,0.002622,-0.287583,56.926426,-1.283737,0.879079,0.003133,0.476588,-0.008652
325,-8.205476,-0.040693,5.349128,0.013390,-0.528398,-0.088933,-0.322015,56.908356,-1.314259,0.879153,0.002994,0.476451,-0.008745
326,-8.201487,-0.025144,5.348201,-0.110210,-0.581805,-0.261363,-0.345162,56.883888,-1.335429,0.879253,0.002902,0.476264,-0.008812
327,-8.193635,-0.022308,5.349662,-0.082744,-0.629109,-0.146919,-0.337433,56.858093,-1.329914,0.879361,0.002936,0.476066,-0.008804
328,-8.182622,-0.016659,5.345028,-0.140729,-0.592487,-0.195748,-0.314384,56.832874,-1.310553,0.879466,0.003030,0.475871,-0.008753
329,-8.178405,-0.011965,5.355819,-0.084270,-0.436843,-0.110297,-0.279760,56.807182,-1.281169,0.879574,0.003171,0.475672,-0.008673
330,-8.186702,-0.033610,5.362346,-0.117840,-0.687094,0.226933,-0.265757,56.777069,-1.265517,0.879700,0.003210,0.475440,-0.008613
331,-8.182996,-0.025097,5.354561,-0.262803,-0.978546,-0.052312,-0.278408,56.748135,-1.269127,0.879820,0.003126,0.475219,-0.008590
332,-8.181668,-0.012130,5.357929,-0.242966,-0.848843,-0.220163,-0.274106,56.725147,-1.260890,0.879916,0.003122,0.475042,-0.008546
333,-8.171411,-0.015609,5.365112,-0.177351,-0.862576,0.072815,-0.250539,56.699177,-1.236602,0.880025,0.003200,0.474842,-0.008459
334,-8.169707,-0.027610,5.358302,-0.258225,-0.845791,0.008726,-0.247182,56.674408,-1.226911,0.880128,0.003184,0.474652,-0.008400
335,-8.170440,-0.011493,5.368615,-0.108685,-0.372754,-0.330030,-0.250659,56.661823,-1.227600,0.880180,0.003159,0.474555,-0.008391
336,-8.164496,-0.027769,5.371532,0.007287,-0.140813,0.039244,-0.249143,56.655113,-1.227563,0.880208,0.003169,0.474504,-0.008398
337,-8.168087,-0.030209,5.365086,-0.009500,-0.241524,0.150637,-0.260182,56.654430,-1.235000,0.880210,0.003115,0.474499,-0.008409
338,-8.168956,-0.033969,5.362428,0.004234,-0.114872,-0.162178,-0.283991,56.662991,-1.254908,0.880174,0.003016,0.474566,-0.008463
339,-8.162393,-0.031980,5.362543,0.086635,-0.108769,0.013303,-0.307599,56.671917,-1.277252,0.880136,0.002928,0.474636,-0.008536
340,-8.164083,-0.028482,5.351297,0.053063,-0.221687,0.271185,-0.305352,56.681950,-1.274699,0.880095,0.002935,0.474713,-0.008525
341,-8.168122,-0.019039,5.364819,0.144619,-0.047732,0.010251,-0.280932,56.691513,-1.254454,0.880056,0.003040,0.474785,-0.008470
342,-8.174511,-0.037001,5.376915,0.136989,-0.038576,0.016355,-0.277075,56.689194,-1.254907,0.880065,0.003071,0.474767,-0.008490
343,-8.171148,-0.026133,5.374059,0.060693,-0.287302,0.034666,-0.287771,56.677162,-1.266117,0.880115,0.003034,0.474675,-0.008533
344,-8.177544,-0.017565,5.368380,0.007287,-0.317821,-0.232371,-0.278419,56.669300,-1.261032,0.880147,0.003084,0.474614,-0.008533
345,-8.172585,-0.024253,5.380535,0.080530,-0.085880,-0.264415,-0.273448,56.663818,-1.262631,0.880170,0.003129,0.474571,-0.008566
346,-8.165174,-0.020866,5.378613,0.053063,-0.169806,-0.064519,-0.270006,56.650608,-1.264618,0.880224,0.003162,0.474470,-0.008596
347,-8.163623,-0.010950,5.377775,-0.006448,-0.221687,-0.136237,-0.246988,56.635616,-1.247863,0.880287,0.003268,0.474353,-0.008564
348,-8.164578,-0.016749,5.383314,-0.038492,-0.090458,-0.212533,-0.226916,56.622391,-1.233657,0.880342,0.003362,0.474251,-0.008539
349,-8.165119,-0.015400,5.394870,-0.053751,-0.098087,-0.091985,-0.218510,56.604481,-1.228140,0.880416,0.003403,0.474112,-0.008532
350,-8.165075,-0.014264,5.390650,-0.192610,-0.308665,-0.226267,-0.213237,56.582504,-1.223214,0.880507,0.003421,0.473943,-0.008517
351,-8.169681,-0.025656,5.388545,-0.273485,-0.424635,-0.357496,-0.234689,56.566452,-1.239966,0.880573,0.003324,0.473821,-0.008558
352,-8.159162,-0.016773,5.381725,-0.242966,-0.409376,-0.293408,-0.260094,56.557064,-1.259929,0.880611,0.003210,0.473750,-0.008607
353,-8.161782,-0.010821,5.374554,-0.131574,-0.326976,-0.136238,-0.250362,56.558453,-1.250515,0.880606,0.003246,0.473761,-0.008575
354,-8.161722,-0.017090,5.376618,0.043908,-0.059939,-0.015689,-0.227262,56.571205,-1.231397,0.880554,0.003346,0.473857,-0.008523
355,-8.163110,-0.018644,5.374548,0.143093,0.164372,0.216251,-0.206195,56.590839,-1.214577,0.880473,0.003440,0.474007,-0.008480
356,-8.166327,-0.007039,5.378560,0.263641,0.318490,0.318488,-0.164647,56.613213,-1.180656,0.880382,0.003621,0.474177,-0.008390
357,-8.177189,-0.024779,5.384550,0.205656,0.280342,0.260503,-0.137916,56.631397,-1.159571,0.880307,0.003740,0.474316,-0.008337
358,-8.171662,-0.025143,5.384049,0.069849,0.126224,0.251348,-0.150889,56.639675,-1.169556,0.880273,0.003683,0.474380,-0.008360
359,-8.181933,-0.025241,5.381453,-0.088848,-0.032472,0.022459,-0.177280,56.643246,-1.188826,0.880258,0.003560,0.474408,-0.008399
360,-8.176191,-0.023161,5.380227,-0.107159,-0.153021,-0.284252,-0.212114,56.644993,-1.217588,0.880249,0.003412,0.474424,-0.008475
361,-8.173576,-0.030151,5.388846,-0.122417,-0.200324,-0.287304,-0.254092,56.634769,-1.254679,0.880290,0.003242,0.474347,-0.008587
362,-8.170198,-0.028017,5.385167,-0.139203,-0.326976,-0.278149,-0.293023,56.616985,-1.288710,0.880362,0.003082,0.474212,-0.008688
363,-8.186107,-0.032150,5.386816,-0.091898,-0.467361,-0.499408,-0.328807,56.605125,-1.322465,0.880410,0.002945,0.474123,-0.008800
364,-8.181479,-0.016203,5.391201,-0.082744,-0.618428,-0.545185,-0.343609,56.593296,-1.341919,0.880457,0.002911,0.474033,-0.008890
365,-8.184394,-0.012540,5.407287,-0.038492,-0.764917,-0.130134,-0.313505,56.565739,-1.321226,0.880572,0.003054,0.473819,-0.008857
366,-8.185901,-0.020859,5.403422,-0.136150,-0.989228,-0.145393,-0.282741,56.531200,-1.295566,0.880716,0.003181,0.473552,-0.008789
367,-8.175039,-0.007857,5.402264,-0.220078,-1.176917,-0.346815,-0.261958,56.497318,-1.277699,0.880857,0.003264,0.473291,-0.008740
368,-8.152965,-0.002014,5.412170,-0.261278,-1.285257,-0.197274,-0.224741,56.447803,-1.244878,0.881063,0.003410,0.472908,-0.008644
369,-8.147845,-0.018949,5.406157,-0.279589,-1.443953,0.023985,-0.202593,56.390705,-1.220400,0.881299,0.003474,0.472468,-0.008551
370,-8.136347,-0.020172,5.399499,-0.340625,-1.375287,-0.305615,-0.218070,56.347317,-1.227179,0.881478,0.003379,0.472136,-0.008542
371,-8.128856,-0.033465,5.408704,-0.197188,-1.067050,-0.137763,-0.257579,56.313698,-1.256607,0.881615,0.003193,0.471879,-0.008607
372,-8.124041,-0.044076,5.409419,0.017968,-0.787806,0.085022,-0.307694,56.288307,-1.296233,0.881718,0.002968,0.471686,-0.008708
373,-8.130576,-0.040008,5.409773,0.107996,-0.587909,-0.079778,-0.348577,56.278767,-1.331876,0.881756,0.002799,0.471615,-0.008814
374,-8.129638,-0.045586,5.425348,0.175137,-0.404798,-0.001956,-0.378901,56.272312,-1.361726,0.881781,0.002688,0.471567,-0.008920
375,-8.141249,-0.055927,5.443116,0.092737,-0.661154,-0.020267,-0.420496,56.249668,-1.400172,0.881872,0.002524,0.471395,-0.009046
376,-8.153007,-0.027826,5.449706,-0.198714,-1.399702,-0.545185,-0.446871,56.208637,-1.425728,0.882039,0.002421,0.471081,-0.009138
377,-8.183016,-0.036522,5.486899,-0.496270,-2.315257,-0.572652,-0.459754,56.138348,-1.436893,0.882327,0.002360,0.470541,-0.009176
378,-8.192170,-0.036904,5.524571,-0.839603,-3.755730,-0.523822,-0.488925,56.012268,-1.452330,0.882844,0.002184,0.469572,-0.009186
379,-8.187772,-0.020560,5.553413,-1.399618,-5.943906,-0.764918,-0.527109,55.821999,-1.464231,0.883622,0.001917,0.468108,-0.009138
380,-8.194361,-0.039584,5.597803,-1.926062,-8.754661,-0.116400,-0.574071,55.555565,-1.464112,0.884708,0.001522,0.466056,-0.008969
381,-8.147680,-0.053109,5.650619,-2.095438,-11.733268,0.890710,-0.606828,55.183617,-1.426536,0.886219,0.001073,0.463185,-0.008580
382,-8.074888,-0.045033,5.708677,-2.414358,-14.737816,0.849511,-0.621172,54.693272,-1.357348,0.888198,0.000627,0.459391,-0.008031
383,-7.977214,-0.065935,5.765568,-2.469292,-17.345623,0.934962,-0.644826,54.092514,-1.289569,0.890598,0.000106,0.454730,-0.007464
384,-7.897181,-0.089358,5.843352,-2.571527,-19.309488,0.941066,-0.694183,53.405560,-1.238950,0.893310,-0.000553,0.449386,-0.006936
385,-7.795955,-0.068270,5.920815,-2.714965,-20.594318,0.172000,-0.759344,52.659637,-1.204483,0.896217,-0.001277,0.443566,-0.006481
386,-7.723122,-0.081362,6.031463,-2.876713,-21.625843,-0.430741,-0.843982,51.871120,-1.194243,0.899247,-0.002065,0.437393,-0.006151
387,-7.634216,-0.108546,6.130023,-2.818727,-22.520035,-0.531452,-0.956674,51.049282,-1.210866,0.902356,-0.002980,0.430940,-0.005938
388,-7.584377,-0.141271,6.275968,-3.133069,-23.928463,-1.273052,-1.108785,50.187958,-1.262108,0.905561,-0.004091,0.424155,-0.005870
389,-7.524017,-0.194878,6.419261,-3.160535,-26.498121,-2.849333,-1.337306,49.257385,-1.389531,0.908958,-0.005555,0.416806,-0.006159
390,-7.407712,-0.233767,6.550278,-2.837040,-29.794121,-4.610250,-1.639432,48.221039,-1.607973,0.912658,-0.007326,0.408599,-0.006963
391,-7.288864,-0.275627,6.665443,-2.675292,-33.151157,-6.307079,-1.988859,47.070377,-1.899224,0.916666,-0.009292,0.399461,-0.008263
392,-7.137905,-0.280921,6.779057,-2.324327,-35.961910,-7.431686,-2.339803,45.823753,-2.221627,0.920894,-0.011257,0.389525,-0.009906
393,-6.948015,-0.282922,6.874330,-1.521691,-37.452740,-7.648368,-2.628887,44.513187,-2.521153,0.925221,-0.012895,0.379031,-0.011669
394,-6.753923,-0.281089,6.973767,-0.531366,-37.609913,-7.044101,-2.820505,43.185749,-2.763469,0.929489,-0.014006,0.368342,-0.013360
395,-6.602468,-0.296901,7.079701,0.123256,-37.457317,-6.444413,-2.927048,41.881119,-2.949433,0.933573,-0.014651,0.357778,-0.014903
396,-6.453504,-0.263356,7.228013,0.724471,-37.120090,-5.916443,-2.954618,40.606461,-3.082581,0.937459,-0.014841,0.347398,-0.016275
397,-6.308427,-0.272050,7.388283,1.472174,-36.610432,-4.698755,-2.903027,39.352535,-3.158557,0.941185,-0.014566,0.337127,-0.017417
398,-6.171754,-0.292685,7.561563,1.948263,-35.932919,-2.823392,-2.797803,38.120144,-3.177516,0.944753,-0.014014,0.326976,-0.018228
399,-6.037464,-0.284708,7.739071,1.849078,-35.009735,-1.277629,-2.653213,36.914028,-3.136176,0.948153,-0.013291,0.316991,-0.018623
400,-5.887110,-0.268104,7.890821,2.103907,-33.228981,0.406992,-2.468567,35.751865,-3.035180,0.951344,-0.012366,0.307321,-0.018590
401,-5.723218,-0.279968,7.977934,2.488440,-31.207127,1.990903,-2.255926,34.659481,-2.886755,0.954266,-0.011284,0.298192,-0.018179
402,-5.604301,-0.269672,8.078397,2.500648,-29.990967,2.448681,-2.043810,33.640606,-2.720738,0.956918,-0.010198,0.289649,-0.017562
403,-5.479042,-0.220935,8.149484,2.422826,-29.824638,2.247259,-1.833613,32.669624,-2.556185,0.959373,-0.009078,0.281486,-0.016903
404,-5.312270,-0.203560,8.215491,3.181210,-29.820061,3.011747,-1.606730,31.710234,-2.384732,0.961733,-0.007800,0.273400,-0.016186
405,-5.184869,-0.191127,8.298632,3.440618,-30.146612,3.365762,-1.370009,30.746557,-2.205403,0.964033,-0.006424,0.265260,-0.015386
406,-5.047959,-0.158418,8.392742,3.777847,-30.430431,2.822532,-1.138659,29.776413,-2.040617,0.966273,-0.005026,0.257051,-0.014656
407,-4.902584,-0.111424,8.492877,4.079981,-30.151188,2.541762,-0.902932,28.801325,-1.894987,0.968450,-0.003518,0.248786,-0.014057
408,-4.783183,-0.096093,8.596470,4.646099,-29.604906,2.494458,-0.662167,27.840456,-1.763134,0.970522,-0.001907,0.240625,-0.013544
409,-4.658486,-0.030391,8.699079,4.199003,-29.974180,1.540755,-0.427224,26.889444,-1.654059,0.972499,-0.000270,0.232534,-0.013171
410,-4.499988,-0.007911,8.802762,2.926381,-30.399914,0.643510,-0.232302,25.917889,-1.581383,0.974442,0.001119,0.224258,-0.012994
411,-4.332200,0.025755,8.899478,1.688856,-30.595230,0.684710,-0.092390,24.916473,-1.530774,0.976368,0.002095,0.215719,-0.012870
412,-4.171378,0.000861,8.945112,0.893848,-30.143560,0.638933,-0.006200,23.912477,-1.491291,0.978223,0.002643,0.207148,-0.012720
413,-3.992228,0.002618,8.973424,0.011864,-29.850582,0.020933,0.021586,22.923067,-1.475973,0.979977,0.002744,0.198691,-0.012661
415,-3.797383,-0.029016,9.044394,-0.761780,-30.615072,-0.415482,-0.005848,21.910324,-1.487852,0.981694,0.002417,0.190025,-0.012737
416,-3.652783,-0.039517,9.129465,-0.830448,-31.748835,-1.123511,-0.071804,20.854265,-1.525791,0.983400,0.001794,0.180977,-0.012981
417,-3.403792,-0.025313,9.216736,-0.767884,-35.789482,-2.127570,-0.139395,19.682745,-1.589276,0.985192,0.001172,0.170921,-0.013457
418,-3.161655,0.001489,9.344099,-1.041025,-40.905910,-2.885955,-0.192789,18.299515,-1.672361,0.987173,0.000660,0.159023,-0.014140
419,-2.890829,-0.001584,9.481572,-0.972359,-44.558975,-3.334577,-0.235281,16.719519,-1.768262,0.989259,0.000212,0.145402,-0.014968
420,-2.650615,0.002813,9.554969,-0.349781,-44.775658,-3.488695,-0.258872,15.059952,-1.871063,0.991247,-0.000100,0.131064,-0.015891
421,-2.347497,0.029570,9.608005,0.692427,-44.385021,-3.001925,-0.233255,13.404241,-1.963808,0.993023,-0.000021,0.116725,-0.016782
422,-2.176816,-0.017285,9.665075,1.096796,-40.974579,-2.440385,-0.185013,11.845536,-2.042208,0.994506,0.000233,0.103200,-0.017559
423,-1.961550,0.003460,9.680380,1.459967,-36.853054,-1.912414,-0.133668,10.474979,-2.107661,0.995658,0.000517,0.091290,-0.018209
424,-1.795327,-0.008448,9.703909,1.137997,-33.334267,-1.590444,-0.080954,9.279669,-2.161003,0.996546,0.000821,0.080891,-0.018738
425,-1.628124,-0.028842,9.726029,0.681745,-32.041809,-1.770504,-0.059392,8.205464,-2.216215,0.997251,0.000867,0.071542,-0.019252
426,-1.450944,-0.025020,9.721765,0.100367,-30.865318,-1.772030,-0.065962,7.190803,-2.276331,0.997835,0.000671,0.062709,-0.019788
427,-1.282992,-0.010219,9.731887,-0.575618,-29.182224,-1.585867,-0.085771,6.230179,-2.332095,0.998316,0.000359,0.054346,-0.020279
428,-1.136966,-0.059238,9.779840,-1.889440,-27.058136,-2.315259,-0.150242,5.340795,-2.397351,0.998696,-0.000335,0.046608,-0.020836
429,-0.971452,-0.026724,9.732396,-3.245987,-23.846064,-3.181985,-0.261379,4.542796,-2.488092,0.998978,-0.001418,0.039673,-0.021604
430,-0.853870,-0.031014,9.763340,-4.889408,-18.268808,-3.374251,-0.399981,3.894613,-2.593285,0.999163,-0.002719,0.034050,-0.022497
431,-0.768282,-0.065274,9.840648,-6.276474,-12.430615,-3.937317,-0.587062,3.450253,-2.710529,0.999258,-0.004407,0.030217,-0.023486
432,-0.731010,-0.138769,9.864029,-6.711363,-7.245522,-5.135169,-0.825424,3.210951,-2.858895,0.999275,-0.006499,0.028187,-0.024734
433,-0.722935,-0.164528,9.869779,-6.125408,-2.556353,-5.266398,-1.072184,3.162432,-3.031497,0.999233,-0.008620,0.027830,-0.026182
434,-0.753917,-0.242992,9.952546,-4.756653,0.828150,-4.468339,-1.293096,3.273356,-3.195517,0.999149,-0.010479,0.028863,-0.027547
435,-0.773956,-0.254403,9.922807,-2.763794,2.386120,-3.612296,-1.459963,3.480545,-3.334005,0.999046,-0.011846,0.030724,-0.028688
436,-0.810830,-0.266743,9.906260,-0.870122,3.373393,-2.255748,-1.549641,3.812537,-3.436188,0.998919,-0.012512,0.033652,-0.029513
437,-0.826845,-0.238636,9.908676,0.692427,3.728934,-0.490252,-1.544461,4.216708,-3.484570,0.998785,-0.012344,0.037179,-0.029885
438,-0.842422,-0.222060,9.891484,1.928426,3.417645,0.934962,-1.443391,4.550132,-3.475908,0.998688,-0.011376,0.040057,-0.029802
439,-0.842177,-0.180909,9.866810,2.926381,2.685201,1.691821,-1.298488,4.761384,-3.429468,0.998639,-0.010073,0.041856,-0.029425
440,-0.852045,-0.167727,9.881905,3.008781,1.908505,1.453777,-1.147372,4.871960,-3.374471,0.998626,-0.008748,0.042777,-0.028990
441,-0.867323,-0.144931,9.871331,2.937062,1.214209,1.169955,-1.002452,4.945796,-3.327962,0.998620,-0.007483,0.043381,-0.028632
442,-0.872566,-0.123026,9.872630,2.549477,0.788476,0.849511,-0.849247,5.003581,-3.289609,0.998617,-0.006148,0.043844,-0.028352
443,-0.874559,-0.117769,9.864147,2.071863,0.609942,0.419200,-0.709893,5.049471,-3.263395,0.998613,-0.004932,0.044208,-0.028174
444,-0.878447,-0.116893,9.866966,1.360782,0.503127,-0.082830,-0.626019,5.081471,-3.255667,0.998606,-0.004196,0.044466,-0.028137
445,-0.875323,-0.101174,9.876266,1.586619,0.165898,0.254399,-0.567284,5.095427,-3.252080,0.998603,-0.003682,0.044573,-0.028128
446,-0.878725,-0.102835,9.881148,1.630871,-0.120976,0.429881,-0.511296,5.092192,-3.240520,0.998609,-0.003200,0.044531,-0.028049
447,-0.875817,-0.099790,9.875893,1.560678,-0.600116,0.719807,-0.469271,5.075225,-3.222326,0.998621,-0.002845,0.044372,-0.027907
448,-0.868297,-0.088938,9.892874,1.498115,-1.312724,1.180636,-0.430594,5.032394,-3.191622,0.998646,-0.002530,0.043989,-0.027657
449,-0.861016,-0.083526,9.898175,1.170041,-2.136724,1.397318,-0.395493,4.959149,-3.149245,0.998685,-0.002258,0.043341,-0.027304
450,-0.862670,-0.089232,9.902255,0.437596,-2.475479,1.047881,-0.388305,4.877034,-3.109827,0.998725,-0.002230,0.042623,-0.026966
451,-0.838453,-0.078545,9.882787,0.040856,-2.936309,0.907496,-0.402568,4.785972,-3.078641,0.998765,-0.002387,0.041832,-0.026693
452,-0.810223,-0.071566,9.871473,-0.136151,-3.397138,0.857140,-0.412312,4.664391,-3.049279,0.998815,-0.002511,0.040774,-0.026438
453,-0.789305,-0.084895,9.872124,-0.381825,-3.560412,0.645037,-0.431293,4.523653,-3.024318,0.998870,-0.002718,0.039551,-0.026220
454,-0.762430,-0.068965,9.880046,-0.339099,-3.717582,0.555007,-0.448216,4.375261,-3.003849,0.998924,-0.002907,0.038261,-0.026042
455,-0.732215,-0.065909,9.885046,-0.380300,-4.015138,0.606888,-0.445670,4.213192,-2.982426,0.998982,-0.002929,0.036847,-0.025863
456,-0.723142,-0.069532,9.891365,-0.517633,-4.010560,0.440562,-0.444752,4.056777,-2.962791,0.999035,-0.002962,0.035483,-0.025699
457,-0.705660,-0.084391,9.899188,-0.593928,-3.899168,0.300177,-0.462448,3.923525,-2.949358,0.999078,-0.003151,0.034325,-0.025582
458,-0.685837,-0.073113,9.893256,-0.532891,-3.732842,0.291022,-0.481113,3.804741,-2.938483,0.999115,-0.003344,0.033293,-0.025487
459,-0.669649,-0.102746,9.888557,-0.432180,-3.598560,0.318488,-0.506483,3.697465,-2.927912,0.999147,-0.003592,0.032363,-0.025392
460,-0.665979,-0.108086,9.897192,-0.261276,-3.209449,0.249822,-0.548483,3.613572,-2.919415,0.999171,-0.003979,0.031640,-0.025310
461,-0.641456,-0.104705,9.914500,0.033226,-2.922575,0.355110,-0.575025,3.543469,-2.909830,0.999191,-0.004229,0.031035,-0.025223
462,-0.620337,-0.102812,9.911142,0.173612,-2.504472,0.484814,-0.580781,3.469941,-2.895537,0.999214,-0.004299,0.030394,-0.025100
463,-0.600305,-0.103016,9.910422,0.220915,-2.333568,0.580948,-0.577633,3.394026,-2.877208,0.999237,-0.004294,0.029731,-0.024945
464,-0.585727,-0.087286,9.906432,0.176663,-2.220649,0.480237,-0.562187,3.316408,-2.858281,0.999262,-0.004181,0.029050,-0.024788
465,-0.559565,-0.079580,9.888090,0.199553,-2.434279,0.648088,-0.531616,3.227270,-2.837357,0.999290,-0.003939,0.028265,-0.024617
466,-0.549967,-0.082292,9.890199,0.156826,-2.417494,0.695392,-0.503598,3.130319,-2.813018,0.999319,-0.003721,0.027413,-0.024416
467,-0.551122,-0.087305,9.892118,0.280426,-2.356457,0.506177,-0.488147,3.052770,-2.791878,0.999342,-0.003608,0.026733,-0.024239
468,-0.541933,-0.094451,9.893746,0.198026,-2.263375,0.248296,-0.487590,2.994649,-2.779059,0.999358,-0.003619,0.026225,-0.024130
469,-0.540504,-0.102683,9.894154,0.165983,-2.005494,0.060607,-0.503332,2.952138,-2.774452,0.999368,-0.003766,0.025858,-0.024088
470,-0.534257,-0.105577,9.896081,0.191924,-1.521775,-0.258311,-0.526161,2.929319,-2.778718,0.999372,-0.003969,0.025664,-0.024121
471,-0.527489,-0.105301,9.900421,0.205656,-1.302042,-0.403274,-0.545557,2.916583,-2.790637,0.999371,-0.004138,0.025557,-0.024221
472,-0.519250,-0.093628,9.899579,0.021019,-1.173865,-0.363600,-0.553012,2.902679,-2.803588,0.999371,-0.004203,0.025438,-0.024333
473,-0.530037,-0.100250,9.880480,0.173612,-0.468887,-0.441422,-0.553718,2.908990,-2.816925,0.999367,-0.004205,0.025494,-0.024449
474,-0.528449,-0.089138,9.867227,0.492530,0.544327,-0.326978,-0.542229,2.953370,-2.829703,0.999355,-0.004093,0.025879,-0.024561
475,-0.528622,-0.078884,9.903351,0.628337,1.321024,-0.035526,-0.507614,3.018865,-2.835187,0.999340,-0.003775,0.026443,-0.024614
476,-0.529934,-0.073479,9.914520,0.730575,1.658253,0.057555,-0.462456,3.087534,-2.834051,0.999326,-0.003367,0.027032,-0.024611
477,-0.541135,-0.079154,9.949517,0.600871,1.879512,0.019407,-0.428269,3.155321,-2.832587,0.999311,-0.003054,0.027616,-0.024604
478,-0.535897,-0.070193,9.968752,0.532204,1.487349,0.352059,-0.404865,3.204444,-2.826568,0.999301,-0.002841,0.028039,-0.024555
479,-0.537776,-0.075622,9.979938,0.297211,0.588579,0.472607,-0.390878,3.212690,-2.813085,0.999302,-0.002721,0.028107,-0.024441
480,-0.543253,-0.081063,9.948641,0.033226,-0.252206,0.312385,-0.398677,3.190745,-2.800807,0.999310,-0.002796,0.027917,-0.024333
481,-0.548649,-0.080530,9.922633,-0.244492,-0.572650,0.291022,-0.420606,3.161971,-2.791691,0.999318,-0.002996,0.027671,-0.024249
482,-0.545179,-0.077342,9.902806,-0.191084,-0.810694,0.529066,-0.439528,3.134088,-2.778516,0.999327,-0.003170,0.027431,-0.024131
483,-0.548650,-0.077352,9.910937,-0.337574,-0.978546,0.397837,-0.452085,3.107510,-2.763067,0.999337,-0.003289,0.027202,-0.023994
484,-0.542213,-0.065423,9.901506,-0.479485,-0.883939,0.185733,-0.456381,3.084709,-2.752606,0.999344,-0.003334,0.027004,-0.023903
485,-0.538439,-0.074915,9.898464,-0.471855,-0.763391,0.266607,-0.458984,3.064735,-2.744143,0.999350,-0.003362,0.026830,-0.023829
486,-0.532086,-0.083175,9.898237,-0.418448,-0.755761,0.371896,-0.473205,3.044966,-2.733278,0.999357,-0.003493,0.026660,-0.023732
487,-0.522909,-0.077312,9.896100,-0.351306,-0.651998,0.301703,-0.485010,3.020505,-2.721818,0.999364,-0.003604,0.026449,-0.023630
488,-0.514678,-0.081414,9.886017,-0.183455,-0.464309,0.060607,-0.488428,2.993848,-2.715339,0.999372,-0.003641,0.026217,-0.023574
489,-0.523686,-0.082903,9.914415,-0.116314,-0.394117,-0.050786,-0.490408,2.978107,-2.714895,0.999375,-0.003661,0.026080,-0.023570
490,-0.518812,-0.078689,9.904492,0.021019,-0.430739,-0.024845,-0.486115,2.971007,-2.715731,0.999377,-0.003625,0.026017,-0.023579
491,-0.517527,-0.085930,9.914173,0.083581,-0.398695,0.028562,-0.481064,2.962164,-2.715380,0.999379,-0.003583,0.025939,-0.023577
492,-0.520382,-0.097380,9.915594,0.167508,-0.386487,-0.073674,-0.489191,2.956930,-2.716657,0.999380,-0.003655,0.025895,-0.023587
493,-0.518546,-0.080371,9.929927,0.101893,-0.352917,-0.005008,-0.492250,2.954484,-2.718252,0.999380,-0.003682,0.025874,-0.023600
494,-0.511441,-0.077940,9.925230,0.118678,-0.394117,0.114015,-0.479436,2.945717,-2.715862,0.999383,-0.003572,0.025795,-0.023583
495,-0.512377,-0.082708,9.928357,0.053063,-0.415480,0.065185,-0.470484,2.932739,-2.712453,0.999387,-0.003498,0.025680,-0.023555
496,-0.509274,-0.077095,9.906590,0.048487,-0.461257,0.031615,-0.465136,2.920604,-2.710536,0.999390,-0.003454,0.025573,-0.023540
497,-0.506167,-0.059983,9.898653,0.045434,-0.449050,0.066711,-0.444475,2.907663,-2.707805,0.999394,-0.003277,0.025456,-0.023522
498,-0.513241,-0.061850,9.900578,0.246857,-0.404798,0.123170,-0.412173,2.902313,-2.703140,0.999397,-0.002997,0.025402,-0.023488
499,-0.504778,-0.083512,9.908735,0.222441,-0.449050,0.303229,-0.401875,2.897956,-2.695811,0.999400,-0.002910,0.025362,-0.023427
500,-0.498046,-0.082122,9.905962,0.133937,-0.493302,0.425303,-0.414492,2.881548,-2.684511,0.999405,-0.003026,0.025221,-0.023326
501,-0.495617,-0.068336,9.906939,0.152249,-0.485672,0.442088,-0.416168,2.860344,-2.670281,0.999413,-0.003048,0.025036,-0.023202
502,-0.496179,-0.085472,9.904437,0.201078,-0.529924,0.539748,-0.417322,2.842180,-2.654167,0.999420,-0.003065,0.024878,-0.023062
503,-0.493439,-0.090267,9.893413,0.037804,-0.627583,0.551955,-0.436924,2.825755,-2.637023,0.999426,-0.003243,0.024738,-0.022909
504,-0.503276,-0.063576,9.892690,0.050012,-0.583331,0.616044,-0.439388,2.818991,-2.617625,0.999431,-0.003270,0.024679,-0.022740
505,-0.504312,-0.052056,9.912165,0.185820,-0.563494,0.861718,-0.406611,2.824068,-2.591460,0.999436,-0.002989,0.024716,-0.022518
506,-0.497767,-0.059017,9.914107,0.187345,-0.490250,1.073821,-0.371591,2.825889,-2.557691,0.999444,-0.002691,0.024724,-0.022231
507,-0.491464,-0.052400,9.928064,0.080530,-0.415480,1.186740,-0.347301,2.818794,-2.518984,0.999453,-0.002488,0.024657,-0.021899
508,-0.481130,-0.056088,9.921513,0.021019,-0.479569,1.255406,-0.331262,2.799519,-2.477536,0.999465,-0.002361,0.024485,-0.021542
509,-0.474934,-0.064912,9.907426,0.011864,-0.563494,1.105866,-0.331560,2.769349,-2.438169,0.999479,-0.002378,0.024221,-0.021199
510,-0.473693,-0.067047,9.898054,0.036279,-0.587909,0.899866,-0.342567,2.739082,-2.405239,0.999491,-0.002486,0.023958,-0.020911
512,-0.477446,-0.077792,9.902952,-0.053751,-0.549761,0.457347,-0.363647,2.719139,-2.383524,0.999499,-0.002678,0.023787,-0.020717
513,-0.477287,-0.066597,9.888949,0.014915,-0.505509,0.062133,-0.381173,2.710287,-2.375568,0.999502,-0.002834,0.023713,-0.020645
514,-0.486664,-0.055838,9.905625,0.095789,-0.357494,0.051452,-0.374435,2.715433,-2.373353,0.999501,-0.002775,0.023757,-0.020627
515,-0.478787,-0.069020,9.929899,0.178189,-0.172857,0.202518,-0.365079,2.726265,-2.368838,0.999500,-0.002693,0.023850,-0.020589
516,-0.468477,-0.072062,9.932865,0.043908,-0.047732,0.103333,-0.371053,2.725149,-2.364182,0.999501,-0.002746,0.023841,-0.020547
517,-0.460156,-0.061236,9.926966,-0.012550,-0.107243,0.127748,-0.374743,2.709629,-2.360518,0.999505,-0.002782,0.023706,-0.020515
518,-0.468030,-0.068108,9.931178,-0.201766,0.017883,0.127748,-0.378189,2.697142,-2.356248,0.999508,-0.002815,0.023598,-0.020477
519,-0.464295,-0.077119,9.930423,-0.366566,0.127750,-0.023319,-0.398905,2.695340,-2.355054,0.999508,-0.002996,0.023586,-0.020463
520,-0.457154,-0.103315,9.909164,-0.471855,-0.093510,-0.008059,-0.448266,2.685993,-2.357240,0.999508,-0.003428,0.023513,-0.020472
521,-0.468420,-0.108212,9.888365,-0.517633,-0.207954,-0.009585,-0.515058,2.677224,-2.359846,0.999507,-0.004011,0.023448,-0.020481
522,-0.478918,-0.109648,9.911796,-0.546626,-0.059939,0.062133,-0.572413,2.688080,-2.360792,0.999503,-0.004510,0.023553,-0.020477
523,-0.471332,-0.108652,9.933983,-0.421499,-0.174384,0.326118,-0.611305,2.699851,-2.355367,0.999500,-0.004848,0.023663,-0.020421
524,-0.466416,-0.121044,9.929281,-0.390981,-0.340709,0.461925,-0.643072,2.693752,-2.343015,0.999502,-0.005129,0.023615,-0.020307
525,-0.474641,-0.092673,9.914485,-0.339099,-0.319346,0.379525,-0.651856,2.687759,-2.328726,0.999505,-0.005209,0.023563,-0.020181
526,-0.466849,-0.084895,9.923766,-0.195662,-0.343761,0.406992,-0.624248,2.683859,-2.313795,0.999510,-0.004972,0.023524,-0.020057
527,-0.464078,-0.094213,9.915041,-0.038492,-0.229317,0.321540,-0.595371,2.674620,-2.300029,0.999515,-0.004725,0.023438,-0.019943
528,-0.460081,-0.098261,9.907652,-0.014077,-0.195746,0.211674,-0.581565,2.664935,-2.290393,0.999519,-0.004608,0.023350,-0.019862
529,-0.456735,-0.093684,9.903847,0.175137,-0.401746,0.179629,-0.569673,2.649624,-2.283350,0.999524,-0.004508,0.023214,-0.019804
530,-0.464211,-0.083054,9.913326,0.042383,-0.326976,-0.101141,-0.548748,2.638385,-2.281124,0.999528,-0.004328,0.023113,-0.019790
531,-0.462926,-0.084342,9.925524,0.001182,-0.186591,-0.117926,-0.527981,2.638214,-2.283764,0.999528,-0.004147,0.023108,-0.019817
532,-0.452165,-0.094009,9.911642,0.169034,-0.508561,0.144533,-0.518925,2.627368,-2.282928,0.999531,-0.004070,0.023012,-0.019812
533,-0.453015,-0.086853,9.905224,0.101893,-0.680991,0.239140,-0.513961,2.602907,-2.276341,0.999537,-0.004032,0.022797,-0.019756
534,-0.449899,-0.074483,9.918386,0.147672,-0.548235,0.419200,-0.495931,2.580559,-2.264571,0.999544,-0.003881,0.022599,-0.019658
535,-0.431394,-0.084441,9.925252,0.428442,-0.723716,0.788474,-0.473128,2.546503,-2.243690,0.999555,-0.003692,0.022297,-0.019482
536,-0.430542,-0.089921,9.921304,0.324678,-0.963287,0.844933,-0.464389,2.498122,-2.216438,0.999569,-0.003629,0.021873,-0.019248
537,-0.429420,-0.084487,9.929867,0.181241,-0.896147,0.768636,-0.464016,2.456184,-2.189676,0.999581,-0.003638,0.021506,-0.019016
538,-0.427926,-0.078245,9.919637,0.167508,-0.775598,0.632829,-0.458665,2.427434,-2.166139,0.999591,-0.003601,0.021253,-0.018813
539,-0.424535,-0.086520,9.908390,0.109522,-0.737450,0.597733,-0.457113,2.407684,-2.145576,0.999598,-0.003594,0.021080,-0.018635
540,-0.429895,-0.087793,9.924323,0.005760,-0.426161,0.460399,-0.466624,2.401559,-2.128284,0.999601,-0.003681,0.021028,-0.018482
541,-0.422212,-0.081758,9.917459,0.184293,-0.214058,0.394785,-0.470244,2.405498,-2.114243,0.999603,-0.003715,0.021062,-0.018359
542,-0.422039,-0.067332,9.916224,0.150722,-0.189643,0.403940,-0.454032,2.407893,-2.100441,0.999605,-0.003576,0.021080,-0.018241
543,-0.413519,-0.080640,9.920506,0.277374,-0.250680,0.442088,-0.437034,2.402055,-2.085882,0.999609,-0.003431,0.021026,-0.018118
544,-0.415553,-0.074439,9.913948,0.230071,-0.195747,0.271185,-0.428725,2.391639,-2.073955,0.999613,-0.003362,0.020934,-0.018016
545,-0.413547,-0.057395,9.899123,0.217863,-0.265939,0.257451,-0.407108,2.383823,-2.064506,0.999617,-0.003177,0.020862,-0.017937
546,-0.414458,-0.068415,9.923835,0.213285,-0.288828,0.240666,-0.385088,2.375721,-2.055529,0.999620,-0.002987,0.020787,-0.017863
547,-0.416087,-0.074770,9.918158,0.234649,-0.244576,0.030089,-0.382063,2.371409,-2.051144,0.999621,-0.002962,0.020749,-0.017826
548,-0.421319,-0.067782,9.899609,0.210234,-0.224739,-0.119452,-0.382317,2.375844,-2.052897,0.999620,-0.002964,0.020788,-0.017841
549,-0.424516,-0.078380,9.907408,0.326204,-0.114873,-0.244578,-0.384452,2.389228,-2.059381,0.999617,-0.002979,0.020905,-0.017897
550,-0.425963,-0.085858,9.907039,0.410130,-0.172858,-0.197274,-0.396890,2.404418,-2.067736,0.999612,-0.003084,0.021040,-0.017967
551,-0.427299,-0.080443,9.902783,-0.268907,-0.127080,0.315437,-0.418532,2.417953,-2.066741,0.999609,-0.003270,0.021161,-0.017954
552,-0.425860,-0.060476,9.908306,-0.586300,-0.136235,0.716755,-0.432017,2.428266,-2.049492,0.999610,-0.003390,0.021253,-0.017800
553,-0.430059,-0.064657,9.921254,-0.569513,-0.214057,0.641985,-0.433325,2.435506,-2.026066,0.999612,-0.003404,0.021316,-0.017595
554,-0.428775,-0.088370,9.921935,-0.798403,-0.522294,0.506178,-0.457751,2.435734,-2.006925,0.999614,-0.003621,0.021321,-0.017424
555,-0.431077,-0.092215,9.927566,-0.838077,-0.671835,0.559585,-0.504453,2.427903,-1.989846,0.999617,-0.004033,0.021259,-0.017266
556,-0.421386,-0.093062,9.929792,-0.252121,-0.719139,0.306281,-0.536264,2.411849,-1.975805,0.999621,-0.004315,0.021123,-0.017139
557,-0.410715,-0.112800,9.923886,-0.023232,-0.653524,-0.003482,-0.560296,2.383672,-1.971364,0.999626,-0.004530,0.020881,-0.017097
558,-0.408055,-0.120505,9.929977,-0.249070,-0.389539,-0.082830,-0.598213,2.356571,-1.974016,0.999628,-0.004864,0.020650,-0.017114
559,-0.406661,-0.100749,9.921883,-0.139203,-0.224739,0.127748,-0.620455,2.340961,-1.973811,0.999630,-0.005061,0.020517,-0.017109
560,-0.400709,-0.100733,9.907771,-0.122417,-0.145391,0.063659,-0.617431,2.330194,-1.970255,0.999633,-0.005037,0.020423,-0.017080
561,-0.404043,-0.087111,9.900931,-0.084270,-0.200324,-0.175912,-0.600778,2.321947,-1.971246,0.999635,-0.004892,0.020348,-0.017092
562,-0.403170,-0.096761,9.916755,0.054589,-0.217109,-0.154549,-0.580815,2.316617,-1.975847,0.999636,-0.004718,0.020299,-0.017135
563,-0.395443,-0.093231,9.917851,0.013389,-0.037050,-0.133186,-0.568678,2.308680,-1.980149,0.999637,-0.004613,0.020228,-0.017176
564,-0.401937,-0.091436,9.926044,0.065270,-0.047731,-0.212534,-0.556514,2.304091,-1.985456,0.999638,-0.004506,0.020187,-0.017224
565,-0.405493,-0.086958,9.927174,0.063745,-0.113346,-0.186593,-0.541892,2.307331,-1.991574,0.999637,-0.004377,0.020213,-0.017280
566,-0.400908,-0.103588,9.916209,0.132411,0.092654,-0.299511,-0.539214,2.312589,-1.999689,0.999635,-0.004352,0.020259,-0.017351
567,-0.402539,-0.099597,9.908820,0.143093,0.265083,-0.470415,-0.547581,2.321275,-2.013089,0.999631,-0.004421,0.020336,-0.017466
568,-0.402157,-0.088042,9.895665,0.230071,-0.005006,-0.233897,-0.541684,2.328091,-2.024871,0.999628,-0.004366,0.020395,-0.017570
569,-0.394635,-0.083261,9.910010,0.147672,-0.044680,-0.137763,-0.522553,2.321618,-2.030532,0.999629,-0.004200,0.020336,-0.017623
570,-0.390453,-0.086353,9.922626,0.091211,0.075868,-0.410904,-0.507707,2.306584,-2.039235,0.999631,-0.004071,0.020203,-0.017702
571,-0.399112,-0.084769,9.923068,0.048485,-0.128606,-0.409378,-0.500301,2.296020,-2.052685,0.999631,-0.004005,0.020110,-0.017821
572,-0.399409,-0.084113,9.900888,0.068322,-0.517717,-0.186593,-0.494506,2.286570,-2.062361,0.999631,-0.003955,0.020027,-0.017907
573,-0.405718,-0.097836,9.902975,0.294159,-0.607747,-0.261363,-0.496484,2.277531,-2.069979,0.999632,-0.003972,0.019949,-0.017973
574,-0.400750,-0.088115,9.897981,0.400974,-0.572650,-0.273570,-0.496592,2.271152,-2.079183,0.999631,-0.003972,0.019893,-0.018054
575,-0.388386,-0.086907,9.886995,0.469642,-0.645895,0.059081,-0.484961,2.253378,-2.082695,0.999634,-0.003873,0.019737,-0.018087
576,-0.383266,-0.084539,9.895638,0.423863,-0.594013,0.179629,-0.471445,2.225130,-2.078603,0.999640,-0.003760,0.019488,-0.018055
577,-0.385256,-0.071073,9.929914,0.288055,-0.380383,0.013304,-0.451870,2.203740,-2.074962,0.999645,-0.003594,0.019298,-0.018027
578,-0.375792,-0.072625,9.931897,0.199553,-0.490250,0.165896,-0.431055,2.183879,-2.071378,0.999649,-0.003416,0.019122,-0.018000
579,-0.379115,-0.076231,9.907504,0.193448,-0.452102,0.100281,-0.421248,2.164273,-2.066703,0.999654,-0.003334,0.018949,-0.017962
580,-0.383328,-0.078730,9.911288,0.217863,-0.212531,-0.229319,-0.420292,2.160908,-2.068994,0.999654,-0.003326,0.018919,-0.017982
581,-0.378831,-0.081043,9.917763,0.333834,-0.261361,-0.272045,-0.422311,2.163217,-2.077709,0.999652,-0.003342,0.018940,-0.018058
582,-0.381959,-0.082196,9.911201,0.442174,-0.246102,-0.348341,-0.423197,2.164041,-2.088500,0.999650,-0.003348,0.018948,-0.018151
583,-0.381217,-0.064912,9.917802,0.480322,-0.078250,-0.474993,-0.408959,2.169314,-2.102215,0.999647,-0.003220,0.018992,-0.018273
584,-0.369474,-0.061507,9.940300,0.404026,-0.053835,-0.386489,-0.381077,2.166541,-2.116049,0.999646,-0.002975,0.018964,-0.018399
585,-0.369970,-0.059370,9.930767,0.344515,-0.142339,-0.224741,-0.356587,2.153379,-2.125757,0.999648,-0.002762,0.018845,-0.018488
586,-0.376268,-0.049114,9.916530,0.248382,-0.087406,-0.175912,-0.332107,2.147716,-2.131859,0.999648,-0.002549,0.018792,-0.018545
587,-0.376398,-0.053331,9.912922,0.140041,-0.125554,0.005673,-0.312849,2.150325,-2.134193,0.999648,-0.002380,0.018812,-0.018569
588,-0.378426,-0.063199,9.922187,0.033226,-0.059939,0.077392,-0.313672,2.155315,-2.132931,0.999647,-0.002386,0.018855,-0.018557
589,-0.378164,-0.067655,9.916538,0.028648,0.086550,0.062133,-0.329794,2.164082,-2.131255,0.999646,-0.002526,0.018934,-0.018540
590,-0.378756,-0.070444,9.918824,-0.061381,0.072816,-0.049260,-0.350910,2.173567,-2.131835,0.999644,-0.002708,0.019020,-0.018541
591,-0.384448,-0.063473,9.915933,-0.111735,0.028565,-0.056889,-0.366257,2.184492,-2.134086,0.999641,-0.002840,0.019118,-0.018558
592,-0.384565,-0.069892,9.913656,-0.061381,0.023987,0.068237,-0.376271,2.196516,-2.134176,0.999639,-0.002925,0.019225,-0.018557
593,-0.379040,-0.062280,9.905184,-0.036965,0.056031,0.011777,-0.380747,2.202101,-2.132961,0.999638,-0.002964,0.019274,-0.018545
594,-0.376656,-0.045930,9.906754,-0.075113,-0.081302,0.136903,-0.365035,2.197713,-2.129808,0.999640,-0.002828,0.019233,-0.018520
595,-0.379651,-0.048067,9.925865,0.065271,-0.256784,0.349007,-0.337862,2.187849,-2.120633,0.999643,-0.002594,0.019143,-0.018445
596,-0.371700,-0.056141,9.931211,0.097315,-0.374280,0.393259,-0.321139,2.170500,-2.107675,0.999649,-0.002453,0.018988,-0.018335
597,-0.363932,-0.050840,9.919047,0.051537,-0.438369,0.347481,-0.312665,2.141862,-2.095037,0.999655,-0.002386,0.018737,-0.018227
598,-0.363522,-0.061838,9.909440,0.112575,-0.560443,0.442088,-0.311758,2.110586,-2.081865,0.999663,-0.002385,0.018464,-0.018113
599,-0.368302,-0.076847,9.906376,0.111049,-0.531450,0.358163,-0.331214,2.089470,-2.069290,0.999668,-0.002560,0.018282,-0.018001
600,-0.361852,-0.069778,9.900932,-0.017129,-0.333080,0.284918,-0.356624,2.078071,-2.059482,0.999670,-0.002785,0.018187,-0.017912
601,-0.362103,-0.069605,9.892975,0.033226,-0.056887,0.153689,-0.371965,2.074503,-2.052705,0.999672,-0.002921,0.018158,-0.017850
602,-0.368953,-0.063946,9.905610,0.071374,0.010253,0.081970,-0.375998,2.083970,-2.048985,0.999671,-0.002955,0.018241,-0.017817
603,-0.367543,-0.056450,9.908630,0.057641,-0.053835,0.153689,-0.366814,2.096451,-2.044799,0.999669,-0.002874,0.018348,-0.017782
604,-0.361971,-0.054812,9.911380,0.107997,-0.033998,0.139955,-0.350601,2.099735,-2.039407,0.999670,-0.002732,0.018374,-0.017737
605,-0.367749,-0.055834,9.914169,0.193449,-0.040102,0.011777,-0.335099,2.101131,-2.036488,0.999671,-0.002598,0.018384,-0.017714
606,-0.370279,-0.050500,9.935320,0.106472,-0.223213,0.056029,-0.320484,2.104450,-2.034979,0.999671,-0.002470,0.018410,-0.017703
607,-0.361929,-0.065869,9.928036,0.138515,-0.229317,0.031614,-0.318449,2.099118,-2.033551,0.999672,-0.002453,0.018364,-0.017691
608,-0.358877,-0.070346,9.911592,0.202604,-0.069095,-0.287304,-0.332631,2.088493,-2.038509,0.999672,-0.002578,0.018273,-0.017732
609,-0.371297,-0.068293,9.906180,0.190397,0.126224,-0.600119,-0.346694,2.093685,-2.054048,0.999669,-0.002697,0.018321,-0.017866
610,-0.373956,-0.057873,9.905746,0.263641,0.248298,-0.548237,-0.346553,2.116642,-2.073483,0.999662,-0.002689,0.018522,-0.018035
611,-0.372910,-0.072979,9.906283,0.414709,0.222357,-0.471941,-0.344358,2.138699,-2.090858,0.999656,-0.002664,0.018714,-0.018186
612,-0.378464,-0.051738,9.913363,0.399449,0.263557,-0.540608,-0.335450,2.158259,-2.107940,0.999650,-0.002580,0.018884,-0.018336
613,-0.386018,-0.043846,9.931163,0.277376,0.307809,-0.439897,-0.307748,2.183058,-2.123700,0.999644,-0.002332,0.019096,-0.018477
615,-0.382023,-0.033329,9.926270,0.164456,0.130802,-0.203378,-0.274415,2.202125,-2.133458,0.999640,-0.002036,0.019257,-0.018567
616,-0.380627,-0.027213,9.931704,-0.070537,-0.073672,-0.105719,-0.242009,2.204862,-2.137427,0.999640,-0.001752,0.019276,-0.018607
617,-0.379772,-0.013047,9.907826,-0.174300,0.005676,-0.053837,-0.208327,2.201435,-2.138628,0.999640,-0.001459,0.019241,-0.018624
618,-0.383037,-0.028584,9.908405,-0.203292,0.159794,-0.035526,-0.186731,2.204537,-2.139054,0.999640,-0.001270,0.019264,-0.018631
619,-0.384033,-0.031127,9.913575,-0.244492,0.161320,-0.038578,-0.187593,2.213385,-2.140052,0.999638,-0.001276,0.019341,-0.018639
620,-0.375791,-0.043960,9.920021,-0.079692,-0.040102,0.132325,-0.200866,2.211399,-2.138802,0.999639,-0.001392,0.019326,-0.018626
621,-0.372237,-0.057340,9.893847,0.175137,-0.227791,0.059081,-0.225486,2.193511,-2.136605,0.999642,-0.001610,0.019174,-0.018603
622,-0.354509,-0.062950,9.891892,-0.078167,-0.400220,-0.503985,-0.260193,2.156634,-2.145355,0.999646,-0.001918,0.018858,-0.018675
623,-0.361942,-0.058061,9.912593,-0.186506,-0.615376,-0.746607,-0.293984,2.112064,-2.167201,0.999649,-0.002216,0.018475,-0.018861
624,-0.368091,-0.055618,9.912717,-0.192610,-0.648946,-0.818326,-0.314973,2.084050,-2.193696,0.999649,-0.002400,0.018235,-0.019089
625,-0.372872,-0.059471,9.924088,-0.293322,-0.455154,-0.981600,-0.331607,2.076433,-2.223885,0.999644,-0.002541,0.018172,-0.019350
626,-0.365063,-0.062105,9.942551,-0.453544,-0.185065,-1.056371,-0.352573,2.078089,-2.258078,0.999638,-0.002718,0.018191,-0.019645
627,-0.382142,-0.068180,9.952739,-0.226181,0.100283,-0.821378,-0.373868,2.096079,-2.289710,0.999629,-0.002896,0.018352,-0.019917
628,-0.380263,-0.063099,9.924805,-0.166669,0.200994,-0.566548,-0.385315,2.130113,-2.313043,0.999619,-0.002986,0.018652,-0.020118
629,-0.374844,-0.063297,9.931772,-0.200240,0.054505,-0.250682,-0.387972,2.151523,-2.326557,0.999613,-0.003003,0.018839,-0.020234
630,-0.371356,-0.057110,9.924711,-0.122417,-0.119450,-0.146919,-0.383140,2.153405,-2.332789,0.999612,-0.002960,0.018855,-0.020290
631,-0.367848,-0.068619,9.916968,-0.180402,-0.301035,-0.114874,-0.382352,2.141319,-2.336884,0.999613,-0.002954,0.018749,-0.020326
632,-0.351528,-0.054735,9.910364,-0.381825,-0.482620,0.074340,-0.384729,2.109714,-2.337210,0.999618,-0.002981,0.018474,-0.020329
633,-0.347097,-0.071350,9.935909,-0.424552,-0.258309,-0.137763,-0.392976,2.068171,-2.337985,0.999624,-0.003060,0.018113,-0.020336
634,-0.358250,-0.083638,9.940073,-0.377248,0.312387,-0.696252,-0.422283,2.053884,-2.352452,0.999623,-0.003316,0.017994,-0.020458
635,-0.367969,-0.102081,9.942229,-0.349781,0.776268,-0.844267,-0.469345,2.080023,-2.379506,0.999613,-0.003717,0.018232,-0.020686
636,-0.391499,-0.112626,9.929656,-0.171248,1.165379,-0.833585,-0.525267,2.144577,-2.409456,0.999595,-0.004189,0.018806,-0.020935
637,-0.409876,-0.117697,9.920298,0.190397,1.658253,-0.774074,-0.570655,2.244562,-2.438402,0.999572,-0.004561,0.019688,-0.021176
638,-0.411353,-0.096324,9.901543,0.452856,1.844416,-0.357496,-0.579541,2.350145,-2.458584,0.999549,-0.004615,0.020611,-0.021345
639,-0.400056,-0.095488,9.907168,0.579508,1.621631,0.153689,-0.557087,2.420730,-2.462327,0.999536,-0.004405,0.021223,-0.021378
640,-0.409590,-0.086103,9.893718,0.414709,1.679616,0.262030,-0.528806,2.464073,-2.455436,0.999531,-0.004152,0.021595,-0.021322
641,-0.410666,-0.055435,9.905316,0.375034,1.699453,0.341378,-0.479678,2.501783,-2.444355,0.999527,-0.003718,0.021915,-0.021233
642,-0.417237,-0.079439,9.902361,0.420812,1.304238,0.605363,-0.435310,2.528081,-2.427666,0.999527,-0.003330,0.022135,-0.021095
643,-0.439946,-0.080017,9.915205,0.259064,1.047883,0.434459,-0.424159,2.557189,-2.410668,0.999525,-0.003230,0.022387,-0.020948
644,-0.453660,-0.070256,9.917344,0.317049,0.957853,0.434459,-0.415087,2.600630,-2.396468,0.999519,-0.003146,0.022763,-0.020824
645,-0.450709,-0.058444,9.934361,0.463538,0.754905,0.431407,-0.388587,2.637122,-2.381638,0.999515,-0.002911,0.023077,-0.020699
646,-0.452369,-0.058948,9.916498,0.362826,0.822046,0.309333,-0.357448,2.659711,-2.368682,0.999514,-0.002638,0.023268,-0.020591
647,-0.466940,-0.044397,9.923671,-0.017129,1.223364,-0.091986,-0.331645,2.695017,-2.364343,0.999508,-0.002408,0.023571,-0.020557
648,-0.468174,-0.046139,9.893767,-0.198715,1.615527,-0.217111,-0.313422,2.748754,-2.368735,0.999496,-0.002238,0.024036,-0.020598
649,-0.482522,-0.055273,9.874730,-0.532891,2.276253,-0.471941,-0.318568,2.821935,-2.380235,0.999479,-0.002267,0.024676,-0.020695
650,-0.504303,-0.064776,9.890264,-0.923529,3.153660,-0.899200,-0.352545,2.931721,-2.404076,0.999450,-0.002538,0.025640,-0.020892
651,-0.518430,-0.075802,9.900034,-1.228714,3.744193,-1.228800,-0.409359,3.068154,-2.441337,0.999410,-0.003000,0.026841,-0.021200
652,-0.531108,-0.086460,9.891635,-1.617825,4.162297,-1.154030,-0.482713,3.209078,-2.483396,0.999367,-0.003603,0.028085,-0.021543
653,-0.532800,-0.120872,9.918676,-1.869603,4.557512,-0.783230,-0.583689,3.336851,-2.519341,0.999325,-0.004450,0.029220,-0.021826
654,-0.567999,-0.148839,9.943649,-1.381307,5.334208,-0.395645,-0.704408,3.474485,-2.544570,0.999279,-0.005470,0.030444,-0.022007
655,-0.608093,-0.165931,9.905124,-0.697691,6.106325,0.301703,-0.809888,3.661144,-2.552818,0.999222,-0.006351,0.032093,-0.022038
656,-0.652082,-0.163417,9.885160,-0.148359,7.293496,1.046355,-0.875078,3.904846,-2.536824,0.999151,-0.006876,0.034229,-0.021863
657,-0.696953,-0.174886,9.865334,0.890797,9.391644,1.334755,-0.897240,4.216573,-2.503788,0.999060,-0.007019,0.036949,-0.021545
658,-0.767844,-0.158702,9.809543,1.159359,12.881434,0.875451,-0.881387,4.623624,-2.474022,0.998930,-0.006813,0.040493,-0.021260
659,-0.867526,-0.111437,9.800876,-0.508476,17.103668,0.054504,-0.856486,5.169741,-2.464935,0.998731,-0.006495,0.045248,-0.021149
660,-0.992306,-0.108837,9.831744,-0.868596,20.190617,0.120118,-0.849866,5.859776,-2.468757,0.998442,-0.006304,0.051260,-0.021135
661,-1.103744,-0.114152,9.842388,-0.712951,22.290289,0.153689,-0.849698,6.643181,-2.472148,0.998070,-0.006151,0.058085,-0.021106
662,-1.223341,-0.102396,9.836454,-1.161573,23.808584,0.101807,-0.852570,7.477044,-2.476142,0.997622,-0.006014,0.065347,-0.021075
663,-1.363152,-0.117630,9.854439,-1.239395,24.580704,0.257451,-0.865276,8.339746,-2.478902,0.997103,-0.005956,0.072858,-0.021024
664,-1.507737,-0.154813,9.824789,0.559671,24.481518,0.970059,-0.866597,9.209743,-2.469636,0.996525,-0.005806,0.080425,-0.020873
665,-1.632396,-0.111357,9.754704,1.530159,25.244482,0.481762,-0.818080,10.083632,-2.455467,0.995890,-0.005227,0.088013,-0.020716
666,-1.807172,-0.081274,9.690247,2.145107,27.592880,0.399362,-0.719526,11.015632,-2.446149,0.995150,-0.004200,0.096091,-0.020644
667,-1.999889,-0.066805,9.655747,2.407566,30.232731,0.999051,-0.597018,12.057227,-2.425405,0.994245,-0.002957,0.105110,-0.020500
668,-2.213983,-0.024925,9.622002,3.353640,32.648273,2.219791,-0.439620,13.211349,-2.369547,0.993151,-0.001432,0.115089,-0.020098
669,-2.381090,0.013571,9.574896,3.271240,34.110107,2.524976,-0.246696,14.434612,-2.280337,0.991883,0.000365,0.125650,-0.019470
670,-2.582057,0.011169,9.547276,2.624248,36.006832,2.972073,-0.068813,15.700159,-2.175283,0.990452,0.001998,0.136568,-0.018722
671,-2.780172,-0.030003,9.526303,1.286011,37.827263,3.092621,0.039514,17.015125,-2.066979,0.988834,0.003009,0.147910,-0.017889
672,-2.993698,-0.023815,9.479516,0.637494,39.609543,2.285406,0.080842,18.377512,-1.977297,0.987019,0.003452,0.159652,-0.017146
673,-3.208972,-0.043115,9.403595,-0.299425,40.187866,1.093658,0.071368,19.772259,-1.926766,0.985010,0.003500,0.171656,-0.016671
674,-3.407128,-0.037404,9.278640,-0.242966,39.421856,0.957851,0.032303,21.155901,-1.903309,0.982870,0.003326,0.183543,-0.016378
675,-3.608972,-0.069108,9.189375,-0.490166,38.687881,0.294074,-0.022838,22.502634,-1.898809,0.980647,0.003037,0.195089,-0.016212
676,-3.830757,-0.079845,9.107532,-0.918951,37.367954,-1.080785,-0.115831,23.809687,-1.938423,0.978355,0.002500,0.206274,-0.016343
677,-4.031975,-0.053988,9.026699,-0.821292,34.653339,-1.546193,-0.213701,25.047630,-2.008927,0.976061,0.001981,0.216844,-0.016709
678,-4.184737,-0.074673,8.948059,-0.146833,32.283573,-1.085363,-0.286166,26.181221,-2.076597,0.973860,0.001672,0.226498,-0.017084
679,-4.344218,-0.105017,8.888119,-0.653439,31.375650,-1.347822,-0.367010,27.233944,-2.147839,0.971730,0.001300,0.235446,-0.017462
680,-4.455860,-0.090942,8.774354,-0.857914,31.001797,-1.207437,-0.460178,28.243330,-2.223107,0.969609,0.000839,0.244009,-0.017833
681,-4.567894,-0.074721,8.652143,-0.510003,31.197117,-0.482622,-0.520963,29.231291,-2.273395,0.967463,0.000607,0.252369,-0.018049
682,-4.684783,-0.137740,8.545692,-0.854861,32.425484,0.135377,-0.582285,30.230513,-2.306006,0.965222,0.000342,0.260804,-0.018101
683,-4.837167,-0.131727,8.438920,-1.811617,33.443275,-0.140815,-0.682354,31.267202,-2.344162,0.962819,-0.000221,0.269541,-0.018094
684,-5.055179,-0.165017,8.367200,-2.244979,34.722004,-0.162178,-0.813531,32.366692,-2.393785,0.960182,-0.000995,0.278787,-0.018082
685,-5.285198,-0.188353,8.303914,-2.489129,35.343056,-0.494830,-0.974305,33.531990,-2.461789,0.957288,-0.001943,0.288561,-0.018116
686,-5.478127,-0.210893,8.236359,-2.608151,35.050076,-1.154030,-1.158686,34.717064,-2.557324,0.954237,-0.002991,0.298476,-0.018282
687,-5.665782,-0.210908,8.163304,-1.747529,33.493633,-1.057897,-1.329920,35.866573,-2.663692,0.951178,-0.003882,0.308062,-0.018540
688,-5.821747,-0.244211,8.086443,-0.825870,31.105560,-0.854948,-1.464344,36.936001,-2.763974,0.948245,-0.004478,0.316949,-0.018827
689,-5.962471,-0.236142,7.992409,-0.590877,28.514540,-1.436326,-1.579856,37.904789,-2.870342,0.945514,-0.004901,0.324976,-0.019210
690,-6.061868,-0.233807,7.880582,0.121730,25.508467,-0.565022,-1.657626,38.765587,-2.959430,0.943033,-0.005071,0.332085,-0.019558
691,-6.135559,-0.195868,7.797456,1.585092,22.293341,1.455303,-1.629068,39.500675,-2.965424,0.940888,-0.004632,0.338121,-0.019548
692,-6.176381,-0.210894,7.689141,2.471655,20.300484,2.720295,-1.500927,40.124592,-2.888245,0.939055,-0.003654,0.343213,-0.019179
693,-6.211281,-0.228373,7.596967,2.198515,19.787771,2.566177,-1.373620,40.687714,-2.801970,0.937377,-0.002736,0.347799,-0.018757
694,-6.248240,-0.226402,7.512422,0.417760,19.598557,1.226414,-1.327791,41.224373,-2.764399,0.935748,-0.002351,0.352176,-0.018498
695,-6.362816,-0.189986,7.456996,-1.022714,19.816765,0.014829,-1.366305,41.767635,-2.779136,0.934067,-0.002492,0.356614,-0.018406
696,-6.490785,-0.202040,7.379750,-1.774994,21.022245,-0.929719,-1.464384,42.367310,-2.837222,0.932179,-0.002966,0.361513,-0.018466
697,-6.621437,-0.192625,7.301200,-2.154950,22.703815,-2.177925,-1.612533,43.053196,-2.945493,0.929981,-0.003656,0.367112,-0.018745
698,-6.723970,-0.117000,7.159742,-2.080180,24.725666,-3.119421,-1.746491,43.839073,-3.070134,0.927421,-0.004134,0.373506,-0.019162
699,-6.816262,-0.085073,6.998809,-0.152936,28.369577,-1.872740,-1.775391,44.757969,-3.144337,0.924389,-0.003876,0.380935,-0.019470
700,-6.924292,-0.113362,6.824115,1.051019,32.930569,-0.803067,-1.710750,45.848713,-3.163643,0.920727,-0.002993,0.389703,-0.019609
701,-7.050685,-0.120026,6.663377,1.742263,37.561752,0.022459,-1.612562,47.117485,-3.159976,0.916367,-0.001875,0.399853,-0.019650
702,-7.217955,-0.146480,6.513993,2.117640,40.949303,1.298133,-1.495094,48.530960,-3.130739,0.911380,-0.000664,0.411102,-0.019542
703,-7.431451,-0.154643,6.394216,2.442663,42.525589,2.962917,-1.347031,50.027351,-3.052775,0.905955,0.000614,0.422939,-0.019169
704,-7.606346,-0.159937,6.262840,3.417729,41.577984,4.853539,-1.126938,51.514462,-2.894579,0.900420,0.002121,0.434623,-0.018475
705,-7.720269,-0.169137,6.138605,4.141018,39.011383,5.770620,-0.840828,52.892509,-2.672970,0.895161,0.003819,0.445378,-0.017616
706,-7.841039,-0.171932,5.983262,3.574899,35.817619,5.369301,-0.568314,54.124443,-2.454925,0.890346,0.005330,0.454942,-0.016820
707,-7.896775,-0.102725,5.810855,2.781418,33.426495,4.351509,-0.333550,55.231632,-2.260405,0.885926,0.006564,0.463499,-0.016128
708,-7.952315,-0.112035,5.660807,2.079493,32.311043,3.860161,-0.144858,56.250877,-2.096319,0.881780,0.007509,0.471345,-0.015537
709,-8.021178,-0.103907,5.477339,0.385715,31.899040,2.437999,-0.068082,57.237381,-2.009102,0.877697,0.007876,0.478914,-0.015105
710,-8.137475,-0.136863,5.289973,-1.610195,32.416328,1.519392,-0.149923,58.253033,-2.025742,0.873421,0.007461,0.486683,-0.014805
712,-8.306766,-0.085922,5.095666,-3.502343,34.493111,1.055511,-0.326113,59.365040,-2.082245,0.868661,0.006526,0.495155,-0.014377
713,-8.469386,-0.104648,4.906222,-4.300401,35.799309,1.601792,-0.511369,60.587799,-2.111041,0.863336,0.005440,0.504416,-0.013655
714,-8.614604,-0.132882,4.673614,-4.341601,36.038879,2.468517,-0.691326,61.883747,-2.114685,0.857585,0.004314,0.514167,-0.012725
715,-8.746293,-0.153047,4.476781,-3.674772,35.565842,3.347451,-0.830068,63.206573,-2.080331,0.851603,0.003344,0.524047,-0.011665
716,-8.847071,-0.075350,4.276545,-3.090344,33.756092,3.139925,-0.856682,64.496063,-1.961498,0.845667,0.002811,0.533601,-0.010487
717,-8.877999,-0.095136,4.091661,-2.125957,29.996216,2.651628,-0.812848,65.676140,-1.808271,0.840141,0.002597,0.542280,-0.009412
718,-8.940643,-0.039087,3.903736,-1.872655,26.691057,2.761495,-0.720277,66.721321,-1.630958,0.835174,0.002577,0.549916,-0.008431
719,-8.973927,0.000188,3.750364,-1.210402,25.032377,3.590073,-0.476256,67.673294,-1.321224,0.830593,0.002968,0.556825,-0.007263
720,-9.010314,0.035930,3.599595,-0.288744,25.365028,4.319465,-0.062018,68.590355,-0.866353,0.826124,0.003813,0.563444,-0.005941
721,-9.035333,0.036064,3.451886,0.948781,27.560837,4.884057,0.476466,69.541672,-0.318218,0.821423,0.004999,0.570279,-0.004652
722,-9.091725,0.066507,3.296911,1.516426,31.029264,5.022917,1.103239,70.583725,0.292911,0.816193,0.006381,0.577733,-0.003476
723,-9.174122,0.080500,3.140779,1.823137,35.497169,4.060058,1.758473,71.757065,0.917844,0.810212,0.007739,0.586080,-0.002504
724,-9.275226,0.111940,2.950526,2.306855,39.675159,3.104828,2.403909,73.077576,1.516986,0.803372,0.008973,0.595407,-0.001854
725,-9.400373,0.137119,2.745873,2.239714,42.568310,2.746236,3.105552,74.521996,2.163237,0.795762,0.010138,0.605524,-0.001385
726,-9.506248,0.141409,2.547161,2.222929,43.760056,3.495465,3.954105,76.023041,2.960680,0.787704,0.011273,0.615950,-0.000896
727,-9.582735,0.124227,2.326017,2.613566,43.306858,4.473583,5.028462,77.510643,3.984655,0.779559,0.012446,0.626205,-0.000359
728,-9.592238,0.104167,2.092599,2.555581,41.750412,4.116517,6.248929,78.940735,5.153617,0.771584,0.013496,0.635984,0.000042
729,-9.623913,0.131016,1.854210,1.430974,39.505779,2.988858,7.518933,80.292969,6.389263,0.763924,0.014189,0.645150,0.000298
730,-9.637009,0.146604,1.635827,0.642070,37.505291,2.079406,8.878041,81.564384,7.740435,0.756617,0.014516,0.653697,0.000515
731,-9.655047,0.166156,1.415417,-0.098003,36.211308,0.983792,10.396508,82.774254,9.271600,0.749571,0.014538,0.661764,0.000683
732,-9.699676,0.175946,1.203223,-0.479485,35.303383,0.455822,12.270432,83.948029,11.173016,0.742637,0.014346,0.669540,0.000821
733,-9.740830,0.182164,1.003392,-0.378774,34.224548,0.730488,14.979829,85.081955,13.912702,0.735804,0.014147,0.677046,0.000990
734,-9.744671,0.190115,0.833516,-0.261276,33.022121,0.608414,19.205313,86.147964,18.163645,0.729191,0.014037,0.684165,0.001189
735,-9.761872,0.172640,0.642007,-0.163618,31.584702,0.695392,26.051384,87.129692,25.030678,0.722837,0.013932,0.690877,0.001340
736,-9.744416,0.198989,0.448133,-0.181929,30.482983,0.591629,38.954227,87.998360,37.952084,0.716644,0.013864,0.697299,0.001498
737,-9.707134,0.250774,0.259380,-0.416922,29.939753,0.336799,66.712524,88.604507,65.731682,0.710502,0.013935,0.703555,0.001831
738,-9.711023,0.285046,0.092213,-0.543572,30.641678,0.567214,108.943726,88.584732,107.989761,0.704262,0.014169,0.709795,0.002398
739,-9.714458,0.236518,-0.083790,-0.201766,31.752554,0.939540,137.120621,87.950821,136.190872,0.697775,0.014415,0.716166,0.002943
740,-9.693079,0.197997,-0.244304,-0.246017,31.986017,0.507703,151.209320,87.076782,150.299408,0.691117,0.014425,0.722592,0.003199
741,-9.775915,0.187747,-0.404484,-0.268907,29.662035,0.071288,158.836838,86.169624,157.947495,0.684719,0.014187,0.728662,0.003218
742,-9.798720,0.154205,-0.513754,-0.442862,24.736347,0.243718,163.199020,85.375343,162.331589,0.679262,0.013801,0.733760,0.003105
743,-9.788586,0.146441,-0.621523,-0.874699,17.408854,0.304755,165.702667,84.800919,164.864090,0.675341,0.013316,0.737379,0.002978
744,-9.769769,0.193261,-0.702509,-1.430135,10.224798,0.443614,166.846954,84.471924,166.051208,0.673118,0.012894,0.739416,0.003085
745,-9.741686,0.232961,-0.744750,-1.504906,4.600237,1.038725,166.624222,84.416298,165.881409,0.672797,0.012763,0.739708,0.003607
746,-9.678316,0.228577,-0.762870,-1.359943,1.354594,1.536177,165.520630,84.555000,164.828552,0.673827,0.012860,0.738764,0.004328
747,-9.678383,0.270507,-0.791769,-0.769411,0.585527,1.192844,164.137955,84.697510,163.483749,0.674928,0.013152,0.737749,0.005087
748,-9.694842,0.252471,-0.779493,-0.204817,1.710134,1.180636,162.991425,84.780083,162.355606,0.675624,0.013509,0.737100,0.005670
749,-9.725198,0.259075,-0.767166,0.143093,2.407482,0.927333,162.364807,84.828499,161.731293,0.676028,0.013738,0.736724,0.005928
750,-9.769100,0.265189,-0.788341,0.265168,2.093142,0.356636,162.065765,84.852577,161.426849,0.676228,0.013884,0.736537,0.006007
751,-9.762502,0.292070,-0.807203,0.117153,1.366801,-0.081304,161.842972,84.853645,161.199799,0.676274,0.014027,0.736492,0.006097
752,-9.705427,0.272397,-0.814075,-0.346729,0.632831,0.384103,161.600906,84.849304,160.963013,0.676289,0.014129,0.736474,0.006264
753,-9.679933,0.304916,-0.844055,-0.825870,-0.346813,0.538221,161.191406,84.832787,160.573456,0.676261,0.014249,0.736495,0.006630
754,-9.675164,0.313110,-0.850374,-1.025765,-0.905302,0.814414,160.462021,84.801102,159.875275,0.676202,0.014496,0.736537,0.007263
755,-9.679774,0.337266,-0.828101,-1.076121,-1.080783,1.581955,159.351120,84.783875,158.799438,0.676312,0.014892,0.736420,0.008091
756,-9.693766,0.323809,-0.799884,-0.746522,-1.424116,2.102295,157.991821,84.806801,157.469467,0.676728,0.015360,0.736018,0.008920
757,-9.715307,0.322748,-0.775811,-0.210921,-2.185553,1.884088,156.771652,84.886948,156.262497,0.677468,0.015707,0.735324,0.009429
758,-9.722321,0.315653,-0.755798,0.462011,-2.933256,1.572799,155.770767,85.014847,155.253586,0.678444,0.015935,0.734417,0.009558
759,-9.723169,0.305471,-0.727833,1.099849,-3.250649,1.603318,154.978760,85.172531,154.430588,0.679546,0.016104,0.733396,0.009345
760,-9.691150,0.297116,-0.711808,1.466070,-3.575671,0.745747,154.490692,85.342552,153.894455,0.680647,0.016184,0.732379,0.008832
761,-9.709560,0.323616,-0.716422,1.824663,-4.112797,-0.403275,154.259445,85.497368,153.604309,0.681598,0.016246,0.731501,0.008167
762,-9.717192,0.315072,-0.719191,2.413670,-4.265390,-0.885467,154.253738,85.621315,153.524902,0.682320,0.016383,0.730833,0.007395
763,-9.721066,0.302883,-0.670068,3.268188,-3.789301,-1.466844,154.535309,85.751259,153.709457,0.683019,0.016533,0.730186,0.006348
764,-9.728465,0.267878,-0.645779,4.057092,-3.378827,-2.495318,155.370056,85.913467,154.420868,0.683803,0.016550,0.729463,0.004843
765,-9.742374,0.219474,-0.622421,4.887195,-3.224708,-3.201822,157.221527,86.100319,156.122009,0.684572,0.016309,0.728758,0.002747
766,-9.728197,0.195052,-0.591619,5.529610,-2.573138,-3.659599,159.785431,86.291809,158.511551,0.685313,0.016000,0.728072,0.000287
767,-9.757810,0.179987,-0.567660,5.579965,-1.611805,-4.236400,162.574860,86.459335,161.117050,0.685955,0.015797,0.727470,-0.002185
768,-9.778910,0.163289,-0.567762,4.992484,-1.648427,-4.707910,165.438370,86.591301,163.807251,0.686444,0.015637,0.727001,-0.004483
769,-9.769533,0.179925,-0.577874,3.974692,-2.371716,-4.439347,167.659042,86.685303,165.882706,0.686817,0.015637,0.726635,-0.006276
770,-9.761804,0.218362,-0.577944,3.140011,-2.725731,-3.377303,168.053574,86.743576,166.164505,0.687139,0.016134,0.726311,-0.007169
771,-9.751343,0.180518,-0.559229,2.055078,-2.834071,-1.620963,167.144669,86.792465,165.174194,0.687510,0.016888,0.725941,-0.007420
772,-9.711107,0.168936,-0.527503,1.292115,-3.253701,-0.275096,165.806946,86.867683,163.783325,0.688082,0.017551,0.725382,-0.007413
773,-9.695726,0.184931,-0.512078,0.877064,-3.336101,0.580948,163.751007,86.955154,161.692596,0.688805,0.018276,0.724682,-0.007117
774,-9.686812,0.182596,-0.487207,0.768722,-2.896635,1.052459,161.311234,87.031395,159.225906,0.689512,0.019046,0.723993,-0.006679
775,-9.700203,0.159439,-0.466429,0.686323,-2.353405,1.087555,159.483551,87.105446,157.373276,0.690152,0.019584,0.723371,-0.006450
776,-9.712481,0.148886,-0.460722,0.674115,-2.078739,0.857140,158.687103,87.176445,156.552353,0.690661,0.019801,0.722878,-0.006535
777,-9.740711,0.169878,-0.460560,0.657330,-1.805598,0.527540,158.283920,87.226318,156.125229,0.690997,0.019947,0.722551,-0.006685
778,-9.759250,0.158815,-0.443880,0.579508,-1.729302,0.626725,157.898605,87.266983,155.717819,0.691278,0.020093,0.722277,-0.006812
779,-9.784103,0.152930,-0.435159,0.404026,-2.293894,0.715229,157.579163,87.327019,155.380188,0.691662,0.020146,0.721906,-0.006983
780,-9.768014,0.190271,-0.414831,0.248382,-2.820338,0.580947,156.507446,87.401955,154.296295,0.692219,0.020312,0.721368,-0.006968
781,-9.764086,0.207525,-0.387566,0.080530,-2.884427,0.567214,154.298813,87.483315,152.081833,0.692945,0.020680,0.720663,-0.006672
782,-9.753373,0.203953,-0.361455,-0.043069,-2.847805,0.611466,151.740326,87.572472,149.522476,0.693763,0.021027,0.719869,-0.006336
783,-9.760679,0.203869,-0.353273,-0.181929,-2.586872,0.529066,149.514420,87.656906,147.299866,0.694511,0.021236,0.719142,-0.006087
784,-9.758148,0.190735,-0.341026,-0.239914,-2.103153,0.071288,148.212738,87.729790,146.004211,0.695073,0.021232,0.718600,-0.006017
785,-9.775899,0.199013,-0.340162,-0.332996,-1.944457,-0.366652,147.764496,87.791229,145.564682,0.695460,0.021060,0.718231,-0.006082
786,-9.764925,0.197457,-0.326222,-0.297898,-1.987183,-0.264415,147.415985,87.843689,145.225830,0.695781,0.020889,0.717924,-0.006133
787,-9.756854,0.174532,-0.314454,-0.275011,-1.982605,-0.091986,147.195999,87.905663,145.014404,0.696134,0.020665,0.717587,-0.006252
788,-9.737330,0.172021,-0.310841,-0.206344,-1.730828,-0.600119,147.534256,87.971748,145.359634,0.696440,0.020333,0.717298,-0.006499
789,-9.728641,0.189727,-0.315785,-0.096478,-1.274576,-0.665733,148.018478,88.008163,145.848251,0.696572,0.020096,0.717174,-0.006682
790,-9.718596,0.169470,-0.310736,0.164456,-0.455154,-0.243052,148.629715,88.009735,146.457947,0.696510,0.019990,0.717237,-0.006808
791,-9.730083,0.185135,-0.319416,0.307893,-0.099613,-0.409378,149.410080,87.986664,147.229950,0.696297,0.019974,0.717443,-0.006925
792,-9.707610,0.185014,-0.331781,0.474219,-0.128606,-0.114874,149.957611,87.939957,147.764389,0.695981,0.020105,0.717745,-0.006956
793,-9.700464,0.213260,-0.322800,0.620708,-0.278146,0.643510,149.383774,87.881508,147.172348,0.695734,0.020517,0.717974,-0.006769
794,-9.703126,0.233855,-0.316148,0.803819,-0.603169,1.560592,147.080383,87.818695,144.845337,0.695691,0.021322,0.717997,-0.006255
795,-9.716582,0.223789,-0.320948,0.925893,-1.230324,2.122132,144.306046,87.765503,142.041656,0.695797,0.022234,0.717871,-0.005704
796,-9.742421,0.207957,-0.317403,1.055596,-1.150976,2.355599,142.295654,87.736694,139.996643,0.695950,0.022945,0.717703,-0.005421
797,-9.794445,0.225002,-0.300553,0.988456,-0.807642,2.025999,140.805603,87.727203,138.470596,0.696136,0.023486,0.717506,-0.005323
798,-9.816275,0.216213,-0.299362,0.814500,-0.829005,1.722340,139.709885,87.734108,137.343216,0.696342,0.023860,0.717294,-0.005341
799,-9.822551,0.236922,-0.283015,0.608500,-0.690146,0.817466,138.958405,87.757896,136.566574,0.696574,0.024056,0.717061,-0.005454
800,-9.815471,0.235782,-0.265290,0.356722,-0.474991,0.184207,138.282516,87.799393,135.874191,0.696876,0.024105,0.716764,-0.005610
801,-9.768435,0.249194,-0.273506,0.107996,-0.511613,-0.481096,137.932404,87.841782,135.516281,0.697129,0.024034,0.716520,-0.005777
802,-9.740095,0.286812,-0.280671,0.068323,-0.497880,-0.815274,137.459839,87.846779,135.041214,0.697227,0.024108,0.716422,-0.005733
803,-9.715643,0.273233,-0.275375,0.117153,-0.510087,-0.461260,136.754166,87.829666,134.333252,0.697262,0.024315,0.716382,-0.005555
804,-9.713105,0.242871,-0.280440,-0.055277,-0.597065,0.109437,136.542130,87.827324,134.120010,0.697287,0.024368,0.716356,-0.005518
805,-9.725986,0.253864,-0.287689,-0.186506,-0.441420,0.388681,136.662628,87.820938,134.243713,0.697239,0.024355,0.716404,-0.005490
806,-9.759004,0.261183,-0.265650,-0.160565,-0.415479,0.728963,136.169312,87.806252,133.755554,0.697255,0.024468,0.716386,-0.005312
807,-9.761439,0.265258,-0.258594,-0.154462,-0.468887,0.626725,135.067047,87.802864,132.658539,0.697426,0.024635,0.716216,-0.005084
808,-9.770872,0.265349,-0.269852,-0.317737,-0.305613,0.210148,134.368652,87.802063,131.967758,0.697542,0.024705,0.716101,-0.004919
809,-9.760309,0.270167,-0.258585,-0.261276,-0.143865,-0.232371,134.199615,87.805092,131.808197,0.697586,0.024657,0.716060,-0.004848
810,-9.752865,0.298391,-0.253696,-0.268907,-0.337657,-0.604696,133.676376,87.807953,131.294357,0.697689,0.024670,0.715960,-0.004720
811,-9.733837,0.295416,-0.248403,-0.294848,-0.600117,-0.558919,132.689987,87.809204,130.318146,0.697867,0.024757,0.715785,-0.004507
812,-9.729788,0.241930,-0.252423,-0.452018,-1.039583,-0.111823,132.290451,87.843597,129.930954,0.698084,0.024581,0.715580,-0.004532
813,-9.717950,0.262398,-0.236831,-0.406240,-1.176916,0.036192,131.981979,87.897736,129.636032,0.698362,0.024292,0.715318,-0.004655
815,-9.728423,0.261412,-0.232681,-0.383350,-1.120457,0.336799,130.991898,87.933792,128.658401,0.698680,0.024188,0.715011,-0.004604
816,-9.723582,0.253275,-0.227754,-0.380300,-0.911405,0.493970,130.090012,87.959145,127.768532,0.698936,0.024119,0.714764,-0.004524
817,-9.720338,0.250616,-0.234196,-0.332996,-0.545183,0.536696,129.760056,87.972809,127.449615,0.699047,0.024030,0.714658,-0.004477
818,-9.728250,0.291096,-0.232265,-0.206344,-0.043154,0.315437,129.509277,87.949097,127.207436,0.698997,0.024124,0.714704,-0.004277
819,-9.732849,0.281089,-0.236061,-0.119366,0.320016,0.341377,129.320999,87.901558,127.024643,0.698843,0.024348,0.714850,-0.003986
820,-9.743063,0.275995,-0.237681,-0.032389,0.408520,0.188785,129.679901,87.866501,127.385857,0.698642,0.024449,0.715043,-0.003855
821,-9.740545,0.257432,-0.236146,0.022545,0.287972,0.559585,130.256516,87.854881,127.962326,0.698492,0.024424,0.715191,-0.003883
822,-9.749246,0.283944,-0.232268,0.036279,0.175053,0.715229,130.284454,87.843323,127.988953,0.698440,0.024484,0.715240,-0.003839
823,-9.756833,0.269022,-0.231769,0.045434,0.016357,0.960903,129.803909,87.828316,127.506714,0.698467,0.024636,0.715208,-0.003706
824,-9.757461,0.268965,-0.238287,0.005760,-0.375806,1.246251,129.345306,87.821831,127.046600,0.698526,0.024743,0.715147,-0.003619
825,-9.759841,0.308558,-0.245171,-0.180402,-0.598591,1.580429,128.341583,87.786186,126.044899,0.698575,0.025050,0.715091,-0.003286
826,-9.771320,0.324798,-0.237946,-0.287218,-0.525346,1.722340,126.707344,87.716553,124.417877,0.698631,0.025586,0.715020,-0.002662
827,-9.762351,0.316715,-0.236800,-0.348255,-0.552813,1.842888,125.217735,87.654480,122.937965,0.698709,0.026051,0.714928,-0.002076
828,-9.750825,0.329639,-0.234090,-0.389454,-0.410902,1.902399,124.066338,87.603790,121.797882,0.698775,0.026404,0.714852,-0.001583
829,-9.759119,0.349027,-0.234888,-0.448966,-0.214058,1.748281,123.061638,87.545044,120.806374,0.698796,0.026767,0.714819,-0.001059
830,-9.736787,0.339609,-0.227954,-0.247544,-0.064517,1.687244,122.337654,87.496651,120.093117,0.698797,0.027057,0.714808,-0.000636
831,-9.730931,0.342677,-0.221227,-0.055277,-0.145391,1.423258,121.802094,87.475166,119.561737,0.698850,0.027219,0.714750,-0.000421
832,-9.734787,0.365443,-0.217133,0.075953,-0.352917,1.046355,121.072731,87.461403,118.831436,0.698977,0.027398,0.714619,-0.000254
833,-9.753619,0.387342,-0.212706,0.107997,-0.554339,0.783896,119.981812,87.438911,117.737274,0.699167,0.027687,0.714422,-0.000005
834,-9.746111,0.372075,-0.202773,0.207182,-0.288828,0.809836,118.935966,87.424660,116.686241,0.699378,0.027934,0.714206,0.000177
835,-9.766288,0.369399,-0.197349,0.246857,-0.037050,0.539748,118.305908,87.433105,116.048347,0.699558,0.028016,0.714027,0.000165
836,-9.766294,0.394368,-0.204999,0.173612,-0.073672,0.271185,117.911087,87.432724,115.646782,0.699654,0.028111,0.713928,0.000173
837,-9.773634,0.392623,-0.218383,-0.050700,0.062135,0.312385,117.855904,87.410561,115.589142,0.699603,0.028253,0.713973,0.000289
838,-9.762688,0.389172,-0.209018,-0.072063,0.281868,0.249822,118.077675,87.390976,115.812798,0.699490,0.028322,0.714081,0.000381
839,-9.766315,0.394262,-0.203432,-0.081217,0.168950,0.066711,118.112473,87.383789,115.850410,0.699460,0.028341,0.714109,0.000433
840,-9.754124,0.415895,-0.205551,-0.143781,0.104861,-0.401748,117.899689,87.373482,115.641869,0.699484,0.028397,0.714083,0.000542
841,-9.751668,0.409498,-0.211757,-0.212448,0.388683,-0.749659,117.922302,87.361885,115.671097,0.699444,0.028417,0.714122,0.000643
842,-9.727859,0.360385,-0.210247,-0.108685,0.504653,-0.586385,118.649918,87.388206,116.404457,0.699340,0.028142,0.714235,0.000439
843,-9.730963,0.364596,-0.215374,-0.143781,0.271187,-0.697778,119.684547,87.440971,117.443253,0.699246,0.027694,0.714345,0.000041
844,-9.735090,0.384135,-0.222846,-0.311633,0.031617,-0.603171,120.336624,87.465958,118.102867,0.699167,0.027425,0.714432,-0.000134
845,-9.748096,0.369526,-0.229434,-0.400136,0.043824,-0.075200,120.737892,87.465569,118.515884,0.699070,0.027301,0.714532,-0.000113
846,-9.735769,0.350987,-0.217961,-0.288744,0.397839,0.194888,121.189209,87.471214,118.978447,0.698981,0.027139,0.714625,-0.000136
847,-9.742108,0.377387,-0.219945,-0.232285,0.582476,-0.070623,121.487076,87.469818,119.285255,0.698907,0.027050,0.714701,-0.000115
848,-9.735580,0.374537,-0.229460,-0.186506,0.649616,-0.049260,121.768715,87.448708,119.574425,0.698771,0.027076,0.714832,0.000005
849,-9.731166,0.369718,-0.231658,-0.149885,0.649616,0.051451,122.212776,87.428001,120.024490,0.698598,0.027085,0.715002,0.000088
850,-9.723804,0.366366,-0.231878,-0.079692,0.643513,-0.096563,122.677177,87.417450,120.493027,0.698453,0.027047,0.715145,0.000101
851,-9.747550,0.373028,-0.246303,-0.194137,0.304757,-0.076726,123.119392,87.408218,120.940086,0.698316,0.027002,0.715280,0.000115
852,-9.749427,0.388057,-0.255771,-0.258225,-0.058413,-0.024845,123.345490,87.383339,121.173676,0.698177,0.027051,0.715414,0.000257
853,-9.745345,0.369463,-0.263125,-0.230759,0.056031,0.144533,123.632477,87.357216,121.468498,0.698019,0.027095,0.715567,0.000397
854,-9.742589,0.376740,-0.261887,-0.229233,0.258979,0.176577,124.094368,87.336555,121.937546,0.697835,0.027086,0.715746,0.000477
855,-9.746322,0.366622,-0.250483,-0.294848,0.077394,0.541273,124.229721,87.323578,122.081474,0.697758,0.027078,0.715822,0.000573
856,-9.741453,0.361361,-0.250503,-0.250596,-0.172858,0.460399,124.088402,87.330391,121.948799,0.697816,0.027010,0.715768,0.000614
857,-9.750856,0.380050,-0.248427,-0.253648,0.118594,0.196414,123.874016,87.334648,121.742844,0.697882,0.026970,0.715704,0.000676
858,-9.744191,0.393955,-0.241952,-0.224655,0.370372,0.236088,123.490288,87.318024,121.367577,0.697918,0.027062,0.715666,0.000873
859,-9.737725,0.388879,-0.253391,-0.169722,0.442090,0.223881,123.270103,87.291298,121.154541,0.697880,0.027191,0.715698,0.001090
860,-9.729316,0.371575,-0.271394,-0.094951,0.565690,0.316963,123.783173,87.268845,121.671822,0.697675,0.027201,0.715897,0.001153
861,-9.735268,0.395426,-0.272763,-0.047648,0.706075,0.350533,124.503609,87.235367,122.394348,0.697379,0.027243,0.716183,0.001221
862,-9.751420,0.384703,-0.264114,0.001182,0.701498,0.666400,124.804161,87.199211,122.695770,0.697174,0.027376,0.716378,0.001364
863,-9.763084,0.371437,-0.265259,0.028648,0.474135,0.562637,124.982872,87.190971,122.874092,0.697100,0.027390,0.716449,0.001373
864,-9.769574,0.371900,-0.264534,0.097315,0.156742,-0.012638,125.204681,87.212029,123.093689,0.697121,0.027259,0.716434,0.001215
865,-9.754595,0.412816,-0.262671,0.098841,0.025513,-0.403274,125.022453,87.223007,122.908638,0.697206,0.027250,0.716352,0.001172
866,-9.737046,0.401279,-0.262928,0.136989,0.149113,-0.326978,124.602196,87.214836,122.485489,0.697281,0.027380,0.716273,0.001266
867,-9.750338,0.394489,-0.265684,0.169034,0.185735,-0.496356,124.535332,87.216248,122.414177,0.697303,0.027412,0.716251,0.001242
868,-9.752407,0.391922,-0.260895,0.121730,0.115542,-0.450578,124.606720,87.228081,122.481247,0.697328,0.027366,0.716229,0.001143
869,-9.758839,0.395305,-0.258730,0.069849,0.173527,-0.514667,124.576019,87.241394,122.448044,0.697383,0.027318,0.716177,0.001065
870,-9.768876,0.385563,-0.259733,0.037806,0.216253,-0.801541,124.679825,87.260544,122.550797,0.697425,0.027209,0.716140,0.000943
871,-9.775294,0.372122,-0.267169,0.010338,-0.012635,-1.024326,125.156425,87.295715,123.027023,0.697435,0.026954,0.716141,0.000683
872,-9.736862,0.374318,-0.274551,-0.053751,-0.111820,-1.117407,125.845474,87.330315,123.716995,0.697396,0.026661,0.716190,0.000400
873,-9.733819,0.375451,-0.287512,-0.038492,0.098757,-1.157082,126.691467,87.342590,124.564514,0.697243,0.026448,0.716346,0.000207
874,-9.724830,0.371691,-0.300716,0.053063,0.251350,-0.931244,127.776657,87.331123,125.649513,0.696948,0.026323,0.716638,0.000080
875,-9.719056,0.368265,-0.307231,0.111049,0.295602,-0.680993,128.879364,87.304558,126.749313,0.696593,0.026278,0.716985,-0.000001
876,-9.732865,0.364432,-0.301688,0.121730,0.216253,-0.503985,129.662613,87.282135,127.528671,0.696324,0.026270,0.717247,-0.000056
877,-9.739214,0.351074,-0.297073,0.111049,-0.108769,-0.388015,130.069305,87.282570,127.931541,0.696233,0.026218,0.717337,-0.000156
878,-9.735739,0.365590,-0.294513,0.079004,-0.467361,-0.500934,130.030243,87.296219,127.889496,0.696297,0.026178,0.717276,-0.000233
879,-9.741931,0.354068,-0.277367,0.040856,-0.418532,-0.366652,129.565704,87.319412,127.423386,0.696494,0.026161,0.717085,-0.000269
880,-9.746470,0.341549,-0.274408,-0.007974,-0.330028,-0.333082,129.154312,87.358765,127.011810,0.696743,0.026045,0.716848,-0.000388
881,-9.741644,0.348213,-0.283373,-0.036965,-0.180487,-0.474993,129.087585,87.389183,126.946045,0.696878,0.025903,0.716722,-0.000519
882,-9.739165,0.373708,-0.289172,-0.023232,0.005676,-0.406326,129.045853,87.380569,126.905640,0.696853,0.025943,0.716744,-0.000462
883,-9.747066,0.348933,-0.282148,0.001182,0.223883,-0.096563,129.023285,87.360474,126.883774,0.696779,0.026040,0.716813,-0.000355
884,-9.746674,0.334881,-0.278854,-0.043069,0.092654,-0.046208,129.231354,87.367455,127.092682,0.696760,0.025966,0.716834,-0.000421
885,-9.760333,0.348489,-0.275880,-0.029336,-0.099613,-0.357496,129.306458,87.386635,127.169128,0.696820,0.025850,0.716780,-0.000520
886,-9.749771,0.354059,-0.273894,-0.040018,-0.151495,-0.319348,129.062836,87.399544,126.927055,0.696924,0.025820,0.716679,-0.000530
887,-9.740819,0.337371,-0.271403,0.030175,0.019409,-0.330030,128.929199,87.414795,126.793976,0.697014,0.025766,0.716595,-0.000578
888,-9.748025,0.326780,-0.268376,0.019493,-0.113347,-0.391067,129.099213,87.446030,126.963249,0.697099,0.025590,0.716517,-0.000764
889,-9.740998,0.336991,-0.275382,0.027122,-0.406324,-0.484148,129.239456,87.475937,127.102646,0.697187,0.025427,0.716438,-0.000937
890,-9.729312,0.346084,-0.288687,0.048485,-0.511613,-0.284252,129.259766,87.477798,127.121460,0.697190,0.025422,0.716435,-0.000959
891,-9.732567,0.340195,-0.272947,0.150722,-0.323924,0.049926,129.088013,87.466728,126.946312,0.697184,0.025527,0.716438,-0.000898
892,-9.756893,0.328287,-0.261551,0.095789,-0.551287,0.202518,128.634674,87.476173,126.488541,0.697318,0.025583,0.716305,-0.000894
893,-9.741403,0.364516,-0.265693,0.057641,-0.716087,0.059081,127.771362,87.478340,125.622742,0.697513,0.025730,0.716109,-0.000779
894,-9.744617,0.370282,-0.264560,0.100367,-0.436843,-0.037052,126.768280,87.452393,124.617241,0.697637,0.026034,0.715978,-0.000503
895,-9.746712,0.361948,-0.252167,0.098841,-0.236947,-0.056889,126.034172,87.434479,123.880379,0.697734,0.026261,0.715875,-0.000312
896,-9.735624,0.350859,-0.253747,-0.030863,-0.313243,-0.012637,125.608704,87.437378,123.453865,0.697842,0.026319,0.715768,-0.000267
897,-9.731791,0.357175,-0.259958,-0.009500,-0.258310,-0.124030,125.502327,87.442429,123.347862,0.697885,0.026307,0.715727,-0.000273
898,-9.734736,0.349003,-0.255413,0.039330,0.104861,-0.171334,125.672501,87.445030,123.517464,0.697855,0.026272,0.715757,-0.000316
899,-9.734102,0.349634,-0.249981,0.057641,0.231513,-0.096563,125.913124,87.450859,123.756630,0.697822,0.026214,0.715792,-0.000392
900,-9.740730,0.343399,-0.258280,0.014915,0.072817,-0.032475,126.158043,87.456238,124.000374,0.697787,0.026155,0.715828,-0.000466
901,-9.743206,0.348070,-0.265928,0.043908,0.028565,-0.011112,126.501450,87.455086,124.342529,0.697705,0.026115,0.715909,-0.000522
902,-9.745397,0.353073,-0.260075,0.068323,0.168950,0.040770,126.702553,87.444572,124.541573,0.697621,0.026148,0.715989,-0.000513
903,-9.739285,0.345157,-0.260548,0.112575,0.156743,0.098755,126.800385,87.437073,124.636398,0.697571,0.026189,0.716037,-0.000509
904,-9.747823,0.334952,-0.265379,0.101893,0.120120,0.031614,127.111145,87.441513,124.943436,0.697518,0.026140,0.716090,-0.000604
905,-9.738612,0.324964,-0.253982,0.077478,0.080446,-0.046208,127.502869,87.464561,125.331909,0.697519,0.025982,0.716095,-0.000802
906,-9.730217,0.345060,-0.265927,0.010337,-0.163702,-0.502460,127.740479,87.486664,125.567963,0.697551,0.025843,0.716068,-0.000960
907,-9.724963,0.353202,-0.281154,-0.003396,-0.320872,-0.534504,127.961334,87.482384,125.788788,0.697487,0.025830,0.716131,-0.000975
908,-9.740208,0.343502,-0.278516,-0.114789,-0.470413,-0.049260,128.114090,87.467964,125.943092,0.697399,0.025865,0.716216,-0.000920
909,-9.741005,0.348322,-0.269263,-0.264329,-0.745080,0.233037,127.796234,87.459709,125.631134,0.697437,0.025921,0.716177,-0.000791
910,-9.747996,0.370864,-0.272093,-0.288744,-0.957183,0.187259,126.919266,87.442505,124.763023,0.697565,0.026094,0.716046,-0.000509
911,-9.756945,0.371483,-0.258640,-0.302477,-0.774072,0.544325,125.746605,87.415024,123.599937,0.697729,0.026359,0.715877,-0.000125
912,-9.765461,0.356355,-0.251650,-0.334521,-0.499406,0.612992,124.763535,87.401802,122.627205,0.697909,0.026516,0.715696,0.000160
913,-9.755627,0.363302,-0.250403,-0.346729,-0.473465,0.359688,124.160683,87.402481,122.035461,0.698051,0.026538,0.715556,0.000317
914,-9.751466,0.365941,-0.250575,-0.259750,-0.505509,0.280340,123.727814,87.402939,121.612099,0.698155,0.026540,0.715455,0.000439
915,-9.739348,0.357670,-0.251541,-0.172773,-0.319346,0.191837,123.587776,87.406860,121.478752,0.698201,0.026500,0.715411,0.000480
916,-9.739075,0.356619,-0.252859,-0.084270,-0.066043,0.062133,123.829033,87.413734,121.723740,0.698168,0.026405,0.715447,0.000430
918,-9.730378,0.354556,-0.255468,-0.064433,-0.493302,-0.125556,124.159538,87.425034,122.056053,0.698131,0.026285,0.715487,0.000332
919,-9.708672,0.367677,-0.269324,0.071374,-0.645895,-0.420059,124.470886,87.430519,122.366402,0.698078,0.026215,0.715542,0.000251
920,-9.725549,0.378673,-0.265077,0.330781,-0.439895,-0.688622,124.736771,87.420860,122.625160,0.697982,0.026268,0.715633,0.000216
921,-9.744595,0.359466,-0.229709,0.317049,-0.812220,-0.195748,124.342972,87.434631,122.220589,0.698122,0.026326,0.715495,0.000141
922,-9.762063,0.336060,-0.199966,0.088160,-2.039065,-0.075200,122.773796,87.510605,120.644539,0.698745,0.026202,0.714891,-0.000068
923,-9.784265,0.352471,-0.172089,-0.162091,-3.120946,-0.580282,119.813332,87.627518,117.684967,0.699792,0.025964,0.713874,-0.000295
924,-9.808207,0.382577,-0.127887,-0.572566,-4.459182,-1.111304,114.859032,87.740768,112.743210,0.701223,0.025808,0.712474,-0.000299
925,-9.809119,0.332315,-0.106216,-1.138684,-6.242989,-1.010592,108.783676,87.855156,106.694954,0.702833,0.025492,0.710898,-0.000278
926,-9.789881,0.364554,-0.108714,-1.239396,-7.913877,-1.486681,102.139252,87.965485,100.086815,0.704462,0.024982,0.709302,-0.000344
927,-9.782403,0.387621,-0.075373,-1.276018,-9.740409,-0.804593,93.749290,88.018997,91.733864,0.706307,0.024642,0.707476,-0.000225
928,-9.777017,0.378312,0.011387,-1.453025,-12.192571,1.142488,82.943268,87.967697,80.967430,0.708645,0.024606,0.705136,0.000226
929,-9.784383,0.358092,0.120837,-1.588832,-15.650321,2.680621,70.142052,87.765678,68.209610,0.711773,0.024806,0.701971,0.000963
930,-9.786824,0.410091,0.259370,-1.645291,-20.159428,3.043791,57.067474,87.354027,55.180000,0.715923,0.025199,0.697722,0.001911
931,-9.810887,0.420841,0.417007,-1.811617,-25.127842,3.829643,45.699913,86.689613,43.858738,0.721219,0.025743,0.692223,0.003031
932,-9.767348,0.410858,0.587368,-1.956580,-29.108980,4.501050,36.911522,85.798393,35.119915,0.727512,0.026290,0.685578,0.004195
933,-9.724106,0.454473,0.750608,-1.971838,-31.280373,3.753347,30.602316,84.756111,28.860792,0.734374,0.026777,0.678196,0.005308
934,-9.688204,0.446582,0.907931,-1.866551,-31.472643,2.718769,26.049755,83.669304,24.354822,0.741279,0.027068,0.670623,0.006183
935,-9.639054,0.470181,1.071928,-1.628506,-30.344982,1.545332,22.638041,82.611534,20.982391,0.747863,0.027122,0.663265,0.006732
936,-9.624279,0.457223,1.244906,-1.440816,-29.566761,0.503126,19.929585,81.597435,18.304876,0.754082,0.026964,0.656190,0.006967
937,-9.641775,0.451754,1.395109,-0.966255,-30.341928,-1.207437,17.512762,80.607567,15.905320,0.760112,0.026530,0.649215,0.006759
938,-9.628106,0.457455,1.559829,-0.184981,-32.882595,-1.680474,15.338799,79.580345,13.723280,0.766269,0.026037,0.641962,0.006183
939,-9.589484,0.459056,1.752848,0.463538,-36.474625,-0.716089,13.553163,78.438965,11.903314,0.772907,0.025820,0.633970,0.005563
940,-9.550985,0.486665,1.954119,0.516945,-39.686695,0.173526,12.213820,77.161713,10.516572,0.780102,0.025986,0.625092,0.005172
941,-9.492824,0.516091,2.178878,0.321626,-41.133274,0.867822,11.261578,75.788116,9.517584,0.787633,0.026453,0.615556,0.005096
942,-9.453404,0.539173,2.430185,0.217863,-40.872341,1.755910,10.610212,74.373970,8.824819,0.795203,0.027139,0.605712,0.005311
943,-9.400045,0.536842,2.670356,-0.188033,-39.976620,2.003110,10.121349,72.966553,8.305442,0.802592,0.027848,0.595851,0.005686
944,-9.354565,0.523190,2.894022,-0.503899,-39.038177,1.443095,9.636137,71.596268,7.803478,0.809687,0.028305,0.586149,0.005980
945,-9.333073,0.484816,3.126468,-0.810609,-39.015289,1.420207,9.093543,70.255775,7.257802,0.816548,0.028400,0.576546,0.006081
946,-9.260163,0.486434,3.361923,-0.734314,-40.022400,1.031096,8.528622,68.899719,6.695677,0.823392,0.028269,0.566737,0.006031
947,-9.165543,0.492327,3.583543,-1.070017,-41.749748,0.464977,7.973006,67.491646,6.143617,0.830376,0.028028,0.556467,0.005886
948,-9.051557,0.476942,3.787850,-1.370625,-42.859097,0.110962,7.419850,66.039909,5.601357,0.837447,0.027619,0.545791,0.005666
949,-8.928785,0.512044,3.981474,-1.594935,-42.877407,-0.531452,6.913155,64.582550,5.107995,0.844402,0.027155,0.534993,0.005423
950,-8.789631,0.545338,4.171303,-1.414877,-42.292976,-1.048741,6.501594,63.149063,4.699203,0.851091,0.026840,0.524306,0.005204
951,-8.681374,0.553295,4.367378,-1.471335,-42.003052,-1.340193,6.160986,61.744560,4.350760,0.857502,0.026642,0.513766,0.004978
952,-8.579276,0.522032,4.580543,-1.269914,-42.828575,-1.219644,5.838520,60.341129,4.017456,0.863778,0.026409,0.503159,0.004684
953,-8.495046,0.524878,4.811019,-1.082225,-44.873314,-1.215067,5.530071,58.890560,3.692178,0.870124,0.026169,0.492118,0.004319
954,-8.375936,0.544919,5.058597,-0.914373,-47.847343,-0.075200,5.292840,57.342827,3.431512,0.876720,0.026143,0.480272,0.004099
955,-8.222721,0.519979,5.304489,-0.763307,-50.330025,1.560592,5.136445,55.680946,3.256884,0.883601,0.026348,0.467480,0.004185
956,-8.050019,0.513059,5.527435,-0.889959,-51.106720,2.618058,5.025370,53.953663,3.142882,0.890544,0.026627,0.454095,0.004536
957,-7.875676,0.573403,5.745072,-0.958625,-48.828514,2.503614,4.969535,52.256248,3.087473,0.897156,0.027057,0.440855,0.005079
958,-7.695435,0.580443,5.946311,-0.944892,-44.298042,2.654681,4.959118,50.684490,3.075185,0.903093,0.027611,0.428519,0.005717
959,-7.571104,0.564021,6.123455,-1.166151,-38.819969,1.916133,4.930467,49.308193,3.053315,0.908157,0.027975,0.417647,0.006255
960,-7.470960,0.562904,6.291809,-1.169202,-33.317482,0.843407,4.858027,48.153755,2.991299,0.912319,0.028042,0.408467,0.006525
961,-7.372618,0.547593,6.449077,-0.885380,-29.142551,-0.117926,4.752432,47.185059,2.888183,0.915754,0.027906,0.400716,0.006487
962,-7.286106,0.528283,6.599150,-0.938788,-27.590685,-0.546711,4.616178,46.318504,2.750517,0.918785,0.027585,0.393745,0.006214
963,-7.197062,0.482948,6.731737,-0.929632,-27.984373,-0.771022,4.441879,45.468807,2.581153,0.921717,0.027035,0.386877,0.005785
964,-7.077790,0.499844,6.860028,-0.992195,-29.458420,-1.424118,4.249420,44.575138,2.389906,0.924748,0.026394,0.379628,0.005225
965,-6.943116,0.509027,6.974878,-1.361468,-32.183720,-1.874267,4.062114,43.592411,2.193567,0.928009,0.025799,0.371635,0.004605
966,-6.805251,0.521412,7.072668,-1.582728,-34.258980,-1.654533,3.891663,42.521477,2.011610,0.931475,0.025277,0.362903,0.004039
967,-6.654368,0.537883,7.169841,-1.807039,-35.408001,-1.332563,3.757041,41.399071,1.865139,0.935009,0.024911,0.353730,0.003632
968,-6.499311,0.561611,7.295391,-1.904698,-36.138920,-1.356977,3.658162,40.244167,1.749532,0.938542,0.024717,0.344264,0.003349
969,-6.385729,0.526816,7.436954,-1.871129,-37.226902,-1.057896,3.565687,39.063396,1.641538,0.942053,0.024531,0.334552,0.003093
970,-6.229445,0.514550,7.588157,-1.666655,-38.383556,-0.932770,3.465125,37.847363,1.530018,0.945566,0.024270,0.324513,0.002820
971,-6.053614,0.485718,7.763974,-1.593410,-39.624134,-1.152503,3.353577,36.571720,1.406768,0.949138,0.023932,0.313941,0.002471
972,-5.845608,0.471111,7.904914,-1.385883,-40.361156,-1.500414,3.227770,35.237194,1.264684,0.952751,0.023502,0.302837,0.001990
973,-5.648855,0.488647,8.029548,-1.472862,-39.399822,-1.666740,3.113739,33.893169,1.123402,0.956255,0.023132,0.291613,0.001455
974,-5.446833,0.494899,8.140325,-1.248550,-36.442577,-1.244059,3.033030,32.612812,1.007539,0.959466,0.022932,0.280888,0.001005
975,-5.301620,0.492902,8.258647,-1.210402,-31.992979,-0.885467,2.981660,31.468203,0.922085,0.962230,0.022860,0.271274,0.000688
976,-5.176775,0.497562,8.352362,-1.068492,-27.723442,-0.302563,2.954182,30.496557,0.867157,0.964498,0.022879,0.263095,0.000519
977,-5.078022,0.470729,8.440737,-0.993722,-23.859798,-0.275097,2.932391,29.690100,0.827574,0.966328,0.022883,0.256294,0.000423
978,-4.995513,0.468873,8.516950,-0.758729,-21.798273,-0.227793,2.906684,29.008005,0.788566,0.967840,0.022831,0.250530,0.000308
979,-4.900138,0.433490,8.589859,-0.589351,-22.024109,-0.246104,2.872890,28.367582,0.744076,0.969230,0.022713,0.245109,0.000151
980,-4.773376,0.418765,8.634851,-0.534418,-24.139042,-0.584860,2.818895,27.679947,0.681501,0.970692,0.022460,0.239276,-0.000111
981,-4.632327,0.416207,8.683208,-0.490166,-26.362316,-0.952608,2.756174,26.901186,0.601271,0.972306,0.022170,0.232659,-0.000492
982,-4.483954,0.409044,8.752434,-0.348255,-28.805321,-1.144874,2.692791,26.022587,0.508694,0.974071,0.021894,0.225180,-0.000966
983,-4.329345,0.389574,8.842287,-0.374196,-30.587601,-1.653007,2.619985,25.052176,0.398846,0.975954,0.021563,0.216904,-0.001561
984,-4.173092,0.422571,8.924578,-0.558833,-30.357187,-2.293896,2.548322,24.042278,0.273924,0.977837,0.021251,0.208272,-0.002294
985,-4.020988,0.414086,9.011106,-0.545099,-28.906033,-2.548726,2.487319,23.056934,0.143370,0.979599,0.021016,0.199834,-0.003112
986,-3.895689,0.402987,9.079802,-0.638180,-27.708181,-2.885955,2.422138,22.126675,0.005218,0.981197,0.020734,0.191852,-0.004011
987,-3.764240,0.411695,9.134585,-1.001351,-26.281441,-2.707422,2.356865,21.257795,-0.130048,0.982630,0.020422,0.184385,-0.004909
988,-3.642951,0.402741,9.170909,-0.941840,-23.830805,-2.055851,2.302209,20.469002,-0.243571,0.983880,0.020147,0.177599,-0.005661
989,-3.522217,0.375492,9.205337,-0.821292,-22.323191,-1.611807,2.251897,19.758917,-0.336661,0.984967,0.019863,0.171485,-0.006265
990,-3.405890,0.384728,9.226707,-0.897588,-20.568377,-1.060948,2.208952,19.108967,-0.409573,0.985927,0.019601,0.165886,-0.006723
991,-3.296225,0.382718,9.272804,-0.842655,-18.200142,-0.117927,2.184054,18.526098,-0.450138,0.986761,0.019442,0.160863,-0.006944
992,-3.216417,0.376274,9.315479,-0.320787,-15.961608,0.701495,2.179528,18.020308,-0.456683,0.987462,0.019408,0.156505,-0.006914
993,-3.145635,0.365977,9.364507,-0.444387,-14.769861,0.548903,2.179654,17.577194,-0.451374,0.988061,0.019398,0.152686,-0.006798
994,-3.078694,0.374912,9.411612,-1.457602,-14.278510,-0.215585,2.154574,17.163692,-0.461508,0.988610,0.019191,0.149120,-0.006787
995,-3.022545,0.344286,9.456082,-2.269395,-14.756126,-1.100622,2.082403,16.752560,-0.502492,0.989148,0.018616,0.145569,-0.006985
996,-2.937699,0.339900,9.479322,-3.125439,-16.553665,-2.315259,1.963576,16.300192,-0.583040,0.989730,0.017683,0.141658,-0.007465
997,-2.832268,0.325979,9.514526,-4.213424,-18.720482,-3.658073,1.805056,15.764117,-0.707380,0.990397,0.016449,0.137018,-0.008274
998,-2.728932,0.288179,9.552279,-5.107615,-21.744865,-4.585836,1.600965,15.123464,-0.872160,0.991164,0.014850,0.131472,-0.009382
999,-2.594179,0.233631,9.589074,-4.738341,-24.811974,-4.352369,1.373591,14.363882,-1.051969,0.992027,0.013040,0.124897,-0.010606
1000,-2.469645,0.234039,9.623869,-4.605587,-28.178165,-4.759790,1.163101,13.486656,-1.231807,0.992961,0.011341,0.117301,-0.011866
