seq,ax,ay,az,wroll,wpitch,wyaw,roll,pitch,yaw,q0,q1,q2,q3
1126,6.931708,-6.831386,-0.326571,-1.023952,0.237154,0.029783,-92.736916,-45.384949,93.841995,-0.638755,0.261651,0.669557,-0.274268
1128,6.925232,-6.819358,-0.411055,-0.032497,-0.053946,0.083488,-92.778069,-45.383461,93.856552,-0.638623,0.261804,0.669686,-0.274118
1129,6.929467,-6.819414,-0.413750,-0.032714,-0.058743,0.060579,-92.833664,-45.382130,93.896591,-0.638396,0.261887,0.669908,-0.274023
1130,6.926672,-6.824939,-0.414030,-0.013082,-0.058951,0.060564,-92.886261,-45.380577,93.934792,-0.638181,0.261966,0.670118,-0.273937
1131,6.924600,-6.818660,-0.409381,0.029460,-0.045403,0.063607,-92.932137,-45.378448,93.968788,-0.637989,0.262035,0.670301,-0.273870
1132,6.925767,-6.827581,-0.406689,0.036932,-0.066926,0.048342,-92.971321,-45.376167,93.998711,-0.637821,0.262091,0.670458,-0.273821
1133,6.925361,-6.830515,-0.408980,0.042891,-0.060969,0.042246,-93.007027,-45.372639,94.026505,-0.637664,0.262147,0.670600,-0.273786
1135,6.918666,-6.832846,-0.407891,0.051892,-0.050446,0.028542,-93.044830,-45.366913,94.055801,-0.637492,0.262219,0.670746,-0.273761
1136,6.921832,-6.828359,-0.407362,0.022740,-0.052136,0.020942,-93.084213,-45.361332,94.085876,-0.637315,0.262293,0.670898,-0.273729
1137,6.920009,-6.824798,-0.409210,-0.055230,-0.082804,0.004167,-93.122833,-45.358631,94.114548,-0.637151,0.262356,0.671051,-0.273678
1138,6.921611,-6.822363,-0.414730,-0.122516,-0.093633,0.002638,-93.163918,-45.357716,94.143715,-0.636985,0.262419,0.671214,-0.273604
1139,6.922729,-6.815714,-0.415689,-0.134864,-0.109033,0.002614,-93.205704,-45.359364,94.172768,-0.636824,0.262471,0.671383,-0.273512
1140,6.924658,-6.806840,-0.416878,-0.138043,-0.100004,0.011714,-93.245010,-45.364674,94.199928,-0.636684,0.262500,0.671550,-0.273402
1142,6.925209,-6.808021,-0.420722,-0.127484,-0.097072,-0.006666,-93.282234,-45.371838,94.225571,-0.636557,0.262516,0.671711,-0.273286
1143,6.926492,-6.810351,-0.424430,-0.100135,-0.088032,-0.002147,-93.317894,-45.378178,94.250427,-0.636433,0.262532,0.671866,-0.273179
1144,6.921594,-6.812532,-0.423429,-0.074303,-0.101872,0.010021,-93.350105,-45.381809,94.273491,-0.636314,0.262555,0.672003,-0.273097
1145,6.924240,-6.815491,-0.421085,-0.043871,-0.086700,0.029837,-93.376419,-45.382915,94.292999,-0.636210,0.262580,0.672112,-0.273045
1146,6.927384,-6.818104,-0.420419,-0.021051,-0.100502,0.032870,-93.397446,-45.383461,94.309341,-0.636124,0.262598,0.672201,-0.273009
1147,6.926294,-6.815516,-0.413696,-0.021098,-0.111231,0.043530,-93.413048,-45.384186,94.322365,-0.636060,0.262604,0.672269,-0.272986
1149,6.927827,-6.813047,-0.414396,0.004814,-0.115836,0.051130,-93.424240,-45.385754,94.332733,-0.636014,0.262596,0.672323,-0.272969
1150,6.927824,-6.814317,-0.412827,0.024627,-0.103650,0.044993,-93.432869,-45.387760,94.341713,-0.635978,0.262580,0.672368,-0.272957
1151,6.925415,-6.815396,-0.410940,-0.008955,-0.108239,0.023607,-93.439117,-45.389111,94.348785,-0.635950,0.262566,0.672401,-0.272952
1152,6.921959,-6.818014,-0.409792,-0.053210,-0.123502,0.020549,-93.444931,-45.388729,94.354851,-0.635922,0.262564,0.672428,-0.272954
1153,6.922832,-6.824085,-0.414583,-0.091366,-0.141820,0.022091,-93.453377,-45.385899,94.362228,-0.635877,0.262584,0.672460,-0.272961
1154,6.919449,-6.832979,-0.412335,-0.092898,-0.132675,0.023661,-93.462601,-45.379471,94.369766,-0.635820,0.262628,0.672487,-0.272985
1156,6.924335,-6.831139,-0.412130,-0.086792,-0.126571,0.035918,-93.469398,-45.372162,94.375465,-0.635771,0.262674,0.672502,-0.273018
1157,6.926617,-6.832485,-0.411122,-0.074578,-0.114359,0.034424,-93.474274,-45.366989,94.379791,-0.635736,0.262705,0.672513,-0.273043
1158,6.933622,-6.827234,-0.411609,-0.073041,-0.118926,0.035955,-93.478088,-45.365181,94.383423,-0.635713,0.262715,0.672527,-0.273051
1159,6.929609,-6.826648,-0.416624,-0.047098,-0.112820,0.045096,-93.483437,-45.365330,94.388466,-0.635689,0.262714,0.672552,-0.273047
1160,6.933859,-6.821219,-0.417402,-0.065416,-0.118928,0.043544,-93.490746,-45.366650,94.394974,-0.635661,0.262709,0.672587,-0.273033
1161,6.928667,-6.822052,-0.422436,-0.065430,-0.120467,0.041987,-93.500420,-45.368633,94.403046,-0.635625,0.262704,0.672632,-0.273009
1163,6.927035,-6.818871,-0.428980,-0.066988,-0.137282,0.037387,-93.514481,-45.369476,94.414444,-0.635568,0.262710,0.672693,-0.272985
1164,6.922547,-6.827602,-0.433502,-0.038039,-0.117491,0.048068,-93.531334,-45.367508,94.428108,-0.635491,0.262735,0.672761,-0.272973
1165,6.923085,-6.827791,-0.428912,-0.012137,-0.088538,0.046564,-93.544640,-45.362804,94.439308,-0.635421,0.262770,0.672809,-0.272984
1166,6.922884,-6.824634,-0.426271,-0.007578,-0.090084,0.046578,-93.552521,-45.359276,94.446709,-0.635376,0.262790,0.672838,-0.272999
1167,6.924580,-6.818541,-0.425169,-0.013691,-0.087041,0.035888,-93.558022,-45.358631,94.452377,-0.635348,0.262791,0.672863,-0.273002
1168,6.925467,-6.817794,-0.420816,0.000044,-0.082459,0.049596,-93.560486,-45.360180,94.455902,-0.635338,0.262775,0.672880,-0.272998
1170,6.924996,-6.818385,-0.420824,0.022945,-0.071765,0.058724,-93.559853,-45.361500,94.457443,-0.635339,0.262755,0.672884,-0.273003
1171,6.929200,-6.812702,-0.418590,0.035167,-0.071748,0.060210,-93.557564,-45.364380,94.458084,-0.635351,0.262722,0.672886,-0.273003
1172,6.922291,-6.811236,-0.423178,0.042805,-0.064105,0.049482,-93.556114,-45.368111,94.459496,-0.635361,0.262685,0.672893,-0.272998
1173,6.920929,-6.816386,-0.423432,0.047385,-0.062577,0.069295,-93.556419,-45.368828,94.462173,-0.635356,0.262666,0.672901,-0.273007
1174,6.920443,-6.816391,-0.422959,0.059593,-0.068679,0.072337,-93.556335,-45.367481,94.464806,-0.635346,0.262658,0.672904,-0.273030
1175,6.919638,-6.816016,-0.417190,0.044346,-0.073244,0.057070,-93.553886,-45.366253,94.465858,-0.635346,0.262645,0.672899,-0.273057
1177,6.918447,-6.813038,-0.420713,0.024524,-0.083908,0.043325,-93.551567,-45.365932,94.466789,-0.635348,0.262629,0.672895,-0.273078
1178,6.926394,-6.820996,-0.415249,0.004706,-0.086941,0.040258,-93.549469,-45.366341,94.467583,-0.635352,0.262610,0.672892,-0.273092
1179,6.929395,-6.820017,-0.416522,0.001679,-0.088440,0.015821,-93.546143,-45.368053,94.467300,-0.635365,0.262584,0.672887,-0.273101
1180,6.926228,-6.821152,-0.420313,-0.012040,-0.086897,0.023431,-93.545502,-45.369812,94.468742,-0.635368,0.262562,0.672892,-0.273102
1181,6.921551,-6.818350,-0.423056,-0.012037,-0.089946,0.031052,-93.548073,-45.369770,94.472313,-0.635354,0.262555,0.672906,-0.273107
1182,6.917043,-6.831694,-0.421541,-0.015085,-0.092997,0.035656,-93.550934,-45.365322,94.476112,-0.635326,0.262574,0.672913,-0.273137
1184,6.914754,-6.834682,-0.426276,-0.021189,-0.097578,0.040298,-93.554710,-45.356079,94.480545,-0.635281,0.262622,0.672915,-0.273192
1185,6.911911,-6.841108,-0.422216,-0.030344,-0.097582,0.040382,-93.558517,-45.344391,94.484863,-0.635230,0.262684,0.672911,-0.273260
1186,6.912559,-6.836553,-0.421732,-0.034910,-0.094525,0.025206,-93.560181,-45.333221,94.487480,-0.635189,0.262742,0.672899,-0.273328
1187,6.917590,-6.838768,-0.419226,-0.028791,-0.085356,0.026792,-93.560158,-45.325130,94.488770,-0.635164,0.262781,0.672886,-0.273381
1188,6.923229,-6.831900,-0.417933,-0.022664,-0.074652,0.025291,-93.558075,-45.321262,94.488510,-0.635159,0.262793,0.672873,-0.273414
1189,6.926191,-6.826450,-0.412468,-0.024157,-0.066989,0.022223,-93.553200,-45.322521,94.486115,-0.635179,0.262773,0.672858,-0.273422
1191,6.929250,-6.817465,-0.417374,-0.021074,-0.068480,0.040481,-93.548668,-45.327942,94.483894,-0.635210,0.262730,0.672853,-0.273405
1192,6.931144,-6.821176,-0.420465,-0.019534,-0.062357,0.046517,-93.547882,-45.334637,94.484314,-0.635229,0.262684,0.672865,-0.273374
1193,6.932823,-6.814265,-0.418883,-0.037834,-0.066920,0.035760,-93.548370,-45.342216,94.485435,-0.635246,0.262637,0.672884,-0.273335
1194,6.930976,-6.812949,-0.425307,-0.046989,-0.071491,0.044833,-93.551689,-45.350700,94.488350,-0.635255,0.262590,0.672915,-0.273283
1195,6.929480,-6.813702,-0.428948,-0.036323,-0.076081,0.049340,-93.559174,-45.357445,94.494339,-0.635242,0.262558,0.672959,-0.273234
1196,6.927810,-6.818130,-0.425112,-0.040912,-0.062356,0.044711,-93.565659,-45.361717,94.499588,-0.635226,0.262539,0.672995,-0.273201
1198,6.924283,-6.812793,-0.418318,-0.033273,-0.071500,0.049251,-93.566879,-45.364685,94.501076,-0.635228,0.262520,0.673007,-0.273185
1199,6.925559,-6.816391,-0.420215,-0.034780,-0.080634,0.047691,-93.565926,-45.367199,94.501297,-0.635237,0.262499,0.673010,-0.273178
1200,6.926455,-6.815649,-0.416465,-0.039336,-0.077558,0.053764,-93.564301,-45.369228,94.501038,-0.635246,0.262480,0.673010,-0.273174
1201,6.921402,-6.814232,-0.416560,-0.054569,-0.083632,0.055263,-93.561699,-45.370541,94.499878,-0.635259,0.262465,0.673004,-0.273176
1202,6.924143,-6.809896,-0.419773,-0.069807,-0.092765,0.052182,-93.561607,-45.372375,94.500313,-0.635263,0.262451,0.673008,-0.273168
1203,6.928608,-6.817863,-0.422446,-0.086582,-0.086648,0.044516,-93.564613,-45.374882,94.502632,-0.635257,0.262440,0.673025,-0.273149
1205,6.927578,-6.817329,-0.426443,-0.072848,-0.079016,0.049068,-93.569908,-45.376308,94.506371,-0.635240,0.262439,0.673049,-0.273131
1206,6.927451,-6.824207,-0.427515,-0.078958,-0.092756,0.033798,-93.576714,-45.376080,94.511368,-0.635212,0.262449,0.673076,-0.273120
1207,6.933010,-6.826898,-0.428011,-0.080488,-0.095812,0.026165,-93.583763,-45.375256,94.516655,-0.635181,0.262461,0.673104,-0.273112
1208,6.932123,-6.829780,-0.421754,-0.065221,-0.104960,0.023111,-93.587563,-45.374519,94.519943,-0.635163,0.262467,0.673119,-0.273112
1209,6.931732,-6.830987,-0.426820,-0.056053,-0.106473,0.027696,-93.589973,-45.372723,94.522644,-0.635146,0.262475,0.673127,-0.273123
1210,6.928629,-6.829027,-0.421216,-0.060616,-0.098828,0.032284,-93.591682,-45.370350,94.524834,-0.635130,0.262485,0.673132,-0.273139
1212,6.924057,-6.821301,-0.419268,-0.046855,-0.089646,0.042970,-93.589821,-45.368484,94.524384,-0.635130,0.262488,0.673123,-0.273158
1213,6.926395,-6.816428,-0.411402,-0.036130,-0.081971,0.044481,-93.583488,-45.368950,94.520836,-0.635154,0.262471,0.673100,-0.273173
1214,6.930216,-6.812189,-0.414596,-0.029978,-0.081919,0.045965,-93.575424,-45.372677,94.516167,-0.635194,0.262433,0.673078,-0.273173
1215,6.930770,-6.815392,-0.408192,-0.016193,-0.080338,0.042864,-93.566437,-45.377403,94.511055,-0.635240,0.262386,0.673054,-0.273171
1216,6.933687,-6.809055,-0.408876,-0.006980,-0.089432,0.038228,-93.555725,-45.383266,94.505074,-0.635295,0.262328,0.673026,-0.273167
1217,6.939831,-6.810457,-0.409605,-0.025241,-0.087851,0.024417,-93.546989,-45.391777,94.500504,-0.635349,0.262258,0.673011,-0.273145
1219,6.934666,-6.811882,-0.415962,-0.028259,-0.084760,0.030452,-93.542435,-45.399239,94.498596,-0.635385,0.262201,0.673010,-0.273119
1220,6.931354,-6.815086,-0.415895,-0.031290,-0.078632,0.036515,-93.540962,-45.402889,94.498711,-0.635398,0.262172,0.673014,-0.273107
1221,6.931060,-6.810327,-0.416875,-0.032799,-0.074033,0.048692,-93.540100,-45.405273,94.499054,-0.635405,0.262151,0.673018,-0.273101
1222,6.930405,-6.824415,-0.415771,-0.031253,-0.074013,0.054783,-93.538971,-45.404907,94.499146,-0.635407,0.262146,0.673014,-0.273110
1223,6.926915,-6.827941,-0.411247,-0.002231,-0.070934,0.067019,-93.534546,-45.399662,94.497200,-0.635407,0.262163,0.672989,-0.273155
1224,6.929805,-6.828356,-0.411796,-0.005247,-0.067847,0.067052,-93.528084,-45.393604,94.494034,-0.635413,0.262181,0.672955,-0.273210
1226,6.930633,-6.824290,-0.415044,-0.012849,-0.067820,0.051807,-93.524002,-45.389862,94.492409,-0.635416,0.262189,0.672934,-0.273246
1227,6.930542,-6.824421,-0.416974,-0.028093,-0.070857,0.028922,-93.523170,-45.388145,94.492897,-0.635412,0.262191,0.672930,-0.273263
1228,6.933009,-6.817993,-0.419835,-0.020458,-0.073902,0.027382,-93.525017,-45.388844,94.495285,-0.635404,0.262184,0.672941,-0.273262
1229,6.934445,-6.814498,-0.423191,-0.026568,-0.078483,0.019713,-93.529785,-45.392544,94.499870,-0.635392,0.262162,0.672970,-0.273238
1230,6.934209,-6.813927,-0.424041,-0.020476,-0.076967,0.028822,-93.536118,-45.397030,94.505600,-0.635376,0.262138,0.673007,-0.273207
1231,6.934319,-6.824150,-0.421606,-0.012853,-0.076971,0.037952,-93.540718,-45.398788,94.510239,-0.635360,0.262126,0.673032,-0.273196
1233,6.935139,-6.821120,-0.423285,-0.002174,-0.066292,0.054725,-93.543770,-45.398518,94.513832,-0.635343,0.262123,0.673047,-0.273200
1234,6.930726,-6.824913,-0.421067,-0.018958,-0.054084,0.044040,-93.545891,-45.397194,94.516434,-0.635329,0.262127,0.673055,-0.273209
1235,6.932745,-6.822554,-0.422120,-0.023532,-0.043398,0.044043,-93.547211,-45.395374,94.517944,-0.635317,0.262136,0.673059,-0.273220
1236,6.931091,-6.828375,-0.417919,-0.018944,-0.040336,0.024212,-93.546745,-45.393444,94.518036,-0.635313,0.262144,0.673054,-0.273234
1237,6.927545,-6.824131,-0.417270,-0.006717,-0.029637,0.034910,-93.543671,-45.390533,94.516319,-0.635316,0.262154,0.673037,-0.273259
1238,6.927160,-6.823140,-0.407879,-0.009735,-0.034180,0.030344,-93.536430,-45.388172,94.511658,-0.635337,0.262154,0.673005,-0.273289
1239,6.929765,-6.824638,-0.412649,-0.014270,-0.029561,0.037981,-93.527893,-45.386433,94.505989,-0.635365,0.262150,0.672968,-0.273318
1240,6.927362,-6.824565,-0.412331,-0.005086,-0.026479,0.042566,-93.521744,-45.384399,94.501984,-0.635383,0.262151,0.672940,-0.273343
1241,6.928695,-6.821889,-0.416048,0.008668,-0.041716,0.062406,-93.517616,-45.382446,94.499817,-0.635392,0.262152,0.672921,-0.273367
1242,6.931226,-6.822542,-0.416363,-0.008104,-0.055438,0.057818,-93.516266,-45.381569,94.499916,-0.635393,0.262149,0.672917,-0.273380
1243,6.930450,-6.830508,-0.421421,-0.006576,-0.060013,0.057820,-93.517784,-45.379387,94.502083,-0.635378,0.262158,0.672921,-0.273396
1244,6.928558,-6.826682,-0.418571,0.005631,-0.064593,0.063935,-93.520027,-45.375801,94.505035,-0.635356,0.262173,0.672926,-0.273419
1245,6.929663,-6.829216,-0.417823,0.010215,-0.073743,0.071573,-93.520546,-45.372417,94.507103,-0.635341,0.262183,0.672926,-0.273447
1246,6.928615,-6.824107,-0.416648,-0.009614,-0.066104,0.065471,-93.520470,-45.369926,94.508591,-0.635331,0.262188,0.672924,-0.273470
1247,6.929789,-6.820605,-0.418442,0.008704,-0.059991,0.053246,-93.520668,-45.369869,94.510117,-0.635326,0.262181,0.672928,-0.273477
1248,6.932106,-6.814743,-0.418654,0.007182,-0.056934,0.051681,-93.521515,-45.372829,94.512199,-0.635328,0.262156,0.672940,-0.273467
1249,6.933897,-6.815167,-0.417656,-0.006547,-0.067608,0.028737,-93.522537,-45.378044,94.514320,-0.635335,0.262120,0.672958,-0.273443
1250,6.932740,-6.817060,-0.418758,-0.024853,-0.066074,0.025636,-93.524155,-45.382915,94.516624,-0.635339,0.262087,0.672976,-0.273419
1251,6.934200,-6.818198,-0.419090,-0.023325,-0.059965,0.027123,-93.526314,-45.386730,94.519028,-0.635338,0.262063,0.672994,-0.273398
1252,6.932123,-6.824981,-0.418028,-0.044681,-0.075217,0.054567,-93.528244,-45.387836,94.521118,-0.635332,0.262055,0.673006,-0.273392
1253,6.926819,-6.825412,-0.415472,-0.044668,-0.072152,0.057625,-93.528786,-45.385204,94.522087,-0.635321,0.262068,0.673004,-0.273409
1254,6.925732,-6.825660,-0.414648,-0.044648,-0.066029,0.071376,-93.527596,-45.380943,94.521690,-0.635313,0.262088,0.672992,-0.273438
1255,6.923833,-6.826168,-0.415525,-0.032419,-0.067536,0.068346,-93.526154,-45.376087,94.521217,-0.635304,0.262110,0.672978,-0.273471
1256,6.923937,-6.832344,-0.416715,-0.027826,-0.076677,0.069904,-93.525444,-45.369896,94.521584,-0.635288,0.262140,0.672966,-0.273513
1257,6.923191,-6.827028,-0.420114,-0.032396,-0.061411,0.053149,-93.526657,-45.364159,94.523254,-0.635266,0.262169,0.672961,-0.273547
1258,6.923744,-6.827980,-0.424441,-0.030875,-0.064470,0.047063,-93.531044,-45.360176,94.527023,-0.635236,0.262194,0.672972,-0.273565
1259,6.924450,-6.831718,-0.428276,-0.018686,-0.059911,0.053186,-93.538185,-45.355850,94.532898,-0.635193,0.262224,0.672995,-0.273580
1260,6.923795,-6.831933,-0.424070,-0.027856,-0.064505,0.048632,-93.544441,-45.351112,94.538185,-0.635154,0.262255,0.673012,-0.273600
1261,6.921970,-6.827386,-0.418207,-0.030903,-0.070605,0.044071,-93.546326,-45.347481,94.540337,-0.635134,0.262273,0.673015,-0.273621
1262,6.922220,-6.824899,-0.412906,-0.015618,-0.072105,0.045600,-93.543243,-45.345608,94.539200,-0.635139,0.262274,0.673001,-0.273644
1263,6.924484,-6.823694,-0.413108,-0.006429,-0.070545,0.057797,-93.537766,-45.345139,94.536629,-0.635156,0.262261,0.672981,-0.273664
1264,6.922147,-6.827120,-0.413987,-0.021658,-0.068988,0.062369,-93.533134,-45.344013,94.534554,-0.635169,0.262254,0.672963,-0.273686
1265,6.921106,-6.824616,-0.419193,-0.027744,-0.056763,0.065421,-93.531631,-45.341877,94.534271,-0.635167,0.262260,0.672955,-0.273706
1266,6.924007,-6.820992,-0.424572,-0.021643,-0.052186,0.062354,-93.534760,-45.341469,94.537094,-0.635152,0.262263,0.672968,-0.273705
1267,6.921063,-6.826159,-0.423168,-0.023178,-0.055246,0.054710,-93.539322,-45.340973,94.540985,-0.635131,0.262268,0.672987,-0.273703
1268,6.920347,-6.828369,-0.421127,-0.038437,-0.059824,0.042508,-93.542313,-45.338585,94.543648,-0.635111,0.262283,0.672995,-0.273713
1269,6.921869,-6.821212,-0.417259,-0.041478,-0.073547,0.030296,-93.543213,-45.338017,94.544853,-0.635104,0.262284,0.672999,-0.273718
1270,6.921665,-6.819439,-0.413048,-0.035351,-0.076573,0.024167,-93.541023,-45.340126,94.544090,-0.635117,0.262264,0.672996,-0.273715
1271,6.919213,-6.824950,-0.412116,-0.038369,-0.070434,0.028732,-93.536537,-45.340923,94.541718,-0.635135,0.262249,0.672982,-0.273723
1272,6.925843,-6.825768,-0.413922,-0.042916,-0.071928,0.033301,-93.532639,-45.340954,94.539597,-0.635149,0.262239,0.672968,-0.273734
1273,6.922246,-6.825142,-0.414471,-0.033734,-0.071901,0.043970,-93.530067,-45.341248,94.538483,-0.635159,0.262230,0.672960,-0.273742
1274,6.921329,-6.824603,-0.417984,-0.012354,-0.053573,0.045489,-93.528709,-45.340588,94.538368,-0.635160,0.262227,0.672955,-0.273753
1275,6.921764,-6.820066,-0.419432,-0.015399,-0.064245,0.040896,-93.529343,-45.340927,94.539810,-0.635156,0.262220,0.672960,-0.273755
1276,6.922761,-6.821915,-0.420254,-0.012344,-0.058137,0.025614,-93.531120,-45.342419,94.542122,-0.635151,0.262208,0.672973,-0.273749
1277,6.920862,-6.819303,-0.424271,-0.010823,-0.052038,0.016437,-93.534561,-45.344158,94.545555,-0.635139,0.262197,0.672992,-0.273738
1278,6.926522,-6.820134,-0.425251,-0.015414,-0.042893,0.008778,-93.539688,-45.347115,94.549988,-0.635125,0.262182,0.673020,-0.273716
1279,6.930187,-6.822119,-0.419637,-0.024572,-0.047472,0.016368,-93.542519,-45.351234,94.552574,-0.635124,0.262159,0.673041,-0.273690
1280,6.929394,-6.834468,-0.419021,-0.001673,-0.030674,0.028561,-93.541527,-45.352356,94.552429,-0.635130,0.262148,0.673040,-0.273689
1281,6.928106,-6.838552,-0.417107,0.001397,-0.032183,0.034683,-93.538261,-45.349106,94.550797,-0.635132,0.262158,0.673023,-0.273717
1282,6.926379,-6.832374,-0.411247,-0.003151,-0.032154,0.042332,-93.532051,-45.345654,94.547050,-0.635146,0.262165,0.672992,-0.273753
1283,6.923362,-6.828145,-0.414083,-0.004645,-0.033648,0.037761,-93.525429,-45.343697,94.542961,-0.635165,0.262164,0.672964,-0.273780
1284,6.921820,-6.827605,-0.415799,-0.000046,-0.027523,0.027083,-93.521378,-45.342289,94.540688,-0.635176,0.262163,0.672946,-0.273799
1285,6.922031,-6.817703,-0.415215,-0.010713,-0.029032,0.017913,-93.518623,-45.343266,94.539238,-0.635189,0.262151,0.672938,-0.273802
1286,6.920816,-6.811069,-0.412239,-0.015271,-0.038166,0.023976,-93.515594,-45.347599,94.537529,-0.635212,0.262119,0.672935,-0.273785
1288,6.925257,-6.814170,-0.418056,0.013734,-0.035099,0.016296,-93.513809,-45.353058,94.537064,-0.635232,0.262081,0.672940,-0.273762
1289,6.923697,-6.819976,-0.412046,0.021376,-0.050344,0.017785,-93.511559,-45.356853,94.536858,-0.635248,0.262048,0.672942,-0.273753
1290,6.922591,-6.822702,-0.415917,0.019866,-0.070163,0.037610,-93.508888,-45.357483,94.536812,-0.635256,0.262029,0.672937,-0.273765
1291,6.928638,-6.824465,-0.417972,0.015294,-0.074735,0.040649,-93.509293,-45.357502,94.539154,-0.635249,0.262018,0.672943,-0.273775
1292,6.925306,-6.822228,-0.421894,0.013763,-0.071687,0.037581,-93.512466,-45.358067,94.543411,-0.635233,0.262007,0.672961,-0.273777
1293,6.921847,-6.826925,-0.418452,-0.003027,-0.074744,0.045209,-93.515892,-45.356606,94.547623,-0.635211,0.262010,0.672976,-0.273789
1294,6.925305,-6.827197,-0.416822,0.001556,-0.059479,0.058951,-93.516716,-45.353867,94.549690,-0.635197,0.262018,0.672978,-0.273811
1295,6.927092,-6.829354,-0.413892,0.000045,-0.056412,0.046744,-93.514984,-45.351963,94.549767,-0.635196,0.262019,0.672970,-0.273832
1296,6.922925,-6.828808,-0.407943,-0.006029,-0.056382,0.051328,-93.509651,-45.349712,94.547150,-0.635208,0.262017,0.672947,-0.273862
1297,6.927807,-6.825348,-0.409067,0.012318,-0.050241,0.052850,-93.502411,-45.348621,94.543251,-0.635231,0.262006,0.672919,-0.273889
1298,6.927169,-6.825109,-0.406548,0.001673,-0.039523,0.052831,-93.494934,-45.349354,94.539055,-0.635260,0.261985,0.672893,-0.273905
1299,6.925517,-6.824575,-0.408990,-0.012028,-0.036437,0.045183,-93.488350,-45.349937,94.535072,-0.635286,0.261969,0.672869,-0.273918
1300,6.921263,-6.819657,-0.409801,0.004781,-0.008946,0.049746,-93.483391,-45.350414,94.531929,-0.635306,0.261957,0.672851,-0.273927
1301,6.924933,-6.824248,-0.410447,0.036844,-0.004348,0.060411,-93.478271,-45.350555,94.528854,-0.635326,0.261946,0.672832,-0.273940
1302,6.925224,-6.833167,-0.405120,0.036870,-0.002795,0.057361,-93.470688,-45.348587,94.524338,-0.635348,0.261942,0.672800,-0.273970
1303,6.923329,-6.831134,-0.408774,0.064363,-0.019554,0.049747,-93.462700,-45.345119,94.520035,-0.635367,0.261943,0.672764,-0.274013
1304,6.924006,-6.829829,-0.407077,0.070487,-0.018008,0.051281,-93.456085,-45.342438,94.517296,-0.635382,0.261937,0.672737,-0.274052
1305,6.925555,-6.827946,-0.408259,0.073557,-0.021042,0.045175,-93.449944,-45.341267,94.515022,-0.635398,0.261923,0.672714,-0.274082
1306,6.924998,-6.820174,-0.410576,0.055254,-0.017980,0.034471,-93.446419,-45.342754,94.514442,-0.635412,0.261899,0.672708,-0.274091
1307,6.924537,-6.817996,-0.414084,0.047620,-0.024087,0.042061,-93.446548,-45.346058,94.516190,-0.635416,0.261870,0.672718,-0.274081
1308,6.927936,-6.815120,-0.411498,0.035404,-0.005781,0.048114,-93.447464,-45.350574,94.518112,-0.635422,0.261838,0.672734,-0.274061
1309,6.928714,-6.816752,-0.414011,0.035396,-0.007311,0.034324,-93.448257,-45.355968,94.519615,-0.635431,0.261803,0.672750,-0.274034
1310,6.927517,-6.817700,-0.413187,0.018601,-0.016473,0.037328,-93.450096,-45.360386,94.521797,-0.635434,0.261775,0.672767,-0.274010
1311,6.925537,-6.828746,-0.406208,0.020133,-0.024097,0.038837,-93.448761,-45.361149,94.521721,-0.635439,0.261764,0.672766,-0.274013
1312,6.925345,-6.819176,-0.402135,0.018631,-0.016441,0.035777,-93.442734,-45.361069,94.518318,-0.635461,0.261751,0.672743,-0.274030
1313,6.921653,-6.821453,-0.401595,-0.010332,-0.028618,0.038814,-93.435921,-45.361725,94.514046,-0.635489,0.261734,0.672718,-0.274043
1314,6.921060,-6.822623,-0.400880,-0.020982,-0.022483,0.063229,-93.429863,-45.360298,94.509880,-0.635508,0.261733,0.672692,-0.274063
1315,6.921413,-6.824693,-0.398338,-0.016371,-0.033132,0.058656,-93.423164,-45.357887,94.505241,-0.635528,0.261737,0.672660,-0.274091
1316,6.921853,-6.816690,-0.403530,-0.033130,-0.043786,0.057121,-93.418922,-45.357124,94.502449,-0.635542,0.261734,0.672642,-0.274104
1317,6.921497,-6.821383,-0.407624,-0.059064,-0.051408,0.049476,-93.420235,-45.357239,94.503326,-0.635538,0.261736,0.672648,-0.274101
1318,6.919684,-6.822911,-0.405002,-0.034644,-0.045299,0.043370,-93.422211,-45.355850,94.504692,-0.635526,0.261747,0.672653,-0.274105
1319,6.920470,-6.819519,-0.404634,-0.020901,-0.048340,0.029633,-93.422157,-45.355083,94.505035,-0.635523,0.261749,0.672652,-0.274111
1320,6.920954,-6.814366,-0.401623,-0.036145,-0.042219,0.032663,-93.420776,-45.356682,94.504387,-0.635532,0.261736,0.672650,-0.274107
1321,6.919944,-6.819621,-0.401269,-0.028495,-0.039145,0.028065,-93.418045,-45.358196,94.502594,-0.635547,0.261723,0.672643,-0.274104
1322,6.919352,-6.819635,-0.401761,-0.022370,-0.028442,0.034161,-93.414978,-45.358105,94.500549,-0.635559,0.261718,0.672631,-0.274111
1323,6.921072,-6.818238,-0.406192,-0.033040,-0.028431,0.037201,-93.414185,-45.358265,94.499947,-0.635562,0.261716,0.672628,-0.274112
1324,6.922540,-6.815275,-0.402677,-0.054395,-0.039102,0.038703,-93.414780,-45.359898,94.500069,-0.635565,0.261710,0.672632,-0.274100
1325,6.924437,-6.818987,-0.406009,-0.042180,-0.043670,0.043253,-93.415695,-45.361858,94.500488,-0.635567,0.261701,0.672639,-0.274086
1326,6.922432,-6.813665,-0.405213,-0.026917,-0.034509,0.052379,-93.417084,-45.363705,94.501503,-0.635567,0.261692,0.672649,-0.274073
1327,6.925638,-6.820006,-0.405141,-0.014704,-0.042131,0.053877,-93.417473,-45.365234,94.502113,-0.635569,0.261682,0.672654,-0.274065
1328,6.929484,-6.819939,-0.405915,-0.020802,-0.051278,0.046221,-93.418106,-45.366810,94.503159,-0.635569,0.261670,0.672661,-0.274058
1329,6.925929,-6.820258,-0.408510,-0.019275,-0.046699,0.038565,-93.420258,-45.368450,94.505295,-0.635564,0.261660,0.672674,-0.274048
1330,6.925715,-6.817094,-0.405026,-0.022325,-0.048222,0.027861,-93.421959,-45.370064,94.507080,-0.635560,0.261650,0.672685,-0.274039
1331,6.928567,-6.821595,-0.407254,-0.036053,-0.055844,0.021733,-93.423363,-45.372070,94.508568,-0.635559,0.261638,0.672696,-0.274028
1332,6.929218,-6.813398,-0.402078,-0.049776,-0.063461,0.017119,-93.424187,-45.375584,94.509506,-0.635564,0.261617,0.672707,-0.274008
1333,6.931967,-6.815538,-0.399372,-0.048226,-0.069538,0.036908,-93.422180,-45.380638,94.508423,-0.635585,0.261583,0.672710,-0.273985
1334,6.932961,-6.817732,-0.399590,-0.029885,-0.075610,0.038389,-93.418922,-45.384785,94.506836,-0.635608,0.261551,0.672706,-0.273972
1335,6.933906,-6.822160,-0.402697,-0.042071,-0.075585,0.039883,-93.417168,-45.387394,94.506447,-0.635620,0.261528,0.672706,-0.273965
1336,6.929359,-6.815024,-0.401951,-0.045107,-0.072515,0.038328,-93.416916,-45.389462,94.506905,-0.635625,0.261512,0.672711,-0.273957
1337,6.927083,-6.817786,-0.407771,-0.031365,-0.069454,0.036780,-93.418724,-45.390800,94.508888,-0.635620,0.261503,0.672722,-0.273950
1338,6.920835,-6.819514,-0.404989,-0.008474,-0.061821,0.026101,-93.420822,-45.389435,94.511398,-0.635605,0.261508,0.672730,-0.273960
1339,6.924587,-6.818592,-0.399981,-0.013034,-0.063330,0.029160,-93.419052,-45.387619,94.511314,-0.635604,0.261509,0.672722,-0.273980
1340,6.925605,-6.813226,-0.401059,-0.013010,-0.060253,0.036777,-93.415802,-45.388134,94.510086,-0.635616,0.261495,0.672713,-0.273989
1341,6.928746,-6.815837,-0.400153,-0.008412,-0.063281,0.044381,-93.412872,-45.389900,94.509125,-0.635630,0.261474,0.672707,-0.273991
1342,6.927691,-6.817311,-0.391853,-0.008375,-0.058665,0.044360,-93.406174,-45.391117,94.505524,-0.635657,0.261451,0.672685,-0.274004
1343,6.930388,-6.816944,-0.396505,-0.022067,-0.070830,0.042813,-93.398766,-45.392361,94.501343,-0.635688,0.261428,0.672660,-0.274017
1344,6.928164,-6.822853,-0.402920,-0.000684,-0.050972,0.041275,-93.396286,-45.392338,94.500679,-0.635695,0.261418,0.672653,-0.274028
1345,6.922612,-6.823114,-0.408443,0.058825,-0.025034,0.038236,-93.397034,-45.389320,94.502731,-0.635680,0.261427,0.672653,-0.274052
1346,6.924834,-6.828421,-0.407668,0.186992,0.052776,0.026057,-93.394867,-45.384911,94.503731,-0.635670,0.261435,0.672642,-0.274095
1347,6.922128,-6.827689,-0.412057,0.222072,0.066492,0.035245,-93.389893,-45.379902,94.503616,-0.635668,0.261436,0.672620,-0.274152
1348,6.922791,-6.823950,-0.411813,0.205262,0.075620,0.039848,-93.386429,-45.375626,94.504501,-0.635662,0.261436,0.672605,-0.274202
1349,6.920816,-6.817657,-0.405596,0.173201,0.058817,0.035276,-93.381874,-45.373714,94.504128,-0.635668,0.261424,0.672590,-0.274237
1350,6.925215,-6.822525,-0.398033,0.130481,0.029831,0.041376,-93.374008,-45.373009,94.501045,-0.635692,0.261403,0.672563,-0.274270
1351,6.924987,-6.817389,-0.395518,-0.009886,-0.049497,0.052046,-93.367393,-45.373081,94.497925,-0.635714,0.261384,0.672540,-0.274291
1352,6.928683,-6.824188,-0.395797,-0.041909,-0.069312,0.044399,-93.365074,-45.373447,94.496986,-0.635723,0.261374,0.672533,-0.274298
1353,6.928164,-6.824409,-0.392793,-0.025099,-0.076916,0.041338,-93.362625,-45.373154,94.496094,-0.635730,0.261368,0.672524,-0.274309
1354,6.926936,-6.819911,-0.395236,-0.009817,-0.078417,0.048955,-93.359901,-45.373314,94.495506,-0.635738,0.261355,0.672517,-0.274320
1355,6.925334,-6.820034,-0.392011,-0.018947,-0.073814,0.032152,-93.357063,-45.373989,94.494865,-0.635748,0.261339,0.672510,-0.274330
1356,6.926746,-6.823406,-0.395232,-0.023502,-0.069212,0.016883,-93.354523,-45.374378,94.494186,-0.635756,0.261327,0.672503,-0.274339
1357,6.928327,-6.818820,-0.392923,-0.026534,-0.063087,0.018392,-93.352631,-45.375828,94.493774,-0.635766,0.261311,0.672500,-0.274339
1358,6.929895,-6.818217,-0.394222,-0.026514,-0.070694,0.021414,-93.350731,-45.378849,94.493317,-0.635779,0.261285,0.672501,-0.274331
1359,6.933156,-6.820249,-0.393917,-0.028022,-0.073725,0.013749,-93.349602,-45.382401,94.493538,-0.635791,0.261258,0.672505,-0.274318
1360,6.931901,-6.819842,-0.398882,-0.014278,-0.078291,0.022873,-93.350471,-45.385620,94.495407,-0.635793,0.261233,0.672518,-0.274305
1361,6.926790,-6.817935,-0.395363,-0.003590,-0.067601,0.033531,-93.351486,-45.387321,94.497581,-0.635791,0.261216,0.672529,-0.274302
1362,6.923066,-6.825689,-0.395534,0.004054,-0.076743,0.035062,-93.350510,-45.385571,94.498535,-0.635786,0.261215,0.672525,-0.274323
1363,6.921214,-6.829917,-0.395920,0.016275,-0.059946,0.033571,-93.349014,-45.380157,94.499252,-0.635773,0.261234,0.672513,-0.274366
1364,6.923538,-6.838103,-0.391039,0.010194,-0.050771,0.038202,-93.344910,-45.372631,94.497902,-0.635765,0.261262,0.672485,-0.274426
1365,6.925513,-6.835722,-0.388960,-0.008084,-0.044636,0.033675,-93.338181,-45.365528,94.494202,-0.635769,0.261287,0.672447,-0.274485
1366,6.926649,-6.836077,-0.392674,-0.008055,-0.061394,0.029132,-93.333229,-45.360348,94.491692,-0.635773,0.261304,0.672419,-0.274529
1367,6.928552,-6.827999,-0.391211,-0.029396,-0.056795,0.035247,-93.330559,-45.357960,94.490669,-0.635775,0.261309,0.672406,-0.274553
1368,6.929823,-6.827373,-0.388418,-0.053785,-0.056767,0.023028,-93.327385,-45.358585,94.488724,-0.635788,0.261299,0.672395,-0.274557
1369,6.929828,-6.824255,-0.391920,-0.041554,-0.064372,0.039790,-93.325203,-45.360245,94.487411,-0.635801,0.261285,0.672390,-0.274553
1370,6.929873,-6.827281,-0.392033,-0.026279,-0.064354,0.036717,-93.324471,-45.361553,94.487541,-0.635806,0.261273,0.672391,-0.274551
1371,6.931378,-6.829769,-0.385733,-0.024726,-0.064326,0.029074,-93.320892,-45.362122,94.485847,-0.635820,0.261259,0.672380,-0.274559
1372,6.927539,-6.831402,-0.392427,-0.029278,-0.061248,0.029072,-93.317596,-45.361382,94.484291,-0.635829,0.261255,0.672367,-0.274574
1373,6.928130,-6.830925,-0.392297,-0.020109,-0.070391,0.032130,-93.317375,-45.359604,94.485046,-0.635823,0.261259,0.672364,-0.274590
1374,6.926560,-6.827944,-0.394502,-0.030781,-0.062752,0.013820,-93.318352,-45.358685,94.486664,-0.635814,0.261260,0.672369,-0.274598
1375,6.928891,-6.822550,-0.395194,-0.038408,-0.070378,0.013803,-93.321030,-45.360092,94.489281,-0.635805,0.261252,0.672384,-0.274589
1376,6.932671,-6.818467,-0.403812,-0.044526,-0.073440,0.018338,-93.328049,-45.364521,94.494949,-0.635788,0.261232,0.672422,-0.274554
1377,6.934398,-6.817474,-0.399806,-0.023182,-0.078035,0.015227,-93.336517,-45.370773,94.501923,-0.635769,0.261202,0.672471,-0.274508
1378,6.936814,-6.815012,-0.403624,-0.017095,-0.070419,0.016686,-93.343704,-45.378105,94.508278,-0.635757,0.261163,0.672517,-0.274459
1379,6.933124,-6.817983,-0.402479,-0.020165,-0.071960,0.019679,-93.351074,-45.384274,94.514725,-0.635742,0.261131,0.672561,-0.274417
1380,6.926157,-6.815102,-0.404299,-0.011025,-0.068922,0.031852,-93.357849,-45.387295,94.520790,-0.635720,0.261116,0.672597,-0.274394
1381,6.921745,-6.819704,-0.401356,0.010326,-0.061303,0.042526,-93.362694,-45.386787,94.525703,-0.635696,0.261116,0.672619,-0.274395
1382,6.927084,-6.822872,-0.402819,0.002691,-0.068939,0.048635,-93.365898,-45.384449,94.529587,-0.635673,0.261125,0.672631,-0.274411
1383,6.922359,-6.820277,-0.401826,-0.003418,-0.071996,0.056268,-93.369286,-45.382027,94.533577,-0.635649,0.261134,0.672643,-0.274427
1384,6.928373,-6.820521,-0.403042,-0.000369,-0.065895,0.062368,-93.372482,-45.380371,94.537323,-0.635629,0.261139,0.672656,-0.274439
1385,6.935279,-6.825745,-0.403025,-0.012580,-0.067424,0.053194,-93.375778,-45.380486,94.541000,-0.635612,0.261135,0.672673,-0.274439
1386,6.938932,-6.822177,-0.402123,-0.036996,-0.067423,0.045531,-93.378990,-45.382801,94.544212,-0.635604,0.261121,0.672692,-0.274425
1387,6.934883,-6.816774,-0.400883,-0.044623,-0.053683,0.030224,-93.381523,-45.387211,94.546410,-0.635605,0.261097,0.672712,-0.274397
1388,6.934579,-6.825768,-0.404364,-0.036991,-0.055206,0.037821,-93.384422,-45.389744,94.548737,-0.635600,0.261085,0.672729,-0.274379
1389,6.930807,-6.820147,-0.406011,-0.038524,-0.073524,0.034754,-93.389343,-45.390221,94.552780,-0.635580,0.261086,0.672751,-0.274370
1391,6.929180,-6.824018,-0.405791,-0.049212,-0.082686,0.033221,-93.395172,-45.389835,94.557678,-0.635554,0.261091,0.672775,-0.274365
1392,6.925633,-6.825264,-0.408022,-0.050746,-0.088799,0.030179,-93.401657,-45.387348,94.563065,-0.635519,0.261110,0.672798,-0.274371
1393,6.927357,-6.822190,-0.405828,-0.030915,-0.110168,0.034765,-93.407738,-45.384945,94.568710,-0.635486,0.261124,0.672821,-0.274380
1394,6.927553,-6.816787,-0.399570,-0.058373,-0.116260,0.011866,-93.410477,-45.385349,94.572220,-0.635472,0.261117,0.672836,-0.274381
1395,6.926930,-6.823782,-0.399445,-0.084290,-0.116236,0.005754,-93.411079,-45.385983,94.573662,-0.635469,0.261108,0.672842,-0.274382
1396,6.927373,-6.824102,-0.396544,-0.070526,-0.103999,0.016440,-93.410065,-45.384964,94.573654,-0.635468,0.261108,0.672838,-0.274393
1397,6.929812,-6.825002,-0.398547,-0.061338,-0.105493,0.022546,-93.408081,-45.384056,94.573097,-0.635472,0.261106,0.672830,-0.274407
1398,6.930543,-6.824416,-0.399981,-0.081151,-0.090208,0.021017,-93.407623,-45.383724,94.573334,-0.635471,0.261104,0.672829,-0.274413
1399,6.932981,-6.822134,-0.396688,-0.053657,-0.085601,0.030158,-93.406097,-45.384624,94.572670,-0.635479,0.261094,0.672825,-0.274413
1400,6.929471,-6.823454,-0.392892,-0.021574,-0.079457,0.040825,-93.400558,-45.385250,94.569695,-0.635500,0.261077,0.672807,-0.274426
1401,6.928398,-6.823246,-0.393514,-0.018478,-0.087043,0.036244,-93.393440,-45.384556,94.566063,-0.635523,0.261063,0.672780,-0.274451
1402,6.928948,-6.821939,-0.391338,-0.023013,-0.086999,0.037764,-93.386490,-45.384136,94.562599,-0.635546,0.261047,0.672755,-0.274475
1403,6.929580,-6.829286,-0.394805,-0.032129,-0.086959,0.042345,-93.380859,-45.382637,94.559914,-0.635562,0.261040,0.672732,-0.274502
1404,6.925200,-6.829743,-0.398258,-0.045839,-0.083883,0.045418,-93.378883,-45.378613,94.559525,-0.635556,0.261054,0.672719,-0.274534
1405,6.930696,-6.825123,-0.401664,-0.054983,-0.082346,0.031694,-93.380554,-45.376060,94.561401,-0.635541,0.261067,0.672722,-0.274549
1406,6.933197,-6.825415,-0.400171,-0.062605,-0.076234,0.036258,-93.383316,-45.376534,94.563782,-0.635530,0.261066,0.672735,-0.274543
1407,6.926845,-6.822530,-0.403185,-0.050391,-0.076228,0.037770,-93.386391,-45.376747,94.566353,-0.635517,0.261067,0.672749,-0.274539
1408,6.924278,-6.825673,-0.396476,-0.021387,-0.071638,0.048456,-93.386810,-45.374870,94.567474,-0.635509,0.261073,0.672748,-0.274553
1409,6.928082,-6.822234,-0.397620,-0.012207,-0.063984,0.048456,-93.383904,-45.373302,94.566513,-0.635513,0.261072,0.672736,-0.274574
1410,6.927084,-6.821886,-0.395228,-0.024391,-0.062433,0.045391,-93.380577,-45.373356,94.565132,-0.635524,0.261061,0.672725,-0.274585
1411,6.922378,-6.820572,-0.394353,-0.035043,-0.063929,0.042332,-93.376625,-45.372795,94.563034,-0.635537,0.261055,0.672710,-0.274600
1412,6.926641,-6.818732,-0.392472,-0.036537,-0.065422,0.040794,-93.372231,-45.372925,94.560509,-0.635553,0.261044,0.672694,-0.274611
1413,6.925196,-6.810490,-0.391793,-0.047186,-0.077593,0.036182,-93.367851,-45.375896,94.558014,-0.635577,0.261018,0.672683,-0.274606
1414,6.923533,-6.811916,-0.391459,-0.053258,-0.080610,0.031564,-93.364197,-45.379662,94.556038,-0.635601,0.260987,0.672678,-0.274595
1415,6.920838,-6.814771,-0.392947,-0.041020,-0.080579,0.040697,-93.361267,-45.381187,94.554665,-0.635615,0.260971,0.672670,-0.274596
1416,6.922829,-6.811706,-0.392677,-0.019632,-0.077499,0.031522,-93.358574,-45.382339,94.553825,-0.635626,0.260954,0.672664,-0.274601
1417,6.922684,-6.818459,-0.392665,-0.025710,-0.072894,0.029982,-93.355583,-45.383152,94.552872,-0.635637,0.260938,0.672656,-0.274608
1418,6.922046,-6.824005,-0.401341,-0.027225,-0.071358,0.020835,-93.356224,-45.381207,94.554344,-0.635627,0.260944,0.672658,-0.274624
1419,6.921652,-6.828909,-0.402543,-0.018074,-0.065262,0.030019,-93.360611,-45.376812,94.558502,-0.635595,0.260969,0.672669,-0.274646
1420,6.925481,-6.826176,-0.404769,-0.001300,-0.066800,0.037671,-93.365608,-45.372669,94.563332,-0.635561,0.260993,0.672684,-0.274667
1421,6.922175,-6.830193,-0.404338,0.000215,-0.080546,0.046849,-93.370789,-45.368477,94.568672,-0.635525,0.261014,0.672700,-0.274690
1422,6.920474,-6.832294,-0.400628,0.006317,-0.079024,0.045360,-93.373619,-45.362286,94.572556,-0.635492,0.261042,0.672704,-0.274730
1423,6.920064,-6.831351,-0.397987,0.007854,-0.069860,0.045399,-93.373100,-45.356064,94.574043,-0.635473,0.261066,0.672694,-0.274776
1424,6.920592,-6.827607,-0.396660,0.003294,-0.083576,0.045424,-93.371040,-45.351509,94.574432,-0.635464,0.261078,0.672681,-0.274817
1425,6.919745,-6.834383,-0.397865,-0.011947,-0.091188,0.030191,-93.369675,-45.347015,94.575348,-0.635452,0.261091,0.672671,-0.274855
1426,6.921086,-6.833213,-0.400615,-0.021092,-0.080498,0.021067,-93.370377,-45.342274,94.577431,-0.635433,0.261110,0.672668,-0.274889
1427,6.926056,-6.830028,-0.407763,-0.019573,-0.074401,0.021076,-93.375214,-45.340252,94.582169,-0.635405,0.261121,0.672687,-0.274899
1428,6.929435,-6.827025,-0.403852,-0.030265,-0.071361,0.021058,-93.381279,-45.341560,94.587570,-0.635382,0.261115,0.672716,-0.274886
1429,6.932196,-6.827206,-0.403922,-0.053158,-0.071362,0.011868,-93.385780,-45.344959,94.591431,-0.635372,0.261098,0.672742,-0.274861
1430,6.936058,-6.818127,-0.397846,-0.056200,-0.060668,0.013334,-93.387726,-45.351574,94.593040,-0.635381,0.261061,0.672764,-0.274821
1431,6.936471,-6.820572,-0.399159,-0.062287,-0.065224,0.017839,-93.387558,-45.359924,94.592972,-0.635405,0.261013,0.672779,-0.274775
1432,6.934560,-6.819396,-0.392326,-0.057683,-0.074347,0.019302,-93.385223,-45.366898,94.591492,-0.635433,0.260969,0.672784,-0.274741
1433,6.931925,-6.820025,-0.391891,-0.042383,-0.075830,0.022305,-93.379807,-45.372288,94.588188,-0.635468,0.260928,0.672774,-0.274723
1434,6.931972,-6.824670,-0.390554,-0.017927,-0.062054,0.029904,-93.373032,-45.375278,94.584221,-0.635501,0.260896,0.672754,-0.274724
1435,6.927210,-6.825585,-0.391964,-0.002629,-0.058961,0.032946,-93.365814,-45.375553,94.580200,-0.635528,0.260878,0.672728,-0.274743
1436,6.926749,-6.821498,-0.388848,0.003513,-0.049766,0.039044,-93.358086,-45.375134,94.575928,-0.635554,0.260863,0.672699,-0.274767
1437,6.926163,-6.822325,-0.388978,-0.011705,-0.048198,0.049716,-93.349884,-45.374950,94.571091,-0.635584,0.260847,0.672668,-0.274789
1438,6.927701,-6.820667,-0.389194,-0.026928,-0.045108,0.048178,-93.343056,-45.375011,94.566803,-0.635610,0.260834,0.672642,-0.274805
1439,6.927061,-6.824071,-0.391368,-0.034527,-0.055758,0.039011,-93.338463,-45.375050,94.563919,-0.635628,0.260825,0.672625,-0.274816
1440,6.926863,-6.827794,-0.390640,-0.026872,-0.063363,0.043592,-93.335175,-45.373455,94.562187,-0.635635,0.260826,0.672610,-0.274835
1441,6.924233,-6.826922,-0.392015,-0.010063,-0.061814,0.054284,-93.332176,-45.370495,94.561012,-0.635637,0.260833,0.672594,-0.274863
1442,6.921309,-6.828863,-0.395198,0.002158,-0.045016,0.045150,-93.330574,-45.366322,94.560959,-0.635629,0.260848,0.672582,-0.274895
1443,6.919775,-6.836015,-0.398343,0.015895,-0.045015,0.057399,-93.330894,-45.359573,94.562386,-0.635606,0.260880,0.672573,-0.274940
1444,6.916455,-6.829910,-0.398537,0.015892,-0.035864,0.065076,-93.332260,-45.351780,94.564590,-0.635576,0.260920,0.672566,-0.274988
1445,6.914898,-6.829709,-0.398807,0.018941,-0.028240,0.062062,-93.333549,-45.344952,94.566589,-0.635550,0.260954,0.672560,-0.275030
1446,6.920158,-6.832376,-0.395090,0.017417,-0.035869,0.039203,-93.333206,-45.339577,94.567451,-0.635534,0.260978,0.672551,-0.275068
1447,6.920104,-6.827612,-0.396066,0.005218,-0.054173,0.034638,-93.332413,-45.336803,94.568153,-0.635527,0.260985,0.672545,-0.275092
1448,6.920201,-6.815056,-0.398502,-0.005464,-0.054172,0.022410,-93.334229,-45.338280,94.570671,-0.635520,0.260972,0.672558,-0.275087
1449,6.919502,-6.815773,-0.399236,0.002160,-0.066383,0.029999,-93.337868,-45.342205,94.574608,-0.635513,0.260947,0.672584,-0.275065
1450,6.924228,-6.814208,-0.404457,-0.031427,-0.072501,0.036054,-93.344467,-45.346550,94.580536,-0.635496,0.260924,0.672621,-0.275034
1451,6.919981,-6.815247,-0.408268,-0.051294,-0.063373,0.045165,-93.355186,-45.350334,94.588722,-0.635462,0.260913,0.672673,-0.274995
1452,6.922882,-6.815259,-0.401466,-0.042158,-0.055761,0.060386,-93.363632,-45.352856,94.594940,-0.635435,0.260909,0.672713,-0.274966
1453,6.924028,-6.821281,-0.400227,-0.036056,-0.060339,0.061881,-93.367294,-45.354465,94.597885,-0.635424,0.260903,0.672731,-0.274952
1454,6.925528,-6.822032,-0.395257,-0.043675,-0.051170,0.052702,-93.367531,-45.355206,94.598335,-0.635425,0.260898,0.672734,-0.274949
1455,6.923585,-6.820323,-0.395175,-0.039075,-0.052674,0.041999,-93.365417,-45.356331,94.597000,-0.635436,0.260887,0.672728,-0.274947
1456,6.930031,-6.819148,-0.394458,-0.031424,-0.054175,0.048068,-93.362999,-45.358990,94.595627,-0.635452,0.260867,0.672725,-0.274939
1457,6.933628,-6.820582,-0.393064,-0.029872,-0.048045,0.038864,-93.359695,-45.363564,94.593689,-0.635477,0.260834,0.672721,-0.274922
1458,6.931674,-6.816787,-0.394313,-0.039005,-0.052596,0.031180,-93.356789,-45.368896,94.591934,-0.635502,0.260797,0.672720,-0.274899
1459,6.934125,-6.813994,-0.400903,-0.032893,-0.060213,0.028068,-93.357872,-45.375275,94.593117,-0.635514,0.260760,0.672738,-0.274863
1460,6.936084,-6.819757,-0.398083,-0.016107,-0.052578,0.038689,-93.360191,-45.381203,94.595474,-0.635519,0.260725,0.672761,-0.274829
1461,6.933910,-6.817132,-0.399574,-0.016102,-0.058675,0.040167,-93.361374,-45.385616,94.597183,-0.635525,0.260696,0.672776,-0.274806
1462,6.929228,-6.822015,-0.402662,-0.008475,-0.066305,0.038613,-93.364357,-45.387562,94.600410,-0.635516,0.260683,0.672794,-0.274795
1463,6.932780,-6.829730,-0.400290,0.011360,-0.060202,0.044715,-93.366684,-45.386234,94.603523,-0.635499,0.260685,0.672804,-0.274807
1464,6.933506,-6.829951,-0.400518,0.026625,-0.044939,0.037090,-93.366707,-45.384167,94.605171,-0.635489,0.260687,0.672804,-0.274827
1465,6.932026,-6.823887,-0.395135,0.046475,-0.041874,0.026404,-93.363716,-45.383728,94.604881,-0.635496,0.260675,0.672795,-0.274846
1466,6.934754,-6.823706,-0.393278,0.060232,-0.031166,0.012651,-93.357254,-45.385483,94.602371,-0.635521,0.260644,0.672778,-0.274860
1467,6.937745,-6.816943,-0.399626,0.044987,-0.029624,0.011085,-93.353127,-45.390022,94.601372,-0.635545,0.260601,0.672774,-0.274853
1468,6.932176,-6.818468,-0.402736,0.043456,-0.032678,0.015620,-93.353912,-45.394638,94.603683,-0.635551,0.260565,0.672790,-0.274835
1469,6.930975,-6.814153,-0.398429,0.031245,-0.032680,0.032373,-93.354706,-45.397636,94.605873,-0.635552,0.260539,0.672803,-0.274825
1470,6.931869,-6.812893,-0.403598,0.000720,-0.040314,0.035386,-93.356728,-45.401016,94.608498,-0.635550,0.260516,0.672821,-0.274809
1471,6.925550,-6.813029,-0.405881,-0.014557,-0.043383,0.036883,-93.362709,-45.403015,94.613510,-0.635530,0.260508,0.672850,-0.274790
1472,6.928371,-6.814335,-0.400645,-0.002361,-0.038815,0.042970,-93.367027,-45.403625,94.617294,-0.635513,0.260506,0.672870,-0.274782
1473,6.933262,-6.815733,-0.397540,0.003748,-0.037282,0.049048,-93.366859,-45.405045,94.618011,-0.635515,0.260493,0.672874,-0.274779
1474,6.931064,-6.820090,-0.398776,-0.002345,-0.049478,0.039874,-93.365746,-45.405785,94.618202,-0.635520,0.260482,0.672873,-0.274783
1475,6.929295,-6.824992,-0.395905,0.005299,-0.047939,0.045984,-93.363937,-45.403713,94.618019,-0.635518,0.260485,0.672865,-0.274804
1476,6.932696,-6.821076,-0.394526,0.016000,-0.044867,0.047514,-93.360077,-45.401768,94.616554,-0.635525,0.260483,0.672848,-0.274830
1477,6.923730,-6.825995,-0.391304,0.009923,-0.050944,0.035319,-93.354538,-45.398895,94.613976,-0.635536,0.260484,0.672824,-0.274864
1478,6.924660,-6.822381,-0.392861,-0.022092,-0.053968,0.032295,-93.349541,-45.394596,94.611450,-0.635542,0.260495,0.672798,-0.274904
1479,6.927512,-6.828038,-0.393882,-0.020545,-0.047843,0.038419,-93.346550,-45.390923,94.609955,-0.635542,0.260509,0.672780,-0.274934
1480,6.929822,-6.823328,-0.392404,-0.015946,-0.050874,0.044534,-93.343582,-45.388329,94.608505,-0.635545,0.260516,0.672764,-0.274958
1481,6.930181,-6.826210,-0.389499,-0.029652,-0.060002,0.041482,-93.339493,-45.386978,94.606285,-0.635556,0.260514,0.672747,-0.274977
1482,6.934421,-6.822917,-0.395937,-0.031158,-0.055403,0.047575,-93.337547,-45.386757,94.605476,-0.635562,0.260509,0.672740,-0.274985
1483,6.933297,-6.827829,-0.396308,-0.014366,-0.046240,0.047562,-93.338226,-45.386749,94.606544,-0.635558,0.260506,0.672744,-0.274987
1484,6.932913,-6.823025,-0.390902,-0.012825,-0.052328,0.035343,-93.336517,-45.386681,94.606094,-0.635563,0.260500,0.672739,-0.274995
1485,6.930188,-6.828816,-0.395880,-0.020438,-0.049259,0.024658,-93.334831,-45.386162,94.605652,-0.635566,0.260496,0.672733,-0.275006
1486,6.932889,-6.831572,-0.397633,-0.018908,-0.047729,0.030772,-93.335968,-45.383877,94.607079,-0.635554,0.260507,0.672734,-0.275020
1488,6.935547,-6.834652,-0.396011,-0.005170,-0.050777,0.033835,-93.336784,-45.381458,94.608490,-0.635542,0.260517,0.672735,-0.275037
1489,6.934897,-6.826026,-0.392547,-0.020416,-0.049237,0.020097,-93.335579,-45.381088,94.608459,-0.635544,0.260513,0.672731,-0.275046
1490,6.932475,-6.827738,-0.397649,-0.031087,-0.049227,0.030767,-93.335640,-45.381699,94.609009,-0.635544,0.260506,0.672734,-0.275045
1491,6.932044,-6.826207,-0.394045,-0.034132,-0.053796,0.026182,-93.336693,-45.381546,94.610146,-0.635539,0.260506,0.672738,-0.275046
1492,6.924261,-6.823469,-0.397446,-0.038702,-0.050738,0.032286,-93.337875,-45.380543,94.611305,-0.635530,0.260512,0.672742,-0.275051
1493,6.919662,-6.816599,-0.401280,-0.064649,-0.050744,0.036866,-93.342621,-45.378777,94.614594,-0.635507,0.260529,0.672757,-0.275051
1494,6.921546,-6.820421,-0.403528,-0.044827,-0.053810,0.046024,-93.349854,-45.376926,94.619614,-0.635473,0.260550,0.672782,-0.275047
1495,6.920478,-6.821719,-0.403062,-0.025006,-0.062983,0.038403,-93.356644,-45.374290,94.624916,-0.635438,0.260572,0.672806,-0.275052
1496,6.922903,-6.821918,-0.404825,-0.014339,-0.056894,0.052143,-93.362793,-45.371735,94.630173,-0.635404,0.260590,0.672827,-0.275059
1497,6.927875,-6.824974,-0.405813,-0.009777,-0.061488,0.036882,-93.369064,-45.370277,94.635666,-0.635373,0.260601,0.672852,-0.275061
1498,6.928062,-6.826908,-0.400141,-0.008257,-0.064545,0.032300,-93.372681,-45.369411,94.639450,-0.635353,0.260603,0.672868,-0.275066
1499,6.927001,-6.825142,-0.394620,-0.012818,-0.069107,0.020090,-93.371315,-45.368866,94.639755,-0.635354,0.260597,0.672864,-0.275079
1500,6.929909,-6.828686,-0.393234,-0.009737,-0.052292,0.023139,-93.366737,-45.368649,94.637627,-0.635369,0.260586,0.672848,-0.275095
1501,6.926274,-6.824921,-0.394273,-0.012761,-0.050737,0.026188,-93.362007,-45.368298,94.635162,-0.635385,0.260576,0.672830,-0.275111
1502,6.928112,-6.823459,-0.390024,0.004055,-0.049179,0.032282,-93.356239,-45.368576,94.632088,-0.635406,0.260560,0.672810,-0.275126
1503,6.931056,-6.820257,-0.389496,0.005618,-0.049140,0.021575,-93.348763,-45.370953,94.627983,-0.635439,0.260529,0.672787,-0.275134
1504,6.931795,-6.821293,-0.389842,-0.017236,-0.053682,0.027644,-93.342369,-45.374485,94.624466,-0.635472,0.260494,0.672771,-0.275132
1505,6.932333,-6.812816,-0.394069,-0.038577,-0.053656,0.032174,-93.339561,-45.379318,94.623016,-0.635495,0.260460,0.672770,-0.275113
1506,6.935051,-6.811589,-0.392455,-0.040088,-0.055163,0.029054,-93.338959,-45.386379,94.622887,-0.635516,0.260417,0.672782,-0.275076
1507,6.930277,-6.812383,-0.393143,-0.050753,-0.055143,0.036624,-93.338371,-45.392448,94.622627,-0.635535,0.260380,0.672792,-0.275044
1508,6.927104,-6.817097,-0.392949,-0.041582,-0.042918,0.045749,-93.337708,-45.394791,94.622162,-0.635544,0.260366,0.672794,-0.275031
1509,6.926879,-6.823180,-0.396435,-0.035467,-0.029173,0.050324,-93.337517,-45.393509,94.621887,-0.635541,0.260374,0.672790,-0.275038
1510,6.926072,-6.831185,-0.390647,-0.041555,-0.024581,0.044245,-93.335770,-45.389080,94.620285,-0.635537,0.260399,0.672774,-0.275065
1511,6.926774,-6.833188,-0.395933,-0.049168,-0.023039,0.045810,-93.333786,-45.382915,94.618294,-0.635529,0.260435,0.672753,-0.275100
1512,6.928491,-6.834794,-0.397103,-0.050688,-0.013881,0.042795,-93.334572,-45.376976,94.618034,-0.635512,0.260475,0.672742,-0.275128
1513,6.930534,-6.834989,-0.397306,-0.053736,-0.009301,0.035194,-93.335800,-45.372223,94.617897,-0.635496,0.260509,0.672736,-0.275147
1514,6.932812,-6.828298,-0.395472,-0.039997,-0.018451,0.044356,-93.336311,-45.370232,94.617416,-0.635491,0.260526,0.672732,-0.275153
1515,6.934121,-6.826073,-0.397020,-0.009472,-0.030651,0.051966,-93.336433,-45.370895,94.617424,-0.635493,0.260523,0.672734,-0.275148
1516,6.928228,-6.832530,-0.389158,0.014961,-0.047419,0.053488,-93.333344,-45.369694,94.616135,-0.635499,0.260521,0.672721,-0.275166
1517,6.927097,-6.828249,-0.389791,0.010411,-0.058071,0.041292,-93.327469,-45.366848,94.613426,-0.635511,0.260520,0.672695,-0.275202
1518,6.927431,-6.826034,-0.390151,0.010437,-0.067202,0.048921,-93.323029,-45.365444,94.611900,-0.635521,0.260512,0.672678,-0.275227
1519,6.923116,-6.828311,-0.387935,0.018092,-0.064123,0.033667,-93.318298,-45.363560,94.610367,-0.635531,0.260506,0.672660,-0.275257
1520,6.921816,-6.829847,-0.387714,-0.012397,-0.067147,0.032160,-93.313316,-45.360188,94.608376,-0.635538,0.260509,0.672637,-0.275294
1521,6.926743,-6.820686,-0.389212,-0.041365,-0.056441,0.027581,-93.310410,-45.359516,94.607071,-0.635545,0.260505,0.672625,-0.275308
1522,6.928718,-6.829576,-0.384336,-0.036759,-0.059463,0.032142,-93.306763,-45.360580,94.604866,-0.635562,0.260491,0.672614,-0.275311
1523,6.928232,-6.837270,-0.384689,-0.053508,-0.064005,0.030627,-93.301476,-45.358456,94.601433,-0.635576,0.260494,0.672589,-0.275335
