seq,ax,ay,az,wroll,wpitch,wyaw,roll,pitch,yaw,q0,q1,q2,q3
61,-0.116691,-1.932035,9.720602,-2.314100,2.031115,-1.017442,-11.241419,0.674578,-0.134074,0.995175,-0.097934,0.005973,-0.000588
62,-0.105364,-1.989696,9.565307,13.019687,12.460629,-38.522915,-11.071818,0.784030,-0.827406,0.995292,-0.096416,0.007506,-0.006527
63,-0.309290,-1.800108,9.725891,15.070673,14.247644,-39.871365,-10.624501,0.975566,-2.194338,0.995501,-0.092401,0.010248,-0.018277
64,-0.444758,-1.612274,10.118002,20.991474,13.486487,-39.535568,-10.049874,1.192934,-3.579258,0.995645,-0.087218,0.013100,-0.030197
65,-0.724622,-1.559147,10.582036,23.252966,13.118200,-34.883957,-9.342108,1.421696,-4.876489,0.995743,-0.080829,0.015818,-0.041389
66,-0.855216,-1.418848,10.598138,22.199097,12.174664,-28.043930,-8.614569,1.674825,-5.978398,0.995770,-0.074235,0.018470,-0.050899
67,-0.791670,-1.353313,10.761696,16.329636,10.211399,-22.822252,-8.000661,1.921786,-6.871514,0.995701,-0.068624,0.020879,-0.058607
68,-0.738335,-1.432978,10.740074,12.188681,8.363751,-18.474142,-7.551049,2.135260,-7.595782,0.995547,-0.064460,0.022912,-0.064858
69,-0.711840,-1.430583,10.524127,7.483507,6.802460,-14.259871,-7.245490,2.315608,-8.169778,0.995354,-0.061577,0.024615,-0.069804
70,-0.627730,-1.312937,10.186888,2.612190,5.545622,-11.844070,-7.096344,2.465394,-8.627553,0.995125,-0.060083,0.026065,-0.073729
71,-0.680348,-1.293101,9.782445,-2.458991,4.451599,-10.175431,-7.110758,2.585220,-9.012741,0.994847,-0.060037,0.027317,-0.077004
72,-0.755642,-1.338343,9.607059,-6.753611,1.973361,-7.800814,-7.278507,2.653795,-9.323763,0.994535,-0.061369,0.028191,-0.079625
73,-0.705413,-1.176292,9.102567,-7.958336,-0.430630,-7.532372,-7.535553,2.646220,-9.580814,0.994215,-0.063542,0.028446,-0.081796
74,-0.471030,-1.324735,8.917013,-12.881484,-3.910154,-6.009053,-7.892537,2.544203,-9.795011,0.993872,-0.066662,0.027941,-0.083628
75,-0.090987,-1.526239,8.903411,-11.664310,-8.669360,-2.705622,-8.306413,2.316049,-9.909412,0.993571,-0.070397,0.026335,-0.084666
76,0.231222,-1.516809,9.125296,-5.068947,-12.734365,-1.205969,-8.585649,1.953512,-9.921654,0.993425,-0.073093,0.023407,-0.084948
77,0.289270,-1.404640,9.129823,1.902622,-13.806211,-1.362782,-8.637648,1.509716,-9.897990,0.993442,-0.073886,0.019584,-0.085028
78,0.250578,-1.479230,9.424767,3.654627,-14.738274,0.570544,-8.543745,1.037336,-9.840199,0.993564,-0.073437,0.015382,-0.084853
79,0.079044,-1.374638,9.523958,6.058186,-14.592746,2.706147,-8.380041,0.561859,-9.714292,0.993764,-0.072387,0.011059,-0.084087
80,-0.050541,-1.317621,9.611731,3.880881,-13.875381,4.749301,-8.213195,0.110299,-9.522960,0.993996,-0.071285,0.006901,-0.082726
81,-0.048328,-1.279517,9.646266,-1.273182,-13.331987,9.916045,-8.170174,-0.303642,-9.216367,0.994216,-0.071220,0.003089,-0.080325
82,0.131828,-1.289215,9.563278,-6.082278,-13.947988,17.476088,-8.297058,-0.688103,-8.699267,0.994456,-0.072587,-0.000485,-0.076076
83,0.310110,-1.470027,9.700450,-9.682237,-13.485396,24.692051,-8.571044,-1.037174,-7.936816,0.994726,-0.075169,-0.003833,-0.069685
84,0.432547,-1.554067,9.747574,-11.033294,-12.612530,30.362453,-8.936107,-1.327350,-6.963484,0.994999,-0.078456,-0.006796,-0.061443
85,0.345853,-1.565529,9.692645,-14.311449,-11.894367,36.002895,-9.387355,-1.554496,-5.806160,0.995220,-0.082401,-0.009358,-0.051581
86,0.162453,-1.623680,9.801761,-17.968809,-12.121788,41.291393,-9.963444,-1.732432,-4.468521,0.995300,-0.087349,-0.011664,-0.040145
87,-0.097008,-1.939502,9.969626,-21.045002,-12.446645,46.317085,-10.660983,-1.873736,-2.958145,0.995171,-0.093277,-0.013877,-0.027215
88,-0.120451,-2.024655,9.752857,-22.502739,-13.820812,48.995705,-11.442075,-1.998772,-1.314550,0.994782,-0.099862,-0.016210,-0.013151
89,-0.088902,-2.211907,9.632400,-24.343246,-15.211761,50.796848,-12.285007,-2.130338,0.413203,0.994088,-0.106916,-0.018869,0.001595
90,0.018012,-2.377252,9.492533,-22.797066,-14.993112,50.135632,-13.137600,-2.251123,2.165648,0.993109,-0.113985,-0.021672,0.016523
91,0.127648,-2.576341,9.312304,-23.254282,-13.345797,46.526093,-13.972047,-2.332834,3.843323,0.991895,-0.120856,-0.024272,0.030803
92,0.372529,-2.560997,9.221636,-23.132315,-11.457896,40.759670,-14.807017,-2.371451,5.356081,0.990493,-0.127729,-0.026518,0.043661
93,0.415154,-2.595179,9.344919,-23.295662,-8.906926,34.681561,-15.634548,-2.368525,6.659270,0.988986,-0.134566,-0.028339,0.054722
94,0.211519,-2.578586,9.564959,-22.417383,-5.648958,27.046019,-16.439434,-2.317093,7.715780,0.987477,-0.141270,-0.029583,0.063693
95,-0.058215,-2.613634,9.567256,-20.577583,-2.589212,20.333763,-17.187346,-2.219732,8.511974,0.986076,-0.147565,-0.030187,0.070479
96,-0.292026,-2.532925,9.396172,-17.309336,0.738716,14.128036,-17.839537,-2.076037,9.069399,0.984874,-0.153126,-0.030098,0.075294
97,-0.540967,-2.631063,9.406825,-14.993065,4.855550,7.366677,-18.388510,-1.875861,9.381159,0.983928,-0.157904,-0.029169,0.078106
98,-0.800140,-2.825948,9.424027,-9.310846,9.623022,0.267989,-18.794741,-1.606334,9.424947,0.983336,-0.161577,-0.027196,0.078764
99,-0.798880,-2.868787,9.317625,-5.953290,14.138618,-6.210772,-19.043413,-1.263595,9.202958,0.983131,-0.164006,-0.024110,0.077296
100,-0.866812,-3.143507,9.497546,-6.862918,19.218660,-12.873255,-19.247986,-0.842521,8.720201,0.983140,-0.166142,-0.019937,0.073727
101,-0.867412,-3.411859,9.485869,-6.057154,21.983967,-18.286259,-19.455589,-0.366622,8.002671,0.983252,-0.168335,-0.014936,0.068237
102,-0.770953,-3.383665,9.323791,-7.429063,22.069942,-20.805317,-19.678238,0.107117,7.142974,0.983368,-0.170608,-0.009726,0.061537
103,-0.607209,-3.252044,8.952777,-13.109674,19.998152,-20.894796,-20.025362,0.530495,6.251183,0.983250,-0.173854,-0.004928,0.054497
104,-0.454170,-3.463772,8.895555,-18.693476,15.686309,-19.487595,-20.565395,0.854450,5.413434,0.982751,-0.178647,-0.001101,0.047793
105,-0.082767,-3.351045,8.703082,-20.626366,9.045723,-18.829346,-21.232641,1.011258,4.669499,0.981963,-0.184425,0.001162,0.041663
106,0.074406,-3.437239,8.831216,-23.958241,4.637353,-17.902321,-21.986837,0.997568,4.016003,0.980951,-0.190871,0.001859,0.036054
107,0.161916,-3.747948,8.981505,-22.723272,0.697702,-16.419641,-22.773760,0.861698,3.452983,0.979799,-0.197560,0.001420,0.031018
108,0.235825,-3.789783,9.377228,-15.993340,-3.142425,-15.087850,-23.424875,0.618100,2.985759,0.978804,-0.203066,-0.000009,0.026604
109,0.288979,-3.820977,9.567213,-5.757079,-6.390274,-12.708174,-23.790066,0.287105,2.624634,0.978255,-0.206121,-0.002270,0.022927
110,0.174914,-3.789356,9.608330,2.094968,-9.247356,-7.930721,-23.851324,-0.090062,2.414921,0.978202,-0.206580,-0.005123,0.020455
111,0.269164,-3.877106,9.583613,6.092472,-12.884799,-1.895852,-23.714695,-0.493553,2.413590,0.978455,-0.205339,-0.008542,0.019727
112,0.417610,-3.871251,9.497965,8.524255,-15.879139,3.206809,-23.473501,-0.924053,2.625399,0.978841,-0.203174,-0.012553,0.020789
113,0.348287,-3.835298,9.097399,3.825246,-17.789579,7.846649,-23.275333,-1.365979,3.017136,0.979097,-0.201330,-0.016981,0.023380
114,0.307289,-4.027235,8.582196,-5.380630,-17.798290,11.749177,-23.315783,-1.781374,3.552009,0.978880,-0.201474,-0.021479,0.027210
115,0.310420,-4.270913,8.391102,-11.604820,-15.626636,13.353094,-23.619366,-2.125406,4.158228,0.978158,-0.203833,-0.025566,0.031712
116,0.326790,-4.239364,8.448443,-12.138482,-12.278726,12.287803,-24.037706,-2.377927,4.737670,0.977212,-0.207172,-0.028883,0.036100
117,0.357271,-4.288500,8.512615,-12.638197,-7.421195,9.293365,-24.470407,-2.529428,5.200970,0.976254,-0.210677,-0.031161,0.039657
118,0.294230,-4.664191,8.821316,-9.491765,-0.195048,5.778304,-24.851627,-2.539816,5.482584,0.975446,-0.213841,-0.031907,0.041931
119,0.186211,-4.432672,9.075727,-2.745277,6.203011,1.311773,-25.058277,-2.399075,5.547667,0.975048,-0.215645,-0.030908,0.042695
120,0.138562,-4.204786,9.243276,3.372481,10.353106,-1.762367,-25.042828,-2.152208,5.424057,0.975142,-0.215656,-0.028570,0.042115
121,-0.077267,-4.058708,9.219738,9.043469,14.103649,-3.685517,-24.827026,-1.820822,5.169836,0.975659,-0.214020,-0.025195,0.040628
122,-0.448945,-3.783865,9.246696,14.903660,16.910126,-4.415267,-24.418360,-1.407134,4.831713,0.976549,-0.210772,-0.020905,0.038601
123,-0.427179,-3.454525,9.149440,19.484762,16.124355,-4.073170,-23.837914,-0.962423,4.477591,0.977727,-0.206042,-0.016279,0.036488
124,-0.386761,-3.443592,9.222328,19.768068,14.333803,-3.601188,-23.179525,-0.547824,4.157977,0.978990,-0.200598,-0.011968,0.034577
125,-0.345642,-3.410851,9.231915,17.767921,12.880032,-2.900604,-22.552225,-0.171972,3.881977,0.980142,-0.195375,-0.008094,0.032923
126,-0.393031,-3.372772,9.332911,13.160678,11.135253,-1.747578,-22.036772,0.168971,3.658459,0.981056,-0.191073,-0.004654,0.031614
127,-0.261927,-3.205150,9.278023,10.565281,8.679589,-0.224434,-21.642221,0.463271,3.505030,0.981728,-0.187775,-0.001773,0.030797
128,-0.126960,-3.236566,9.293318,4.412845,5.944522,0.871949,-21.393423,0.694011,3.425662,0.982133,-0.185702,0.000401,0.030494
129,-0.011326,-3.243825,9.337971,-0.870767,4.085497,1.179587,-21.334806,0.862148,3.396540,0.982218,-0.185240,0.001905,0.030515
130,0.156041,-3.283720,9.265546,-3.041097,2.301587,-0.875739,-21.400557,0.963120,3.362408,0.982108,-0.185827,0.002808,0.030387
131,0.537900,-3.367708,9.158072,-4.283505,-1.936214,-2.324417,-21.523485,0.949273,3.310508,0.981924,-0.186876,0.002741,0.029923
132,0.709062,-3.670981,9.327937,-7.842081,-5.441477,-3.961799,-21.726355,0.796349,3.258383,0.981622,-0.188578,0.001464,0.029230
133,0.620962,-3.511979,9.474668,-4.552075,-7.135378,-6.193014,-21.933836,0.538822,3.179197,0.981324,-0.190295,-0.000663,0.028127
134,0.648173,-3.482515,9.351215,-0.566696,-9.046329,-6.266574,-22.019758,0.211055,3.087456,0.981227,-0.190957,-0.003338,0.026796
135,0.485186,-3.643416,9.219937,-1.198524,-10.455426,-3.994854,-22.049171,-0.154370,3.050758,0.981203,-0.191127,-0.006412,0.025871
136,-0.028603,-3.552150,9.043265,-1.145150,-8.961605,-0.658203,-22.088438,-0.483418,3.100494,0.981134,-0.191383,-0.009321,0.025744
137,-0.238606,-3.570842,8.753667,-1.382719,-7.086738,4.278736,-22.132126,-0.708514,3.257087,0.981025,-0.191687,-0.011520,0.026704
138,-0.186762,-3.911458,8.648396,-4.727331,-6.136842,8.613698,-22.237646,-0.831464,3.539312,0.980779,-0.192527,-0.013071,0.028902
139,-0.173253,-4.037521,8.675446,-6.438020,-5.234571,11.001369,-22.429251,-0.882501,3.913811,0.980356,-0.194108,-0.014191,0.031998
140,-0.017980,-4.140742,8.938910,-6.293105,-3.779034,11.433326,-22.647575,-0.877911,4.316818,0.979866,-0.195925,-0.014902,0.035425
141,0.219481,-4.264007,9.055090,-4.308892,-2.082652,9.205898,-22.829535,-0.835055,4.671888,0.979438,-0.197449,-0.015203,0.038510
142,0.326717,-4.203392,9.194026,-1.938947,-0.174218,5.379481,-22.936991,-0.775199,4.910509,0.979170,-0.198358,-0.015141,0.040639
143,0.259540,-4.061953,9.148976,0.279789,1.399699,2.505961,-22.966080,-0.705151,5.023586,0.979077,-0.198619,-0.014749,0.041723
144,0.017665,-3.981544,9.125602,2.875839,3.937599,0.577135,-22.913616,-0.603215,5.036249,0.979161,-0.198208,-0.013881,0.042015
145,-0.272225,-3.543524,8.994601,6.337616,6.487885,-0.802140,-22.759386,-0.444545,4.965367,0.979447,-0.196958,-0.012346,0.041701
147,-0.221393,-3.647693,8.953952,5.393292,5.165297,-0.501642,-22.563259,-0.273700,4.870503,0.979809,-0.195355,-0.010653,0.041202
148,-0.338115,-3.628303,9.068435,5.152325,4.195857,-0.308680,-22.387245,-0.134690,4.798385,0.980126,-0.193907,-0.009278,0.040837
149,-0.290425,-3.591839,9.144167,4.294010,2.433501,-0.213073,-22.229736,-0.035766,4.748407,0.980403,-0.192598,-0.008292,0.040589
150,0.002637,-3.645086,9.319397,1.924963,-0.530459,-0.650481,-22.126078,-0.011823,4.723119,0.980584,-0.191722,-0.008008,0.040420
151,0.247258,-3.829867,9.405846,-0.106840,-3.458339,-1.219618,-22.095768,-0.085145,4.719283,0.980641,-0.191437,-0.008618,0.040267
152,0.274780,-3.601668,9.427263,0.628154,-4.109336,-2.795679,-22.087034,-0.227181,4.704727,0.980669,-0.191313,-0.009807,0.039905
153,0.473946,-3.561336,9.340165,-0.431144,-5.433836,-3.175601,-22.083582,-0.411981,4.672303,0.980694,-0.191221,-0.011333,0.039319
154,0.372657,-3.735320,9.250284,-1.309798,-5.077459,-4.541829,-22.112110,-0.622689,4.619043,0.980670,-0.191396,-0.013057,0.038508
155,0.018818,-3.499849,9.019783,-0.516700,-2.697652,-5.549932,-22.141237,-0.806083,4.512048,0.980659,-0.191593,-0.014457,0.037282
156,-0.234461,-3.462129,8.980757,-2.153234,-0.185729,-4.341058,-22.183754,-0.912765,4.377485,0.980631,-0.191938,-0.015158,0.035946
157,-0.373328,-3.572693,9.078632,-3.388636,0.835756,-1.849854,-22.274534,-0.941788,4.277882,0.980510,-0.192718,-0.015267,0.035032
158,-0.385238,-3.647859,9.063409,-1.224942,2.199313,-0.344694,-22.350582,-0.908899,4.224849,0.980398,-0.193387,-0.014920,0.034624
159,-0.352606,-3.552351,9.119088,0.332950,3.153142,1.657984,-22.365252,-0.818068,4.211172,0.980378,-0.193544,-0.014124,0.034659
160,-0.169150,-3.693891,9.232404,1.285572,2.386694,2.613148,-22.338697,-0.705603,4.241910,0.980412,-0.193350,-0.013206,0.035116
161,-0.064594,-3.637073,9.216093,3.900677,1.534495,3.579855,-22.253082,-0.605977,4.312629,0.980533,-0.192642,-0.012446,0.035898
162,0.044435,-3.563314,9.180061,5.176420,2.270312,3.515442,-22.102633,-0.502622,4.398222,0.980756,-0.191380,-0.011657,0.036820
163,-0.169737,-3.517472,9.079667,5.299021,3.949921,4.669845,-21.928696,-0.355384,4.485839,0.981012,-0.189932,-0.010486,0.037832
164,-0.215432,-3.319172,9.018365,6.197344,4.631240,6.921116,-21.737638,-0.150774,4.611952,0.981275,-0.188356,-0.008878,0.039266
165,-0.183219,-3.245207,8.971902,4.235318,3.038300,11.130044,-21.563919,0.079048,4.844409,0.981463,-0.186933,-0.007229,0.041646
166,-0.239653,-3.145146,9.040054,2.916965,0.964457,14.659887,-21.443550,0.298765,5.219831,0.981498,-0.185963,-0.005912,0.045225
167,-0.269616,-2.975631,9.014171,2.869845,-1.155130,17.796246,-21.343704,0.493193,5.724641,0.981429,-0.185162,-0.005023,0.049868
168,-0.153350,-2.760778,9.234130,1.411574,-3.090121,18.735653,-21.266525,0.648521,6.317622,0.981262,-0.184545,-0.004614,0.055199
169,0.036742,-2.370918,9.211002,3.444327,-4.056479,14.906256,-21.178814,0.740526,6.883424,0.981105,-0.183816,-0.004691,0.060195
170,0.154275,-2.353571,9.223699,4.965600,-3.841377,9.047876,-21.033216,0.761385,7.303330,0.981107,-0.182562,-0.005105,0.063829
171,0.357988,-2.388810,9.016839,5.952315,-3.275405,2.538080,-20.848425,0.719518,7.526105,0.981281,-0.180946,-0.005713,0.065680
172,0.389956,-2.384832,9.015602,6.448187,-1.523547,-4.564388,-20.641836,0.632660,7.522873,0.981621,-0.179129,-0.006333,0.065527
173,0.290364,-2.471408,8.921812,7.813794,-0.967735,-6.125213,-20.405735,0.531203,7.370584,0.982088,-0.177059,-0.006832,0.064078
174,0.232439,-3.135035,9.164518,4.121634,-2.858095,-2.490804,-20.207756,0.421554,7.258023,0.982470,-0.175310,-0.007490,0.062958
175,0.366770,-3.273127,9.272717,2.840446,-4.138982,-1.803267,-20.091854,0.287449,7.231044,0.982678,-0.174246,-0.008535,0.062531
176,0.158819,-3.445654,9.589160,1.781450,-3.042186,0.357629,-20.014738,0.166764,7.249472,0.982798,-0.173518,-0.009556,0.062512
177,0.299037,-3.916174,9.945512,0.546587,-3.668183,4.190075,-19.975677,0.087595,7.358940,0.982806,-0.173130,-0.010379,0.063334
178,0.561835,-4.116836,9.940145,0.482512,-2.895447,0.882989,-19.958395,0.013670,7.475769,0.982774,-0.172930,-0.011180,0.064226
179,0.399695,-4.155776,9.839204,0.160745,-0.510578,-3.563036,-19.947687,-0.054936,7.453155,0.982810,-0.172802,-0.011728,0.063930
180,0.048234,-4.297346,9.810142,-0.873816,1.460375,-4.343832,-19.959442,-0.085032,7.323884,0.982866,-0.172899,-0.011798,0.062775
181,0.079311,-4.290539,9.630539,-1.116141,1.766067,-5.109762,-19.992374,-0.088328,7.157438,0.982907,-0.173197,-0.011593,0.061339
182,-0.070395,-4.169508,9.149146,-2.038948,1.979357,-7.345637,-20.044601,-0.100740,6.941020,0.982943,-0.173660,-0.011399,0.059458
183,-0.277424,-4.205760,8.853255,-3.076799,2.007236,-5.952110,-20.129425,-0.114462,6.710052,0.982933,-0.174403,-0.011209,0.057448
184,-0.284613,-4.111178,8.783495,-3.717992,1.504776,-4.544736,-20.242302,-0.119918,6.525658,0.982853,-0.175387,-0.011030,0.055847
185,-0.246164,-3.982655,8.699059,-4.200738,0.517337,-3.297309,-20.373987,-0.133694,6.391385,0.982716,-0.176522,-0.011006,0.054662
186,-0.158652,-4.033353,8.783913,-6.010959,-0.255875,-1.731108,-20.543972,-0.158924,6.311337,0.982493,-0.177975,-0.011179,0.053920
187,-0.167156,-3.948955,8.928886,-5.639504,-0.855617,0.071044,-20.738083,-0.186044,6.291977,0.982201,-0.179629,-0.011472,0.053692
188,-0.125802,-3.939022,9.175077,-6.899920,-2.034225,-0.190850,-20.947124,-0.231793,6.307248,0.981868,-0.181397,-0.011986,0.053729
189,0.095317,-3.950657,8.866051,-6.669423,-2.708358,-1.604007,-21.173281,-0.316307,6.307722,0.981514,-0.183294,-0.012817,0.053574
190,0.143579,-4.062462,9.058665,-8.417521,-2.398637,-1.938331,-21.424583,-0.417037,6.283613,0.981127,-0.185401,-0.013758,0.053176
191,0.095004,-4.068400,9.057919,-6.495284,-0.917251,-3.026377,-21.672680,-0.498825,6.226963,0.980754,-0.187493,-0.014480,0.052528
192,0.137598,-4.083735,9.062101,-4.404842,0.459027,-5.653786,-21.853142,-0.559520,6.095438,0.980520,-0.189026,-0.014865,0.051279
193,0.101265,-4.017664,9.107321,-0.540435,1.780973,-5.449982,-21.933712,-0.593827,5.909788,0.980470,-0.189723,-0.014887,0.049623
194,-0.042923,-4.068365,9.344622,2.847868,2.460302,-3.205987,-21.893627,-0.582033,5.749553,0.980604,-0.189406,-0.014504,0.048277
195,-0.100021,-3.931197,9.175165,7.865115,3.148404,-1.617403,-21.714041,-0.525057,5.640188,0.980943,-0.187907,-0.013762,0.047457
196,-0.139625,-3.803048,9.134865,8.704113,2.889610,-0.667884,-21.437292,-0.445426,5.567766,0.981421,-0.185580,-0.012848,0.046999
197,-0.182924,-3.770047,9.146052,9.709130,2.457180,2.704831,-21.130407,-0.350044,5.567055,0.981910,-0.182991,-0.011904,0.047180
198,-0.209740,-3.518711,9.061351,11.566364,2.218988,4.395090,-20.776262,-0.234873,5.649681,0.982430,-0.179997,-0.010900,0.048106
199,-0.144251,-3.356349,9.168444,10.579628,1.537215,6.273780,-20.407618,-0.113700,5.794121,0.982934,-0.176874,-0.009929,0.049567
200,-0.077172,-3.343200,9.218554,9.220525,0.850064,7.604519,-20.077833,0.003724,5.997362,0.983341,-0.174080,-0.009087,0.051518
201,0.011293,-3.301697,9.253802,7.992797,0.162530,8.451437,-19.790714,0.110879,6.243163,0.983652,-0.171646,-0.008406,0.053811
202,0.034753,-3.142303,9.215416,5.837882,0.014140,8.570056,-19.559479,0.209209,6.509296,0.983859,-0.169689,-0.007847,0.056258
203,0.112166,-3.398993,9.159698,0.609585,-0.432084,8.615237,-19.450819,0.298321,6.781593,0.983874,-0.168782,-0.007430,0.058735
204,0.054117,-3.366620,9.120732,-1.266153,-0.083462,6.661191,-19.460342,0.375127,7.024495,0.983724,-0.168888,-0.007133,0.060933
205,0.007291,-3.339562,9.056194,-3.512047,0.250028,5.104131,-19.538662,0.443233,7.208405,0.983501,-0.169585,-0.006862,0.062607
206,0.015403,-3.460585,9.035657,-5.579016,-0.037934,4.044283,-19.689003,0.497783,7.350835,0.983192,-0.170896,-0.006689,0.063901
207,0.012626,-3.617881,9.118517,-6.277835,-0.041405,2.457787,-19.885696,0.533256,7.453241,0.982835,-0.172597,-0.006649,0.064821
208,0.010818,-3.637269,9.164321,-5.200712,-0.315415,0.577952,-20.076540,0.544983,7.502816,0.982516,-0.174237,-0.006731,0.065253
209,-0.016291,-3.759951,9.169538,-5.628336,-0.335388,-0.450060,-20.256975,0.535555,7.508545,0.982239,-0.175778,-0.006924,0.065277
210,-0.013078,-3.843051,9.075557,-6.569352,-0.627330,-1.046872,-20.460430,0.511845,7.490731,0.981939,-0.177510,-0.007215,0.065075
211,-0.058846,-3.825491,9.133009,-7.310220,-0.656542,-1.513953,-20.692038,0.476818,7.458289,0.981601,-0.179477,-0.007596,0.064728
212,-0.056739,-3.755436,9.159996,-7.002739,-0.840772,-1.557045,-20.930889,0.435311,7.419306,0.981252,-0.181502,-0.008024,0.064312
213,-0.066905,-3.644902,9.234868,-5.861283,-0.518776,-1.265468,-21.145550,0.397276,7.383530,0.980936,-0.183322,-0.008413,0.063930
214,-0.026841,-3.652246,9.206329,-5.306107,-0.495378,-0.673049,-21.331837,0.369818,7.359543,0.980654,-0.184903,-0.008714,0.063667
215,0.049015,-3.533354,9.259124,-4.145055,-0.036945,-1.985540,-21.489590,0.345377,7.321531,0.980422,-0.186243,-0.008949,0.063290
216,0.123830,-3.525704,9.165147,-3.404523,1.124401,-3.802624,-21.615984,0.326814,7.225145,0.980272,-0.187321,-0.009020,0.062425
217,0.136519,-3.650122,9.095294,-4.948015,2.214324,-5.663679,-21.756142,0.320246,7.057978,0.980133,-0.188530,-0.008877,0.060974
218,0.134008,-3.590649,9.034979,-6.276172,3.142287,-8.234875,-21.944595,0.316898,6.809751,0.979951,-0.190159,-0.008594,0.058831
219,0.040380,-3.518329,9.065045,-6.688566,4.514747,-9.923046,-22.162500,0.321561,6.481342,0.979752,-0.192048,-0.008116,0.056015
220,-0.056564,-3.535491,9.207929,-8.561235,4.903062,-9.991334,-22.418798,0.340924,6.114711,0.979492,-0.194273,-0.007454,0.052895
221,-0.052202,-3.504221,9.224323,-9.357589,3.853292,-10.661152,-22.719681,0.343533,5.740855,0.979145,-0.196869,-0.006928,0.049686
222,-0.117918,-3.297221,9.248315,-7.264693,3.578538,-11.189633,-22.998894,0.316180,5.357136,0.978827,-0.199266,-0.006616,0.046344
223,-0.165434,-3.438541,9.257181,-8.553056,3.293199,-11.080606,-23.264502,0.275755,4.970801,0.978517,-0.201541,-0.006389,0.042959
224,-0.063908,-3.322360,9.115233,-8.561665,2.398715,-12.558022,-23.551413,0.206256,4.571565,0.978159,-0.203989,-0.006379,0.039411
225,-0.025232,-3.421142,8.876367,-11.828763,2.776864,-13.317094,-23.892403,0.111757,4.142027,0.977696,-0.206892,-0.006527,0.035557
226,-0.143984,-3.490059,8.797492,-17.119509,3.585589,-11.246446,-24.375425,0.041062,3.725098,0.976942,-0.211015,-0.006512,0.031845
227,-0.162180,-3.740715,8.936927,-24.508991,3.391396,-7.622706,-25.069412,0.014949,3.390906,0.975736,-0.216940,-0.006294,0.028910
228,-0.108933,-4.234150,8.876986,-31.131916,1.938307,-2.719127,-25.996798,0.020459,3.197190,0.973996,-0.224841,-0.006101,0.027222
229,-0.201189,-4.417499,9.109273,-29.593016,1.188513,2.722602,-27.008831,0.066686,3.174050,0.971975,-0.233446,-0.005902,0.027065
230,-0.285313,-4.437881,9.272882,-20.011652,-0.966681,9.322648,-27.835176,0.162038,3.350674,0.970217,-0.240463,-0.005660,0.028718
231,-0.318506,-4.603288,9.293271,-7.218273,-2.821102,15.158157,-28.287455,0.297726,3.740548,0.969145,-0.244306,-0.005457,0.032282
232,-0.131223,-4.760735,8.894197,3.424921,-5.472913,18.291815,-28.347113,0.439923,4.297068,0.968834,-0.244826,-0.005460,0.037288
233,-0.154319,-4.415522,8.928159,13.277575,-6.803624,21.001780,-28.062891,0.568677,4.971013,0.969186,-0.242432,-0.005704,0.043274
234,-0.060323,-4.491952,8.756519,15.302527,-7.776311,23.929094,-27.577990,0.702826,5.746802,0.969868,-0.238341,-0.005999,0.050144
235,0.147751,-4.494298,8.632809,12.483670,-7.194180,22.659006,-27.104094,0.837795,6.551137,0.970445,-0.234346,-0.006293,0.057256
236,0.190394,-4.541152,8.639597,5.896395,-4.998872,21.590796,-26.785803,0.990933,7.300678,0.970667,-0.231684,-0.006351,0.063932
237,0.002310,-4.318548,9.021634,4.370562,-2.076570,19.152359,-26.602037,1.190933,7.960313,0.970609,-0.230202,-0.005879,0.069931
238,-0.033213,-4.187316,9.012008,8.311057,-0.273408,15.295383,-26.378489,1.411991,8.491710,0.970668,-0.228413,-0.004928,0.074882
239,0.039039,-4.323539,8.989174,12.800838,1.746352,9.460707,-26.017071,1.615946,8.851267,0.971090,-0.225463,-0.003669,0.078342
240,-0.055560,-4.210020,9.089621,13.208112,2.842125,2.040820,-25.579407,1.767945,8.990712,0.971806,-0.221845,-0.002350,0.079829
241,-0.096254,-3.929651,9.118835,17.467747,4.608933,-5.396250,-25.071373,1.856040,8.887067,0.972827,-0.217592,-0.001051,0.079124
242,-0.093540,-3.890871,8.895142,13.654045,4.889395,-12.029421,-24.563379,1.877578,8.556932,0.974000,-0.213291,0.000097,0.076362
243,-0.266291,-4.058564,8.970845,11.491391,7.701845,-15.004247,-24.160542,1.882565,8.059761,0.975064,-0.209865,0.001319,0.072141
244,-0.316574,-3.844144,9.049206,14.149795,6.842041,-19.214230,-23.753561,1.872311,7.439808,0.976182,-0.206384,0.002604,0.066837
245,-0.083320,-3.821852,8.985663,20.578020,1.791540,-24.136547,-23.197233,1.716494,6.719542,0.977610,-0.201546,0.002866,0.060409
246,-0.407970,-3.635882,9.125027,28.559683,1.894190,-21.299217,-22.398142,1.479949,5.997631,0.979402,-0.194599,0.002492,0.053820
247,-0.280907,-3.524469,9.115624,37.449852,0.701355,-16.281929,-21.312557,1.287528,5.399901,0.981504,-0.185220,0.002319,0.048366
248,0.122878,-3.464459,9.239577,35.237171,-3.182793,-15.416453,-20.111061,1.062830,4.920175,0.983620,-0.174826,0.001630,0.043880
250,-0.155710,-3.478811,9.382051,30.381372,-1.097047,-9.950142,-19.023666,0.854166,4.546045,0.985399,-0.165408,0.000792,0.040346
251,-0.465296,-3.337967,9.433104,28.159809,3.497729,-1.225507,-18.050905,0.833115,4.356509,0.986836,-0.157029,0.001213,0.038677
252,-0.324897,-3.357108,9.356646,20.769756,1.415263,2.256236,-17.235695,0.916807,4.347567,0.987921,-0.150031,0.002221,0.038699
253,-0.307439,-3.214751,9.412785,19.332287,0.083178,5.078587,-16.565571,0.976469,4.457299,0.988737,-0.144273,0.002824,0.039707
254,-0.449783,-3.071382,9.400348,19.522476,0.522397,7.664924,-15.914484,1.045716,4.658435,0.989461,-0.138681,0.003404,0.041511
255,-0.218291,-2.766578,9.434084,17.945217,-2.361221,9.097988,-15.284867,1.091434,4.935752,0.990099,-0.133268,0.003705,0.043940
256,-0.127932,-2.512979,9.488032,18.346916,-4.252707,10.547019,-14.673572,1.069704,5.280687,0.990662,-0.127987,0.003366,0.046878
257,0.188527,-2.542282,9.475526,16.575638,-5.169009,6.221148,-14.086023,0.987076,5.590499,0.991185,-0.122881,0.002559,0.049452
258,0.040660,-2.750224,9.535507,12.751237,-2.596834,1.640878,-13.594728,0.892623,5.748798,0.991645,-0.118594,0.001790,0.050713
259,-0.077849,-2.531273,9.328956,13.227445,-1.021485,-0.038021,-13.161173,0.840000,5.788719,0.992075,-0.114819,0.001486,0.051000
260,-0.227643,-2.439475,9.284330,10.909022,0.731097,-1.273420,-12.759205,0.830318,5.768464,0.992482,-0.111334,0.001601,0.050809
261,-0.459554,-2.556304,9.355950,5.068383,2.680613,-1.249558,-12.493715,0.876563,5.714955,0.992756,-0.109053,0.002170,0.050386
262,-0.625797,-2.584728,9.340226,2.017750,1.430157,4.185960,-12.375093,0.953976,5.747942,0.992845,-0.108059,0.002862,0.050742
263,-0.450583,-2.422387,9.376286,-2.201991,-0.975245,8.686364,-12.374638,1.007414,5.955885,0.992745,-0.108084,0.003129,0.052593
264,-0.434685,-2.357095,9.484512,-4.658824,-2.318346,10.547047,-12.483267,1.022863,6.280777,0.992487,-0.109040,0.002904,0.055425
265,-0.347941,-2.526437,9.547094,-8.718690,-3.326567,11.351428,-12.699563,1.010648,6.657527,0.992093,-0.110916,0.002329,0.058681
266,-0.175034,-2.682754,9.470462,-10.557974,-4.097661,11.958712,-13.013810,0.976555,7.063865,0.991576,-0.113625,0.001470,0.062170
267,0.040101,-2.605073,9.557331,-9.347515,-3.397448,9.046134,-13.339419,0.934764,7.433237,0.991049,-0.116423,0.000557,0.065326
268,-0.030816,-2.516746,9.567407,-9.496449,-1.941138,6.241541,-13.649171,0.907740,7.701786,0.990579,-0.119086,-0.000133,0.067621
269,-0.028058,-2.588241,9.605100,-10.777474,-1.317384,4.935564,-13.983998,0.899564,7.895688,0.990112,-0.121975,-0.000607,0.069288
270,0.031597,-2.462258,9.515512,-9.948306,-0.580341,2.838204,-14.327326,0.900634,8.029076,0.989660,-0.124940,-0.000951,0.070439
271,0.061973,-2.401827,9.553760,-11.118375,0.190280,1.105724,-14.677400,0.910848,8.094352,0.989232,-0.127968,-0.001151,0.071010
272,-0.125178,-2.467378,9.578955,-13.960051,1.883339,-0.219949,-15.095281,0.948094,8.099749,0.988750,-0.131597,-0.001095,0.071095
273,-0.184609,-2.504120,9.579890,-13.837836,2.783321,-1.061886,-15.559268,1.017510,8.058609,0.988224,-0.135642,-0.000735,0.070816
274,-0.236314,-2.438791,9.593742,-13.355217,3.489818,-1.938874,-16.013895,1.104548,7.982051,0.987710,-0.139613,-0.000173,0.070258
275,-0.230326,-2.515079,9.585594,-13.561682,3.107232,-1.653912,-16.464266,1.193401,7.893815,0.987193,-0.143546,0.000427,0.069607
276,-0.350200,-2.596993,9.616748,-13.580695,3.199227,-1.138238,-16.918245,1.280699,7.819024,0.986646,-0.147506,0.001000,0.069075
277,-0.245117,-2.565445,9.596890,-12.681849,1.833752,-0.587078,-17.357149,1.352367,7.766822,0.986091,-0.151324,0.001421,0.068723
278,-0.234730,-2.634004,9.583502,-12.943020,0.944525,0.765902,-17.784492,1.397384,7.755651,0.985518,-0.155026,0.001567,0.068692
279,-0.159540,-2.594160,9.532836,-12.209159,-0.329138,1.846730,-18.202757,1.420541,7.793896,0.984918,-0.158636,0.001462,0.069058
280,-0.111763,-2.860758,9.540230,-12.999729,-1.243728,2.973640,-18.620808,1.420998,7.878402,0.984282,-0.162229,0.001095,0.069789
281,-0.044279,-2.805842,9.536506,-10.879105,-1.598190,2.922588,-19.016109,1.407827,7.986712,0.983652,-0.165617,0.000584,0.070703
282,-0.080442,-2.798456,9.526313,-9.905640,-1.498840,3.298205,-19.359715,1.393135,8.101619,0.983083,-0.168557,0.000077,0.071669
283,-0.051294,-2.859983,9.518670,-9.030190,-1.493119,3.187749,-19.672432,1.382231,8.220203,0.982547,-0.171232,-0.000389,0.072670
284,-0.048282,-3.029793,9.492128,-8.517912,-1.241217,2.583414,-19.962349,1.371961,8.326170,0.982045,-0.173711,-0.000822,0.073561
285,-0.127780,-2.816532,9.432709,-5.742032,-0.524918,2.512147,-20.197865,1.373483,8.416067,0.981628,-0.175729,-0.001098,0.074332
286,-0.110680,-2.921490,9.404705,-5.853101,-0.609789,2.409937,-20.389099,1.384184,8.499604,0.981276,-0.177373,-0.001259,0.075062
287,-0.056424,-3.010135,9.394810,-5.147317,-0.626483,1.339241,-20.570852,1.386747,8.565370,0.980950,-0.178930,-0.001459,0.075627
288,-0.082517,-3.014523,9.370849,-4.391143,-0.447496,0.702093,-20.728903,1.382005,8.603522,0.980678,-0.180279,-0.001664,0.075944
289,-0.139685,-3.065430,9.421144,-4.383692,-0.310723,0.505203,-20.874590,1.377343,8.626826,0.980434,-0.181522,-0.001837,0.076134
290,-0.070659,-3.110805,9.451302,-4.471854,-0.704668,-0.872573,-21.022175,1.359352,8.627159,0.980203,-0.182773,-0.002090,0.076106
291,-0.117206,-3.128951,9.463513,-3.759658,-0.420456,-1.389496,-21.160034,1.328302,8.598715,0.980008,-0.183934,-0.002402,0.075810
292,-0.175319,-3.172720,9.454488,-3.273524,-0.373832,-1.220373,-21.278074,1.300225,8.562947,0.979848,-0.184926,-0.002662,0.075457
293,-0.197598,-3.080105,9.411330,-1.685762,-0.692305,-0.980633,-21.361357,1.270335,8.535228,0.979738,-0.185621,-0.002928,0.075170
294,-0.072335,-3.178575,9.433956,-1.305615,-1.447204,-1.104283,-21.411631,1.224462,8.515864,0.979679,-0.186023,-0.003321,0.074930
295,-0.091745,-3.069483,9.460102,1.848162,-1.691940,-1.622476,-21.403069,1.159165,8.492642,0.979721,-0.185910,-0.003837,0.074626
296,-0.078905,-3.002728,9.400531,4.690406,-2.009395,-0.456024,-21.294291,1.089103,8.482819,0.979918,-0.184937,-0.004349,0.074434
297,-0.092576,-2.981949,9.379990,7.747534,-2.262236,0.704327,-21.086441,1.024231,8.512401,0.980245,-0.183117,-0.004817,0.074591
298,-0.019334,-3.172258,9.460570,8.345530,-2.324980,0.461015,-20.817430,0.959789,8.557868,0.980655,-0.180773,-0.005265,0.074891
299,-0.084503,-2.963665,9.443959,12.208152,-1.682161,0.429857,-20.474262,0.902522,8.595314,0.981178,-0.177798,-0.005589,0.075138
300,-0.113659,-2.931961,9.362741,14.363790,-0.841102,1.492996,-20.030712,0.874145,8.639913,0.981835,-0.173979,-0.005609,0.075499
301,-0.032297,-3.059797,9.451035,10.292098,-1.262045,0.256761,-19.619186,0.851077,8.679195,0.982431,-0.170435,-0.005594,0.075821
302,-0.105609,-2.997915,9.649715,9.391521,-0.563773,-0.562336,-19.291059,0.820669,8.684560,0.982917,-0.167602,-0.005646,0.075839
303,-0.153852,-2.867215,9.530563,12.445185,-0.946835,1.160580,-18.926870,0.800121,8.702219,0.983437,-0.164463,-0.005606,0.075979
304,-0.182856,-2.850141,9.538553,12.293269,-1.514065,2.396346,-18.513613,0.780345,8.771524,0.983981,-0.160899,-0.005599,0.076566
305,-0.105014,-2.959417,9.560103,12.056822,-2.678045,2.651726,-18.106428,0.740487,8.873361,0.984484,-0.157371,-0.005810,0.077406
306,-0.161544,-2.961613,9.550165,15.228762,-2.257372,3.385261,-17.650166,0.693112,8.994409,0.985028,-0.153412,-0.006071,0.078406
307,-0.034142,-2.917118,9.404758,15.931808,-2.521722,3.367051,-17.129292,0.650727,9.125585,0.985631,-0.148898,-0.006250,0.079506
308,0.036278,-3.095823,9.623357,14.953448,-2.041412,1.683105,-16.613428,0.602373,9.228215,0.986227,-0.144420,-0.006437,0.080356
309,0.106568,-3.085776,9.738122,15.850788,-1.744585,-1.231349,-16.099791,0.543891,9.253212,0.986855,-0.139957,-0.006611,0.080529
310,-0.001271,-3.213069,10.007833,12.513142,-1.491629,-2.353772,-15.627462,0.475567,9.210495,0.987463,-0.135843,-0.006817,0.080106
311,0.008225,-2.522635,10.446471,10.997075,-0.709025,-4.383280,-15.236398,0.410285,9.112034,0.987997,-0.132433,-0.006993,0.079205
312,-0.291459,-2.476911,11.868157,-5.125431,2.440163,-0.857768,-15.139214,0.415173,9.020178,0.988172,-0.131604,-0.006778,0.078425
313,-0.935399,-4.072597,12.746128,-26.788101,10.524302,11.248510,-15.670096,0.669394,9.129708,0.987442,-0.136347,-0.005081,0.079637
314,-0.653574,-4.835466,14.315695,-32.462677,6.266414,9.420654,-16.653877,1.033846,9.382719,0.985996,-0.145060,-0.002947,0.082225
315,-0.488518,-5.919493,14.408462,-20.192772,5.788231,10.825574,-17.526043,1.325158,9.645762,0.984614,-0.152759,-0.001419,0.084844
316,-0.409240,-6.671234,13.642727,5.971180,6.194072,6.509418,-17.757589,1.602689,9.860886,0.984079,-0.154946,0.000503,0.087059
317,-0.292112,-6.940639,12.001346,33.586208,6.471406,2.015590,-17.096041,1.846299,9.933768,0.984843,-0.149440,0.003005,0.087993
318,0.081606,-5.227456,11.612860,69.410835,5.318224,-8.378412,-15.384795,2.004901,9.777468,0.987045,-0.134825,0.005869,0.086774
319,-0.276483,-5.089493,10.281117,80.238533,11.452135,-6.286667,-12.902602,2.215286,9.472974,0.989910,-0.113540,0.009867,0.084200
320,-0.439873,-4.163973,9.964617,88.356125,10.671684,-6.959491,-10.106507,2.532730,9.182048,0.992519,-0.089540,0.014895,0.081653
321,-0.556392,-2.448856,9.459743,99.387215,7.402239,-5.412563,-6.991210,2.799790,8.933686,0.994695,-0.062668,0.019564,0.079199
322,-0.509889,-1.591347,9.365801,91.061745,4.240229,-5.146973,-3.829451,2.976793,8.741057,0.996133,-0.035282,0.023339,0.077003
323,-0.454290,-0.580560,8.384768,77.920441,-2.831366,-5.391022,-1.024393,2.992747,8.565123,0.996811,-0.010861,0.025372,0.074880
324,-0.445755,0.658183,7.495378,65.774269,-4.436075,-5.765254,1.359735,2.872014,8.380132,0.996965,0.009999,0.025858,0.072741
325,-0.361331,2.359983,6.865003,47.557110,-1.865617,-5.290180,3.238551,2.774252,8.192040,0.996804,0.026449,0.026154,0.070696
326,-0.811883,1.927043,7.219707,-1.083219,4.789797,-0.199174,4.008548,2.828502,8.103506,0.996648,0.033133,0.027075,0.069732
327,-1.045146,2.510030,7.178566,-16.627592,5.980023,1.443009,3.714949,3.006193,8.135772,0.996674,0.030461,0.028450,0.070029
328,-0.304326,1.937278,6.756522,-34.194195,0.428504,3.326909,2.872479,3.108251,8.221218,0.996796,0.023047,0.028839,0.070955
329,-0.241356,1.982066,6.376050,-34.080177,0.399823,5.842899,1.742928,3.115894,8.374211,0.996877,0.013178,0.028222,0.072566
330,-0.603577,0.705480,5.336255,-39.232029,3.373297,3.812519,0.530100,3.175357,8.536567,0.996843,0.002549,0.027974,0.074270
331,0.105584,-0.199283,4.566279,-34.729832,-4.489499,-0.721037,-0.699527,3.157070,8.588429,0.996783,-0.008148,0.027012,0.075016
332,0.154736,-0.929969,3.679688,-27.623987,-5.530856,-4.185010,-1.742910,2.988755,8.509413,0.996760,-0.017097,0.024876,0.074552
333,-0.198619,-0.767336,3.061348,-14.889123,0.356027,-8.053933,-2.461764,2.895387,8.308304,0.996785,-0.023248,0.023637,0.072942
334,-0.323077,-1.299234,2.489028,-13.014424,0.478381,-9.274586,-2.941535,2.896063,8.019006,0.996860,-0.027362,0.023406,0.070524
335,-0.009926,-1.096099,2.742712,-0.873147,-7.155156,-7.762697,-3.186727,2.769848,7.741074,0.996997,-0.029365,0.022228,0.068127
336,-0.087550,-0.712337,2.796563,8.347447,-8.160901,-6.337265,-3.072158,2.502347,7.519888,0.997213,-0.028174,0.020023,0.066121
337,0.051394,-0.932590,3.230755,6.633450,-11.145153,-0.360516,-2.826319,2.175428,7.424714,0.997388,-0.025834,0.017341,0.065183
338,-0.005440,-1.159752,4.168485,11.508411,-12.640879,-0.609741,-2.523710,1.778777,7.427152,0.997516,-0.022978,0.014060,0.065086
339,-0.097179,-0.690001,5.797809,13.096588,-10.143802,0.790773,-2.113133,1.399471,7.445430,0.997631,-0.019192,0.010987,0.065137
340,0.381312,-0.168268,8.408246,8.943422,-9.329363,-3.033535,-1.746342,1.073890,7.418876,0.997736,-0.015813,0.008365,0.064829
341,-0.032599,0.350344,10.624844,-2.112703,-5.075050,-6.326854,-1.635062,0.829211,7.270082,0.997854,-0.014698,0.006316,0.063496
342,-0.412964,0.585244,12.684373,-12.135078,0.057051,-10.193672,-1.876355,0.737034,6.997570,0.997975,-0.016735,0.005420,0.061123
343,-0.233435,0.592149,14.643247,-27.422047,1.176784,-13.134907,-2.540778,0.742471,6.608390,0.998063,-0.022507,0.005189,0.057765
344,-0.494078,0.254520,15.907111,-33.433655,3.538459,-14.268171,-3.561181,0.796347,6.148181,0.998043,-0.031399,0.005270,0.053816
345,-1.038930,0.037342,15.862666,-31.917068,1.996184,-8.558498,-4.655898,0.860982,5.762264,0.997868,-0.040944,0.005456,0.050526
347,-0.921695,-1.423029,15.957852,-29.115213,1.079303,-0.372372,-5.675344,0.898209,5.609335,0.997528,-0.049829,0.005397,0.049257
348,-0.161475,-1.726397,16.017179,-25.629513,-3.323472,-3.505227,-6.588624,0.853541,5.549077,0.997129,-0.057756,0.004646,0.048752
349,-0.718963,-1.936633,15.849817,-26.176695,-0.296282,-0.712849,-7.452889,0.785263,5.486351,0.996697,-0.065244,0.003720,0.048202
350,-0.099236,-2.735904,15.622885,-35.137314,-3.423130,-0.371311,-8.474844,0.721220,5.477260,0.996086,-0.074104,0.002739,0.048113
351,0.039041,-4.043590,15.235726,-45.839493,-3.544654,-3.886444,-9.824899,0.595235,5.425486,0.995176,-0.085781,0.001117,0.047598
352,0.193005,-3.855731,14.591225,-37.773651,-1.478423,-10.689281,-11.220321,0.468882,5.201983,0.994158,-0.097843,-0.000368,0.045562
353,-0.206334,-4.564129,13.335178,-32.579704,0.892198,-8.819014,-12.395164,0.393647,4.885753,0.993230,-0.108004,-0.001189,0.042744
354,0.000199,-4.977230,12.718940,-19.650091,3.172121,-5.511168,-13.267354,0.406662,4.638059,0.992469,-0.115568,-0.001152,0.040602
355,-0.208968,-4.597208,12.019924,9.045786,4.823149,-4.619877,-13.445668,0.497366,4.443192,0.992349,-0.117145,-0.000231,0.039005
356,-0.450743,-3.783705,11.371483,43.707283,8.754099,-0.196823,-12.567846,0.700173,4.314257,0.993244,-0.109604,0.001949,0.038082
357,-0.382318,-3.167500,10.804444,56.557896,7.500209,4.201571,-10.896926,0.979479,4.324738,0.994706,-0.095200,0.004920,0.038371
358,0.037741,-2.046206,10.477346,68.066460,6.626048,3.624357,-8.818822,1.234216,4.413245,0.996211,-0.077235,0.007770,0.039215
359,-0.244689,-0.528293,9.326319,79.307747,6.699248,3.321913,-6.361572,1.469379,4.499004,0.997580,-0.055942,0.010615,0.039898
360,-0.398849,0.409464,8.733043,66.444992,9.050607,4.872898,-3.930473,1.742775,4.611649,0.998466,-0.034873,0.013807,0.040726
361,-0.213448,1.168390,8.032469,46.074638,7.020866,4.211113,-2.051482,2.018402,4.748194,0.998814,-0.018613,0.016854,0.041726
362,-0.563543,1.971496,7.459449,24.594625,10.703400,7.440908,-0.866890,2.318725,4.934782,0.998833,-0.008427,0.019888,0.043194
363,-0.806678,2.651863,7.272095,-1.582946,9.505003,10.294141,-0.470779,2.659503,5.225884,0.998679,-0.005161,0.022995,0.045671
364,-0.781682,1.943083,7.724640,-33.760353,7.851429,11.515023,-1.042320,2.954176,5.585322,0.998428,-0.010338,0.025302,0.048938
365,-0.018459,1.536108,7.230675,-41.720375,0.382729,12.669538,-2.279233,3.103792,5.983991,0.998045,-0.021268,0.026002,0.052705
366,-0.116823,0.957447,6.622788,-47.514149,1.318216,13.139874,-3.743112,3.154772,6.411847,0.997474,-0.034134,0.025644,0.056771
367,-0.363808,0.358837,5.862707,-42.441105,1.353853,12.002600,-5.218923,3.232023,6.826753,0.996718,-0.047106,0.025412,0.060736
368,0.119464,-0.971522,4.926826,-35.325790,-5.037514,10.685698,-6.493283,3.209502,7.209732,0.995929,-0.058258,0.024345,0.064333
369,0.350600,-1.479636,3.559201,-21.261221,-8.601293,6.816073,-7.419243,3.019065,7.526613,0.995296,-0.066263,0.021986,0.067175
370,-0.323677,-1.693920,2.536211,-13.374954,2.503076,0.728743,-7.989451,2.935113,7.664558,0.994894,-0.071194,0.020837,0.068432
371,-0.207276,-1.558829,1.853915,-11.063926,-1.868737,-2.616482,-8.398358,2.941332,7.632247,0.994651,-0.074741,0.020668,0.068229
372,0.276475,-1.649049,1.454159,-11.809965,-13.575961,-3.228894,-8.782418,2.672345,7.574156,0.994499,-0.077914,0.018144,0.067619
373,-0.378288,-1.499504,1.884656,-3.260681,-0.562254,-0.988392,-9.034999,2.428634,7.540865,0.994402,-0.079965,0.015902,0.067206
374,-0.395516,-1.614409,2.586658,2.262729,-4.537847,2.662779,-9.049949,2.349092,7.581910,0.994386,-0.080056,0.015175,0.067510
375,0.283054,-1.344780,4.536983,6.857326,-15.159058,-0.541720,-8.894642,2.030320,7.668052,0.994510,-0.078538,0.012440,0.068025
376,-0.414386,-0.903479,6.944072,5.741450,-7.881951,2.523672,-8.681830,1.655819,7.759430,0.994668,-0.076484,0.009254,0.068552
377,-0.485481,-0.625591,10.095802,-2.227973,-2.870986,-4.232954,-8.623205,1.474396,7.758141,0.994738,-0.075870,0.007715,0.068419
378,-0.484053,-1.396323,12.518880,-28.695515,-1.015258,-4.840908,-9.142171,1.387019,7.618771,0.994480,-0.080316,0.006744,0.067184
379,-0.568508,-0.998397,14.700284,-24.725470,-0.401067,-6.542833,-10.036843,1.331909,7.435822,0.993937,-0.088037,0.005882,0.065606
380,-0.712038,-0.607541,15.308439,-15.030961,-0.519370,-3.088392,-10.702971,1.288096,7.280657,0.993503,-0.093782,0.005248,0.064258
381,-0.342983,-1.263672,15.877362,-17.502914,-1.399104,-5.113740,-11.247999,1.230627,7.152511,0.993126,-0.098470,0.004554,0.063123
382,0.041721,-2.344446,15.494748,-15.800390,-4.867197,-2.267116,-11.805065,1.103766,7.052790,0.992708,-0.103226,0.003238,0.062168
383,-0.007578,-1.682962,14.951015,8.067624,-5.583869,-2.561333,-11.934647,0.916628,7.009729,0.992639,-0.104250,0.001585,0.061630
384,0.362275,-2.145209,14.721896,-5.347351,-3.628376,-4.758865,-11.890582,0.741289,6.921706,0.992746,-0.103776,0.000170,0.060709
385,0.135484,-2.965667,15.102651,-26.524986,-0.276173,-5.803904,-12.423734,0.640506,6.763470,0.992346,-0.108343,-0.000836,0.059245
386,-0.037175,-3.887296,15.716832,-39.403423,5.349741,-5.476676,-13.524858,0.680521,6.561553,0.991358,-0.117895,-0.000851,0.057528
387,-0.233457,-4.708931,16.213947,-40.531830,7.003324,-3.823495,-14.859684,0.841992,6.361225,0.989997,-0.129514,0.000100,0.055965
388,-0.255912,-5.431269,15.893603,-25.145370,9.525363,-4.448493,-15.957629,1.070777,6.155306,0.988778,-0.139097,0.001788,0.054462
389,-0.470936,-5.256564,14.751390,0.689891,10.462934,-3.984719,-16.369999,1.351937,5.927968,0.988334,-0.142773,0.004301,0.052855
390,-0.928144,-5.455819,13.330910,18.611418,10.635777,1.919438,-16.051790,1.680408,5.797259,0.988728,-0.140161,0.007442,0.052113
391,-0.610043,-4.850554,11.411088,39.840488,7.724866,5.380236,-15.076640,2.008121,5.832758,0.989804,-0.131883,0.010676,0.052727
392,-0.528516,-3.609791,10.426614,47.656578,5.006115,7.698175,-13.612697,2.267872,5.992098,0.991278,-0.119356,0.013430,0.054231
393,-0.547093,-3.601175,10.613999,32.272888,5.137468,14.318365,-12.267499,2.514966,6.312453,0.992399,-0.107863,0.015905,0.057072
394,-0.501171,-3.490507,10.484914,32.904713,3.087024,17.607527,-11.158734,2.758159,6.805683,0.993081,-0.098447,0.018142,0.061393
395,-0.636086,-2.505825,10.044554,52.544331,1.713997,19.410332,-9.705361,2.948798,7.398722,0.993870,-0.086044,0.020128,0.066441
396,-0.297948,-1.419794,10.046349,64.266479,-3.480905,18.354439,-7.726423,3.014395,8.026342,0.994813,-0.069023,0.021465,0.071570
397,-0.188339,-0.958610,9.246524,68.951485,-2.489634,17.816181,-5.475194,2.984256,8.637972,0.995591,-0.049569,0.022340,0.076438
398,-0.315079,0.751746,7.571037,78.041443,-0.673953,11.845251,-3.000575,2.967902,9.135084,0.996094,-0.028152,0.023722,0.080256
399,-0.736049,1.638017,7.001719,53.809296,4.107929,9.672592,-0.785478,3.035524,9.491602,0.996184,-0.009020,0.025829,0.082885
400,-0.229665,1.688531,7.033805,13.199976,3.148511,7.265508,0.346297,3.157792,9.772884,0.995990,0.000663,0.027710,0.085065
401,-0.403706,1.789188,6.974017,-13.797617,4.563803,4.646759,0.347529,3.285763,9.972228,0.995809,0.000528,0.028825,0.086792
402,-0.778003,1.908079,6.636049,-29.798136,5.807255,2.161664,-0.372341,3.459025,10.085605,0.995662,-0.005888,0.029779,0.087957
403,-0.153223,1.454004,6.700622,-43.778736,0.365938,3.559148,-1.592756,3.563780,10.179197,0.995441,-0.016596,0.029737,0.089092
404,0.050232,0.889208,5.713655,-43.374710,-3.774087,4.240642,-3.037007,3.512229,10.311020,0.995064,-0.029133,0.028130,0.090594
405,-0.183350,-0.023870,5.186155,-37.133270,-3.742029,0.780676,-4.373116,3.392545,10.402341,0.994619,-0.040661,0.026001,0.091672
406,-0.102297,-0.718892,4.066285,-23.415939,-4.577247,-0.088777,-5.380820,3.255683,10.425576,0.994244,-0.049304,0.023996,0.092046
407,0.202897,-0.987695,2.903456,-14.069901,-8.959542,-3.280735,-6.007401,3.025657,10.391824,0.994051,-0.054555,0.021512,0.091783
408,-0.301039,-1.509437,2.053218,-12.191332,-2.190158,-4.602349,-6.450775,2.826820,10.280866,0.993973,-0.058227,0.019488,0.090810
409,-0.062047,-1.364321,2.148918,-0.009052,-7.072178,-5.043465,-6.660988,2.655186,10.138801,0.994020,-0.059896,0.017907,0.089530
410,0.047081,-1.066020,2.084769,8.822777,-9.774244,-7.673160,-6.521847,2.352066,9.960093,0.994301,-0.058435,0.015477,0.087813
411,-0.224541,-1.606078,2.848942,4.924749,-4.700937,-6.252142,-6.300636,2.086500,9.756083,0.994622,-0.056293,0.013441,0.085889
412,-0.174383,-1.007600,4.880247,15.499022,-8.993233,-9.099864,-5.968173,1.832188,9.525928,0.994999,-0.053198,0.011589,0.083740
413,-0.685860,-0.438531,7.258599,10.727710,-4.529051,-8.622209,-5.539117,1.578467,9.254449,0.995428,-0.049267,0.009816,0.081234
414,0.076152,-0.702123,9.676340,-1.024485,-9.713964,-17.370487,-5.387760,1.300827,8.845632,0.995815,-0.047731,0.007681,0.077558
415,-0.760754,-0.510809,11.980259,-8.048875,-2.952630,-13.878078,-5.549145,1.040606,8.347529,0.996106,-0.048936,0.005523,0.073132
416,-0.231434,0.155995,14.086135,-16.111845,-5.470927,-14.609987,-5.959591,0.853036,7.889359,0.996228,-0.052371,0.003840,0.069084
417,-0.530256,-0.645755,14.882357,-25.961460,-0.017115,-11.899084,-6.666573,0.713294,7.460298,0.996150,-0.058424,0.002418,0.065307
418,0.193637,-1.307540,15.217209,-30.696381,-4.228071,-10.417835,-7.615080,0.596453,7.100434,0.995843,-0.066598,0.001072,0.062131
419,-0.473899,-1.242433,15.319302,-30.475367,1.203995,-4.210696,-8.636667,0.511843,6.865984,0.995342,-0.075429,-0.000063,0.060046
420,0.056408,-1.645920,14.676742,-31.100513,-1.056356,-3.018134,-9.663959,0.494727,6.747123,0.994689,-0.084340,-0.000662,0.058999
421,0.020876,-2.628411,14.217827,-32.634235,0.093611,-4.608026,-10.727108,0.456320,6.624729,0.993929,-0.093547,-0.001443,0.057898
422,-0.147138,-3.222927,14.069876,-31.292582,-0.844185,-2.022590,-11.793278,0.422599,6.518866,0.993071,-0.102776,-0.002179,0.056934
423,-0.031086,-2.983301,14.237474,-25.491869,-0.903496,-6.055111,-12.740451,0.365337,6.393475,0.992254,-0.110956,-0.003024,0.055773
424,-0.303161,-3.515674,14.394650,-25.584835,-0.525021,-6.076806,-13.592789,0.296424,6.201935,0.991499,-0.118307,-0.003837,0.054021
425,0.062054,-3.988263,14.975489,-25.250565,-0.697014,-6.828195,-14.440926,0.224579,5.998224,0.990696,-0.125617,-0.004634,0.052151
426,-0.258335,-3.868025,14.937341,-18.661066,1.721802,-8.682330,-15.173628,0.175075,5.743926,0.989990,-0.131938,-0.005103,0.049867
427,-0.323432,-3.682317,14.571690,-1.924014,4.171475,-7.390177,-15.517665,0.199154,5.459689,0.989708,-0.134932,-0.004710,0.047425
428,-0.379725,-4.035697,13.165832,12.822181,5.573846,-3.613882,-15.337061,0.307267,5.239785,0.990001,-0.133423,-0.003445,0.045658
429,-0.184745,-3.931653,12.032548,16.048265,5.543516,-1.515743,-14.856837,0.464170,5.109070,0.990590,-0.129337,-0.001750,0.044719
430,-0.216592,-3.405100,10.757634,21.089493,3.656864,-0.326964,-14.238554,0.604976,5.040845,0.991288,-0.124044,-0.000216,0.044290
431,-0.422488,-3.047865,9.985225,16.424335,3.286865,7.056688,-13.612401,0.744388,5.121985,0.991906,-0.118679,0.001148,0.045136
432,0.050495,-3.168020,10.288233,0.808043,1.601877,9.081546,-13.321815,0.886620,5.364494,0.992090,-0.116222,0.002249,0.047376
433,-0.360983,-3.329953,10.882693,3.079109,3.681994,13.238101,-13.251275,1.058143,5.706201,0.991995,-0.115690,0.003418,0.050505
434,-0.175432,-2.584430,10.449549,29.167109,1.724192,13.120791,-12.705619,1.244564,6.114143,0.992322,-0.111062,0.004878,0.054200
435,-0.072089,-2.013715,10.514682,39.309914,2.075135,15.732021,-11.553897,1.406737,6.571482,0.993140,-0.101183,0.006425,0.058254
436,-0.013116,-1.057242,9.766286,56.971920,2.860071,13.970121,-9.937169,1.579678,7.042603,0.994194,-0.087281,0.008388,0.062375
437,-0.314269,-0.067521,8.422865,62.372005,4.769378,9.508119,-7.937903,1.765194,7.409574,0.995330,-0.070056,0.010863,0.065517
438,-0.118183,1.028762,7.552514,44.407833,3.648686,4.516390,-6.151814,1.932220,7.624237,0.996148,-0.054652,0.013232,0.067282
439,-0.501441,1.386203,7.015119,12.225973,6.718827,5.571946,-5.202780,2.120421,7.774512,0.996444,-0.046528,0.015365,0.068550
440,-0.601623,1.859171,6.835662,-12.936977,7.368166,5.040259,-5.208569,2.370683,7.928810,0.996299,-0.046748,0.017475,0.069988
441,-0.278466,1.306771,7.418694,-41.801090,3.467830,4.462731,-6.114823,2.566299,8.068267,0.995769,-0.054764,0.018555,0.071424
442,0.170906,0.935600,7.299740,-51.220718,-1.358927,6.413943,-7.657096,2.623206,8.243495,0.994817,-0.068222,0.017982,0.073221
443,0.147474,0.961746,6.953171,-47.635902,-2.046225,6.765351,-9.294149,2.599269,8.468742,0.993601,-0.082445,0.016564,0.075407
444,0.178141,0.115903,6.380421,-41.014854,-2.788298,3.865454,-10.762887,2.550671,8.657314,0.992349,-0.095168,0.015019,0.077208
445,0.406420,-1.162505,5.871553,-30.172602,-6.179035,-0.260264,-11.945354,2.416188,8.745553,0.991289,-0.105327,0.012976,0.078002
446,0.007829,-1.225034,3.963783,-13.458714,-4.332489,0.184410,-12.671082,2.244984,8.781223,0.990620,-0.111496,0.010967,0.078229
447,-0.307598,-1.398191,3.236052,-4.628911,-1.834448,-1.695521,-12.972597,2.139131,8.779366,0.990350,-0.114034,0.009848,0.078139
448,0.132891,-2.159485,2.750916,-1.790155,-7.455360,-7.838594,-13.083882,1.952519,8.659357,0.990363,-0.114867,0.008279,0.076928
450,0.435638,-1.858243,3.151557,12.605569,-13.538469,-7.673102,-12.908936,1.553509,8.485970,0.990734,-0.113092,0.005117,0.075030
451,-0.138420,-1.840346,3.473445,21.740540,-7.362477,-4.100602,-12.339144,1.170911,8.370247,0.991425,-0.107921,0.002289,0.073648
452,0.133024,-1.671284,5.723537,26.566538,-11.908064,-6.189479,-11.535831,0.821400,8.268346,0.992271,-0.100749,-0.000132,0.072444
453,-0.013753,-1.451755,7.725161,22.850805,-11.637994,-5.286966,-10.713447,0.399438,8.156549,0.993083,-0.093366,-0.003178,0.071133
454,-0.607150,-0.709214,10.171152,16.710804,-10.233100,0.550391,-10.054150,0.026705,8.144691,0.993637,-0.087422,-0.005991,0.070763
455,-0.384346,-1.091808,12.487684,-0.583414,-10.128799,0.103825,-9.785392,-0.305440,8.213943,0.993810,-0.084880,-0.008757,0.071131
456,-0.227590,-0.388767,14.027705,-7.291328,-10.648329,1.471720,-9.917355,-0.642045,8.299480,0.993665,-0.085805,-0.011822,0.071608
457,0.437845,-0.487165,14.962092,-18.101715,-8.184974,-0.686448,-10.341480,-0.948705,8.367735,0.993297,-0.089279,-0.014798,0.071914
458,0.262351,-0.571314,15.550048,-20.135138,-4.665858,-0.798964,-10.979080,-1.163626,8.383330,0.992771,-0.094664,-0.017073,0.071785
459,1.080245,-1.401701,14.986485,-20.545826,-3.542399,-2.591877,-11.656465,-1.308813,8.354947,0.992208,-0.100442,-0.018729,0.071308
460,0.686033,-1.267306,14.369517,-14.601744,0.724229,-3.993432,-12.239967,-1.377386,8.257308,0.991741,-0.105466,-0.019595,0.070303
461,0.749594,-1.954997,13.856042,-18.257145,4.066314,-7.689878,-12.782726,-1.341484,8.049998,0.991357,-0.110220,-0.019418,0.068451
462,0.316187,-2.473410,12.820176,-13.090259,4.127610,-5.828741,-13.299511,-1.259166,7.799713,0.990999,-0.114782,-0.018764,0.066282
463,0.468370,-3.290681,12.408990,-16.430647,3.419569,-3.763791,-13.787609,-1.174294,7.614839,0.990609,-0.119083,-0.018121,0.064692
464,0.082180,-3.139440,13.371554,-17.136608,3.699469,-4.068377,-14.343987,-1.091051,7.459328,0.990107,-0.123964,-0.017547,0.063351
465,-0.213517,-3.594021,14.193414,-19.901739,5.282432,-2.426738,-14.958705,-0.973599,7.316717,0.989506,-0.129361,-0.016712,0.062158
466,-0.197787,-4.574995,14.674863,-21.491138,6.890285,-2.535108,-15.646527,-0.799827,7.183463,0.988782,-0.135414,-0.015428,0.061114
467,-0.676795,-4.872773,14.692052,-5.222672,9.045475,-0.154625,-16.090378,-0.556607,7.067774,0.988306,-0.139390,-0.013427,0.060353
468,-0.501350,-4.450977,13.938581,11.991504,8.329932,-0.414436,-15.976966,-0.280822,6.979047,0.988478,-0.138568,-0.010881,0.059935
469,-0.338851,-4.611831,12.132681,19.164238,6.331303,-0.464202,-15.457475,-0.049467,6.899112,0.989124,-0.134214,-0.008519,0.059565
470,0.002821,-4.598472,10.504234,24.202009,3.157061,-1.499077,-14.734754,0.094744,6.826532,0.989978,-0.128052,-0.006816,0.059152
471,0.035280,-3.483700,9.325036,25.848679,0.488455,-4.504560,-13.900815,0.128882,6.714788,0.990939,-0.120868,-0.005972,0.058270
472,0.156331,-3.252896,8.974947,5.722911,0.771445,-6.896942,-13.375005,0.104358,6.525383,0.991580,-0.116317,-0.005725,0.056633
473,0.125869,-3.413761,9.410868,-9.201721,2.243571,-4.522940,-13.433356,0.108747,6.328636,0.991616,-0.116833,-0.005515,0.054932
474,-0.219824,-3.781088,10.282106,-0.291302,6.232476,-1.907195,-13.591996,0.220841,6.191429,0.991511,-0.118265,-0.004480,0.053852
475,-0.454280,-3.756550,10.930316,24.040871,8.441022,-0.085017,-13.196749,0.451123,6.102599,0.991936,-0.114953,-0.002211,0.053329
476,-0.455374,-3.344232,11.352901,51.997952,7.308208,7.625855,-11.928863,0.734828,6.168511,0.993090,-0.104102,0.000778,0.054177
477,-0.357972,-2.439481,11.539095,78.037231,5.346123,12.764526,-9.757793,1.006382,6.463097,0.994712,-0.085405,0.003942,0.056911
478,0.012998,-1.098764,10.509151,98.556793,2.619685,11.233758,-6.808980,1.195518,6.840276,0.996366,-0.059897,0.006853,0.060167
479,-0.080389,-0.115060,9.050578,92.476952,3.450008,11.565573,-3.619558,1.329813,7.210109,0.997433,-0.032246,0.009590,0.063209
480,-0.606897,1.418566,7.816519,71.703346,5.542446,10.008825,-0.876660,1.493766,7.563066,0.997702,-0.008493,0.012502,0.066044
481,-0.146964,1.866876,6.659042,39.348068,1.357452,8.443084,0.981598,1.608648,7.870007,0.997516,0.007582,0.014592,0.068496
482,-0.202147,2.403759,6.053555,9.355821,2.529987,6.732192,1.800353,1.667779,8.124788,0.997275,0.014638,0.015628,0.070598
483,-0.650904,2.390800,6.566374,-24.777327,5.745839,2.168027,1.547963,1.801770,8.276959,0.997194,0.012337,0.016655,0.071940
484,-0.157666,2.483943,6.825751,-45.186386,-1.235953,4.114254,0.385427,1.875610,8.382687,0.997190,0.002158,0.016569,0.073022
485,0.704714,2.080909,7.051651,-56.024384,-7.422532,9.848677,-1.293865,1.733161,8.615902,0.996984,-0.012394,0.014232,0.075274
486,0.147512,1.892600,7.516036,-55.373623,-1.611773,8.408961,-3.141067,1.593974,8.925202,0.996468,-0.028404,0.011730,0.078152
487,0.569828,0.562139,6.345516,-46.429047,-4.605675,2.837323,-4.831919,1.503884,9.120162,0.995819,-0.043059,0.009719,0.079978
488,0.350940,-0.236823,5.160677,-27.243906,-5.167651,3.345213,-6.056698,1.352066,9.237719,0.995241,-0.053604,0.007490,0.081030
489,0.177753,-0.215803,4.113212,-8.206456,-3.260234,1.143852,-6.645466,1.220531,9.327372,0.994907,-0.058629,0.005886,0.081781
490,0.083110,-0.973066,3.061757,-1.449399,-4.794257,-1.022021,-6.806051,1.087431,9.345004,0.994829,-0.059931,0.004606,0.081874
491,0.052232,-1.965310,2.187458,-1.894599,-6.503489,-1.679801,-6.862192,0.895129,9.322609,0.994838,-0.060282,0.002908,0.081583
492,-0.417974,-1.617259,2.336455,16.181688,-1.610148,1.685041,-6.623847,0.760849,9.338573,0.994963,-0.058118,0.001904,0.081649
493,-0.288200,-1.614224,2.755139,19.146786,-4.098350,-0.885978,-6.034722,0.667786,9.362033,0.995241,-0.052937,0.001504,0.081799
494,-0.451588,-1.684632,4.950784,23.420218,-6.310495,-3.843419,-5.325933,0.487260,9.300865,0.995607,-0.046652,0.000467,0.081185
495,-0.666976,-1.344003,6.543461,22.284744,-4.104772,-9.085443,-4.565609,0.295629,9.101227,0.996045,-0.039911,-0.000591,0.079379
496,-1.359898,-0.524637,8.709469,12.701335,-0.795034,-7.568239,-3.983793,0.193194,8.830452,0.996424,-0.034785,-0.000996,0.076996
497,-0.715454,-0.033987,11.382035,-5.050086,-8.609536,-4.433588,-3.856692,0.023011,8.641537,0.996593,-0.033569,-0.002335,0.075304
498,-0.464064,0.268998,13.209694,-17.510767,-10.267381,2.720594,-4.232539,-0.293040,8.635538,0.996486,-0.036630,-0.005328,0.075142
499,-0.328650,-0.019584,14.040796,-30.584698,-10.316695,9.483822,-5.035775,-0.618739,8.866254,0.996050,-0.043382,-0.008774,0.076983
500,0.380576,-0.003536,15.113445,-37.432251,-10.984981,13.023972,-6.174665,-0.935563,9.274603,0.995282,-0.053021,-0.012480,0.080290
501,1.315521,-0.484527,15.022355,-35.279358,-12.522964,10.044737,-7.394568,-1.279233,9.702820,0.994343,-0.063308,-0.016553,0.083673
502,1.351138,-0.969830,14.451265,-33.825146,-5.341926,4.110727,-8.553045,-1.541157,9.977579,0.993435,-0.073115,-0.019845,0.085712
503,1.189356,-1.579899,14.156931,-31.319971,-1.346060,-1.307019,-9.640466,-1.643265,10.041845,0.992643,-0.082448,-0.021588,0.086001
504,1.109674,-1.815159,13.085491,-22.106211,3.188562,-9.092022,-10.525810,-1.642907,9.865986,0.992107,-0.090149,-0.022110,0.084309
505,0.580992,-2.410460,12.167855,-21.606071,7.106227,-10.995102,-11.244328,-1.536972,9.504897,0.991788,-0.096516,-0.021418,0.081135
506,0.496839,-2.669214,11.685766,-20.554317,9.628982,-10.078821,-11.937016,-1.334165,9.104874,0.991470,-0.102728,-0.019796,0.077729
507,-0.227589,-2.932647,11.304137,-19.252169,11.930992,-7.665505,-12.592918,-1.045862,8.739646,0.991113,-0.108658,-0.017401,0.074733
508,-0.122422,-3.009301,10.798306,-18.575394,10.763032,-4.080594,-13.219217,-0.720979,8.464487,0.990679,-0.114326,-0.014727,0.072585
509,-0.107522,-3.136603,10.556906,-18.398268,8.987242,-0.380114,-13.834020,-0.418501,8.315216,0.990135,-0.119851,-0.012347,0.071533
510,-0.254326,-3.203453,10.433414,-15.345531,6.805922,2.741554,-14.396343,-0.153820,8.289163,0.989536,-0.124878,-0.010384,0.071536
511,-0.247432,-3.065821,10.119911,-11.749260,3.780225,5.349088,-14.848055,0.050796,8.375101,0.988966,-0.128899,-0.008997,0.072466
512,-0.154621,-3.135984,9.898348,-9.236842,0.844331,7.594401,-15.197500,0.181021,8.563453,0.988435,-0.131982,-0.008311,0.074213
513,-0.287327,-3.041536,9.667127,-5.527417,-0.234917,7.589596,-15.442702,0.257570,8.804810,0.987984,-0.134130,-0.008092,0.076366
514,-0.237882,-2.960817,9.573361,-4.824246,-1.776194,8.214164,-15.613980,0.295719,9.067568,0.987600,-0.135613,-0.008189,0.078663
515,-0.166344,-2.734861,9.518701,-3.238991,-2.296213,7.972741,-15.746943,0.303260,9.345641,0.987248,-0.136744,-0.008547,0.081059
516,-0.127141,-2.545543,9.404735,-2.100648,-2.281829,5.772393,-15.834690,0.292148,9.586841,0.986971,-0.137473,-0.008994,0.083117
517,-0.014202,-2.500524,9.409451,-3.167993,-1.829894,4.381258,-15.921619,0.272527,9.768357,0.986736,-0.138193,-0.009445,0.084649
518,0.190825,-2.455789,9.455362,-3.878880,-2.197454,3.023120,-16.038452,0.241995,9.905475,0.986496,-0.139165,-0.009961,0.085783
519,0.172234,-2.432667,9.535226,-3.317158,-0.690442,-0.062770,-16.158157,0.209450,9.966223,0.986309,-0.140165,-0.010405,0.086256
520,0.138288,-2.370070,9.593269,-3.637486,0.839368,-1.939731,-16.274193,0.202540,9.933487,0.986192,-0.141162,-0.010511,0.085955
521,0.099189,-2.510251,9.744238,-5.863218,2.276583,-2.735452,-16.432878,0.230450,9.844105,0.986059,-0.142556,-0.010279,0.085206
522,-0.024181,-2.447559,9.827651,-4.727562,3.001543,-4.145139,-16.609997,0.282175,9.709155,0.985930,-0.144130,-0.009796,0.084094
523,-0.121171,-2.263471,9.822449,-2.530001,3.471187,-4.708173,-16.731895,0.343220,9.536861,0.985894,-0.145237,-0.009142,0.082678
524,-0.093673,-2.183857,9.713467,-1.491094,3.193690,-3.568702,-16.799994,0.409820,9.372744,0.985916,-0.145883,-0.008409,0.081345
525,-0.132228,-2.227150,9.668523,-0.947851,3.292935,-3.940931,-16.841816,0.477092,9.221652,0.985960,-0.146300,-0.007667,0.080128
526,-0.209140,-1.964514,9.639884,2.221117,3.075582,-3.699077,-16.821953,0.541823,9.069036,0.986082,-0.146183,-0.006901,0.078898
527,-0.184329,-1.814816,9.643118,4.461488,2.373012,-1.857203,-16.711721,0.602093,8.954181,0.986292,-0.145281,-0.006161,0.077992
528,-0.063349,-1.881536,9.691259,3.333635,1.578654,-1.169365,-16.582542,0.650777,8.886992,0.986494,-0.144205,-0.005569,0.077481
529,-0.045103,-1.848828,9.844311,4.241046,1.266032,-0.222648,-16.456718,0.689638,8.851267,0.986670,-0.143149,-0.005105,0.077228
530,-0.046750,-1.766925,9.793840,6.253193,0.931942,1.376738,-16.281715,0.730218,8.859401,0.986876,-0.141669,-0.004648,0.077356
531,0.062203,-1.876686,9.743052,5.440773,0.464986,1.702711,-16.086266,0.766902,8.902211,0.987082,-0.140008,-0.004252,0.077777
532,0.127918,-2.179631,9.610832,4.427066,0.657462,0.359886,-15.921423,0.794371,8.930103,0.987259,-0.138605,-0.003937,0.078056
533,0.007845,-2.263372,9.461716,4.827704,2.326298,-1.160791,-15.767551,0.838553,8.903683,0.987455,-0.137309,-0.003420,0.077886
534,-0.113554,-2.561260,9.349346,0.843044,3.258829,-2.963513,-15.674426,0.909510,8.812270,0.987617,-0.136556,-0.002636,0.077185
535,0.016120,-2.817701,9.370493,-2.898340,2.559217,-5.988984,-15.711451,0.962465,8.642352,0.987678,-0.136913,-0.002002,0.075782
536,-0.033010,-2.967925,9.375254,-5.270947,2.446384,-8.745006,-15.851957,0.975920,8.383298,0.987676,-0.138136,-0.001666,0.073563
537,-0.179762,-2.996185,9.379887,-6.296924,3.023632,-8.817438,-16.049976,0.983117,8.076755,0.987628,-0.139851,-0.001357,0.070927
538,-0.227855,-3.161558,9.564974,-7.926636,2.895167,-8.458871,-16.292299,0.997648,7.772698,0.987512,-0.141952,-0.001005,0.068322
539,-0.146301,-3.051368,9.673203,-5.894173,2.931867,-8.413105,-16.527853,1.011325,7.475473,0.987390,-0.143991,-0.000654,0.065776
540,-0.314717,-2.957647,9.689329,-3.106330,4.349489,-6.308390,-16.682737,1.057545,7.205630,0.987340,-0.145352,-0.000003,0.063508
541,-0.335934,-2.949145,9.749055,-0.537459,5.043000,-3.432725,-16.747395,1.160815,7.005110,0.987351,-0.145962,0.001107,0.061911
542,-0.243708,-2.738203,9.687454,2.335467,4.843435,-2.739473,-16.720583,1.289017,6.859144,0.987441,-0.145794,0.002412,0.060815
543,-0.327504,-2.607857,9.548017,4.480842,4.911024,-1.224745,-16.609592,1.425847,6.749224,0.987616,-0.144902,0.003789,0.060036
544,-0.324465,-2.456869,9.410227,5.948446,3.734313,0.214742,-16.437277,1.559227,6.692104,0.987838,-0.143480,0.005101,0.059703
545,-0.197752,-2.446599,9.536016,6.236373,2.215575,-0.939411,-16.235315,1.651018,6.652628,0.988092,-0.141781,0.006047,0.059466
546,-0.261281,-2.519305,9.429594,7.994425,2.276154,-2.362803,-16.000286,1.707649,6.578970,0.988407,-0.139778,0.006747,0.058887
547,-0.288177,-2.570130,9.475377,8.177153,1.828239,-2.722797,-15.733778,1.750260,6.478703,0.988772,-0.137492,0.007372,0.058056
548,-0.133667,-2.557714,9.497552,9.125215,0.073401,-3.604425,-15.448771,1.752442,6.368573,0.989166,-0.135026,0.007665,0.057089
549,-0.275475,-2.643290,9.412755,8.813614,0.243722,-3.815010,-15.153436,1.724907,6.247890,0.989576,-0.132456,0.007714,0.055996
550,-0.308458,-2.718767,9.157108,6.899439,-0.073826,-2.971073,-14.894844,1.698315,6.137871,0.989931,-0.130203,0.007735,0.054998
551,-0.145799,-2.690939,9.163971,2.796081,-0.591825,-3.271879,-14.736117,1.660986,6.040082,0.990164,-0.128808,0.007599,0.054101
553,-0.265415,-2.602591,9.244500,1.459764,0.317093,-1.958869,-14.667573,1.634401,5.956903,0.990284,-0.128199,0.007495,0.053348
554,-0.270099,-2.586651,9.493577,-1.668216,0.641891,0.112415,-14.672020,1.642067,5.923067,0.990294,-0.128239,0.007597,0.053065
555,-0.102807,-2.695783,9.794870,-4.956459,0.580345,1.175271,-14.781984,1.667216,5.938650,0.990158,-0.129201,0.007745,0.053234
556,-0.256257,-2.708041,9.978652,-8.108714,1.545945,2.191917,-14.998405,1.715880,5.983794,0.989882,-0.131095,0.008014,0.053694
557,-0.369849,-2.653979,10.099980,-11.184334,1.264368,5.442519,-15.316566,1.794357,6.094419,0.989447,-0.133885,0.008413,0.054762
558,-0.120271,-3.257084,9.810684,-17.479736,0.453166,2.881855,-15.790290,1.859084,6.220462,0.988811,-0.138012,0.008594,0.055961
559,-0.207388,-3.685538,9.317730,-22.278078,1.460874,-0.590328,-16.451996,1.900469,6.248226,0.987975,-0.143740,0.008592,0.056300
560,-0.479903,-3.985296,8.896788,-25.986380,2.829640,-2.073633,-17.258488,1.956212,6.184949,0.986958,-0.150710,0.008759,0.055887
561,-0.402760,-4.258755,8.535872,-28.350983,1.839416,-3.279424,-18.167807,2.003282,6.076263,0.985773,-0.158550,0.008871,0.055084
562,-0.234055,-4.727027,8.142005,-32.357395,-0.142447,-6.851262,-19.185402,1.976045,5.907070,0.984413,-0.167273,0.008395,0.053668
563,-0.567523,-4.686204,8.184663,-34.033710,-0.361531,-5.302777,-20.298145,1.899872,5.718942,0.982846,-0.176780,0.007510,0.052017
564,-0.605824,-4.854959,8.324626,-34.077229,-2.109923,-3.025445,-21.436926,1.811804,5.603907,0.981112,-0.186497,0.006425,0.050962
565,-0.391780,-4.986331,8.494627,-33.652580,-5.331704,-2.260371,-22.566683,1.663594,5.568618,0.979273,-0.196101,0.004716,0.050469
566,-0.356063,-5.167515,8.719953,-31.893631,-6.849936,-0.688424,-23.658043,1.457434,5.602898,0.977387,-0.205339,0.002415,0.050437
567,-0.411627,-5.200837,8.868807,-26.426643,-7.252703,1.420761,-24.627392,1.247795,5.710106,0.975608,-0.213516,0.000003,0.050980
568,-0.141237,-5.218404,8.744696,-21.915577,-8.350795,0.718134,-25.430185,1.027065,5.852404,0.974065,-0.220254,-0.002504,0.051766
569,-0.024452,-5.217998,8.665595,-19.218056,-8.100220,-0.177527,-26.113714,0.784047,5.979591,0.972717,-0.225953,-0.005127,0.052352
570,0.075871,-5.243846,8.402249,-17.224434,-7.125700,-1.065978,-26.719988,0.547590,6.073876,0.971502,-0.230988,-0.007599,0.052648
571,0.067472,-5.307817,8.228240,-17.408215,-4.755427,-2.301398,-27.296888,0.345728,6.113784,0.970337,-0.235783,-0.009656,0.052532
572,0.012332,-5.145119,8.465455,-17.879036,-0.735167,-4.357547,-27.885290,0.213320,6.057873,0.969156,-0.240709,-0.010928,0.051731
573,-0.001573,-4.807621,8.655050,-15.171714,2.186125,-6.122457,-28.436695,0.152365,5.892589,0.968068,-0.245359,-0.011338,0.050151
574,-0.161349,-4.325705,8.706700,-10.298842,4.030628,-5.464562,-28.861807,0.150855,5.673500,0.967245,-0.248970,-0.011060,0.048257
575,-0.362524,-4.034812,8.782867,-6.111008,5.634706,-3.560339,-29.136005,0.218914,5.463907,0.966725,-0.251331,-0.010142,0.046611
576,-0.153915,-3.756624,8.902168,-1.116865,4.651303,-3.707537,-29.257376,0.309524,5.274605,0.966523,-0.252406,-0.009010,0.045203
577,-0.158039,-3.728949,8.724167,5.551945,3.545203,-1.700680,-29.184330,0.384811,5.129272,0.966731,-0.251829,-0.008027,0.044148
578,-0.145600,-3.757426,8.695057,12.211032,2.126629,1.006076,-28.888708,0.461923,5.073304,0.967389,-0.249366,-0.007140,0.043864
579,0.178120,-3.797661,8.697168,20.820570,0.804607,0.106787,-28.338268,0.513785,5.066227,0.968572,-0.244736,-0.006476,0.043948
580,0.356031,-3.718452,8.923502,31.478954,1.123633,-2.489822,-27.467094,0.523596,5.016185,0.970422,-0.237371,-0.005955,0.043593
581,0.181112,-3.625529,8.993739,44.720741,2.962933,-4.562795,-26.198450,0.531195,4.880626,0.973041,-0.226622,-0.005139,0.042520
582,0.090795,-3.011657,8.883421,57.535671,4.259072,-7.164286,-24.496643,0.556179,4.652437,0.976379,-0.212164,-0.003872,0.040693
583,-0.330853,-2.846701,9.096508,58.389790,5.490713,-4.625583,-22.567614,0.626539,4.407481,0.979889,-0.195728,-0.002166,0.038778
584,-0.558484,-3.182765,9.109550,48.394787,4.206736,-1.358171,-20.790279,0.740134,4.254858,0.982845,-0.180543,-0.000350,0.037677
585,0.088307,-3.120732,9.579893,38.050968,0.057281,-3.370895,-19.351185,0.780170,4.156381,0.985063,-0.168198,0.000612,0.036890
586,-0.639871,-2.609237,10.366830,28.422398,1.820244,0.638559,-18.244146,0.794986,4.103642,0.986657,-0.158678,0.001169,0.036449
587,-1.143557,-3.077036,10.758729,14.243519,2.199942,8.148109,-17.531366,0.903948,4.222188,0.987574,-0.152573,0.002177,0.037607
588,-0.426609,-2.849030,10.308958,12.029489,-1.632213,8.099744,-17.089296,0.994042,4.477686,0.988058,-0.148796,0.002768,0.039918
589,-0.136528,-1.772016,10.199522,19.998478,-1.125888,7.400721,-16.550991,1.024871,4.738415,0.988649,-0.144170,0.002893,0.042193
590,-0.851595,-1.523489,10.095713,24.274963,2.699283,13.777280,-15.806828,1.148217,5.070145,0.989421,-0.137801,0.003833,0.045185
591,-0.021521,-1.387648,9.519272,26.459162,-0.449947,12.874546,-14.952279,1.302330,5.488305,0.990227,-0.130495,0.005026,0.048943
592,0.731687,-0.821551,9.510408,31.652771,-3.234004,5.880608,-13.976637,1.320881,5.806597,0.991160,-0.122082,0.005264,0.051671
593,0.347272,-0.690175,10.033820,31.957081,-0.903859,1.937888,-12.913410,1.283555,5.949699,0.992190,-0.112871,0.005279,0.052823
594,0.326070,-0.771660,10.208474,31.074831,-1.266826,-2.600348,-11.863044,1.245514,5.946562,0.993190,-0.103755,0.005436,0.052711
595,0.415100,-0.587401,9.880689,29.772356,-2.392079,-8.912226,-10.852702,1.147614,5.770527,0.994159,-0.094943,0.005197,0.051054
596,0.463068,-0.762828,9.910769,26.298372,-4.677235,-13.927334,-9.924780,0.962637,5.417500,0.995069,-0.086798,0.004272,0.047806
597,0.311685,-0.926147,9.903100,25.310539,-5.555662,-17.948921,-9.071898,0.706378,4.921902,0.995909,-0.079274,0.002744,0.043290
598,0.293733,-0.836589,9.674335,24.322004,-5.352757,-21.689585,-8.250958,0.426903,4.296314,0.996691,-0.072029,0.001017,0.037654
599,0.073643,-1.016962,9.966836,17.533613,-4.074698,-23.888506,-7.557266,0.166562,3.565603,0.997339,-0.065915,-0.000601,0.031139
600,-0.124565,-0.850543,10.076486,18.140993,-3.055778,-24.845676,-6.963600,-0.054440,2.775043,0.997862,-0.060702,-0.001945,0.024141
601,-0.339323,-0.724962,9.980232,20.597946,0.097974,-22.715418,-6.316363,-0.195064,1.993396,0.998330,-0.055055,-0.002658,0.017275
602,-0.416210,-0.605900,9.923611,20.108879,0.943612,-18.813643,-5.635461,-0.249630,1.303075,0.998725,-0.049131,-0.002735,0.011250
603,-0.347452,-0.640572,10.004711,21.248692,0.731030,-14.776974,-4.943703,-0.273284,0.743025,0.999046,-0.043112,-0.002662,0.006375
604,-0.368486,-0.513457,9.897871,26.210350,0.568127,-10.517099,-4.150708,-0.284871,0.321087,0.999337,-0.036207,-0.002586,0.002710
605,-0.297956,-0.598665,9.784148,27.219959,-0.253709,-6.268166,-3.258844,-0.297320,0.041591,0.999592,-0.028434,-0.002604,0.000289
606,-0.160726,-0.406254,9.729072,27.287197,-2.313258,-4.282742,-2.349463,-0.348353,-0.131901,0.999785,-0.020505,-0.003016,-0.001213
607,-0.011057,-0.329876,9.690156,24.973225,-3.749316,-1.783795,-1.477801,-0.452572,-0.229441,0.999907,-0.012904,-0.003923,-0.002053
608,0.045796,-0.194376,9.790526,20.188158,-4.152492,-0.703618,-0.724775,-0.584890,-0.268252,0.999964,-0.006337,-0.005089,-0.002373
609,0.169739,-0.158563,9.712317,14.306131,-4.713125,-0.390117,-0.149687,-0.732734,-0.285285,0.999976,-0.001322,-0.006391,-0.002498
610,0.206244,-0.217013,9.877603,8.106791,-4.535320,-0.159650,0.223987,-0.886860,-0.294462,0.999965,0.001935,-0.007744,-0.002554
611,0.213482,-0.219553,9.928109,6.050576,-4.144421,0.376749,0.459896,-1.031538,-0.291642,0.999948,0.003990,-0.009012,-0.002509
612,0.264884,-0.117365,9.972064,4.296162,-3.313591,-0.329786,0.632354,-1.155830,-0.292029,0.999931,0.005492,-0.010100,-0.002493
613,0.241319,-0.146793,9.955437,3.223442,-2.321390,-0.376662,0.757945,-1.249604,-0.304939,0.999915,0.006585,-0.010922,-0.002589
614,0.176731,-0.219751,9.984441,1.589671,-0.745363,-0.905183,0.838654,-1.300416,-0.327021,0.999905,0.007286,-0.011369,-0.002770
615,0.189696,-0.117797,9.965880,0.377191,-0.222704,-2.521500,0.872740,-1.315701,-0.384385,0.999900,0.007577,-0.011507,-0.003267
616,0.028794,-0.350744,9.946393,-5.251611,1.130336,-4.438764,0.794137,-1.298897,-0.500187,0.999903,0.006880,-0.011365,-0.004286
617,0.063455,-0.342405,9.979418,-10.993634,0.756730,-7.396951,0.527781,-1.265208,-0.697120,0.999910,0.004538,-0.011068,-0.006032
618,0.090838,-0.417695,9.735711,-20.063519,0.334634,-10.739117,0.016803,-1.245607,-0.999385,0.999903,0.000052,-0.010871,-0.008719
619,0.141064,-0.384945,9.873557,-32.567451,-0.679432,-13.192898,-0.851627,-1.254333,-1.398299,0.999837,-0.007564,-0.010854,-0.012282
620,0.051123,-0.549154,9.853510,-35.433998,-0.268215,-11.649856,-1.975702,-1.280542,-1.811937,0.999661,-0.017414,-0.010899,-0.016001
621,0.191977,-0.571633,9.679702,-36.631165,-0.608593,-9.362820,-3.168757,-1.311065,-2.161130,0.999369,-0.027858,-0.010913,-0.019166
622,0.226463,-0.805667,9.619177,-41.699902,-0.026473,-6.185214,-4.468130,-1.339110,-2.419023,0.998939,-0.039217,-0.010851,-0.021546
623,0.351263,-1.148081,9.997003,-42.372959,-0.297539,-3.244335,-5.865466,-1.359028,-2.574975,0.998354,-0.051413,-0.010691,-0.023045
624,0.260868,-1.392778,9.714681,-33.171947,0.216948,-1.149554,-7.122614,-1.368950,-2.647581,0.997714,-0.062371,-0.010485,-0.023798
625,0.353567,-1.334461,9.627898,-34.529163,-0.223502,-0.966304,-8.250005,-1.373910,-2.682453,0.997044,-0.072188,-0.010271,-0.024207
626,0.366391,-1.391866,10.078341,-29.235420,-0.037821,3.502282,-9.313653,-1.371785,-2.640041,0.996341,-0.081435,-0.010058,-0.023931
627,0.385051,-1.640804,10.297490,0.402706,1.142977,11.835141,-9.799987,-1.311539,-2.390896,0.996043,-0.085631,-0.009619,-0.021763
628,0.227582,-1.562634,9.968130,37.199173,2.459277,18.982277,-9.184043,-1.168442,-1.893886,0.996589,-0.080213,-0.008839,-0.017289
629,0.197215,-1.399637,9.909358,56.060535,2.765797,23.590580,-7.642791,-0.979529,-1.204455,0.997679,-0.066730,-0.007828,-0.011057
630,0.241294,-1.476854,10.066268,62.846596,2.397277,24.633230,-5.673829,-0.801369,-0.416178,0.998742,-0.049517,-0.006805,-0.003973
631,0.206928,-1.288435,9.856977,62.755898,1.567907,19.457300,-3.590654,-0.676448,0.310763,0.999489,-0.031313,-0.005985,0.002526
632,0.034848,-0.868576,9.601026,45.429035,0.458933,10.458144,-1.793886,-0.620087,0.807191,0.999839,-0.015615,-0.005521,0.006958
633,0.070513,-0.551203,9.789398,19.269163,-0.403789,3.126442,-0.718290,-0.614757,1.033591,0.999926,-0.006219,-0.005421,0.008986
634,0.160508,-0.455434,10.028076,5.056061,-0.946660,-1.394913,-0.313229,-0.637147,1.062715,0.999938,-0.002682,-0.005585,0.009258
635,0.110227,-0.269231,9.912855,5.561325,-0.879979,-4.215861,-0.135219,-0.668060,0.969356,0.999947,-0.001131,-0.005840,0.008452
636,0.112291,-0.209856,9.825631,6.857996,-0.915585,-4.828831,0.073559,-0.698100,0.818615,0.999956,0.000685,-0.006087,0.007147
637,0.106453,-0.137564,9.878378,5.837226,-1.321157,-5.035492,0.287202,-0.734856,0.654079,0.999960,0.002543,-0.006398,0.005724
638,0.093974,-0.068380,9.937639,5.201840,-1.651060,-4.931404,0.473394,-0.783304,0.487635,0.999959,0.004160,-0.006818,0.004284
639,0.101740,0.005235,9.908085,6.435619,-1.949397,-4.834007,0.669672,-0.841691,0.324278,0.999952,0.005865,-0.007328,0.002873
640,0.139416,0.125856,9.912223,6.537848,-2.231886,-4.331587,0.888248,-0.909280,0.170567,0.999937,0.007763,-0.007923,0.001550
641,0.175561,0.214996,9.929059,5.434772,-2.171521,-3.891788,1.090077,-0.980284,0.032251,0.999918,0.009515,-0.008551,0.000363
642,0.218505,0.270991,9.930430,4.745986,-1.672201,-3.524355,1.261961,-1.041800,-0.092654,0.999898,0.011005,-0.009100,-0.000708
643,0.229475,0.276195,9.895190,4.431958,-0.903859,-3.109409,1.416991,-1.082139,-0.204212,0.999878,0.012348,-0.009465,-0.001665
644,0.248224,0.307334,9.920160,3.499444,-0.272938,-2.707874,1.551031,-1.099233,-0.301667,0.999859,0.013509,-0.009627,-0.002502
645,0.214910,0.313747,9.912913,3.344803,0.490499,-2.450034,1.666740,-1.093197,-0.387517,0.999843,0.014512,-0.009588,-0.003242
646,0.196879,0.328744,9.909901,3.554740,0.911610,-2.358943,1.783225,-1.067425,-0.466947,0.999828,0.015522,-0.009377,-0.003929
647,0.180603,0.355527,9.906651,3.018738,0.935280,-2.309712,1.894189,-1.034161,-0.543746,0.999812,0.016485,-0.009102,-0.004595
648,0.158307,0.334242,9.936543,1.961452,0.797224,-2.381777,1.978563,-1.002663,-0.620931,0.999799,0.017217,-0.008842,-0.005267
649,0.128315,0.267799,9.953866,2.396277,0.563248,-2.430527,2.052564,-0.977188,-0.700302,0.999786,0.017858,-0.008635,-0.005957
650,0.164658,0.325230,9.911613,3.873078,-0.195261,-2.457546,2.158433,-0.968064,-0.781500,0.999765,0.018776,-0.008575,-0.006659
651,0.178121,0.336856,9.957019,3.048464,-0.790068,-2.578843,2.275234,-0.981219,-0.866017,0.999739,0.019788,-0.008711,-0.007386
652,0.179830,0.317687,9.957094,3.863189,-0.989690,-2.899932,2.392036,-1.007145,-0.958470,0.999710,0.020798,-0.008961,-0.008179
653,0.183417,0.382082,9.918569,5.693044,-1.052553,-3.128580,2.553124,-1.036813,-1.060336,0.999670,0.022193,-0.009251,-0.009049
654,0.189782,0.464090,9.894996,5.571576,-0.981273,-3.374768,2.742882,-1.065655,-1.170197,0.999621,0.023837,-0.009541,-0.009986
656,0.183202,0.463613,9.911628,3.966262,-0.662311,-3.429193,2.903999,-1.087434,-1.284829,0.999574,0.025230,-0.009770,-0.010967
657,0.170347,0.483725,9.893393,4.048228,-0.320828,-3.097507,3.039659,-1.098171,-1.394331,0.999531,0.026403,-0.009902,-0.011909
658,0.166889,0.507924,9.884838,3.320759,0.061820,-2.566907,3.164283,-1.097369,-1.488853,0.999492,0.027482,-0.009930,-0.012722
659,0.193849,0.523064,9.896017,2.532357,0.098984,-2.045130,3.263295,-1.090384,-1.565467,0.999460,0.028340,-0.009899,-0.013384
660,0.191983,0.595651,9.896055,2.246378,0.276816,-1.553974,3.344068,-1.080675,-1.625002,0.999433,0.029040,-0.009839,-0.013899
661,0.176111,0.618665,9.901979,1.683126,0.585229,-1.256030,3.410418,-1.063572,-1.670917,0.999412,0.029617,-0.009710,-0.014298
662,0.156485,0.549156,9.935405,1.161201,0.998968,-1.156940,3.458529,-1.034807,-1.709488,0.999397,0.030038,-0.009475,-0.014638
663,0.141561,0.591205,9.897319,2.481481,1.190513,-0.988731,3.519831,-0.996208,-1.742969,0.999379,0.030575,-0.009155,-0.014935
664,0.125739,0.627084,9.912373,1.657238,1.411052,-0.843699,3.589281,-0.951034,-1.770764,0.999360,0.031184,-0.008778,-0.015184
665,0.114530,0.575869,9.925543,0.821444,1.552530,-0.768935,3.630975,-0.900048,-1.794484,0.999349,0.031553,-0.008345,-0.015402
666,0.107159,0.550963,9.912091,1.108635,1.531519,-0.798018,3.663490,-0.847091,-1.817284,0.999340,0.031842,-0.007894,-0.015613
667,0.110193,0.614170,9.871511,1.025445,1.278853,-0.866205,3.699411,-0.798567,-1.841957,0.999329,0.032161,-0.007483,-0.015840
