seq,ax,ay,az,wroll,wpitch,wyaw,roll,pitch,yaw,q0,q1,q2,q3
5473,0.001090,0.051358,0.046310,-0.141262,-0.911562,0.060476,-132.038864,0.902620,-178.999054,0.010747,-0.004779,0.913648,-0.406336
5475,-0.004345,0.059663,0.017238,-0.122452,-0.059945,0.045355,-132.046570,0.915687,-178.988266,0.010889,-0.004820,0.913675,-0.406272
5476,-0.008265,0.054751,0.015459,-0.149988,-0.081321,0.024009,-132.057892,0.920242,-178.987396,0.010928,-0.004812,0.913715,-0.406181
5477,-0.009786,0.054074,0.014804,-0.136321,-0.078286,0.025555,-132.069290,0.925244,-178.986084,0.010972,-0.004806,0.913755,-0.406090
5478,-0.001489,0.044880,0.014308,-0.061609,-0.064564,0.046931,-132.078461,0.929492,-178.985214,0.011008,-0.004798,0.913787,-0.406016
5479,-0.005350,0.040350,0.016716,-0.046395,-0.059993,0.059148,-132.084763,0.933367,-178.984940,0.011040,-0.004787,0.913809,-0.405966
5480,-0.007517,0.026514,0.017361,-0.061680,-0.053902,0.045429,-132.089157,0.937823,-178.984741,0.011076,-0.004774,0.913825,-0.405930
5482,-0.002505,0.026199,0.017010,-0.041878,-0.046292,0.059184,-132.094421,0.943231,-178.984726,0.011119,-0.004755,0.913843,-0.405887
5483,-0.005384,0.027640,0.018036,-0.070932,-0.050906,0.048545,-132.102341,0.951123,-178.984818,0.011181,-0.004727,0.913871,-0.405824
5484,-0.007559,0.021067,0.017482,-0.125909,-0.063168,0.024192,-132.109985,0.961640,-178.984299,0.011266,-0.004695,0.913898,-0.405761
5485,-0.002201,0.029991,0.014660,-0.176332,-0.069318,0.004407,-132.121689,0.970329,-178.983093,0.011340,-0.004675,0.913939,-0.405667
5486,0.000558,0.040680,0.014377,-0.191744,-0.084591,0.007479,-132.143204,0.974682,-178.981583,0.011379,-0.004673,0.914015,-0.405495
5487,0.005777,0.041405,0.019452,-0.199559,-0.081524,0.016621,-132.168274,0.974809,-178.980118,0.011384,-0.004687,0.914103,-0.405295
5489,0.011164,0.039788,0.019259,-0.192097,-0.087571,0.010460,-132.191422,0.968993,-178.978607,0.011342,-0.004722,0.914185,-0.405111
5490,0.013889,0.046005,0.023082,-0.180056,-0.084431,0.017996,-132.214279,0.958405,-178.977081,0.011262,-0.004774,0.914266,-0.404929
5491,0.009510,0.037293,0.028843,-0.183228,-0.093502,0.031639,-132.232285,0.948655,-178.975647,0.011188,-0.004822,0.914330,-0.404786
5492,0.007136,0.030559,0.028999,-0.184790,-0.084287,0.026998,-132.242081,0.942635,-178.974167,0.011145,-0.004856,0.914365,-0.404709
5493,0.004287,0.031917,0.028766,-0.177171,-0.084249,0.016274,-132.249115,0.939383,-178.972580,0.011125,-0.004880,0.914390,-0.404653
5494,-0.001804,0.031618,0.033469,-0.149698,-0.076615,0.040684,-132.253891,0.941275,-178.971222,0.011144,-0.004885,0.914407,-0.404614
5496,-0.003550,0.029278,0.030570,-0.145095,-0.073591,0.051396,-132.256226,0.948153,-178.970367,0.011202,-0.004868,0.914415,-0.404595
5497,-0.003849,0.031744,0.031186,-0.114558,-0.061421,0.046859,-132.258667,0.956468,-178.969772,0.011270,-0.004843,0.914423,-0.404574
5498,-0.002382,0.037684,0.031896,-0.088622,-0.064508,0.046897,-132.262573,0.964189,-178.969284,0.011334,-0.004821,0.914436,-0.404542
5499,0.000392,0.027845,0.030947,-0.056570,-0.078260,0.040814,-132.264252,0.969696,-178.968491,0.011380,-0.004808,0.914442,-0.404528
5500,0.006099,0.032290,0.027007,-0.088605,-0.067566,0.025540,-132.265732,0.970165,-178.967422,0.011388,-0.004815,0.914447,-0.404516
5501,0.008013,0.038840,0.027491,-0.087123,-0.076677,0.016337,-132.273041,0.965811,-178.966187,0.011357,-0.004841,0.914473,-0.404458
5503,0.011311,0.035867,0.030728,-0.087171,-0.084241,0.025422,-132.280670,0.958479,-178.964737,0.011303,-0.004879,0.914500,-0.404398
5504,0.012318,0.031715,0.030747,-0.113121,-0.075003,0.022279,-132.284973,0.948606,-178.963333,0.011229,-0.004925,0.914516,-0.404365
5505,0.009456,0.036244,0.028718,-0.197065,-0.048985,0.028298,-132.291931,0.939083,-178.962402,0.011156,-0.004967,0.914540,-0.404310
5506,0.013819,0.031093,0.023777,-0.194060,0.070123,0.048043,-132.303146,0.927311,-178.963593,0.011058,-0.005000,0.914581,-0.404222
5507,0.003979,0.021244,0.027421,-0.195588,0.140382,0.057124,-132.309906,0.916218,-178.967361,0.010955,-0.005010,0.914605,-0.404169
5508,-0.000544,0.022829,0.020580,-0.236770,0.207540,0.046424,-132.315384,0.911065,-178.972794,0.010895,-0.004985,0.914625,-0.404127
5510,-0.005372,0.018071,0.019477,-0.233720,0.228884,0.064757,-132.323441,0.910384,-178.979416,0.010866,-0.004935,0.914653,-0.404063
5511,-0.006100,0.020200,0.021597,-0.161989,0.213582,0.083113,-132.329041,0.913477,-178.986511,0.010865,-0.004868,0.914673,-0.404019
5512,-0.005506,0.025324,0.024849,-0.134512,0.076202,0.072482,-132.333069,0.919039,-178.991806,0.010891,-0.004807,0.914688,-0.403986
5513,0.000335,0.031679,0.020489,-0.133021,0.005984,0.075564,-132.340958,0.923907,-178.994537,0.010920,-0.004769,0.914715,-0.403923
5514,0.004706,0.035998,0.018031,-0.062930,-0.045888,0.093866,-132.354385,0.925081,-178.996124,0.010923,-0.004753,0.914763,-0.403816
5515,0.007774,0.039834,0.022008,-0.002021,-0.074841,0.099931,-132.368271,0.923328,-178.997009,0.010905,-0.004754,0.914812,-0.403706
5517,0.010656,0.040623,0.021303,-0.038775,-0.077832,0.084608,-132.382156,0.918445,-178.997421,0.010864,-0.004769,0.914861,-0.403595
5518,0.000531,0.028386,0.026373,-0.049531,-0.065588,0.087620,-132.391037,0.916815,-178.997711,0.010850,-0.004773,0.914892,-0.403524
5519,0.003719,0.027718,0.028516,-0.057155,-0.056422,0.075402,-132.392349,0.918755,-178.998032,0.010864,-0.004764,0.914897,-0.403514
5520,-0.001103,0.021860,0.034282,-0.083030,-0.059473,0.055562,-132.388107,0.921392,-178.997971,0.010886,-0.004755,0.914882,-0.403547
5521,0.002204,0.020692,0.031067,-0.140911,-0.056426,0.029625,-132.381348,0.924257,-178.997330,0.010911,-0.004749,0.914858,-0.403601
5522,0.001112,0.019930,0.028746,-0.119456,-0.039637,0.029618,-132.376511,0.925328,-178.996658,0.010922,-0.004750,0.914841,-0.403640
5524,0.001845,0.022396,0.025568,-0.119393,-0.027425,0.029612,-132.374222,0.926052,-178.996399,0.010929,-0.004749,0.914833,-0.403658
5525,0.002812,0.026350,0.025854,-0.110212,-0.028940,0.031126,-132.375443,0.925751,-178.996353,0.010927,-0.004751,0.914837,-0.403648
5526,0.009891,0.028541,0.027175,-0.091894,-0.030426,0.031081,-132.378067,0.921169,-178.996307,0.010890,-0.004768,0.914846,-0.403627
5527,0.008679,0.027906,0.027639,-0.055263,-0.030362,0.050848,-132.379700,0.913368,-178.996460,0.010827,-0.004794,0.914852,-0.403615
5528,0.004421,0.021837,0.032511,-0.033844,-0.036420,0.064529,-132.375656,0.908697,-178.996841,0.010789,-0.004807,0.914838,-0.403648
5529,0.006410,0.023000,0.035712,-0.007793,-0.048593,0.067541,-132.365295,0.905981,-178.997101,0.010767,-0.004814,0.914802,-0.403731
5531,0.005561,0.024021,0.034936,0.004534,-0.051608,0.072076,-132.353455,0.903147,-178.997253,0.010744,-0.004821,0.914760,-0.403826
5532,0.004032,0.022241,0.026258,-0.010641,-0.053105,0.082723,-132.345001,0.901771,-178.997574,0.010732,-0.004823,0.914730,-0.403894
5533,0.000185,0.025866,0.024597,-0.021287,-0.042414,0.075081,-132.342056,0.903274,-178.998108,0.010742,-0.004813,0.914720,-0.403917
5534,0.004451,0.032408,0.022054,-0.033517,-0.051559,0.073545,-132.345337,0.904714,-178.998657,0.010752,-0.004804,0.914732,-0.403891
5535,0.003313,0.039944,0.018211,-0.044304,-0.054590,0.073523,-132.357193,0.904660,-178.999161,0.010749,-0.004801,0.914773,-0.403796
5536,0.003293,0.038992,0.025115,-0.076475,-0.046941,0.068929,-132.371780,0.905026,-178.999710,0.010749,-0.004797,0.914825,-0.403680
5538,0.001207,0.039917,0.032723,-0.046027,-0.060665,0.082653,-132.380905,0.906834,-179.000198,0.010762,-0.004787,0.914857,-0.403607
5539,0.000214,0.038394,0.036801,-0.029259,-0.068299,0.091813,-132.383896,0.911050,-179.000610,0.010794,-0.004770,0.914867,-0.403582
5540,0.000674,0.040955,0.033017,-0.044532,-0.065254,0.075037,-132.386536,0.915736,-179.000854,0.010830,-0.004751,0.914876,-0.403561
5541,0.001929,0.033234,0.034801,-0.082684,-0.068307,0.059779,-132.389038,0.919079,-179.000732,0.010857,-0.004741,0.914885,-0.403540
5542,-0.001169,0.036147,0.028819,-0.072006,-0.074417,0.059787,-132.391953,0.923140,-179.000320,0.010891,-0.004730,0.914895,-0.403517
5543,0.002649,0.039466,0.026237,-0.093428,-0.063740,0.043007,-132.400742,0.926594,-178.999878,0.010920,-0.004722,0.914926,-0.403446
5545,0.002959,0.037754,0.023246,-0.098101,-0.068305,0.030788,-132.413300,0.927305,-178.999237,0.010927,-0.004726,0.914970,-0.403346
5546,0.004772,0.030701,0.029164,-0.076791,-0.072861,0.033817,-132.421585,0.926586,-178.998306,0.010924,-0.004737,0.914999,-0.403280
5547,0.006790,0.025733,0.028393,-0.017267,-0.068248,0.049038,-132.421677,0.923891,-178.997482,0.010906,-0.004753,0.915000,-0.403279
5548,0.002817,0.022051,0.028316,0.007199,-0.066692,0.045952,-132.416733,0.922086,-178.996811,0.010894,-0.004764,0.914982,-0.403319
5549,0.002500,0.018301,0.035191,0.019516,-0.068204,0.045935,-132.405289,0.922599,-178.996002,0.010901,-0.004768,0.914942,-0.403410
5550,0.005469,0.013855,0.035966,0.022745,-0.083444,0.048961,-132.387024,0.922148,-178.994919,0.010902,-0.004776,0.914878,-0.403556
5552,0.004566,0.020512,0.035556,0.022920,-0.091045,0.053503,-132.368698,0.920904,-178.993637,0.010898,-0.004789,0.914813,-0.403702
5553,0.002121,0.036008,0.032436,0.010794,-0.091028,0.055009,-132.359909,0.921663,-178.992493,0.010908,-0.004795,0.914782,-0.403772
5554,0.008804,0.034572,0.034554,0.018443,-0.103206,0.073286,-132.357529,0.920840,-178.991501,0.010905,-0.004805,0.914774,-0.403791
5555,0.009350,0.033756,0.029751,0.036765,-0.101622,0.088482,-132.355499,0.916563,-178.990784,0.010874,-0.004826,0.914767,-0.403808
5556,0.009514,0.044172,0.025504,0.047387,-0.095455,0.089940,-132.360016,0.911726,-178.990448,0.010836,-0.004846,0.914783,-0.403772
5557,0.002714,0.042665,0.023621,0.033532,-0.083208,0.092951,-132.370819,0.910231,-178.990494,0.010824,-0.004852,0.914821,-0.403686
5559,0.003557,0.034542,0.029011,0.010564,-0.093872,0.086830,-132.378006,0.912119,-178.990463,0.010838,-0.004846,0.914846,-0.403628
5560,0.005300,0.032393,0.030960,0.002924,-0.064857,0.077650,-132.378845,0.912483,-178.990372,0.010842,-0.004846,0.914849,-0.403622
5561,0.004226,0.038312,0.028161,-0.038299,-0.055674,0.047102,-132.381699,0.911367,-178.990326,0.010833,-0.004850,0.914859,-0.403599
5562,0.008324,0.039601,0.034686,-0.053596,-0.048005,0.045534,-132.386871,0.907927,-178.990143,0.010806,-0.004864,0.914877,-0.403558
5563,0.008346,0.033813,0.035583,-0.049011,-0.052528,0.047000,-132.387924,0.902047,-178.989944,0.010759,-0.004887,0.914881,-0.403550
5564,0.009030,0.039704,0.038497,-0.039830,-0.046366,0.045409,-132.386887,0.895561,-178.989716,0.010708,-0.004911,0.914878,-0.403559
5566,0.004796,0.045244,0.033461,-0.042904,-0.066157,0.049937,-132.390488,0.891172,-178.989441,0.010674,-0.004929,0.914891,-0.403531
5567,0.007837,0.036703,0.037210,-0.027666,-0.075271,0.066678,-132.393723,0.888224,-178.989044,0.010652,-0.004943,0.914902,-0.403505
5568,-0.001432,0.027966,0.034304,-0.024568,-0.081358,0.074288,-132.390045,0.889143,-178.988632,0.010661,-0.004943,0.914889,-0.403534
5569,0.002366,0.035712,0.036000,-0.038251,-0.067630,0.065137,-132.386047,0.893210,-178.988281,0.010695,-0.004931,0.914875,-0.403566
5570,0.009747,0.028883,0.031163,-0.030586,-0.055389,0.072729,-132.383698,0.891250,-178.988266,0.010679,-0.004938,0.914867,-0.403585
5571,0.006465,0.021704,0.035635,-0.022874,-0.055337,0.083352,-132.376328,0.886560,-178.988525,0.010641,-0.004952,0.914841,-0.403644
5573,-0.000665,0.022272,0.031424,-0.028867,-0.056847,0.086384,-132.365982,0.887337,-178.988876,0.010647,-0.004945,0.914804,-0.403727
5574,0.007744,0.027085,0.032970,-0.005891,-0.047674,0.092466,-132.358047,0.887974,-178.989471,0.010650,-0.004937,0.914776,-0.403790
5575,0.004359,0.023142,0.033890,0.035399,-0.056794,0.103107,-132.348495,0.886163,-178.990234,0.010633,-0.004937,0.914743,-0.403866
5576,0.001064,0.030244,0.035973,0.035492,-0.068989,0.092409,-132.337982,0.887988,-178.990738,0.010647,-0.004925,0.914706,-0.403950
5577,0.003028,0.033172,0.029889,0.030957,-0.076613,0.078669,-132.332626,0.890809,-178.990799,0.010669,-0.004914,0.914687,-0.403993
5578,0.005259,0.041611,0.031474,0.038565,-0.073540,0.075594,-132.333557,0.891356,-178.990707,0.010674,-0.004913,0.914690,-0.403985
5580,0.002943,0.038194,0.033024,0.029378,-0.084200,0.063364,-132.335632,0.891677,-178.990387,0.010677,-0.004915,0.914697,-0.403969
5581,0.004788,0.036777,0.029720,0.033932,-0.082654,0.072498,-132.336868,0.892261,-178.989883,0.010684,-0.004917,0.914702,-0.403959
5582,-0.002250,0.026914,0.028789,0.050719,-0.076549,0.087755,-132.335251,0.895782,-178.989716,0.010712,-0.004906,0.914696,-0.403971
5583,0.002485,0.031559,0.034834,0.046186,-0.061298,0.070979,-132.329254,0.900517,-178.989731,0.010750,-0.004888,0.914675,-0.404019
5584,0.003954,0.033117,0.035397,0.017245,-0.058234,0.063335,-132.323074,0.901578,-178.989685,0.010759,-0.004884,0.914653,-0.404068
5585,0.000119,0.034349,0.026901,-0.022421,-0.042968,0.054171,-132.322281,0.903091,-178.989746,0.010771,-0.004879,0.914650,-0.404074
5586,0.001617,0.040302,0.026463,-0.048420,-0.039916,0.035862,-132.329269,0.905294,-178.989822,0.010788,-0.004871,0.914674,-0.404018
5587,0.005526,0.053444,0.025843,-0.063817,-0.047527,0.038896,-132.345016,0.904637,-178.989807,0.010782,-0.004875,0.914730,-0.403892
5588,0.003251,0.046080,0.023877,-0.060944,-0.044449,0.054130,-132.364899,0.903168,-178.990005,0.010769,-0.004880,0.914800,-0.403734
5589,0.001978,0.034915,0.025015,-0.054958,-0.032226,0.044962,-132.378677,0.903295,-178.990356,0.010768,-0.004878,0.914849,-0.403624
5590,0.004413,0.027865,0.031046,-0.035139,-0.033735,0.052574,-132.382065,0.902724,-178.990662,0.010763,-0.004878,0.914861,-0.403597
5591,0.004303,0.027426,0.035739,-0.033553,-0.044392,0.046441,-132.377167,0.901030,-178.990723,0.010749,-0.004883,0.914843,-0.403636
5592,0.003254,0.025036,0.036217,-0.042611,-0.041319,0.029631,-132.368607,0.899649,-178.990372,0.010740,-0.004890,0.914813,-0.403704
5593,0.003538,0.027198,0.035145,-0.044036,-0.047405,0.037238,-132.360046,0.898611,-178.989868,0.010733,-0.004897,0.914783,-0.403773
5594,0.002819,0.034282,0.034239,-0.010407,-0.053492,0.058581,-132.355011,0.898419,-178.989609,0.010733,-0.004899,0.914765,-0.403813
5595,0.004060,0.042854,0.033947,0.001796,-0.064156,0.061614,-132.355545,0.898647,-178.989517,0.010735,-0.004899,0.914767,-0.403809
5596,0.004043,0.040319,0.028254,-0.002836,-0.065660,0.070747,-132.360992,0.898576,-178.989487,0.010734,-0.004900,0.914787,-0.403765
5597,0.004319,0.027994,0.027932,0.001712,-0.065637,0.076826,-132.363922,0.898439,-178.989578,0.010733,-0.004900,0.914797,-0.403742
5598,0.002102,0.034931,0.027754,-0.002874,-0.068672,0.072230,-132.364883,0.899353,-178.989609,0.010740,-0.004897,0.914800,-0.403734
5599,-0.001285,0.035697,0.028140,-0.013590,-0.083936,0.064606,-132.368622,0.903462,-178.989319,0.010774,-0.004885,0.914813,-0.403704
5600,-0.000901,0.030422,0.029125,-0.019709,-0.082427,0.067677,-132.370773,0.909556,-178.988785,0.010824,-0.004868,0.914821,-0.403686
5601,-0.003915,0.023327,0.029165,-0.012046,-0.082455,0.075337,-132.367889,0.917290,-178.988312,0.010888,-0.004844,0.914810,-0.403708
5602,-0.002079,0.031402,0.028341,-0.030325,-0.079437,0.070796,-132.365387,0.925815,-178.987900,0.010957,-0.004817,0.914801,-0.403727
5603,0.001930,0.025340,0.027849,-0.048618,-0.079450,0.069282,-132.364853,0.931188,-178.987488,0.011002,-0.004802,0.914799,-0.403731
5604,0.006336,0.025202,0.028143,-0.053158,-0.076378,0.072312,-132.362732,0.931732,-178.987091,0.011008,-0.004803,0.914791,-0.403748
5605,0.005700,0.029886,0.027369,-0.054663,-0.068712,0.070746,-132.362427,0.929740,-178.986877,0.010992,-0.004811,0.914790,-0.403751
5606,0.009640,0.035707,0.025270,-0.050114,-0.067137,0.076797,-132.367126,0.925749,-178.986923,0.010960,-0.004826,0.914807,-0.403713
5607,0.006711,0.040381,0.028984,-0.025765,-0.068609,0.079790,-132.374924,0.921226,-178.987106,0.010923,-0.004841,0.914835,-0.403652
5608,0.005632,0.043943,0.032329,-0.010575,-0.065517,0.085852,-132.382462,0.918983,-178.987427,0.010904,-0.004847,0.914861,-0.403592
5609,0.004718,0.036331,0.032517,-0.006037,-0.057856,0.084293,-132.386780,0.917932,-178.987885,0.010894,-0.004847,0.914877,-0.403558
5611,0.006157,0.027384,0.032701,-0.024324,-0.060876,0.082731,-132.384949,0.916510,-178.988266,0.010881,-0.004849,0.914870,-0.403572
5612,0.005260,0.024080,0.033796,-0.044084,-0.053212,0.081166,-132.378342,0.914598,-178.988571,0.010865,-0.004853,0.914847,-0.403625
5613,0.007748,0.025992,0.030675,-0.062317,-0.054697,0.070438,-132.372269,0.911529,-178.988831,0.010840,-0.004861,0.914826,-0.403674
5614,0.008908,0.022704,0.031752,-0.068346,-0.059220,0.062747,-132.366989,0.906214,-178.988800,0.010798,-0.004879,0.914807,-0.403717
5615,0.006348,0.030218,0.027117,-0.075930,-0.051540,0.062689,-132.364960,0.901301,-178.988770,0.010759,-0.004897,0.914800,-0.403733
5616,0.006581,0.036520,0.028736,-0.054589,-0.056074,0.064169,-132.369125,0.897709,-178.988907,0.010729,-0.004909,0.914815,-0.403700
5617,0.008618,0.040005,0.029989,-0.050059,-0.060602,0.061063,-132.375793,0.893184,-178.988953,0.010693,-0.004925,0.914839,-0.403648
5618,0.010935,0.036961,0.033360,-0.045517,-0.057484,0.074724,-132.380844,0.886432,-178.989075,0.010638,-0.004948,0.914857,-0.403608
5619,0.006921,0.032380,0.030054,-0.028737,-0.057422,0.079235,-132.382599,0.880538,-178.989395,0.010590,-0.004966,0.914863,-0.403595
5620,0.007704,0.024242,0.027456,-0.037871,-0.071107,0.076128,-132.381668,0.876523,-178.989532,0.010557,-0.004979,0.914860,-0.403602
5621,0.006560,0.028093,0.026940,-0.047002,-0.071060,0.073024,-132.380524,0.872912,-178.989410,0.010529,-0.004993,0.914856,-0.403612
5622,0.002559,0.033024,0.024448,-0.021078,-0.071031,0.079097,-132.383377,0.872153,-178.989410,0.010523,-0.004996,0.914866,-0.403589
5623,-0.004369,0.019253,0.026141,-0.030224,-0.075620,0.082161,-132.383438,0.877602,-178.989395,0.010566,-0.004977,0.914866,-0.403588
5624,0.000760,0.020360,0.026172,-0.045422,-0.071066,0.082185,-132.378448,0.884554,-178.989349,0.010622,-0.004952,0.914848,-0.403627
5625,0.006870,0.028650,0.033358,-0.033152,-0.074101,0.088270,-132.373596,0.885813,-178.989380,0.010632,-0.004947,0.914831,-0.403666
5626,0.003506,0.023596,0.031684,-0.025451,-0.069495,0.089763,-132.367386,0.885224,-178.989502,0.010628,-0.004948,0.914809,-0.403716
5627,0.007932,0.019689,0.034319,-0.058913,-0.072513,0.075991,-132.357895,0.883668,-178.989441,0.010616,-0.004953,0.914776,-0.403792
5628,0.012452,0.028123,0.025346,-0.061895,-0.072446,0.077441,-132.352890,0.877115,-178.989273,0.010564,-0.004977,0.914759,-0.403832
5629,0.007546,0.037625,0.028312,-0.049708,-0.067799,0.088048,-132.356949,0.870484,-178.989441,0.010511,-0.004999,0.914773,-0.403800
5630,0.001531,0.036567,0.027299,-0.060443,-0.050983,0.078860,-132.364059,0.869484,-178.989929,0.010501,-0.005000,0.914798,-0.403744
5631,0.004555,0.035597,0.027853,-0.046760,-0.054019,0.080369,-132.370880,0.870304,-178.990494,0.010505,-0.004993,0.914822,-0.403689
5632,0.000690,0.034853,0.029954,-0.043741,-0.049430,0.072727,-132.375717,0.871643,-178.990997,0.010514,-0.004984,0.914839,-0.403651
5633,0.001561,0.034838,0.032785,-0.042224,-0.034170,0.062045,-132.378067,0.874160,-178.991486,0.010532,-0.004972,0.914847,-0.403632
5634,0.003696,0.030542,0.029342,-0.055951,-0.043314,0.051351,-132.379074,0.874791,-178.991806,0.010536,-0.004967,0.914851,-0.403623
5635,0.006337,0.032506,0.030449,-0.026952,-0.050915,0.068105,-132.379791,0.872963,-178.991974,0.010520,-0.004972,0.914854,-0.403618
5636,0.005819,0.030718,0.031718,-0.037617,-0.044773,0.057381,-132.379272,0.869888,-178.992188,0.010495,-0.004981,0.914852,-0.403623
5637,0.003917,0.031822,0.030384,-0.029968,-0.046269,0.063451,-132.378479,0.867866,-178.992386,0.010478,-0.004987,0.914849,-0.403629
5638,-0.001358,0.030847,0.032268,-0.013161,-0.059998,0.063447,-132.377029,0.870040,-178.992477,0.010495,-0.004978,0.914844,-0.403640
5639,-0.003795,0.030965,0.031844,-0.010079,-0.056973,0.058897,-132.374283,0.876787,-178.992355,0.010550,-0.004955,0.914834,-0.403662
5640,-0.005179,0.029241,0.027545,-0.040578,-0.052438,0.052840,-132.373199,0.885722,-178.992233,0.010622,-0.004925,0.914830,-0.403670
5641,-0.003527,0.036593,0.028955,-0.042118,-0.055533,0.057465,-132.376007,0.894701,-178.992172,0.010693,-0.004894,0.914840,-0.403646
5642,-0.001428,0.032641,0.028499,-0.037566,-0.049458,0.054446,-132.379959,0.901702,-178.992172,0.010749,-0.004869,0.914853,-0.403614
5643,0.002430,0.034223,0.026013,-0.062013,-0.058621,0.049876,-132.384689,0.905254,-178.992065,0.010778,-0.004858,0.914870,-0.403576
5644,0.005602,0.032027,0.028944,-0.046781,-0.066230,0.052907,-132.389267,0.904928,-178.991730,0.010776,-0.004863,0.914886,-0.403539
5645,0.006975,0.031285,0.031630,-0.040672,-0.069243,0.045235,-132.390167,0.901904,-178.991150,0.010754,-0.004878,0.914889,-0.403532
5646,0.005351,0.030951,0.032550,-0.049800,-0.075308,0.043666,-132.388977,0.898767,-178.990326,0.010732,-0.004895,0.914885,-0.403542
5647,0.004773,0.033102,0.033931,-0.052821,-0.087485,0.048209,-132.387558,0.897079,-178.989304,0.010722,-0.004909,0.914880,-0.403553
5648,0.007204,0.034960,0.035376,-0.036007,-0.082870,0.049695,-132.386185,0.894746,-178.988266,0.010707,-0.004926,0.914875,-0.403565
5649,0.003756,0.030044,0.038075,-0.054263,-0.067578,0.046605,-132.382111,0.892633,-178.987411,0.010693,-0.004940,0.914861,-0.403597
5650,-0.000874,0.027553,0.037158,-0.045016,-0.075204,0.049651,-132.374603,0.894721,-178.986588,0.010713,-0.004938,0.914834,-0.403657
5651,-0.001696,0.020357,0.033487,-0.038800,-0.072170,0.058824,-132.364807,0.900238,-178.985825,0.010761,-0.004924,0.914800,-0.403734
5652,0.000571,0.014624,0.031790,-0.034084,-0.063030,0.060363,-132.352081,0.905183,-178.985275,0.010802,-0.004910,0.914755,-0.403835
5653,-0.004660,0.014249,0.029526,-0.012572,-0.055425,0.069541,-132.337997,0.911537,-178.985046,0.010855,-0.004888,0.914705,-0.403947
5654,-0.000679,0.021044,0.025712,0.008894,-0.075292,0.068046,-132.327682,0.918947,-178.984802,0.010915,-0.004863,0.914668,-0.404029
5655,0.006310,0.024306,0.025552,-0.001738,-0.072230,0.066509,-132.322678,0.920817,-178.984421,0.010931,-0.004859,0.914651,-0.404069
5656,0.007456,0.029254,0.020824,-0.000217,-0.073714,0.058833,-132.323212,0.917727,-178.984039,0.010908,-0.004873,0.914652,-0.404065
5657,0.004872,0.034380,0.019929,0.010395,-0.070621,0.060316,-132.329834,0.914879,-178.983704,0.010886,-0.004886,0.914676,-0.404012
5658,0.006485,0.034850,0.022611,-0.000372,-0.072110,0.063330,-132.338348,0.912652,-178.983475,0.010869,-0.004896,0.914706,-0.403944
5659,0.008505,0.033485,0.025653,-0.008066,-0.061380,0.061751,-132.344788,0.908474,-178.983337,0.010836,-0.004913,0.914729,-0.403893
5660,0.007739,0.030823,0.029080,0.004121,-0.064378,0.063217,-132.346985,0.903361,-178.983215,0.010795,-0.004932,0.914737,-0.403876
5661,0.007191,0.026497,0.034694,-0.001939,-0.065854,0.057058,-132.342590,0.898859,-178.982895,0.010761,-0.004950,0.914721,-0.403912
5662,0.008898,0.027765,0.035504,-0.012534,-0.064275,0.047843,-132.334259,0.893600,-178.982346,0.010721,-0.004972,0.914692,-0.403979
5663,0.005966,0.027225,0.031958,-0.029244,-0.062700,0.047787,-132.327408,0.888747,-178.981735,0.010685,-0.004994,0.914668,-0.404034
5664,0.004379,0.028533,0.028956,-0.027674,-0.053510,0.059956,-132.323822,0.886339,-178.981430,0.010667,-0.005004,0.914656,-0.404063
5665,0.002286,0.029794,0.027193,-0.039867,-0.047387,0.052305,-132.323532,0.885977,-178.981430,0.010664,-0.005005,0.914654,-0.404065
5666,0.000134,0.034250,0.026949,-0.052092,-0.036703,0.050777,-132.326828,0.887760,-178.981583,0.010678,-0.004998,0.914666,-0.404038
5667,0.002110,0.032063,0.026523,-0.055175,-0.056539,0.053827,-132.331818,0.889977,-178.981659,0.010695,-0.004990,0.914684,-0.403998
5668,0.005769,0.034653,0.030784,-0.046040,-0.064147,0.044650,-132.335464,0.889504,-178.981308,0.010692,-0.004995,0.914696,-0.403969
5669,0.004901,0.031346,0.033506,-0.056709,-0.076323,0.024778,-132.336014,0.887183,-178.980331,0.010677,-0.005011,0.914698,-0.403965
5670,0.005022,0.029880,0.034083,-0.074976,-0.080871,0.024744,-132.333755,0.885017,-178.978882,0.010665,-0.005030,0.914690,-0.403983
5671,0.007065,0.041042,0.027763,-0.052098,-0.088462,0.029280,-132.336945,0.881944,-178.977417,0.010645,-0.005053,0.914702,-0.403958
5672,0.005157,0.042512,0.029763,-0.043020,-0.068585,0.036867,-132.346283,0.878777,-178.976349,0.010623,-0.005074,0.914735,-0.403884
5673,0.001068,0.039202,0.032747,-0.033921,-0.059413,0.044479,-132.353256,0.878666,-178.975769,0.010624,-0.005079,0.914759,-0.403828
5674,-0.005088,0.041364,0.027441,-0.020248,-0.045700,0.070444,-132.360107,0.884455,-178.975861,0.010670,-0.005059,0.914783,-0.403773
5675,-0.000775,0.042643,0.025156,0.013222,-0.044205,0.081161,-132.370346,0.892056,-178.976608,0.010727,-0.005027,0.914819,-0.403690
5676,0.001037,0.032661,0.031997,-0.000566,-0.045741,0.088804,-132.375610,0.896777,-178.977493,0.010762,-0.005004,0.914838,-0.403648
5677,-0.001875,0.030954,0.032512,-0.002072,-0.045754,0.101025,-132.373596,0.902083,-178.978470,0.010801,-0.004977,0.914830,-0.403663
5678,0.003365,0.028236,0.028568,0.017795,-0.044234,0.096452,-132.370361,0.906241,-178.979538,0.010830,-0.004954,0.914819,-0.403689
5679,0.005478,0.024997,0.033942,0.020906,-0.045738,0.087271,-132.363876,0.906160,-178.980392,0.010827,-0.004946,0.914796,-0.403741
5680,0.000418,0.028038,0.036207,0.017946,-0.050301,0.079624,-132.354004,0.907157,-178.980942,0.010833,-0.004938,0.914761,-0.403820
5681,-0.005133,0.018465,0.034806,0.031802,-0.045749,0.078124,-132.340927,0.913753,-178.981339,0.010885,-0.004910,0.914715,-0.403923
5682,-0.001031,0.022568,0.034633,0.030415,-0.048835,0.055268,-132.325974,0.921249,-178.981445,0.010945,-0.004881,0.914662,-0.404042
5683,-0.000237,0.029466,0.036200,0.006107,-0.051904,0.043077,-132.314697,0.925903,-178.981140,0.010984,-0.004866,0.914622,-0.404131
5684,0.004508,0.021872,0.036103,-0.009042,-0.062581,0.023233,-132.303619,0.927089,-178.980286,0.010997,-0.004868,0.914583,-0.404220
5685,0.006259,0.014318,0.035624,-0.022612,-0.053394,0.017091,-132.287872,0.924064,-178.979050,0.010978,-0.004887,0.914527,-0.404346
5686,0.010648,0.021435,0.031855,-0.023987,-0.054865,0.009398,-132.273483,0.917073,-178.977768,0.010927,-0.004920,0.914477,-0.404461
5687,0.009280,0.022197,0.029102,-0.040676,-0.067003,0.012370,-132.264923,0.908220,-178.976364,0.010862,-0.004962,0.914447,-0.404530
5688,0.003208,0.018966,0.024004,-0.048237,-0.077640,0.024528,-132.259552,0.903582,-178.974884,0.010830,-0.004990,0.914428,-0.404573
5689,0.002006,0.029814,0.024271,-0.045166,-0.083728,0.038243,-132.259171,0.903777,-178.973557,0.010837,-0.004999,0.914427,-0.404576
5690,0.007676,0.039001,0.022355,-0.049807,-0.083699,0.044316,-132.267136,0.902480,-178.972519,0.010830,-0.005013,0.914455,-0.404513
5691,0.008582,0.037979,0.027581,-0.054473,-0.083646,0.038156,-132.277634,0.897603,-178.971527,0.010794,-0.005039,0.914492,-0.404429
5692,0.011806,0.039979,0.026241,-0.053027,-0.065265,0.035029,-132.287277,0.889868,-178.970627,0.010735,-0.005075,0.914526,-0.404353
5693,0.018055,0.042689,0.030155,-0.018014,-0.057529,0.034915,-132.296875,0.876482,-178.970032,0.010630,-0.005127,0.914560,-0.404278
5694,0.020682,0.042204,0.024341,0.004776,-0.052809,0.034761,-132.306961,0.857679,-178.969589,0.010481,-0.005198,0.914596,-0.404199
5695,0.013354,0.033893,0.025321,0.027578,-0.057258,0.039199,-132.315002,0.840860,-178.969193,0.010347,-0.005261,0.914625,-0.404136
5696,0.007996,0.035423,0.021832,0.018354,-0.049547,0.049791,-132.321198,0.831094,-178.968979,0.010270,-0.005298,0.914647,-0.404088
5697,0.006057,0.032243,0.023353,0.019810,-0.051022,0.051262,-132.327545,0.825922,-178.968979,0.010228,-0.005317,0.914670,-0.404038
5698,0.004337,0.028666,0.021616,-0.004652,-0.047934,0.055802,-132.332001,0.823139,-178.969025,0.010206,-0.005327,0.914686,-0.404002
5699,0.001812,0.028409,0.020847,-0.029109,-0.052492,0.064937,-132.336777,0.823003,-178.969208,0.010204,-0.005326,0.914702,-0.403964
5700,-0.003252,0.039961,0.022794,-0.030713,-0.052502,0.068002,-132.345657,0.827446,-178.969513,0.010238,-0.005309,0.914734,-0.403893
5701,0.005469,0.039605,0.022083,-0.001839,-0.066236,0.071057,-132.357971,0.830678,-178.969788,0.010262,-0.005297,0.914777,-0.403794
5702,0.003380,0.039974,0.023994,-0.001955,-0.070789,0.072558,-132.369598,0.830553,-178.969879,0.010260,-0.005297,0.914818,-0.403701
5703,0.003256,0.035798,0.031661,0.005611,-0.075350,0.075592,-132.375900,0.831505,-178.969833,0.010268,-0.005295,0.914840,-0.403651
5704,-0.000060,0.036233,0.037601,0.005620,-0.060087,0.077115,-132.374863,0.834371,-178.969864,0.010290,-0.005284,0.914836,-0.403659
5705,0.002517,0.029798,0.036590,-0.009584,-0.061614,0.074062,-132.369354,0.837612,-178.969986,0.010316,-0.005271,0.914817,-0.403703
5706,0.000154,0.033828,0.039745,-0.032396,-0.053984,0.063379,-132.362396,0.840514,-178.970001,0.010340,-0.005261,0.914792,-0.403758
5707,0.000250,0.032652,0.040046,-0.030788,-0.060096,0.066438,-132.355347,0.844511,-178.969925,0.010372,-0.005246,0.914767,-0.403814
5708,-0.007556,0.032782,0.034888,-0.058191,-0.054029,0.043588,-132.350296,0.852431,-178.969666,0.010436,-0.005220,0.914749,-0.403853
5709,-0.005028,0.022543,0.028559,-0.058136,-0.061715,0.037545,-132.346802,0.863039,-178.969070,0.010523,-0.005187,0.914737,-0.403880
5710,-0.001704,0.021899,0.029615,-0.056539,-0.060226,0.031480,-132.341599,0.870594,-178.968231,0.010587,-0.005167,0.914718,-0.403921
5711,-0.004709,0.014796,0.029757,-0.048804,-0.061786,0.039144,-132.332809,0.877687,-178.967361,0.010647,-0.005148,0.914687,-0.403990
5712,-0.003877,0.011675,0.028642,-0.050190,-0.052671,0.030031,-132.320297,0.885719,-178.966507,0.010715,-0.005125,0.914642,-0.404089
5714,-0.002724,0.018257,0.026885,-0.030229,-0.054232,0.051429,-132.309479,0.892862,-178.965927,0.010774,-0.005104,0.914604,-0.404175
5715,-0.002906,0.032540,0.024856,-0.025622,-0.063418,0.042307,-132.307312,0.899817,-178.965469,0.010831,-0.005082,0.914596,-0.404191
5716,-0.003291,0.032217,0.021734,-0.002780,-0.063450,0.040817,-132.312515,0.907090,-178.964920,0.010891,-0.005062,0.914614,-0.404149
5717,-0.000636,0.036387,0.023286,-0.002854,-0.058896,0.051526,-132.319962,0.913271,-178.964554,0.010941,-0.005043,0.914640,-0.404089
5718,0.002736,0.035345,0.028754,0.013873,-0.058898,0.068316,-132.325668,0.916516,-178.964554,0.010967,-0.005033,0.914660,-0.404043
5719,0.010226,0.035519,0.033507,0.001652,-0.054283,0.056068,-132.326813,0.913755,-178.964569,0.010945,-0.005042,0.914664,-0.404034
5720,0.012746,0.024068,0.037249,0.009345,-0.040473,0.059033,-132.320221,0.904731,-178.964600,0.010873,-0.005073,0.914641,-0.404088
5721,0.009298,0.026175,0.038219,-0.016473,-0.029714,0.060472,-132.308014,0.895354,-178.964874,0.010798,-0.005103,0.914599,-0.404186
5722,0.011317,0.025984,0.033666,-0.027048,-0.029641,0.051234,-132.298065,0.886455,-178.965225,0.010726,-0.005131,0.914564,-0.404267
5723,0.006513,0.026067,0.026042,-0.034620,-0.034156,0.038956,-132.293427,0.878777,-178.965378,0.010664,-0.005156,0.914548,-0.404304
5724,0.001901,0.021290,0.020559,-0.013240,-0.038704,0.048077,-132.292480,0.876199,-178.965424,0.010644,-0.005165,0.914545,-0.404312
5725,0.001691,0.028155,0.021150,-0.030038,-0.047850,0.052645,-132.294479,0.876991,-178.965500,0.010650,-0.005162,0.914552,-0.404296
5726,0.006489,0.017909,0.020644,-0.002575,-0.053930,0.070930,-132.295303,0.876120,-178.965637,0.010642,-0.005164,0.914555,-0.404290
5727,0.001687,0.021515,0.024208,0.005090,-0.053905,0.061747,-132.291794,0.875273,-178.965744,0.010635,-0.005165,0.914542,-0.404318
5728,0.002199,0.027155,0.023892,-0.025411,-0.056948,0.054107,-132.290329,0.876596,-178.965652,0.010646,-0.005161,0.914537,-0.404329
5729,0.011252,0.036865,0.024117,-0.049866,-0.053854,0.044907,-132.295593,0.872877,-178.965454,0.010617,-0.005177,0.914556,-0.404288
5730,0.006045,0.038839,0.025377,-0.028584,-0.046166,0.049421,-132.305161,0.866526,-178.965408,0.010566,-0.005200,0.914590,-0.404212
5731,-0.000246,0.043039,0.028828,-0.040883,-0.056828,0.040247,-132.315308,0.866104,-178.965271,0.010563,-0.005204,0.914625,-0.404131
5732,0.003152,0.036576,0.027859,-0.059266,-0.062927,0.038717,-132.324280,0.867826,-178.964798,0.010578,-0.005202,0.914657,-0.404059
5733,0.005215,0.036622,0.030485,-0.053205,-0.065956,0.031064,-132.330429,0.866788,-178.964050,0.010572,-0.005212,0.914679,-0.404010
5734,-0.001578,0.029870,0.033758,-0.054724,-0.070527,0.040211,-132.331482,0.868128,-178.963165,0.010586,-0.005215,0.914682,-0.404002
5735,0.001614,0.031415,0.035609,-0.080614,-0.070535,0.031063,-132.328674,0.871661,-178.962143,0.010617,-0.005210,0.914672,-0.404023
5736,0.006151,0.044031,0.032701,-0.101979,-0.059834,0.020361,-132.331894,0.870949,-178.961121,0.010615,-0.005221,0.914684,-0.403998
5737,0.004124,0.048553,0.032720,-0.073066,-0.052173,0.046270,-132.342834,0.868575,-178.960617,0.010598,-0.005235,0.914722,-0.403911
5738,0.003979,0.039324,0.032108,-0.051776,-0.041468,0.069133,-132.352127,0.867609,-178.960861,0.010589,-0.005237,0.914755,-0.403836
5739,0.002672,0.040022,0.029910,-0.042671,-0.042976,0.059959,-132.358780,0.867551,-178.961349,0.010586,-0.005234,0.914778,-0.403784
5740,0.004054,0.037631,0.028497,-0.024416,-0.050587,0.067571,-132.365494,0.867598,-178.961716,0.010585,-0.005232,0.914802,-0.403730
5741,0.005644,0.027981,0.028833,-0.009174,-0.062767,0.066014,-132.367722,0.866315,-178.961838,0.010574,-0.005235,0.914810,-0.403712
5742,0.004209,0.025624,0.029542,-0.027450,-0.070367,0.052247,-132.364853,0.864801,-178.961487,0.010563,-0.005243,0.914800,-0.403735
5743,0.001944,0.035931,0.034444,-0.012157,-0.085610,0.053754,-132.362198,0.865430,-178.960693,0.010571,-0.005247,0.914790,-0.403756
5744,0.002841,0.039302,0.034091,-0.004526,-0.085601,0.062900,-132.362274,0.867419,-178.959900,0.010590,-0.005246,0.914791,-0.403755
5745,-0.000986,0.041004,0.035657,-0.012169,-0.084077,0.062903,-132.363953,0.871239,-178.959244,0.010623,-0.005238,0.914796,-0.403742
5746,-0.002468,0.044214,0.031599,-0.009162,-0.062737,0.072083,-132.368607,0.877926,-178.959015,0.010677,-0.005217,0.914813,-0.403704
5747,-0.001939,0.042684,0.032334,-0.016856,-0.061238,0.066011,-132.375565,0.885143,-178.959137,0.010734,-0.005191,0.914837,-0.403648
5748,-0.000554,0.035094,0.028033,-0.044372,-0.056680,0.043145,-132.381485,0.890853,-178.958984,0.010779,-0.005173,0.914858,-0.403600
5749,0.003900,0.024031,0.029307,-0.041313,-0.061255,0.049246,-132.382233,0.892958,-178.958572,0.010798,-0.005169,0.914860,-0.403593
5750,0.004213,0.019189,0.025988,-0.050409,-0.061234,0.033962,-132.377731,0.892019,-178.957901,0.010793,-0.005177,0.914844,-0.403630
5751,0.005513,0.013526,0.032408,-0.060975,-0.077990,0.032401,-132.368073,0.889875,-178.956757,0.010780,-0.005193,0.914810,-0.403707
5752,0.007704,0.015504,0.031719,-0.059294,-0.085578,0.027774,-132.354538,0.885983,-178.955170,0.010755,-0.005218,0.914763,-0.403815
5753,0.006403,0.020833,0.032387,-0.033221,-0.074850,0.049084,-132.342758,0.881684,-178.953857,0.010726,-0.005242,0.914721,-0.403909
5754,0.004771,0.027152,0.033709,-0.049909,-0.070236,0.049043,-132.334381,0.879086,-178.953018,0.010709,-0.005258,0.914692,-0.403976
5755,0.003355,0.027999,0.038920,-0.029976,-0.059532,0.061222,-132.326218,0.878319,-178.952515,0.010705,-0.005264,0.914663,-0.404041
5756,0.001122,0.033253,0.038983,-0.019201,-0.054946,0.062737,-132.317642,0.879729,-178.952347,0.010717,-0.005259,0.914633,-0.404110
5757,0.000574,0.037356,0.034499,-0.016105,-0.047319,0.068842,-132.313873,0.882807,-178.952499,0.010741,-0.005247,0.914619,-0.404140
5758,0.002140,0.037106,0.034427,-0.042039,-0.059526,0.068841,-132.314148,0.885633,-178.952713,0.010763,-0.005235,0.914620,-0.404137
5759,-0.000352,0.031597,0.034587,-0.031333,-0.064107,0.049008,-132.312943,0.888837,-178.952484,0.010789,-0.005225,0.914616,-0.404146
5760,0.000275,0.030730,0.032178,-0.038923,-0.061064,0.061224,-132.310150,0.892939,-178.952118,0.010823,-0.005214,0.914606,-0.404168
5761,0.003117,0.032436,0.029382,-0.037379,-0.068690,0.059695,-132.309677,0.895450,-178.951843,0.010845,-0.005207,0.914604,-0.404172
5762,0.004057,0.028958,0.029651,-0.034316,-0.061044,0.061201,-132.309692,0.895775,-178.951584,0.010848,-0.005208,0.914604,-0.404172
5763,0.002206,0.025457,0.025819,-0.012930,-0.056450,0.065761,-132.308212,0.896257,-178.951523,0.010852,-0.005206,0.914599,-0.404183
5764,0.003247,0.031743,0.012878,0.000751,-0.033546,0.070324,-132.313568,0.896896,-178.952011,0.010855,-0.005201,0.914618,-0.404141
5765,0.009555,0.025026,0.012234,0.057102,0.010748,0.048917,-132.323486,0.892508,-178.953247,0.010815,-0.005207,0.914653,-0.404062
5766,0.006207,0.021719,0.013490,0.067709,0.042849,0.039701,-132.328781,0.884679,-178.955017,0.010746,-0.005221,0.914672,-0.404021
5767,0.001317,0.021956,0.019175,0.075308,0.038300,0.033566,-132.329498,0.880398,-178.956879,0.010706,-0.005222,0.914675,-0.404016
5768,0.001504,0.026870,0.023645,0.066147,0.044413,0.021348,-132.327667,0.878763,-178.958527,0.010687,-0.005214,0.914668,-0.404030
5769,0.004467,0.025929,0.035413,0.052461,0.018490,0.027432,-132.321045,0.875959,-178.959778,0.010660,-0.005213,0.914645,-0.404084
5770,-0.002963,0.032978,0.029780,0.002158,-0.036442,0.044214,-132.314896,0.876799,-178.960281,0.010666,-0.005206,0.914623,-0.404133
5771,-0.001728,0.032901,0.030087,-0.010044,-0.060881,0.054922,-132.314514,0.882632,-178.960190,0.010713,-0.005186,0.914622,-0.404135
5772,0.005123,0.040298,0.026985,-0.017712,-0.063931,0.061024,-132.318771,0.885198,-178.960007,0.010733,-0.005179,0.914637,-0.404101
5773,0.005021,0.031881,0.027813,-0.022337,-0.065428,0.059468,-132.324188,0.883966,-178.959839,0.010724,-0.005185,0.914656,-0.404058
5774,-0.000825,0.033587,0.024238,-0.013217,-0.056262,0.057932,-132.328308,0.885372,-178.959717,0.010735,-0.005181,0.914670,-0.404025
5775,0.002122,0.041330,0.031198,-0.033110,-0.053213,0.051832,-132.334579,0.888388,-178.959686,0.010759,-0.005172,0.914692,-0.403974
5776,0.002340,0.043878,0.030883,-0.042333,-0.054731,0.050299,-132.342651,0.889843,-178.959595,0.010771,-0.005168,0.914721,-0.403910
5777,-0.000892,0.034142,0.034740,-0.030154,-0.056260,0.059458,-132.346878,0.892882,-178.959518,0.010795,-0.005158,0.914736,-0.403876
5778,0.000247,0.039454,0.037196,-0.027089,-0.053219,0.065574,-132.346390,0.897382,-178.959549,0.010831,-0.005142,0.914734,-0.403879
5779,0.002150,0.042007,0.041117,-0.033177,-0.053222,0.073206,-132.345840,0.900625,-178.959763,0.010856,-0.005129,0.914732,-0.403883
5780,0.000378,0.038511,0.040891,-0.023988,-0.062380,0.077785,-132.343430,0.903980,-178.959991,0.010882,-0.005115,0.914723,-0.403902
5781,0.002549,0.033303,0.041492,-0.025446,-0.056276,0.077784,-132.337418,0.907182,-178.960159,0.010908,-0.005102,0.914702,-0.403950
5782,0.005774,0.036897,0.038310,-0.042164,-0.044049,0.071657,-132.331848,0.907159,-178.960495,0.010906,-0.005099,0.914682,-0.403994
5783,0.001094,0.029057,0.033795,-0.042112,-0.050136,0.080794,-132.328140,0.907515,-178.960968,0.010908,-0.005093,0.914669,-0.404024
5784,0.000630,0.020802,0.036133,-0.058799,-0.057768,0.065533,-132.319977,0.910626,-178.961121,0.010932,-0.005080,0.914640,-0.404089
5785,0.002953,0.018412,0.034495,-0.061707,-0.045557,0.065526,-132.307663,0.912675,-178.961090,0.010949,-0.005072,0.914597,-0.404187
5786,-0.004019,0.020674,0.035383,-0.043252,-0.048621,0.068589,-132.294922,0.917032,-178.961212,0.010984,-0.005055,0.914552,-0.404288
5787,-0.007051,0.018578,0.035564,-0.015635,-0.059354,0.071693,-132.280930,0.927196,-178.961212,0.011066,-0.005017,0.914502,-0.404399
5788,-0.000753,0.029101,0.038347,-0.021606,-0.070078,0.061056,-132.268265,0.936388,-178.960892,0.011141,-0.004986,0.914457,-0.404499
5789,0.001587,0.034545,0.033267,-0.015437,-0.062459,0.070221,-132.262344,0.940998,-178.960617,0.011179,-0.004972,0.914436,-0.404546
5790,0.004217,0.039337,0.030897,-0.006289,-0.065501,0.064107,-132.263382,0.942549,-178.960556,0.011192,-0.004967,0.914440,-0.404537
5791,0.008755,0.038031,0.026795,-0.036858,-0.063936,0.062540,-132.269241,0.939897,-178.960464,0.011171,-0.004977,0.914460,-0.404491
5792,0.011789,0.039142,0.028065,-0.062867,-0.060815,0.053309,-132.277618,0.932597,-178.960327,0.011112,-0.005005,0.914490,-0.404425
5793,0.009808,0.034392,0.026416,-0.055295,-0.050058,0.053227,-132.285431,0.923987,-178.960251,0.011044,-0.005037,0.914518,-0.404363
5794,0.012698,0.037292,0.029337,-0.040082,-0.054556,0.056193,-132.291595,0.914722,-178.960266,0.010969,-0.005070,0.914540,-0.404315
5795,0.011676,0.035240,0.033266,-0.029420,-0.066677,0.057624,-132.294754,0.904698,-178.960083,0.010890,-0.005107,0.914551,-0.404291
5796,0.013857,0.034215,0.031378,-0.015685,-0.075742,0.045317,-132.295273,0.894083,-178.959473,0.010807,-0.005149,0.914554,-0.404288
5797,0.011530,0.037083,0.030839,-0.003488,-0.077177,0.048269,-132.296707,0.883483,-178.958649,0.010726,-0.005194,0.914559,-0.404277
5798,0.012030,0.037169,0.032213,0.005648,-0.075567,0.048177,-132.298569,0.873907,-178.957886,0.010652,-0.005234,0.914566,-0.404263
5799,0.006075,0.038212,0.030860,-0.003531,-0.064821,0.042004,-132.300858,0.867100,-178.957199,0.010600,-0.005263,0.914574,-0.404245
5800,0.006704,0.035180,0.033375,-0.012699,-0.058674,0.037378,-132.302353,0.863025,-178.956589,0.010569,-0.005283,0.914579,-0.404234
5801,0.007088,0.032899,0.037988,-0.026398,-0.049473,0.040380,-132.299484,0.858451,-178.956070,0.010535,-0.005303,0.914569,-0.404257
5802,0.002094,0.029101,0.035682,-0.020224,-0.047918,0.034243,-132.293243,0.856092,-178.955597,0.010518,-0.005314,0.914547,-0.404307
5803,0.000145,0.036587,0.032120,-0.024765,-0.058598,0.032714,-132.290314,0.857639,-178.954987,0.010533,-0.005313,0.914537,-0.404330
5804,0.001636,0.034448,0.033057,-0.035442,-0.066229,0.028138,-132.290894,0.859947,-178.954117,0.010554,-0.005312,0.914539,-0.404325
5805,0.003422,0.037482,0.030323,-0.029347,-0.064692,0.029652,-132.292923,0.860604,-178.953171,0.010563,-0.005318,0.914546,-0.404309
5806,0.001671,0.039013,0.027468,-0.000404,-0.076888,0.046426,-132.298294,0.861467,-178.952347,0.010572,-0.005322,0.914565,-0.404266
5807,0.004203,0.042253,0.027254,-0.024900,-0.081451,0.055567,-132.306824,0.862498,-178.951660,0.010582,-0.005324,0.914595,-0.404198
5808,0.006021,0.038396,0.024388,-0.028046,-0.078369,0.055536,-132.317154,0.861344,-178.951080,0.010575,-0.005334,0.914631,-0.404115
5809,0.006428,0.040180,0.022151,-0.023577,-0.069174,0.067701,-132.328903,0.858777,-178.950806,0.010555,-0.005346,0.914673,-0.404022
5811,0.000433,0.032745,0.026345,-0.032815,-0.070679,0.073785,-132.338058,0.859189,-178.950806,0.010557,-0.005346,0.914705,-0.403949
5812,-0.000961,0.031555,0.029935,-0.037411,-0.069161,0.070742,-132.341080,0.863849,-178.950729,0.010595,-0.005330,0.914716,-0.403924
5813,-0.000965,0.032862,0.031063,-0.029776,-0.069178,0.072287,-132.341660,0.869632,-178.950623,0.010641,-0.005311,0.914718,-0.403919
5814,-0.001154,0.026401,0.037115,-0.031247,-0.060042,0.069254,-132.337234,0.875501,-178.950531,0.010689,-0.005290,0.914702,-0.403954
5815,-0.002704,0.028170,0.039209,-0.038769,-0.073800,0.057072,-132.327606,0.882181,-178.950134,0.010744,-0.005269,0.914668,-0.404030
5816,-0.000321,0.035649,0.033931,-0.034124,-0.081453,0.054044,-132.322113,0.888593,-178.949371,0.010798,-0.005252,0.914648,-0.404073
5817,0.001203,0.043414,0.029495,-0.032628,-0.079935,0.046423,-132.326202,0.892871,-178.948547,0.010835,-0.005244,0.914662,-0.404040
5818,0.000772,0.039727,0.035518,-0.035727,-0.081464,0.034220,-132.332031,0.896142,-178.947540,0.010864,-0.005241,0.914683,-0.403993
5819,0.001490,0.039106,0.039083,-0.026568,-0.082990,0.041851,-132.332581,0.899176,-178.946365,0.010893,-0.005240,0.914684,-0.403988
5820,0.004855,0.032036,0.041455,-0.003617,-0.079927,0.054044,-132.326950,0.900243,-178.945328,0.010905,-0.005244,0.914665,-0.404033
5821,0.005419,0.034142,0.042994,-0.008095,-0.066166,0.050960,-132.317093,0.898942,-178.944550,0.010898,-0.005253,0.914630,-0.404112
5822,0.008322,0.038797,0.045381,-0.011050,-0.063074,0.058542,-132.307846,0.895485,-178.944046,0.010872,-0.005269,0.914597,-0.404186
5823,0.012078,0.036142,0.038615,-0.009454,-0.072162,0.073727,-132.301132,0.888640,-178.943756,0.010819,-0.005295,0.914574,-0.404240
5824,0.010090,0.042367,0.033931,-0.007919,-0.065983,0.067539,-132.300400,0.880652,-178.943619,0.010756,-0.005324,0.914571,-0.404246
5825,0.007866,0.040730,0.032732,-0.015583,-0.055239,0.061368,-132.304306,0.874424,-178.943619,0.010706,-0.005346,0.914585,-0.404216
5826,0.009989,0.040780,0.033463,-0.026301,-0.050600,0.050620,-132.308578,0.867977,-178.943634,0.010654,-0.005369,0.914601,-0.404183
5827,0.006552,0.032712,0.032003,-0.027836,-0.049019,0.041403,-132.310501,0.861811,-178.943451,0.010606,-0.005393,0.914608,-0.404168
5828,0.005411,0.035575,0.034472,-0.032399,-0.038296,0.032203,-132.310074,0.857688,-178.943176,0.010574,-0.005409,0.914606,-0.404172
5829,0.007342,0.036794,0.037076,-0.049162,-0.044359,0.030631,-132.309265,0.853171,-178.942825,0.010539,-0.005428,0.914603,-0.404178
5830,0.007421,0.034371,0.032990,-0.059825,-0.050412,0.018369,-132.309082,0.847490,-178.942184,0.010496,-0.005453,0.914603,-0.404180
5831,0.002617,0.025014,0.029621,-0.047584,-0.065639,0.024435,-132.307617,0.844292,-178.941177,0.010474,-0.005472,0.914598,-0.404192
5832,0.001922,0.025481,0.028601,-0.050588,-0.061048,0.024421,-132.304428,0.844389,-178.940094,0.010479,-0.005480,0.914586,-0.404218
5833,0.003005,0.030258,0.025710,-0.039891,-0.064088,0.024407,-132.304367,0.844570,-178.939087,0.010484,-0.005488,0.914586,-0.404218
5834,0.002819,0.028925,0.023231,-0.035333,-0.067125,0.041175,-132.307648,0.844572,-178.938232,0.010487,-0.005495,0.914598,-0.404192
5835,0.006320,0.032915,0.027727,-0.032307,-0.060994,0.064035,-132.311279,0.843309,-178.937866,0.010478,-0.005503,0.914611,-0.404163
5836,0.006115,0.031017,0.027925,-0.027743,-0.062480,0.071622,-132.313690,0.840561,-178.937881,0.010455,-0.005512,0.914619,-0.404144
5837,0.006873,0.033558,0.029828,-0.021647,-0.068542,0.076153,-132.315231,0.837650,-178.937943,0.010432,-0.005522,0.914625,-0.404132
5838,0.004342,0.029026,0.028180,-0.021644,-0.062403,0.071537,-132.315750,0.835657,-178.937988,0.010416,-0.005529,0.914626,-0.404128
5839,0.000614,0.026951,0.026668,-0.007897,-0.054760,0.063892,-132.314819,0.836697,-178.938034,0.010424,-0.005525,0.914623,-0.404135
5840,-0.005994,0.027287,0.021753,-0.001796,-0.060889,0.054765,-132.315277,0.843238,-178.937943,0.010477,-0.005503,0.914625,-0.404131
5841,-0.004158,0.033239,0.022459,-0.024729,-0.039572,0.045660,-132.320099,0.852413,-178.937897,0.010550,-0.005471,0.914641,-0.404092
5842,-0.004354,0.034904,0.022256,-0.032433,-0.030457,0.044181,-132.328400,0.860492,-178.938156,0.010613,-0.005441,0.914670,-0.404024
5843,-0.006783,0.036962,0.025676,-0.024880,-0.025928,0.053393,-132.337143,0.869858,-178.938675,0.010685,-0.005405,0.914701,-0.403954
5844,-0.004291,0.039198,0.030663,-0.038674,-0.035136,0.041243,-132.344238,0.879407,-178.939072,0.010760,-0.005369,0.914726,-0.403896
5845,-0.002174,0.039018,0.035980,-0.040226,-0.042800,0.038231,-132.348145,0.886594,-178.939041,0.010817,-0.005344,0.914739,-0.403864
5846,-0.001875,0.034551,0.039377,-0.031042,-0.048931,0.039785,-132.346512,0.892453,-178.938751,0.010865,-0.005325,0.914733,-0.403877
5847,-0.001565,0.031950,0.043340,-0.038584,-0.061162,0.023024,-132.338898,0.897890,-178.937958,0.010912,-0.005312,0.914706,-0.403937
5848,0.003513,0.022647,0.046949,-0.047574,-0.070323,0.027603,-132.323730,0.900482,-178.936646,0.010938,-0.005312,0.914653,-0.404058
5849,0.002649,0.015400,0.042459,-0.050397,-0.073364,0.036741,-132.302505,0.900795,-178.935242,0.010946,-0.005320,0.914578,-0.404227
5850,0.004822,0.013207,0.036937,-0.048642,-0.059612,0.050449,-132.281311,0.900266,-178.934219,0.010946,-0.005328,0.914503,-0.404396
5851,0.008120,0.017218,0.032310,-0.017943,-0.070254,0.068713,-132.264191,0.897090,-178.933670,0.010924,-0.005342,0.914443,-0.404533
5852,0.006469,0.014402,0.031004,0.009677,-0.064105,0.094599,-132.249146,0.893417,-178.933609,0.010895,-0.005354,0.914390,-0.404653
5853,0.002903,0.017279,0.024874,0.025057,-0.051868,0.100669,-132.236465,0.892642,-178.934174,0.010888,-0.005351,0.914345,-0.404755
5854,0.006090,0.026802,0.022900,0.041885,-0.048790,0.102165,-132.231049,0.892278,-178.935135,0.010882,-0.005344,0.914326,-0.404798
5855,0.005811,0.032962,0.023275,0.044911,-0.064013,0.089917,-132.232178,0.890489,-178.935944,0.010865,-0.005344,0.914330,-0.404789
5856,0.003915,0.039336,0.023629,0.037207,-0.070086,0.079204,-132.238190,0.889759,-178.936295,0.010857,-0.005344,0.914351,-0.404741
5857,0.007565,0.041021,0.022091,0.027940,-0.066998,0.068486,-132.248322,0.887979,-178.936432,0.010842,-0.005350,0.914387,-0.404661
5858,0.005579,0.041822,0.023351,0.006449,-0.068482,0.059285,-132.260391,0.884938,-178.936386,0.010817,-0.005363,0.914430,-0.404565
5859,0.006806,0.036398,0.022855,-0.007393,-0.056234,0.051614,-132.271332,0.881803,-178.936264,0.010792,-0.005376,0.914468,-0.404478
5860,0.007135,0.037346,0.024650,-0.021213,-0.056187,0.057669,-132.280563,0.877635,-178.936234,0.010759,-0.005392,0.914501,-0.404404
5861,0.006485,0.035204,0.022229,-0.033505,-0.050037,0.051516,-132.289917,0.873454,-178.936279,0.010725,-0.005407,0.914534,-0.404330
5862,0.001850,0.036767,0.024384,-0.062582,-0.053062,0.045384,-132.299973,0.871881,-178.936218,0.010712,-0.005414,0.914570,-0.404250
5863,0.005461,0.038065,0.027483,-0.068761,-0.054566,0.031629,-132.309677,0.870922,-178.935867,0.010705,-0.005421,0.914604,-0.404173
5864,0.003444,0.040254,0.029319,-0.067303,-0.063695,0.039230,-132.318741,0.869262,-178.935318,0.010693,-0.005432,0.914636,-0.404101
5865,0.002984,0.033324,0.031240,-0.056657,-0.063677,0.031582,-132.324341,0.868962,-178.934586,0.010693,-0.005439,0.914656,-0.404056
5866,0.003365,0.028637,0.032510,-0.042902,-0.060609,0.043771,-132.323761,0.868800,-178.933868,0.010695,-0.005446,0.914654,-0.404060
5867,0.004622,0.020547,0.033452,-0.022981,-0.063639,0.042219,-132.316544,0.867856,-178.933182,0.010690,-0.005454,0.914628,-0.404118
5868,0.002189,0.019145,0.033417,0.000035,-0.062095,0.051351,-132.304184,0.867537,-178.932495,0.010690,-0.005459,0.914585,-0.404217
5869,0.000143,0.022375,0.029992,0.010828,-0.048359,0.051347,-132.292755,0.869591,-178.932114,0.010709,-0.005454,0.914544,-0.404308
5870,0.000500,0.022393,0.030386,0.010916,-0.042261,0.043721,-132.283539,0.872420,-178.931915,0.010732,-0.005445,0.914512,-0.404381
