seq,ax,ay,az,wroll,wpitch,wyaw,roll,pitch,yaw
1,0.000020,-0.000063,0.000308,3.751907,-0.507035,0.643511,-11.659399,-3.692255,0.377108
2,-0.056486,-0.025160,0.012615,3.336092,-0.430739,0.754140,-11.542943,-3.702881,0.403124
3,-0.050974,-0.023090,0.033337,2.805833,-0.275603,0.824079,-11.442398,-3.709175,0.431304
4,-0.082123,-0.067851,0.048325,2.384296,-0.116017,0.828529,-11.357731,-3.710127,0.459653
5,-0.101526,-0.089782,0.053361,2.364840,-0.113347,0.739644,-11.280287,-3.708745,0.486085
6,-0.130510,-0.098538,0.057895,2.013877,-0.059939,0.652666,-11.208820,-3.707054,0.509457
7,-0.142802,-0.111081,0.072611,1.727004,-0.023317,0.667925,-11.147891,-3.704149,0.531364
8,-0.157716,-0.137625,0.076992,1.731581,-0.052310,0.657244,-11.091664,-3.701125,0.553324
9,-0.131569,-0.129604,0.085707,1.933003,-0.171332,0.594681,-11.031958,-3.700779,0.574562
10,-0.107128,-0.133433,0.064846,1.911640,-0.239998,0.962429,-10.969613,-3.702557,0.601401
11,-0.114093,-0.125324,0.085343,1.972677,-0.355969,2.054992,-10.908191,-3.702765,0.652770
12,-0.115250,-0.152196,0.108206,2.312959,-0.772547,4.124146,-10.843537,-3.701799,0.757673
13,-0.108112,-0.146194,0.003798,2.596781,-1.543139,7.475078,-10.774466,-3.703447,0.955213
14,-0.073629,-0.200974,-0.080405,1.713270,-2.448012,13.423135,-10.725587,-3.703815,1.310553
15,-0.090401,-0.197590,-0.166973,0.355196,-3.767938,21.916437,-10.729774,-3.695913,1.909773
16,-0.100843,-0.254479,-0.132411,-0.624447,-5.107701,32.144714,-10.793031,-3.672920,2.824416
17,-0.057571,-0.212690,-0.229406,0.152249,-6.348278,43.464027,-10.882076,-3.623450,4.100454
18,-0.109796,-0.172708,-0.213758,-1.251603,-7.024262,57.227875,-11.005886,-3.523755,5.793451
19,-0.207145,-0.119023,-0.130610,-2.217513,-7.730766,73.193626,-11.194408,-3.346457,7.977097
20,-0.359170,-0.066050,-0.078552,-3.635097,-8.617329,87.931015,-11.442694,-3.086563,10.666720
21,-0.520636,-0.010707,-0.214510,-5.809541,-10.126468,100.515320,-11.760194,-2.760926,13.808070
22,-0.548181,-0.219837,0.046337,-10.881717,-12.273445,110.412476,-12.196563,-2.396388,17.324797
23,-0.550551,-0.391794,0.148203,-12.479360,-15.650321,114.338684,-12.731420,-2.041550,21.081343
24,-0.718997,-0.236680,0.067654,-12.371020,-19.877132,113.641335,-13.273345,-1.763552,24.914160
25,-0.797908,-0.188904,0.177072,-11.466146,-23.911680,112.052849,-13.783559,-1.593398,28.738888
26,-0.836285,-0.194398,0.314070,-10.877139,-27.474714,108.657661,-14.259789,-1.533384,32.512009
27,-1.024553,0.000752,0.208983,-8.249496,-30.323620,104.382019,-14.679310,-1.579043,36.187698
28,-1.178378,0.142186,0.216277,-4.997749,-32.163883,101.079918,-15.003531,-1.709177,39.762043
29,-1.197210,-0.056975,0.219554,-3.831942,-33.106907,96.380074,-15.260261,-1.900902,43.220963
30,-1.135958,-0.198274,0.092860,-2.833987,-33.393780,89.624794,-15.487828,-2.147793,46.502815
31,-1.052971,-0.359205,0.074241,-3.078135,-32.940578,82.680313,-15.709550,-2.440458,49.565884
32,-0.901664,-0.443964,0.188846,-5.127453,-31.863277,75.955551,-15.975471,-2.757458,52.405052
33,-0.783925,-0.365986,-0.028722,-7.535363,-31.889219,70.257751,-16.321554,-3.099671,55.043098
34,-0.424031,-0.378633,0.003367,-10.907658,-30.476210,66.214050,-16.770863,-3.447610,57.522141
35,-0.273677,-0.337147,-0.114789,-14.171614,-27.985899,59.167324,-17.332668,-3.765560,59.809147
36,-0.160575,-0.140661,-0.132586,-14.621760,-25.761101,52.634842,-17.952408,-4.053607,61.860340
37,0.015092,-0.157003,-0.321639,-13.425436,-24.161932,47.648117,-18.555103,-4.319890,63.712532
38,0.204045,-0.270289,-0.227963,-14.482902,-21.221474,42.147156,-19.149061,-4.552051,65.377739
39,0.105821,-0.105759,-0.061714,-14.635493,-19.730642,36.118225,-19.752945,-4.760886,66.839531
40,0.228593,0.019366,0.221109,-13.730621,-20.620258,35.623825,-20.341175,-4.982512,68.197945
41,0.414194,-0.008192,0.300944,-13.715361,-22.150761,37.052090,-20.922287,-5.222898,69.587921
42,0.344519,0.153007,0.301019,-13.539880,-22.935085,37.255039,-21.510078,-5.475248,71.020294
43,0.261760,0.268960,0.416265,-12.920354,-23.177710,38.156860,-22.093431,-5.722029,72.479355
44,0.378827,0.323333,0.212558,-10.797791,-22.642111,38.748920,-22.639364,-5.940559,73.962669
45,0.405563,0.268678,0.062750,-9.082652,-19.045504,36.510387,-23.120832,-6.093216,75.396049
46,0.330806,0.227988,0.041657,-5.394489,-12.969268,32.376656,-23.497353,-6.129032,76.668655
47,0.319503,0.166296,0.019846,-1.819246,-7.189062,28.940271,-23.731258,-6.027737,77.745598
48,0.307172,0.122102,-0.020039,0.764144,-2.441909,26.103575,-23.842194,-5.804842,78.654625
49,0.054159,-0.059974,0.052499,2.250396,2.434949,24.479990,-23.867746,-5.464177,79.429451
50,-0.212777,-0.120095,-0.142135,1.667492,6.316902,23.843679,-23.864223,-5.005039,80.109787
51,-0.489160,-0.097000,-0.373373,-3.670195,8.376902,27.194613,-23.953381,-4.436414,80.790405
52,-0.425647,-0.379998,-0.382520,-13.550562,9.506087,35.779469,-24.300016,-3.735167,81.628296
53,-0.424272,-0.724525,-0.458885,-21.763090,11.544724,45.533184,-24.951075,-2.851187,82.715279
54,-0.028458,-0.615814,-0.673071,-29.449179,14.802575,52.186218,-25.856115,-1.755761,83.998512
55,-0.442086,-0.341950,-0.311668,-35.067638,18.089417,55.991875,-26.957504,-0.462866,85.369041
56,-0.223152,-0.267457,0.003676,-36.407398,19.442913,59.055931,-28.141762,0.978455,86.778954
57,-0.167325,0.057758,0.256764,-31.321491,20.448498,53.159760,-29.230484,2.458785,88.100525
58,-0.287037,0.502776,0.476455,-23.269180,19.139254,40.824177,-30.082977,3.806687,89.136757
59,-0.626796,0.563546,0.887959,-12.837953,15.249670,31.039944,-30.627506,4.906343,89.882912
60,-0.067048,0.234440,0.840433,-2.197676,8.740072,24.728716,-30.822622,5.724548,90.480576
61,-0.215052,0.213232,0.754174,8.529579,3.403912,15.707445,-30.667437,6.242574,90.959381
62,-0.501886,0.277739,0.397978,16.789413,-1.137243,9.739552,-30.206879,6.489578,91.308525
63,-0.307604,0.140992,0.168646,19.635265,-3.943419,7.041716,-29.567356,6.555226,91.595413
64,-0.599177,0.090356,-0.078817,19.432316,-6.493241,2.283880,-28.891109,6.479223,91.817596
65,-0.698614,0.182021,-0.170766,19.117975,-7.251624,-2.980563,-28.237593,6.272345,91.917763
66,-0.571279,0.161272,-0.265429,16.743635,-7.361491,-8.772975,-27.646311,5.965208,91.858635
67,-0.308675,-0.003389,-0.171185,13.345400,-7.601061,-15.511461,-27.169600,5.557296,91.613068
68,-0.965791,0.153728,-0.052719,12.550393,-8.811120,-23.324200,-26.780025,5.019669,91.158607
69,-0.765658,0.169555,-0.043493,13.296571,-9.867061,-27.299232,-26.399822,4.363449,90.541603
70,-0.773055,0.100597,-0.050871,11.697400,-12.032350,-30.290051,-26.032093,3.611992,89.840172
71,-0.851068,0.022968,-0.077773,9.162838,-14.429578,-32.162354,-25.725784,2.760819,89.095291
72,-1.056414,0.078142,-0.155828,5.871417,-16.335461,-32.205086,-25.505026,1.834609,88.349350
73,-0.456351,-0.131417,-0.149420,1.032707,-16.700157,-28.587116,-25.406013,0.901916,87.671310
74,-0.292838,-0.237441,-0.112185,-3.368061,-15.937192,-26.185308,-25.449505,0.018565,87.080795
75,-0.327937,-0.145990,-0.048627,-4.782594,-12.903653,-24.213816,-25.581656,-0.777191,86.530136
76,-0.207421,-0.055960,0.056579,-4.381275,-9.178868,-22.098881,-25.724102,-1.443132,85.993721
77,-0.129971,0.055096,0.209623,-1.636136,-5.863034,-20.179266,-25.808855,-1.975172,85.467941
78,-0.146676,0.191592,0.134268,1.821611,-3.152990,-17.968201,-25.786587,-2.387038,84.960495
79,-0.111534,0.201553,0.165664,2.613566,-0.917509,-16.376661,-25.691187,-2.696595,84.473770
80,0.077084,0.215335,0.187836,2.865344,0.062135,-15.334454,-25.576809,-2.938062,84.002838
81,0.112194,0.245080,0.147362,3.352114,0.695394,-13.517077,-25.449923,-3.133768,83.562828
82,0.078282,0.187916,0.101636,-0.119366,0.564164,-12.191048,-25.373812,-3.298644,83.166168
83,-0.050185,0.037198,0.240372,-3.180372,0.094179,-11.583730,-25.407398,-3.458729,82.802910
84,-0.075006,0.096207,0.114212,-0.986092,1.263038,-10.305005,-25.455923,-3.595047,82.463127
85,-0.285357,0.036916,0.113951,0.738204,2.778283,-8.719567,-25.440067,-3.670420,82.147217
86,-0.535299,0.000768,0.131196,1.644604,4.378979,-7.500353,-25.381432,-3.678636,81.851242
87,-0.732224,-0.055984,0.148877,4.580484,6.660237,-5.505969,-25.260241,-3.605014,81.576042
88,-0.772132,0.106326,-0.043888,8.102320,9.214636,-3.670280,-25.033499,-3.430436,81.324692
89,-0.773211,0.095072,0.017072,6.217802,10.192754,-2.386977,-24.781744,-3.179512,81.096527
90,-0.574728,0.028826,-0.092221,4.704084,8.895717,-1.514148,-24.589529,-2.917621,80.904259
91,-0.373192,0.024043,-0.143023,5.256469,6.136844,-1.193704,-24.416409,-2.708364,80.759087
92,-0.383616,-0.056743,-0.057594,8.122158,3.426801,1.334755,-24.190514,-2.562105,80.695610
93,-0.445432,-0.055134,0.039757,10.969534,0.678609,4.977139,-23.875338,-2.456702,80.763939
94,-0.362727,0.215162,0.144371,13.807756,-3.088901,6.353524,-23.470476,-2.417582,80.953232
95,-0.627286,0.416696,0.550447,14.943045,-4.924589,10.880944,-23.004751,-2.426931,81.270226
96,-0.631313,0.482370,0.650962,14.073266,-5.499863,15.899714,-22.541395,-2.414212,81.749443
97,-0.279373,0.559424,0.647595,9.597727,-4.814723,18.252689,-22.171495,-2.356492,82.341690
98,-0.044456,0.505480,0.519614,3.114070,-3.912901,16.798485,-21.983667,-2.271466,82.938126
99,-0.274120,0.180194,0.395887,-3.015572,-1.141820,15.870719,-22.002687,-2.145420,83.474869
100,-0.143829,0.171604,-0.192883,-8.069438,1.614001,11.283788,-22.202282,-1.967605,83.891434
101,-0.346825,0.080195,-0.312173,-14.176190,4.200445,6.683124,-22.580755,-1.763716,84.131447
102,-0.458636,0.003369,-0.518529,-15.436604,4.977140,2.253362,-23.076466,-1.564709,84.209335
103,-0.519265,0.001640,-0.458370,-14.707211,5.285378,-0.507037,-23.577732,-1.395964,84.168266
104,-0.488658,-0.057177,-0.337871,-12.909672,3.596178,-1.999392,-24.035679,-1.277297,84.070244
105,-0.335394,-0.294325,0.047020,-9.433615,2.544816,-3.168251,-24.405420,-1.219258,83.949638
106,-0.212768,-0.311613,0.205513,-4.527764,1.652149,-4.685020,-24.634945,-1.209890,83.801460
107,-0.233826,-0.268346,0.525306,-2.373157,1.314920,-6.212472,-24.745975,-1.240759,83.615723
108,-0.329521,-0.195198,0.704781,-1.935217,2.064149,-6.873198,-24.812889,-1.280995,83.394035
110,-0.204976,0.031717,0.506193,-3.323809,1.621631,-6.963228,-24.895210,-1.322169,83.158913
111,-0.270714,0.292236,0.107127,-3.635097,-1.645375,-6.477983,-25.006329,-1.417052,82.955910
112,-0.370641,0.419341,-0.283298,-1.381307,-5.228249,-5.080235,-25.086561,-1.602412,82.829826
113,-0.519271,0.445834,-0.471720,-0.058329,-7.860469,-2.412918,-25.109875,-1.852929,82.809219
114,-0.244335,0.202036,-0.171279,1.266174,-11.637135,-0.732874,-25.092846,-2.169443,82.899612
115,-0.287155,0.109343,0.101888,6.168973,-12.354320,1.894769,-24.976524,-2.523539,83.086494
116,-0.198274,0.099271,0.380484,8.331209,-9.943358,3.699939,-24.746021,-2.821564,83.327469
117,-0.073885,0.178567,0.502345,5.348025,-6.851833,3.144502,-24.529228,-3.028469,83.548050
118,0.079494,0.187414,0.541326,0.597819,-4.910856,0.086548,-24.437183,-3.184548,83.678482
119,-0.107378,0.142089,0.231754,-1.887914,-2.542620,-3.644340,-24.458580,-3.322156,83.675964
120,-0.215913,0.117415,-0.151506,-4.263779,-1.259317,-7.280619,-24.552902,-3.455332,83.536354
121,-0.357036,-0.183828,-0.170954,-7.591823,-1.269998,-9.421493,-24.735998,-3.609719,83.300499
122,-0.229646,-0.609461,0.037641,-6.432120,-1.428694,-10.694115,-24.951279,-3.791418,83.014587
123,-0.339720,-0.578062,-0.070027,-0.377247,-1.436324,-10.056278,-25.044844,-3.980798,82.720627
124,-0.440912,-0.356666,-0.236244,2.935537,-1.291361,-8.029848,-24.984152,-4.149332,82.465973
125,-0.356632,-0.349980,0.020149,3.336855,-1.123509,-7.478990,-24.863554,-4.294693,82.247902
126,-0.452285,-0.137444,0.101138,5.631847,-0.908354,-5.930176,-24.699696,-4.419104,82.058624
127,-0.603929,0.135680,0.172746,6.365818,-0.902250,-4.289805,-24.488609,-4.517386,81.915840
128,-0.524140,0.134148,0.271483,6.268158,-0.297984,-3.302533,-24.269520,-4.587809,81.808487
129,-0.369989,0.160940,0.319698,8.100795,-0.095036,-2.187081,-24.023529,-4.631205,81.727417
130,-0.292019,0.160361,0.368685,10.543800,0.091127,-1.930725,-23.707687,-4.659003,81.664452
131,-0.189165,0.062467,0.387908,12.109401,0.461927,-3.056858,-23.323610,-4.683704,81.584267
132,-0.210634,0.060876,0.292892,14.682111,0.843409,-3.380354,-22.868286,-4.705800,81.476685
133,-0.234628,0.159340,0.172449,15.545785,0.132327,-3.047703,-22.355818,-4.731973,81.371170
134,-0.332520,0.078294,0.201937,15.789933,-0.449050,-1.775081,-21.827541,-4.767066,81.298454
135,-0.471676,0.031874,0.176745,17.503548,-1.323405,1.791007,-21.273586,-4.794386,81.309593
136,-0.460694,0.045272,0.047604,19.874836,-2.267953,6.010190,-20.662613,-4.803606,81.452904
137,-0.358510,0.007126,0.015185,21.516733,-3.384930,9.622056,-19.996044,-4.801267,81.730881
138,-0.285353,-0.079561,-0.059073,23.576729,-3.754204,12.719683,-19.277279,-4.788043,82.122902
139,-0.205765,-0.183591,-0.127808,24.124537,-3.447494,13.627609,-18.520227,-4.759266,82.578743
140,-0.165736,-0.313607,-0.202880,23.706434,-2.702842,11.793447,-17.759121,-4.724747,83.014709
141,-0.199032,-0.305442,-0.242748,21.756302,-1.947509,9.260411,-17.030937,-4.693908,83.373909
142,-0.258134,-0.253535,-0.301957,17.048820,-1.012117,7.324011,-16.407030,-4.661730,83.653725
143,-0.319440,-0.378840,-0.100316,11.996481,0.146061,5.216709,-15.939563,-4.617381,83.859123
144,-0.357347,-0.334109,0.121234,11.685193,0.669453,4.406443,-15.556953,-4.560777,84.010254
145,-0.388706,-0.132453,0.196192,12.101770,1.284401,3.695362,-15.170128,-4.493626,84.132195
146,-0.361367,-0.043285,0.331379,12.120081,1.758964,2.918665,-14.773701,-4.416175,84.225845
147,-0.421127,-0.022698,0.533859,13.682629,1.978698,2.000058,-14.348532,-4.335299,84.289719
148,-0.491972,0.182566,0.591263,16.446081,2.526505,0.867822,-13.848493,-4.250868,84.317856
149,-0.541274,0.431541,0.500923,14.987295,4.217230,-1.250163,-13.322220,-4.143168,84.285194
150,-0.563376,0.439428,0.556952,9.359683,6.849451,-2.544147,-12.909080,-3.977985,84.181435
151,-0.903242,0.307149,0.798795,2.105434,12.988250,-7.398117,-12.702239,-3.692407,83.945908
152,-0.963961,0.576218,0.732320,-0.142254,19.424601,-14.205271,-12.640989,-3.244549,83.475044
153,-0.783076,1.156605,0.062529,11.294558,18.193180,-16.430067,-12.421836,-2.743421,82.839661
154,-0.870067,1.032265,0.063680,-5.951452,16.946497,-15.946349,-12.304008,-2.286394,82.187035
155,-0.777097,0.626253,0.480554,-27.863739,14.266973,-11.394514,-12.847230,-1.878701,81.628105
156,-0.289007,0.184701,0.562179,-28.173506,7.359110,-4.498857,-13.770864,-1.590057,81.286537
157,-0.314613,0.050483,0.201096,-5.484520,0.817468,3.249791,-14.330407,-1.463502,81.232910
158,-0.329447,-0.012146,-0.345776,-14.653805,1.424786,10.385018,-14.671321,-1.370705,81.443649
159,-0.057126,0.080557,-0.311715,-18.209209,-1.503465,17.274572,-15.229241,-1.253071,81.889473
160,-0.128926,0.583266,-1.646849,11.981223,-5.771478,19.737415,-15.346596,-1.207565,82.516525
161,-0.242726,1.253843,-2.333886,15.446600,-9.569506,23.655991,-14.906168,-1.267067,83.281616
162,-0.193571,1.116810,-2.007100,-11.452414,-13.800896,26.523205,-14.861106,-1.428720,84.190193
163,-0.105750,0.268996,-0.370728,-25.660303,-17.820185,23.993221,-15.505883,-1.715011,85.141365
164,-0.091445,-0.516517,0.522277,-13.979344,-16.897001,15.707447,-16.193220,-2.089838,85.936325
165,-0.103674,-0.863527,1.479931,-23.060127,-13.707816,10.359077,-16.833075,-2.455652,86.497826
166,-0.261152,-0.930768,1.871474,-28.483265,-9.864009,4.966456,-17.708591,-2.754301,86.859024
167,-0.221712,-1.096030,2.027609,-28.779297,-4.910856,-1.179970,-18.669825,-2.967985,86.996239
168,-0.475289,-0.926716,1.710044,-24.773743,-0.391065,-6.418473,-19.557606,-3.092417,86.905586
169,-0.755858,-0.364389,0.863015,-23.058601,0.933438,-5.122962,-20.344814,-3.149104,86.721542
170,-0.759749,-0.391220,0.839632,-25.965490,1.679616,-4.541584,-21.152706,-3.165462,86.555344
171,-0.644932,-0.471395,0.680743,-23.437031,2.100771,-4.846768,-21.966717,-3.164411,86.386459
172,-0.601289,-0.297852,0.367752,-23.440083,1.124179,-2.060429,-22.740953,-3.158426,86.259384
173,-0.584628,-0.296158,-0.076178,-22.152201,0.066713,1.563644,-23.499950,-3.143591,86.243980
174,-0.439421,-0.275680,-0.420043,-17.975744,-0.413954,4.313361,-24.173744,-3.109507,86.336075
175,-0.251877,0.088055,-0.801055,-11.324236,-1.311198,5.872857,-24.671045,-3.065655,86.502831
176,-0.068413,0.293478,-0.958223,-6.242904,-2.443435,7.391152,-24.975918,-3.029785,86.730072
177,0.136493,0.184017,-0.888681,-3.760223,-2.338146,6.008664,-25.155092,-3.007482,86.966454
178,0.220101,0.266399,-0.607907,-2.290758,-0.973968,2.825584,-25.264166,-2.994740,87.123405
179,0.112672,0.402094,-0.286223,-2.226668,1.202001,-1.883422,-25.340107,-2.984581,87.135994
180,-0.073689,0.164459,0.082238,-3.656461,5.169407,-6.624472,-25.429155,-2.949404,86.962128
181,-0.298526,-0.038053,0.424423,-1.608668,10.116457,-9.839598,-25.498852,-2.837341,86.604401
182,-0.670825,0.031327,0.660595,2.154263,14.033508,-8.570026,-25.468407,-2.605932,86.153801
183,-0.926589,-0.074028,0.741257,5.346499,17.816277,-4.161629,-25.325859,-2.217297,85.734138
184,-0.697111,-0.142775,0.440066,9.472601,20.985624,0.590103,-25.067974,-1.657372,85.404823
185,-0.384598,0.090280,0.104326,10.069238,21.113802,3.155184,-24.736996,-0.994545,85.166008
186,-0.117810,0.004624,-0.217634,5.206114,19.687061,4.406443,-24.480606,-0.323782,84.997414
187,0.318219,-0.060598,-0.581499,0.834338,17.579758,2.744710,-24.379971,0.290963,84.848831
188,0.677433,-0.022598,-0.873818,-3.007943,12.156619,-0.969393,-24.417768,0.754465,84.670891
189,0.482565,-0.048108,-0.618444,-9.519065,3.997497,-5.002413,-24.629450,0.958048,84.468407
190,0.195904,-0.236074,-0.317710,-10.930548,-3.194190,-7.187538,-24.973198,0.884887,84.278114
191,0.041217,-0.238698,-0.102873,-5.811067,-10.898586,-8.489152,-25.253841,0.561276,84.141037
192,-0.474716,-0.284395,-0.138307,-0.644284,-20.412733,-5.545642,-25.361248,-0.010469,84.152374
193,-0.809568,-0.090251,-0.037279,0.754990,-26.356211,-1.219644,-25.360693,-0.763156,84.384079
194,-0.869665,-0.042754,-0.264587,0.904530,-27.894344,3.515302,-25.341303,-1.563860,84.805779
195,-0.975996,-0.132099,-0.386803,-1.488121,-28.162907,9.425212,-25.370872,-2.315727,85.401070
196,-1.059479,-0.010920,-0.484246,-4.898564,-25.962524,15.452616,-25.511967,-2.952073,86.163887
197,-0.706729,0.117661,-0.270541,-8.751526,-19.820671,17.285254,-25.784645,-3.403580,86.987427
198,-0.413788,-0.166377,-0.158090,-7.993141,-13.964171,17.326452,-26.110579,-3.657228,87.754143
199,-0.194919,-0.244837,0.007166,-4.329394,-8.893520,15.071135,-26.358019,-3.760248,88.408318
200,-0.076727,-0.132272,0.057432,-1.109692,-2.956146,10.298039,-26.479145,-3.749104,88.875862
201,-0.033026,-0.155700,0.192297,-1.175306,3.597704,4.395761,-26.530943,-3.630308,89.090714
202,-0.206486,-0.193452,0.333903,-0.636655,8.968962,-1.714044,-26.557718,-3.422945,89.037003
203,-0.324817,0.092792,0.263092,1.429448,14.175419,-5.789791,-26.528112,-3.133732,88.752296
204,-0.416835,0.100003,0.225390,1.446233,18.405283,-8.936250,-26.456356,-2.757190,88.289848
205,-0.496595,0.158084,0.204213,1.839922,20.283697,-10.196663,-26.376148,-2.321596,87.716843
206,-0.483144,0.169404,0.025486,1.351627,19.810661,-10.057804,-26.301012,-1.872510,87.117477
207,-0.441497,0.342299,-0.190614,1.482856,18.524305,-8.876738,-26.237411,-1.439286,86.551483
208,-0.460800,0.335631,-0.315172,2.026085,15.164218,-8.980500,-26.167688,-1.066922,86.036423
209,-0.524624,0.319702,-0.399921,1.093745,10.002013,-8.113774,-26.108379,-0.815868,85.595863
210,-0.514707,0.055187,-0.295301,1.298219,4.704000,-7.678887,-26.063850,-0.711495,85.251671
211,-0.678725,0.034391,-0.127481,5.325136,-0.920561,-6.688560,-25.950249,-0.759808,85.008812
213,-0.629988,-0.156981,-0.069453,9.243712,-6.833521,-3.124000,-25.705982,-0.947285,84.917908
214,-0.458213,-0.272509,0.022274,10.188260,-11.219032,1.275244,-25.383957,-1.231905,85.019882
215,-0.123424,-0.215000,0.115026,12.310822,-12.818201,3.612961,-25.014830,-1.559575,85.264282
216,0.206204,0.008360,-0.067912,12.341340,-12.772423,5.076324,-24.613247,-1.885883,85.574814
217,0.505483,-0.000242,-0.121083,9.435978,-11.325846,5.526472,-24.261858,-2.178387,85.902023
218,0.652207,-0.038976,-0.105240,5.717299,-8.379283,2.708088,-24.019703,-2.421883,86.161812
219,0.699056,-0.051235,-0.006749,1.885700,-4.657552,-1.331037,-23.897829,-2.611120,86.271164
220,0.506800,0.064619,0.008141,-0.189559,-1.492783,-3.549733,-23.868082,-2.737800,86.238289
221,0.363457,0.212953,0.150604,-0.659544,1.342387,-3.890014,-23.876841,-2.790285,86.125801
222,0.060330,0.294700,0.353878,-0.102581,4.208075,-3.697748,-23.882149,-2.756892,85.972519
223,-0.180700,0.265792,0.528964,1.380619,7.240089,-3.433762,-23.852131,-2.630491,85.786430
224,-0.400630,0.265644,0.502386,2.386203,9.730399,-2.600607,-23.780302,-2.412329,85.580025
225,-0.519162,0.129774,0.419261,4.661358,10.331614,-0.107245,-23.655916,-2.124347,85.404083
226,-0.591115,0.012283,0.366878,4.693403,9.495407,1.775747,-23.496401,-1.810314,85.297363
227,-0.462885,-0.078297,0.224934,3.611521,7.777213,2.892725,-23.356785,-1.515211,85.254295
228,-0.438599,0.049127,0.162327,2.235137,3.770133,5.985776,-23.260830,-1.279899,85.314041
229,-0.640838,0.202508,-0.028152,1.968100,-1.501939,10.934351,-23.196007,-1.133901,85.558327
230,-0.751119,0.145705,0.096154,-0.317737,-4.904752,12.817343,-23.176455,-1.076158,85.964340
231,-0.765996,0.056828,0.041711,-0.207870,-7.507982,15.142853,-23.194908,-1.082783,86.474243
232,-0.833515,0.138569,-0.148301,0.033226,-9.696157,17.070097,-23.209606,-1.134813,87.080765
233,-0.729551,0.035873,-0.279329,-0.087321,-9.796867,16.586380,-23.223734,-1.212270,87.724457
234,-0.401206,-0.177692,-0.132496,0.356722,-8.367077,13.784781,-23.232033,-1.290820,88.309135
235,-0.142353,-0.205660,-0.152802,1.244811,-6.856411,12.004025,-23.216778,-1.354513,88.804291
236,-0.104236,-0.229026,-0.071181,1.665966,-4.216560,7.311803,-23.177107,-1.397374,89.172989
237,-0.072316,-0.266464,0.047652,1.391300,-0.600117,1.499555,-23.130243,-1.413472,89.339638
238,-0.099870,-0.198216,0.124675,0.489478,2.618060,-2.683007,-23.098122,-1.390304,89.308266
239,-0.113143,-0.103154,0.134237,-0.740418,5.462385,-6.764857,-23.097609,-1.328212,89.110527
240,-0.204295,0.036362,0.044645,0.063745,7.864192,-10.926056,-23.100853,-1.239604,88.752090
241,-0.220625,0.126975,-0.068276,-1.266862,9.217688,-13.050144,-23.110958,-1.134536,88.272728
242,-0.169164,0.033482,-0.070900,-2.145795,9.429792,-13.393476,-23.157904,-1.021938,87.745239
243,-0.296619,0.135046,-0.036617,-2.103069,8.900296,-12.833463,-23.219900,-0.913273,87.223083
244,-0.459161,0.171532,-0.014939,-0.958625,8.152592,-11.669182,-23.263575,-0.813277,86.735641
245,-0.449085,0.096569,0.068312,-0.978461,6.828088,-7.921510,-23.290554,-0.712917,86.337013
246,-0.451574,0.057815,0.198516,0.906056,4.398815,-3.598563,-23.288891,-0.616973,86.086670
247,-0.301796,0.092871,0.276497,2.758529,1.609423,0.721332,-23.226995,-0.543874,86.003082
248,0.007971,0.057012,0.254878,3.957907,-1.517198,4.002072,-23.115740,-0.511451,86.074867
249,0.241170,-0.021219,0.267421,4.215788,-5.690604,6.724323,-22.981491,-0.551971,86.286423
250,0.251447,-0.093299,0.283799,2.520485,-9.238380,7.206515,-22.872623,-0.690647,86.597229
251,0.247883,0.066235,0.248637,0.077478,-11.257179,5.590561,-22.834009,-0.922536,86.926506
252,0.002738,0.321060,0.040812,-2.615779,-11.983520,4.990872,-22.882215,-1.210897,87.239578
253,-0.260483,0.469461,-0.154090,-4.337023,-11.069490,3.902887,-23.004915,-1.506869,87.525993
254,-0.379184,0.324762,-0.276700,-4.936712,-8.731773,2.985806,-23.166208,-1.765395,87.761147
255,-0.355203,0.387088,-0.368911,-0.838077,-5.725701,0.728962,-23.267403,-1.962401,87.913139
256,-0.373381,0.324497,-0.325782,2.273285,-2.391553,-0.201852,-23.245676,-2.083248,87.974617
257,-0.396819,0.070638,-0.121599,5.497566,0.513809,-2.364089,-23.115177,-2.128871,87.947571
258,-0.407316,0.004870,-0.109184,8.148098,3.364238,-4.157051,-22.883121,-2.111862,87.822151
259,-0.520255,0.248424,-0.064260,7.986350,5.825555,-4.477496,-22.607294,-2.026273,87.630051
260,-0.800921,0.429700,-0.039237,4.350070,6.089540,-2.133674,-22.395645,-1.885003,87.452126
261,-1.083916,0.622243,-0.142502,1.296693,4.034119,1.882562,-22.299419,-1.730555,87.384003
262,-0.912215,0.880072,-0.135474,-2.655454,1.939023,6.695331,-22.324846,-1.584163,87.478485
263,-0.558972,0.829546,0.181007,-5.472312,0.046876,8.808737,-22.466370,-1.455091,87.704826
264,-0.343957,0.944742,0.352465,-5.272415,-2.307627,7.310278,-22.652002,-1.386804,87.967415
265,-0.037432,1.068160,0.401530,-5.577601,-3.487168,5.254857,-22.838474,-1.394902,88.197906
266,0.300555,0.955753,0.446433,-4.187483,-2.676901,0.805258,-23.004564,-1.450164,88.330963
267,0.269336,0.745677,0.348543,0.295685,-1.733879,-4.230295,-23.068836,-1.540112,88.307182
268,-0.041804,0.703051,0.007873,3.924336,-1.448531,-6.830472,-22.994373,-1.661017,88.158195
269,-0.223405,0.498003,-0.157478,4.308869,-1.778131,-4.732325,-22.852451,-1.785581,88.001534
270,-0.219696,0.240977,-0.129225,4.997062,-1.210487,-2.588399,-22.694361,-1.878712,87.908264
271,-0.254569,0.071556,-0.033803,3.979269,-0.847317,-0.758815,-22.543476,-1.931800,87.869919
272,-0.258569,0.068877,0.111894,1.188353,-0.565021,0.831199,-22.457687,-1.953071,87.880028
273,-0.137198,-0.150738,0.355283,-1.834507,-0.113346,1.885614,-22.470026,-1.946209,87.926224
274,-0.015715,-0.102943,0.365787,-2.972847,1.522446,0.002622,-22.550827,-1.912456,87.946320
275,-0.045910,-0.106246,0.517690,-4.391957,2.515823,-2.771511,-22.671305,-1.868052,87.877800
276,-0.033388,-0.088543,0.310213,-3.806001,3.500045,-5.083288,-22.802780,-1.826158,87.718216
277,-0.088744,-0.230048,0.005602,-3.616786,4.122622,-6.099553,-22.919525,-1.781470,87.497017
278,-0.219518,-0.140907,-0.104457,-2.609676,3.846430,-7.408798,-23.015318,-1.747017,87.237778
279,-0.441457,-0.286852,-0.029081,-1.773469,3.294045,-5.997316,-23.080709,-1.724958,86.985474
280,-0.586153,-0.376457,-0.116533,-1.655972,2.499038,-4.176888,-23.132071,-1.702691,86.791527
281,-0.627706,-0.366375,0.133111,-2.307542,1.003631,-1.108251,-23.195061,-1.683672,86.687546
282,-0.657072,-0.294476,0.221247,-1.987099,-1.190650,2.817955,-23.267445,-1.675317,86.714973
283,-0.634392,-0.389927,0.165691,-2.275498,-2.953094,8.547804,-23.344358,-1.663824,86.916351
284,-0.391733,-0.253579,0.078919,-1.311114,-3.766412,9.791433,-23.413523,-1.645360,87.241486
285,-0.278746,-0.318592,0.092788,0.707685,-4.100589,9.850944,-23.433681,-1.635561,87.594147
286,-0.227247,-0.326470,-0.068419,3.927388,-3.751153,9.631211,-23.366402,-1.626755,87.944244
287,-0.072542,-0.299184,0.002557,5.674573,-2.318309,7.575789,-23.214931,-1.606361,88.247795
288,-0.034808,-0.217845,0.078524,6.970083,-0.923613,4.388132,-23.009861,-1.577852,88.452461
289,-0.122224,-0.355559,0.073947,7.012809,-0.203376,2.946132,-22.780073,-1.547672,88.572418
290,-0.182014,-0.247802,-0.051891,7.290528,0.323068,2.708088,-22.543983,-1.509549,88.658646
291,-0.274378,-0.254594,-0.022076,5.685254,0.695394,2.848473,-22.329765,-1.458523,88.737793
292,-0.380371,-0.315859,0.044365,4.908558,0.876979,2.518873,-22.155016,-1.400396,88.810677
293,-0.424765,-0.263222,0.007711,5.262573,0.965483,1.998532,-21.986893,-1.343651,88.868927
294,-0.490598,-0.167105,-0.010400,5.039788,0.381054,2.935451,-21.816750,-1.292163,88.936874
295,-0.424746,-0.212660,-0.092690,4.424840,-0.217109,3.959347,-21.661350,-1.247048,89.042618
296,-0.382873,-0.253055,-0.071404,4.264618,-0.786279,3.915095,-21.519289,-1.214286,89.170845
297,-0.351527,-0.237506,-0.122811,4.455358,-1.604176,4.240117,-21.376932,-1.201663,89.311951
298,-0.347326,-0.194469,-0.176429,3.747329,-2.496842,5.149568,-21.243818,-1.208461,89.482628
299,-0.198810,-0.187113,-0.165914,2.648663,-2.705894,5.323524,-21.141352,-1.226189,89.676781
300,-0.133005,-0.239041,-0.020459,2.012352,-2.354931,4.375924,-21.067575,-1.246652,89.858002
301,-0.026514,-0.235118,-0.058335,2.895863,-1.730828,2.787436,-20.988758,-1.267371,89.993912
302,-0.067541,-0.028478,0.015983,1.812455,-0.923613,0.365792,-20.911736,-1.289915,90.058823
303,-0.013731,-0.032927,0.134809,0.674115,0.109439,-2.077215,-20.869801,-1.312775,90.037010
304,-0.107940,-0.124797,0.186178,1.601878,0.924283,-4.257761,-20.829453,-1.334262,89.932182
305,-0.277903,0.072694,0.087273,2.520485,1.243201,-5.980531,-20.756697,-1.361065,89.759789
306,-0.405688,0.123947,0.108955,0.754989,0.863246,-6.104131,-20.697269,-1.399510,89.558929
307,-0.420724,-0.066980,0.002849,0.625285,0.117068,-4.662131,-20.669939,-1.447629,89.385231
308,-0.443457,-0.115634,-0.069484,-0.094952,-0.484146,-4.077703,-20.657639,-1.504756,89.251053
309,-0.447425,-0.115820,-0.105184,-2.705810,-1.160131,-3.168251,-20.701534,-1.573048,89.147705
310,-0.389347,-0.052959,-0.054402,-6.323779,-1.451583,-2.272533,-20.850071,-1.645935,89.078346
311,-0.352955,-0.018526,-0.023767,-8.162518,-0.703880,-2.086370,-21.089893,-1.705507,89.023354
312,-0.308005,0.084906,0.036738,-9.059762,0.759483,-3.995303,-21.374084,-1.741357,88.928520
313,-0.346656,0.224029,0.099742,-8.428029,1.722342,-5.417465,-21.660633,-1.760374,88.767365
314,-0.431744,0.439007,0.192780,-7.544519,2.644001,-6.345227,-21.920410,-1.765532,88.558212
316,-0.375087,0.344440,0.309284,-5.232742,2.439527,-7.376753,-22.125843,-1.772710,88.314331
317,-0.315706,0.422762,0.272372,-3.361957,2.148075,-6.358961,-22.261593,-1.788336,88.073364
318,-0.228302,0.399134,0.152709,-2.841617,1.839838,-5.161109,-22.358631,-1.799713,87.870392
319,-0.176552,0.267195,0.163144,-4.117290,1.983275,-3.836606,-22.469496,-1.797988,87.707390
320,-0.112844,0.102820,0.063845,-3.941809,1.951231,-3.226235,-22.599640,-1.782556,87.573471
321,-0.093755,0.082411,0.001445,-4.691038,2.476149,-1.173867,-22.740566,-1.742735,87.477333
322,-0.084114,0.041460,0.130445,-4.953497,2.177068,-1.150978,-22.899351,-1.686301,87.411514
323,-0.158289,0.153220,0.397882,-4.129499,2.358653,-0.197274,-23.049282,-1.625477,87.361290
324,-0.211153,0.194120,0.429977,-1.703277,1.791009,0.011777,-23.145668,-1.563081,87.331314
325,-0.194596,0.340314,0.549825,0.170559,1.446149,0.622148,-23.170902,-1.509318,87.319801
326,-0.335022,0.439242,0.499314,2.857714,1.232520,-0.079778,-23.120197,-1.464713,87.310570
327,-0.461152,0.412915,0.432144,4.841417,1.131809,-0.940400,-22.991089,-1.435115,87.279495
328,-0.496974,0.320424,0.302718,6.754928,0.538224,-2.446488,-22.796242,-1.431436,87.216652
329,-0.443021,0.428078,0.149088,8.520424,0.115542,-2.333570,-22.539694,-1.452091,87.138931
330,-0.288580,0.341004,0.129417,9.390202,-0.284250,-3.915955,-22.238733,-1.494350,87.043671
331,-0.004257,0.237751,0.130246,11.772170,-0.293405,-6.395583,-21.881868,-1.567840,86.887978
332,0.067568,0.298242,0.038863,13.011223,-0.337657,-7.434738,-21.462891,-1.662772,86.677582
333,-0.213279,0.117141,-0.098520,11.613474,-0.903776,-4.388992,-21.047232,-1.753501,86.501343
334,-0.285197,0.081128,0.137122,10.185209,-0.500931,-1.392074,-20.681372,-1.809620,86.419609
335,-0.103117,0.025813,0.146097,11.082453,0.411572,-0.221689,-20.326130,-1.820372,86.394897
336,-0.031859,-0.059802,0.065774,11.529549,0.205572,-0.648948,-19.948721,-1.815690,86.377686
337,-0.139468,-0.284888,-0.120752,10.945118,0.950224,-0.874785,-19.573189,-1.806155,86.347275
338,0.166524,-0.246302,0.062684,12.492409,3.109408,-4.736902,-19.179110,-1.773370,86.236534
339,-0.039245,-0.376118,-0.230605,14.662274,4.043274,-7.715508,-18.719353,-1.728127,86.001404
340,-0.574022,-0.493673,-0.327118,13.790971,2.802697,-5.864562,-18.237640,-1.691711,85.750473
341,-1.027674,-0.493848,-0.319366,11.059564,1.517868,0.742695,-17.820450,-1.649602,85.646988
342,-0.882685,-0.522065,-0.132341,11.293031,-0.587909,6.213138,-17.450935,-1.599528,85.752777
343,-0.679277,-0.669795,-0.307844,9.710646,-4.190619,11.871268,-17.109568,-1.585887,86.064377
344,-0.378358,-0.742954,-0.197574,6.120143,-6.882350,14.678970,-16.859177,-1.632927,86.541718
345,-0.121415,-0.697376,-0.184246,3.458929,-6.969329,14.015194,-16.714912,-1.715634,87.066505
346,0.214298,-0.739533,-0.226093,2.119166,-5.768426,10.410958,-16.635805,-1.802089,87.517616
347,0.179606,-0.669550,-0.244322,-0.584774,-4.233345,5.747731,-16.620096,-1.884731,87.823540
348,-0.090610,-0.458541,-0.181709,-1.184462,-2.568561,1.899347,-16.654793,-1.956807,87.978203
349,-0.124423,-0.437632,-0.261683,-0.749572,-0.407850,-1.463793,-16.687773,-2.002231,87.999405
350,-0.174935,-0.482505,-0.267057,-2.286181,0.567216,-2.654015,-16.736050,-2.019414,87.932877
351,-0.336690,-0.363682,-0.168457,-4.411794,0.992949,-3.320844,-16.844055,-2.023286,87.829964
352,-0.385275,-0.354721,-0.078818,-6.470266,1.418683,-3.181985,-17.021355,-2.016411,87.714508
353,-0.347304,-0.363107,-0.050668,-7.462118,1.791008,-3.751155,-17.249140,-1.999352,87.588249
354,-0.438073,-0.344616,-0.005164,-8.498221,1.336283,-3.043126,-17.510845,-1.983434,87.464539
355,-0.433962,-0.192578,-0.020473,-8.025185,0.996001,-2.957673,-17.782530,-1.976736,87.357376
356,-0.448750,-0.227678,-0.049218,-8.632504,0.414624,-1.656059,-18.057379,-1.978026,87.276924
357,-0.402882,-0.180257,-0.080865,-8.344104,-0.273569,-0.200326,-18.339273,-1.985488,87.246773
358,-0.334180,-0.156879,-0.072161,-9.509911,-1.013643,1.176059,-18.637611,-2.000709,87.269005
359,-0.213628,-0.114828,-0.064818,-10.300340,-1.273050,1.368325,-18.969622,-2.023149,87.321465
360,-0.175330,-0.138034,0.030704,-10.977850,-0.783228,0.812888,-19.325871,-2.043604,87.367065
361,-0.137517,-0.107533,0.058262,-9.975318,-0.081302,-0.482622,-19.675444,-2.055329,87.377075
362,-0.134950,-0.114293,0.094129,-9.877659,0.591631,-1.888000,-20.004889,-2.060703,87.337006
363,-0.227024,-0.119697,0.098393,-9.219983,1.272194,-3.360518,-20.319843,-2.061657,87.244125
364,-0.292737,-0.034025,0.153517,-9.302384,1.343912,-3.835081,-20.623953,-2.062711,87.116440
365,-0.339282,-0.043991,0.063888,-8.452444,1.003631,-3.485643,-20.915247,-2.069384,86.988411
366,-0.383027,-0.088758,0.083104,-8.922427,0.924283,-3.320844,-21.200575,-2.080161,86.870934
367,-0.408446,0.016242,0.071108,-8.061807,0.501601,-3.258281,-21.479599,-2.097936,86.760071
368,-0.395704,0.116869,0.069668,-6.113200,0.223883,-2.242014,-21.712540,-2.120431,86.670311
369,-0.321360,0.086437,0.125480,-3.873142,0.056031,-0.969393,-21.877064,-2.135978,86.618835
370,-0.327390,0.205185,0.231174,-0.519158,-0.207954,0.240666,-21.949888,-2.142869,86.608513
371,-0.274841,0.436304,0.262478,5.474677,-1.187598,2.596695,-21.869261,-2.146804,86.661102
372,-0.276493,0.402411,0.266913,9.684705,-2.203864,5.816398,-21.622272,-2.147364,86.812386
373,-0.188832,0.373383,0.334369,10.916127,-2.843227,8.112915,-21.288168,-2.140720,87.059395
374,-0.231274,0.443411,0.268620,11.575326,-2.991242,8.860619,-20.924456,-2.129531,87.358521
375,-0.173020,0.479290,0.261626,11.099237,-3.078220,9.406899,-20.558432,-2.116301,87.679276
376,-0.159325,0.461013,0.265875,8.129786,-2.501420,8.675982,-20.249542,-2.098363,87.994385
377,-0.110200,0.478759,0.326760,5.500617,-1.681998,7.320960,-20.032351,-2.071973,88.268875
378,-0.187343,0.550143,0.300531,5.007743,-1.225746,6.124635,-19.865360,-2.041043,88.496193
379,-0.194681,0.595554,0.341765,5.515876,-0.870206,5.212131,-19.696667,-2.009978,88.685913
380,-0.200959,0.511518,0.329886,5.586069,-0.583332,4.255376,-19.517096,-1.979869,88.842781
381,-0.190245,0.479785,0.356113,5.381595,-0.561969,3.455791,-19.338682,-1.955139,88.970413
382,-0.263810,0.562990,0.258692,5.984336,-0.581806,3.199435,-19.153023,-1.936581,89.081482
383,-0.196099,0.444589,0.309936,6.022484,-0.128606,2.071777,-18.955837,-1.919098,89.168442
384,-0.157870,0.395591,0.349338,5.856158,-0.001954,1.017362,-18.759504,-1.904534,89.217880
385,-0.201140,0.479451,0.281853,5.084040,0.207098,0.565688,-18.577965,-1.892864,89.241806
386,-0.237618,0.379663,0.315427,4.809373,0.631305,-0.145393,-18.413145,-1.877396,89.244011
387,-0.224372,0.328677,0.375629,5.659314,1.218787,-1.556874,-18.237471,-1.857054,89.207359
388,-0.238038,0.429580,0.247217,5.145077,1.252357,-1.730829,-18.055305,-1.835000,89.142426
389,-0.243652,0.239256,0.297176,5.412113,1.336283,-1.056371,-17.877525,-1.808293,89.084915
390,-0.245834,0.269598,0.369251,8.843920,0.916653,-1.035007,-17.638525,-1.783154,89.040230
391,-0.299575,0.333597,0.272715,9.597727,0.570268,1.166903,-17.331003,-1.758843,89.034904
392,-0.287212,0.169797,0.263252,9.786942,0.046875,2.355599,-17.009550,-1.731635,89.087982
393,-0.280150,0.127946,0.253794,12.834215,-0.380384,2.703510,-16.635012,-1.712524,89.170334
394,-0.349890,0.237434,0.190171,14.317414,-0.725243,2.827110,-16.185282,-1.704165,89.264008
395,-0.438136,0.105816,0.134619,13.940511,-0.940398,4.600235,-15.718093,-1.696839,89.390732
396,-0.448432,-0.065678,0.078886,15.416081,-1.413435,4.104310,-15.233273,-1.695873,89.541069
397,-0.412078,-0.038545,0.069880,15.077326,-1.544664,3.678577,-14.729172,-1.709996,89.679192
398,-0.367662,-0.055229,0.167539,12.808274,-1.842220,3.257421,-14.268216,-1.735714,89.805313
399,-0.309555,-0.146120,0.129141,11.650096,-2.098575,3.364236,-13.864355,-1.772591,89.928406
400,-0.168652,-0.293819,0.113737,9.828141,-2.187079,1.406474,-13.509350,-1.823161,90.022621
401,-0.041530,-0.343282,0.209410,7.418706,-2.225227,-0.151496,-13.223125,-1.889908,90.060005
402,-0.149591,-0.618389,0.655073,6.098780,-2.980560,-2.373244,-12.997126,-1.983979,90.038727
403,-0.294991,-0.666268,1.409477,7.244750,-5.550219,-5.171791,-12.771466,-2.150652,89.947815
404,-0.593929,-0.321623,2.694105,9.768631,-7.794855,-5.820310,-12.482738,-2.407764,89.817596
405,-0.932860,-0.656545,3.559999,19.296509,-6.749597,-6.673301,-11.991538,-2.688773,89.665329
406,-1.054976,-0.964013,4.472003,23.057915,-5.301493,-5.187050,-11.278168,-2.925282,89.511826
407,-0.881855,-1.284479,4.641869,25.452091,-4.625508,-3.993777,-10.463417,-3.116505,89.392456
408,-0.513786,-1.497599,4.484530,34.406223,-3.014130,-2.872222,-9.460780,-3.261613,89.301559
409,-0.245064,-2.226685,3.005527,44.263702,1.252357,-3.777096,-8.143714,-3.307457,89.196152
410,0.231740,-1.923442,2.233971,41.501774,2.482253,-5.516650,-6.705251,-3.265819,89.033859
411,0.438454,-1.837847,1.158008,43.976822,5.303689,-7.118872,-5.268331,-3.158967,88.810455
412,0.227741,-1.820878,0.133496,50.639015,15.629625,-8.374709,-3.676811,-2.831491,88.525223
413,-0.146521,-1.855453,0.515320,54.255459,32.628433,-6.481036,-1.916919,-2.040514,88.237495
414,-0.326895,-1.840616,0.766554,63.024952,35.678757,-4.460710,0.041927,-0.905371,88.034599
415,-0.439516,-0.299287,-0.673451,76.768959,30.592850,-5.950014,2.371514,0.202369,87.884773
416,-0.559109,-0.135049,-0.662152,65.295532,25.143768,1.914606,4.738050,1.132890,87.877213
417,-0.387306,0.521765,-0.822255,52.210716,13.500959,1.939021,6.698340,1.768276,88.005562
419,-0.661526,0.950426,-2.387561,26.355440,-2.306102,4.809287,8.011753,1.938779,88.142082
420,-0.533858,1.596386,-3.000168,-11.028206,-8.556292,5.801139,8.271828,1.734844,88.292778
421,-0.175542,0.657497,-2.585615,-49.766876,-7.335549,9.518292,7.264568,1.438327,88.510696
422,-0.055329,0.850592,-3.702881,-59.424454,-4.923063,-0.281200,5.448165,1.218633,88.641975
423,-0.475226,0.586259,-4.451590,-65.184814,-1.601124,3.268102,3.372716,1.107807,88.683800
424,0.457589,0.163475,-5.606073,-57.347664,-3.807612,1.459881,1.332692,1.014006,88.759323
425,0.455406,-0.216618,-6.626659,-40.071148,-0.832057,-5.942383,-0.291767,0.937620,88.683548
426,-0.202950,-0.788974,-7.330522,-21.558615,3.364238,-11.191567,-1.323584,0.976760,88.397667
427,0.348746,-0.836349,-7.637239,-7.460593,3.667897,-13.082190,-1.814595,1.083620,87.990349
428,0.109949,-0.819684,-7.865496,12.126185,3.193334,-19.832884,-1.747733,1.181351,87.438492
429,-0.394498,-1.277703,-7.219506,21.432804,5.448652,-17.373091,-1.201912,1.310120,86.814926
430,-0.012292,-1.031498,-6.093572,28.589396,6.222296,-17.078587,-0.382517,1.497184,86.237968
431,-0.144870,-0.702014,-4.270895,30.467810,5.483748,-6.961701,0.590502,1.693308,85.837593
432,-0.580077,-0.473879,-1.859939,22.040123,5.035126,-6.508502,1.458548,1.873368,85.616264
433,-0.723467,-0.189423,1.013726,4.018944,2.946135,-0.490252,1.889019,2.009625,85.503418
434,-0.949978,0.694198,3.377634,-4.539971,3.559557,-5.361005,1.876904,2.121240,85.409355
435,-1.393980,0.794468,5.104171,-17.063240,-2.260323,2.036681,1.514844,2.144468,85.354492
436,-0.903780,0.635193,6.158592,-22.431446,-5.982055,0.957851,0.858324,2.005854,85.401413
437,-1.004557,1.064860,6.006848,-15.398456,-9.586290,3.731984,0.230301,1.745734,85.477028
438,0.133694,0.280901,5.809882,-17.954380,-10.929105,5.453228,-0.321322,1.403777,85.630127
439,0.193731,0.107663,4.801254,-15.515952,-11.492171,4.711628,-0.875428,1.031853,85.803490
440,0.499221,-0.409964,4.556898,-19.701565,-7.590381,0.986844,-1.460848,0.715825,85.904839
441,0.690012,-1.002562,3.923749,-20.809387,-4.614827,-5.641777,-2.136823,0.510275,85.833923
442,0.335783,-1.489833,4.048923,-19.410112,-0.105717,-8.127509,-2.809072,0.422102,85.608192
443,-0.013808,-1.064350,3.727934,-19.297195,2.521927,-12.763270,-3.456899,0.443439,85.258553
444,0.004251,-1.363252,4.145009,-29.899328,-1.218116,-10.697166,-4.279870,0.438969,84.867088
445,-0.261315,-1.360392,3.391125,-28.937994,-5.879819,-11.948426,-5.262641,0.289256,84.500626
446,-0.668365,-1.029143,3.208551,-34.168865,-7.007477,-7.746027,-6.315095,0.042561,84.195412
447,-0.648206,-1.716307,2.418768,-37.277176,-4.115849,3.654161,-7.505596,-0.150105,84.150070
448,-0.902690,-1.791433,2.372130,-33.390640,1.478194,10.186647,-8.683750,-0.162092,84.385040
449,-0.906442,-2.038829,2.843894,-20.598810,7.914548,17.384439,-9.583728,0.064850,84.814407
450,-0.583090,-2.607736,2.924690,-3.177319,11.587449,25.036951,-9.976643,0.504447,85.456619
451,-0.324005,-2.365536,2.861229,36.580666,10.307198,23.742970,-9.410202,0.999994,86.197266
452,0.034784,-1.516548,2.532553,73.720161,3.059052,19.174349,-7.558469,1.323573,86.873299
453,0.473837,-0.628394,1.317273,96.786057,-5.454086,15.570112,-4.704765,1.343340,87.454956
454,0.513563,0.003347,-0.273757,104.670509,-9.180394,12.005551,-1.340022,1.122555,87.928154
455,0.068582,1.344203,-1.506500,91.759659,-9.481002,7.649034,1.935985,0.809009,88.254509
456,0.083590,1.445580,-2.685042,46.778423,-9.470320,7.821464,4.245711,0.479218,88.495087
457,-0.274782,1.049339,-3.064109,1.838396,-5.965271,7.615463,5.057113,0.202807,88.731697
458,-0.713931,0.900330,-3.043168,-27.444111,-2.745568,6.777731,4.630894,0.038665,88.959167
459,-0.329783,1.383665,-3.248918,-52.571529,-2.768457,0.741170,3.297410,-0.061160,89.078247
460,0.164366,1.130382,-3.094588,-64.095314,-1.543138,0.114014,1.353322,-0.132709,89.089775
461,-0.243986,0.948516,-3.671305,-55.536400,1.455305,3.562606,-0.640015,-0.134449,89.151237
462,0.157752,0.835784,-4.683655,-43.113838,0.146061,-3.406296,-2.283693,-0.108237,89.153603
463,-0.113032,0.433225,-5.459002,-23.031134,-0.948028,-9.874693,-3.385427,-0.131704,88.933052
464,-0.319950,-0.021619,-6.715295,0.027122,0.512283,-7.627004,-3.768051,-0.156315,88.642227
465,-0.359255,-1.039699,-8.229486,22.772566,1.224890,-5.881347,-3.387500,-0.141041,88.415726
466,-0.115662,-1.561133,-8.394693,39.481445,-1.634694,-4.750635,-2.349533,-0.156308,88.239090
467,-0.574346,-1.886644,-8.005588,45.112110,-2.043642,-0.899200,-0.939474,-0.219975,88.146942
468,0.078903,-2.310027,-7.551182,38.910751,-0.490250,-0.858000,0.460809,-0.261887,88.117859
469,-0.012399,-2.472937,-5.027348,21.820389,-1.317302,-4.088384,1.473247,-0.290621,88.034798
470,-0.659455,-1.121583,-1.941868,6.063684,-1.848324,-9.978456,1.939241,-0.336717,87.798981
471,-1.283448,-0.701927,0.751447,-22.103374,-0.264413,-14.582173,1.674392,-0.359475,87.388786
472,-0.711345,-0.381519,3.654959,-37.989788,-3.502427,-15.079626,0.676162,-0.412850,86.893356
473,-0.884073,0.199396,5.808697,-34.802128,-8.032900,-10.987092,-0.532916,-0.605071,86.458565
474,-1.202223,0.379177,6.181115,-23.084543,-8.736350,-7.308087,-1.493455,-0.890139,86.158211
475,-0.657271,0.057992,6.218651,-20.127300,-10.553728,-2.802029,-2.210601,-1.216902,85.999878
476,-0.034585,-0.133039,5.607962,-5.884313,-12.329905,0.143007,-2.643284,-1.600021,85.971588
477,-0.220090,-0.143190,4.460629,-0.789248,-8.101566,0.594681,-2.755281,-1.939650,85.999466
478,-0.072638,-0.424205,3.580081,-7.080637,-4.884916,3.886102,-2.889472,-2.152163,86.084679
479,0.307301,-0.857894,3.289398,-13.341509,-2.832546,3.297095,-3.234660,-2.274198,86.211319
480,0.290107,-1.448399,3.407112,-14.690427,0.292550,2.849999,-3.706039,-2.310175,86.316330
481,0.244197,-1.311600,4.039870,-22.144571,3.680105,-2.939363,-4.319682,-2.244199,86.310310
482,0.073864,-1.560994,4.583014,-28.646542,6.231452,-3.235392,-5.161746,-2.087819,86.194115
483,-0.002177,-1.980184,4.467481,-30.930851,6.538162,-5.335065,-6.148984,-1.890142,86.030983
484,-0.336712,-2.285611,3.965625,-31.297075,8.035095,-2.963777,-7.180857,-1.664846,85.865334
485,-0.144836,-2.062135,2.907422,-24.789001,5.233496,-4.164680,-8.111585,-1.461666,85.718246
486,-0.467836,-2.190558,1.640198,-19.503197,1.874935,1.491925,-8.848184,-1.350941,85.656601
487,-0.462098,-1.937084,0.824221,-17.496605,0.699972,3.217747,-9.466492,-1.296388,85.727188
488,-0.340787,-1.826594,0.456339,-25.817472,-4.060916,5.376932,-10.191831,-1.327223,85.877899
489,0.169961,-2.178992,0.452468,-24.180157,-3.709953,9.167331,-11.031378,-1.409945,86.139854
490,-0.512320,-2.629302,1.928671,-3.790743,3.469527,11.276158,-11.505551,-1.347550,86.474930
491,0.030255,-2.546221,2.328046,44.204185,2.294564,11.462321,-10.839628,-1.180396,86.828522
492,0.095904,-2.109337,1.974283,83.331963,-0.137761,12.351935,-8.722012,-1.078798,87.214142
493,0.090814,-1.073312,1.461503,105.549446,3.342875,11.959773,-5.582922,-0.976342,87.609909
494,-0.266746,0.091063,0.587929,111.515808,0.869350,7.691759,-1.973699,-0.885615,87.931091
495,-0.284111,0.760500,-1.810623,85.115776,-4.964264,9.533551,1.295330,-0.953356,88.218956
496,-0.387004,1.068988,-3.156923,29.274534,-3.383405,7.639877,3.195226,-1.102559,88.500893
497,-0.307600,1.399192,-3.551393,-18.683775,-3.014131,7.047820,3.366825,-1.222131,88.739586
498,-0.657557,1.691594,-3.558294,-45.651455,-2.480057,11.759876,2.287726,-1.328218,89.048630
499,-0.329165,1.911289,-3.590422,-67.540855,-3.795405,13.296484,0.391523,-1.442274,89.463936
500,0.628429,2.014732,-3.427635,-77.054993,-3.879330,9.876885,-2.027690,-1.564147,89.851868
501,0.223073,1.810856,-3.289566,-68.920288,-1.375287,9.545759,-4.468554,-1.632329,90.179970
502,0.189373,1.417704,-5.079350,-44.053814,-2.357983,7.287390,-6.358784,-1.667886,90.465530
503,0.175556,0.649367,-6.419684,-21.122204,-2.686057,-1.672844,-7.447885,-1.740305,90.568306
504,-0.183981,0.152496,-7.342684,-1.587306,-2.460220,-4.025822,-7.823816,-1.837406,90.485306
505,-0.643901,-0.016048,-8.665582,19.360600,-3.912901,-0.355971,-7.525681,-1.952243,90.426949
506,-0.597561,-0.526258,-8.779495,28.963245,-4.991730,0.008725,-6.720709,-2.100047,90.439445
507,-0.070745,-0.875703,-7.407840,30.803513,-4.178412,-1.547718,-5.724320,-2.254728,90.430489
508,-0.139636,-0.774292,-5.540606,24.777634,-1.694205,-3.705377,-4.794909,-2.360325,90.352150
509,-0.634293,-0.397375,-3.450638,23.082331,-0.171332,-4.141792,-3.991997,-2.401534,90.223930
510,-0.756532,-0.504553,-0.129734,2.535744,0.085024,-8.487627,-3.556231,-2.416871,90.013725
511,-0.769209,-0.006726,2.190793,-4.279038,-0.517717,-4.820828,-3.575925,-2.438313,89.792618
512,-0.954183,0.496279,4.103512,-15.082590,-1.108250,-3.389511,-3.892824,-2.474384,89.657707
513,-0.813773,0.190783,5.310871,-23.104380,-4.257760,2.480725,-4.528878,-2.564826,89.649178
514,-0.093978,-0.088906,5.855278,-27.587547,-4.845241,-0.146919,-5.376051,-2.712898,89.701012
515,-0.043279,0.211533,5.259769,-14.304369,-5.396101,0.124696,-6.075051,-2.882587,89.717690
516,0.259284,-0.320389,4.844180,-19.408588,-4.904752,-5.689079,-6.633104,-3.063505,89.644234
517,-0.279869,-0.572869,3.981689,-15.973732,-2.397657,-5.374740,-7.213648,-3.206335,89.475670
518,0.034474,-0.694472,3.142302,-12.372547,-0.798487,-5.576161,-7.676239,-3.282759,89.301399
519,-0.026686,-1.191720,2.607895,-10.500237,-0.355969,-3.607717,-8.048873,-3.322697,89.152206
520,-0.148858,-1.603384,2.416819,-11.174696,0.922757,-1.538563,-8.405111,-3.325653,89.065826
522,-0.378967,-1.297405,2.695581,-12.609065,2.305245,-3.673332,-8.796089,-3.285502,88.971779
523,-0.217755,-2.028453,3.892855,-17.762114,3.231482,-5.006991,-9.293329,-3.217057,88.814178
524,-0.741095,-2.126765,4.045753,-9.952429,3.069734,-7.569020,-9.742769,-3.148149,88.589767
525,-0.810800,-2.085584,3.668449,-2.570002,2.193853,-6.435257,-9.938078,-3.101393,88.344444
526,-0.567624,-2.140555,3.221284,3.053032,1.635364,-7.617849,-9.916972,-3.078795,88.102409
527,-0.253517,-1.952182,1.996439,14.604287,0.271187,-4.717066,-9.611476,-3.082247,87.894119
528,-0.258754,-1.355681,0.557959,19.018791,-1.466842,-4.147896,-9.043359,-3.125617,87.751366
529,0.089420,-1.247606,-0.295630,10.762008,-1.361553,-2.740992,-8.541146,-3.189670,87.644997
530,0.132779,-1.129702,-0.618076,-2.594418,-0.549761,-4.413407,-8.398661,-3.238755,87.531601
531,-0.023783,-0.950023,-0.091193,-18.296188,1.578905,-4.039555,-8.738816,-3.242912,87.389549
532,-0.027808,-1.698198,1.069963,-25.808321,3.294045,0.162844,-9.469604,-3.173108,87.312851
533,-0.045861,-2.890530,2.148804,-5.978920,4.362193,3.591598,-10.001577,-3.037014,87.353096
534,-0.344513,-2.047712,2.226689,44.771832,4.346934,7.494915,-9.363207,-2.863039,87.511292
535,-0.125945,-2.038488,2.685419,68.222260,2.611956,13.455181,-7.496243,-2.697570,87.840614
536,0.096992,-1.605282,1.815909,93.790665,1.369853,15.187106,-4.818790,-2.580187,88.308762
537,0.111152,-0.592210,-0.059447,103.202568,0.721335,11.500469,-1.557747,-2.521236,88.751373
538,-0.547297,0.964258,-1.646086,82.149376,1.221838,9.763967,1.513131,-2.489931,89.105919
539,-0.035909,0.508703,-2.580564,30.389986,1.003631,5.288427,3.376629,-2.463435,89.358025
540,-0.303631,1.224911,-3.539038,3.587107,2.734030,1.160799,3.938080,-2.407789,89.469261
541,-0.644253,1.475544,-3.633994,-26.789492,3.948667,0.716755,3.549833,-2.298642,89.507607
542,-0.683312,1.689464,-3.256419,-49.315205,2.973601,2.651628,2.279083,-2.186192,89.569382
543,0.003685,2.035381,-3.348950,-62.668568,0.654194,4.490367,0.408506,-2.128633,89.689568
544,-0.115133,2.180267,-2.835108,-67.952843,0.999053,7.804679,-1.775354,-2.098789,89.893837
545,0.033351,1.543361,-3.292921,-57.559769,1.986327,8.717181,-3.876235,-2.035991,90.166527
546,0.245256,0.625851,-4.151283,-34.261944,-0.110295,5.119050,-5.414076,-1.986501,90.394127
547,-0.271906,0.770931,-5.575126,-11.418841,0.594683,0.597733,-6.178573,-1.968856,90.487968
548,0.400662,-0.690113,-6.080441,4.566752,1.124179,-4.884917,-6.290227,-1.948041,90.413826
549,-0.451272,-1.313815,-7.212341,29.994770,1.484298,-8.789761,-5.706375,-1.928489,90.182518
550,-0.599521,-1.537046,-7.853848,42.266262,-0.401746,-9.499315,-4.491800,-1.937347,89.877197
551,-0.562894,-1.815459,-7.111542,32.080715,-1.538561,-9.070530,-3.242309,-1.990255,89.570625
552,-0.584239,-2.151811,-5.372925,25.755753,-0.372753,-7.375227,-2.268888,-2.035431,89.298393
553,-0.934253,-1.548088,-4.077863,21.583874,-2.415968,-6.891510,-1.471463,-2.089651,89.062042
554,-0.592701,-1.357881,-1.420854,-0.195662,-3.790827,-4.230295,-1.108131,-2.197280,88.879059
555,-0.599175,-0.790879,1.218055,-14.955938,-4.663656,-7.109716,-1.353257,-2.342435,88.693207
556,-0.725994,0.070837,2.906681,-20.975714,-5.396101,-5.441879,-1.943464,-2.516186,88.488869
557,-0.208049,-0.275698,4.189006,-28.599236,-8.954557,-3.958680,-2.762887,-2.761745,88.342064
558,-0.559627,-0.314836,5.170776,-32.562069,-8.521195,-2.269481,-3.777674,-3.058608,88.254868
559,-0.295598,0.126490,5.095912,-27.163342,-10.237861,-0.749659,-4.771468,-3.374253,88.228081
560,0.102913,-0.467702,5.069573,-29.688751,-9.886898,1.766592,-5.721812,-3.706790,88.275475
561,-0.067456,-1.061576,4.434958,-21.908056,-7.257729,4.804708,-6.591008,-3.979276,88.415428
562,0.320525,-1.117418,3.873510,-19.492516,-5.208411,3.672472,-7.292674,-4.168683,88.581223
563,0.434785,-1.089544,3.061983,-15.366412,-2.008546,4.166872,-7.884360,-4.270613,88.727066
564,0.559703,-1.623271,2.442275,-14.678221,1.775749,3.124665,-8.394075,-4.257294,88.848358
565,0.326715,-1.502041,1.754101,-11.127392,3.210119,1.418681,-8.828732,-4.163744,88.911079
566,0.524363,-1.337328,1.223484,-12.497673,3.747245,-1.688104,-9.220840,-4.049886,88.888466
567,0.154650,-1.393269,0.898107,-10.878665,3.661793,-1.738459,-9.605068,-3.937318,88.811729
568,-0.124994,-1.496518,1.211702,-11.887301,2.447157,-1.424118,-9.979787,-3.845942,88.742325
569,-0.429690,-1.413441,2.155580,-15.465596,1.459883,-0.993807,-10.432240,-3.789016,88.690971
570,-0.760730,-1.710834,3.409992,-18.628839,0.936490,-0.536030,-10.998322,-3.754548,88.658371
571,-1.040854,-2.339180,4.506723,-19.222424,0.162846,-0.066045,-11.628280,-3.738582,88.644890
572,-1.108773,-2.169679,4.509186,-7.993141,-1.445479,1.638414,-12.083823,-3.754149,88.674957
573,-0.732253,-2.157864,4.019094,-0.343678,-3.050753,2.740132,-12.228526,-3.812128,88.762215
574,-0.292734,-1.944374,2.562633,10.453772,-4.198249,2.082458,-12.067045,-3.913388,88.866402
575,-0.009958,-1.605028,0.608919,18.934864,-3.551256,0.916651,-11.582481,-4.029646,88.941910
576,0.291357,-0.958439,-0.810903,16.562050,-2.390027,-1.834592,-10.991197,-4.129836,88.946213
577,0.283718,-0.533788,-1.207439,5.589121,0.374949,-5.399154,-10.613888,-4.185545,88.833771
578,-0.005024,-0.294796,-1.382881,-8.199142,2.625690,-9.313153,-10.639118,-4.181807,88.582870
579,0.069708,-0.734842,-0.867655,-22.779358,5.088532,-10.329418,-11.130363,-4.117608,88.236214
580,0.075498,-1.074907,0.877877,-23.705593,5.000030,-10.810084,-11.878175,-4.023427,87.856506
581,-0.344114,-0.788165,2.382902,16.140894,6.907436,-5.934753,-11.982517,-3.886955,87.541695
582,-0.579316,-1.894832,2.762145,46.442715,7.520858,-3.572621,-10.926192,-3.681882,87.338638
583,0.184429,-1.829063,2.651535,72.627594,6.414562,-1.601126,-8.934314,-3.467425,87.213814
584,-0.383180,-1.457540,2.340921,96.210777,5.917111,1.644518,-6.120128,-3.263170,87.188133
585,-0.575497,-0.478021,-0.163275,102.410606,5.453229,5.529524,-2.818156,-3.064417,87.293045
586,-0.124589,-0.311237,-1.814447,63.949665,3.124668,2.918665,-0.055163,-2.917234,87.430466
587,-0.191856,0.660354,-2.587975,31.163628,1.748283,4.794027,1.522775,-2.837847,87.560211
588,-0.859265,1.331922,-3.520578,2.613566,0.857142,6.579360,2.076221,-2.799881,87.751244
589,-0.693550,1.563004,-3.704053,-29.990885,-1.508042,8.091552,1.607945,-2.818115,87.995529
590,-0.576278,1.824382,-2.732790,-52.322800,-2.208442,7.859612,0.222922,-2.883759,88.260612
591,-0.401931,1.942545,-2.822265,-61.991058,-3.621449,9.957758,-1.697165,-2.976617,88.559120
592,0.108139,2.371061,-2.853912,-64.872009,-3.947997,12.271063,-3.830754,-3.084808,88.935509
593,-0.113578,1.709054,-2.107373,-55.287678,-2.069583,13.917535,-5.856779,-3.148138,89.379372
594,0.230464,1.523862,-3.643410,-26.916143,-1.625539,4.601761,-7.243686,-3.174620,89.693672
595,-0.185660,1.180264,-4.882146,-4.945868,0.315439,-1.257792,-7.777913,-3.188703,89.751747
596,-0.126541,0.288917,-5.977590,16.241606,1.290505,-4.373732,-7.584282,-3.174581,89.655022
597,-0.486628,-0.574244,-7.029519,33.911823,0.626728,-11.531847,-6.733602,-3.175808,89.387627
598,-0.370872,-1.245732,-7.949616,44.330837,0.629779,-13.750542,-5.406201,-3.199623,88.965912
599,-0.309977,-1.331414,-7.070492,38.381260,0.661824,-11.597464,-4.004214,-3.212712,88.542511
600,-0.258111,-1.999447,-5.627500,30.356415,1.984801,-8.125982,-2.840269,-3.188273,88.211273
601,-0.511389,-1.570379,-3.716385,19.517769,1.343913,-8.524250,-1.993684,-3.144460,87.931145
602,-0.501999,-1.208321,-1.500202,4.221892,1.321024,-7.236367,-1.583613,-3.108509,87.666824
603,-0.776179,-0.541085,0.761372,-9.598414,-0.761865,-4.799466,-1.662325,-3.105131,87.465706
604,-1.141401,-0.438254,2.480803,-17.943701,-3.741997,0.484814,-2.117516,-3.182744,87.396187
605,-0.659506,-0.263204,3.540354,-23.633875,-10.269905,5.144991,-2.816390,-3.412235,87.500099
606,-0.295739,-0.247264,4.482533,-26.688780,-10.451490,4.560561,-3.666335,-3.748081,87.681252
607,-0.674163,-0.318548,4.869226,-23.089121,-12.200201,9.409951,-4.513725,-4.107938,87.941086
608,0.289912,-0.694926,4.583898,-23.787992,-10.956572,7.578842,-5.318474,-4.468541,88.256943
609,0.259964,-1.089852,4.462324,-23.751371,-8.388439,8.617996,-6.135057,-4.762262,88.558754
610,0.294206,-1.396978,4.073051,-20.380602,-4.634664,6.078857,-6.893252,-4.950154,88.827858
611,0.209601,-1.443510,3.006596,-14.299789,-3.075168,8.518811,-7.493737,-5.047075,89.086441
612,0.705344,-1.848624,2.243424,-15.045967,0.233039,6.438975,-8.005183,-5.060602,89.340858
613,0.135745,-1.815876,1.666841,-11.946813,1.519394,6.171939,-8.472950,-5.001473,89.545570
614,0.262119,-1.747854,1.026192,-10.329332,3.760978,3.025480,-8.856167,-4.891412,89.684425
615,-0.046134,-1.593493,0.585288,-8.884281,4.594134,3.954769,-9.184186,-4.735567,89.777878
616,-0.419144,-1.637283,0.562933,-10.205731,4.279793,5.787405,-9.513431,-4.563286,89.914551
617,-0.570957,-1.442766,0.325663,-7.398030,2.857631,7.229405,-9.822059,-4.409619,90.109009
618,-0.662901,-1.280221,0.134979,-5.769867,1.519394,8.691240,-10.060483,-4.292030,90.358498
619,-0.687043,-1.349554,0.070391,-3.868565,0.326120,9.876885,-10.243388,-4.207263,90.658524
620,-0.591069,-1.130339,-0.124806,-0.806033,-0.464309,8.897242,-10.343862,-4.153675,90.967628
621,-0.552819,-1.134154,-0.148864,-1.726165,-1.324931,7.536116,-10.405987,-4.133747,91.243126
622,-0.314389,-1.073440,-0.114259,-3.036935,-1.375287,5.460857,-10.501389,-4.138679,91.464890
623,-0.339751,-1.008158,-0.013826,-3.464194,-1.300516,3.377969,-10.620838,-4.155486,91.618271
625,-0.271652,-0.864490,-0.039094,-5.577601,-0.581806,0.762533,-10.776903,-4.173481,91.692101
626,-0.235776,-0.814146,-0.006109,-8.426503,0.124698,-2.055852,-11.008863,-4.184994,91.672318
627,-0.244911,-0.752224,-0.004367,-8.559258,1.214209,-3.709955,-11.284749,-4.181632,91.573463
628,-0.253140,-0.681517,-0.021237,-8.730163,2.007690,-5.397628,-11.561288,-4.159025,91.413643
629,-0.190835,-0.580168,-0.049902,-9.036874,2.850001,-6.700768,-11.841928,-4.120606,91.199234
630,-0.211824,-0.540628,-0.020997,-8.057229,3.316934,-6.618368,-12.109764,-4.066097,90.960159
631,-0.199241,-0.453651,0.067046,-8.647763,3.527512,-6.584797,-12.371317,-4.001256,90.720337
632,-0.185747,-0.515992,0.154160,-8.057231,3.684681,-7.211954,-12.632360,-3.933689,90.469215
633,-0.223800,-0.422556,0.117080,-6.604549,4.046327,-7.144811,-12.858881,-3.860781,90.206810
634,-0.201359,-0.450389,0.220716,-6.464163,4.023438,-6.838101,-13.059517,-3.781947,89.948990
635,-0.150788,-0.493286,0.220438,-4.498772,3.838800,-5.940857,-13.226716,-3.702773,89.711281
636,-0.175668,-0.588966,0.158765,-1.866550,3.815912,-4.547688,-13.320052,-3.618718,89.511459
637,-0.245745,-0.547138,0.106689,-1.639187,3.493941,-3.262858,-13.368823,-3.530192,89.356384
638,-0.255287,-0.533530,0.073379,-2.408253,2.790490,-2.458695,-13.429152,-3.450405,89.239136
639,-0.364109,-0.426304,-0.020029,-3.130016,2.062623,-1.744563,-13.516261,-3.388078,89.152000
640,-0.403093,-0.271951,-0.089827,-5.176282,1.408001,-1.936829,-13.650390,-3.346273,89.078636
641,-0.456944,-0.194710,-0.031911,-7.269852,0.689290,-2.072637,-13.853552,-3.328216,89.005287
642,-0.421190,-0.040984,-0.110471,-7.356831,-0.149969,-1.605704,-14.093735,-3.334309,88.943504
643,-0.389586,0.014328,-0.024695,-7.634548,-0.439895,-0.838163,-14.341419,-3.353855,88.906364
644,-0.307267,0.082522,0.064153,-7.617763,-0.822902,-0.005008,-14.595131,-3.377761,88.897995
645,-0.277938,0.036728,0.209032,-7.248490,-1.433272,1.485822,-14.844880,-3.407875,88.931480
646,-0.255230,0.063541,0.170738,-6.154401,-2.034487,3.092621,-15.073565,-3.444044,89.020264
647,-0.288226,0.030698,0.256501,-6.690000,-2.676902,4.531569,-15.296305,-3.486575,89.163734
648,-0.370033,-0.065310,0.195215,-6.311571,-3.638234,6.554946,-15.525644,-3.538959,89.370216
649,-0.404903,-0.180509,0.132973,-5.507409,-4.474441,8.520338,-15.739993,-3.601502,89.649139
650,-0.351910,-0.200113,0.101726,-5.537927,-5.185523,9.019314,-15.944758,-3.676629,89.974968
651,-0.267852,-0.323675,0.126056,-5.058786,-5.695182,9.234470,-16.143658,-3.766836,90.318184
652,-0.176207,-0.394133,0.074832,-3.226150,-5.754693,9.028471,-16.304792,-3.865038,90.664505
653,-0.045543,-0.382782,0.104025,-2.162581,-5.383893,7.374367,-16.416142,-3.966202,90.979828
654,-0.015046,-0.482789,0.080079,-0.241439,-4.324901,5.622605,-16.474012,-4.060086,91.234009
655,-0.037621,-0.576681,0.028221,1.826189,-2.858486,4.237065,-16.461315,-4.128344,91.426025
656,-0.072276,-0.538176,-0.000885,3.065240,-1.431746,2.396799,-16.388937,-4.165697,91.552605
657,-0.071593,-0.546313,-0.001893,4.325654,-0.073672,0.883081,-16.270092,-4.174429,91.612267
658,-0.117979,-0.674085,-0.071812,6.962454,0.928861,-0.424637,-16.082201,-4.158635,91.615639
659,-0.129423,-0.590718,-0.093311,7.298157,1.461409,-2.583822,-15.840231,-4.134141,91.556313
660,-0.160675,-0.586922,-0.131321,7.469061,1.932920,-3.932740,-15.585468,-4.109132,91.436134
661,-0.230651,-0.617594,-0.164613,8.537209,2.232001,-4.546162,-15.307627,-4.079888,91.281044
662,-0.317806,-0.601444,-0.204958,8.566201,2.502090,-5.115333,-15.010069,-4.045840,91.104553
663,-0.339494,-0.552467,-0.143283,7.377505,2.579912,-4.834562,-14.731528,-4.006548,90.922073
664,-0.353720,-0.618449,-0.102188,7.807817,2.166386,-3.545155,-14.467640,-3.965213,90.766617
665,-0.375524,-0.571576,-0.098657,8.261017,1.415631,-2.347303,-14.192241,-3.931648,90.656418
666,-0.306617,-0.557575,-0.085309,7.475165,0.855616,-1.599600,-13.924972,-3.910878,90.583260
667,-0.288845,-0.633888,0.013258,7.000602,0.168950,-0.851897,-13.680721,-3.904030,90.539406
668,-0.231232,-0.606466,-0.015096,6.953298,-0.400220,-0.493304,-13.446727,-3.913021,90.518471
669,-0.218421,-0.579586,-0.069094,5.909564,-0.687094,-0.056889,-13.232022,-3.932761,90.513725
670,-0.214929,-0.554893,-0.020630,4.607951,-0.902250,0.730488,-13.057899,-3.955996,90.530724
671,-0.235950,-0.612758,-0.080831,5.221373,-1.210487,1.607896,-12.897261,-3.981545,90.576721
672,-0.197104,-0.543331,-0.140593,4.397373,-1.105198,1.913081,-12.741540,-4.006149,90.642662
673,-0.242269,-0.621335,-0.188031,3.848040,-0.893094,2.102296,-12.609210,-4.023950,90.715439
674,-0.221844,-0.721665,-0.171239,3.901447,-0.464309,1.379007,-12.484386,-4.033424,90.777145
675,-0.203288,-0.833606,-0.239419,4.156277,0.126224,-0.078252,-12.351669,-4.034273,90.799583
676,-0.243238,-0.852813,-0.168168,2.308381,0.539750,-1.891052,-12.241498,-4.030435,90.765060
677,-0.395728,-0.905522,-0.094463,2.554055,0.542802,-2.235911,-12.155454,-4.027353,90.693840
678,-0.500835,-0.746958,0.058981,2.670026,0.371898,-1.613333,-12.063744,-4.025905,90.627754
679,-0.522188,-0.558024,0.090561,2.999626,0.115543,0.159792,-11.967463,-4.022998,90.602303
680,-0.526657,-0.444946,0.146140,3.783951,-0.494828,2.894250,-11.857997,-4.018663,90.653542
681,-0.372553,-0.368951,0.093200,4.479773,-1.437850,6.010190,-11.730940,-4.019840,90.805779
682,-0.065869,-0.371633,-0.180071,3.333803,-1.373761,7.122590,-11.616449,-4.021418,91.030159
683,0.194336,-0.598528,-0.338305,-0.664121,-0.154546,5.360146,-11.586606,-4.004502,91.239586
684,0.277655,-0.836181,-0.446898,-2.417409,2.392223,0.892236,-11.644522,-3.946935,91.334366
685,0.315663,-0.882725,-0.465081,-4.607112,6.455762,-5.414413,-11.754528,-3.817787,91.230431
686,0.278983,-1.056607,-0.408902,-6.552667,11.466904,-14.121343,-11.915874,-3.592162,90.849686
687,-0.110267,-1.210697,-0.233424,-6.569453,15.409893,-21.557175,-12.094000,-3.277626,90.173698
688,-0.423862,-1.292350,-0.298224,-4.553704,17.089935,-25.248390,-12.231907,-2.912369,89.295807
689,-0.544599,-1.329797,-0.298852,-5.771393,16.351389,-24.804346,-12.359429,-2.545290,88.361107
690,-0.632648,-1.454139,-0.421890,-6.931097,14.215093,-22.242319,-12.534695,-2.216941,87.484901
691,-0.793171,-1.436687,-0.473972,-8.484488,10.732931,-16.016544,-12.765629,-1.951012,86.771210
692,-0.600880,-1.362222,-0.452064,-9.421407,6.687703,-8.801967,-13.048909,-1.760617,86.302872
693,-0.395354,-1.184142,-0.402685,-9.029245,3.646534,-2.974459,-13.349608,-1.637955,86.072296
694,-0.263826,-1.073709,-0.374104,-10.175214,0.866298,0.939540,-13.668294,-1.572881,86.021713
695,-0.061075,-0.885493,-0.313219,-12.572443,-1.526353,4.111939,-14.049738,-1.563504,86.106056
696,0.142693,-0.987989,-0.137907,-15.903536,-2.594501,6.049864,-14.529324,-1.588343,86.287170
697,0.217273,-0.913599,0.143154,-21.491478,-2.153509,4.874902,-15.158054,-1.618218,86.483498
698,-0.022116,-0.870359,0.447244,-28.524467,-1.494309,4.098206,-15.996175,-1.636485,86.643951
699,-0.036944,-0.900238,0.575565,-33.108345,-1.016695,3.457317,-17.027109,-1.640681,86.776657
700,-0.034467,-1.173221,0.470972,-36.410454,-0.618428,1.379006,-18.188080,-1.642173,86.861778
701,-0.084758,-1.086377,0.117567,-37.991306,-0.111821,-3.624503,-19.427055,-1.665560,86.830238
702,-0.181061,-1.073976,-0.483768,-37.936375,-0.537554,-8.884367,-20.686636,-1.746779,86.637947
703,0.013353,-1.097669,-0.865901,-37.895180,-1.657583,-14.885833,-21.938913,-1.924391,86.281822
704,0.055300,-1.089379,-1.147117,-37.332108,-2.330516,-20.937651,-23.173492,-2.214285,85.755356
705,-0.082780,-0.918624,-1.125785,-36.152573,-2.177923,-24.331312,-24.370371,-2.586617,85.094429
706,-0.206529,-0.869250,-0.962666,-35.352982,-2.309153,-24.680748,-25.527376,-2.998579,84.384468
707,-0.172043,-0.889584,-0.714622,-33.415058,-2.643331,-21.096350,-26.637012,-3.408021,83.734550
708,-0.174270,-0.973150,-0.627377,-30.663815,-2.544145,-15.677787,-27.673111,-3.764810,83.227814
709,-0.361052,-0.960849,-0.535764,-27.456320,-2.583820,-10.228707,-28.618429,-4.044076,82.886810
710,-0.448902,-0.979149,-0.496278,-24.595207,-4.302012,-4.581258,-29.474232,-4.264485,82.726448
711,-0.428412,-0.832574,-0.422169,-21.717312,-6.198737,2.132814,-30.249922,-4.436897,82.778389
712,-0.436966,-0.847621,-0.407252,-17.887239,-7.472884,7.609360,-30.929976,-4.550800,83.034958
713,-0.417961,-0.775052,-0.307253,-14.003760,-8.524246,11.526411,-31.494333,-4.613880,83.447227
714,-0.193981,-0.774642,-0.002599,-11.673674,-8.327402,13.934319,-31.963348,-4.629870,83.957542
715,-0.081713,-0.639809,0.242295,-8.202192,-6.670248,14.918543,-32.338081,-4.585744,84.499474
716,0.042573,-0.503541,0.320348,-4.246995,-4.887967,13.491801,-32.585426,-4.494271,85.004005
717,0.110379,-0.162589,0.408853,-2.774477,-3.178931,11.064055,-32.734798,-4.386712,85.422401
718,0.151701,0.074213,0.392109,-1.947424,-1.707939,9.275670,-32.838387,-4.271638,85.752441
719,0.082590,0.324646,0.169463,0.738204,-0.757287,8.663774,-32.878632,-4.143938,86.026642
720,0.044273,0.367832,-0.003997,2.567789,-0.447524,7.977107,-32.840893,-4.010373,86.271149
721,-0.107599,0.315579,-0.097794,3.936544,-0.478043,8.979642,-32.749420,-3.870304,86.517662
722,-0.066666,-0.068877,-0.174026,5.315981,-0.874783,10.371285,-32.614017,-3.715153,86.801933
723,-0.019962,-0.234890,-0.199867,6.263580,-1.027376,9.910456,-32.440235,-3.560137,87.104591
724,-0.010252,-0.290762,0.007749,5.750869,-0.711509,9.115449,-32.257271,-3.414977,87.388519
725,-0.051348,-0.319403,0.053436,7.528572,-0.055361,8.312811,-32.050709,-3.271214,87.641678
726,-0.010813,-0.373388,-0.022275,9.916645,0.799157,6.954738,-31.771656,-3.126231,87.851471
728,-0.048886,-0.256833,-0.107647,14.303680,0.316965,5.390665,-31.376837,-3.002723,88.017296
729,-0.070728,-0.165125,-0.219574,19.655104,-0.084354,4.493421,-30.818060,-2.914404,88.156601
730,-0.080539,-0.223452,-0.494955,26.434788,-0.586384,3.800650,-30.056219,-2.854096,88.281662
731,0.004056,-0.238702,-0.680127,31.784683,-1.138768,2.289984,-29.091049,-2.829087,88.384331
732,0.041232,-0.334728,-0.725206,36.898056,-1.866635,0.667925,-27.949787,-2.849674,88.451729
733,0.054208,-0.477136,-0.746231,40.015522,-1.050265,-1.544667,-26.668526,-2.899684,88.461159
734,0.067657,-0.626880,-0.846526,43.322201,0.306283,-5.811154,-25.274406,-2.964731,88.356262
735,0.027716,-0.781606,-0.886487,46.165001,1.614001,-10.309581,-23.769691,-3.047534,88.098259
736,-0.147431,-0.800981,-0.737007,48.044941,2.346445,-13.088292,-22.179062,-3.139404,87.713043
737,-0.219845,-0.360003,-0.626390,50.190392,2.923245,-16.060793,-20.515203,-3.234697,87.227974
738,-0.370112,0.007853,-0.392093,49.123768,3.031586,-16.610128,-18.829082,-3.324802,86.681129
739,-0.584460,0.117062,0.106373,46.213829,2.138919,-14.214424,-17.210230,-3.401866,86.165184
740,-0.645999,0.467422,0.376539,44.085163,0.127750,-10.648337,-15.681010,-3.482743,85.756454
741,-0.458365,0.583664,0.444088,39.887348,-2.060428,-7.529346,-14.264114,-3.591741,85.471748
742,-0.386941,0.350649,0.497342,33.843155,-4.237923,-5.765376,-13.023203,-3.745721,85.281006
743,-0.357180,0.311124,0.261277,32.036461,-5.919493,-4.269969,-11.916783,-3.946996,85.154205
744,-0.404610,0.216015,-0.147674,28.883896,-7.387432,-1.378341,-10.898075,-4.182866,85.105820
745,-0.240824,-0.151210,-0.215130,21.255796,-8.693624,0.266607,-10.064736,-4.449540,85.136559
746,-0.324540,-0.376971,-0.124277,16.053917,-8.803491,1.330177,-9.449000,-4.732289,85.212669
747,-0.260257,-0.622359,-0.171493,12.806747,-8.364025,4.702472,-8.980336,-4.998536,85.358345
748,-0.164386,-1.040915,-0.065986,6.574869,-7.790277,6.435923,-8.677374,-5.235939,85.584038
749,0.065487,-0.939353,-0.102826,2.938588,-6.467299,5.375405,-8.540298,-5.441278,85.815338
750,0.027082,-0.644755,-0.401718,0.220915,-4.225715,4.105835,-8.505290,-5.594059,85.998917
751,-0.138445,-0.424909,-0.393622,-6.249009,-2.794398,2.877466,-8.618845,-5.692399,86.132095
752,-0.223521,-0.376477,-0.139960,-10.175214,-1.236428,0.849511,-8.899761,-5.749264,86.204140
753,-0.205354,-0.165590,0.029873,-7.962622,-0.369702,-1.709466,-9.201058,-5.777888,86.194176
754,-0.208505,-0.294458,0.427984,-4.402638,0.162846,-5.241984,-9.395616,-5.799949,86.079811
755,-0.239948,-0.515625,0.779691,4.202054,0.762535,-9.891479,-9.373375,-5.825779,85.827141
756,-0.183029,-0.546153,0.544049,19.000479,1.327127,-14.432632,-8.945164,-5.855767,85.419243
757,-0.313165,-0.376574,0.198877,30.501379,1.581957,-17.727106,-8.064920,-5.886777,84.879143
758,-0.423624,-0.325571,0.017946,36.875168,1.813897,-19.004307,-6.878616,-5.910014,84.261589
759,-0.434333,-0.315458,-0.119126,42.043476,1.519394,-18.006351,-5.499341,-5.921103,83.639130
760,-0.530600,-0.304345,-0.126590,46.668556,1.272194,-14.624899,-3.964474,-5.919270,83.090515
761,-0.260670,-0.507458,-0.107541,47.664986,1.673512,-11.547108,-2.347249,-5.893720,82.650047
762,0.053796,-0.885100,0.168457,43.342037,1.710134,-10.561359,-0.792785,-5.847073,82.278267
763,0.352823,-1.212752,0.394132,39.482971,1.874934,-13.976380,0.629041,-5.787924,81.867149
764,0.570183,-1.262131,0.474986,36.293789,2.509719,-21.444260,1.951003,-5.702046,81.275688
765,0.701005,-1.271173,0.356018,28.345245,2.842371,-30.581501,3.113312,-5.575461,80.409218
766,0.791880,-1.339378,0.487688,18.144434,1.099764,-43.602222,4.006608,-5.434343,79.173645
767,0.846779,-1.241863,0.228031,13.772659,-0.746606,-58.812653,4.698552,-5.300598,77.464874
768,0.676268,-0.894341,0.009461,9.216246,-1.979553,-72.123299,5.281121,-5.157214,75.278481
769,0.392214,-0.882054,0.045921,0.689374,-4.236397,-82.023499,5.674752,-5.016225,72.702194
770,0.312308,-0.859505,0.161959,-1.573573,-6.471878,-91.078339,5.910937,-4.904352,69.804665
771,0.175630,-0.584006,0.093684,1.684277,-6.845729,-97.162201,6.179688,-4.795191,66.652412
772,0.061589,-0.522406,0.100724,4.273773,-6.203314,-101.453102,6.552350,-4.643641,63.330055
773,0.106397,-0.539122,0.168781,7.322572,-5.783685,-105.859978,7.019340,-4.433298,59.867836
774,0.131988,-0.359704,0.046364,13.421697,-4.804041,-109.896049,7.633823,-4.149234,56.272392
775,0.040671,-0.306251,-0.020043,13.650585,-4.242501,-110.935204,8.338443,-3.785982,52.601994
776,-0.040323,-0.436773,0.111086,8.317476,-4.704856,-107.369118,8.930828,-3.387456,48.979427
777,-0.259040,-0.391753,0.465269,3.024041,-6.023256,-99.730339,9.312009,-3.018413,45.541237
778,-0.452185,-0.492509,0.486862,0.458961,-6.821315,-89.619553,9.527960,-2.714522,42.391808
779,-0.266785,-0.484020,0.293765,-2.684446,-7.846736,-81.243759,9.620420,-2.482624,39.542294
780,0.079835,-0.459484,0.262163,-6.393970,-8.414380,-78.016426,9.580843,-2.307915,36.879238
781,0.085411,-0.483237,0.188565,-7.985512,-7.767388,-78.901451,9.443363,-2.142531,34.254818
782,0.055217,-0.431386,0.047338,-11.214369,-7.742973,-82.556046,9.219943,-1.961643,31.557394
783,0.063953,-0.360184,0.212834,-16.292646,-9.560351,-86.338821,8.854465,-1.804917,28.732382
784,-0.237704,-0.458925,0.264832,-24.888186,-10.549150,-89.515785,8.258906,-1.701222,25.784857
785,-0.514787,-0.436165,0.301111,-27.270159,-10.741416,-87.425278,7.477044,-1.650743,22.816029
786,-0.532826,-0.300843,0.193877,-24.000097,-12.983002,-81.565727,6.706135,-1.696038,19.973232
787,-0.351086,-0.110791,0.044038,-19.423847,-14.008423,-73.743835,6.064653,-1.854819,17.351133
788,-0.104220,0.112681,-0.207843,-17.554588,-13.076083,-65.897514,5.529893,-2.068284,14.989899
789,0.135497,0.152491,-0.018857,-13.573450,-11.377728,-55.129059,5.089166,-2.287405,12.943165
790,0.200952,0.162100,0.036132,-9.566369,-10.718528,-44.526928,4.774320,-2.511288,11.255761
791,0.359033,0.337718,0.105074,-6.075053,-8.504410,-35.350018,4.575704,-2.721871,9.901605
792,0.619133,0.335383,0.107100,1.951315,-5.638723,-25.451340,4.557286,-2.875979,8.871584
793,0.377443,-0.090607,0.306038,14.328095,-2.895108,-14.919403,4.863348,-2.961921,8.188420
794,0.153696,-0.172655,0.018269,23.547737,-0.812220,-7.184487,5.513931,-2.989313,7.815351
795,0.336351,-0.377928,0.234894,23.218138,1.723868,-2.498370,6.301563,-2.956977,7.656114
796,0.223085,-0.643825,0.324814,24.397676,4.089053,0.739644,7.095995,-2.857066,7.638173
797,0.004492,-0.873412,0.322293,19.412479,3.902890,1.113495,7.823765,-2.728807,7.686043
798,0.215731,-0.678049,0.137473,10.218779,3.625170,-1.685052,8.317219,-2.603213,7.694201
799,0.422606,-0.585299,0.395085,5.257995,3.214697,-4.259288,8.578794,-2.475994,7.612783
800,0.278818,-0.404720,0.129708,6.548928,2.375438,-6.044620,8.782171,-2.358052,7.456896
801,0.328006,-0.350688,0.053070,1.971152,1.258460,-7.335554,8.932711,-2.263886,7.245728
802,0.345213,-0.278922,0.161751,-0.717528,1.617053,-7.234842,8.962643,-2.178859,7.013100
803,0.330358,-0.241478,0.209812,-0.918951,1.778801,-4.695702,8.942359,-2.092054,6.825341
804,0.410121,-0.266855,0.147952,-0.186506,1.705557,-1.291363,8.927136,-2.019197,6.735728
805,0.470681,-0.271533,0.134018,-0.047648,1.522446,1.800162,8.922637,-1.967363,6.752464
806,0.536525,-0.263539,0.131989,-0.036965,1.476668,4.040221,8.917679,-1.933077,6.856439
807,0.604183,-0.229190,0.097737,0.280426,1.209631,5.094635,8.916444,-1.912446,7.013873
808,0.685142,-0.229114,0.125165,0.494057,0.497024,5.314368,8.923477,-1.911248,7.189768
809,0.733215,-0.190463,0.101299,0.886219,-0.294932,4.890161,8.940813,-1.934330,7.358397
810,0.754333,-0.209110,0.127692,1.139523,-0.934295,4.186708,8.969573,-1.978122,7.504734
811,0.780946,-0.254914,0.172817,2.160366,-1.471420,3.553450,9.020315,-2.037898,7.625955
812,0.798377,-0.192855,0.110048,3.858722,-1.730828,3.077362,9.116982,-2.108032,7.726739
813,0.738081,-0.156089,0.101957,3.623729,-1.640798,2.845421,9.238372,-2.179267,7.815279
814,0.673085,-0.171193,0.131327,3.161374,-1.538561,2.924769,9.348121,-2.247092,7.901696
815,0.645797,-0.173694,0.136973,3.004203,-1.395124,3.223851,9.447173,-2.312059,7.994886
816,0.595220,-0.138205,0.108288,2.230559,-1.207435,3.599228,9.530126,-2.373585,8.099986
817,0.544999,-0.211774,0.136123,0.956411,-1.067050,4.081421,9.578212,-2.432206,8.220037
818,0.559056,-0.233596,0.132544,1.145626,-1.016695,4.111939,9.607710,-2.489193,8.349021
819,0.539178,-0.240070,0.141076,1.501167,-0.864102,3.915095,9.646259,-2.542473,8.475801
820,0.526188,-0.216448,0.128180,1.920796,-0.771020,3.585495,9.697974,-2.590345,8.594571
821,0.528129,-0.200045,0.123718,2.210722,-0.696250,3.135347,9.761984,-2.633383,8.700950
822,0.541105,-0.165259,0.159014,2.119167,-0.635213,2.364755,9.830140,-2.670851,8.787597
823,0.490938,-0.164710,0.152133,1.992515,-0.481095,1.823051,9.895590,-2.701140,8.853247
824,0.487381,-0.211826,0.172631,1.774307,-0.388013,1.473614,9.955925,-2.724882,8.904930
825,0.485031,-0.201056,0.132197,1.887226,-0.244576,1.272192,10.014886,-2.743201,8.948222
826,0.481942,-0.216249,0.140607,1.121211,-0.104191,1.052459,10.063244,-2.755680,8.985401
827,0.463827,-0.230246,0.140015,0.646648,-0.008058,0.812888,10.091248,-2.762961,9.015717
828,0.483954,-0.239295,0.155390,0.373508,-0.067569,0.469555,10.107244,-2.767949,9.036563
829,0.464478,-0.211857,0.128175,0.178189,-0.133183,0.150637,10.115976,-2.773058,9.046165
831,0.463326,-0.234836,0.186486,-0.387929,-0.175909,-0.073674,10.112464,-2.778355,9.046524
832,0.507747,-0.214898,0.170970,-0.072063,-0.351391,-0.241526,10.105124,-2.786085,9.039803
833,0.541880,-0.207716,0.121826,0.088160,-0.384961,-0.490252,10.106080,-2.796026,9.025622
834,0.585831,-0.191971,0.080115,-0.404714,-0.211006,-0.583333,10.101750,-2.802666,9.006242
835,0.634158,-0.167176,0.113732,-2.354846,-0.130132,-0.682519,10.056824,-2.804572,8.984449
836,0.649583,-0.215679,0.095281,-3.538965,-0.258309,-0.598593,9.959680,-2.807240,8.962273
837,0.619404,-0.270537,0.133751,-4.735290,-0.363598,-0.775600,9.822971,-2.813519,8.937899
838,0.603349,-0.261882,0.110777,-5.487571,-0.517717,-0.777126,9.653968,-2.823618,8.909874
839,0.515075,-0.357875,0.176199,-9.256606,-1.021272,-1.758296,9.410505,-2.841917,8.863895
840,0.454351,-0.487820,0.265275,-13.837435,-2.448012,-5.222147,9.031811,-2.880342,8.739637
841,0.458407,-0.354767,0.272683,-19.695463,-4.581256,-10.840604,8.487333,-2.955298,8.456836
842,0.492079,-0.266810,0.065445,-27.259474,-5.870663,-14.388380,7.727970,-3.068330,8.015381
843,0.521371,-0.234011,0.134871,-38.900761,-6.516130,-17.374615,6.655586,-3.206897,7.463565
844,0.691987,-0.050723,0.184486,-41.514671,-7.262307,-18.006351,5.350584,-3.373801,6.852300
845,0.769555,0.238958,-0.105363,-35.359089,-6.333019,-14.128974,4.103038,-3.555496,6.298930
846,0.818577,0.374770,-0.206345,-27.979710,-3.529894,-6.998324,3.070489,-3.697625,5.936526
847,0.814231,0.401521,0.078258,-15.238234,-1.048739,1.139436,2.356858,-3.769584,5.835282
848,0.846522,0.383709,-0.083915,9.336794,1.572801,11.285315,2.244876,-3.769508,6.043038
849,0.714216,0.226589,-0.351750,24.654034,4.954252,19.922052,2.777261,-3.684061,6.568542
850,0.655731,-0.067898,-0.010877,27.493780,8.120547,24.377752,3.599316,-3.507784,7.319230
851,0.516513,-0.295151,0.047335,33.769913,8.700398,25.662584,4.569811,-3.287438,8.172319
852,0.526555,-0.330186,-0.052607,30.777573,7.487287,22.606152,5.599488,-3.090325,8.998740
853,0.442678,-0.373757,0.079685,19.574228,5.622607,16.217106,6.403466,-2.940764,9.665946
854,0.468104,-0.334311,0.269509,11.868303,3.344401,9.155122,6.905405,-2.841188,10.103761
855,0.465570,-0.224501,0.056916,10.115016,0.654194,4.186710,7.260507,-2.802505,10.332912
856,0.524328,-0.229846,0.117679,3.695447,-0.555865,0.922755,7.486505,-2.811920,10.417727
857,0.482539,-0.262838,0.104382,3.124752,-0.381909,-0.606222,7.600011,-2.828124,10.420926
858,0.518949,-0.278759,0.102710,2.506751,-0.261361,-1.128089,7.695356,-2.834916,10.390814
859,0.530860,-0.289695,0.086425,2.085596,-0.124028,-0.931244,7.773622,-2.836665,10.355893
860,0.553942,-0.292071,0.127717,1.727004,-0.012635,-0.757289,7.838562,-2.835100,10.327669
861,0.575235,-0.274729,0.108830,1.939107,0.146061,-0.284252,7.900498,-2.830520,10.310757
862,0.594769,-0.282856,0.095256,1.769729,0.252876,0.260503,7.962287,-2.823877,10.311283
863,0.563800,-0.280596,0.108407,1.199033,0.252876,0.524489,8.011070,-2.817345,10.325426
864,0.539772,-0.272542,0.127921,1.047966,0.167424,0.823570,8.047378,-2.813546,10.348681
865,0.566647,-0.240850,0.105076,1.427922,-0.030947,1.058562,8.087101,-2.815695,10.380099
866,0.562416,-0.234635,0.098886,0.980826,-0.194221,1.133333,8.125489,-2.824562,10.415777
867,0.560860,-0.211098,0.122978,0.735152,-0.334606,0.796103,8.152576,-2.837838,10.446403
868,0.566067,-0.210189,0.140045,0.960989,-0.404798,0.570266,8.179811,-2.853272,10.467220
869,0.578383,-0.194335,0.128853,1.217344,-0.386487,0.460399,8.215361,-2.868776,10.482361
870,0.541722,-0.202326,0.145123,0.977774,-0.238472,0.588577,8.251152,-2.881588,10.498193
871,0.544741,-0.205469,0.128211,1.273804,-0.078250,0.904444,8.287477,-2.890391,10.522089
872,0.535439,-0.224034,0.117781,1.218870,0.110965,1.458355,8.327048,-2.895540,10.561183
873,0.542017,-0.212422,0.098806,1.197508,0.260505,2.045836,8.364352,-2.897890,10.619940
874,0.526971,-0.216786,0.114882,0.639019,0.321542,2.393747,8.391182,-2.899071,10.694652
875,0.525788,-0.231902,0.114819,0.265168,0.309335,2.596695,8.402007,-2.900811,10.778578
876,0.528648,-0.228419,0.128745,-0.062906,0.191838,2.561599,8.401001,-2.905106,10.864958
877,0.505652,-0.237764,0.128701,-0.232285,0.060609,2.349495,8.391937,-2.912894,10.946653
878,0.509894,-0.276164,0.181959,0.007287,-0.101139,2.000059,8.384534,-2.924136,11.018364
