seq,ax,ay,az,wroll,wpitch,wyaw,roll,pitch,yaw
1,-9.369110,-1.511979,1.996408,2.854306,-1.501999,1.288645,-37.138462,75.034836,0.000000
2,-9.327316,-1.486335,2.094302,3.174750,-0.616962,-0.756096,-36.698811,74.932602,-0.025203
3,-9.457616,-1.280871,2.066497,2.800898,-0.876370,-0.824762,-35.642708,75.039345,-0.052695
4,-9.285770,-1.504945,1.941399,1.603047,-2.081851,-0.603503,-35.644096,74.975273,-0.072812
5,-9.183293,-1.446211,2.088314,1.259713,-1.517258,0.693534,-35.579639,74.915031,-0.049694
6,-9.469525,-1.478229,2.030046,0.931639,-1.364666,0.891904,-35.651100,74.925156,-0.019964
7,-9.196339,-1.417921,2.017560,0.672232,-0.059999,-1.725058,-35.615456,74.924812,-0.077466
8,-9.322474,-1.208802,2.091184,0.824825,0.641926,0.067904,-34.476357,75.051826,-0.075203
9,-9.243003,-1.362997,2.061499,-0.380656,1.176000,0.586719,-34.463604,75.089523,-0.055645
10,-9.120683,-1.160922,1.918433,-1.380138,3.304666,0.220497,-34.426365,75.224380,-0.048295
11,-9.049390,-1.398775,1.200300,-0.807916,4.616962,2.112644,-34.826138,75.456017,0.022126
12,-8.397477,-0.985117,0.955535,1.954010,11.895626,4.287088,-35.038811,75.974182,0.165029
13,-8.454781,0.406397,0.601059,2.778009,22.638142,14.770196,-33.220955,76.937950,0.657369
14,-8.567142,-0.154644,1.074473,3.212898,31.671619,27.992340,-32.490761,78.113297,1.590447
15,-8.682785,-0.831033,0.804270,5.242379,42.879543,44.106113,-32.656555,79.614388,3.060651
16,-8.368848,-1.452225,0.972549,6.226601,49.189247,54.375591,-33.042526,81.177765,4.873171
17,-8.900943,0.344023,1.186436,13.947784,55.941467,54.360332,-31.358904,83.018890,6.685182
18,-9.734438,0.032778,0.490493,13.512896,45.809322,54.490036,-30.135763,84.609947,8.501516
19,-10.603154,0.781413,0.545932,16.854671,49.715691,61.097294,-27.458092,86.232033,10.538093
20,-10.194794,0.353738,-0.116931,16.328228,43.611988,70.962402,-28.033682,87.795952,12.903506
21,-10.857773,0.783038,0.867051,17.335339,34.937103,67.994476,-25.717308,88.832977,15.169989
22,-11.164140,1.138290,0.908315,20.837337,30.992584,71.839806,-23.111877,89.683617,17.564650
23,-10.457872,-0.125480,0.767047,23.820522,27.025177,58.877071,-21.759914,90.463585,19.527218
24,-10.209044,1.562615,0.064584,25.376966,18.396069,43.152409,-22.700333,91.267616,20.965631
25,-10.950788,2.736729,-0.001201,27.078373,2.854518,36.041599,-23.502150,91.679489,22.167019
26,-10.192545,1.941659,-0.367210,24.545336,-6.514665,29.510637,-24.099138,91.700081,23.150707
27,-10.722912,1.316742,-0.823190,24.003633,-7.491257,17.074343,-24.166229,91.620125,23.719852
28,-10.805785,2.851346,-0.030541,18.166967,-15.868587,4.508348,-25.206305,91.433464,23.870131
29,-9.292188,3.204630,-0.584147,8.629933,-22.292734,0.701163,-26.287411,91.156082,23.893503
30,-10.029016,0.074609,-0.439063,8.752007,-22.315622,5.637532,-25.345787,90.465492,24.081421
31,-9.501351,-0.943670,-1.361830,0.885862,-33.760063,-14.634388,-23.815359,89.603943,23.593609
32,-7.402029,1.405959,-0.009247,-17.402355,-50.835171,-41.002380,-26.026131,88.230583,22.226862
33,-10.050627,4.697961,0.662700,-20.263466,-49.751762,-24.690237,-28.484772,87.289642,21.403854
34,-9.320476,0.995686,0.581012,-14.632799,-41.710136,14.999085,-26.754841,85.825554,21.903824
35,-7.171520,2.986535,0.928236,-5.141544,-28.838953,-0.679799,-28.934711,85.581696,21.881165
36,-7.286644,1.267394,1.937958,-4.439619,-31.463545,-1.282540,-27.526031,84.228859,21.838413
37,-6.995857,2.551464,1.060483,2.343121,-34.286507,-16.984312,-25.075970,82.720024,21.272270
38,-7.350734,2.337090,0.078590,6.829341,-27.580065,-20.135349,-26.525267,82.446846,20.601091
39,-7.898933,1.933438,0.294109,13.512896,-13.449995,-32.518234,-27.889200,82.546204,19.517151
40,-7.182443,0.516174,-0.695351,19.853115,-1.822443,-59.550003,-27.461428,82.845200,17.532150
41,-4.446700,0.397071,0.707383,21.104374,5.852962,-84.865105,-25.356337,82.955826,14.703314
42,-5.964990,0.473872,-0.788414,15.488969,17.839108,-89.717552,-24.994232,83.930862,11.712729
43,-9.708090,2.948531,-1.737303,5.600971,45.527023,-63.052002,-25.674671,86.047691,9.610995
44,-13.174286,0.782877,-2.734777,-15.624651,76.755089,-29.924160,-25.939974,88.945656,8.613523
45,-13.073905,-1.401849,-0.432323,-34.683464,97.805229,-3.754539,-29.097174,91.990631,8.488372
46,-12.514324,-0.692228,0.424635,-50.095310,112.408333,-5.433057,-31.459686,95.501320,8.307270
47,-11.770288,1.620440,-1.269024,-55.413158,112.446480,12.313457,-33.772480,99.266266,8.717719
48,-10.794029,-1.054778,-1.411052,-48.714348,115.086334,23.292490,-33.591923,103.006660,9.494136
49,-11.064066,-0.020194,-1.668171,-40.947388,108.189148,17.905973,-34.082916,106.412018,10.091002
50,-9.555552,0.716802,-1.885232,-35.827908,104.252266,25.543230,-34.915695,109.687881,10.942443
51,-9.090236,-0.444495,-2.594078,-20.858576,95.127228,22.537157,-34.477627,112.691002,11.693682
52,-9.686663,0.952241,-4.318533,-10.505172,85.841972,22.148046,-34.267979,115.527046,12.431950
53,-10.069201,0.594288,-5.273032,-9.902431,85.491005,20.469528,-33.893867,118.362053,13.114267
54,-9.070992,0.306868,-5.716125,-2.570360,90.824120,20.164343,-33.206882,121.411148,13.786412
55,-7.938422,1.336664,-4.528392,16.068819,73.367531,18.470566,-32.265610,123.778900,14.402098
56,-7.319166,1.830654,-5.524733,9.339489,46.488358,22.628712,-31.613760,125.407593,15.156388
57,-8.511916,0.987945,-5.799872,2.106602,23.729179,27.603230,-30.996624,126.159904,16.076496
58,-8.136373,1.776839,-6.166850,5.089787,6.287850,23.643454,-30.458120,126.416901,16.864611
59,-7.616323,1.176536,-6.032019,3.342602,12.216072,34.599598,-29.863956,126.876015,18.017931
60,-7.476727,0.911174,-5.318614,3.617268,0.962370,35.301525,-29.242834,126.880867,19.194649
61,-7.898005,1.405242,-6.852227,3.304453,-9.452070,32.066559,-28.694103,126.689896,20.263535
62,-8.917891,2.379704,-6.095179,2.633046,-9.703848,27.336193,-28.424349,126.363983,21.174742
63,-8.572389,1.757944,-6.060343,-2.074434,-3.531480,-4.128391,-28.185558,126.249039,21.037128
64,-8.678362,1.898999,-3.938754,12.078526,1.633778,-47.098454,-27.731873,126.064453,19.467180
65,-7.053538,2.053011,-3.118629,31.198372,-5.599109,-36.424603,-26.858559,125.678223,18.253027
66,-8.759120,2.027563,-4.352771,28.116001,-37.307838,-28.665272,-25.897739,124.292068,17.297518
67,-10.185173,2.200388,-4.918624,0.626454,-73.251015,-34.402752,-25.832481,121.751122,16.150759
68,-10.861481,1.751062,-6.086031,1.168158,-60.913906,-31.556900,-25.549992,119.733765,15.098862
69,-9.256367,1.420982,-6.823092,24.263041,-13.770439,-12.490462,-24.416801,119.467323,14.682513
70,-8.504591,1.358621,-5.567545,16.206154,24.782068,-1.183355,-23.622522,120.385429,14.643068
71,-8.219007,0.972839,-6.191024,12.810969,19.860958,-2.640613,-22.838860,121.204414,14.555048
72,-7.653079,0.606540,-5.290118,13.848598,14.077700,-5.074465,-21.981325,121.752556,14.385900
73,-7.619473,1.019124,-7.697117,2.434676,14.192144,-6.073946,-21.541222,122.558464,14.183434
74,-7.486169,0.786048,-5.017396,3.579120,20.288218,8.651235,-21.108965,123.257698,14.471809
75,-8.050850,0.676514,-5.900193,-0.456953,6.341258,12.633901,-20.759617,123.542725,14.892940
76,-7.318660,0.733889,-6.321352,-2.639026,1.427778,7.171087,-20.491951,123.775764,15.131976
77,-6.619190,0.506101,-5.188140,-1.662434,-6.224739,3.508866,-20.172970,123.684601,15.248939
78,-7.517787,0.912557,-6.513448,-2.799249,-12.954069,2.005830,-19.959007,123.451027,15.315800
79,-7.664367,1.177448,-6.152872,-2.471174,-11.657033,1.441237,-19.811182,123.217430,15.363841
80,-8.346589,0.806304,-6.070993,-2.471174,-10.153996,-3.273873,-19.585348,122.963730,15.254712
81,-9.334688,0.257806,-5.874927,0.267862,-5.209998,-12.170018,-19.149826,122.775558,14.849045
82,-9.038997,0.213546,-4.447114,4.052157,3.350443,-23.965422,-18.608114,122.720627,14.050198
83,-8.685119,-0.159177,-4.351267,1.976898,8.767479,-31.511124,-18.026287,122.853218,12.999826
84,-9.165538,-0.334242,-3.396926,-1.044434,3.136815,-37.546158,-17.469086,122.644478,11.748288
85,-8.679510,-0.281514,-4.184227,-4.813470,-4.820887,-23.912014,-17.092569,122.316406,10.951221
86,-9.053576,-1.258586,-4.353714,-5.851099,-6.880887,-12.093721,-16.452322,121.949661,10.548098
87,-9.054613,-0.209981,-3.985071,-6.469099,-2.165777,-6.173131,-16.175856,121.675140,10.342326
88,-8.031204,-0.860097,-3.724759,-9.177616,-3.775628,1.593830,-15.744669,121.396912,10.395453
89,-8.805285,-0.746955,-4.105589,-10.413616,-1.578295,9.910124,-15.431710,121.194618,10.725791
90,-7.830933,-0.532359,-3.798658,-10.970579,-1.379925,13.091679,-15.203019,121.022331,11.162180
91,-8.511391,-0.842211,-3.995981,-9.284431,-9.291849,16.792048,-14.827145,120.585579,11.721915
92,-8.460542,-0.477824,-4.994260,-13.068727,-11.153478,13.465530,-14.744572,120.225151,12.170766
93,-9.222538,0.133344,-5.251903,-15.449171,-3.264443,18.775751,-14.878057,120.105125,12.796624
94,-10.096712,1.069163,-5.694062,-14.716726,-3.691702,31.364635,-15.250261,119.978706,13.842112
95,-8.915946,1.351136,-5.132808,-14.709097,-7.140294,32.516708,-15.715743,119.766319,14.926002
96,-9.228196,1.209820,-4.596544,-11.985319,-8.284738,29.098637,-16.081020,119.434189,15.895956
97,-8.756651,2.580602,-4.370372,-10.787468,-6.613850,20.713676,-16.793610,119.235809,16.586412
98,-8.983507,3.534121,-4.351393,-11.359690,-5.110813,13.946197,-17.720032,119.137932,17.051285
99,-8.558769,2.763669,-4.888676,-9.192876,-5.209998,5.004273,-18.312809,119.071922,17.218094
100,-8.178999,2.760142,-4.605117,-4.416729,2.831629,1.677756,-20.955418,119.989471,17.274019
101,-7.901222,3.132511,-4.533329,4.372602,-1.334147,-5.524612,-23.576591,120.934402,17.089865
102,-7.542357,3.405059,-4.849126,8.164526,2.381481,-12.421796,-23.598743,121.192268,16.675804
103,-8.580804,2.613229,-3.936330,11.750451,5.700369,-13.222906,-23.466366,121.318680,16.235041
104,-8.236323,2.731697,-4.468592,14.733636,-0.151555,-12.612536,-23.186811,121.342094,15.814623
105,-8.006044,2.642466,-4.585598,14.565784,-4.767480,-9.789575,-22.882574,121.240280,15.488304
106,-8.430403,1.845626,-4.831656,14.245339,-3.577258,-6.325724,-22.370192,121.131256,15.277447
107,-8.215194,1.456213,-5.078462,14.230081,2.198370,-7.218390,-21.748455,121.243042,15.036834
108,-8.982100,1.073808,-5.144414,14.916747,8.538591,-9.286018,-21.014706,121.497757,14.727300
110,-8.609611,0.288413,-5.320912,20.349041,15.451033,-19.868313,-19.905560,122.006340,14.065022
111,-8.291535,-0.325186,-4.669962,21.569782,23.835995,-16.419720,-18.607321,122.717056,13.517698
112,-8.787977,-0.650574,-4.268063,23.126226,11.094517,-14.016388,-17.173866,122.913803,13.050486
113,-8.319396,-0.835683,-5.622523,17.808376,2.518815,-12.231055,-15.954397,123.031403,12.642784
114,-8.426155,-1.218274,-4.684111,13.192451,2.976593,-7.294686,-14.762311,123.049179,12.399628
115,-8.461082,-1.003397,-5.284189,9.041933,-1.799555,-5.707724,-13.830599,122.975555,12.209371
116,-9.040495,-0.399630,-5.262514,5.494156,3.174963,-3.167058,-13.197707,123.011246,12.103802
117,-8.230528,-0.739172,-5.251097,1.923491,8.683554,-3.693502,-12.604936,123.288017,11.980685
118,-8.431717,-1.517843,-4.019078,-0.105990,8.019775,-1.252022,-11.776020,123.391457,11.938951
119,-8.849866,-1.178708,-4.955759,-1.952360,5.929258,-1.099429,-11.210597,123.497498,11.902304
120,-8.513791,-0.893506,-4.685286,-2.837397,6.966887,-2.045502,-10.752625,123.617966,11.834121
121,-8.533904,-0.870792,-5.015591,-5.736655,3.495407,1.982941,-6.785209,123.150948,11.900219
122,-8.897574,-0.785600,-5.038450,-6.522507,4.708518,3.821681,-6.606004,123.220642,12.027608
123,-8.351171,-0.717685,-5.119623,-8.498580,4.784813,5.431532,-6.517560,123.339607,12.208659
124,-8.214074,-0.352407,-4.983654,-10.077912,0.542741,5.996124,-6.581033,123.306496,12.408530
125,-8.178071,0.220765,-4.754195,-8.811395,-3.600147,12.847530,-6.769344,123.111778,12.836782
126,-8.048635,0.382744,-5.409990,-8.025543,-2.272592,17.371899,-6.962111,123.059471,13.415845
127,-8.586053,0.439139,-5.245769,-8.040802,-2.760888,14.068271,-7.169015,122.931068,13.884788
128,-8.313941,1.069833,-5.573185,-7.888210,-7.643849,7.644124,-7.517816,122.717293,14.139591
129,-8.253202,1.036527,-5.625585,-9.124209,-6.552813,6.575976,-7.887403,122.554535,14.358790
130,-8.533111,0.979953,-6.095890,-9.284431,-4.645406,3.569903,-8.220276,122.486893,14.477787
131,-8.181017,1.645492,-5.745872,-6.018951,0.893704,0.830867,-8.609900,122.607544,14.505483
132,-7.834198,2.157290,-5.091362,-1.296212,-1.700370,7.392346,-9.010858,122.617477,14.751894
133,-8.142860,2.352713,-5.411423,0.809565,-3.935850,15.144048,-9.346722,122.572350,15.256696
134,-8.455333,1.522421,-5.327074,0.420454,-3.714591,10.375531,-9.498123,122.468193,15.602547
135,-7.797356,1.867596,-5.352784,3.815639,-6.140813,1.822719,-11.343543,123.014763,15.663304
136,-8.193512,1.225301,-5.459264,4.509934,-2.104740,-1.839503,-11.484586,123.221260,15.601988
137,-8.417353,1.326203,-5.172867,4.593861,2.022889,-6.920835,-11.407660,123.266273,15.371293
138,-8.179724,1.079203,-5.036574,4.387861,4.594073,-13.711203,-11.282215,123.388916,14.914253
139,-8.521616,0.824028,-5.239936,2.892454,7.287331,-11.445203,-11.129582,123.588547,14.532746
140,-8.952717,-0.112083,-5.622591,4.281046,12.521255,-14.405499,-10.712210,123.959160,14.052563
141,-8.378010,0.264977,-5.137191,3.052676,11.475998,-14.176609,-10.419011,124.271896,13.580009
142,-8.640051,-0.349005,-4.723343,0.580677,8.706442,-10.239722,-10.034018,124.416313,13.238686
143,-8.194919,-0.752896,-5.087247,-2.005767,3.091036,-5.898464,-6.397006,124.037483,13.042070
144,-8.220673,-0.363198,-5.129188,-3.096804,1.031037,0.411237,-4.390115,123.662682,13.055779
145,-8.202543,-0.340728,-5.171043,-4.058137,-0.632222,2.730644,-2.866338,123.370117,13.146800
146,-8.217676,-0.568995,-5.288378,-3.417248,-0.159185,1.784570,-1.155992,123.274460,13.206285
147,-8.030787,-0.912001,-5.523863,-3.203619,3.281777,-0.908688,0.864792,123.683525,13.175996
148,-7.802541,-0.164255,-5.967206,-4.325174,13.680960,-0.389874,0.742023,124.221535,13.163000
149,-8.624544,-0.629690,-5.962945,-6.453840,17.182959,1.464126,0.664426,124.794647,13.211804
150,-8.630235,-0.686315,-6.141466,-2.654285,9.454145,4.409162,0.720961,125.122162,13.358776
151,-8.357944,0.128395,-6.635854,-0.044953,5.997924,12.450789,0.701476,125.400375,13.773803
152,-7.764521,1.387176,-6.006884,1.885343,3.533555,28.831600,0.420127,125.591438,14.734856
153,-7.803679,2.042795,-5.248229,5.478897,-0.388073,33.729820,0.055995,125.584473,15.859183
154,-8.105191,2.001992,-5.474779,4.647268,-3.645925,22.209084,-0.296524,125.469475,16.599485
155,-7.769982,1.973198,-5.153689,5.822230,-3.798517,11.733604,-0.623648,125.343880,16.990606
156,-8.134949,2.940225,-5.855334,5.509416,-4.469924,2.494126,-1.095583,125.286240,17.073744
157,-7.674454,2.047255,-5.520701,6.165564,-3.783258,1.723533,-4.781334,125.627403,17.131195
158,-7.216207,1.672533,-5.810203,5.814601,2.701925,3.325755,-4.874302,125.823486,17.242054
159,-7.361259,3.115802,-5.084547,9.972748,3.724295,1.685385,-5.215828,126.024208,17.298233
160,-7.626528,2.346871,-5.927691,11.224007,0.771630,1.982941,-5.260638,126.146027,17.364330
161,-8.497520,2.314522,-6.062585,10.468674,-1.807184,4.248940,-5.311276,126.117844,17.505962
162,-7.776357,1.754018,-5.673212,10.956970,-9.215552,3.211311,-5.251901,125.849548,17.613007
163,-8.058925,0.932579,-6.084589,9.377637,-7.086886,-5.349131,-5.033677,125.657333,17.434702
164,-8.673643,0.297256,-5.913319,6.821712,1.176000,-23.782310,-4.758073,125.662079,16.641958
165,-8.442600,0.077207,-5.565496,7.149786,8.874294,-30.992310,-4.406754,125.893845,15.608881
166,-8.143034,0.143406,-4.911374,12.574451,-0.914518,-27.047791,-3.887915,125.744438,14.707288
167,-8.385794,-0.497677,-5.540145,9.804896,-3.371258,-14.374981,-3.343729,125.580193,14.228122
168,-8.216082,-0.596512,-5.642543,7.882230,3.464888,-4.738761,-2.853096,125.669022,14.070163
169,-8.305875,-1.018244,-5.348669,8.072970,6.966887,-0.366985,-2.249931,125.834869,14.057930
170,-8.179337,-0.795890,-5.400602,7.165045,5.891110,4.386273,-1.751235,125.973450,14.204139
171,-8.172215,-0.832842,-4.995667,6.699637,7.058443,0.220497,-1.253093,126.098221,14.211489
172,-8.424615,-1.379902,-5.251249,5.471268,4.182073,-0.176244,-0.675873,126.151718,14.205614
173,-8.148184,-0.872170,-5.513065,4.944823,-0.716147,-0.313577,1.389109,125.784622,14.195162
174,-8.498437,-0.749813,-5.594056,1.870084,1.176000,0.930052,1.606016,125.767967,14.226164
175,-8.481178,-0.879473,-5.502652,-0.823175,3.144444,3.638570,1.766128,125.808624,14.347449
176,-7.864079,-0.947224,-5.654908,-3.379100,2.297555,5.507829,3.224600,125.927315,14.531044
177,-8.456545,-1.100629,-5.619791,-5.896877,10.201849,6.568347,3.229363,126.213318,14.749989
178,-8.359389,-0.761562,-4.726658,-8.307839,11.399702,7.270272,3.107446,126.423492,14.992331
179,-8.381245,-0.421069,-5.842143,-8.902950,0.191778,9.742271,2.843474,126.392845,15.317073
180,-7.781206,-0.212671,-5.536416,-8.345987,-4.385998,8.964049,2.556139,126.226784,15.615874
181,-8.593082,0.744723,-6.044596,-6.636951,-3.760369,13.473160,2.100941,126.082077,16.064980
182,-8.111902,1.233760,-5.794737,-6.453840,-11.397626,8.643605,1.538183,125.713181,16.353100
183,-7.583520,1.141350,-5.758798,-9.971098,-13.152441,4.020051,0.895410,125.336533,16.487101
184,-7.641847,1.724607,-6.234729,-13.015319,-12.778588,5.454421,0.063474,125.044014,16.668915
185,-7.419119,1.697298,-5.964511,-12.511764,-5.759331,1.273385,-0.741860,124.978004,16.711361
186,-7.400775,1.807243,-5.993446,-12.092134,-2.966888,1.036867,-1.535807,125.012794,16.745924
187,-7.573349,2.184527,-5.708062,-8.925838,-3.958739,-1.122318,-2.311059,124.981422,16.708513
188,-7.583098,1.908455,-5.777785,-9.002135,-5.629628,0.601978,-3.002823,124.892532,16.728579
189,-8.123094,1.353792,-5.696865,-8.819024,-5.484664,-2.159947,-3.548564,124.736618,16.656580
190,-8.387877,1.869230,-5.358461,-6.499618,-4.775109,-7.988982,-4.151854,124.565056,16.390280
191,-7.871432,0.940016,-5.368009,-10.467024,-4.988739,-9.209723,-4.636551,124.406212,16.083288
192,-8.306318,1.006467,-5.327914,-11.153690,2.114444,-10.270241,-5.150567,124.443161,15.740947
193,-8.888687,0.462904,-5.020637,-9.398875,6.699851,-8.370463,-5.458961,124.538910,15.461931
194,-8.400831,0.055290,-4.890773,-9.520949,3.213110,-0.778984,-5.631918,124.535072,15.435966
195,-8.646928,0.058864,-5.370360,-8.628284,-0.113407,1.998200,-5.771540,124.464134,15.502572
196,-8.846364,-0.104556,-5.008577,-7.705099,0.062075,5.301828,-5.877667,124.342621,15.679299
197,-8.300262,0.680494,-5.990174,-5.713766,-1.334147,1.059756,-6.078451,124.340492,15.714624
198,-7.774154,0.975596,-6.155912,-1.700582,9.110813,-0.580614,-6.206893,124.746086,15.695271
199,-8.732337,1.154839,-6.455022,-2.867915,19.387920,8.338420,-6.398509,125.430161,15.973218
200,-8.309825,0.704881,-5.689137,-2.310952,6.982147,2.188941,-6.490225,125.636330,16.046183
201,-7.439172,1.023828,-6.046160,-0.197545,-1.059481,-1.755577,-7.119652,126.380676,15.987663
202,-7.797538,1.614641,-5.450702,1.778528,1.580370,-3.136539,-8.948428,126.365501,15.883112
203,-8.113251,1.656570,-6.096974,0.786677,0.649556,1.540422,-9.079164,126.425201,15.934460
204,-7.803266,1.276901,-5.781773,0.931639,1.786370,1.662496,-9.729254,126.626022,15.989876
205,-8.026382,0.879984,-4.962134,3.159491,3.609851,0.006867,-9.634746,126.630791,15.990105
206,-7.844552,0.974147,-5.746441,2.526232,-1.669851,1.967681,-9.564713,126.582497,16.055695
207,-7.658686,1.151799,-6.254034,4.761713,-3.890073,1.731163,-9.611827,127.103012,16.113400
208,-7.583201,0.891649,-4.628775,3.899564,1.755852,5.507829,-9.517381,127.029144,16.296993
209,-7.714489,0.762405,-5.391601,1.343639,-1.341777,4.470199,-9.436993,126.940216,16.445999
210,-7.371427,0.907902,-5.560743,1.229195,-4.332591,-3.891873,-9.392941,126.810722,16.316271
211,-8.573951,0.822947,-5.372733,-0.121249,-2.501480,-6.615649,-9.379767,126.618469,16.095749
213,-8.303178,0.450523,-5.610976,0.344158,-6.438368,-5.745872,-9.248854,126.347130,15.904220
214,-8.795736,0.942742,-5.963614,1.778528,-0.220222,-5.356761,-9.184408,126.292969,15.725661
215,-8.601114,0.745810,-5.592375,2.831417,1.061555,-3.014465,-9.052684,126.251724,15.625179
216,-8.293673,0.600618,-5.723874,4.136083,-1.692740,0.457015,-8.841701,126.159378,15.640413
217,-7.994380,0.696897,-6.059920,4.738823,-0.700888,1.990570,-8.630652,126.166229,15.706765
218,-7.472255,1.133997,-5.496058,4.166601,5.746147,4.935606,-8.570928,126.371506,15.871285
219,-8.258541,0.905754,-5.803421,3.205268,9.042147,7.392346,-8.474252,126.641632,16.117697
220,-8.356556,0.491589,-4.713702,1.862454,0.359630,0.502793,-7.920499,125.234688,16.134457
221,-7.185107,0.141126,-5.471916,2.289713,-15.075106,-1.068910,-7.648071,124.796402,16.098825
222,-7.075290,0.823815,-5.570557,2.572009,-15.334513,-4.692984,-7.583588,124.391014,15.942392
223,-7.644834,0.945174,-5.138042,0.718010,-15.410810,-3.624835,-7.631248,123.889076,15.821565
224,-7.499838,0.765674,-5.206445,1.168158,-22.224066,-1.496169,-7.611654,123.195984,15.771692
225,-8.226011,0.617850,-5.758793,0.725639,-21.682364,-1.236762,-7.550873,122.540131,15.730467
226,-8.662342,0.598838,-5.259672,0.336529,-21.705252,-1.229132,-7.513550,121.806946,15.689496
227,-9.066533,0.711873,-5.158943,0.244973,-23.948362,-2.777947,-7.514163,120.980278,15.596898
228,-8.766605,0.880846,-5.066044,-1.624286,-19.187475,-2.510910,-7.625687,120.342026,15.513201
229,-10.052341,0.492096,-4.983785,-0.548508,-10.115849,-1.389354,-7.593848,119.916771,15.466889
230,-9.590540,0.890256,-5.212351,-1.990508,-4.027406,1.097904,-7.711005,119.759727,15.503487
231,-9.217136,0.830254,-5.395514,-4.370952,8.851406,2.318644,-7.878985,120.069328,15.580774
232,-9.086297,0.306833,-4.395177,-1.609027,18.228218,0.830867,-7.834140,120.556725,15.608470
233,-8.218193,0.390867,-5.241123,0.206825,10.262886,-2.999206,-7.738191,120.941338,15.508496
234,-6.572354,0.705040,-5.007675,-4.210730,12.170294,-3.182317,-7.881938,121.502747,15.402419
235,-5.623067,0.839260,-2.983523,-8.254432,9.286293,-1.610614,-8.345939,121.738548,15.348732
236,-5.206840,0.406727,-2.756640,-7.789025,-19.858883,2.677237,-8.600261,121.003517,15.437973
237,-5.546113,0.445579,-2.780703,-7.178654,-40.359692,1.487015,-8.846152,119.589745,15.487540
238,-6.311625,0.431641,-1.737826,-7.392284,-70.870575,-1.541947,-9.213969,116.942688,15.436142
239,-6.796034,0.076987,-1.446560,-6.171544,-97.009674,-3.609576,-9.184196,113.417130,15.315823
240,-8.138065,0.895624,-1.110253,-5.729025,-115.015602,-4.280983,-10.113098,109.342247,15.173123
241,-11.648996,1.252177,-1.241570,-6.003692,-119.532341,-1.709799,-11.186482,105.189087,15.116130
242,-14.428989,1.751979,-0.506614,-3.661397,-99.428268,-3.914761,-12.872613,101.758034,14.985638
243,-19.238194,2.005535,-3.215992,-1.792138,-60.852871,-10.743278,-13.407747,99.764992,14.627528
244,-19.494268,2.575909,-3.799309,2.221046,31.511398,-10.415204,-13.853796,100.876236,14.280354
245,-19.546368,2.985050,-6.148364,4.654898,113.972404,-11.262093,-14.003586,104.790260,13.904951
246,-19.523069,1.915756,-6.069161,2.579639,212.745575,-6.737723,-14.007621,111.786125,13.680360
247,-15.762124,2.442847,-4.685338,5.997712,244.873932,-5.043946,-14.150923,119.663200,13.512228
248,-0.274047,-0.946286,-1.107379,18.685783,244.873932,-3.106021,-12.176991,128.863647,13.408694
249,1.265976,-3.765698,-4.097108,25.979706,244.873932,0.914793,-9.963563,138.420883,13.439187
250,-3.047350,3.695903,-5.494186,7.409193,244.873932,2.600940,-10.321887,146.800949,13.525885
251,-0.849969,-2.142419,4.061719,26.925779,188.559647,0.388349,-9.884006,149.521286,13.538830
252,2.356676,-0.848795,-1.639970,11.414748,224.960602,-0.031281,-8.581811,158.892456,13.537787
253,0.289766,1.149903,-3.703003,17.747339,164.816254,12.565234,-8.221759,164.883530,13.956629
254,3.142004,-0.037947,-5.094067,-0.388286,201.552902,-12.612536,-8.028834,172.603561,13.536211
255,6.167173,0.131721,-9.703037,-16.212133,117.565964,-9.324167,-8.355008,177.420303,13.225406
256,3.051081,-0.869678,-7.137800,-0.456953,66.226196,12.908567,-7.987316,180.211960,13.655691
257,2.797951,-0.406696,-8.657493,-0.525619,43.528061,-3.113651,-7.737476,182.068619,13.551903
258,3.581332,-0.381547,-8.476567,4.540453,32.060734,-7.157352,-7.332043,183.630966,13.313324
259,3.802819,0.406855,-9.868453,-2.425396,45.382061,-5.753501,-7.286589,185.541565,13.121541
260,3.221212,0.987404,-8.729594,3.449417,27.307476,-1.381725,-7.153651,186.793930,13.075483
261,4.691455,0.569456,-7.351505,8.118749,31.015472,-1.076540,-6.821684,188.443756,13.039598
262,3.501807,0.629378,-7.668340,4.136083,16.053774,9.070865,-6.634020,189.366196,13.341961
263,3.031971,-0.926311,-10.116624,3.090824,-7.239479,11.138494,-6.236928,189.312210,13.713244
264,2.056827,0.035076,-10.910526,-23.918056,26.071474,5.431532,-6.858342,190.193619,13.894296
265,3.222453,1.188359,-8.127597,-9.398875,33.289101,-2.114169,-7.200308,191.556198,13.823823
266,2.286618,0.010347,-9.375924,-2.227026,-3.355999,13.259530,-7.092679,191.500885,14.265807
267,3.794751,0.751271,-9.262464,-0.281471,19.616810,-1.831873,-7.040436,192.406235,14.204744
268,3.890456,0.528492,-8.590313,2.251565,27.391399,7.544939,-6.879262,193.594406,14.456243
269,2.709041,0.069843,-8.970345,4.570971,7.615406,13.358715,-6.558724,193.922134,14.901533
270,3.587764,-0.071091,-8.830824,5.761193,15.328959,4.523606,-6.207518,194.625031,15.052320
271,4.460351,-0.034659,-8.605861,6.386823,18.518143,0.655385,-5.844758,195.546188,15.074166
272,3.686963,0.352287,-9.248163,1.297862,11.857479,1.929533,-5.710996,196.085938,15.138484
273,3.984154,0.029792,-8.737863,0.008455,21.997253,-1.862392,-5.567946,197.011490,15.076405
274,4.486775,0.419283,-7.981559,1.473343,22.752586,-2.121799,-5.456041,198.058380,15.005678
275,4.485745,0.713250,-7.903718,1.191047,2.762962,0.548571,-5.409844,198.433670,15.023964
276,4.207107,0.379907,-8.514671,-4.798211,5.990295,1.548052,-5.494408,198.824295,15.075565
277,4.377363,0.523441,-8.353772,-3.791100,10.354443,2.677237,-5.569894,199.380432,15.164806
278,4.164819,0.022098,-8.782550,-1.311471,-1.341777,2.723014,-4.490888,200.542755,15.255573
279,3.899952,-0.480300,-8.839334,-1.311471,2.823999,-0.099948,-3.005642,201.264725,15.252242
280,4.508328,-0.150977,-8.583592,-0.350138,6.768517,-1.038392,-2.212316,202.733475,15.217629
281,4.402509,-0.053453,-8.612630,1.168158,6.455702,-0.489059,-1.738702,203.773788,15.201327
282,4.874728,0.057017,-8.502550,2.373639,2.892666,-3.548539,-1.327665,205.061417,15.083043
283,4.398788,0.061503,-8.497359,1.671713,1.923704,-2.381206,-1.240142,205.181610,15.003670
284,4.006243,0.062295,-8.745176,0.367047,-1.212073,-0.595873,-0.982326,205.035431,14.983808
285,4.615210,0.477215,-8.584492,0.542528,1.992370,-3.731650,-1.407757,205.726791,14.859419
286,4.135441,0.042464,-7.942806,1.435195,-1.563036,-2.152317,-1.325919,205.720413,14.787675
287,4.398639,0.247284,-8.364816,0.756158,-4.797998,-2.808465,-1.310529,205.614655,14.694059
288,3.563163,0.021503,-7.907581,1.381787,-4.576739,-0.786614,-1.232857,205.431961,14.667839
289,3.069781,1.304799,-5.609892,5.776453,-16.395031,-7.599871,-1.341640,204.964752,14.414510
290,2.039762,0.458965,-3.263917,7.470230,-36.132877,1.059756,-1.265425,203.960114,14.449835
291,0.574642,0.052515,-3.915393,5.921416,-74.975311,9.528642,-1.041343,201.133133,14.767456
292,-0.023406,0.732899,-4.621300,3.632527,-81.574944,-3.151798,-1.122542,197.953629,14.662396
293,-0.073897,0.052999,-4.957871,-1.784508,-77.706718,4.958495,-1.152475,194.979324,14.827680
294,0.119206,-0.097047,-6.223766,-3.585100,-84.268204,22.079380,-1.240179,191.866119,15.563659
295,-0.114467,0.918513,-7.416660,-16.135838,-62.882351,7.155828,-1.910085,189.525787,15.802186
296,-0.231615,0.552199,-7.963600,-11.252875,-78.111092,7.766198,-2.327215,186.707489,16.061060
297,0.377495,-0.218378,-9.220462,-12.168430,-78.614647,11.756494,-2.630590,184.043427,16.452944
298,-0.605554,-1.432153,-9.450836,0.191566,-55.702873,1.570941,-2.343178,182.041382,16.505308
299,-2.456633,0.616648,-11.213978,-1.982878,-98.726341,-6.226538,-2.427729,178.473282,16.297756
300,-0.285038,-1.718589,-14.581120,23.316967,-65.384872,-11.117129,-1.441182,176.358658,15.927185
301,-2.220085,2.038832,-9.621634,85.673912,-107.256264,-5.890835,1.080149,172.645874,15.730824
302,0.788236,0.562387,-6.540490,-16.662281,-68.619835,-9.438611,0.388758,170.770767,15.416203
303,-1.300132,-3.276205,-14.419506,10.834896,-82.284500,1.349682,1.051190,168.201630,15.461193
304,-3.859064,0.027285,-12.229125,55.132511,-135.249359,15.327159,2.816717,163.663132,15.972098
305,-4.735862,-4.029330,-9.680769,22.462448,-64.873688,4.035310,4.041280,161.355515,16.106609
306,-5.991755,-0.117055,-16.643484,-13.015319,-87.983826,-21.211126,3.517250,158.467178,15.399571
307,-2.390018,-0.230602,-11.622231,2.282084,-63.172276,-17.167423,3.531904,156.661957,14.827324
308,-2.588332,-1.909864,-10.435014,-2.448286,-44.334728,6.270791,3.623330,155.461746,15.036350
309,-5.570566,-3.006413,-12.949940,-5.935025,-25.001251,-5.272835,3.666610,154.694305,14.860589
310,-2.254151,-0.009053,-9.188926,-3.737693,-59.044647,-15.473646,3.453470,153.063431,14.344801
311,-2.852129,1.195834,-9.694400,-28.114351,-123.644707,10.924864,2.277615,149.311462,14.708963
312,-3.644418,-2.664428,-8.632431,1.061343,-129.801819,23.399305,2.683993,145.310898,15.488940
313,-3.506986,-1.541025,-6.103589,-0.601916,-109.377304,16.059603,2.951577,141.895325,16.024260
314,-8.305254,0.245375,-4.403214,5.036379,-91.302719,3.989533,2.961730,138.329803,16.157244
316,-7.735010,-0.453659,-6.439655,3.411268,-89.105385,55.184334,3.099296,135.221832,17.996721
317,-9.358350,0.148862,-4.901493,-5.133914,-72.076057,29.312265,2.854961,132.440170,18.973797
318,-8.483244,-0.009688,-6.992220,-6.957395,-78.668053,22.140417,2.557472,129.809875,19.711811
319,-8.156307,1.175981,-6.981888,-13.160282,-80.071907,23.361156,1.826807,127.236290,20.490517
320,-8.510127,-0.658083,-4.104472,-17.814354,-78.240791,8.475754,1.429893,124.413406,20.773043
321,-9.147374,-0.290389,-5.461721,-14.670948,-91.607903,14.266641,0.993426,121.347725,21.248598
322,-10.738432,1.145961,-4.301553,-19.500502,-93.706047,31.318857,-0.038114,118.081490,22.292561
323,-9.133416,-0.292788,-5.628677,-18.691761,-97.856567,6.286051,-0.570201,114.991089,22.502096
324,-10.149898,1.223955,-3.180832,-17.913540,-72.640648,3.089236,-1.664293,112.469528,22.605070
325,-10.782813,-0.117710,-3.342695,-24.253759,-76.356277,12.069308,-2.410933,109.857048,23.007380
326,-12.684126,0.854283,-2.208335,-23.078798,-82.162422,-13.650166,-3.629437,106.954697,22.552374
327,-10.669833,0.934222,-4.631506,-20.637318,-86.457901,-7.958464,-4.494517,104.318069,22.287092
328,-9.859096,1.358178,0.133797,-17.799095,-61.837093,-0.702688,-7.351280,102.147446,22.263670
329,-9.285737,1.912096,-0.047139,-15.197393,-71.931091,1.319163,-9.876108,99.796974,22.307642
330,-8.889277,0.568315,-5.409452,-13.213690,-75.448349,8.544420,-10.208588,97.886528,22.592457
331,-12.263722,0.541400,-7.360993,-7.796654,-22.140141,-1.252022,-10.311927,97.745850,22.550722
332,-10.009698,2.201882,-0.064098,-1.387767,24.110661,9.421827,-12.307546,98.646080,22.864782
333,-9.789079,1.171866,-1.478644,-0.014434,4.265999,16.387676,-12.960272,98.841301,23.411037
334,-11.578245,0.955601,-3.124482,0.786677,-16.616291,24.864193,-13.035846,98.474213,24.239843
335,-10.409896,1.287633,-2.765447,5.295786,-19.179846,17.783899,-13.162022,98.047333,24.832640
336,-11.000707,1.431321,-4.805319,14.077488,-20.301401,18.714714,-12.790123,97.798927,25.456463
337,-11.246362,1.076781,-2.912196,17.007265,13.230812,11.870938,-12.424930,98.419800,25.852161
338,-11.758247,0.218053,-2.631988,19.097782,30.710289,-1.511429,-11.612028,99.523865,25.801781
339,-10.714192,0.456892,-2.778298,23.347485,37.630360,-13.680685,-10.796402,100.876862,25.345758
340,-10.482381,2.010704,-3.186668,22.668447,44.497025,-20.585497,-10.596038,102.545380,24.659575
341,-10.472982,0.729895,-2.320978,24.629263,52.004578,-15.160831,-9.967115,104.248856,24.154213
342,-11.071850,1.528548,-5.903376,22.607410,41.819027,-15.359201,-9.346113,105.972870,23.642239
343,-11.689461,1.158172,-3.517302,23.141485,67.309608,-11.910610,-8.816002,108.200546,23.245218
344,-10.004676,0.684699,-4.482244,15.023561,63.021763,-8.790093,-8.324468,110.403252,22.952215
345,-10.591801,0.472596,-5.264599,11.880155,73.703232,-4.219947,-7.858492,112.951561,22.811550
346,-10.586740,-0.684488,-6.008723,16.023043,74.573013,1.227607,-6.978809,115.544815,22.852470
347,-10.514474,0.209227,-6.726517,17.220894,83.087677,-11.407055,-6.289199,118.422081,22.472235
348,-11.284334,0.834047,-7.737944,19.586079,85.292641,-15.580462,-5.649221,121.348389,21.952887
349,-11.599619,1.465735,-7.273848,18.578968,104.679520,-3.662984,-5.188998,124.781921,21.830788
350,-10.812028,-0.571105,-6.983829,11.559711,107.204926,-10.850092,-4.566708,128.220200,21.469118
351,-10.967292,1.341753,-7.142662,9.690452,87.062714,-1.404614,-4.403577,130.932495,21.422298
352,-8.054957,-0.647586,-9.210352,-0.731619,79.745903,3.737755,-4.216718,133.723389,21.546890
353,-11.182085,-1.748540,-7.409809,8.416304,103.519821,19.027529,-3.505831,136.850937,22.181141
354,-9.334314,2.782414,-6.365345,5.372083,119.046112,11.153752,-3.833869,140.465103,22.552933
355,-6.452917,0.531238,-7.986302,-18.974058,105.793449,-11.315499,-4.449820,143.919846,22.175749
356,-8.545108,-1.182407,-8.321980,1.450454,81.454933,9.353161,-4.089270,146.332336,22.487520
357,-7.895448,0.901215,-8.149528,14.237710,55.621021,-14.550461,-3.682073,147.883743,22.002504
358,-5.505095,1.223430,-7.319964,2.755120,90.976707,-33.906826,-3.737692,150.729218,20.872276
359,-5.248508,0.387217,-7.063564,2.091343,145.292038,-20.234533,-3.654725,155.268661,20.197792
360,-5.344462,-1.098674,-6.628078,10.232156,132.848114,-24.934385,-2.995517,159.241974,19.366646
361,-5.055981,-0.356417,-5.891341,15.946747,142.095215,-39.484085,-2.315807,163.364410,18.050510
362,-2.601036,2.023442,-6.869720,1.618306,168.531876,-44.214455,-2.615619,168.758575,16.576694
363,-0.870770,0.149356,-4.060014,12.154821,229.439194,-29.290901,-2.155197,176.193970,15.600331
364,-1.429454,0.153039,-5.788711,4.479416,101.993889,-11.902981,-1.993596,179.257263,15.203566
365,-1.249432,-0.931101,-4.117001,11.979341,76.465157,-21.478163,-1.235837,181.348724,14.487627
366,-1.419314,0.670811,-4.456249,10.338970,75.084198,-13.650166,-1.082940,183.318207,14.032621
367,-0.248927,-0.193627,-4.227609,7.508378,48.281319,-7.004760,-0.746285,184.720245,13.799129
368,0.903838,-0.450208,-5.066764,8.126378,38.103397,-8.744315,-0.336579,186.092499,13.507652
369,0.425521,-1.025186,-6.360003,5.349194,41.696953,-11.246833,0.074607,187.389816,13.132758
370,0.426432,0.096795,-8.421700,-0.434064,26.628437,-7.485427,0.058635,188.142975,12.883244
371,0.875181,-1.294439,-8.381496,-3.180730,17.114292,0.075534,0.173280,188.642914,12.885761
372,1.236782,-0.468253,-9.519222,-3.470656,3.060518,0.045015,0.609298,188.474716,12.887261
373,1.871250,-0.751186,-9.730845,-4.584581,5.517258,2.341533,1.248037,189.097641,12.965313
374,1.096464,-1.012050,-9.425042,-3.264656,11.125034,4.577014,1.263956,189.396713,13.117880
375,0.802097,-0.527302,-8.818045,-3.005249,-6.949553,-1.252022,1.220239,189.065628,13.076146
376,1.233565,-0.627696,-9.646062,-2.867915,-14.502884,2.875607,1.189605,188.549454,13.172000
377,0.653682,-0.576297,-8.647918,0.130529,-1.753777,-3.930021,1.259421,188.386566,13.040999
378,-0.481302,-0.045725,-8.475865,5.120305,-26.962065,-24.751274,1.394345,187.219376,12.215957
379,1.624336,-1.053738,-7.186634,3.075565,-33.668510,-22.027496,1.667981,186.259811,11.481707
380,-0.367665,0.313948,-6.171070,1.946380,-35.926880,-4.097873,1.616729,184.850571,11.345111
381,0.663060,-0.004519,-8.053452,-2.768730,-40.802208,-3.846095,1.486328,183.520889,11.216908
382,-0.622506,-0.684410,-6.453545,-5.210211,-29.426435,12.435531,1.431180,182.339539,11.631425
383,-0.283193,1.111753,-7.725043,-13.686727,-45.509689,11.878568,0.745844,180.750046,12.027377
384,-0.711408,-0.932599,-7.308080,-11.809838,-48.782799,15.784937,0.525186,179.007965,12.553542
385,0.181450,-0.524679,-6.595928,-5.164433,-47.829098,-9.141056,0.457914,177.517609,12.248840
386,-0.160748,0.233744,-7.564013,-7.842432,-61.386944,-5.112613,0.147337,175.554169,12.078420
387,-0.554010,-1.005303,-7.160789,-4.302285,-62.775536,1.250496,0.203618,173.515594,12.120103
388,-0.780368,-0.487843,-5.891333,3.434157,-52.185612,-24.957273,0.428479,171.793671,11.288194
389,-2.759241,-0.282161,-7.902094,0.161047,-83.879089,5.545977,0.474126,168.791840,11.473060
390,-5.847416,-0.504910,-6.828968,7.020082,-95.277756,-30.381939,0.796140,164.963150,10.460328
391,-1.425388,0.599571,-9.933746,-6.484358,-96.277237,-43.207340,0.479145,162.006287,9.020083
392,-7.665181,1.543614,-11.467287,-1.517471,-64.385391,-31.480606,0.226185,159.525528,7.970730
393,-1.590099,-1.164363,-13.085177,9.782007,-88.098274,-18.151646,0.665570,157.001648,7.365675
394,-3.028769,1.337828,-9.475496,-9.444654,-20.041994,14.808345,0.141071,156.486176,7.859286
395,-5.726162,0.939834,-11.906672,-23.315315,-64.667686,8.117161,-0.733034,154.331955,8.129858
396,-7.022631,-2.362913,-12.884233,3.167120,-54.581318,2.974792,-0.351969,152.494858,8.229018
397,-1.935576,-1.174126,-12.865389,6.020601,-64.766869,4.355755,-0.017137,150.864548,8.374210
398,-4.190246,1.724180,-10.537418,-15.311836,-44.349987,14.861752,-0.746660,149.615891,8.869602
399,-5.430234,-1.880479,-10.010588,-1.425915,-59.449020,3.936125,-0.508361,147.741821,9.000807
400,-4.707772,-2.548060,-9.574277,4.212379,-72.243904,-8.744315,0.013826,145.564972,8.709330
401,-3.144133,-0.870227,-8.037638,4.044528,-89.624199,6.820125,0.299409,142.981781,8.936667
402,-6.904242,-3.196903,-5.802750,16.457932,-103.883972,-2.907651,1.548098,139.376465,8.839746
403,-5.003545,2.446490,-7.629844,11.521563,-98.306717,3.852199,1.439389,136.397507,8.968152
404,-10.847778,-1.860872,-5.211997,4.303935,-58.045166,26.199379,2.034492,134.026840,9.841465
405,-9.364023,3.106327,-4.643520,13.184821,-101.434860,3.829310,1.567613,130.400070,9.969109
406,-9.598659,-1.156220,-4.991903,2.747491,-108.217598,25.634787,1.943738,126.575371,10.823602
407,-9.442110,1.197555,-7.146848,0.618825,-89.669975,31.158636,1.677447,123.684341,11.862223
408,-7.926199,0.534648,-4.341335,-0.693471,-79.133461,11.031679,1.437454,120.992714,12.229945
409,-9.740511,-0.924112,-4.476454,-4.271767,-99.710564,15.136418,1.554290,117.605774,12.734492
410,-8.695756,0.999820,-4.093491,2.778009,-100.153084,0.197608,1.262579,114.307007,12.741079
411,-10.615632,1.616021,-4.692317,2.221046,-102.564049,29.182562,0.828110,110.992409,13.713831
412,-10.067512,-0.997891,-4.028024,-5.156803,-87.175087,18.279825,0.987665,108.194435,14.323158
413,-11.429460,0.630170,-2.393161,-7.308359,-92.172493,7.110050,0.356644,105.049400,14.560160
414,-11.291722,1.442172,-3.718387,-15.082949,-82.223457,19.798120,-0.672436,102.487236,15.220097
415,-9.683678,-0.363784,-3.741353,-13.732504,-81.017982,9.170050,-0.963092,100.072350,15.525764
416,-11.104275,0.793357,-2.462938,-10.344950,-67.147316,18.569750,-1.721593,97.966187,16.144756
417,-11.112580,-0.262593,-0.221699,-12.580430,-68.329910,4.493088,-0.841752,95.590591,16.294525
419,-9.795728,1.118687,-2.019984,-16.540207,-58.365612,11.321605,-2.082718,93.885544,16.671911
420,-13.290514,0.671771,-2.542983,-12.465986,-41.755913,6.629384,-2.805735,92.711197,16.892891
421,-6.701637,0.295354,0.363568,-4.561692,-32.607990,7.857754,-1.906607,91.483711,17.154816
422,-9.609830,0.905001,-2.293061,-10.306802,-28.434584,2.257607,-2.732353,90.882187,17.230070
423,-12.602633,1.283380,-3.633038,-7.010803,-10.703329,3.218940,-3.378293,90.937279,17.337368
424,-9.768869,1.435690,1.219035,-0.136508,17.541552,0.258645,-2.056632,91.211136,17.345989
425,-10.158494,0.733176,-0.587980,3.663046,0.184148,8.994568,-3.167959,91.318993,17.645807
426,-12.534793,0.785233,-1.292608,10.903563,-3.577258,5.637532,-3.516340,91.341759,17.833725
427,-10.277257,-0.107125,-0.606686,9.476823,20.738365,-12.910091,-3.120435,92.067970,17.403389
428,-10.991290,1.896019,-0.292670,12.093784,21.318216,-10.682240,-4.680003,92.956635,17.047314
429,-11.044324,1.075008,-2.432914,11.338451,24.568438,-10.972166,-4.790472,94.019714,16.681574
430,-10.961107,1.977989,-0.977020,20.875486,41.559620,-2.846614,-5.585085,95.554405,16.586687
431,-10.906286,-0.363558,-0.946173,20.455856,43.863766,4.012422,-4.255172,96.973869,16.720434
432,-9.944302,2.699026,-2.688261,18.556080,39.835323,-2.449873,-4.673583,98.618179,16.638771
433,-10.021554,0.664397,-2.952879,13.818080,50.883022,1.837978,-4.424664,100.476555,16.700037
434,-10.468678,0.745599,-2.513821,16.000153,54.316357,6.736198,-4.207052,102.331467,16.924578
435,-11.082009,0.771827,-4.347503,14.947266,51.287392,-2.480391,-3.867765,104.233131,16.841898
436,-11.465170,-0.599259,-4.145274,9.957489,73.543015,-17.213202,-3.241804,106.769142,16.268124
437,-9.842175,1.007404,-4.383904,8.164526,82.156860,-18.983274,-3.218954,109.634056,15.635347
438,-11.027841,0.027667,-6.130341,1.618306,105.251747,-19.265572,-3.085885,113.290634,14.993161
439,-9.991812,0.994819,-5.625862,3.136602,118.893517,-11.170537,-3.157496,117.316414,14.620810
440,-9.955731,1.195412,-6.651372,4.838008,113.583298,-3.037354,-3.176040,121.179184,14.519565
441,-10.395221,-0.920951,-7.548901,7.996674,113.453590,8.765679,-2.662857,124.991653,14.811754
442,-9.846364,1.670305,-7.726659,11.323193,120.701736,17.074343,-2.533237,129.008652,15.380899
443,-8.814036,-0.305158,-8.282288,13.634970,106.098633,3.348644,-1.974017,132.562592,15.492521
444,-10.352204,1.283236,-8.527160,17.335339,96.950706,18.623158,-1.575221,135.644272,16.113293
445,-9.162812,-0.242061,-8.821571,14.901487,75.122345,22.895750,-1.012247,138.042740,16.876484
446,-9.882819,-0.768049,-8.039207,6.615712,80.417305,13.610493,-0.635497,140.436584,17.330168
447,-10.684405,1.382487,-6.750357,4.876157,50.356579,25.337231,-0.750490,141.632736,18.174742
448,-7.061703,0.238725,-9.169029,-0.060212,34.258064,-5.158390,-0.770970,142.765488,18.002796
449,-7.114625,-0.798384,-7.254641,20.234596,66.027832,-22.965940,0.062934,144.735519,17.237265
450,-7.508655,0.671318,-7.295803,15.420302,40.377026,-22.393719,0.431090,145.786804,16.490807
451,-8.209881,2.324628,-9.103854,-11.588579,72.253609,10.375531,-0.314420,147.961731,16.836658
452,-4.377295,-0.607567,-8.105420,-5.263618,108.974998,-41.513565,-0.370458,151.596786,15.452873
453,-5.462962,1.430532,-5.744569,9.522600,100.597672,-7.073427,-0.401301,154.508774,15.217093
454,-5.871672,0.580483,-7.162510,-5.332285,90.129822,-7.042909,-0.680403,157.093979,14.982328
455,-2.858509,-1.398502,-7.869802,9.881192,100.834190,-52.744377,-0.090340,160.451797,13.224182
456,-4.605071,0.928294,-5.386460,4.479416,164.640778,-22.721792,-0.186956,165.288452,12.466789
457,-2.227869,2.011155,-7.013346,-13.022948,161.024323,-12.635426,-1.005548,170.465042,12.045609
458,-0.211608,-0.954457,-7.090990,-2.921322,225.189499,-14.436018,-0.883702,177.979721,11.564408
459,-0.121087,-0.545885,-3.515869,14.031710,232.231644,-8.835871,-0.184943,185.577759,11.269879
460,-0.863155,0.799545,-6.373303,-2.959471,66.912865,-1.664021,-0.455265,187.421631,11.214412
461,-0.129830,0.174741,-5.369874,2.716972,76.785606,0.266274,-0.402177,189.731628,11.223288
462,-0.377382,-0.224432,-5.013994,10.949341,55.407391,-2.129429,0.027804,191.181580,11.152307
463,2.026481,-0.127776,-5.061175,8.774897,40.346508,-8.568833,0.312293,192.758667,10.866679
464,0.779234,-0.463031,-6.004847,11.346081,45.328655,-6.188390,0.783467,194.097198,10.660399
465,1.525628,-0.064436,-7.621216,5.600971,23.408735,-3.792687,0.945911,194.788544,10.533977
466,2.404496,-0.398310,-8.567665,0.481491,22.043032,1.502274,1.004456,195.526749,10.584052
467,2.280490,-0.187206,-9.133685,2.694083,14.260811,-5.967131,1.096257,195.952454,10.385148
468,2.011398,-0.343826,-9.479487,0.206825,-4.424147,-5.791650,1.297968,195.038376,10.192093
469,2.308791,-0.159624,-9.159411,-1.135990,-10.436293,-8.271278,1.253559,194.676880,9.916384
470,2.577819,0.025806,-9.006005,-1.990508,-11.351849,-7.172612,1.157529,194.340363,9.677297
471,2.519115,0.221452,-9.737928,-3.577470,-8.231331,-0.534836,0.979754,194.076843,9.659469
472,2.305600,0.015159,-8.540494,-4.798211,-5.362591,0.128941,0.799318,193.928329,9.663767
473,2.327587,-0.038227,-8.678885,-3.676656,-8.002441,-0.160985,0.659844,193.695358,9.658401
474,1.669259,0.360303,-7.069269,-5.957914,-11.611256,3.310496,0.376773,193.307343,9.768750
475,1.580577,0.477059,-5.400819,-6.583544,-37.262062,4.676199,0.027192,192.169968,9.924623
476,-0.816554,-0.162549,-5.051455,-4.950803,-69.520134,8.262124,-0.088313,189.376877,10.200027
477,-1.354504,0.369798,-4.142185,-5.072877,-93.728935,-0.954466,-0.378514,185.645248,10.168212
478,1.026338,0.379365,-5.300329,-9.322579,-80.285538,-5.967131,-0.774382,183.168137,9.969308
479,-0.863479,0.980535,-5.688193,-8.170506,-46.684650,19.508194,-1.265078,181.358978,10.619581
480,-3.004509,-1.195125,-5.843920,-6.789544,-77.233681,15.739159,-1.165161,178.146545,11.144220
481,-1.565330,0.780578,-7.985188,-12.015838,-106.935822,7.781458,-1.666124,174.441483,11.403603
482,-1.257152,0.897071,-9.145375,-21.308723,-64.461685,2.463607,-2.457061,172.290695,11.485723
483,-3.378577,1.626299,-9.066945,-2.158360,-74.563316,2.654348,-2.720000,169.556580,11.574201
484,-3.175809,-1.091613,-10.674325,1.419936,-96.025459,-9.904018,-2.459876,166.284653,11.244066
485,-2.898515,-1.251482,-11.904969,7.012452,-27.343546,-8.668019,-2.020448,165.398590,10.955132
486,-0.144021,0.403440,-9.757066,-0.281471,-3.256814,-41.658527,-2.038279,165.657776,9.566515
487,-1.961250,0.414061,-10.297739,7.973785,-64.209908,-16.312906,-1.785738,163.660141,9.022752
488,-3.029144,-0.873376,-9.587027,9.675193,-67.986572,-25.346384,-1.296519,161.422409,8.177873
489,-2.829224,-1.208676,-8.988339,6.569934,-102.731895,-24.858088,-0.859115,158.114929,7.349270
490,-3.588276,-0.934228,-9.551349,7.058230,-138.766617,-41.849270,-0.468585,153.639633,5.954294
491,-4.959205,1.820452,-7.416151,18.632376,-168.094910,-25.827051,-0.196113,148.010544,5.093392
492,-7.686481,-0.291203,-9.075767,17.030153,-165.836533,-5.555131,0.408214,142.414413,4.908221
493,-6.313807,-3.149450,-8.205722,17.129337,-118.250557,-19.112978,1.479647,138.618622,4.271122
494,-7.460426,2.673855,-5.473747,11.620748,-98.192268,-6.768242,1.169457,135.192764,4.045514
495,-11.450602,0.096160,-7.138551,-0.868953,-66.308052,17.326120,1.111979,132.706512,4.623052
496,-9.120476,-0.507002,-7.059248,5.806971,-119.333969,23.963898,1.375606,128.705780,5.421848
497,-9.670051,-1.429690,-7.990555,-0.289101,-126.589745,25.299082,1.585424,124.624260,6.265151
498,-9.117599,0.569911,-7.331675,-1.357249,-112.169746,20.965454,1.390558,121.085342,6.964000
499,-10.142548,-0.385469,-7.763990,-2.761100,-88.670494,23.483231,1.337116,118.363113,7.746774
500,-9.570485,-0.214323,-6.385871,-0.647694,-82.170052,7.697532,1.330694,115.826714,8.003359
501,-9.418161,-0.739575,-5.462945,0.664602,-70.000793,18.073824,1.511772,113.664566,8.605820
502,-12.013971,-0.245173,-7.448782,0.672232,-53.604725,30.143896,1.542955,112.126129,9.610617
503,-9.364650,0.313793,-4.302792,-1.845545,-66.361465,12.481308,1.340124,110.034607,10.026660
504,-11.102586,-0.107136,-5.312737,-4.241248,-76.814056,5.751976,1.168780,107.676689,10.218392
505,-10.084428,-0.292729,-4.005980,-5.027100,-69.352280,0.830867,1.080664,105.523758,10.246088
506,-11.506699,-0.160977,-2.901325,-9.963469,-47.401836,1.593830,0.809228,103.949425,10.299215
507,-8.802659,0.525820,-4.302847,-9.139468,-59.807610,-4.815057,0.317786,102.312393,10.138714
508,-9.728080,-0.135798,-1.369554,1.480973,-42.671467,2.036348,0.357972,100.819077,10.206593
509,-11.056342,1.577339,-3.378577,5.356823,-50.133244,11.970123,-0.102535,99.385170,10.605597
510,-10.549137,-0.327070,-0.541408,-0.029694,-39.764580,3.295237,0.677478,97.943977,10.715438
511,-9.348108,-0.495495,-1.213391,-2.639026,-55.336651,-6.615649,1.130095,96.146469,10.494916
512,-10.780714,0.674645,-1.794427,-4.584581,-46.959320,7.041384,0.437729,94.718712,10.729629
513,-9.834846,1.669821,-2.854693,-4.462507,-45.204506,1.273385,-0.476371,93.596260,10.772075
514,-9.798585,-0.861048,-0.971328,-4.439619,-28.671103,9.063235,0.430147,92.763199,11.074183
515,-10.000361,1.264494,-2.102621,-1.624286,-26.290659,4.462569,-0.408953,92.184296,11.222935
516,-9.751489,0.805130,-1.028112,1.442824,-17.394512,17.837307,-1.303463,91.755051,11.817512
517,-9.882634,0.354944,-0.716944,0.969788,-18.851772,9.810938,-1.897834,91.214188,12.144543
518,-9.680573,1.347853,-2.140075,-0.243323,-17.562365,6.377606,-2.663380,90.979103,12.357130
519,-10.884297,0.440019,-1.090656,3.975861,-6.690145,15.907011,-3.016864,90.891373,12.887363
520,-11.184403,0.806104,0.055003,4.746453,-3.424665,10.940124,-0.634768,90.654488,13.252034
522,-11.128719,1.171469,-1.218323,4.799860,0.657186,2.082126,-1.559823,90.875381,13.321439
523,-10.307149,-0.037836,-1.032952,11.277414,10.331553,-3.434095,-1.154311,91.332436,13.206969
524,-10.397371,1.291191,-0.671053,5.585712,24.141178,-0.313577,-2.507377,92.282883,13.196517
525,-10.395609,1.076726,-2.261009,7.477859,27.086216,-2.098910,-2.838274,93.444717,13.126554
526,-10.865097,0.575683,-0.919338,9.843044,42.192879,8.773309,-3.248782,94.872406,13.418997
527,-9.813628,0.392952,-1.570690,7.325267,46.053467,0.022126,-3.280637,96.481552,13.419734
528,-10.206424,1.108988,-1.520780,7.409193,45.153172,4.180273,-3.860332,98.048210,13.559076
529,-10.031628,0.150015,-3.899917,9.881192,50.722801,5.988495,-3.497757,100.026962,13.758693
530,-10.782114,0.428153,-4.061936,4.311564,64.402718,1.006348,-3.420615,102.388062,13.792237
531,-9.986198,1.200302,-3.492201,1.709861,76.343086,-14.100313,-3.753737,105.066849,13.322227
532,-8.790913,1.439085,-3.963305,5.425490,92.670486,-9.575945,-3.982467,108.342583,13.003028
533,-9.783996,0.119554,-4.123558,10.613637,109.852409,-6.287575,-3.537962,112.025780,12.793442
534,-10.559990,0.120654,-5.675249,5.875638,109.158112,-11.300241,-3.258555,115.729279,12.416767
535,-9.445495,2.589707,-6.653691,9.827785,120.800926,-0.717947,-3.389355,119.939224,12.392836
536,-8.906143,-1.493931,-7.409160,13.253488,115.010040,10.894345,-2.588886,123.936569,12.755980
537,-9.643825,1.220034,-8.499857,11.498673,126.820702,9.780419,-2.354662,128.251892,13.081994
538,-9.758548,0.823660,-9.012494,7.744896,116.398628,20.080418,-2.174632,132.149628,13.751341
539,-8.225512,1.342446,-9.601504,4.868527,99.262489,28.389082,-2.161021,135.564102,14.697643
540,-10.419421,-0.144462,-9.415454,14.100376,101.925224,43.533890,-1.648733,138.790222,16.148773
541,-10.137007,0.176707,-7.921875,24.385115,56.406872,16.021454,-0.846945,140.354050,16.682821
542,-10.017296,2.274285,-8.144448,3.579120,16.175848,4.790644,-1.099501,140.625153,16.842510
543,-9.587776,-0.456086,-9.343886,13.528154,-2.074221,-14.756462,-0.562487,140.399521,16.350628
544,-7.091161,-0.476343,-10.021864,4.708305,23.500290,-29.840237,-0.327374,141.272003,15.355953
545,-8.043722,2.901883,-7.269707,2.465194,76.709305,14.571826,-0.783087,143.588745,15.841681
546,-7.472436,1.117359,-7.698249,-7.674580,82.965599,28.717155,-1.219396,146.099182,16.798920
547,-8.609353,-0.588701,-5.953080,17.869413,66.615311,-33.334602,-0.466964,147.731522,15.687766
548,-4.678221,1.038470,-9.666143,16.709709,42.261543,-55.338451,-0.065524,149.269302,13.843151
549,-4.168056,0.820726,-8.130313,-24.337687,157.293442,-10.850092,-0.998968,154.473999,13.481482
550,-4.142442,0.655367,-6.022346,-8.407024,139.447739,-6.463057,-1.402488,158.785080,13.266047
551,-3.467938,-0.394095,-6.814981,2.709342,95.897820,-36.043121,-1.196632,161.758835,12.064610
552,-3.832038,0.515792,-7.343655,8.553638,88.359749,-20.730459,-0.989164,164.399094,11.373594
553,-3.060950,-0.438110,-7.099507,2.358380,137.212265,-15.031128,-0.799507,168.666428,10.872557
554,-1.429379,-0.539366,-5.976263,13.230599,177.649292,-23.141422,-0.220599,174.388412,10.101176
555,-0.703291,0.256384,-5.506251,12.955933,183.287582,-23.309275,0.139337,180.303772,9.324201
556,0.734542,0.863937,-6.068063,4.479416,147.008698,-14.413128,0.078859,185.244812,8.843763
557,-0.599305,0.098129,-5.201001,4.258157,132.016479,1.227607,0.215278,189.239914,8.884684
558,1.477764,0.488540,-5.677862,4.410749,90.465523,-9.308908,0.230301,192.312485,8.574387
559,0.573941,-0.383157,-5.596412,6.081638,69.476418,0.655385,0.520112,194.408707,8.596232
560,0.584024,-0.434469,-5.898987,9.957489,42.200508,-13.932463,0.936036,195.560974,8.131817
561,2.575401,-0.024656,-7.363495,8.607044,31.679249,-14.252907,1.192364,196.683456,7.656720
562,3.121296,0.241610,-7.160091,7.950896,50.539688,-5.486465,1.372643,198.497467,7.473838
563,2.199701,-0.183826,-8.457612,6.012971,17.465256,-8.584093,1.564876,198.967041,7.187701
564,2.903251,0.568125,-8.426501,2.625417,-1.486740,-11.300241,1.514653,198.918823,6.811027
565,2.682240,0.322895,-8.934662,-0.052583,-16.288218,-10.186315,1.423334,198.333984,6.471483
566,2.548274,-0.068380,-10.002384,1.854824,-30.494583,-11.063722,1.448032,197.241882,6.102692
567,3.082169,0.811079,-9.771283,-1.784508,-18.744957,-13.772240,1.235209,196.637894,5.643618
568,3.102391,0.342675,-9.702997,-3.859766,-11.008514,-7.531204,1.028321,196.307190,5.392578
569,2.948709,-0.214846,-9.490637,-4.958433,-19.347698,-0.618762,0.873884,195.702103,5.371952
570,3.089613,0.263985,-9.214871,-3.096804,-0.472000,-0.191503,0.288337,196.254791,5.365569
571,2.114592,-0.201427,-8.635222,-1.624286,-12.366589,-1.793725,0.261745,195.790421,5.305778
572,2.767054,0.043565,-8.026970,1.145269,-11.588367,-10.865352,0.292423,195.494537,4.943600
573,2.522477,0.519129,-8.096792,1.084232,-17.501328,-9.156315,0.228637,194.970154,4.638389
574,1.325713,0.202536,-8.483603,2.236306,-50.201912,-2.076021,0.261411,193.186325,4.569189
575,1.249718,0.493743,-9.156851,3.266305,-79.286057,-3.418835,0.283870,190.473892,4.455227
576,1.177152,0.475904,-7.810459,0.496751,-70.916351,-3.388317,0.205747,188.121155,4.342283
577,0.564196,0.670520,-5.847226,-2.165989,-55.649464,6.446273,-0.033334,186.246414,4.557159
578,0.190001,0.669194,-5.238071,-1.265693,-61.097019,19.347973,-0.255647,184.156128,5.202091
579,-2.112124,-0.057617,-4.231531,-1.853175,-45.692799,27.839748,-0.309484,181.904129,6.130083
580,0.222437,1.063084,-4.892424,-7.094729,-28.976286,6.881162,-0.838809,180.978394,6.359455
581,0.882667,-0.199597,-5.393205,-3.264656,16.839626,20.904417,-0.870953,181.733444,7.056269
582,-1.357886,0.078005,-6.093052,-4.050508,-13.350811,37.300488,-0.980821,180.942154,8.299619
583,-1.444555,-0.645051,-8.608535,-0.685842,-51.468430,18.348492,-0.871459,179.008392,8.911235
584,-1.881400,0.451871,-7.008666,3.426528,-85.038795,-0.031281,-0.830533,175.894516,8.910192
585,-2.598611,-0.905533,-10.358994,-5.858729,-105.119972,5.133977,-0.875283,172.229996,9.081326
586,-3.632562,0.671145,-7.428504,8.507859,-133.296173,-13.901943,-0.705958,167.442947,8.617928
587,-2.152149,0.227457,-10.637380,-15.922207,-130.404556,0.876645,-1.236405,163.232864,8.647149
588,-5.633023,0.166535,-9.045033,0.115269,-130.137512,-21.844385,-1.228118,158.624847,7.919003
589,-4.208180,-0.156832,-10.473694,0.153417,-131.785522,-3.174688,-1.170982,154.329025,7.813180
590,-8.480368,-1.058295,-9.373450,0.038973,-103.632195,-18.426311,-0.979401,150.553864,7.198969
591,-6.315398,0.820309,-11.440447,4.982972,-123.743889,-28.962830,-0.895500,146.547394,6.233541
592,-7.450544,-0.024176,-10.672791,10.766230,-90.417679,-12.604907,-0.523210,143.572189,5.813378
593,-5.419495,1.010111,-11.118883,6.692008,-72.396500,13.641011,-0.422411,141.482681,6.268078
594,-5.475605,-2.688092,-9.676476,-2.921322,-69.916870,-1.290169,-0.118666,139.458313,6.225073
595,-6.849093,1.879168,-8.055596,4.151342,-68.841095,-3.830836,-0.309052,137.243896,6.097378
596,-7.399771,-0.055802,-7.004382,-2.982359,-88.067757,8.513902,-0.398252,134.286301,6.381175
597,-9.365677,-1.916973,-5.605118,0.496751,-110.811676,13.198493,0.099871,130.385605,6.821125
598,-10.635986,1.775127,-5.421863,3.922453,-91.447678,-1.526688,-0.228360,127.109131,6.770236
599,-9.813765,-1.287390,-6.476048,13.764673,-104.479080,41.878262,0.505786,123.634155,8.166178
600,-11.659019,0.386236,-3.989136,0.931639,-86.290054,29.380932,0.385164,120.463135,9.145542
601,-9.907089,0.063831,-8.115637,3.403639,-89.570793,6.911680,0.486153,117.773613,9.375932
602,-9.844989,0.643752,-5.689692,-0.273842,-79.766724,3.508866,0.303719,115.241425,9.492894
603,-10.617710,0.209829,-6.912170,-3.577470,-81.559685,13.511308,0.136390,112.786613,9.943271
604,-9.473093,-0.992575,-6.357787,-6.736136,-75.372055,-6.852168,0.135890,110.622032,9.714865
605,-9.640903,1.086279,-5.117822,-4.813470,-61.325909,-3.655354,-0.323531,108.825569,9.593019
606,-10.827426,-0.235810,-5.678497,-4.424359,-58.945461,-0.351725,-0.399786,107.131584,9.581295
607,-10.054652,0.320236,-4.697604,-9.574357,-51.430279,1.380200,-0.798453,105.659149,9.627301
608,-7.862372,0.111168,-2.607248,-7.583025,-50.255318,11.092715,-1.024940,104.093414,9.997059
609,-10.309191,-0.098429,-3.509224,-6.522507,-34.393322,18.836788,-1.211298,103.093430,10.624952
610,-12.612363,0.129037,-0.662358,-7.331247,-14.418959,15.540789,-1.419281,102.374054,11.142979
611,-8.754205,0.683875,-1.780029,-4.721915,-43.930355,9.307383,-2.062672,100.944176,11.453225
612,-10.971327,0.730113,-1.191751,-7.811914,-39.650135,2.730644,-3.052325,99.563438,11.544247
613,-10.089106,0.697822,-3.234665,-3.493545,-50.476578,-4.120761,-3.393906,98.137833,11.406888
614,-10.570592,0.374666,-2.058795,-5.210211,-30.753990,-5.738242,-3.736240,97.214828,11.215613
615,-8.672890,0.934664,-2.306881,-4.019989,-27.076509,-7.149723,-4.324883,96.554794,10.977289
616,-10.011117,0.836427,-2.077871,-0.785027,-20.019104,1.372570,-4.790444,96.055595,11.023042
617,-10.545168,0.834161,-1.419038,-2.455915,-17.562365,0.769830,-5.511714,95.555237,11.048703
618,-8.530798,0.902622,-2.243600,0.718010,-17.890438,11.146123,-5.898470,95.230598,11.420240
619,-9.924529,-0.190241,-1.452683,-3.112063,-9.947996,12.244790,-5.665628,94.986465,11.828400
620,-9.830344,0.523350,-1.600639,-4.081026,-9.726738,8.254495,-6.109267,94.788704,12.103550
621,-10.109356,1.119468,-1.402098,-6.469099,-6.972442,8.033236,-7.131898,94.693977,12.371325
622,-9.724977,0.099941,-0.661057,-6.858210,-1.227333,1.067385,-5.888404,94.509010,12.406904
623,-10.376113,0.690049,-1.606348,-5.378063,-3.394147,2.921385,-6.497162,94.525078,12.504284
625,-10.265430,0.651978,-0.305705,0.878232,2.686666,-10.125278,-7.928158,94.599579,12.166775
626,-9.496497,0.823397,-0.582678,-1.937101,-3.012666,-9.331797,-9.160780,94.538254,11.855715
627,-10.543719,0.739826,-1.507663,-2.036285,-3.607776,-2.053132,-9.651382,94.533791,11.787277
628,-9.647138,0.307871,-0.413048,0.641714,4.632221,-7.912685,-10.306731,94.647408,11.523521
629,-10.222422,1.271256,-0.531890,0.481491,0.718223,-2.228614,-11.715807,94.746506,11.449234
630,-9.462639,0.903274,-0.441778,1.198676,-4.347850,-1.641133,-12.982390,94.638184,11.394529
631,-11.027536,1.216905,0.325532,1.419936,-2.112369,1.464126,-15.236094,94.616501,11.443334
632,-8.977620,0.181955,-0.335301,9.080082,-13.320292,-4.898983,-15.272263,94.129013,11.280034
633,-11.182935,1.324745,-0.841793,6.455490,-12.015625,2.570422,-16.119816,93.835022,11.365715
634,-10.201441,0.820211,-1.317607,8.034822,2.839259,-1.931058,-16.253246,94.047691,11.301347
635,-10.579279,0.821741,-1.972269,9.812526,16.374218,0.136571,-16.093481,94.764107,11.305899
636,-9.472790,0.313023,-1.381555,10.049045,20.173773,-1.580096,-15.683703,95.513283,11.253229
637,-9.488552,1.288713,-2.198537,1.366528,22.271919,-1.290169,-16.006636,96.475136,11.210223
638,-10.421952,1.037848,-2.583628,1.885343,37.065769,4.569385,-16.092331,97.891838,11.362536
639,-10.328060,-0.053367,-3.370139,5.066897,39.087620,9.299753,-15.525349,99.416740,11.672528
640,-10.986079,0.041275,-3.274485,5.845119,56.544205,9.597309,-14.947248,101.433960,11.992438
641,-9.798573,-0.267707,-4.133218,2.922972,60.931240,-0.145725,-14.385924,103.701225,11.987581
642,-11.324166,0.078339,-5.158969,6.180823,77.060272,-12.208166,-13.825400,106.475533,11.580643
643,-9.293122,0.666655,-5.337823,3.579120,98.362190,-16.724905,-13.541418,110.012032,11.023146
644,-7.891113,1.487491,-4.973996,3.769861,118.626480,-3.533280,-13.496599,114.200630,10.905370
645,-8.570257,1.018699,-6.819068,4.532824,133.496628,8.285013,-13.224281,118.904671,11.181537
646,-9.031764,-0.176647,-7.290831,10.903563,134.686859,20.934935,-12.504610,123.532387,11.879368
647,-10.056246,0.909664,-9.241974,8.446822,121.235809,23.429823,-12.058007,127.702278,12.660362
648,-8.582841,2.238457,-10.348988,-7.445692,168.707367,26.100193,-12.303665,133.516998,13.530369
649,-8.944735,-0.990230,-7.857976,11.170600,169.744995,32.409893,-11.453471,138.983887,14.610699
650,-7.681384,0.376880,-9.078298,22.325115,92.060120,10.924864,-10.500999,141.995956,14.974861
651,-8.133427,3.113166,-9.869583,-5.339914,44.023987,10.871456,-10.849694,143.422729,15.337243
652,-9.906278,1.402594,-10.354751,8.576526,10.125553,35.492264,-10.492565,143.579453,16.520319
653,-9.195327,0.304007,-8.330370,21.813931,45.458359,17.066713,-9.573548,144.772202,17.089209
654,-9.131116,2.108585,-7.631725,26.574818,8.691183,11.787012,-8.856655,144.708588,17.482109
655,-8.960987,-0.032004,-9.287589,3.067935,15.565477,6.888791,-8.535531,144.997391,17.711735
656,-7.191875,1.082083,-7.860768,25.483780,21.058809,-7.691426,-7.689867,145.502167,17.455355
657,-6.806056,2.234740,-7.876001,13.383192,63.555836,-3.701132,-7.458686,147.436722,17.331984
658,-6.777092,0.641344,-7.216145,12.620229,65.615829,-3.846095,-6.989034,149.306061,17.203781
659,-7.302273,-0.442364,-6.226294,6.020601,12.261848,-8.660389,-6.517040,149.235016,16.915102
660,-4.244200,0.496940,-7.059182,8.942748,52.279243,-41.177860,-6.164144,150.929382,15.542506
661,-4.358135,0.803028,-6.791255,-2.600878,83.766716,-21.874905,-6.263159,153.565842,14.813343
662,-4.203633,-0.025300,-6.461610,9.843044,53.957764,-16.465498,-5.786681,155.154175,14.264493
663,-3.812677,0.984694,-6.861547,8.141638,54.125614,-32.747124,-5.581578,156.814117,13.172922
664,-2.790917,0.839736,-7.270593,-4.073396,78.937157,-31.740013,-5.739132,159.437393,12.114922
665,-2.328808,-1.767077,-6.868274,4.426009,105.640854,-29.618977,-5.091104,162.930328,11.127623
666,-2.849088,0.149003,-6.046201,6.760674,84.743301,-22.820978,-4.744105,165.480637,10.366923
667,-1.866923,0.726625,-8.009939,-3.646137,76.480415,-29.908901,-4.873587,168.002533,9.369960
668,-1.417412,-1.167396,-7.250881,0.603565,89.908562,-25.430309,-4.503478,170.951416,8.522283
669,-1.311487,0.516572,-6.933922,0.580677,83.110565,-34.593494,-4.478534,173.611694,7.369166
670,-1.266606,0.677135,-8.066408,-2.692434,53.759392,-23.431349,-4.574037,175.296265,6.588121
671,-0.525800,0.331282,-7.552982,-3.409619,82.156860,-22.584459,-4.633285,177.984497,5.835306
672,-0.463206,0.453735,-7.082918,-0.937619,107.258339,-15.298164,-4.639560,181.427429,5.325367
673,-1.044683,0.394741,-7.268176,-3.356211,69.659531,-2.838984,-4.710366,183.451492,5.230734
674,0.772617,0.013807,-8.043355,-5.217840,52.607319,-7.340464,-4.762187,185.212112,4.986052
675,1.801809,0.118257,-8.158095,-4.699026,73.924492,-2.709280,-4.795850,187.795685,4.895743
676,1.268674,-0.019007,-8.039205,-5.439100,56.017761,11.413160,-4.852725,189.645584,5.276182
677,1.112296,-0.315047,-8.567357,-5.393322,6.623554,3.562274,-4.854041,189.804520,5.394924
678,0.381981,-0.423498,-9.424996,-2.768730,-23.543993,3.531755,-4.758354,188.852188,5.512650
679,1.175202,0.376074,-9.915233,-2.005767,-18.058290,-6.272316,-4.758886,188.212860,5.303572
680,1.790240,-0.057262,-9.475816,-3.249396,-5.309183,-6.958982,-4.745519,188.102448,5.071606
681,1.697149,0.765319,-9.854529,-4.302285,-6.140813,-4.486983,-4.877725,187.943893,4.922040
682,1.567179,0.092324,-9.220293,-4.439619,-6.095035,2.944274,-4.900070,187.788361,5.020183
683,1.672596,0.741210,-9.340132,-2.852656,-6.667257,-5.684834,-4.983713,187.630005,4.830688
684,1.200529,0.764668,-9.705030,-4.470137,-19.500290,4.470199,-5.117026,186.981247,4.979695
685,1.268513,0.595691,-10.210209,-4.500655,-6.293405,5.111088,-5.218847,186.778946,5.150064
686,1.838040,0.294013,-9.612389,-4.363322,35.867916,5.797754,-5.273983,188.045700,5.343323
687,1.999889,0.696359,-9.304158,-2.181249,61.793392,7.995087,-5.320031,190.155289,5.609826
688,2.407807,0.575918,-9.780107,-2.265174,50.669392,8.399457,-5.344900,191.893372,5.889808
689,2.363452,0.199405,-9.958920,-0.388286,39.575916,4.218421,-5.252573,193.215958,6.030422
690,2.670670,0.364279,-8.911848,-0.144138,47.136875,1.845607,-5.184461,194.834244,6.091942
691,3.121492,0.456487,-8.804724,5.646749,27.765251,-2.648243,-4.945528,195.853180,6.003667
692,1.761479,0.451313,-12.290444,5.616230,-7.979553,-1.801355,-4.691936,195.401276,5.943622
693,3.423339,-0.290091,-9.107941,14.443709,-36.613544,-5.478835,-4.059611,194.341034,5.760994
694,-1.874958,0.615045,-12.502557,14.947266,-67.475388,23.979156,-3.542743,191.576599,6.560299
695,-2.102562,0.770207,-16.045574,-4.912655,28.543472,26.245155,-3.682540,192.028427,7.435138
696,3.331559,-1.519513,-9.238647,3.426528,91.152191,0.067904,-3.245614,195.179855,7.437401
697,4.272941,1.116432,-3.888994,6.539415,79.532272,7.110050,-3.352378,198.549210,7.674403
698,3.755917,1.405336,-5.116444,-1.502212,56.818874,17.577898,-3.701358,200.814438,8.260333
699,3.611873,-0.134964,-6.787049,-3.623248,46.473099,13.251901,-3.726580,202.504852,8.702064
700,3.708142,-0.837583,-8.091456,-8.513839,46.335766,17.478714,-3.762368,204.060791,9.284687
701,2.728498,-0.544653,-9.166245,-9.337839,25.041475,13.389234,-3.886776,204.686859,9.730995
702,4.551350,-0.535043,-8.238477,-0.495101,9.522812,-2.747428,-3.712802,205.100861,9.639414
703,3.959898,-0.492536,-6.768352,8.034822,0.901333,-11.582537,-3.254798,205.259247,9.253329
704,3.914530,0.135332,-8.736900,12.101415,-16.799402,-18.784904,-2.780132,204.685089,8.627166
705,3.998596,0.255769,-7.053033,12.353192,3.052888,-10.254981,-2.361071,204.905548,8.285333
706,5.586589,0.719910,-8.626896,11.742822,5.791925,-10.468611,-2.039659,205.292053,7.936379
707,5.037809,0.129479,-8.174571,11.567340,3.205481,3.691977,-1.612729,205.554962,8.059444
708,5.737269,1.241187,-3.588763,-0.052583,-33.843990,5.423903,-2.051073,205.228668,8.240241
709,0.086294,0.517915,-13.713784,-8.231543,-59.296425,15.533159,-2.321391,202.670822,8.758013
710,5.100120,-0.062495,-9.198685,-9.299690,-32.424881,19.393751,-2.565596,201.775375,9.404471
711,6.299782,-0.506786,-2.242579,-5.446729,-54.199837,10.474716,-2.360125,201.218277,9.753629
712,0.775732,-0.215753,-13.768151,-17.554947,-48.340282,17.379528,-2.849213,199.197372,10.332947
713,5.953279,0.294468,-7.396789,0.702751,-46.585468,-3.304391,-2.812137,198.173584,10.222800
714,3.695969,-0.364409,-6.209785,28.054966,-50.003540,0.167089,-1.746086,196.862076,10.228370
715,2.101809,0.373569,-13.575728,-6.202062,-62.561905,-2.205725,-1.943407,194.627197,10.154845
716,7.104354,-0.448912,-2.652527,8.752007,-61.928646,-9.736167,-1.370239,193.980331,9.830306
717,1.322457,-0.101396,-7.132334,-12.176060,-91.348495,8.574939,-1.731705,190.924591,10.116138
718,2.099688,-1.704157,-4.780076,-10.718801,-131.770264,-2.129429,-1.546229,186.930878,10.045156
719,2.141044,1.575242,-4.007436,-1.288582,-187.863266,-0.679799,-2.085922,181.313004,10.022496
720,-4.001400,-0.353349,-2.642696,-21.438427,-223.562302,19.492935,-2.540130,172.606323,10.672260
721,-5.547688,0.457193,-6.728449,-28.083834,-255.133698,13.053530,-3.486532,163.513290,11.107378
722,-7.216716,2.564712,-11.099024,-38.078648,-255.133698,7.087161,-4.962207,154.824753,11.343616
723,-14.805305,1.007154,-15.132209,-55.962494,-226.812515,26.397749,-6.752128,146.974945,12.223541
724,-13.131787,-1.155954,-12.724170,-42.503830,-176.426468,8.826716,-7.834927,140.922073,12.517765
725,-11.507940,3.136578,-9.752900,-7.026062,-120.661522,-13.177128,-8.313102,136.769440,12.078527
726,-11.046732,0.434622,-7.896201,-1.830286,-88.121162,-3.220465,-8.243521,133.626221,11.971179
728,-8.836423,1.191901,-5.133805,6.524156,-41.031097,-10.995055,-8.152164,131.972397,11.604677
729,-9.010187,0.734670,-5.417145,2.778009,-30.067324,-4.433576,-8.051157,130.727066,11.456891
730,-9.359853,1.913108,-6.010846,-1.624286,-24.650288,-9.995574,-8.344043,129.757202,11.123705
731,-9.450390,0.376395,-5.781307,-11.771689,-8.597552,-1.717428,-8.611147,129.271606,11.066458
732,-9.018989,0.284622,-5.784198,-10.863764,5.440961,-4.044465,-8.819367,129.284271,10.931643
733,-8.282146,1.397517,-6.216825,-3.958952,14.161627,-14.642017,-9.044280,129.701767,10.443575
734,-8.773341,0.271056,-5.339726,-0.601916,15.946959,-16.999573,-8.910384,130.011475,9.876923
735,-6.998014,0.127687,-5.051697,0.389936,12.208441,-17.205572,-8.674953,130.303802,9.303404
736,-6.682657,0.107356,-3.896658,1.702232,0.237556,-15.534683,-8.402757,130.060333,8.785581
737,-6.706366,-0.151323,-3.846103,-2.364359,-17.226662,-9.423352,-8.213202,129.245300,8.471469
738,-7.379023,-0.476353,-4.523562,1.435195,-28.732140,-8.774834,-7.810943,128.121643,8.178974
739,-5.312574,-0.240598,-3.912518,2.594898,-37.246803,-1.549577,-7.443362,126.868629,8.127321
740,-8.698589,-1.551266,-7.986648,-8.994506,-44.647541,6.049532,-7.274804,125.573013,8.328972
741,-10.337657,1.277923,-9.894603,9.537859,-32.813992,-11.643574,-6.966934,124.716789,7.940853
742,-10.792526,0.663249,-7.262367,19.006227,-13.747551,-11.735129,-6.305512,124.253258,7.549682
743,-8.979430,0.324950,-7.113711,1.603047,0.649556,-1.564836,-6.161161,124.378441,7.497520
744,-8.547056,0.100021,-6.044331,-0.601916,9.164221,3.371533,-6.026694,124.698593,7.609905
745,-9.106075,0.424623,-6.084397,-8.239172,7.363628,7.583087,-6.243604,124.915802,7.862674
746,-6.962519,0.037824,-5.355541,-15.769615,1.885555,12.206641,-6.600026,125.043388,8.269563
747,-9.147377,0.429096,-5.461178,-1.410656,-0.578814,7.430494,-6.593188,124.921387,8.517246
748,-9.205915,0.396612,-4.858618,10.987489,-9.841182,14.182715,-6.187933,124.426079,8.990004
749,-8.825786,1.081344,-5.440009,9.896452,-16.242439,10.360271,-5.992663,123.841217,9.335346
750,-9.366960,1.392515,-4.568108,8.523119,-17.020660,12.275309,-5.989670,123.117378,9.744523
751,-8.220865,0.730183,-5.170272,5.799342,-16.265327,20.599232,-5.852414,122.571381,10.431164
752,-8.250501,0.907206,-5.338569,5.356823,-14.365551,19.950714,-5.773117,122.122177,11.096188
753,-8.794161,0.423434,-5.628864,-2.143100,-17.409773,14.609974,-5.805990,121.570694,11.583187
754,-8.247034,0.333336,-4.615463,-4.569322,-17.341106,8.918272,-5.912614,120.950279,11.880463
755,-8.586279,1.480783,-4.809632,-5.957914,-25.191992,0.243386,-6.386243,120.117149,11.888576
756,-9.072872,0.688331,-4.516741,-8.819024,-33.691399,0.609608,-6.729830,118.937469,11.908895
757,-8.452171,1.963879,-3.665185,-8.239172,-36.102360,5.774865,-7.533939,117.695595,12.101391
758,-8.760631,1.277792,-3.679991,-4.935544,-32.218880,12.946715,-7.984706,116.555420,12.532948
759,-9.169328,0.589469,-2.966292,-0.723990,-28.098879,19.370861,-8.089606,115.434677,13.178644
760,-8.357940,0.292524,-2.894992,6.081638,-18.317698,14.640492,-7.833960,114.683365,13.666660
761,-7.813885,1.522813,-3.750621,10.300822,-12.488663,7.277902,-7.855783,114.345062,13.909257
762,-8.363899,-0.067409,-3.231231,7.027711,-5.377850,9.994049,-7.430987,114.089844,14.242392
763,-9.047256,1.283556,-3.276778,6.341045,-10.001404,0.640126,-7.573902,113.693932,14.263729
764,-8.875877,-0.261748,-4.213144,3.518083,-21.003326,-11.025574,-7.181341,113.054855,13.896210
765,-8.625831,1.745418,-3.082552,9.415786,-16.410292,-26.185644,-7.433785,112.503319,13.023355
766,-7.763677,0.849969,-3.556746,11.437636,-7.346293,-24.240088,-7.212221,112.332527,12.215351
767,-7.269794,0.817456,-3.826488,13.337414,19.761772,-16.061129,-6.899921,113.123741,11.679980
768,-9.621553,0.188403,-2.037732,18.388227,25.369549,-18.487349,-6.261866,113.670341,11.063735
769,-8.704446,1.910534,-3.593554,15.740746,-1.303629,-22.004608,-6.293685,113.662689,10.330248
770,-11.042101,0.018193,-4.196510,13.459488,19.288736,-21.035645,-5.698910,114.218246,9.629060
771,-13.214763,-1.581173,-1.070640,11.941192,9.560961,-24.484236,-3.770914,114.129082,8.812919
772,-12.446829,-0.532263,-1.889123,9.911711,-78.172127,-15.092165,-2.961130,111.209290,8.309847
773,-12.763692,2.017088,-2.307264,13.634970,-111.208412,-10.232093,-3.472991,107.402328,7.968777
774,-12.298290,0.789319,-1.666406,12.620229,-124.094856,-3.884243,-3.609641,103.147362,7.839303
775,-10.253001,0.418669,-1.028443,11.773340,-121.905151,-3.418835,-3.690536,99.011284,7.725341
776,-10.971536,0.211138,-1.078383,4.273416,-110.086861,2.066866,-3.736333,95.351166,7.794237
777,-9.981978,0.338356,-0.491899,1.648824,-106.218636,2.196570,-4.452398,91.850853,7.867455
778,-9.387395,1.105843,-0.591124,-1.860804,-95.819458,3.714866,-5.948400,88.880653,7.991284
779,-9.263172,1.967354,0.500253,-1.502212,-87.945679,21.118046,-3.955178,85.741386,8.695219
780,-10.827948,-1.824477,0.839915,-13.373912,-65.262794,34.920040,-5.922965,83.464096,9.859221
781,-9.330276,-2.417319,1.009729,-12.885615,-77.538872,23.254341,-7.876909,80.715385,10.634365
782,-7.728839,2.485026,-0.083370,-11.367319,-89.273239,15.227974,-5.751387,77.600288,11.141964
783,-8.136092,2.086355,1.750028,-4.058137,-69.184425,9.376050,-4.489237,75.199158,11.454499
784,-9.339818,-0.456493,2.457075,-10.108431,-55.893612,21.865749,-4.968650,73.378136,12.183357
785,-8.573544,-0.233063,1.779234,-17.699911,-66.910797,21.469009,-5.606249,71.323547,12.898991
786,-5.266174,2.581160,1.167020,-25.482130,-74.143684,54.268776,-4.652491,68.673882,14.707950
787,-8.524784,1.610606,1.407572,-17.249762,-37.780876,68.284401,-3.875584,67.627014,16.984097
788,-10.167323,-1.281453,0.952622,-16.990355,6.615924,-6.508835,-5.665210,68.178223,16.767136
789,-8.607518,0.082189,2.979017,-32.539536,55.949097,-14.153721,-6.581115,70.064682,16.295345
790,-8.025262,1.318122,2.605106,-28.259314,63.540577,26.504562,-6.664057,72.128349,17.178831
791,-10.998103,3.633468,3.388329,-14.388652,-39.970581,81.361588,-5.790101,70.668343,19.890884
792,-9.265368,3.502460,0.993296,-36.316204,-63.134129,39.673302,-4.971458,68.563499,21.213327
793,-8.849075,2.142133,-0.202721,-53.742271,-57.572128,18.905455,-4.208643,66.886658,21.843510
794,-8.983470,-0.650110,0.865076,-44.113682,1.725333,0.869015,-6.460250,67.348854,21.872477
795,-10.267808,-1.341013,6.363198,-17.562576,29.397991,-16.274757,-7.167044,68.061882,21.329985
796,-9.915516,2.247526,4.822306,-31.318796,-48.767540,0.861385,-7.381011,66.319977,21.358698
797,-8.895907,3.897383,3.712347,-33.676353,-114.840118,9.124271,-7.131144,62.400272,21.662840
798,-8.868028,0.786108,5.833104,-10.688283,-110.811676,-30.496384,-7.108352,58.649567,20.646294
799,-10.725912,-0.962747,3.733713,-18.233984,-107.935303,-31.823936,-7.884720,55.431107,19.585495
800,-8.313814,1.696191,3.186868,-13.305244,-118.715965,-19.860682,-7.419427,51.850258,18.923471
801,-6.584376,2.487659,4.083561,-8.391765,-102.785309,-10.697500,-6.722942,48.563793,18.566889
802,-7.536712,1.214545,4.712556,-15.693317,-80.224495,-23.690756,-6.703600,46.171135,17.777197
803,-7.111229,-1.002697,6.883785,-3.882656,-70.748497,-46.869564,-6.869383,43.858292,16.214878
804,-5.690822,-0.396361,9.355387,11.536821,-81.986938,-47.151859,-6.383352,40.879486,14.643149
805,-8.150374,-0.401960,6.512245,8.820674,-96.536644,-37.897121,-6.025397,38.003098,13.379911
806,-4.218573,-1.461297,8.178496,13.818080,-114.298416,-59.061707,-5.678936,34.011326,11.411188
807,-1.730041,-1.777923,8.537832,15.923858,-99.847900,-83.026367,-5.313517,30.196497,8.643642
808,-2.997030,-1.027818,9.866346,11.811488,-42.701988,-80.211037,-4.945488,28.474049,5.969941
809,-4.055228,0.952790,10.330467,14.069859,-30.319101,-57.406078,-4.232842,27.310579,4.056405
810,-2.013785,1.351687,9.651617,30.198891,-64.202278,-54.689930,-2.946250,24.833111,2.233407
811,0.355707,-0.059724,9.162816,24.705559,-90.371902,-37.767418,-2.069663,21.219618,0.974493
812,-1.179891,-0.866004,11.126818,8.713860,-54.253242,-19.288460,-1.845980,19.076771,0.331545
813,-2.794738,-0.363195,12.066289,1.068973,-73.159462,-5.478835,-1.808191,16.548044,0.148917
814,1.097719,-0.206098,7.942852,1.854824,-106.478043,-5.867946,-1.739864,12.477158,-0.046681
815,-0.789346,-1.033100,8.910671,-2.944211,-61.768425,-1.244392,-1.957387,10.283474,-0.088161
816,-0.116013,-0.499649,9.159593,-3.173100,-67.322792,-10.361796,-2.089637,7.838397,-0.433554
817,0.803585,-0.062484,8.881759,-0.655323,-65.964722,-0.725577,-2.058694,5.369341,-0.457740
818,0.185272,-0.209426,9.237659,-2.249915,-53.505539,15.281382,-2.112817,3.467460,0.051639
819,-1.120943,-1.590667,10.976943,-1.563249,-36.644062,8.735161,-2.316935,2.334113,0.342811
820,-0.706190,-0.548071,11.480830,-10.711171,-30.799768,-12.406536,-2.675453,1.362664,-0.070740
821,0.154798,0.898593,8.500513,-18.020355,-20.972809,-20.921200,-3.043369,0.621044,-0.768113
822,1.059018,-0.099380,7.053161,-11.489393,-10.581256,-14.756462,-3.340690,0.048172,-1.259996
823,0.487975,-0.221685,9.627599,-1.815026,-5.248146,-9.926908,-3.349138,-0.196117,-1.590893
824,0.514559,1.238033,10.890047,10.041415,-19.210363,-7.470167,-2.776918,-0.882749,-1.839898
825,0.760223,0.419664,10.295943,2.022676,-16.410292,-8.889278,-2.583406,-1.499500,-2.136207
826,1.361961,-0.071973,8.665333,3.586750,-6.598590,-17.342905,-2.402252,-1.899767,-2.714304
827,0.881834,0.574438,9.495766,12.536303,1.137852,-18.823053,-1.848220,-1.947693,-3.341739
828,1.238752,1.021296,9.707607,9.308970,-6.728294,-15.336313,-1.349329,-2.298483,-3.852950
829,0.884186,0.921334,10.348827,6.226601,-1.227333,-10.689870,-0.986043,-2.402515,-4.209279
831,0.757540,0.477700,9.396197,4.097935,-0.700888,-9.644611,-0.755450,-2.480316,-4.530766
832,0.819758,0.401309,9.943269,3.403639,-3.378888,-5.570390,-0.051357,-3.016194,-4.716446
833,0.857869,0.826352,10.186634,0.931639,-4.294443,-3.868984,0.096149,-3.200312,-4.845412
834,0.374566,0.173285,9.674538,-4.119174,-8.498367,-6.226538,-0.014475,-3.451922,-5.052964
835,0.686662,0.513042,9.631094,-1.128360,-7.102146,-5.410168,0.025446,-3.698252,-5.233303
836,0.696775,0.488975,10.210758,-2.524582,-8.376293,-5.814538,0.011304,-3.975508,-5.427121
837,0.633339,0.606056,9.264722,-4.393841,-4.836146,-5.494094,-0.038211,-4.130855,-5.610257
838,0.148787,-0.337661,9.911057,0.801936,8.355480,-10.445723,-0.059975,-3.756030,-5.958448
839,0.414274,0.335641,9.904816,-5.049989,25.957029,-23.767052,-0.174080,-2.878367,-6.750683
840,0.251140,0.616048,9.929211,-3.760581,44.199471,-34.204380,-0.203189,-1.406078,-7.890829
841,0.034356,-0.170760,9.590146,-8.666431,54.148502,-36.699268,-0.505270,0.388901,-9.114138
842,-0.362587,-0.361293,9.904940,-8.506209,53.965393,-30.534531,-0.821315,2.185430,-10.131955
843,-0.375798,0.146337,9.657334,-1.052064,18.930143,-17.869350,-0.834975,2.801729,-10.727600
844,-0.430633,-0.093414,8.971209,2.770380,26.285105,-14.741201,-0.724063,3.654653,-11.218973
845,-0.639379,0.486559,10.498568,1.610676,28.917324,-9.125796,-0.587277,4.590134,-11.523167
846,-0.645368,-0.440268,9.917536,4.166601,12.605183,-1.557206,-0.500727,4.978037,-11.575073
847,-0.578911,-0.858694,9.309030,-4.897396,28.474808,-8.172093,-0.779130,5.867606,-11.847476
848,-0.747766,0.659417,10.319650,-0.052583,31.259621,-5.135502,-0.669956,6.840254,-12.018660
849,-0.574485,-0.900294,9.879269,6.058749,-16.097477,9.780419,-0.586472,6.228938,-11.692646
850,-0.570093,-0.239289,9.232386,-5.103396,-19.698660,13.854641,-0.774788,5.521316,-11.230824
851,-0.204674,-0.214240,9.722038,-0.830804,-42.793541,23.948639,-0.813979,4.022636,-10.432536
852,-0.522991,-1.403015,9.792939,1.198676,-92.416641,45.715965,-0.958502,0.994183,-8.908670
853,0.444329,0.286890,9.795075,0.267862,-100.450638,48.508408,-0.883892,-2.360222,-7.291723
854,-0.246542,1.269940,9.699162,10.689933,-59.693165,42.084263,-0.327885,-4.205151,-5.888915
855,0.461547,0.119444,10.882685,10.277933,-10.619404,11.863308,0.014345,-4.505862,-5.493471
856,1.183805,0.613736,9.997402,2.366009,-18.363476,5.111088,0.178705,-5.158540,-5.323102
857,1.155587,-0.188894,9.524871,-0.899471,-10.688070,3.661459,0.116602,-5.549842,-5.201053
858,1.311202,0.049897,9.665703,-0.044953,-3.722221,4.836421,0.092083,-6.084174,-5.039839
859,1.058071,0.204812,9.699017,-0.167027,-0.098148,4.378644,0.311157,-6.114843,-4.893884
860,0.912882,0.096963,9.694283,0.115269,-1.555407,1.441237,0.251999,-6.009202,-4.845843
861,1.012432,0.043032,9.875628,0.023714,-2.608295,2.387311,0.202232,-6.047587,-4.766266
862,1.099679,-0.001292,9.722068,-0.365397,-1.799555,3.730125,0.152041,-6.176737,-4.641928
863,1.233460,0.116004,9.628786,-1.067323,1.794000,4.966125,0.093171,-6.353426,-4.476391
864,1.060954,-0.051716,9.950807,-0.914730,2.984222,4.256570,0.061113,-6.249749,-4.334505
865,1.114754,0.106574,9.672845,-1.372508,2.869777,2.173681,0.012290,-6.238010,-4.262049
866,1.153046,0.182851,9.606759,-1.547989,5.669851,0.937682,0.186635,-6.207798,-4.230793
867,0.889780,-0.284319,9.895139,-1.509841,10.888515,0.701163,0.091753,-5.827131,-4.207421
868,0.447706,-0.002043,9.785822,0.611195,4.502517,1.082645,0.089701,-5.065535,-4.171333
869,1.221535,0.315674,9.333305,2.419417,3.709036,0.228126,0.214518,-5.004658,-4.163729
870,1.122536,-0.094395,9.712933,-0.868953,10.438368,-2.381206,0.180914,-4.705100,-4.243102
871,1.238682,-0.270393,10.021408,-1.731100,14.138737,-4.876094,0.081492,-4.304056,-4.405639
872,0.515867,-0.256227,10.362612,0.107640,12.101627,-9.148685,0.047542,-3.874378,-4.710595
873,0.701673,0.285537,9.242461,-0.235694,5.738517,-12.414165,0.082932,-3.699502,-5.124401
874,0.284918,-0.139222,9.497223,0.603565,9.896664,-11.407055,0.100475,-3.328328,-5.504636
875,0.280439,0.171053,10.195438,-1.341990,5.036591,-6.562242,0.078378,-3.120815,-5.723377
876,0.841845,0.038654,9.849490,-3.638507,-0.334666,-5.326242,-0.034325,-3.482619,-5.900918
877,0.527356,-0.149075,9.805000,-3.096804,2.968962,-4.647205,-0.110041,-3.322582,-6.055825
878,0.320165,0.018839,9.924417,-2.837397,1.404889,-2.678762,-0.163697,-2.990149,-6.145117
