seq,ax,ay,az,wroll,wpitch,wyaw,roll,pitch,yaw
1,0.077319,0.271327,-9.842169,6.506202,-0.949554,-0.157600,178.420959,-0.449907,-31.805313
2,0.055448,0.196190,-9.873735,12.168568,-2.441945,-0.410112,178.732147,-0.393165,-31.797258
3,0.054273,0.195102,-9.860095,8.383642,-1.794411,-0.516577,179.074585,-0.322276,-31.783178
4,0.056807,0.188775,-9.856370,5.158614,-0.884116,-0.669547,179.300186,-0.277351,-31.764046
5,0.055094,0.199022,-9.851332,2.391846,-0.468956,-1.444065,179.425873,-0.254403,-31.729073
6,0.040388,0.155486,-9.861506,5.417207,-0.888278,-6.036138,179.555481,-0.230661,-31.604612
8,0.042200,0.124128,-9.856583,4.417495,-0.469115,-6.273943,179.718613,-0.206722,-31.399588
9,0.048801,0.057598,-9.867042,4.156081,0.028656,-8.582840,179.860626,-0.198454,-31.151993
10,0.121065,-0.244852,-9.885792,10.560115,2.381886,-14.188958,-179.895569,-0.238486,-30.772449
11,0.137016,-0.263977,-9.884134,6.654459,2.926894,-29.030979,-179.612289,-0.330133,-30.052498
12,0.046423,0.044879,-9.881278,-4.973933,-0.120201,-36.796417,-179.591049,-0.384021,-28.955740
13,0.042764,0.064841,-9.879823,-5.682276,-0.490998,-36.488445,-179.776505,-0.379632,-27.734362
15,0.029109,0.102788,-9.876057,-5.678208,-0.857060,-33.982952,-179.973389,-0.359662,-26.559910
16,-0.049971,0.375389,-9.862667,-12.752275,-3.063120,-28.065838,179.713623,-0.291952,-25.526014
17,-0.066286,0.377861,-9.864294,-10.375683,-3.263918,-12.192462,179.325607,-0.180223,-24.855993
18,0.033836,0.076210,-9.861570,0.578824,0.417452,0.353622,179.161942,-0.129854,-24.659309
19,0.034335,0.079792,-9.866510,0.862586,1.046737,0.501934,179.185989,-0.154468,-24.673220
20,0.043187,0.106214,-9.857610,-1.430078,1.351998,0.517550,179.176575,-0.194686,-24.689638
22,0.047982,0.122604,-9.857077,-2.303994,1.260761,0.430473,179.114395,-0.238466,-24.704779
23,0.052447,0.121804,-9.866877,-1.080771,1.033702,0.301013,179.058044,-0.276898,-24.716360
24,0.055167,0.134646,-9.868663,-0.585195,0.727393,0.188390,179.030319,-0.306381,-24.724028
25,0.060943,0.149311,-9.867867,-0.634812,0.700998,0.126005,179.010010,-0.330273,-24.728865
26,0.059363,0.166287,-9.866367,-0.799023,0.282413,0.122482,178.986130,-0.346733,-24.732718
27,0.060799,0.150069,-9.875464,2.875083,-0.133193,1.423821,179.020889,-0.349668,-24.758438
29,0.033018,0.059585,-9.889027,9.153319,-1.982704,11.974441,179.222672,-0.317827,-24.982264
30,0.026245,0.069603,-9.886279,4.645223,-1.290141,16.219280,179.455048,-0.268757,-25.452770
31,0.018074,0.055415,-9.879166,4.018594,-1.291916,16.151985,179.601837,-0.230391,-25.992620
32,0.010263,0.001631,-9.891963,4.820074,-1.253808,15.988560,179.751114,-0.191012,-26.528524
33,0.004317,0.001902,-9.887131,1.758786,-0.893429,14.624395,179.862305,-0.156914,-27.038843
34,0.025581,0.073096,-9.868101,-3.921236,0.098305,4.036740,179.827087,-0.144608,-27.349895
36,0.024703,0.049166,-9.875416,-2.803490,0.326485,-0.194051,179.715195,-0.152100,-27.413921
37,0.028565,0.056335,-9.875964,-3.176087,0.623546,-0.093956,179.615524,-0.167934,-27.409027
38,0.039420,0.094776,-9.868138,-5.222608,1.154726,0.000320,179.475540,-0.197558,-27.407242
39,0.042896,0.126172,-9.865493,-5.273719,0.984668,0.044405,179.300598,-0.233219,-27.407600
40,0.045354,0.143875,-9.870549,-3.666206,0.656499,0.051112,179.151611,-0.260590,-27.408819
41,0.050542,0.157544,-9.861085,-2.389416,0.614921,0.022776,179.050690,-0.281797,-27.409719
43,0.053190,0.158281,-9.862605,-0.309225,0.412728,-0.032614,179.005707,-0.298920,-27.409260
44,0.046753,0.145308,-9.869201,1.778677,-0.268453,-0.053806,179.030197,-0.301299,-27.407785
45,0.042744,0.139421,-9.868055,1.731323,-0.501776,-0.057457,179.088684,-0.288434,-27.406139
46,0.044598,0.143070,-9.867187,0.644067,-0.224082,-0.046846,179.128265,-0.276310,-27.404589
47,0.042428,0.149392,-9.872663,0.069209,-0.256144,-0.049036,179.140152,-0.268283,-27.403118
48,0.041423,0.153672,-9.873654,-0.396225,-0.217669,-0.047318,179.134689,-0.260363,-27.401630
50,0.041603,0.160524,-9.876318,-0.855721,-0.098191,-0.035297,179.113815,-0.255078,-27.400333
51,0.047341,0.162373,-9.877061,-0.614739,0.261279,-0.033467,179.089310,-0.257778,-27.399143
52,0.043646,0.162062,-9.878212,-0.358153,0.018171,-0.037587,179.073090,-0.262416,-27.397886
53,0.042836,0.155792,-9.873996,0.117985,-0.068029,-0.033674,179.069077,-0.261566,-27.396709
54,0.044385,0.156288,-9.873848,0.199369,0.016624,-0.039668,179.074356,-0.260690,-27.395504
55,0.045519,0.156342,-9.869248,0.157506,0.090880,-0.035665,179.080307,-0.262461,-27.394218
57,0.044300,0.155867,-9.867341,0.110191,0.013603,-0.043333,179.084763,-0.264181,-27.392876
58,0.045629,0.156410,-9.860086,0.006083,0.087709,-0.041191,179.086685,-0.265847,-27.391439
59,0.047785,0.156275,-9.868363,0.043434,0.187877,-0.053247,179.087509,-0.270414,-27.389791
60,0.045559,0.152624,-9.868396,0.216707,0.016048,-0.056592,179.091827,-0.273783,-27.387907
61,0.043849,0.154920,-9.868431,0.046325,-0.121492,-0.062576,179.096207,-0.271995,-27.385950
62,0.043874,0.159475,-9.866272,-0.242480,-0.106191,-0.054567,179.092926,-0.268170,-27.384058
64,0.039436,0.161705,-9.868286,-0.308282,-0.333726,-0.061540,179.083740,-0.260808,-27.382238
65,0.037465,0.168227,-9.862552,-0.597637,-0.370249,-0.054371,179.068634,-0.249045,-27.380497
66,0.039847,0.178972,-9.863737,-1.089266,-0.097830,-0.041573,179.040512,-0.241219,-27.379030
67,0.041637,0.175482,-9.868155,-0.567356,0.077153,-0.039475,179.012894,-0.240851,-27.377684
68,0.039118,0.177053,-9.869651,-0.397661,-0.067276,-0.042673,178.996811,-0.240992,-27.376316
69,0.045674,0.176788,-9.875316,-0.217060,0.311780,-0.038387,178.986557,-0.245043,-27.374893
71,0.045549,0.170140,-9.876749,0.235849,0.257559,-0.040169,178.986862,-0.254507,-27.373411
72,0.044469,0.166769,-9.873267,0.458469,0.092063,-0.031369,178.998428,-0.260312,-27.372118
73,0.047042,0.169971,-9.871902,0.143511,0.186732,-0.028053,179.008453,-0.264941,-27.371046
74,0.045708,0.163421,-9.872755,0.410386,0.059787,-0.022806,179.017685,-0.269034,-27.370127
75,0.044894,0.166921,-9.869524,0.128700,-0.025985,-0.010414,179.026672,-0.269588,-27.369566
76,0.047258,0.167329,-9.867554,0.030058,0.107751,-0.010223,179.029312,-0.270945,-27.369200
78,0.046539,0.168008,-9.868291,-0.035072,0.040044,-0.017577,179.029221,-0.273400,-27.368696
79,0.049115,0.167279,-9.863181,0.012224,0.168023,-0.012202,179.028839,-0.276859,-27.368139
80,0.050519,0.170444,-9.863886,-0.151782,0.216302,-0.009224,179.026505,-0.283257,-27.367674
81,0.047107,0.158267,-9.864764,0.574863,-0.056725,-0.023814,179.033554,-0.285907,-27.367077
82,0.047614,0.159765,-9.868253,0.420725,-0.057816,-0.027565,179.050156,-0.283984,-27.366255
83,0.049500,0.156751,-9.871466,0.428208,0.074535,-0.033002,179.064301,-0.284246,-27.365242
85,0.046687,0.151581,-9.870783,0.592313,-0.103323,-0.033403,179.081299,-0.283749,-27.364140
86,0.050069,0.150244,-9.871321,0.492767,0.102340,-0.036704,179.099380,-0.283714,-27.362972
87,0.055237,0.158717,-9.872210,-0.180362,0.403842,-0.029232,179.104568,-0.292132,-27.361740
88,0.052753,0.163683,-9.871060,-0.524690,0.186615,-0.026968,179.092819,-0.301957,-27.360645
89,0.049738,0.165022,-9.871119,-0.487874,-0.082023,-0.040304,179.075943,-0.303682,-27.359499
90,0.046443,0.165969,-9.876483,-0.373399,-0.285866,-0.049218,179.061569,-0.297527,-27.358107
92,0.045664,0.167603,-9.873850,-0.308865,-0.262737,-0.050270,179.050201,-0.288357,-27.356600
93,0.043495,0.169532,-9.874978,-0.311993,-0.289581,-0.050836,179.039841,-0.279125,-27.355070
94,0.045757,0.166347,-9.870712,-0.014162,-0.066482,-0.042646,179.034393,-0.273166,-27.353611
95,0.043682,0.170834,-9.872567,-0.230464,-0.126273,-0.032453,179.030319,-0.269932,-27.352413
96,0.045963,0.177177,-9.870612,-0.562761,0.038906,-0.020526,179.017090,-0.268461,-27.351555
97,0.047402,0.178012,-9.871552,-0.473465,0.130741,-0.015389,178.999817,-0.271278,-27.350906
99,0.045836,0.173364,-9.866267,-0.031888,0.003972,-0.030637,178.991394,-0.273509,-27.350096
100,0.047172,0.172687,-9.866844,0.104468,0.060577,-0.035188,178.992599,-0.274566,-27.348982
101,0.048458,0.169377,-9.861149,0.309425,0.132400,-0.030144,178.999481,-0.277762,-27.347837
102,0.049957,0.166947,-9.863045,0.377430,0.208327,-0.044087,179.010925,-0.283419,-27.346502
103,0.047318,0.164587,-9.860557,0.409905,0.002272,-0.052168,179.024048,-0.286901,-27.344831
104,0.049452,0.167181,-9.861487,0.104607,0.106413,-0.044392,179.032608,-0.288685,-27.343193
106,0.046616,0.164565,-9.861774,0.184903,-0.076227,-0.034932,179.037430,-0.289165,-27.341867
107,0.045156,0.166513,-9.862166,-0.012655,-0.167480,-0.037236,179.040298,-0.285084,-27.340729
108,0.048193,0.167882,-9.857897,-0.102159,0.024971,-0.031068,179.038376,-0.282690,-27.339630
109,0.049474,0.163588,-9.859430,0.155797,0.121363,-0.034190,179.039261,-0.285110,-27.338503
110,0.049785,0.168010,-9.860399,-0.089188,0.107323,-0.027982,179.040375,-0.288904,-27.337404
111,0.050650,0.170093,-9.864365,-0.234068,0.113885,-0.028452,179.034973,-0.292574,-27.336403
113,0.053584,0.166884,-9.865148,0.046617,0.227473,-0.034143,179.031845,-0.298245,-27.335262
114,0.048232,0.162772,-9.872587,0.296329,-0.132929,-0.034361,179.037552,-0.299802,-27.334095
115,0.047181,0.174817,-9.878177,-0.459958,-0.217131,-0.027367,179.034821,-0.293951,-27.333160
116,0.043606,0.175201,-9.880050,-0.428617,-0.369491,-0.040489,179.020004,-0.284156,-27.332199
117,0.043349,0.177286,-9.880903,-0.426448,-0.279091,-0.051161,179.005753,-0.273322,-27.330856
118,0.048490,0.179238,-9.881898,-0.392973,0.140671,-0.043960,178.992081,-0.270987,-27.329315
120,0.046369,0.189933,-9.878224,-0.857482,0.037489,-0.052540,178.971237,-0.273927,-27.327646
121,0.044176,0.178061,-9.872333,0.023984,-0.112985,-0.061804,178.957336,-0.272635,-27.325768
122,0.044485,0.172370,-9.871471,0.477050,-0.081938,-0.046844,178.965683,-0.269354,-27.324018
123,0.045079,0.172615,-9.871341,0.396103,-0.026846,-0.046092,178.980225,-0.267514,-27.322502
124,0.042409,0.170963,-9.867409,0.342585,-0.174597,-0.036537,178.992523,-0.264132,-27.321184
125,0.043749,0.167395,-9.865327,0.409367,-0.059425,-0.023477,179.005051,-0.260215,-27.320251
127,0.046141,0.174723,-9.872290,-0.102162,0.113686,-0.024415,179.010178,-0.261106,-27.319441
128,0.048299,0.177190,-9.874787,-0.315246,0.232346,-0.024827,179.003220,-0.266858,-27.318520
129,0.050633,0.175302,-9.868353,-0.144315,0.319775,-0.031805,178.995544,-0.276042,-27.317413
130,0.053382,0.181659,-9.865666,-0.438007,0.391417,-0.045756,178.985840,-0.287870,-27.315910
131,0.051271,0.180440,-9.867751,-0.280150,0.149980,-0.056851,178.973862,-0.296862,-27.314043
132,0.050724,0.174163,-9.865215,0.164744,0.026029,-0.058080,178.971924,-0.299760,-27.312075
134,0.052672,0.176556,-9.861209,0.045566,0.112912,-0.063293,178.975418,-0.302039,-27.310005
135,0.053379,0.179349,-9.863131,-0.138895,0.118387,-0.051801,178.973846,-0.305860,-27.308022
136,0.049678,0.175860,-9.869216,0.035310,-0.136511,-0.064333,178.972122,-0.305523,-27.306093
137,0.055960,0.170869,-9.867644,0.359084,0.221267,-0.060676,178.978683,-0.306898,-27.303986
138,0.054534,0.175404,-9.864547,0.056047,0.122709,-0.055015,178.985580,-0.312596,-27.301952
139,0.053124,0.177096,-9.868312,-0.107353,-0.017295,-0.053818,178.984726,-0.314320,-27.300110
140,0.051439,0.172731,-9.871948,0.155287,-0.116662,-0.059000,178.985504,-0.312055,-27.298267
141,0.052645,0.169167,-9.868906,0.395431,-0.021581,-0.048649,178.994675,-0.309719,-27.296515
142,0.047852,0.168498,-9.868389,0.322251,-0.265592,-0.045781,179.006638,-0.304906,-27.295027
143,0.048893,0.166396,-9.872101,0.326859,-0.152030,-0.040789,179.017441,-0.297922,-27.293707
144,0.049894,0.159229,-9.867849,0.641322,-0.028981,-0.040040,179.033569,-0.294883,-27.292408
145,0.049557,0.162970,-9.864730,0.240089,-0.027919,-0.049443,179.048248,-0.293910,-27.290930
146,0.047220,0.159136,-9.873682,0.324291,-0.164004,-0.049604,179.057648,-0.290684,-27.289331
147,0.048081,0.171336,-9.878997,-0.478192,-0.080258,-0.055353,179.055084,-0.286585,-27.287651
148,0.049826,0.172783,-9.876678,-0.555544,0.067153,-0.059372,179.037842,-0.286335,-27.285742
149,0.046535,0.173381,-9.881922,-0.395775,-0.122653,-0.061835,179.021973,-0.285376,-27.283739
150,0.048326,0.166424,-9.882958,0.154907,0.002635,-0.046458,179.017960,-0.283345,-27.281971
151,0.049163,0.177425,-9.876821,-0.442732,0.090001,-0.049768,179.013153,-0.284861,-27.280338
153,0.049008,0.174783,-9.871635,-0.226994,0.056660,-0.044618,179.001984,-0.287278,-27.278725
154,0.048670,0.171298,-9.869706,0.098689,0.011900,-0.056027,178.999832,-0.288391,-27.277027
155,0.051562,0.174873,-9.865805,-0.121848,0.177415,-0.060332,178.999435,-0.291512,-27.275034
156,0.045537,0.179976,-9.868697,-0.379066,-0.211987,-0.059323,178.991074,-0.290901,-27.273050
157,0.043758,0.175426,-9.865465,-0.045454,-0.319017,-0.045573,178.983994,-0.282021,-27.271458
158,0.042056,0.171416,-9.868259,0.239651,-0.328262,-0.041234,178.987228,-0.271209,-27.270203
159,0.036812,0.173035,-9.872094,0.121872,-0.531508,-0.031583,178.993240,-0.256861,-27.269236
160,0.034284,0.167847,-9.874660,0.398790,-0.541396,-0.021364,179.001923,-0.238966,-27.268665
161,0.039285,0.167034,-9.871433,0.324017,-0.062523,-0.025582,179.013962,-0.228889,-27.268059
162,0.041122,0.173581,-9.872258,-0.161727,0.155314,-0.036246,179.016663,-0.230417,-27.267004
163,0.043513,0.173167,-9.871370,-0.145801,0.283576,-0.040254,179.011536,-0.237709,-27.265600
164,0.052126,0.180102,-9.868578,-0.524286,0.721994,-0.043506,179.000351,-0.254442,-27.263912
165,0.053353,0.184332,-9.866275,-0.651435,0.620573,-0.048866,178.980759,-0.276787,-27.261984
166,0.051290,0.185693,-9.865833,-0.522744,0.263815,-0.049915,178.961166,-0.291495,-27.260069
167,0.050340,0.178097,-9.867400,0.092743,0.055037,-0.053474,178.953995,-0.296777,-27.258251
168,0.050372,0.176926,-9.868482,0.242766,0.006805,-0.038415,178.959579,-0.297780,-27.256702
169,0.046164,0.169743,-9.868904,0.604291,-0.246053,-0.025889,178.973694,-0.293774,-27.255703
170,0.045119,0.168550,-9.870126,0.501627,-0.254783,-0.025065,178.992126,-0.285413,-27.254999
171,0.040810,0.170084,-9.872135,0.236475,-0.420222,-0.029322,179.004425,-0.274149,-27.254290
172,0.040707,0.167646,-9.870927,0.253778,-0.317897,-0.007480,179.012589,-0.261838,-27.253893
173,0.037813,0.162686,-9.873258,0.453012,-0.370923,-0.017986,179.024368,-0.250352,-27.253664
174,0.036688,0.166618,-9.873890,0.103180,-0.336770,-0.021705,179.033630,-0.238548,-27.253204
175,0.036988,0.166015,-9.877619,0.070489,-0.208279,-0.024196,179.036530,-0.229452,-27.252590
176,0.043559,0.166150,-9.876175,0.017076,0.267129,-0.016398,179.037979,-0.230421,-27.251898
177,0.044880,0.170103,-9.880257,-0.207426,0.333001,-0.029995,179.034805,-0.240409,-27.250957
178,0.046822,0.172268,-9.875647,-0.290604,0.353118,-0.039354,179.026505,-0.251823,-27.249609
179,0.047266,0.169868,-9.870692,-0.093152,0.287506,-0.036848,179.020096,-0.262477,-27.248150
180,0.047315,0.174065,-9.869857,-0.239974,0.187122,-0.040967,179.014542,-0.270364,-27.246723
181,0.044189,0.167709,-9.871346,0.175244,-0.072015,-0.051100,179.013458,-0.272256,-27.245153
182,0.044409,0.168879,-9.871103,0.098150,-0.073537,-0.045373,179.018005,-0.269803,-27.243587
183,0.048360,0.170689,-9.872602,-0.040181,0.182876,-0.040197,179.018967,-0.271600,-27.242134
184,0.048604,0.173003,-9.875254,-0.195077,0.164580,-0.036371,179.015030,-0.277368,-27.240759
185,0.045828,0.168685,-9.869511,0.085892,-0.063244,-0.026538,179.013214,-0.279039,-27.239683
186,0.044163,0.174486,-9.867745,-0.226712,-0.168503,-0.025466,179.010864,-0.275162,-27.238882
187,0.046292,0.172460,-9.863726,-0.085126,-0.003559,-0.020452,179.005661,-0.272282,-27.238165
188,0.045641,0.173283,-9.860847,-0.077755,-0.017902,-0.028218,179.002945,-0.271910,-27.237362
189,0.046306,0.176790,-9.860481,-0.265356,0.033690,-0.028322,178.997223,-0.272157,-27.236414
190,0.049516,0.179406,-9.861273,-0.342496,0.229660,-0.033185,178.987076,-0.276527,-27.235313
191,0.048912,0.188010,-9.861061,-0.767094,0.144840,-0.034978,178.968582,-0.282747,-27.234060
192,0.047323,0.183312,-9.862646,-0.319792,-0.014681,-0.037087,178.950455,-0.284895,-27.232821
193,0.039305,0.184888,-9.865206,-0.207517,-0.510045,-0.039496,178.941666,-0.276127,-27.231709
194,0.040868,0.177227,-9.866365,0.320310,-0.336559,-0.044364,178.943542,-0.261994,-27.230570
195,0.040354,0.174978,-9.870226,0.411718,-0.233664,-0.044908,178.955734,-0.252464,-27.229256
196,0.040060,0.168699,-9.868530,0.701349,-0.159642,-0.043949,178.974289,-0.245884,-27.227896
197,0.036774,0.175365,-9.871737,0.117085,-0.276111,-0.041020,178.987915,-0.238597,-27.226610
198,0.042394,0.174668,-9.870068,0.001157,0.132390,-0.032780,178.989883,-0.236180,-27.225420
199,0.041240,0.178268,-9.868289,-0.201822,0.085446,-0.037530,178.986526,-0.239790,-27.224186
200,0.043991,0.176474,-9.866066,-0.092468,0.220293,-0.028678,178.981628,-0.244865,-27.222994
201,0.043479,0.172953,-9.868719,0.180527,0.142207,-0.030547,178.983093,-0.250888,-27.221901
202,0.047480,0.175261,-9.865759,0.010586,0.316566,-0.037286,178.986267,-0.258513,-27.220634
203,0.049920,0.173783,-9.867278,0.085990,0.367836,-0.046581,178.987869,-0.269893,-27.219030
204,0.050534,0.174365,-9.868956,0.044013,0.284645,-0.042093,178.990021,-0.280740,-27.217361
205,0.051248,0.173572,-9.867736,0.061100,0.214969,-0.050791,178.991776,-0.289039,-27.215670
206,0.053716,0.176302,-9.866974,-0.104908,0.280090,-0.041464,178.991028,-0.297261,-27.213985
207,0.053407,0.178411,-9.864212,-0.221339,0.191506,-0.025533,178.985580,-0.305100,-27.212727
208,0.050426,0.178001,-9.864868,-0.147006,-0.055583,-0.020438,178.979446,-0.307352,-27.211922
209,0.046071,0.180828,-9.864953,-0.245065,-0.326422,-0.025915,178.972900,-0.300972,-27.211264
210,0.047564,0.185627,-9.865057,-0.458238,-0.172967,-0.021299,178.961182,-0.292636,-27.210629
211,0.051752,0.179986,-9.867379,-0.015632,0.149749,-0.022241,178.953278,-0.292236,-27.209911
212,0.050220,0.171909,-9.869678,0.562029,0.044305,-0.046927,178.962387,-0.295449,-27.208698
213,0.049744,0.170165,-9.868237,0.560163,-0.008911,-0.050979,178.981079,-0.296009,-27.207058
214,0.055706,0.164454,-9.868719,0.702173,0.329872,-0.042624,179.002106,-0.301330,-27.205406
215,0.050854,0.156990,-9.874214,0.947026,-0.021809,-0.042748,179.029587,-0.306439,-27.203892
216,0.045517,0.158886,-9.871664,0.535536,-0.389433,-0.043179,179.054291,-0.299563,-27.202578
217,0.044745,0.161787,-9.870841,0.110280,-0.350011,-0.024995,179.065048,-0.287221,-27.201645
218,0.045040,0.170207,-9.866154,-0.511979,-0.205226,-0.028686,179.058350,-0.277954,-27.200897
219,0.043708,0.170420,-9.865455,-0.458111,-0.188221,-0.031166,179.042175,-0.271381,-27.200008
220,0.041727,0.177062,-9.859118,-0.684103,-0.231414,-0.030018,179.023132,-0.264371,-27.199110
221,0.043161,0.176398,-9.858127,-0.482150,-0.074746,-0.040089,179.003693,-0.259249,-27.198030
222,0.043192,0.174534,-9.858483,-0.153154,-0.041686,-0.045431,178.993103,-0.257284,-27.196638
223,0.044087,0.167875,-9.864238,0.380469,0.028453,-0.022131,178.996872,-0.257043,-27.195517
224,0.042105,0.171568,-9.863439,0.090785,-0.079458,-0.029814,179.004730,-0.256178,-27.194666
225,0.044586,0.166487,-9.864225,0.286767,0.079161,-0.029229,179.011017,-0.256156,-27.193682
226,0.045990,0.168727,-9.864084,0.171519,0.159430,-0.011897,179.018646,-0.260121,-27.192926
227,0.045459,0.172095,-9.863740,-0.154156,0.098221,-0.029607,179.018936,-0.264402,-27.192156
228,0.045900,0.182931,-9.863395,-0.827853,0.078063,-0.045040,179.002563,-0.267318,-27.190865
229,0.045095,0.184516,-9.867390,-0.672556,0.001086,-0.055217,178.977554,-0.268608,-27.189173
230,0.046372,0.189184,-9.869184,-0.725012,0.064858,-0.052737,178.954254,-0.269674,-27.187349
231,0.045820,0.189958,-9.873294,-0.553762,0.016455,-0.060271,178.932922,-0.270995,-27.185444
232,0.048835,0.186478,-9.879619,-0.079906,0.167170,-0.043117,178.922363,-0.274022,-27.183668
233,0.055063,0.178679,-9.879971,0.467618,0.500909,-0.035738,178.928818,-0.285130,-27.182144
234,0.054044,0.171349,-9.876840,0.814237,0.327238,-0.027935,178.950165,-0.298911,-27.180828
235,0.055432,0.168104,-9.878494,0.802767,0.266401,-0.021407,178.977112,-0.308788,-27.179823
236,0.058769,0.167483,-9.876504,0.562861,0.364916,-0.022474,178.999863,-0.319296,-27.178904
237,0.055722,0.165718,-9.871132,0.408074,0.097160,-0.028122,179.016052,-0.326981,-27.177927
238,0.048786,0.156966,-9.872083,0.767302,-0.385484,-0.034338,179.035629,-0.322159,-27.176970
239,0.043670,0.165232,-9.874604,0.085195,-0.636306,-0.031549,179.049835,-0.305113,-27.176157
240,0.045055,0.176556,-9.873640,-0.716246,-0.399049,-0.048278,179.039307,-0.287837,-27.175116
241,0.039716,0.176196,-9.877231,-0.581910,-0.527778,-0.051321,179.017670,-0.272364,-27.173717
242,0.040582,0.176198,-9.879144,-0.366728,-0.317268,-0.049882,179.001846,-0.258253,-27.172274
243,0.041407,0.183101,-9.876492,-0.596411,-0.135368,-0.047689,178.985794,-0.250682,-27.170784
244,0.049508,0.183625,-9.873454,-0.454286,0.414058,-0.035902,178.968277,-0.255301,-27.169308
245,0.043479,0.168731,-9.873048,0.586022,0.038076,-0.035278,178.970459,-0.262814,-27.167988
246,0.046054,0.169736,-9.869629,0.497881,0.101061,-0.026610,178.988525,-0.265114,-27.166908
247,0.045394,0.175879,-9.871462,-0.009838,0.036235,-0.027122,178.996658,-0.267387,-27.165976
248,0.044829,0.181343,-9.870882,-0.448484,-0.006902,-0.033007,178.989014,-0.267858,-27.164965
249,0.041600,0.172434,-9.871041,0.154197,-0.212778,-0.048896,178.984100,-0.264173,-27.163666
250,0.045187,0.175049,-9.873031,0.047513,0.036235,-0.037425,178.987457,-0.261205,-27.162279
251,0.040829,0.175682,-9.870581,-0.032923,-0.177185,-0.041689,178.987686,-0.258833,-27.161003
252,0.041965,0.169434,-9.868377,0.323553,-0.090077,-0.036948,178.992523,-0.254357,-27.159765
253,0.046041,0.170551,-9.869511,0.203867,0.186377,-0.024885,179.001312,-0.255943,-27.158705
254,0.047998,0.169759,-9.871522,0.170102,0.295750,-0.012702,179.007538,-0.263967,-27.157940
256,0.046691,0.172101,-9.866128,-0.006069,0.125935,-0.005642,179.010284,-0.270988,-27.157515
257,0.053110,0.169877,-9.868537,0.101186,0.433755,-0.006053,179.011856,-0.280312,-27.157160
258,0.050647,0.164487,-9.867003,0.376887,0.188911,-0.017832,179.019821,-0.290681,-27.156580
259,0.045221,0.164054,-9.864329,0.356446,-0.235140,-0.023705,179.032043,-0.289899,-27.155905
260,0.047054,0.169332,-9.863585,-0.118722,-0.117639,-0.029992,179.035995,-0.284005,-27.155109
261,0.047832,0.169317,-9.867788,-0.163944,-0.008617,-0.048241,179.031281,-0.281879,-27.153839
262,0.048483,0.167223,-9.869339,-0.004392,0.049977,-0.055566,179.028473,-0.282539,-27.152100
263,0.052833,0.173704,-9.869756,-0.348919,0.294187,-0.053114,179.022568,-0.288244,-27.150192
264,0.053758,0.171135,-9.873349,-0.126583,0.294293,-0.062819,179.014633,-0.298017,-27.148092
265,0.048945,0.172441,-9.873319,-0.123039,-0.078052,-0.069277,179.010468,-0.301583,-27.145828
266,0.048623,0.169989,-9.873560,0.058111,-0.141629,-0.061637,179.009369,-0.297884,-27.143711
267,0.048999,0.174209,-9.870429,-0.169817,-0.100263,-0.058792,179.007507,-0.293818,-27.141768
268,0.047281,0.175583,-9.869018,-0.256726,-0.157406,-0.066222,179.000381,-0.289488,-27.139763
269,0.045176,0.172975,-9.870134,-0.022375,-0.233555,-0.063426,178.995712,-0.282936,-27.137716
270,0.048948,0.175158,-9.867781,-0.104869,0.043886,-0.051223,178.993591,-0.279742,-27.135862
271,0.050873,0.177502,-9.870644,-0.227340,0.205017,-0.044676,178.988037,-0.283861,-27.134192
272,0.047645,0.176975,-9.870701,-0.100068,-0.012819,-0.037606,178.982574,-0.287040,-27.132765
273,0.049696,0.177585,-9.872231,-0.088400,0.086166,-0.020717,178.979431,-0.288245,-27.131769
274,0.054026,0.176619,-9.872272,-0.022222,0.331435,-0.009914,178.977585,-0.295194,-27.131130
275,0.050801,0.172215,-9.877261,0.299538,0.067261,-0.025287,178.982208,-0.301828,-27.130430
276,0.045538,0.174136,-9.871456,0.119255,-0.299665,-0.041848,178.989182,-0.297935,-27.129379
277,0.043936,0.177364,-9.871613,-0.165092,-0.349192,-0.045624,178.988403,-0.287097,-27.128113
278,0.043153,0.177728,-9.867410,-0.153927,-0.295912,-0.053711,178.983078,-0.276318,-27.126652
279,0.044273,0.177905,-9.861966,-0.150249,-0.132419,-0.065694,178.978012,-0.269144,-27.124786
280,0.047897,0.174376,-9.860447,0.100877,0.159349,-0.059455,178.977173,-0.269556,-27.122694
281,0.048560,0.177306,-9.859357,-0.065185,0.187965,-0.048918,178.977753,-0.275311,-27.120785
282,0.053809,0.168921,-9.857676,0.396107,0.428284,-0.045250,178.983261,-0.285553,-27.119032
283,0.050726,0.162891,-9.862539,0.767855,0.156011,-0.047214,179.002655,-0.295262,-27.117317
284,0.052761,0.166051,-9.865522,0.320154,0.192997,-0.031918,179.020782,-0.301056,-27.115900
285,0.052167,0.165229,-9.865049,0.259435,0.093125,-0.021994,179.030441,-0.305808,-27.114920
286,0.051881,0.163337,-9.868424,0.289740,0.024925,-0.035202,179.039581,-0.307759,-27.113932
287,0.049852,0.163872,-9.869548,0.085914,-0.098951,-0.025939,179.045837,-0.306509,-27.112936
288,0.049706,0.158505,-9.870864,0.423065,-0.119734,-0.022996,179.054321,-0.302851,-27.112183
289,0.048875,0.151144,-9.872550,0.736462,-0.131881,-0.018322,179.073639,-0.298647,-27.111565
290,0.050593,0.154916,-9.870599,0.302830,0.004315,-0.016637,179.090958,-0.296512,-27.111012
291,0.050175,0.149445,-9.869510,0.488941,-0.015049,-0.003724,179.104156,-0.296327,-27.110678
292,0.050481,0.153754,-9.869995,0.128736,-0.006266,-0.009961,179.114456,-0.295969,-27.110455
293,0.051779,0.166446,-9.872772,-0.764537,0.077915,-0.011545,179.103851,-0.297157,-27.110079
294,0.049283,0.174192,-9.873558,-1.040093,-0.082068,-0.018837,179.073776,-0.297080,-27.109568
295,0.051688,0.175273,-9.875203,-0.862982,0.065324,-0.013866,179.042053,-0.296792,-27.109032
296,0.055092,0.180112,-9.874911,-0.819209,0.273346,-0.030146,179.014008,-0.302423,-27.108204
297,0.054658,0.178810,-9.876844,-0.459806,0.194294,-0.040325,178.992691,-0.310195,-27.106892
298,0.057962,0.176934,-9.871237,-0.187899,0.320772,-0.039644,178.981888,-0.318755,-27.105408
299,0.056801,0.172964,-9.869924,0.211704,0.168273,-0.045037,178.982269,-0.326880,-27.103851
300,0.051608,0.174966,-9.869179,0.039010,-0.209517,-0.061654,178.986435,-0.326161,-27.102087
301,0.049615,0.166524,-9.872450,0.527117,-0.323562,-0.050320,178.995865,-0.317245,-27.100378
302,0.051932,0.169960,-9.870126,0.228169,-0.097769,-0.043460,179.008438,-0.310196,-27.098936
303,0.049849,0.173641,-9.870653,-0.141218,-0.155965,-0.043105,179.009888,-0.305943,-27.097570
304,0.047947,0.175562,-9.873705,-0.227357,-0.238423,-0.055612,179.003738,-0.299342,-27.096039
305,0.051300,0.175049,-9.872920,-0.156758,0.020770,-0.047552,178.997330,-0.295685,-27.094381
306,0.050945,0.179377,-9.869080,-0.360023,0.034830,-0.057383,178.988708,-0.296581,-27.092617
307,0.046397,0.178825,-9.869040,-0.225057,-0.235032,-0.060069,178.978943,-0.293210,-27.090719
308,0.045141,0.178600,-9.864724,-0.125051,-0.268535,-0.072443,178.973099,-0.284779,-27.088661
309,0.046042,0.182229,-9.864234,-0.282425,-0.130295,-0.060078,178.966293,-0.278094,-27.086571
310,0.047600,0.175379,-9.865878,0.197222,0.025013,-0.059541,178.964859,-0.276303,-27.084610
311,0.047954,0.175504,-9.865630,0.205546,0.069637,-0.043558,178.971573,-0.277850,-27.082865
312,0.046797,0.172688,-9.865766,0.297575,-0.014554,-0.043046,178.979950,-0.278742,-27.081398
313,0.046038,0.163673,-9.870942,0.749840,-0.064366,-0.025053,178.997406,-0.277406,-27.080288
314,0.047545,0.158929,-9.871024,0.827873,0.033364,-0.012100,179.023697,-0.276879,-27.079679
315,0.045734,0.169132,-9.871803,0.005764,-0.063593,-0.013355,179.037582,-0.276368,-27.079266
316,0.045730,0.172716,-9.875185,-0.357526,-0.067254,-0.027125,179.031723,-0.274176,-27.078627
317,0.047261,0.176110,-9.876611,-0.482089,0.052211,-0.022859,179.017715,-0.273912,-27.077795
318,0.051546,0.177709,-9.876055,-0.429374,0.295897,-0.025955,179.002518,-0.279698,-27.076883
319,0.051316,0.168223,-9.867240,0.250262,0.233471,-0.029849,178.999527,-0.288504,-27.075802
320,0.049892,0.167842,-9.867868,0.312083,0.054965,-0.037104,179.008896,-0.293291,-27.074602
321,0.052625,0.166981,-9.865286,0.238419,0.175704,-0.026234,179.018066,-0.297117,-27.073481
322,0.054684,0.166663,-9.866453,0.195345,0.247491,-0.026752,179.025299,-0.304154,-27.072475
323,0.049453,0.169145,-9.863541,-0.039137,-0.119584,-0.038851,179.027893,-0.306267,-27.071348
324,0.050531,0.173096,-9.867386,-0.278437,-0.073163,-0.041033,179.022598,-0.303032,-27.070070
325,0.050301,0.163550,-9.867007,0.331363,-0.044923,-0.025284,179.023468,-0.301045,-27.069002
326,0.047254,0.163171,-9.863085,0.333232,-0.199339,-0.035529,179.034546,-0.296958,-27.068056
327,0.047167,0.160841,-9.863081,0.367010,-0.172692,-0.034768,179.046204,-0.290738,-27.066992
328,0.051646,0.166396,-9.863254,-0.097998,0.148028,-0.022463,179.050690,-0.290312,-27.066038
329,0.049706,0.170531,-9.865829,-0.372725,0.031261,-0.028761,179.042831,-0.293285,-27.065134
330,0.048819,0.175799,-9.859228,-0.614576,-0.054184,-0.041990,179.026367,-0.292883,-27.063961
331,0.052087,0.176538,-9.862184,-0.480732,0.141820,-0.031993,179.008118,-0.294322,-27.062708
332,0.052556,0.177592,-9.862538,-0.342224,0.154551,-0.044862,178.994385,-0.299239,-27.061342
333,0.050855,0.172888,-9.864728,0.074972,0.015101,-0.036168,178.989929,-0.302042,-27.059942
334,0.050121,0.175309,-9.866073,-0.011969,-0.051376,-0.031818,178.990967,-0.301418,-27.058819
335,0.047949,0.172441,-9.870686,0.165552,-0.157285,-0.022422,178.993530,-0.297925,-27.057978
336,0.049787,0.172340,-9.873424,0.134910,-0.014995,-0.027661,178.998535,-0.295039,-27.057188
337,0.046498,0.165888,-9.871781,0.431647,-0.174984,-0.024240,179.007965,-0.291858,-27.056379
338,0.045556,0.164821,-9.871917,0.400870,-0.210099,-0.029359,179.021835,-0.285426,-27.055597
339,0.051310,0.161231,-9.868310,0.438086,0.187636,-0.031341,179.035812,-0.285034,-27.054594
340,0.055185,0.160476,-9.870287,0.339462,0.405179,-0.040209,179.048767,-0.294893,-27.053236
341,0.051444,0.161227,-9.869271,0.159318,0.082217,-0.044838,179.057068,-0.302992,-27.051685
342,0.052477,0.163465,-9.868294,-0.053027,0.059979,-0.035612,179.058838,-0.305340,-27.050301
343,0.052866,0.160338,-9.867195,0.129637,0.060956,-0.040860,179.060104,-0.307334,-27.048996
344,0.046781,0.159977,-9.868872,0.115070,-0.309645,-0.034726,179.064178,-0.303169,-27.047808
345,0.047503,0.168255,-9.868876,-0.384748,-0.233752,-0.036103,179.059677,-0.294094,-27.046776
346,0.047673,0.160661,-9.873316,0.118911,-0.132898,-0.028863,179.055237,-0.287967,-27.045794
347,0.046931,0.162392,-9.873454,0.059928,-0.119309,-0.033444,179.058228,-0.283747,-27.044819
348,0.047632,0.165303,-9.875134,-0.117242,-0.033875,-0.030008,179.057266,-0.281177,-27.043806
349,0.046572,0.159434,-9.879118,0.233459,-0.058554,-0.041079,179.059189,-0.279617,-27.042646
350,0.045094,0.151161,-9.876475,0.686943,-0.121865,-0.033881,179.074524,-0.276590,-27.041447
351,0.044100,0.156537,-9.870841,0.209043,-0.143217,-0.031979,179.089447,-0.272155,-27.040424
352,0.044497,0.153983,-9.870949,0.198934,-0.074344,-0.023242,179.096252,-0.268515,-27.039553
353,0.044226,0.150812,-9.874080,0.302528,-0.052969,-0.028469,179.104599,-0.266380,-27.038729
354,0.048268,0.156860,-9.869199,-0.113463,0.199674,-0.008172,179.107758,-0.268815,-27.038080
355,0.047889,0.159405,-9.870417,-0.300690,0.149946,-0.006697,179.100845,-0.274637,-27.037735
356,0.048852,0.161964,-9.873297,-0.366766,0.140687,-0.010189,179.089722,-0.279476,-27.037382
357,0.048212,0.175554,-9.875508,-1.029486,0.057597,-0.022497,179.066452,-0.282772,-27.036787
359,0.046971,0.186130,-9.874590,-1.412789,-0.042521,-0.030727,179.025742,-0.283008,-27.035892
360,0.047025,0.194138,-9.877981,-1.440519,-0.050360,-0.052438,178.978180,-0.281436,-27.034534
361,0.044368,0.195485,-9.877912,-1.061535,-0.182636,-0.054523,178.936462,-0.277521,-27.032825
362,0.043454,0.197470,-9.874558,-0.777260,-0.191113,-0.057999,178.905807,-0.271258,-27.031065
363,0.042016,0.186403,-9.872029,0.177524,-0.206754,-0.055479,178.895813,-0.264592,-27.029303
364,0.042619,0.174796,-9.869101,0.938860,-0.118153,-0.037803,178.914413,-0.259148,-27.027851
365,0.043027,0.170272,-9.867998,0.982370,-0.041292,-0.032953,178.946426,-0.256469,-27.026724
366,0.048346,0.165843,-9.866687,0.931847,0.287000,-0.031634,178.978317,-0.260544,-27.025570
367,0.051631,0.165186,-9.869517,0.650786,0.440731,-0.025731,179.004700,-0.272654,-27.024395
368,0.053932,0.165911,-9.871888,0.344303,0.458601,-0.033123,179.021271,-0.287624,-27.023161
369,0.052132,0.170385,-9.876269,-0.067511,0.203187,-0.048786,179.025879,-0.298629,-27.021606
370,0.050696,0.167699,-9.873758,0.051943,0.004527,-0.046955,179.025604,-0.302063,-27.019953
371,0.044118,0.166643,-9.873755,0.106730,-0.406851,-0.053692,179.028244,-0.295330,-27.018389
372,0.041809,0.170198,-9.875131,-0.104652,-0.476912,-0.054482,179.028275,-0.280572,-27.016836
373,0.042280,0.172522,-9.876815,-0.244135,-0.310126,-0.044507,179.022446,-0.267429,-27.015411
374,0.046853,0.174625,-9.871675,-0.316251,0.092458,-0.028852,179.013107,-0.263781,-27.014244
375,0.048943,0.177819,-9.870077,-0.396096,0.253715,-0.018897,179.001236,-0.269536,-27.013353
376,0.054842,0.176877,-9.870932,-0.221816,0.539770,-0.016173,178.990921,-0.282748,-27.012537
377,0.053374,0.169292,-9.869737,0.318615,0.313738,-0.015768,178.992538,-0.296962,-27.011755
378,0.053151,0.169918,-9.862993,0.257948,0.153181,-0.009550,179.002136,-0.304735,-27.011194
379,0.050503,0.173802,-9.866183,-0.054296,-0.068574,-0.019862,179.005539,-0.306136,-27.010679
380,0.047154,0.168821,-9.870210,0.214113,-0.272044,-0.032791,179.008194,-0.300445,-27.009903
381,0.043856,0.175955,-9.873057,-0.235738,-0.405763,-0.022169,179.007828,-0.289134,-27.009182
382,0.041470,0.175096,-9.872978,-0.171689,-0.423491,-0.028387,179.001038,-0.275301,-27.008581
383,0.041825,0.168341,-9.874403,0.295640,-0.255828,-0.029510,179.003098,-0.263964,-27.007812
384,0.042083,0.164407,-9.871738,0.500674,-0.131452,-0.014147,179.016373,-0.257497,-27.007198
385,0.038930,0.168643,-9.873371,0.105534,-0.262339,-0.019406,179.026474,-0.250926,-27.006746
386,0.042760,0.162939,-9.867264,0.349430,0.027083,-0.024139,179.034042,-0.246993,-27.006088
387,0.044451,0.167417,-9.864110,0.013641,0.176082,-0.020231,179.040100,-0.250366,-27.005291
388,0.044638,0.171145,-9.864115,-0.274001,0.150174,-0.024892,179.035751,-0.255790,-27.004448
389,0.040235,0.173242,-9.868538,-0.344813,-0.162311,-0.032007,179.025436,-0.255572,-27.003504
390,0.048449,0.174697,-9.865861,-0.316669,0.325003,-0.023815,179.014404,-0.258267,-27.002529
391,0.043595,0.183996,-9.871031,-0.754431,0.027136,-0.032556,178.996552,-0.264119,-27.001488
392,0.041111,0.186013,-9.875419,-0.689712,-0.182696,-0.032867,178.972473,-0.261507,-27.000439
393,0.042774,0.184026,-9.880928,-0.318688,-0.069186,-0.030642,178.955673,-0.257291,-26.999458
394,0.047397,0.183330,-9.876504,-0.125707,0.245218,-0.034743,178.948257,-0.260204,-26.998314
395,0.044109,0.179767,-9.877761,0.150250,0.020510,-0.022231,178.948654,-0.264615,-26.997288
396,0.048274,0.173328,-9.877671,0.521036,0.199636,-0.018421,178.959839,-0.268271,-26.996542
397,0.053916,0.176843,-9.873238,0.197743,0.479467,-0.019197,178.971817,-0.279576,-26.995707
398,0.050150,0.185872,-9.870193,-0.447604,0.147373,-0.034455,178.967651,-0.290006,-26.994623
399,0.052113,0.189414,-9.868478,-0.622562,0.154485,-0.035195,178.949814,-0.295015,-26.993370
400,0.052950,0.188391,-9.867255,-0.381602,0.151833,-0.052329,178.933060,-0.300092,-26.991816
401,0.053119,0.191319,-9.865211,-0.381883,0.109983,-0.063790,178.920334,-0.304419,-26.989801
402,0.051406,0.189048,-9.868972,-0.136849,-0.029296,-0.071219,178.911667,-0.305721,-26.987522
403,0.054563,0.179665,-9.870943,0.494835,0.138735,-0.064632,178.917618,-0.307502,-26.985228
404,0.053302,0.171693,-9.875527,0.910187,0.058549,-0.065712,178.941025,-0.310749,-26.982998
405,0.048762,0.170329,-9.875245,0.744373,-0.229507,-0.065874,178.968597,-0.307860,-26.980850
406,0.048215,0.165785,-9.874402,0.719334,-0.222960,-0.055210,178.992981,-0.300284,-26.978971
407,0.050496,0.159701,-9.868563,0.838258,-0.010113,-0.038744,179.018936,-0.296373,-26.977476
408,0.047356,0.166302,-9.865019,0.189141,-0.141578,-0.033862,179.036041,-0.293825,-26.976303
409,0.044443,0.174069,-9.861714,-0.437916,-0.295059,-0.036364,179.031891,-0.286529,-26.975258
410,0.044783,0.175588,-9.861832,-0.476924,-0.219212,-0.030419,179.016647,-0.277940,-26.974291
411,0.039722,0.175968,-9.860358,-0.340420,-0.430033,-0.021145,179.003021,-0.267106,-26.973619
412,0.037602,0.177527,-9.864617,-0.311670,-0.439753,-0.021225,178.992142,-0.252599,-26.973169
413,0.038729,0.176021,-9.866522,-0.105952,-0.228228,-0.015139,178.985184,-0.241457,-26.972761
414,0.038402,0.167502,-9.868799,0.468105,-0.136355,-0.017233,178.991226,-0.235372,-26.972330
415,0.041096,0.171051,-9.867914,0.185662,0.106995,-0.006899,179.002121,-0.234876,-26.971931
416,0.047126,0.173920,-9.873355,-0.062880,0.448274,-0.020167,179.004150,-0.244121,-26.971321
417,0.048029,0.178010,-9.873468,-0.323542,0.396018,-0.031148,178.997711,-0.258176,-26.970221
418,0.048189,0.176375,-9.874666,-0.172186,0.273616,-0.038882,178.989441,-0.269314,-26.968859
419,0.048490,0.181495,-9.875636,-0.373268,0.174864,-0.033926,178.980347,-0.276766,-26.967506
420,0.051545,0.176438,-9.874726,-0.000656,0.273247,-0.036382,178.974106,-0.284213,-26.966206
421,0.043620,0.178260,-9.875597,-0.043045,-0.259584,-0.040038,178.973373,-0.284418,-26.964930
422,0.044458,0.177467,-9.874737,0.009391,-0.208258,-0.040470,178.972809,-0.276597,-26.963726
423,0.046878,0.174843,-9.873723,0.166222,-0.000121,-0.029685,178.975723,-0.273104,-26.962620
424,0.050323,0.176196,-9.872820,0.045386,0.234924,-0.024480,178.979248,-0.277001,-26.961643
