seq,ax,ay,az,wroll,wpitch,wyaw,roll,pitch,yaw
1,0.037707,-1.115848,9.987624,-0.886907,-0.682517,1.360696,-6.374818,-0.214974,0.011972
2,-0.008625,-1.039637,9.859776,1.268996,0.296413,1.449980,-6.368629,-0.216171,0.059241
3,0.013796,-1.009323,9.890138,1.108708,-0.024089,1.228252,-6.329159,-0.206731,0.103102
4,0.017455,-1.043546,9.959222,1.335426,0.009293,1.261204,-6.288571,-0.202417,0.144370
5,0.008517,-0.996455,9.897403,3.610275,0.301067,1.439232,-6.206295,-0.192378,0.188548
6,0.006235,-0.920904,9.855853,4.435447,0.242388,1.591913,-6.072359,-0.177976,0.237808
7,0.037763,-0.885166,9.871043,4.185002,-0.049242,1.634090,-5.928845,-0.169155,0.290945
8,-0.004598,-0.886527,9.858589,3.930382,0.299211,2.025584,-5.793762,-0.158780,0.351198
9,-0.031141,-0.864816,9.806240,3.628896,0.429980,2.408228,-5.667962,-0.139304,0.423509
10,-0.023811,-0.846709,9.846458,3.593488,0.407646,2.654657,-5.547772,-0.117160,0.506120
11,-0.020067,-0.808622,9.857403,3.335350,0.111071,2.737416,-5.432460,-0.099954,0.594748
12,-0.051127,-0.750311,9.893456,3.716190,0.242644,3.326570,-5.315099,-0.084617,0.694821
13,-0.005635,-0.715550,9.896972,3.995625,-0.741955,3.562749,-5.186735,-0.082393,0.809921
14,0.043346,-0.701075,9.885777,3.526868,-1.589756,3.433801,-5.061571,-0.110684,0.929544
15,0.052716,-0.736628,9.817705,1.129337,-1.645846,3.619620,-4.984257,-0.154108,1.051380
16,0.107517,-0.900428,9.793414,-3.825099,-2.323879,3.568822,-5.029583,-0.209539,1.176513
17,0.130648,-1.057776,9.627787,-6.119569,-1.402895,3.215201,-5.195818,-0.261283,1.294683
18,0.105206,-1.158877,9.432830,-10.069873,-0.901149,2.679278,-5.466124,-0.290365,1.396087
19,0.033060,-1.293263,9.080329,-15.397883,-0.724162,3.249019,-5.891107,-0.307503,1.497105
20,0.033044,-1.264261,8.796237,-20.284096,-1.801928,3.696892,-6.486465,-0.336856,1.616746
21,0.099120,-1.090981,8.543374,-23.613291,-2.894088,3.616034,-7.218907,-0.400001,1.747059
22,-0.012235,-1.096764,9.060613,-28.289867,-2.259766,3.547903,-8.084910,-0.469203,1.876785
23,-0.067249,-1.031291,9.966965,-23.061888,-2.211345,5.057973,-8.942033,-0.521608,2.029724
24,0.034052,-1.160882,11.351267,-17.992336,-3.290465,6.231214,-9.628156,-0.581892,2.230203
25,0.092751,-1.528110,12.568335,-13.479609,-2.798193,7.856830,-10.155332,-0.641664,2.478887
26,0.076561,-2.147662,12.859294,-16.593809,-1.009724,10.463074,-10.660036,-0.649066,2.790682
27,0.162302,-2.664340,12.105299,-30.161427,0.012993,11.759544,-11.443191,-0.594384,3.157463
28,0.140585,-3.075578,10.685623,-52.910030,1.662422,10.156319,-12.830877,-0.489998,3.508674
29,0.004120,-2.989084,8.869626,-71.017494,3.797142,7.049059,-14.897633,-0.332218,3.765128
30,-0.075388,-2.696110,7.152029,-81.963409,5.492502,3.570701,-17.446669,-0.133456,3.891877
31,-0.044829,-2.461391,6.387448,-77.491562,5.110331,-0.604909,-20.102657,0.050443,3.881719
32,-0.044983,-2.379031,6.230238,-53.052700,4.452085,-3.278843,-22.277397,0.176297,3.763511
33,-0.144987,-2.551090,6.686975,-20.737244,5.442915,-3.095822,-23.507463,0.287426,3.601479
34,-0.357283,-2.797610,7.830881,13.568984,8.753963,0.007663,-23.627869,0.484119,3.460045
35,-0.370645,-3.308485,10.004367,40.642014,4.341014,-0.265954,-22.725351,0.683390,3.370720
36,-0.603171,-3.853410,10.849032,51.000813,3.191226,-3.207968,-21.199427,0.778405,3.270752
37,-0.518553,-3.321198,11.577642,49.194424,0.805437,-7.521434,-19.532421,0.778423,3.080262
38,0.113094,-3.147498,11.861636,42.346226,-4.801574,-13.120623,-18.010695,0.604262,2.776451
39,0.442667,-2.967292,11.071759,30.821613,-11.497523,-19.775446,-16.794363,0.180580,2.335461
40,0.504307,-2.682814,9.452541,15.587994,-10.426859,-24.409363,-16.019796,-0.378659,1.733413
41,0.792370,-2.190089,9.391788,10.131908,-11.986874,-22.191362,-15.583869,-0.950500,1.088454
42,1.084973,-2.464148,9.258556,8.543591,-13.953677,-17.198242,-15.261222,-1.542000,0.570745
44,0.776387,-2.234957,9.004550,4.528111,-8.725824,-12.947826,-15.031054,-2.038054,0.184441
45,0.768705,-2.269355,9.236096,-2.131335,-2.013272,-8.868562,-14.979628,-2.305140,-0.120590
46,0.624917,-2.697051,9.636361,-7.568135,5.757803,-1.943787,-15.133779,-2.291827,-0.310865
47,0.280277,-3.251302,9.724669,-10.864803,14.038369,2.898103,-15.438462,-1.969503,-0.382450
48,-0.418203,-3.362839,9.476433,-10.804189,24.628841,7.838824,-15.799682,-1.300758,-0.383492
49,-0.622632,-3.289248,9.559072,-6.891944,26.867933,16.429979,-16.096931,-0.364481,-0.230097
50,-0.686417,-3.132369,9.820244,0.574522,24.903822,23.324629,-16.201694,0.648330,0.166664
51,-0.718742,-2.553553,9.849518,7.699198,21.125984,23.155272,-16.053900,1.600127,0.698334
52,-0.718519,-2.042355,9.771690,11.851126,16.831541,18.738686,-15.710862,2.399341,1.197568
53,-0.703193,-1.899475,9.791398,17.395145,11.436246,13.262273,-15.205149,2.995311,1.586818
54,-1.062336,-1.993907,9.801008,20.484055,9.307158,5.438561,-14.561967,3.409167,1.800031
55,-1.309289,-2.040076,9.933647,20.889206,8.048470,-3.937081,-13.875183,3.695322,1.753427
56,-1.383591,-2.221591,9.824632,24.415878,6.843619,-11.036476,-13.139821,3.877915,1.452334
57,-1.410007,-2.037704,9.864695,29.378578,5.374215,-14.987490,-12.275278,3.980850,0.983563
58,-1.037351,-2.078690,10.027722,25.050175,3.396124,-19.579401,-11.409543,4.005612,0.388513
59,-0.650323,-2.074737,9.950263,18.136129,4.180802,-25.648956,-10.743042,3.984265,-0.377123
60,-0.361612,-2.081560,9.577863,13.485501,5.095599,-31.720572,-10.283283,3.961111,-1.347658
61,-0.159092,-2.060741,9.706811,10.169890,5.934772,-36.265011,-9.968338,3.942317,-2.498022
62,-0.105364,-1.989696,9.565307,11.201406,8.453312,-39.374496,-9.700841,3.962858,-3.784003
63,-0.309290,-1.800108,9.725891,13.674109,10.855328,-40.541790,-9.382311,4.059427,-5.154049
64,-0.444758,-1.612274,10.118002,20.243666,10.439950,-40.052048,-8.917060,4.196422,-6.540019
65,-0.724622,-1.559147,10.582036,22.688896,10.743619,-35.270977,-8.298356,4.358274,-7.837380
66,-0.855216,-1.418848,10.598138,21.768526,10.106671,-28.354218,-7.643250,4.555819,-8.938891
67,-0.791670,-1.353313,10.761696,15.853565,7.882295,-23.148745,-7.088765,4.743389,-9.831469
68,-0.738335,-1.432978,10.740074,11.267190,5.850758,-18.871269,-6.697636,4.886421,-10.556718
69,-0.711840,-1.430583,10.524127,6.341804,4.238535,-14.684071,-6.453794,4.989327,-11.133660
70,-0.627730,-1.312937,10.186888,1.591670,2.814066,-12.257458,-6.361929,5.055908,-11.594770
71,-0.680348,-1.293101,9.782445,-3.573787,1.970699,-10.579404,-6.429315,5.092626,-11.983427
72,-0.755642,-1.338343,9.607059,-7.992826,-0.208875,-8.200794,-6.650070,5.086000,-12.298994
73,-0.705413,-1.176292,9.102567,-8.768754,-2.593012,-7.873278,-6.952389,5.007768,-12.560513
74,-0.471030,-1.324735,8.917013,-14.048027,-6.671612,-6.478924,-7.351382,4.824753,-12.779477
75,-0.090987,-1.526239,8.903411,-13.236263,-12.463409,-3.369082,-7.815848,4.486835,-12.900516
76,0.231222,-1.516809,9.125296,-6.229072,-17.274570,-1.927936,-8.141518,3.983640,-12.919396
77,0.289270,-1.404640,9.129823,1.281677,-18.179724,-2.012852,-8.222681,3.389378,-12.900633
78,0.250578,-1.479230,9.424767,3.008897,-18.564701,-0.009722,-8.148289,2.778418,-12.847062
79,0.079044,-1.374638,9.523958,5.741475,-17.511398,2.290165,-7.997071,2.188469,-12.724961
80,-0.050541,-1.317621,9.611731,3.700775,-16.040302,4.453922,-7.833293,1.650095,-12.536657
81,-0.048328,-1.279517,9.646266,-1.408525,-15.174999,9.673158,-7.787515,1.166725,-12.232546
82,0.131828,-1.289215,9.563278,-6.303969,-16.029350,17.201061,-7.907398,0.712817,-11.717602
83,0.310110,-1.470027,9.700450,-10.318889,-15.796555,24.365234,-8.177563,0.284656,-10.957281
84,0.432547,-1.554067,9.747574,-11.758119,-14.997717,30.017723,-8.543567,-0.091233,-9.985837
85,0.345853,-1.565529,9.692645,-14.911231,-13.786605,35.722004,-8.992698,-0.398363,-8.829889
86,0.162453,-1.623680,9.801761,-18.461426,-13.268250,41.112892,-9.560631,-0.636829,-7.493385
87,-0.097008,-1.939502,9.969626,-22.061424,-12.695742,46.262440,-10.254780,-0.812380,-5.984459
88,-0.120451,-2.024655,9.752857,-23.533707,-13.888345,48.972980,-11.039656,-0.954376,-4.342774
89,-0.088902,-2.211907,9.632400,-25.580919,-15.286199,50.773026,-11.889057,-1.100446,-2.617112
90,0.018012,-2.377252,9.492533,-24.167929,-15.292019,50.068840,-12.753863,-1.239521,-0.866606
91,0.127648,-2.576341,9.312304,-24.884790,-13.883105,46.406250,-13.609077,-1.346412,0.809710
92,0.372529,-2.560997,9.221636,-24.346310,-12.642432,40.486591,-14.465942,-1.423692,2.321955
93,0.415154,-2.595179,9.344919,-24.064423,-10.130578,34.382790,-15.305616,-1.469637,3.625490
94,0.211519,-2.578586,9.564959,-22.541300,-6.217791,26.901709,-16.109188,-1.455058,4.682713
95,-0.058215,-2.613634,9.567256,-20.397333,-2.386568,20.396280,-16.844248,-1.368650,5.479544
96,-0.292026,-2.532925,9.396172,-16.676014,1.568195,14.376936,-17.474497,-1.210449,6.037520
97,-0.540967,-2.631063,9.406825,-14.333035,6.286483,7.810612,-17.997087,-0.972960,6.350027
98,-0.800140,-2.825948,9.424027,-8.944006,11.610978,0.901660,-18.385473,-0.644019,6.394986
99,-0.798880,-2.868787,9.317625,-5.617240,15.935911,-5.621803,-18.626263,-0.233406,6.174867
100,-0.866812,-3.143507,9.497546,-7.012260,20.895927,-12.323755,-18.836637,0.252071,5.694633
101,-0.867412,-3.411859,9.485869,-6.829617,23.370275,-17.848639,-19.073612,0.786537,4.979380
102,-0.770953,-3.383665,9.323791,-8.143374,22.933008,-20.541286,-19.338606,1.304900,4.121231
103,-0.607209,-3.252044,8.952777,-13.669227,20.201754,-20.848797,-19.725716,1.751733,3.230430
104,-0.454170,-3.463772,8.895555,-19.684362,15.234350,-19.702314,-20.309395,2.074902,2.392609
105,-0.082767,-3.351045,8.703082,-21.185743,7.393124,-19.459154,-21.018068,2.196946,1.648073
106,0.074406,-3.437239,8.831216,-24.236574,2.505800,-18.717367,-21.799286,2.118061,0.994707
107,0.161916,-3.747948,8.981505,-23.282076,-1.566664,-17.340218,-22.610743,1.905167,0.431893
108,0.235825,-3.789783,9.377228,-15.807003,-5.436267,-16.006186,-23.276201,1.580928,-0.034791
109,0.288979,-3.820977,9.567213,-5.111074,-8.601213,-13.597591,-23.633293,1.170057,-0.394704
110,0.174914,-3.789356,9.608330,3.036070,-10.920493,-8.595009,-23.671165,0.723839,-0.603371
111,0.269164,-3.877106,9.583613,6.782700,-14.537989,-2.570614,-23.507349,0.260636,-0.604379
112,0.417610,-3.871251,9.497965,9.036551,-17.661982,2.471298,-23.243410,-0.232545,-0.393095
113,0.348287,-3.835298,9.097399,3.846098,-19.157934,7.283590,-23.031801,-0.732871,-0.002520
114,0.307289,-4.027235,8.582196,-6.614263,-18.820175,11.331635,-23.086710,-1.193504,0.531103
115,0.310420,-4.270913,8.391102,-13.715123,-16.425913,13.044834,-23.439953,-1.572309,1.136862
116,0.326790,-4.239364,8.448443,-13.869786,-12.924751,12.050607,-23.916868,-1.852017,1.716853
117,0.357271,-4.288500,8.512615,-14.131227,-7.997087,9.086064,-24.399178,-2.025911,2.181323
118,0.294230,-4.664191,8.821316,-11.268950,-0.471790,5.713062,-24.832529,-2.051321,2.464634
119,0.186211,-4.432672,9.075727,-3.349344,6.246513,1.364318,-25.078365,-1.914162,2.531170
120,0.138562,-4.204786,9.243276,3.705791,10.468669,-1.698293,-25.068499,-1.664106,2.408164
121,-0.077267,-4.058708,9.219738,9.725913,14.657060,-3.420941,-24.837963,-1.320372,2.154185
122,-0.448945,-3.783865,9.246696,16.209642,18.266291,-3.784274,-24.399223,-0.871509,1.816479
123,-0.427179,-3.454525,9.149440,21.330975,17.218340,-3.563676,-23.769726,-0.381486,1.463444
124,-0.386761,-3.443592,9.222328,21.366270,15.055671,-3.254676,-23.057278,0.067094,1.145666
125,-0.345642,-3.410851,9.231915,19.067156,13.261737,-2.701293,-22.384693,0.464116,0.871929
126,-0.393031,-3.372772,9.332911,14.291968,11.436257,-1.582184,-21.831209,0.818610,0.650870
127,-0.261927,-3.205150,9.278023,14.515323,8.951189,-0.011458,-21.353670,1.124764,0.501043
128,-0.126960,-3.236566,9.293318,7.348361,4.675261,0.477860,-20.990925,1.339428,0.426317
129,-0.011326,-3.243825,9.337971,1.473956,1.584222,0.321276,-20.844498,1.441645,0.401494
130,0.156041,-3.283720,9.265546,-2.748984,0.699991,-1.439996,-20.866539,1.470582,0.370494
131,0.537900,-3.367708,9.158072,-4.351891,-4.547054,-3.271309,-20.986132,1.382641,0.320026
132,0.709062,-3.670981,9.327937,-8.498024,-8.363936,-5.050834,-21.201422,1.131952,0.268011
133,0.620962,-3.511979,9.474668,-4.521913,-9.627440,-7.109285,-21.419739,0.778937,0.188175
134,0.648173,-3.482515,9.351215,-0.464412,-11.394766,-7.138706,-21.503798,0.366029,0.095232
135,0.485186,-3.643416,9.219937,-1.623947,-12.119628,-4.618645,-21.538671,-0.070410,0.056576
136,-0.028603,-3.552150,9.043265,-1.491358,-8.984303,-0.656376,-21.590715,-0.429841,0.104130
137,-0.238606,-3.570842,8.753667,-2.067135,-6.325785,4.583735,-21.651396,-0.642945,0.259020
138,-0.186762,-3.911458,8.648396,-6.439476,-5.439781,8.908579,-21.796465,-0.741888,0.540549
139,-0.173253,-4.037521,8.675446,-8.356917,-4.553927,11.297413,-22.047935,-0.770623,0.915234
140,-0.017980,-4.140742,8.938910,-7.989709,-3.536172,11.559684,-22.325689,-0.751598,1.318959
141,0.219481,-4.264007,9.055090,-6.000779,-2.490922,9.072337,-22.563379,-0.713164,1.675172
142,0.326717,-4.203392,9.194026,-3.146366,-0.869385,5.121088,-22.718727,-0.673795,1.915079
143,0.259540,-4.061953,9.148976,-1.775128,0.094731,2.000395,-22.802052,-0.639784,2.029538
144,0.017665,-3.981544,9.125602,1.551803,4.537595,0.856535,-22.805914,-0.550150,2.043510
145,-0.272225,-3.543524,8.994601,8.178352,9.357596,0.396004,-22.643187,-0.328480,1.973325
147,-0.221393,-3.647693,8.953952,5.987746,7.250631,0.375505,-22.406744,-0.067863,1.879219
148,-0.338115,-3.628303,9.068435,5.889173,6.769208,0.760808,-22.208853,0.155498,1.808038
149,-0.290425,-3.591839,9.144167,5.253912,4.217680,0.530020,-22.023354,0.333245,1.759032
150,0.002637,-3.645086,9.319397,2.703046,-1.443318,-0.996344,-21.890888,0.373232,1.734559
151,0.247258,-3.829867,9.405846,-0.423280,-4.629727,-1.675737,-21.852903,0.262712,1.730985
152,0.274780,-3.601668,9.427263,0.909206,-5.283255,-3.241931,-21.844847,0.078862,1.716432
153,0.473946,-3.561336,9.340165,-0.135809,-7.028670,-3.788507,-21.831953,-0.155197,1.683982
154,0.372657,-3.735320,9.250284,-1.586851,-6.259650,-4.995947,-21.860392,-0.415246,1.630521
155,0.018818,-3.499849,9.019783,-0.389258,-2.781074,-5.571347,-21.892382,-0.620700,1.523250
156,-0.234461,-3.462129,8.980757,-1.945802,0.542167,-4.043715,-21.929779,-0.715106,1.388480
157,-0.373328,-3.572693,9.078632,-3.366533,1.966775,-1.391711,-22.017115,-0.710240,1.288837
158,-0.385238,-3.647859,9.063409,-1.354741,6.031143,1.204942,-22.095221,-0.587889,1.235908
159,-0.352606,-3.552351,9.119088,1.281731,6.460776,2.994931,-22.096352,-0.368649,1.222494
160,-0.169150,-3.693891,9.232404,1.438127,3.752448,3.174788,-22.051191,-0.172261,1.253859
161,-0.064594,-3.637073,9.216093,3.928394,1.328660,3.510592,-21.961912,-0.051991,1.325442
162,0.044435,-3.563314,9.180061,5.317142,1.698688,3.303912,-21.807854,0.037158,1.412060
163,-0.169737,-3.517472,9.079667,5.378055,3.931099,4.675355,-21.629433,0.173526,1.500891
164,-0.215432,-3.319172,9.018365,8.016311,5.593605,7.328433,-21.405548,0.394592,1.628754
165,-0.183219,-3.245207,8.971902,4.728570,2.890718,11.095773,-21.191027,0.637877,1.863498
166,-0.239653,-3.145146,9.040054,3.621640,0.846229,14.645316,-21.047052,0.850678,2.241247
167,-0.269616,-2.975631,9.014171,3.939922,-1.283275,17.792244,-20.912745,1.037511,2.748688
168,-0.153350,-2.760778,9.234130,3.196558,-3.644955,18.602489,-20.782368,1.176641,3.344893
169,0.036742,-2.370918,9.211002,6.222442,-5.208151,14.597359,-20.613497,1.234227,3.914778
170,0.154275,-2.353571,9.223699,7.654316,-5.328777,8.621413,-20.373304,1.205045,4.338879
171,0.357988,-2.388810,9.016839,8.184629,-5.308089,1.909120,-20.104853,1.099289,4.564953
172,0.389956,-2.384832,9.015602,8.491144,-3.552977,-5.191573,-19.827034,0.941672,4.564003
173,0.290364,-2.471408,8.921812,9.329881,-2.586193,-6.623284,-19.532366,0.778870,4.413042
174,0.232439,-3.135035,9.164518,4.173224,-6.237292,-3.642311,-19.308678,0.583266,4.300554
175,0.366770,-3.273127,9.272717,1.694152,-8.239383,-3.199223,-19.211033,0.317906,4.272610
176,0.158819,-3.445654,9.589160,0.795294,-3.727052,0.135631,-19.169453,0.112768,4.290004
177,0.299037,-3.916174,9.945512,-1.296659,-4.533573,3.914879,-19.177666,0.004906,4.398982
178,0.561835,-4.116836,9.940145,-1.819559,-4.348576,0.421905,-19.229681,-0.111103,4.515951
179,0.399695,-4.155776,9.839204,-2.263309,-1.476751,-3.860550,-19.297699,-0.221646,4.493880
180,0.048234,-4.297346,9.810142,-3.582893,1.469561,-4.311399,-19.394629,-0.266855,4.365419
181,0.079311,-4.290539,9.630539,-3.889407,1.724075,-5.090062,-19.518425,-0.268862,4.199969
182,-0.070395,-4.169508,9.149146,-4.922570,2.330750,-7.190574,-19.664268,-0.273820,3.984479
183,-0.277424,-4.205760,8.853255,-6.266766,2.929531,-5.594233,-19.849680,-0.263330,3.754305
184,-0.284613,-4.111178,8.783495,-6.574850,2.432217,-4.184067,-20.062927,-0.234997,3.570633
185,-0.246164,-3.982655,8.699059,-6.633888,1.309682,-2.985283,-20.282543,-0.217691,3.436966
186,-0.158652,-4.033353,8.783913,-12.698124,1.353960,-1.094789,-20.604450,-0.199869,3.357732
187,-0.167156,-3.948955,8.928886,-10.487263,0.745715,0.704964,-20.990814,-0.169538,3.339242
188,-0.125802,-3.939022,9.175077,-7.861522,-1.719008,-0.053529,-21.296679,-0.180802,3.355227
189,0.095317,-3.950657,8.866051,-7.795004,-3.009472,-1.710177,-21.557627,-0.264908,3.356594
190,0.143579,-4.062462,9.058665,-9.453015,-2.784111,-2.078769,-21.844971,-0.377954,3.333591
191,0.095004,-4.068400,9.057919,-7.374789,-1.112124,-3.088468,-22.125017,-0.470402,3.278056
192,0.137598,-4.083735,9.062101,-5.153904,0.201300,-5.742320,-22.332697,-0.540093,3.147563
193,0.101265,-4.017664,9.107321,-0.936877,1.659473,-5.483681,-22.432417,-0.582596,2.962733
194,-0.042923,-4.068365,9.344622,2.655827,2.743303,-3.068363,-22.402182,-0.569058,2.802977
195,-0.100021,-3.931197,9.175165,7.169510,4.627526,-0.976435,-22.237450,-0.480971,2.693955
196,-0.139625,-3.803048,9.134865,8.662536,4.546399,0.035052,-21.973093,-0.345166,2.621879
197,-0.182924,-3.770047,9.146052,9.586469,4.224268,3.444306,-21.668957,-0.187882,2.621387
198,-0.209740,-3.518711,9.061351,12.760050,3.959941,5.110217,-21.296696,-0.008670,2.704092
199,-0.144251,-3.356349,9.168444,12.870904,2.427269,6.645006,-20.869347,0.161156,2.848633
200,-0.077172,-3.343200,9.218554,11.072017,0.904600,7.648735,-20.469526,0.297259,3.051954
201,0.011293,-3.301697,9.253802,9.621413,-0.717237,8.143831,-20.123194,0.391557,3.297751
202,0.034753,-3.142303,9.215416,8.099146,-1.186294,8.159005,-19.825916,0.454608,3.563985
203,0.112166,-3.398993,9.159698,0.064007,-2.319872,7.930841,-19.687632,0.490292,3.836126
204,0.054117,-3.366620,9.120732,-1.899732,-1.494863,6.153321,-19.716137,0.509731,4.078553
205,0.007291,-3.339562,9.056194,-4.056287,-0.746156,4.746587,-19.813725,0.536052,4.262151
206,0.015403,-3.460585,9.035657,-5.954591,-0.487414,3.883440,-19.979198,0.565710,4.404400
207,0.012626,-3.617881,9.118517,-6.900548,-0.477360,2.297602,-20.192421,0.586018,4.506674
208,0.010818,-3.637269,9.164321,-5.706443,-0.744800,0.420066,-20.402027,0.582656,4.556213
209,-0.016291,-3.759951,9.169538,-6.337839,-0.677677,-0.578522,-20.602713,0.559546,4.562029
210,-0.013078,-3.843051,9.075557,-7.488739,-0.956436,-1.173194,-20.833324,0.523758,4.544353
211,-0.058846,-3.825491,9.133009,-7.980758,-0.838014,-1.580315,-21.091431,0.479418,4.512193
212,-0.056739,-3.755436,9.159996,-7.305871,-1.001935,-1.611828,-21.346514,0.431583,4.473696
213,-0.066905,-3.644902,9.234868,-5.646701,-0.627936,-1.295206,-21.562639,0.388580,4.438533
214,-0.026841,-3.652246,9.206329,-5.031817,-0.688027,-0.736704,-21.740763,0.355702,4.415150
215,0.049015,-3.533354,9.259124,-3.411836,-0.414020,-2.122706,-21.881718,0.320937,4.377731
216,0.123830,-3.525704,9.165147,-2.690366,0.568649,-4.015177,-21.983927,0.285136,4.281864
217,0.136519,-3.650122,9.095294,-4.613396,1.653792,-5.881289,-22.106455,0.257580,4.115078
218,0.134008,-3.590649,9.034979,-5.796800,2.613812,-8.439990,-22.281027,0.233271,3.867213
219,0.040380,-3.518329,9.065045,-5.901622,4.267273,-10.011399,-22.477306,0.222247,3.539188
220,-0.056564,-3.535491,9.207929,-7.589105,4.932833,-9.963097,-22.703634,0.235960,3.172935
221,-0.052202,-3.504221,9.224323,-8.193696,3.868726,-10.638223,-22.968245,0.237860,2.799574
222,-0.117918,-3.297221,9.248315,-5.408477,3.769799,-11.089329,-23.196413,0.212992,2.416506
223,-0.165434,-3.438541,9.257181,-6.999661,3.618557,-10.922226,-23.404535,0.181060,2.030853
224,-0.063908,-3.322360,9.115233,-6.773512,2.465701,-12.511958,-23.635122,0.118129,1.632272
225,-0.025232,-3.421142,8.876367,-10.494317,2.765425,-13.306788,-23.923405,0.024430,1.203316
226,-0.143984,-3.490059,8.797492,-15.962269,3.945625,-11.072667,-24.364286,-0.039799,0.786823
227,-0.162180,-3.740715,8.936927,-23.700773,3.814465,-7.417013,-25.025103,-0.051251,0.452916
228,-0.108933,-4.234150,8.876986,-31.412092,2.205465,-2.576092,-25.943493,-0.032692,0.259493
229,-0.201189,-4.417499,9.109273,-29.606014,1.662410,2.971971,-26.960392,0.027512,0.236729
230,-0.285313,-4.437881,9.272882,-19.365505,-0.333244,9.665040,-27.776281,0.143619,0.413738
231,-0.318506,-4.603288,9.293271,-6.560827,-2.184643,15.516850,-28.206882,0.303002,0.804190
232,-0.131223,-4.760735,8.894197,3.377461,-5.372057,18.369400,-28.256266,0.458641,1.361538
233,-0.154319,-4.415522,8.928159,14.167764,-6.721393,21.078461,-27.957777,0.590176,2.036536
234,-0.060323,-4.491952,8.756519,15.611174,-7.989012,23.844288,-27.452618,0.720732,2.813498
235,0.147751,-4.494298,8.632809,12.351877,-8.002875,22.262806,-26.975681,0.835152,3.618794
236,0.190394,-4.541152,8.639597,5.411274,-5.955164,21.121784,-26.667959,0.953948,4.369085
237,0.002310,-4.318548,9.021634,4.812773,-2.576663,18.931894,-26.485489,1.125772,5.029716
238,-0.033213,-4.187316,9.012008,8.991248,-0.742144,15.097942,-26.243883,1.328060,5.562521
239,0.039039,-4.323539,8.989174,12.963596,1.016309,9.128035,-25.868977,1.509283,5.923401
240,-0.055560,-4.210020,9.089621,14.569291,1.227030,1.318853,-25.406208,1.618056,6.064324
241,-0.096254,-3.929651,9.118835,18.367388,4.134252,-5.576262,-24.860176,1.668557,5.962210
242,-0.093540,-3.890871,8.895142,14.095140,4.419388,-12.214766,-24.328716,1.674504,5.633153
243,-0.266291,-4.058564,8.970845,11.290044,7.700572,-14.993566,-23.920084,1.673173,5.136625
244,-0.316574,-3.844144,9.049206,14.402317,6.977104,-19.133028,-23.510017,1.668168,4.517194
245,-0.083320,-3.821852,8.985663,20.609993,1.305418,-24.328478,-22.946369,1.509375,3.796946
246,-0.407970,-3.635882,9.125027,28.961359,2.351586,-21.086018,-22.137445,1.275735,3.074597
247,-0.280907,-3.524469,9.115624,37.732189,0.929885,-16.173164,-21.038458,1.098729,2.476736
248,0.122878,-3.464459,9.239577,35.251629,-3.981777,-15.706475,-19.830416,0.866391,1.996477
250,-0.155710,-3.478811,9.382051,29.891357,-1.027301,-9.922326,-18.749603,0.646616,1.621357
251,-0.465296,-3.337967,9.433104,27.563807,4.520044,-0.883723,-17.794298,0.645640,1.431816
252,-0.324897,-3.357108,9.356646,19.584415,2.053168,2.453465,-17.008768,0.758449,1.423463
253,-0.307439,-3.214751,9.412785,18.217657,0.600608,5.226918,-16.377256,0.837801,1.533392
254,-0.449783,-3.071382,9.400348,18.503702,1.389251,7.906496,-15.762172,0.930408,1.734587
255,-0.218291,-2.766578,9.434084,17.520153,-2.197000,9.140053,-15.157133,0.993263,2.011971
256,-0.127932,-2.512979,9.488032,18.392179,-4.385908,10.513482,-14.552773,0.971305,2.356879
257,0.188527,-2.542282,9.475526,16.231859,-6.184089,5.956386,-13.970802,0.868254,2.666419
258,0.040660,-2.750224,9.535507,11.586621,-3.125518,1.496104,-13.505048,0.746914,2.824067
259,-0.077849,-2.531273,9.328956,12.303771,-1.134648,-0.074865,-13.106412,0.683153,2.863436
260,-0.227643,-2.439475,9.284330,8.414268,1.794100,-1.054126,-12.761371,0.689594,2.842587
261,-0.459554,-2.556304,9.355950,1.278127,5.703767,-0.607263,-12.600547,0.805385,2.788068
262,-0.625797,-2.584728,9.340226,0.651244,2.810854,4.479539,-12.567908,0.957914,2.820033
263,-0.450583,-2.422387,9.376286,-4.896977,1.442833,9.182785,-12.635066,1.076794,3.026816
264,-0.434685,-2.357095,9.484512,-5.137306,-1.736263,10.670123,-12.796071,1.144911,3.350668
265,-0.347941,-2.526437,9.547094,-9.508835,-3.072721,11.391414,-13.032715,1.148946,3.727007
266,-0.175034,-2.682754,9.470462,-11.709646,-4.341584,11.871343,-13.378358,1.117315,4.132745
267,0.040101,-2.605073,9.557331,-10.016940,-4.237202,8.821918,-13.733485,1.059204,4.501572
268,-0.030816,-2.516746,9.567407,-9.710570,-2.543032,6.083630,-14.057462,1.009201,4.769881
269,-0.028058,-2.588241,9.605100,-10.989370,-1.885486,4.783519,-14.399079,0.982241,4.963632
270,0.031597,-2.462258,9.515512,-9.696890,-1.289883,2.654473,-14.741585,0.962260,5.096954
271,0.061973,-2.401827,9.553760,-10.498043,-0.579416,0.908263,-15.077074,0.947475,5.162356
272,-0.125178,-2.467378,9.578955,-13.349128,1.662888,-0.268064,-15.474432,0.967755,5.167899
273,-0.184609,-2.504120,9.579890,-13.145945,2.730049,-1.061441,-15.916726,1.032297,5.126803
274,-0.236314,-2.438791,9.593742,-12.266093,3.550364,-1.896198,-16.341684,1.119189,5.050385
275,-0.230326,-2.515079,9.585594,-12.502389,3.108094,-1.627088,-16.756268,1.208876,4.962492
276,-0.350200,-2.596993,9.616748,-12.547031,3.481509,-1.022499,-17.175379,1.301022,4.888179
277,-0.245117,-2.565445,9.596890,-11.392732,1.779376,-0.567125,-17.575575,1.376775,4.836712
278,-0.234730,-2.634004,9.583502,-11.684679,0.821744,0.765173,-17.960442,1.419042,4.826587
279,-0.159540,-2.594160,9.532836,-10.719189,-0.675002,1.779444,-18.332851,1.434531,4.866123
280,-0.111763,-2.860758,9.540230,-12.092602,-1.720627,2.845464,-18.710911,1.421116,4.951892
281,-0.044279,-2.805842,9.536506,-9.665704,-2.243211,2.742091,-19.070862,1.388734,5.061407
282,-0.080442,-2.798456,9.526313,-8.528230,-2.015525,3.161710,-19.371309,1.354084,5.177698
283,-0.051294,-2.859983,9.518670,-7.712655,-2.056873,3.029634,-19.639183,1.324544,5.297664
284,-0.048282,-3.029793,9.492128,-7.590548,-1.782345,2.421121,-19.891787,1.295043,5.404819
285,-0.127780,-2.816532,9.432709,-4.180116,-0.821913,2.448789,-20.085915,1.282010,5.495956
286,-0.110680,-2.921490,9.404705,-4.542470,-0.934989,2.329454,-20.229387,1.281947,5.580837
287,-0.056424,-3.010135,9.394810,-4.056520,-1.090583,1.202881,-20.371212,1.270713,5.647779
288,-0.082517,-3.014523,9.370849,-3.294499,-0.824004,0.596583,-20.492870,1.251289,5.687027
289,-0.139685,-3.065430,9.421144,-3.350816,-0.512826,0.461145,-20.603096,1.236617,5.711360
290,-0.070659,-3.110805,9.451302,-3.509390,-1.079860,-0.982367,-20.717405,1.208716,5.712599
291,-0.117206,-3.128951,9.463513,-2.805322,-0.649483,-1.446650,-20.823225,1.167420,5.684953
292,-0.175319,-3.172720,9.454488,-2.419571,-0.418673,-1.212272,-20.911018,1.135006,5.649879
293,-0.197598,-3.080105,9.411330,-0.598435,-0.655865,-0.939137,-20.961851,1.105467,5.622785
294,-0.072335,-3.178575,9.433956,-0.467859,-1.736148,-1.188154,-20.979975,1.055554,5.603939
295,-0.091745,-3.069483,9.460102,5.884533,-2.372625,-1.798023,-20.890087,0.973812,5.581918
296,-0.078905,-3.002728,9.400531,8.901672,-2.657336,-0.621909,-20.643782,0.881134,5.573897
297,-0.092576,-2.981949,9.379990,11.568747,-2.641074,0.627278,-20.302149,0.798460,5.604848
298,-0.019334,-3.172258,9.460570,10.168124,-3.165314,0.189645,-19.939259,0.712301,5.650899
299,-0.084503,-2.963665,9.443959,15.061637,-1.848159,0.408648,-19.518330,0.637014,5.688520
300,-0.113659,-2.931961,9.362741,16.558096,-0.632005,1.590556,-18.990852,0.608958,5.733542
301,-0.032297,-3.059797,9.451035,10.782132,-1.687548,0.126503,-18.534775,0.581582,5.773013
302,-0.105609,-2.997915,9.649715,9.167130,-0.435461,-0.519703,-18.202244,0.545918,5.778003
303,-0.153852,-2.867215,9.530563,13.492904,-0.273831,1.384730,-17.824419,0.539111,5.795351
304,-0.182856,-2.850141,9.538553,12.919323,-0.602808,2.685412,-17.383572,0.545744,5.864410
305,-0.105014,-2.959417,9.560103,11.145632,-2.444385,2.719159,-16.981548,0.523880,5.965468
306,-0.161544,-2.961613,9.550165,14.203689,-1.978176,3.459992,-16.558025,0.483050,6.085398
307,-0.034142,-2.917118,9.404758,14.716615,-2.578171,3.349849,-16.074970,0.442047,6.215631
308,0.036278,-3.095823,9.623357,13.224571,-2.274207,1.619842,-15.608562,0.386855,6.317410
309,0.106568,-3.085776,9.738122,14.051182,-2.135974,-1.331340,-15.153839,0.317213,6.341555
310,-0.001271,-3.213069,10.007833,10.422220,-1.547858,-2.366796,-14.746183,0.241898,6.297860
311,0.008225,-2.522635,10.446471,10.861162,-0.747583,-4.392834,-14.391837,0.176487,6.198457
312,-0.291459,-2.476911,11.868157,-4.519399,3.126233,-0.700785,-14.286453,0.193819,6.106381
313,-0.935399,-4.072597,12.746128,-29.199907,12.466223,11.701796,-14.847802,0.491367,6.218421
314,-0.653574,-4.835466,14.315695,-35.044670,7.291413,9.658369,-15.915474,0.903065,6.474290
315,-0.488518,-5.919493,14.408462,-24.004408,6.256730,10.902799,-16.894711,1.216565,6.738658
316,-0.409240,-6.671234,13.642727,0.887097,6.389697,6.472051,-17.274910,1.502774,6.953790
317,-0.292112,-6.940639,12.001346,26.854551,6.391109,1.831034,-16.810486,1.746718,7.024178
318,0.081606,-5.227456,11.612860,65.452812,4.341412,-8.775448,-15.277159,1.886330,6.863946
319,-0.276483,-5.089493,10.281117,74.627350,11.281190,-6.502624,-12.953763,2.076016,6.554352
320,-0.439873,-4.163973,9.964617,83.526741,10.874797,-7.073119,-10.330948,2.392167,6.257075
321,-0.556392,-2.448856,9.459743,97.439812,7.875831,-5.400753,-7.327931,2.668942,6.003938
322,-0.509889,-1.591347,9.365801,90.130898,4.471191,-5.161187,-4.213665,2.856467,5.808974
323,-0.454290,-0.580560,8.384768,78.306976,-2.696574,-5.370792,-1.417269,2.877327,5.632802
324,-0.445755,0.658183,7.495378,69.239784,-4.160862,-5.604548,1.031564,2.762297,5.451601
325,-0.361331,2.359983,6.865003,56.560143,-1.741493,-4.898907,3.118840,2.670191,5.273316
326,-0.811883,1.927043,7.219707,4.791942,6.596894,-0.052812,4.137335,2.756123,5.195733
327,-1.045146,2.510030,7.178566,-9.368419,8.552078,1.563975,4.063105,3.006268,5.238042
328,-0.304326,1.937278,6.756522,-28.596699,0.142128,3.623855,3.435467,3.145236,5.333684
329,-0.241356,1.982066,6.376050,-27.721432,-0.172732,6.221991,2.505766,3.136279,5.497184
330,-0.603577,0.705480,5.336255,-37.380432,4.918779,3.797056,1.430215,3.209403,5.666999
331,0.105584,-0.199283,4.566279,-37.436352,-6.854013,-0.778677,0.186288,3.176746,5.717267
332,0.154736,-0.929969,3.679688,-35.430412,-8.322509,-4.564860,-1.032760,2.923599,5.628893
333,-0.198619,-0.767336,3.061348,-21.913092,0.713582,-8.415618,-1.999067,2.791463,5.415565
334,-0.323077,-1.299234,2.489028,-25.647366,2.515022,-9.823133,-2.806875,2.832978,5.109731
335,-0.009926,-1.096099,2.742712,-10.314754,-8.404536,-8.283107,-3.420587,2.718582,4.813496
336,-0.087550,-0.712337,2.796563,3.092834,-8.647388,-6.622326,-3.551076,2.420045,4.581984
337,0.051394,-0.932590,3.230755,0.738846,-12.756488,-0.727404,-3.491109,2.056678,4.481261
338,-0.005440,-1.159752,4.168485,5.997034,-13.580335,-0.874217,-3.378664,1.616938,4.480995
339,-0.097179,-0.690001,5.797809,12.021642,-10.420374,0.732999,-3.077865,1.217436,4.501015
340,0.381312,-0.168268,8.408246,10.619837,-11.163209,-3.160616,-2.700875,0.856160,4.478491
341,-0.032599,0.350344,10.624844,0.882397,-5.318639,-6.327037,-2.511090,0.574455,4.333070
342,-0.412964,0.585244,12.684373,-8.921807,0.824108,-10.142379,-2.647718,0.487119,4.062339
343,-0.233435,0.592149,14.643247,-24.381796,1.509453,-13.117670,-3.206286,0.506012,3.673308
344,-0.494078,0.254520,15.907111,-30.893551,4.283089,-14.217102,-4.131843,0.572883,3.212501
345,-1.038930,0.037342,15.862666,-29.382277,3.675290,-8.410838,-5.140640,0.674465,2.826054
347,-0.921695,-1.423029,15.957852,-28.748619,2.450730,-0.237168,-6.111364,0.761551,2.672621
348,-0.161475,-1.726397,16.017179,-25.340900,-3.384799,-3.516769,-7.013627,0.738361,2.612229
349,-0.718963,-1.936633,15.849817,-25.852211,0.630363,-0.591115,-7.867544,0.684158,2.549876
350,-0.099236,-2.735904,15.622885,-35.875515,-3.578541,-0.406364,-8.896385,0.632979,2.540866
351,0.039041,-4.043590,15.235726,-48.516987,-3.926580,-3.977888,-10.303266,0.497408,2.489412
352,0.193005,-3.855731,14.591225,-39.673027,-2.076878,-10.819445,-11.774512,0.352316,2.266569
353,-0.206334,-4.564129,13.335178,-35.723846,1.148558,-8.771448,-13.032714,0.267986,1.950990
354,0.000199,-4.977230,12.718940,-23.332916,3.065774,-5.540921,-14.018134,0.280465,1.702970
355,-0.208968,-4.597208,12.019924,6.161580,5.160800,-4.529718,-14.305461,0.372373,1.506887
356,-0.450743,-3.783705,11.371483,42.312222,9.634510,0.048397,-13.498725,0.594197,1.375386
357,-0.382318,-3.167500,10.804444,55.847431,8.161283,4.375088,-11.862949,0.900230,1.382480
358,0.037741,-2.046206,10.477346,69.210594,6.073854,3.510859,-9.777800,1.158368,1.467401
359,-0.244689,-0.528293,9.326319,83.294395,6.844234,3.423091,-7.235292,1.388099,1.550409
360,-0.398849,0.409464,8.733043,72.028336,9.640059,5.081169,-4.645046,1.675716,1.663012
361,-0.213448,1.168390,8.032469,53.002094,6.920712,4.383853,-2.557830,1.961313,1.802329
362,-0.563543,1.971496,7.459449,33.473515,11.810861,7.784713,-1.109884,2.279864,1.995150
363,-0.806678,2.651863,7.272095,8.841796,11.360975,10.732592,-0.391660,2.670651,2.297965
364,-0.781682,1.943083,7.724640,-26.706486,9.275238,11.837679,-0.671000,3.018747,2.670700
365,-0.018459,1.536108,7.230675,-35.753056,-1.143640,12.976106,-1.689898,3.163680,3.080994
366,-0.116823,0.957447,6.622788,-43.064121,0.135210,13.362043,-2.979455,3.164914,3.519999
367,-0.363808,0.358837,5.862707,-39.830765,1.465652,12.138391,-4.337206,3.218847,3.943129
368,0.119464,-0.971522,4.926826,-39.423191,-7.356926,10.323045,-5.636611,3.153615,4.325259
369,0.350600,-1.479636,3.559201,-30.214314,-12.665060,6.015982,-6.781275,2.851442,4.631576
370,-0.323677,-1.693920,2.536211,-26.730515,4.367194,0.301544,-7.724558,2.727657,4.752921
371,-0.207276,-1.558829,1.853915,-26.498110,-0.437537,-3.095126,-8.614183,2.786388,4.698545
372,0.276475,-1.649049,1.454159,-29.926306,-18.007557,-4.747693,-9.558201,2.462379,4.617599
373,-0.378288,-1.499504,1.884656,-16.424349,2.908450,-0.834888,-10.332524,2.198353,4.568258
374,-0.395516,-1.614409,2.586658,-7.275133,-1.783524,2.947746,-10.726329,2.223260,4.600412
375,0.283054,-1.344780,4.536983,5.272708,-17.867914,-1.234411,-10.756511,1.906647,4.689472
376,-0.414386,-0.903479,6.944072,8.853106,-7.153366,2.797954,-10.518173,1.501531,4.791776
377,-0.485481,-0.625591,10.095802,2.664182,-2.233097,-3.968381,-10.325862,1.344154,4.800595
378,-0.484053,-1.396323,12.518880,-25.393423,-0.580163,-4.671038,-10.707801,1.271672,4.667568
379,-0.568508,-0.998397,14.700284,-20.109056,0.059790,-6.342333,-11.470060,1.227616,4.489263
380,-0.712038,-0.607541,15.308439,-9.348872,0.170611,-2.808384,-11.964196,1.200572,4.339121
381,-0.342983,-1.263672,15.877362,-12.825106,-1.402325,-5.020700,-12.336289,1.153034,4.215864
382,0.041721,-2.344446,15.494748,-13.078879,-5.522911,-2.375381,-12.769807,1.013602,4.120572
383,-0.007578,-1.682962,14.951015,11.994620,-6.074718,-2.619117,-12.788426,0.806574,4.082037
384,0.362275,-2.145209,14.721896,-2.424541,-4.689783,-4.986730,-12.629966,0.603745,3.997465
385,0.135484,-2.965667,15.102651,-25.172844,-0.782478,-5.913945,-13.091438,0.474274,3.840844
386,-0.037175,-3.887296,15.716832,-39.264793,5.238689,-5.499375,-14.167124,0.501433,3.638821
387,-0.233457,-4.708931,16.213947,-41.023979,7.208523,-3.764194,-15.507241,0.662294,3.436913
388,-0.255912,-5.431269,15.893603,-26.296915,9.692764,-4.399749,-16.631971,0.895144,3.228416
389,-0.470936,-5.256564,14.751390,-0.249603,10.920845,-3.841197,-17.078571,1.184434,2.997757
390,-0.928144,-5.455819,13.330910,16.607256,11.889466,2.305053,-16.809174,1.541068,2.863025
391,-0.610043,-4.850554,11.411088,37.357109,8.384914,5.541978,-15.909043,1.902384,2.893740
392,-0.528516,-3.609791,10.426614,46.744572,5.425188,7.805801,-14.502090,2.183007,3.048834
393,-0.547093,-3.601175,10.613999,30.882109,5.440905,14.357877,-13.195863,2.447396,3.364770
394,-0.501171,-3.490507,10.484914,31.059484,3.162982,17.552654,-12.141807,2.704877,3.852207
395,-0.636086,-2.505825,10.044554,52.415363,2.081674,19.495226,-10.722004,2.913169,4.440836
396,-0.297948,-1.419794,10.046349,66.430984,-4.142512,18.321327,-8.709468,2.984942,5.068877
397,-0.188339,-0.958610,9.246524,71.146950,-3.447834,17.755831,-6.385963,2.937840,5.683052
398,-0.315079,0.751746,7.571037,84.744476,-0.992173,12.135099,-3.763371,2.907894,6.186035
399,-0.736049,1.638017,7.001719,62.700264,5.580416,10.229232,-1.288356,2.999099,6.554815
400,-0.229665,1.688531,7.033805,20.911436,2.558039,7.628902,0.120573,3.137954,6.850040
401,-0.403706,1.789188,6.974017,-6.554113,4.595622,5.025521,0.371587,3.256911,7.061665
402,-0.778003,1.908079,6.636049,-22.106226,7.407570,2.566667,-0.098594,3.457037,7.188622
403,-0.153223,1.454004,6.700622,-37.844246,-0.750205,3.907906,-1.091117,3.569326,7.295435
404,0.050232,0.889208,5.713655,-38.793438,-5.855762,4.500008,-2.359582,3.463512,7.438349
405,-0.183350,-0.023870,5.186155,-36.581581,-4.490123,0.782341,-3.610013,3.295852,7.534935
406,-0.102297,-0.718892,4.066285,-27.166199,-5.483630,-0.346472,-4.671298,3.130932,7.554283
407,0.202897,-0.987695,2.903456,-21.529016,-12.296510,-3.885968,-5.485138,2.829604,7.509995
408,-0.301039,-1.509437,2.053218,-27.065029,0.081785,-5.085361,-6.301134,2.611949,7.381482
409,-0.062047,-1.364321,2.148918,-12.658497,-7.406133,-5.594929,-6.970491,2.470233,7.219431
410,0.047081,-1.066020,2.084769,-0.742745,-11.380920,-8.257753,-7.201420,2.131186,7.028281
411,-0.224541,-1.606078,2.848942,-5.333499,-3.600838,-6.422989,-7.310040,1.852790,6.816610
412,-0.174383,-1.007600,4.880247,14.158556,-8.798015,-9.108081,-7.170042,1.615092,6.585914
413,-0.685860,-0.438531,7.258599,13.551202,-2.571863,-8.251352,-6.715108,1.392323,6.321255
414,0.076152,-0.702123,9.676340,1.219491,-10.552741,-17.454134,-6.477860,1.125811,5.920508
415,-0.760754,-0.510809,11.980259,-5.141807,-1.647401,-13.650549,-6.551668,0.864469,5.428852
416,-0.231434,0.155995,14.086135,-11.703629,-5.366484,-14.550990,-6.838861,0.693331,4.975797
417,-0.530256,-0.645755,14.882357,-23.053955,0.703702,-11.774611,-7.422682,0.561553,4.550074
418,0.193637,-1.307540,15.217209,-28.799040,-4.815371,-10.496536,-8.290169,0.442506,4.192132
419,-0.473899,-1.242433,15.319302,-28.070967,1.908589,-4.086843,-9.239401,0.357319,3.959035
420,0.056408,-1.645920,14.676742,-29.155693,-1.288012,-3.054770,-10.193932,0.347079,3.840507
421,0.020876,-2.628411,14.217827,-32.303337,-0.069830,-4.637626,-11.218832,0.300910,3.718543
422,-0.147138,-3.222927,14.069876,-31.690788,-0.652352,-1.979901,-12.285840,0.266770,3.613101
423,-0.031086,-2.983301,14.237474,-24.821171,-0.920702,-6.054904,-13.228132,0.211429,3.488292
424,-0.303161,-3.515674,14.394650,-25.391310,-0.007553,-5.943329,-14.065559,0.149548,3.297519
425,0.062054,-3.988263,14.975489,-25.242462,-0.834481,-6.858543,-14.909828,0.082586,3.094521
426,-0.258335,-3.868025,14.937341,-18.035540,2.186153,-8.547085,-15.631341,0.036740,2.840845
427,-0.323432,-3.682317,14.571690,-0.778445,4.784719,-7.206361,-15.945229,0.077361,2.556695
428,-0.379725,-4.035697,13.165832,12.673045,6.319367,-3.383456,-15.747595,0.207544,2.336488
429,-0.184745,-3.931653,12.032548,15.262587,5.854953,-1.417518,-15.282754,0.381911,2.205205
430,-0.216592,-3.405100,10.757634,20.350250,3.999956,-0.225747,-14.689797,0.533579,2.136308
431,-0.422488,-3.047865,9.985225,15.704945,4.137072,7.290725,-14.088046,0.694292,2.216787
432,0.050495,-3.168020,10.288233,-0.262665,1.112853,8.945346,-13.827513,0.844818,2.458169
433,-0.360983,-3.329953,10.882693,1.954559,4.124046,13.341754,-13.793861,1.018571,2.797963
434,-0.175432,-2.584430,10.449549,29.614786,1.647039,13.112661,-13.259740,1.215164,3.204228
435,-0.072089,-2.013715,10.514682,41.023369,1.624094,15.658182,-12.072292,1.372673,3.660670
436,-0.013116,-1.057242,9.766286,60.387791,2.178017,13.896932,-10.370468,1.530484,4.131631
437,-0.314269,-0.067521,8.422865,67.702019,5.027640,9.695777,-8.225836,1.711572,4.500443
438,-0.118183,1.028762,7.552514,52.576500,3.217641,4.682423,-6.214965,1.877044,4.720636
439,-0.501441,1.386203,7.015119,20.877043,7.769500,5.954353,-4.985595,2.076090,4.879404
440,-0.601623,1.859171,6.835662,-3.181215,8.753325,5.488072,-4.684218,2.366994,5.045465
441,-0.278466,1.306771,7.418694,-34.887974,3.296738,4.727043,-5.312123,2.582171,5.197180
442,0.170906,0.935600,7.299740,-45.519787,-3.376810,6.519433,-6.643789,2.600710,5.383155
443,0.147474,0.961746,6.953171,-41.166878,-3.977067,6.874844,-8.077868,2.507656,5.619802
444,0.178141,0.115903,6.380421,-37.357529,-4.825787,3.787349,-9.377942,2.389501,5.817770
445,0.406420,-1.162505,5.871553,-32.098412,-9.211170,-0.727159,-10.531829,2.168141,5.908343
446,0.007829,-1.225034,3.963783,-17.806709,-5.296810,-0.100053,-11.362450,1.928416,5.940223
447,-0.307598,-1.398191,3.236052,-11.499988,-0.093356,-1.586799,-11.851175,1.834738,5.930742
448,0.132891,-2.159485,2.750916,-15.188342,-9.120562,-8.466620,-12.299998,1.649614,5.799087
450,0.435638,-1.858243,3.151557,3.197287,-17.422569,-8.637465,-12.504310,1.156459,5.615351
451,-0.138420,-1.840346,3.473445,13.890295,-6.669794,-4.032268,-12.221335,0.719256,5.494266
452,0.133024,-1.671284,5.723537,24.508635,-12.598617,-6.336645,-11.582381,0.369535,5.390819
453,-0.013753,-1.451755,7.725161,23.412710,-11.481733,-5.256044,-10.784013,-0.061595,5.279145
454,-0.607150,-0.709214,10.171152,20.202318,-8.230431,0.890508,-10.057075,-0.397807,5.266970
455,-0.384346,-1.091808,12.487684,1.996140,-8.795030,0.294229,-9.687624,-0.673679,5.334928
456,-0.227590,-0.388767,14.027705,-3.280537,-9.623885,1.557564,-9.710229,-0.970995,5.417459
457,0.437845,-0.487165,14.962092,-14.304672,-8.325740,-0.807472,-10.004529,-1.263565,5.481115
458,0.262351,-0.571314,15.550048,-16.411539,-4.320509,-0.854736,-10.516759,-1.475788,5.491653
459,1.080245,-1.401701,14.986485,-18.280968,-4.641670,-2.859029,-11.094074,-1.634076,5.459025
460,0.686033,-1.267306,14.369517,-11.974324,0.398019,-4.149738,-11.595385,-1.726321,5.358358
461,0.749594,-1.954997,13.856042,-16.934971,3.630851,-7.822511,-12.070994,-1.701388,5.149330
462,0.316187,-2.473410,12.820176,-13.024426,4.505543,-5.755701,-12.563096,-1.617105,4.899286
463,0.468370,-3.290681,12.408990,-18.101223,3.395537,-3.702077,-13.076864,-1.523677,4.716374
464,0.082180,-3.139440,13.371554,-17.714043,4.487838,-3.876684,-13.669830,-1.425222,4.562994
465,-0.213517,-3.594021,14.193414,-20.654142,6.582268,-2.105606,-14.305963,-1.270274,4.421662
466,-0.197787,-4.574995,14.674863,-23.460276,8.025508,-2.201953,-15.038556,-1.053030,4.290606
467,-0.676795,-4.872773,14.692052,-7.305579,10.895006,0.368701,-15.549522,-0.756931,4.177976
468,-0.501350,-4.450977,13.938581,10.532214,9.737318,-0.011942,-15.494923,-0.423946,4.092154
469,-0.338851,-4.611831,12.132681,16.176723,7.306868,-0.168288,-15.049380,-0.150595,4.014869
470,0.002821,-4.598472,10.504234,19.648733,3.242467,-1.448493,-14.452220,0.012611,3.944236
471,0.035280,-3.483700,9.325036,22.660892,0.395650,-4.518051,-13.747116,0.047199,3.833249
472,0.156331,-3.252896,8.974947,2.563994,0.305095,-7.001853,-13.326786,0.013518,3.644044
473,0.125869,-3.413761,9.410868,-12.495038,1.905614,-4.592538,-13.492328,0.004194,3.447597
474,-0.219824,-3.781088,10.282106,-3.543502,6.817670,-1.753838,-13.759814,0.120332,3.310588
475,-0.454280,-3.756550,10.930316,21.616280,9.501199,0.184238,-13.459060,0.378577,3.221347
476,-0.455374,-3.344232,11.352901,50.769611,8.201461,7.843165,-12.252120,0.696155,3.286545
477,-0.357972,-2.439481,11.539095,78.488876,5.834165,12.881699,-10.094132,0.993015,3.580683
478,0.012998,-1.098764,10.509151,100.920059,2.053611,11.168190,-7.098544,1.182994,3.958004
479,-0.080389,-0.115060,9.050578,95.918922,3.073111,11.583042,-3.812708,1.303054,4.328207
480,-0.606897,1.418566,7.816519,78.842812,7.051346,10.268687,-0.893776,1.486659,4.684636
481,-0.146964,1.866876,6.659042,47.552559,1.206870,8.643092,1.220173,1.623475,4.999085
482,-0.202147,2.403759,6.053555,19.206030,2.605093,7.002021,2.339966,1.679321,5.262319
483,-0.650904,2.390800,6.566374,-16.495857,7.554648,2.301549,2.390123,1.842513,5.424074
484,-0.157666,2.483943,6.825751,-37.126808,-1.560443,4.390208,1.500321,1.938972,5.538544
485,0.704714,2.080909,7.051651,-49.487747,-11.171259,10.276303,0.064510,1.723526,5.779414
486,0.147512,1.892600,7.516036,-49.417656,-3.030913,8.627225,-1.574749,1.490643,6.096797
487,0.569828,0.562139,6.345516,-44.318665,-7.866069,2.920075,-3.131589,1.317352,6.297519
488,0.350940,-0.236823,5.160677,-28.295036,-7.668359,3.291516,-4.339251,1.066330,6.417042
489,0.177753,-0.215803,4.113212,-8.858487,-4.851448,1.079174,-4.956902,0.864097,6.506287
490,0.083110,-0.973066,3.061757,-9.004489,-5.726998,-1.112839,-5.254427,0.688424,6.521251
491,0.052232,-1.965310,2.187458,-19.970516,-7.078625,-1.744844,-5.737640,0.471465,6.494262
492,-0.417974,-1.617259,2.336455,1.721702,2.584281,2.017354,-6.041690,0.397421,6.506589
493,-0.288200,-1.614224,2.755139,7.006285,-1.507114,-0.625589,-5.896048,0.417608,6.527897
494,-0.451588,-1.684632,4.950784,16.968779,-3.917755,-3.614854,-5.496863,0.320594,6.466599
495,-0.666976,-1.344003,6.543461,19.402746,-1.349760,-8.816286,-4.891618,0.214373,6.268223
496,-1.359898,-0.524637,8.709469,13.683432,3.505456,-7.166661,-4.341311,0.228543,5.999709
497,-0.715454,-0.033987,11.382035,-2.678139,-7.009164,-4.290829,-4.158619,0.156097,5.813401
498,-0.464064,0.268998,13.209694,-14.604784,-9.494272,2.795324,-4.446509,-0.120225,5.809405
499,-0.328650,-0.019584,14.040796,-28.223104,-9.770802,9.529640,-5.161243,-0.423123,6.041183
500,0.380576,-0.003536,15.113445,-34.750435,-11.691256,12.946956,-6.214728,-0.742021,6.449702
501,1.315521,-0.484527,15.022355,-33.060513,-14.832742,9.769367,-7.351762,-1.136300,6.877901
502,1.351138,-0.969830,14.451265,-32.096268,-7.572659,3.794667,-8.444030,-1.474898,7.152826
503,1.189356,-1.579899,14.156931,-30.355616,-3.070627,-1.583172,-9.486586,-1.643819,7.217360
504,1.109674,-1.815159,13.085491,-21.419214,1.588665,-9.373612,-10.344367,-1.699135,7.041908
505,0.580992,-2.410460,12.167855,-22.161572,6.616316,-11.064741,-11.060299,-1.627378,6.681826
506,0.496839,-2.669214,11.685766,-21.583216,9.278643,-10.112925,-11.778795,-1.437479,6.283522
507,-0.227589,-2.932647,11.304137,-20.739992,13.203875,-7.362401,-12.476079,-1.132342,5.920134
508,-0.122422,-3.009301,10.798306,-20.196428,11.631014,-3.853271,-13.153928,-0.770291,5.646281
509,-0.107522,-3.136603,10.556906,-20.127539,9.618094,-0.205622,-13.824476,-0.441883,5.497870
510,-0.254326,-3.203453,10.433414,-16.956326,7.634887,2.961716,-14.442465,-0.152031,5.472152
511,-0.247432,-3.065821,10.119911,-12.901207,4.452538,5.529308,-14.940203,0.078567,5.557965
512,-0.154621,-3.135984,9.898348,-10.466478,1.150326,7.677688,-15.329226,0.226031,5.746044
513,-0.287327,-3.041536,9.667127,-6.474170,0.358159,7.753200,-15.610489,0.318742,5.987154
514,-0.237882,-2.960817,9.573361,-5.462705,-1.368229,8.329463,-15.807863,0.375034,6.249759
515,-0.166344,-2.734861,9.518701,-3.180956,-2.121879,8.027902,-15.950087,0.393642,6.527880
516,-0.127141,-2.545543,9.404735,-0.666319,-1.912362,5.895094,-16.012562,0.392847,6.769472
517,-0.014202,-2.500524,9.409451,-2.445670,-2.103584,4.312963,-16.063219,0.375489,6.951479
518,0.190825,-2.455789,9.455362,-2.997869,-3.041509,2.789669,-16.153109,0.325977,7.089001
519,0.172234,-2.432667,9.535226,-2.288692,-1.440388,-0.269405,-16.240917,0.265974,7.150168
520,0.138288,-2.370070,9.593269,-2.372844,0.235175,-2.104439,-16.318766,0.235620,7.117824
521,0.099189,-2.510251,9.744238,-4.873534,1.818715,-2.860257,-16.439920,0.245141,7.028789
522,-0.024181,-2.447559,9.827651,-3.476245,2.888883,-4.167562,-16.579716,0.287074,6.894200
523,-0.121171,-2.263471,9.822449,-0.735313,3.609135,-4.652773,-16.650864,0.348846,6.722373
524,-0.093673,-2.183857,9.713467,0.451364,3.228904,-3.540812,-16.656698,0.418934,6.558892
525,-0.132228,-2.227150,9.668523,0.798357,3.399272,-3.891098,-16.637064,0.489304,6.408574
526,-0.209140,-1.964514,9.639884,4.633101,3.361890,-3.588341,-16.547932,0.561703,6.256924
527,-0.184329,-1.814816,9.643118,13.012845,3.024703,-1.571788,-16.255013,0.639574,6.144379
528,-0.063349,-1.881536,9.691259,10.773450,1.080625,-1.217748,-15.859333,0.692578,6.080815
529,-0.045103,-1.848828,9.844311,11.345545,0.527436,-0.329444,-15.491075,0.711430,6.048787
530,-0.046750,-1.766925,9.793840,13.175593,0.201038,1.276918,-15.082244,0.727333,6.060828
531,0.062203,-1.876686,9.743052,10.503974,-1.174996,1.354066,-14.687001,0.722955,6.107379
532,0.127918,-2.179631,9.610832,5.884202,-1.489808,-0.145280,-14.413494,0.685049,6.138076
533,0.007845,-2.263372,9.461716,4.750156,1.317396,-1.400142,-14.236548,0.675875,6.113857
534,-0.113554,-2.561260,9.349346,-2.326426,3.370282,-2.967714,-14.197266,0.733705,6.024065
535,0.016120,-2.817701,9.370493,-5.289102,2.240333,-6.075915,-14.326435,0.787149,5.854896
536,-0.033010,-2.967925,9.375254,-7.942269,2.243584,-8.812939,-14.550510,0.797636,5.595901
537,-0.179762,-2.996185,9.379887,-8.867404,3.235228,-8.793076,-14.834963,0.811531,5.288863
538,-0.227855,-3.161558,9.564974,-10.576853,3.217131,-8.408962,-15.163445,0.841190,4.984090
539,-0.146301,-3.051368,9.673203,-7.925776,2.998133,-8.417132,-15.476260,0.866957,4.686222
540,-0.314717,-2.957647,9.689329,-4.657373,4.855891,-6.198627,-15.690197,0.927662,4.416387
541,-0.335934,-2.949145,9.749055,-1.865970,5.561352,-3.316234,-15.802426,1.051771,4.216663
542,-0.243708,-2.738203,9.687454,1.621108,5.040794,-2.697274,-15.809386,1.194512,4.072107
543,-0.327504,-2.607857,9.548017,4.351963,5.970017,-0.935838,-15.712243,1.354715,3.963995
544,-0.324465,-2.456869,9.410227,6.651659,4.556981,0.457292,-15.530255,1.521568,3.909074
545,-0.197752,-2.446599,9.536016,7.019356,1.662099,-1.062146,-15.303446,1.618841,3.871829
546,-0.261281,-2.519305,9.429594,7.558140,2.139452,-2.407732,-15.062546,1.664831,3.799448
547,-0.288177,-2.570130,9.475377,7.046225,1.854989,-2.745999,-14.822086,1.706983,3.699248
548,-0.133667,-2.557714,9.497552,7.813318,-1.271728,-3.981696,-14.577711,1.687925,3.588280
549,-0.275475,-2.643290,9.412755,6.255848,0.170976,-3.905918,-14.346763,1.637328,3.465576
550,-0.308458,-2.718767,9.157108,5.174529,0.058693,-2.984586,-14.159456,1.612745,3.353264
551,-0.145799,-2.690939,9.163971,1.116438,-0.924127,-3.391568,-14.057371,1.572856,3.253677
553,-0.265415,-2.602591,9.244500,-1.742185,0.393057,-2.025015,-14.070116,1.542302,3.168246
554,-0.270099,-2.586651,9.493577,-4.047770,0.744710,0.076704,-14.167600,1.552753,3.132124
555,-0.102807,-2.695783,9.794870,-5.972452,0.133008,1.045088,-14.334211,1.571514,3.146654
556,-0.256257,-2.708041,9.978652,-8.896483,1.501747,2.163541,-14.580777,1.611237,3.191646
557,-0.369849,-2.653979,10.099980,-11.596294,1.500503,5.493250,-14.919127,1.692112,3.302380
558,-0.120271,-3.257084,9.810684,-19.526344,0.001300,2.712940,-15.434069,1.752015,3.427886
559,-0.207388,-3.685538,9.317730,-25.634514,1.249779,-0.739254,-16.185938,1.781196,3.453749
560,-0.479903,-3.985296,8.896788,-30.158241,3.410295,-2.026237,-17.117857,1.842606,3.387302
561,-0.402760,-4.258755,8.535872,-33.143459,2.203274,-3.309556,-18.176497,1.904902,3.274237
562,-0.234055,-4.727027,8.142005,-38.294647,-0.270407,-7.078383,-19.372761,1.879722,3.099741
563,-0.567523,-4.686204,8.184663,-39.070042,0.462016,-5.162684,-20.668188,1.813053,2.906585
564,-0.605824,-4.854959,8.324626,-38.559990,-1.206014,-2.806247,-21.965555,1.753074,2.787460
565,-0.391780,-4.986331,8.494627,-37.456631,-5.045665,-2.249336,-23.233425,1.624259,2.749641
566,-0.356063,-5.167515,8.719953,-35.080425,-6.652322,-0.682550,-24.441290,1.426017,2.783434
567,-0.411627,-5.200837,8.868807,-28.790365,-6.860384,1.559634,-25.503143,1.227865,2.891678
568,-0.141237,-5.218404,8.744696,-23.897133,-8.557516,0.582383,-26.378340,1.012211,3.036176
569,-0.024452,-5.217998,8.665595,-20.818645,-8.509704,-0.408421,-27.121559,0.759477,3.166602
570,0.075871,-5.243846,8.402249,-18.861853,-7.671124,-1.370042,-27.781809,0.506529,3.264544
571,0.067472,-5.307817,8.228240,-19.099400,-5.160148,-2.526120,-28.414188,0.287351,3.307959
572,0.012332,-5.145119,8.465455,-18.441904,-0.896688,-4.434351,-29.040089,0.143179,3.254829
573,-0.001573,-4.807621,8.655050,-14.270669,2.128357,-6.136264,-29.585640,0.075002,3.091284
574,-0.161349,-4.325705,8.706700,-7.815097,4.410272,-5.215195,-29.954054,0.075829,2.873006
575,-0.362524,-4.034812,8.782867,-2.620829,6.520760,-2.997129,-30.128466,0.165129,2.663383
576,-0.153915,-3.756624,8.902168,3.274200,4.954659,-3.492304,-30.118357,0.276344,2.473917
577,-0.158039,-3.728949,8.724167,9.706348,3.801593,-1.504311,-29.902800,0.361145,2.328861
578,-0.145600,-3.757426,8.695057,16.036751,2.307674,1.160165,-29.474152,0.446862,2.273487
579,0.178120,-3.797661,8.697168,24.223190,0.099427,-0.257694,-28.803238,0.489346,2.267130
580,0.356031,-3.718452,8.923502,34.934082,-0.048612,-3.103422,-27.817749,0.463520,2.217565
581,0.181112,-3.625529,8.993739,47.930889,2.274349,-4.893382,-26.437880,0.435628,2.082129
582,0.090795,-3.011657,8.883421,61.576241,3.829327,-7.342681,-24.614882,0.439410,1.854155
583,-0.330853,-2.846701,9.096508,62.099960,6.223060,-4.254798,-22.556303,0.515437,1.610011
584,-0.558484,-3.182765,9.109550,50.043625,5.526329,-0.788097,-20.689514,0.666759,1.459269
585,0.088307,-3.120732,9.579893,39.308346,-0.487664,-3.552351,-19.201910,0.721351,1.362433
586,-0.639871,-2.609237,10.366830,30.848381,3.086858,1.110749,-18.033426,0.749262,1.310717
587,-1.143557,-3.077036,10.758729,15.122817,4.601025,8.933245,-17.265585,0.922352,1.430964
588,-0.426609,-2.849030,10.308958,12.742072,-1.046458,8.295920,-16.796791,1.063628,1.687797
589,-0.136528,-1.772016,10.199522,23.243155,-1.388449,7.398337,-16.192215,1.099061,1.950331
590,-0.851595,-1.523489,10.095713,27.786327,4.344828,14.320517,-15.334913,1.244577,2.285412
591,-0.021521,-1.387648,9.519272,29.610855,-1.126670,12.781017,-14.368443,1.412393,2.707934
592,0.731687,-0.821551,9.510408,35.888004,-6.195720,5.293054,-13.269261,1.365771,3.030072
593,0.347272,-0.690175,10.033820,36.057255,-2.631587,1.671123,-12.067160,1.247062,3.176096
594,0.326070,-0.771660,10.208474,34.279099,-2.802288,-2.824401,-10.895059,1.154120,3.175037
595,0.415100,-0.587401,9.880689,32.754974,-4.127128,-9.147319,-9.781281,1.004342,2.999555
596,0.463068,-0.762828,9.910769,28.146856,-6.431847,-14.154816,-8.771872,0.767572,2.644835
597,0.311685,-0.926147,9.903100,26.121084,-6.722333,-18.088354,-7.872895,0.472429,2.145161
598,0.293733,-0.836589,9.674335,24.845545,-6.312815,-21.793537,-7.027114,0.170525,1.514392
599,0.073643,-1.016962,9.966836,17.170656,-4.214527,-23.903522,-6.327485,-0.092565,0.778446
600,-0.124565,-0.850543,10.076486,17.922125,-2.500070,-24.804611,-5.740137,-0.289703,-0.016982
601,-0.339323,-0.724962,9.980232,20.422848,1.350978,-22.632837,-5.096593,-0.383418,-0.802288
602,-0.416210,-0.605900,9.923611,19.942711,2.435046,-18.732054,-4.419503,-0.377491,-1.494716
603,-0.347452,-0.640572,10.004711,20.659777,1.967794,-14.721023,-3.739374,-0.343799,-2.056108
604,-0.368486,-0.513457,9.897871,25.635124,1.816600,-10.476872,-2.965445,-0.305167,-2.479005
605,-0.297956,-0.598665,9.784148,26.004543,0.742868,-6.247338,-2.103435,-0.274488,-2.759322
606,-0.160726,-0.406254,9.729072,26.216709,-1.762786,-4.282231,-1.232257,-0.296312,-2.934172
607,-0.011057,-0.329876,9.690156,23.715225,-3.650733,-1.787934,-0.399481,-0.387834,-3.033883
608,0.045796,-0.194376,9.790526,18.948191,-4.184576,-0.705489,0.311895,-0.518314,-3.075208
609,0.169739,-0.158563,9.712317,12.842316,-5.047877,-0.377991,0.841932,-0.671953,-3.094742
610,0.206244,-0.217013,9.877603,3.902802,-5.425101,-0.099382,1.121160,-0.846334,-3.105585
611,0.213482,-0.219553,9.928109,1.509778,-4.805609,0.451771,1.211332,-1.016932,-3.103063
612,0.264884,-0.117365,9.972064,0.653527,-4.127341,-0.251377,1.247391,-1.165847,-3.102892
613,0.241319,-0.146793,9.955437,-0.592762,-2.687625,-0.298049,1.248644,-1.279205,-3.114516
614,0.176731,-0.219751,9.984441,-2.727885,-0.360557,-0.828039,1.193750,-1.329597,-3.134357
615,0.189696,-0.117797,9.965880,-2.848188,0.122674,-2.464298,1.102086,-1.332463,-3.189296
616,0.028794,-0.350744,9.946393,-7.048131,1.682526,-4.420294,0.939770,-1.300327,-3.303511
617,0.063455,-0.342405,9.979418,-12.617746,1.181653,-7.378511,0.616360,-1.249936,-3.499529
618,0.090838,-0.417695,9.735711,-21.727245,0.636173,-10.716930,0.050464,-1.217894,-3.801032
619,0.141064,-0.384945,9.873557,-33.794140,-0.545406,-13.176899,-0.866358,-1.219279,-4.199370
620,0.051123,-0.549154,9.853510,-36.643387,0.120670,-11.627363,-2.031309,-1.236992,-4.612583
621,0.191977,-0.571633,9.679702,-37.321442,-0.636009,-9.356910,-3.256308,-1.261916,-4.961512
622,0.226463,-0.805667,9.619177,-42.456715,-0.150823,-6.183062,-4.580000,-1.292916,-5.219081
623,0.351263,-1.148081,9.997003,-43.329845,-0.731299,-3.265018,-6.006010,-1.322474,-5.374442
624,0.260868,-1.392778,9.714681,-34.196865,0.042328,-1.149810,-7.296227,-1.342714,-5.446221
625,0.353567,-1.334461,9.627898,-34.749939,-0.655516,-1.021565,-8.444394,-1.357931,-5.480589
626,0.366391,-1.391866,10.078341,-28.852835,-0.440947,3.429207,-9.505334,-1.369741,-5.438148
627,0.385051,-1.640804,10.297490,0.718559,0.731656,11.755183,-9.980036,-1.322496,-5.189422
628,0.227582,-1.562634,9.968130,37.815422,2.440972,18.963396,-9.348648,-1.185232,-4.693295
629,0.197215,-1.399637,9.909358,56.783955,2.764531,23.573536,-7.785234,-0.994886,-4.004956
630,0.241294,-1.476854,10.066268,62.618645,2.184309,24.605003,-5.808237,-0.818454,-3.217441
631,0.206928,-1.288435,9.856977,61.984169,1.349814,19.442007,-3.741973,-0.698880,-2.490915
632,0.034848,-0.868576,9.601026,44.776608,0.676786,10.476404,-1.969108,-0.641069,-1.994597
633,0.070513,-0.551203,9.789398,18.722494,-0.317708,3.129731,-0.913544,-0.629921,-1.768040
634,0.160508,-0.455434,10.028076,2.671385,-1.405235,-1.383992,-0.557349,-0.658395,-1.738514
635,0.110227,-0.269231,9.912855,4.258404,-0.870421,-4.208089,-0.440767,-0.697215,-1.831326
636,0.112291,-0.209856,9.825631,5.940644,-0.866412,-4.824542,-0.268925,-0.727107,-1.981707
637,0.106453,-0.137564,9.878378,5.338290,-1.171269,-5.035566,-0.078811,-0.761556,-2.145955
638,0.093974,-0.068380,9.937639,5.047339,-1.338393,-4.935572,0.096555,-0.803368,-2.312156
639,0.101740,0.005235,9.908085,6.666298,-1.650467,-4.844677,0.294142,-0.852628,-2.475342
640,0.139416,0.125856,9.912223,7.516985,-2.194478,-4.354685,0.532906,-0.915582,-2.629143
641,0.175561,0.214996,9.929059,6.805267,-2.354974,-3.921457,0.773925,-0.989810,-2.767946
642,0.218505,0.270991,9.930430,6.199939,-2.112133,-3.554194,0.992932,-1.062331,-2.893686
643,0.229475,0.276195,9.895190,5.564138,-1.325734,-3.133822,1.191140,-1.117493,-3.006244
644,0.248224,0.307334,9.920160,4.554822,-0.754205,-2.729520,1.361733,-1.149972,-3.104743
645,0.214910,0.313747,9.912913,4.165590,0.360491,-2.473742,1.508817,-1.154362,-3.191622
646,0.196879,0.328744,9.909901,4.254510,0.954451,-2.384278,1.650747,-1.130222,-3.271982
647,0.180603,0.355527,9.906651,3.713317,1.084214,-2.337776,1.785048,-1.093898,-3.349649
648,0.158307,0.334242,9.936543,2.238389,1.086137,-2.405765,1.885702,-1.055215,-3.427525
649,0.128315,0.267799,9.953866,1.928187,1.048191,-2.446973,1.956585,-1.016960,-3.507183
650,0.164658,0.325230,9.911613,3.809290,-0.099913,-2.469466,2.053641,-0.998300,-3.588534
651,0.178121,0.336856,9.957019,2.935513,-0.841635,-2.585029,2.167547,-1.010869,-3.673299
652,0.179830,0.317687,9.957094,3.417338,-1.037552,-2.900229,2.275088,-1.038629,-3.765873
653,0.183417,0.382082,9.918569,5.663184,-1.093857,-3.136614,2.428307,-1.069993,-3.867877
654,0.189782,0.464090,9.894996,6.038600,-1.032601,-3.391884,2.625425,-1.100588,-3.978165
656,0.183202,0.463613,9.911628,4.119642,-0.606067,-3.445189,2.796961,-1.122479,-4.093304
657,0.170347,0.483725,9.893393,4.115800,-0.122973,-3.118910,2.936374,-1.129159,-4.203200
658,0.166889,0.507924,9.884838,3.389132,0.294488,-2.590675,3.063316,-1.121321,-4.298103
659,0.193849,0.523064,9.896017,2.534350,0.081267,-2.055068,3.163537,-1.110862,-4.375095
660,0.191983,0.595651,9.896055,2.725135,0.256309,-1.573167,3.252356,-1.101862,-4.435166
661,0.176111,0.618665,9.901979,2.216581,0.690347,-1.283255,3.335607,-1.083371,-4.481799
662,0.156485,0.549156,9.935405,0.936064,1.249511,-1.178019,3.388875,-1.048690,-4.520863
663,0.141561,0.591205,9.897319,2.553485,1.507105,-1.019578,3.447638,-1.000647,-4.554695
664,0.125739,0.627084,9.912373,1.945823,1.784727,-0.881988,3.523105,-0.943954,-4.582993
665,0.114530,0.575869,9.925543,0.542031,1.928075,-0.798216,3.564952,-0.880461,-4.607125
666,0.107159,0.550963,9.912091,0.558037,1.861819,-0.821007,3.583627,-0.815739,-4.630132
667,0.110193,0.614170,9.871511,1.028729,1.470148,-0.889025,3.610416,-0.758528,-4.655094
