seq,ax,ay,az,wroll,wpitch,wyaw,roll,pitch,yaw,q0,q1,q2,q3
60,0.177568,-3.473113,8.886163,-21.281111,2.276920,1.835644,-21.347799,-1.066235,0.416701,0.982655,-0.185176,-0.009817,0.001850
61,-0.197714,-7.405849,6.645282,-119.527687,5.998749,8.197714,-23.696009,-0.874815,0.518332,0.978664,-0.205274,-0.008400,0.002859
62,-0.229108,-7.263363,6.466880,-141.141006,9.407248,9.842940,-28.038361,-0.513070,0.676322,0.970194,-0.242214,-0.005774,0.004642
63,-0.397380,-7.135208,6.429547,-113.999130,13.101064,12.604575,-32.284290,-0.001370,0.811674,0.960551,-0.278014,-0.001981,0.006801
64,-0.381881,-7.215138,6.592813,-89.252846,9.485060,11.254769,-35.666809,0.531988,0.933349,0.951898,-0.306273,0.001925,0.009175
65,-0.341556,-7.149079,6.744862,-63.759930,5.656996,8.771334,-38.213524,0.933517,1.048421,0.944815,-0.327375,0.004703,0.011311
66,-0.301635,-6.967135,6.775047,-44.629700,1.956009,6.565666,-40.017071,1.192824,1.166582,0.939506,-0.342223,0.006297,0.013127
67,-0.138866,-6.921373,6.935269,-31.258499,-4.287728,1.128988,-41.279041,1.246604,1.289009,0.935659,-0.352559,0.006215,0.014360
68,-0.106398,-6.865548,7.042494,-16.938719,-5.206533,-1.146605,-42.080158,1.128109,1.393317,0.933172,-0.359089,0.004822,0.014882
69,-0.115927,-6.804668,7.070737,-11.193780,-3.842304,-2.506136,-42.548008,0.975560,1.449583,0.931709,-0.362887,0.003343,0.014876
70,-0.114095,-6.789394,7.035910,-9.345423,-2.434090,-3.811288,-42.890442,0.827321,1.443131,0.930636,-0.365658,0.002115,0.014361
71,-0.063521,-6.780109,6.976314,-9.036588,-1.865819,-5.291544,-43.197636,0.671442,1.381149,0.929675,-0.368138,0.001011,0.013363
72,-0.140673,-6.762995,6.853287,-10.619393,1.441465,-4.204483,-43.526432,0.557669,1.270918,0.928636,-0.370795,0.000407,0.012104
73,-0.137296,-6.764040,6.827322,-10.535005,2.890583,-3.783426,-43.880402,0.517904,1.124871,0.927504,-0.373658,0.000524,0.010794
74,-0.135810,-6.778946,6.821840,-10.982704,2.809164,-3.027374,-44.240372,0.507249,0.977269,0.926339,-0.376568,0.000889,0.009567
75,-0.078114,-6.888373,6.792776,-14.431565,1.093592,-3.586673,-44.665001,0.476461,0.853037,0.924949,-0.379996,0.001017,0.008466
76,-0.087309,-7.120493,6.793391,-18.104849,1.086165,-3.004693,-45.208065,0.424530,0.749569,0.923148,-0.384372,0.000906,0.007463
77,-0.025871,-7.192531,6.707792,-17.612364,-0.409132,-2.962363,-45.803867,0.361455,0.671852,0.921145,-0.389163,0.000624,0.006628
78,-0.002088,-7.147319,6.599184,-15.686110,-1.074626,-2.156749,-46.359047,0.282802,0.630441,0.919254,-0.393619,0.000103,0.006029
79,0.018969,-7.211631,6.581400,-14.467463,-1.089833,-1.345679,-46.861649,0.215566,0.616550,0.917522,-0.397644,-0.000413,0.005685
80,-0.011409,-7.266104,6.597123,-10.815091,-0.356330,0.417113,-47.282993,0.187800,0.623673,0.916054,-0.401014,-0.000681,0.005643
81,-0.000022,-7.275829,6.589881,-6.502041,-0.701996,0.952865,-47.571503,0.192660,0.652157,0.915040,-0.403319,-0.000757,0.005886
82,0.010545,-7.277894,6.548023,-4.744659,-1.690638,0.780291,-47.758785,0.187135,0.701094,0.914377,-0.404814,-0.000983,0.006256
83,0.042477,-7.354466,6.527934,-4.876116,-2.876737,-0.358836,-47.918964,0.141232,0.762225,0.913809,-0.406089,-0.001575,0.006579
84,0.068089,-7.345348,6.547296,-1.713177,-3.631582,-1.503141,-48.028702,0.045561,0.822007,0.913419,-0.406958,-0.002556,0.006714
85,0.115457,-7.264237,6.566885,2.050474,-4.323167,-3.494700,-48.023106,-0.105047,0.864831,0.913440,-0.406903,-0.003908,0.006521
86,0.110459,-7.177137,6.587559,4.591700,-3.500362,-3.359020,-47.912491,-0.277208,0.885161,0.913833,-0.406008,-0.005347,0.006077
87,0.125363,-7.204955,6.681042,5.902181,-2.713472,-3.377678,-47.737606,-0.429957,0.886491,0.914452,-0.404602,-0.006561,0.005556
88,0.093941,-7.192647,6.814804,10.270432,-0.940955,-2.339734,-47.467903,-0.541402,0.867198,0.915402,-0.402442,-0.007371,0.005026
89,0.061541,-7.136376,6.811795,11.139956,0.234842,-1.343603,-47.110744,-0.594497,0.834130,0.916653,-0.399585,-0.007664,0.004599
90,0.001737,-7.121741,6.804651,9.214331,1.553245,0.690032,-46.771214,-0.582111,0.804874,0.917834,-0.396870,-0.007450,0.004431
91,-0.020898,-7.123452,6.804847,7.017697,1.822761,1.836555,-46.500576,-0.512856,0.792821,0.918770,-0.394707,-0.006843,0.004590
92,-0.007579,-7.103325,6.783712,5.351919,0.887593,2.416854,-46.294552,-0.430359,0.808968,0.919479,-0.393059,-0.006228,0.005015
93,0.016467,-7.036331,6.677107,3.058442,-0.479268,3.147217,-46.154797,-0.358673,0.868206,0.919955,-0.391939,-0.005849,0.005743
94,-0.012660,-7.015559,6.681591,3.083709,-0.456285,5.470630,-46.053036,-0.265959,0.979022,0.920296,-0.391124,-0.005478,0.006955
95,-0.065157,-7.033026,6.741292,4.634028,-0.337564,8.384041,-45.924961,-0.109068,1.148962,0.920718,-0.390100,-0.004788,0.008861
96,-0.011527,-6.981461,6.745880,6.419789,-3.357593,7.620918,-45.740868,0.039362,1.378992,0.921318,-0.388624,-0.004360,0.011221
98,-0.066862,-6.915308,6.923427,9.928110,-3.139748,8.409098,-45.468018,0.154491,1.643332,0.922206,-0.386431,-0.004299,0.013747
99,-0.075507,-6.867891,7.055953,11.254900,-3.586075,7.395559,-45.114002,0.262772,1.908322,0.923353,-0.383583,-0.004271,0.016258
100,-0.012576,-6.766241,7.175793,13.244665,-5.261939,4.433581,-44.704510,0.297482,2.152094,0.924679,-0.380277,-0.004741,0.018355
101,0.091942,-6.664495,7.227943,13.254753,-7.236973,0.082207,-44.262043,0.201533,2.351857,0.926115,-0.376679,-0.006103,0.019673
102,0.088668,-6.546865,7.300032,13.827619,-5.695259,-1.927557,-43.810501,0.025152,2.479709,0.927583,-0.372990,-0.007869,0.020158
103,0.134925,-6.520895,7.343227,12.781281,-5.388075,-4.650588,-43.367130,-0.184318,2.527661,0.929024,-0.369357,-0.009644,0.019901
104,0.168964,-6.553934,7.436588,11.589254,-4.727975,-6.846918,-42.960865,-0.438446,2.503296,0.930344,-0.366016,-0.011558,0.018926
105,0.171519,-6.675504,7.436677,5.860293,-2.671548,-6.905062,-42.669262,-0.684742,2.419032,0.931293,-0.363609,-0.013244,0.017488
106,0.211534,-6.689938,7.358990,4.550058,-1.522639,-8.357265,-42.493839,-0.908395,2.279092,0.931871,-0.362158,-0.014594,0.015663
107,0.201936,-6.785129,7.370003,3.353922,0.754973,-7.392907,-42.358894,-1.094970,2.093954,0.932318,-0.361051,-0.015510,0.013586
108,0.288287,-6.752081,7.197247,1.202845,0.255184,-7.686221,-42.278954,-1.251746,1.896746,0.932587,-0.360400,-0.016156,0.011498
109,0.283540,-6.570907,6.985979,0.826641,2.485080,-6.088847,-42.240528,-1.372369,1.696093,0.932721,-0.360096,-0.016503,0.009491
110,0.228229,-6.432590,6.995378,2.177454,6.607791,-2.964726,-42.185406,-1.361514,1.482447,0.932911,-0.359679,-0.015739,0.007793
111,0.134589,-6.378058,7.129599,2.200618,10.571504,0.454384,-42.107571,-1.177283,1.259225,0.933179,-0.359098,-0.013535,0.006564
112,0.145724,-6.291423,7.359155,8.759300,11.798799,-0.674401,-41.920410,-0.902727,1.006889,0.933789,-0.357630,-0.010499,0.005387
113,0.022870,-6.230588,7.458850,18.184406,15.001677,-0.663542,-41.467258,-0.583932,0.693243,0.935218,-0.353984,-0.006907,0.003854
114,-0.202551,-6.396074,7.629393,24.285692,19.249180,1.562778,-40.757141,-0.143865,0.329337,0.937409,-0.348216,-0.002178,0.002257
115,-0.252699,-6.422960,7.565403,26.402893,18.696524,0.138670,-39.913193,0.356633,-0.058399,0.939947,-0.341305,0.003099,0.000583
116,-0.264302,-6.412555,7.621442,28.773577,17.210596,-2.230145,-38.997692,0.796525,-0.465433,0.942627,-0.333750,0.007908,-0.001509
117,-0.376335,-6.376747,7.419774,22.957539,17.306494,0.570052,-38.142200,1.229022,-0.845502,0.945060,-0.326639,0.012547,-0.003469
118,-0.464837,-6.263115,7.333552,13.565179,16.724840,3.622444,-37.541195,1.719741,-1.138651,0.946709,-0.321587,0.017405,-0.004578
119,-0.320334,-6.014310,7.335473,7.593507,10.909845,2.838280,-37.195263,2.151046,-1.333113,0.947620,-0.318635,0.021498,-0.005038
120,-0.359986,-5.812952,7.600353,10.934720,9.420539,4.792005,-36.890648,2.498095,-1.435867,0.948413,-0.316040,0.024640,-0.004987
121,-0.490056,-5.662026,7.670907,12.190678,8.248788,9.211694,-36.504772,2.873763,-1.424618,0.949412,-0.312785,0.027705,-0.003949
122,-0.413249,-5.626794,7.774283,12.894806,2.068244,6.761693,-36.080856,3.170046,-1.311679,0.950510,-0.309248,0.029842,-0.002314
123,-0.410640,-5.568239,7.836855,12.519801,-1.102338,2.911523,-35.650536,3.277589,-1.190058,0.951645,-0.305691,0.030402,-0.001128
124,-0.488372,-5.587947,7.911648,9.364121,0.349004,0.939621,-35.282402,3.304567,-1.130254,0.952617,-0.302644,0.030464,-0.000658
125,-0.355364,-5.600892,7.826005,4.262799,-4.787902,-5.687426,-35.056541,3.198462,-1.152368,0.953233,-0.300776,0.029639,-0.001181
126,-0.181383,-5.671422,7.697617,-1.446044,-5.978157,-11.881618,-35.016853,2.883390,-1.289129,0.953396,-0.300462,0.027376,-0.003156
127,-0.335774,-5.525656,7.610244,-1.817686,0.421127,-12.161964,-35.084412,2.577364,-1.564155,0.953258,-0.301011,0.025555,-0.006233
128,-0.315147,-5.525036,7.643153,-1.583302,2.125478,-11.092219,-35.156082,2.389124,-1.905871,0.953072,-0.301567,0.024893,-0.009556
129,-0.199713,-5.569890,7.603296,-1.111928,0.584843,-11.174252,-35.214287,2.212210,-2.235461,0.952908,-0.302016,0.024296,-0.012751
130,-0.356943,-5.633184,7.467436,-2.369518,4.769962,-7.099031,-35.283596,2.109336,-2.535904,0.952699,-0.302552,0.024242,-0.015507
131,-0.584281,-5.692611,7.411755,-2.300396,9.881949,-0.675507,-35.370911,2.233610,-2.782968,0.952421,-0.303193,0.025940,-0.017212
132,-0.447142,-6.022321,7.504304,-10.766994,5.560359,-0.178623,-35.595421,2.434908,-2.944042,0.951779,-0.304968,0.028074,-0.017962
133,-0.481974,-6.344397,7.577086,-13.634637,4.263922,1.498550,-36.005535,2.580430,-3.022228,0.950653,-0.308312,0.029555,-0.018117
134,-0.603690,-6.316981,7.552641,-2.150817,4.183451,4.833479,-36.268539,2.756286,-3.020053,0.949922,-0.310445,0.031048,-0.017553
135,-0.591153,-6.443930,7.470500,-3.381784,2.169631,5.381288,-36.357071,2.942371,-2.945298,0.949668,-0.311146,0.032400,-0.016402
136,-0.369541,-6.532000,7.536062,-2.360605,-3.416336,0.303204,-36.448227,2.981868,-2.856621,0.949427,-0.311916,0.032499,-0.015533
137,-0.504983,-6.290578,7.428566,2.369952,-0.520745,0.681105,-36.445419,2.938829,-2.804421,0.949448,-0.311919,0.032000,-0.015219
138,-0.612012,-6.082705,7.491210,6.556970,1.167073,0.770089,-36.295959,2.961828,-2.791332,0.949852,-0.310678,0.032135,-0.015090
139,-0.654431,-6.217938,7.643192,3.828289,0.912918,-0.062876,-36.123444,2.996748,-2.802324,0.950312,-0.309235,0.032431,-0.015135
140,-0.594596,-6.087568,7.869192,7.996526,-1.647179,-1.836383,-35.927311,2.968224,-2.820750,0.950842,-0.307610,0.032218,-0.015420
141,-0.710804,-5.762971,8.007073,14.669888,-0.353431,0.977996,-35.549133,2.932811,-2.812841,0.951858,-0.304483,0.031852,-0.015555
142,-0.640785,-5.708988,8.165233,14.996520,-2.979357,1.115460,-35.051609,2.907678,-2.752280,0.953183,-0.300370,0.031417,-0.015256
143,-0.525872,-5.658120,8.185636,13.556028,-4.807345,-0.673844,-34.571743,2.805386,-2.671977,0.954458,-0.296425,0.030293,-0.014984
144,-0.449942,-5.429741,8.233958,17.388567,-4.371608,-1.246930,-34.053177,2.660977,-2.612017,0.955818,-0.292154,0.028868,-0.014990
145,-0.473399,-4.969522,8.288856,27.364212,-2.414152,0.478980,-33.304955,2.559727,-2.559942,0.957726,-0.285945,0.027794,-0.014997
146,-0.302522,-4.984674,8.453705,27.325649,-5.535328,-0.977465,-32.390671,2.443904,-2.495214,0.960000,-0.278337,0.026546,-0.014958
147,-0.273722,-4.753188,8.560092,32.956547,-5.069380,-1.354366,-31.383551,2.273345,-2.434575,0.962438,-0.269942,0.024838,-0.015084
148,-0.236272,-4.528767,8.748955,38.390297,-6.405825,0.247872,-30.191425,2.099560,-2.352558,0.965225,-0.259971,0.023031,-0.015046
149,-0.127757,-4.382867,8.813485,39.361893,-9.560757,-0.670750,-28.891373,1.864751,-2.227465,0.968152,-0.249076,0.020603,-0.014762
150,0.173522,-4.689658,8.855095,27.620573,-15.208889,-5.629563,-27.772167,1.451657,-2.123661,0.970587,-0.239704,0.016742,-0.014949
151,-0.030609,-4.501774,8.903974,27.617706,-8.457495,-4.267572,-26.850962,1.025487,-2.088295,0.972510,-0.231974,0.012934,-0.015647
152,-0.150726,-4.573453,9.070183,22.134733,-4.067782,-1.436071,-26.021744,0.796139,-2.080922,0.974172,-0.224970,0.010856,-0.016128
153,-0.130563,-4.808303,9.099896,11.831949,-2.668756,-1.616584,-25.455616,0.672957,-2.078216,0.975274,-0.220176,0.009723,-0.016395
154,-0.228286,-4.789852,9.228223,8.486600,0.631164,-0.919834,-25.117252,0.624166,-2.101890,0.975917,-0.217301,0.009304,-0.016718
155,-0.459247,-4.640389,9.467822,9.973026,5.947644,0.767060,-24.810179,0.722469,-2.150547,0.976487,-0.214664,0.010188,-0.016973
156,-0.444782,-4.585478,9.492178,8.128531,4.688426,-0.877377,-24.509563,0.882791,-2.226299,0.977032,-0.212067,0.011650,-0.017349
157,-0.378860,-4.504760,9.420161,6.358702,2.349011,-4.832032,-24.270252,0.950288,-2.361396,0.977449,-0.209999,0.012437,-0.018402
158,-0.326503,-4.078107,9.274549,14.328698,1.255004,-10.005697,-23.929461,0.904078,-2.611636,0.978028,-0.207073,0.012440,-0.020658
159,-0.413107,-3.936414,8.965245,14.197963,4.778394,-13.252125,-23.460003,0.840421,-3.006984,0.978792,-0.203036,0.012512,-0.024199
160,-0.529660,-3.860772,8.780754,11.965584,9.645164,-12.478893,-23.031427,0.891886,-3.496002,0.979432,-0.199305,0.013712,-0.028336
161,-0.495275,-3.817228,8.755369,9.053230,9.052213,-9.511091,-22.689013,1.036533,-3.954985,0.979900,-0.196277,0.015651,-0.032053
162,-0.231234,-3.503917,8.818716,14.658168,1.950007,-8.375667,-22.300303,1.091872,-4.300669,0.980457,-0.192885,0.016597,-0.034970
163,-0.153889,-3.326119,9.004917,22.557331,0.069503,-4.154026,-21.683767,1.045129,-4.506735,0.981417,-0.187594,0.016346,-0.036901
164,-0.075857,-3.187592,9.198813,27.089447,-2.743819,-0.785872,-20.857403,0.974055,-4.567308,0.982726,-0.180528,0.015566,-0.037650
165,0.053076,-3.257240,9.323746,22.801083,-5.741404,0.044748,-20.025318,0.837504,-4.529423,0.984024,-0.173441,0.014062,-0.037644
166,0.297742,-2.947520,9.020543,28.267151,-10.571712,-5.077055,-19.174067,0.553375,-4.517036,0.985288,-0.166227,0.011321,-0.038054
167,0.232905,-3.102381,8.936340,19.661837,-6.029500,-5.829453,-18.375948,0.232723,-4.599810,0.986386,-0.159465,0.008411,-0.039291
168,0.050588,-3.182705,9.067459,10.287099,-0.579941,-5.652206,-17.877289,0.068328,-4.747434,0.987011,-0.155219,0.007024,-0.040822
169,0.027023,-3.199821,9.064059,-0.789882,-0.452546,-4.784236,-17.719166,-0.001379,-4.907865,0.987163,-0.153873,0.006582,-0.042307
170,-0.366051,-3.080193,9.003868,-3.541255,9.058120,0.039067,-17.791470,0.110978,-5.026872,0.987027,-0.154446,0.007737,-0.043177
171,-0.721517,-3.309982,9.391395,-11.618716,14.594594,8.127692,-18.044191,0.527909,-5.018607,0.986702,-0.156464,0.011411,-0.042518
172,-0.508212,-3.379985,9.500989,-14.495813,4.233986,10.690566,-18.477076,0.924073,-4.819185,0.986178,-0.160063,0.014702,-0.040203
173,-0.342987,-3.339183,9.542572,-12.833956,-4.185095,10.321251,-18.927193,1.036989,-4.488070,0.985652,-0.163939,0.015357,-0.037135
174,-0.204027,-3.311061,9.691680,-8.848324,-9.456532,9.932326,-19.282007,0.932513,-4.094894,0.985263,-0.167075,0.014001,-0.033859
175,0.114815,-3.290772,9.826596,-3.882623,-15.575387,7.412573,-19.488699,0.634773,-3.683861,0.985079,-0.168987,0.010897,-0.030741
176,0.793175,-3.103230,9.962826,5.854463,-27.936203,-2.510937,-19.454336,-0.021839,-3.365322,0.985198,-0.168889,0.004773,-0.028974
177,-0.082313,-2.877225,9.619249,12.081574,-2.408123,-3.084661,-19.156387,-0.530182,-3.286574,0.985621,-0.166454,0.000211,-0.029046
178,0.048986,-3.292852,9.352074,-1.368987,1.587440,-4.600595,-18.976900,-0.585177,-3.403922,0.985846,-0.164924,-0.000139,-0.030135
179,-0.111078,-3.285880,9.287576,-4.750161,8.660145,-4.259257,-19.077126,-0.472006,-3.599197,0.985658,-0.165756,0.001144,-0.031652
180,0.029183,-3.410771,9.335840,-12.105733,4.481532,-6.283281,-19.356483,-0.323050,-3.837188,0.985195,-0.168113,0.002851,-0.033477
181,-0.350551,-3.713802,9.041295,-27.803526,12.844987,-0.554182,-20.020803,-0.089675,-4.041942,0.984159,-0.173746,0.005360,-0.034864
182,0.260302,-3.740606,9.402983,-28.545189,-3.245556,-2.126930,-20.960039,0.044183,-4.139584,0.982679,-0.181760,0.006948,-0.035444
183,0.112517,-3.359615,9.282887,-17.906149,-2.632653,0.039159,-21.734102,-0.060028,-4.137398,0.981424,-0.188426,0.006291,-0.035549
184,0.300435,-3.325579,9.140891,-14.735828,-7.765337,-0.464394,-22.278248,-0.223458,-4.079036,0.980524,-0.193137,0.004963,-0.035295
185,0.413533,-3.121898,8.744208,-7.492211,-10.600429,0.697146,-22.649475,-0.504912,-3.958724,0.979906,-0.196400,0.002465,-0.034731
186,0.360086,-3.059063,8.671272,0.074644,-8.531307,1.944692,-22.774910,-0.782167,-3.795194,0.979709,-0.197551,-0.000150,-0.033808
187,0.390098,-3.233982,8.605226,0.523317,-8.632015,3.809062,-22.768023,-1.008901,-3.596161,0.979751,-0.197550,-0.002434,-0.032496
188,0.457457,-3.350877,8.783256,3.591095,-9.593244,4.639966,-22.704248,-1.234631,-3.348851,0.979899,-0.197051,-0.004807,-0.030767
189,0.423937,-3.580907,8.985869,4.896260,-9.455713,4.594608,-22.569023,-1.468466,-3.084581,0.980164,-0.195932,-0.007296,-0.028899
190,0.204728,-3.790476,9.193742,2.904422,-0.577243,7.303363,-22.445518,-1.547061,-2.837316,0.980423,-0.194874,-0.008420,-0.026909
191,0.252071,-3.869550,9.359150,3.475031,-2.005227,6.772013,-22.345232,-1.497451,-2.604017,0.980653,-0.193990,-0.008414,-0.024821
192,0.207027,-3.920991,9.332064,2.911396,-1.804736,6.935456,-22.244913,-1.469541,-2.368456,0.980876,-0.193110,-0.008594,-0.022751
193,0.012709,-3.902257,9.279208,2.620195,2.646000,7.691098,-22.158171,-1.364435,-2.147988,0.981078,-0.192335,-0.008081,-0.020681
194,0.079218,-3.982430,9.079724,-4.159432,1.196623,7.828441,-22.188581,-1.207509,-1.932608,0.981084,-0.192560,-0.007094,-0.018576
195,-0.050281,-3.895694,9.071750,-1.454931,4.019187,9.338575,-22.286684,-1.018660,-1.700708,0.980974,-0.193365,-0.005853,-0.016278
196,-0.015212,-3.784101,8.988979,2.326143,1.845202,7.028029,-22.275578,-0.824844,-1.485271,0.981040,-0.193239,-0.004558,-0.014107
197,-0.009580,-3.733135,8.971972,4.355708,1.482822,6.246674,-22.166676,-0.689887,-1.301364,0.981255,-0.192288,-0.003725,-0.012302
198,0.169786,-3.736043,9.032231,4.577761,-4.260562,3.113045,-22.019711,-0.674143,-1.139374,0.981518,-0.191023,-0.003876,-0.010883
199,0.000619,-3.614342,9.141910,9.721553,2.606109,2.212439,-21.782549,-0.666631,-1.046660,0.981920,-0.188987,-0.003987,-0.010068
201,0.194523,-3.644621,9.107902,6.779390,-2.205100,-3.170905,-21.507292,-0.666404,-1.064077,0.982370,-0.186628,-0.003981,-0.010207
202,0.075028,-3.688049,9.098966,3.065953,2.837756,-2.589843,-21.342091,-0.691728,-1.157184,0.982627,-0.185217,-0.004062,-0.011041
203,0.090750,-3.677010,9.103563,1.702991,2.642094,-4.093345,-21.261045,-0.647142,-1.294200,0.982747,-0.184523,-0.003467,-0.012141
204,0.005659,-3.746599,9.120980,-1.513534,4.584381,-3.639892,-21.256119,-0.581649,-1.457995,0.982741,-0.184479,-0.002642,-0.013441
205,0.117041,-3.604977,9.147856,2.696112,0.057707,-4.101594,-21.234959,-0.556332,-1.606309,0.982759,-0.184298,-0.002189,-0.014672
206,0.085093,-3.584106,9.242184,3.672631,0.357261,-2.033746,-21.127789,-0.586783,-1.704146,0.982915,-0.183384,-0.002307,-0.015557
207,0.174333,-3.541233,9.203816,3.155082,-2.787952,-1.362917,-21.013590,-0.644917,-1.742420,0.983088,-0.182412,-0.002760,-0.015976
208,0.191032,-3.514572,9.310943,3.498176,-3.579562,-1.202900,-20.902662,-0.759304,-1.744370,0.983256,-0.181474,-0.003754,-0.016171
209,0.262265,-3.429841,9.232265,4.448970,-5.666379,-0.324297,-20.770664,-0.912375,-1.713339,0.983455,-0.180359,-0.005135,-0.016141
210,0.238224,-3.617641,9.135745,-4.657806,-4.522382,0.964039,-20.775341,-1.067353,-1.643127,0.983442,-0.180412,-0.006575,-0.015782
211,0.269444,-3.424798,9.031868,-0.623687,-4.962702,0.727964,-20.864986,-1.205045,-1.560461,0.983297,-0.181191,-0.007875,-0.015295
212,0.151774,-3.504375,9.159821,-2.493713,-0.336425,2.607720,-20.918751,-1.267756,-1.477051,0.983216,-0.181652,-0.008539,-0.014683
213,-0.026345,-3.444542,9.047394,-1.796641,6.388489,4.068017,-20.991648,-1.133758,-1.409179,0.983124,-0.182261,-0.007487,-0.013893
214,0.031491,-3.337299,9.114711,0.287265,2.787537,2.284030,-21.017563,-0.953037,-1.365115,0.983105,-0.182464,-0.006004,-0.013229
215,-0.078618,-3.128864,9.216823,5.692087,4.751954,3.170142,-20.918530,-0.803177,-1.325174,0.983280,-0.181600,-0.004793,-0.012644
216,-0.124775,-3.313936,9.104712,0.182793,4.597779,3.115343,-20.821136,-0.620267,-1.282756,0.983451,-0.180746,-0.003301,-0.011988
217,-0.034744,-3.241844,8.980614,-1.378302,1.278412,1.581601,-20.841434,-0.500877,-1.244489,0.983430,-0.180909,-0.002334,-0.011471
218,0.116829,-3.301924,9.080026,-4.157046,-3.003766,0.478884,-20.934071,-0.515495,-1.202169,0.983287,-0.181704,-0.002518,-0.011133
219,-0.105269,-3.392390,8.964140,-10.015766,2.657536,1.673869,-21.170618,-0.507986,-1.166637,0.982914,-0.183732,-0.002487,-0.010822
220,0.290125,-3.582119,8.724847,-18.547815,-6.592644,-2.417852,-21.646774,-0.573540,-1.154146,0.982139,-0.187820,-0.003025,-0.010832
221,0.256001,-3.538746,8.729548,-20.103664,-4.222238,-3.685431,-22.290642,-0.778728,-1.181361,0.981052,-0.193352,-0.004674,-0.011428
222,0.303210,-3.839334,8.111844,-34.932461,-5.596530,-2.515073,-23.207413,-0.969500,-1.213282,0.979454,-0.201211,-0.006157,-0.012073
223,0.634038,-3.939830,7.489300,-47.851505,-15.768862,-9.268570,-24.586260,-1.374709,-1.248441,0.976915,-0.213013,-0.009401,-0.013198
224,0.511486,-3.853913,7.038848,-52.482826,-10.929388,-6.953867,-26.256649,-1.892377,-1.302460,0.973625,-0.227270,-0.013500,-0.014818
225,0.388252,-4.177554,6.656338,-67.711472,-6.550079,-4.233820,-28.258223,-2.236628,-1.333976,0.969442,-0.244265,-0.016084,-0.016051
226,0.371538,-4.404067,6.444118,-74.898705,-4.676425,-1.446282,-30.634571,-2.446048,-1.323293,0.964129,-0.264324,-0.017535,-0.016773
227,0.438984,-4.258720,6.795905,-58.969570,-3.062529,-5.208716,-32.863483,-2.614224,-1.349123,0.958765,-0.283037,-0.018549,-0.017742
228,-0.067513,-4.677126,7.287053,-54.772301,14.089351,6.593946,-34.754860,-2.448026,-1.432563,0.953986,-0.298828,-0.016652,-0.018307
229,0.105935,-5.074278,7.422714,-52.780033,10.076102,2.492793,-36.542763,-2.032543,-1.541367,0.949272,-0.313667,-0.012624,-0.018331
230,0.310416,-5.435410,7.480529,-52.457005,5.306310,-0.411884,-38.291840,-1.807778,-1.670311,0.944393,-0.328117,-0.010121,-0.018941
231,0.387307,-6.035324,7.525620,-55.902145,3.323853,-2.864732,-40.093185,-1.730937,-1.804255,0.939109,-0.342926,-0.008791,-0.019966
232,0.197250,-6.503581,7.369141,-57.517445,5.509023,2.618172,-41.980015,-1.622590,-1.904439,0.933336,-0.358339,-0.007266,-0.020586
233,0.623239,-6.674199,6.997807,-54.508575,-5.368907,-4.571516,-43.845917,-1.643417,-1.929151,0.927370,-0.373492,-0.007018,-0.020969
234,0.536061,-6.996489,6.897441,-52.313236,-4.029862,-3.038174,-45.626320,-1.844227,-1.910725,0.921423,-0.387871,-0.008368,-0.021606
235,-0.160396,-6.937473,6.854180,-41.110504,8.923577,11.008586,-47.184002,-1.691830,-1.877953,0.916099,-0.400345,-0.006970,-0.020924
236,0.165057,-6.839138,6.439905,-38.418098,1.074973,5.810058,-48.510986,-1.372256,-1.811077,0.911466,-0.410898,-0.004425,-0.019327
237,-0.118429,-6.893184,6.510201,-34.185047,5.639360,9.526175,-49.722729,-1.106045,-1.729191,0.907121,-0.420489,-0.002413,-0.017748
238,-0.523685,-7.065393,6.253931,-38.659882,11.737194,18.535486,-50.937729,-0.561172,-1.652967,0.902684,-0.430034,0.001782,-0.015128
239,-0.214114,-7.507276,6.293355,-41.661545,2.247757,12.149937,-52.276878,-0.015731,-1.517275,0.897653,-0.440505,0.005710,-0.011947
240,0.236549,-7.853894,6.322343,-37.385189,-6.888246,-0.639165,-53.594242,0.090378,-1.341137,0.892551,-0.450793,0.005980,-0.010091
241,-0.134801,-7.880940,6.450511,-25.637028,-0.982691,4.509586,-54.644478,0.065714,-1.198531,0.888393,-0.458964,0.005310,-0.009029
242,0.007011,-8.521221,6.317927,-27.848623,-3.327205,3.030465,-55.535534,0.127669,-1.067156,0.884809,-0.465859,0.005324,-0.007721
243,0.327481,-8.467187,6.379770,-15.328409,-7.922821,-6.033682,-56.255020,-0.018950,-0.940152,0.881870,-0.471421,0.003722,-0.007313
244,-0.093488,-8.570326,6.293684,-7.804765,0.698452,1.278428,-56.640747,-0.151597,-0.884274,0.880277,-0.474396,0.002496,-0.007421
245,0.042297,-8.546407,6.297538,-3.106033,0.286065,-1.280008,-56.822540,-0.142560,-0.897776,0.879523,-0.475791,0.002633,-0.007483
246,-0.040330,-9.030317,6.189318,-8.443445,1.813969,1.062511,-57.014957,-0.126475,-0.929110,0.878721,-0.477265,0.002900,-0.007652
247,0.196278,-8.691019,6.080149,-0.760191,-0.098822,-6.281052,-57.168167,-0.183976,-1.000329,0.878075,-0.478441,0.002767,-0.008434
248,-0.089761,-8.976505,6.163833,0.407201,4.946543,0.405971,-57.173595,-0.222387,-1.121419,0.878041,-0.478482,0.002978,-0.009522
249,0.265804,-8.785700,6.013307,1.906969,-0.110446,-6.487072,-57.134579,-0.263808,-1.244107,0.878190,-0.478183,0.003170,-0.010636
250,0.029652,-8.874977,5.838598,-0.968174,3.106786,-1.907122,-57.118217,-0.354188,-1.361969,0.878241,-0.478061,0.002967,-0.011916
251,0.154639,-8.583265,5.855369,5.799582,2.123785,-4.479323,-57.036896,-0.396179,-1.492986,0.878562,-0.477438,0.003183,-0.013098
252,0.268401,-8.822571,5.874139,2.785617,0.800078,-5.547128,-56.892731,-0.509644,-1.624947,0.879136,-0.476339,0.002844,-0.014586
253,0.694296,-9.501727,5.628467,-13.693172,-3.955148,-12.507515,-57.073143,-0.790634,-1.744782,0.878339,-0.477745,0.001213,-0.016671
254,0.428409,-9.385698,6.433751,-8.210130,1.751964,-6.454437,-57.435844,-1.076445,-1.884633,0.876764,-0.480547,-0.000335,-0.018935
255,0.438226,-9.723000,6.842255,-23.063107,1.164350,0.290341,-57.955318,-1.137205,-1.980531,0.874552,-0.484522,-0.000308,-0.019925
256,0.863432,-10.237862,7.692157,-34.479919,-5.320116,-2.233945,-58.915215,-1.201314,-1.938193,0.870460,-0.491836,-0.000810,-0.019880
257,0.286983,-10.545649,7.675547,-46.708652,-1.637215,8.790977,-60.271408,-1.166015,-1.783187,0.864610,-0.502100,-0.000987,-0.018565
258,-0.034076,-10.462922,7.244998,-51.116917,-2.079367,17.820841,-61.906063,-0.807856,-1.513464,0.857445,-0.514357,0.000747,-0.014952
259,0.271288,-11.504199,6.497176,-54.204338,-9.697874,15.883915,-63.665504,-0.398629,-1.081298,0.849531,-0.527443,0.002022,-0.009851
260,-0.095166,-11.479911,6.139809,-20.088568,-7.738048,18.631065,-64.905540,-0.007201,-0.570756,0.843823,-0.536598,0.002620,-0.004237
261,-0.510884,-11.428800,4.270264,-14.545199,-4.819950,27.968954,-65.479858,0.608723,-0.053664,0.841124,-0.540817,0.004721,0.002479
262,-0.076968,-11.210762,4.189542,13.411328,-5.669725,21.386877,-65.490150,1.284320,0.447411,0.841003,-0.540901,0.007315,0.009346
263,-0.413841,-10.888268,4.583830,52.106094,-2.867702,27.714222,-64.384865,1.964255,0.924459,0.846038,-0.532786,0.010208,0.015958
264,-0.595645,-9.864571,3.499648,59.141949,0.656927,28.545029,-62.512108,2.784942,1.378129,0.854391,-0.518923,0.014534,0.022886
265,-0.269790,-9.406220,2.600723,38.238415,-0.218707,18.601460,-60.869370,3.479315,1.744818,0.861476,-0.506662,0.018463,0.028498
266,-0.371369,-7.819282,3.806710,84.783653,1.239544,12.572870,-58.803581,3.937021,1.991633,0.870260,-0.491087,0.021394,0.031993
267,-0.363678,-7.429633,3.464558,81.777115,-0.063321,6.190688,-56.017960,4.209327,2.146000,0.881801,-0.469818,0.023630,0.033765
268,-0.377782,-6.414616,3.038008,68.489594,2.887009,-0.553695,-53.513805,4.312621,2.162907,0.891814,-0.450441,0.025100,0.033777
269,-0.384583,-5.510468,3.679379,80.071312,1.724926,-6.478804,-51.048836,4.265780,2.030634,0.901351,-0.431125,0.025950,0.032013
270,-0.462433,-4.722642,4.290090,99.294792,1.770737,-10.051425,-48.077316,4.093568,1.808058,0.912345,-0.407557,0.026191,0.028947
271,-0.413997,-5.136480,3.954888,54.063610,1.650527,-12.365812,-45.543926,3.860143,1.510620,0.921278,-0.387221,0.025952,0.025183
272,-0.494207,-4.131349,4.608912,75.072876,2.928075,-11.709972,-43.414688,3.632258,1.171332,0.928450,-0.369962,0.025664,0.021213
273,-0.299190,-4.102014,5.860786,83.520874,-4.193178,-21.930632,-40.796906,3.241350,0.768446,0.936829,-0.348577,0.024172,0.016140
274,-0.492968,-4.565685,7.073979,77.797813,0.874373,-17.303055,-38.134239,2.782983,0.300567,0.944834,-0.326638,0.022095,0.010411
275,-0.443331,-4.634579,7.731537,76.928741,0.244688,-19.987568,-35.580387,2.425250,-0.209248,0.951979,-0.305427,0.020709,0.004728
276,-0.643908,-4.457995,8.648125,78.768677,5.062788,-18.487299,-33.009933,2.136847,-0.788529,0.958642,-0.283919,0.019832,-0.001299
277,-0.656302,-5.018279,8.882257,52.773109,5.098136,-17.529783,-30.840502,1.963081,-1.388548,0.963844,-0.265638,0.019734,-0.007125
278,-0.706228,-4.880853,8.645811,40.753139,7.200632,-12.371374,-29.300205,1.889794,-1.922430,0.967291,-0.252578,0.020195,-0.012058
279,-0.565039,-4.481891,8.254604,30.357977,5.283649,-11.976610,-28.130402,1.877237,-2.378891,0.969763,-0.242611,0.020931,-0.016153
280,-0.640035,-4.659487,8.361749,10.469871,7.009939,-4.725295,-27.461313,1.928443,-2.720700,0.971106,-0.236869,0.021977,-0.019065
281,-0.522163,-4.816562,8.158797,-2.586901,3.615819,-5.218670,-27.337948,2.009186,-2.949787,0.971313,-0.235759,0.023112,-0.020864
282,-0.286791,-4.488082,7.952266,1.338042,-2.129741,-7.342709,-27.365513,1.934789,-3.147280,0.971225,-0.235972,0.022893,-0.022686
283,-0.318088,-4.647769,8.122099,-3.506593,-0.893794,-6.098888,-27.407276,1.787051,-3.323141,0.971115,-0.236332,0.022012,-0.024474
284,-0.250484,-4.659240,8.381468,-2.605963,-2.900418,-4.673924,-27.513067,1.648081,-3.453300,0.970877,-0.237243,0.021127,-0.025845
285,-0.297134,-4.621398,8.310642,-0.813942,-0.909088,-3.885026,-27.572721,1.525815,-3.550476,0.970737,-0.237766,0.020307,-0.026912
286,-0.220285,-4.682941,8.286513,-8.101083,-2.805945,-2.190112,-27.722895,1.423997,-3.611462,0.970415,-0.239057,0.019607,-0.027615
287,-0.493841,-4.837740,8.621607,-12.406828,3.255547,3.106704,-28.064421,1.437709,-3.601419,0.969700,-0.241946,0.019784,-0.027443
288,-0.174804,-4.632044,8.402540,-11.793969,-4.661559,0.077967,-28.466301,1.442163,-3.543365,0.968859,-0.245354,0.019794,-0.026873
289,-0.543133,-5.126000,8.000196,-31.723263,3.619037,6.137519,-29.189085,1.476853,-3.444449,0.967313,-0.251468,0.020038,-0.025836
290,-0.302317,-4.919676,7.802001,-30.316811,-2.161729,2.827572,-30.219799,1.572062,-3.326183,0.965034,-0.260153,0.020803,-0.024442
291,-0.139345,-4.762032,7.510926,-28.709076,-5.500423,-1.307750,-31.201239,1.475195,-3.239658,0.962793,-0.268450,0.019995,-0.023763
292,-0.097284,-4.622899,7.013569,-32.270660,-5.097146,-3.885855,-32.217075,1.279570,-3.220828,0.960386,-0.277029,0.018520,-0.023901
293,-0.367598,-4.758558,6.586620,-44.092876,2.761309,0.588233,-33.490250,1.217242,-3.245909,0.957244,-0.287695,0.018327,-0.024060
294,0.433459,-4.562859,6.163877,-47.710552,-18.533213,-16.656473,-35.021393,0.849336,-3.318406,0.953299,-0.300545,0.015777,-0.025383
295,-0.097608,-4.572747,6.269344,-47.568905,-2.056132,-5.172604,-36.609982,0.358470,-3.415547,0.949001,-0.313846,0.012329,-0.027312
296,-0.027133,-4.818774,6.108036,-58.031094,-4.218041,-3.756582,-38.369972,0.185055,-3.467659,0.944045,-0.328422,0.011467,-0.028046
297,0.318889,-5.175681,6.522203,-59.032196,-10.372514,-10.520659,-40.320446,-0.154090,-3.497466,0.938280,-0.344524,0.009256,-0.029110
298,0.189216,-5.412142,6.902877,-53.103924,-4.169590,-7.276193,-42.188404,-0.531598,-3.561879,0.932477,-0.359859,0.006859,-0.030664
299,-0.055200,-5.955816,7.150596,-52.573078,3.052458,-0.214373,-43.948494,-0.630143,-3.639595,0.926805,-0.374157,0.006786,-0.031505
300,0.515417,-6.513975,7.224551,-47.590969,-6.571916,-11.664918,-45.616302,-0.811189,-3.737499,0.921205,-0.387644,0.006119,-0.032802
301,0.415148,-6.585262,7.240371,-31.572309,0.266883,-11.794029,-46.931938,-1.166125,-3.933677,0.916570,-0.398269,0.004337,-0.035531
302,-0.168171,-6.835964,6.912968,-27.642187,11.030739,3.350684,-47.914211,-1.141645,-4.167540,0.913053,-0.406095,0.005665,-0.037269
304,0.225800,-6.982155,6.611731,-27.115093,4.097412,-5.661799,-48.823090,-1.003025,-4.380273,0.909762,-0.413275,0.007829,-0.038413
305,-0.122550,-6.977102,6.486824,-25.313158,10.113411,-0.468877,-49.692501,-0.925809,-4.627173,0.906532,-0.420124,0.009636,-0.040023
306,-0.128526,-7.263022,6.423275,-32.027367,8.696924,0.601006,-50.644810,-0.723214,-4.866010,0.902968,-0.427559,0.012457,-0.041068
307,-0.145554,-7.688830,6.322978,-41.340183,6.627704,1.430608,-51.865543,-0.537217,-5.044113,0.898337,-0.437073,0.015031,-0.041621
308,-0.073164,-8.089192,6.103742,-49.450809,4.497142,-0.789293,-53.377346,-0.416501,-5.185115,0.892466,-0.448827,0.017072,-0.042045
309,-0.145358,-8.463324,6.072577,-48.459064,2.827785,5.528131,-55.008484,-0.281187,-5.238301,0.885996,-0.461430,0.018929,-0.041664
310,0.296086,-8.853355,6.059082,-42.931816,-5.334931,0.303680,-56.531807,-0.224936,-5.148578,0.879827,-0.473163,0.019543,-0.040488
311,0.209361,-8.865401,5.682653,-37.121742,-5.036509,3.096463,-57.866627,-0.271410,-4.973562,0.874307,-0.483424,0.018920,-0.039118
312,-0.131103,-9.285948,5.723127,-30.488405,-1.741547,13.122299,-58.994049,-0.100461,-4.735597,0.869620,-0.491989,0.019580,-0.036390
313,0.332368,-9.386128,5.454374,-26.210932,-9.091684,4.819984,-59.938889,0.065062,-4.427259,0.865656,-0.499146,0.019786,-0.033178
314,0.220611,-9.491509,5.485971,-18.004431,-6.812260,2.902426,-60.675735,0.045323,-4.133959,0.862507,-0.504757,0.018559,-0.030929
315,-0.202767,-9.407660,5.485685,-8.631203,0.396318,9.928246,-61.119282,0.180136,-3.936567,0.860619,-0.508088,0.018816,-0.028777
316,-0.242274,-9.620255,5.448349,-7.650660,1.028153,9.307780,-61.389721,0.472601,-3.802796,0.859487,-0.510063,0.020481,-0.026427
317,-0.054212,-9.631651,5.333334,-6.103509,-0.578471,3.117073,-61.618019,0.658174,-3.710565,0.858510,-0.511741,0.021512,-0.024866
318,-0.155074,-9.701550,5.603280,0.578908,0.550183,3.388086,-61.709476,0.753394,-3.658769,0.858122,-0.512411,0.022013,-0.024035
319,-0.009827,-10.197881,5.678771,-13.531588,-2.990592,-0.648884,-61.924580,0.774406,-3.601300,0.857172,-0.514026,0.021958,-0.023469
320,0.141360,-10.359941,7.026217,-19.760189,-6.936973,-9.297114,-62.478664,0.550649,-3.532343,0.854669,-0.518235,0.020090,-0.023861
321,-0.302642,-10.357586,6.724250,-43.779053,0.156161,-2.369920,-63.537556,0.326152,-3.520177,0.849821,-0.526168,0.018590,-0.024615
322,0.271037,-11.109550,6.954402,-46.039398,-0.968073,-12.367717,-65.034721,0.099301,-3.613435,0.842824,-0.537265,0.017678,-0.026120
323,0.214147,-11.392891,5.614406,-52.752991,1.136370,-10.833755,-66.680702,-0.252007,-3.775122,0.834925,-0.549372,0.016267,-0.028725
324,0.091116,-11.584130,4.802602,-33.146679,4.879869,-2.856260,-68.111015,-0.423975,-3.954909,0.827925,-0.559764,0.016260,-0.030659
325,0.051464,-12.008052,3.213204,-21.181774,6.350501,7.903938,-69.015617,-0.276959,-4.097704,0.823471,-0.566226,0.018263,-0.030829
326,0.637546,-12.272773,3.469798,25.214499,2.495222,0.072546,-68.948242,-0.100032,-4.186818,0.823813,-0.565682,0.019957,-0.030607
327,0.400231,-11.371882,2.637829,31.461481,3.390718,3.791329,-68.003563,-0.003838,-4.253804,0.828448,-0.558834,0.020726,-0.030786
328,0.286601,-10.714222,3.289646,48.644875,4.410761,7.072975,-66.668694,0.213396,-4.304224,0.834926,-0.549077,0.022191,-0.030352
329,0.510843,-9.530579,4.414760,80.999664,2.343656,-0.865679,-64.508759,0.354178,-4.364018,0.845133,-0.533190,0.022931,-0.030550
330,0.276748,-8.327625,3.885932,86.968803,3.603225,1.812126,-61.711185,0.412895,-4.443638,0.857883,-0.512367,0.022974,-0.031434
331,0.223230,-7.483054,3.424238,71.908081,0.939634,3.941500,-59.065132,0.533650,-4.462636,0.869496,-0.492381,0.023240,-0.031581
332,-0.252185,-6.455796,3.909446,88.741447,4.381561,18.286226,-56.387604,0.894674,-4.340073,0.880835,-0.471842,0.024765,-0.029686
333,-0.181934,-5.794548,4.233812,99.011185,3.181308,12.044964,-53.256870,1.380963,-4.154213,0.893476,-0.447485,0.027009,-0.027000
334,-0.447090,-5.353284,3.490859,65.179443,8.412387,19.437418,-50.517612,1.911834,-3.980816,0.903965,-0.425867,0.029897,-0.024293
335,-0.537800,-4.884155,3.758888,57.424950,8.551847,20.636776,-48.466621,2.603544,-3.764990,0.911461,-0.409445,0.034185,-0.020628
336,-0.857603,-4.429045,4.519866,75.055992,11.258543,28.386280,-46.243126,3.428115,-3.454575,0.919199,-0.391500,0.039327,-0.015968
337,-0.736839,-4.435134,4.889362,67.293762,1.531662,22.462805,-43.842091,4.178125,-3.006020,0.927121,-0.372065,0.043591,-0.010713
338,-1.033303,-4.798403,5.520360,53.312202,-0.295496,28.614021,-41.785561,4.772147,-2.392478,0.933546,-0.355421,0.046326,-0.004643
339,-0.822057,-5.425414,6.294219,38.316399,-14.006427,18.022949,-40.194954,5.103406,-1.647888,0.938301,-0.342641,0.046742,0.001806
340,-0.308813,-5.592378,7.242876,45.718193,-29.890648,3.075697,-38.731922,4.763016,-0.907249,0.942685,-0.330994,0.041824,0.006316
341,-0.278347,-6.098540,7.392344,28.741776,-27.082788,-2.485220,-37.446655,4.021303,-0.310110,0.946523,-0.320710,0.034097,0.008701
342,-0.132149,-6.600909,7.602468,12.431852,-25.049072,-6.150950,-36.734898,3.241697,0.100843,0.948667,-0.315007,0.026567,0.009748
343,0.038849,-6.257142,7.986521,18.218561,-22.642801,-9.905420,-36.211521,2.443777,0.359403,0.950243,-0.310763,0.019294,0.009607
344,-0.219133,-5.882201,8.088093,23.379688,-10.949447,-4.544953,-35.513569,1.848731,0.491970,0.952206,-0.305001,0.014055,0.009008
345,-0.394520,-5.694795,8.224617,21.104242,-1.428699,-1.819752,-34.771259,1.618826,0.523125,0.954191,-0.298830,0.012117,0.008577
346,-0.292194,-5.350379,8.538615,26.564335,-1.279998,-1.155381,-33.977295,1.553412,0.507214,0.956248,-0.292210,0.011671,0.008193
347,-0.547161,-4.893607,8.684636,36.082863,5.592401,-0.362185,-32.934906,1.599466,0.446414,0.958865,-0.283493,0.012281,0.007692
348,-0.350432,-4.907070,8.296002,33.054897,3.157024,-5.602502,-31.787384,1.669235,0.283902,0.961657,-0.273858,0.013331,0.006372
349,-0.535464,-4.682554,8.254043,33.010826,8.041202,-2.176041,-30.692539,1.761263,0.076581,0.964227,-0.264630,0.014644,0.004712
350,-0.511775,-4.915507,8.346598,25.026121,5.769753,0.854939,-29.729828,1.949119,-0.058805,0.966396,-0.256495,0.016571,0.003867
351,-0.695879,-4.819430,8.393403,26.392195,6.721518,3.300823,-28.874454,2.164740,-0.100392,0.968252,-0.249259,0.018512,0.003861
352,-0.385684,-4.713474,8.503018,26.399004,-1.994246,1.533705,-27.993404,2.272489,-0.067131,0.970122,-0.241807,0.019383,0.004228
353,-0.477937,-4.671485,8.721766,20.036825,-1.790327,5.148252,-27.214472,2.268354,0.061426,0.971738,-0.235229,0.019112,0.005178
354,0.167301,-4.743073,8.788468,12.245772,-16.491793,-5.454009,-26.671469,1.994659,0.194931,0.972880,-0.230650,0.016544,0.005670
355,-0.137132,-4.591105,8.632204,6.025881,-6.519232,-6.522736,-26.367376,1.562341,0.188414,0.973547,-0.228074,0.012899,0.004710
356,0.013419,-4.546404,8.553854,-1.467998,-4.645544,-11.612954,-26.296234,1.261376,0.000007,0.973726,-0.227455,0.010719,0.002504
357,-0.257961,-4.454640,8.571370,-3.471534,5.300488,-10.378366,-26.385563,1.108398,-0.333202,0.973565,-0.228189,0.010081,-0.000623
358,-0.509550,-4.207495,8.687816,1.423126,11.494847,-5.918353,-26.427492,1.238289,-0.700960,0.973464,-0.228502,0.011918,-0.003485
359,-0.842806,-4.194858,8.726687,0.558712,18.872509,-1.674778,-26.403162,1.635392,-1.039496,0.973463,-0.228219,0.015965,-0.005572
360,-0.729430,-3.987163,8.946249,9.154430,12.980904,1.026101,-26.249516,2.106394,-1.284795,0.973699,-0.226819,0.020445,-0.006744
361,-0.646306,-3.959489,8.931787,15.494565,8.789457,4.695794,-25.841740,2.474460,-1.358145,0.974441,-0.223288,0.023693,-0.006721
362,-0.477622,-4.141065,8.950815,8.140065,0.541898,2.612087,-25.446039,2.667554,-1.315372,0.975176,-0.219903,0.025231,-0.006068
363,-0.400999,-4.134829,8.883143,5.584124,-2.697262,0.923629,-25.214159,2.660367,-1.246530,0.975624,-0.217946,0.025027,-0.005546
364,-0.368782,-4.029302,8.958313,8.606603,-4.162321,2.250310,-24.973251,2.579275,-1.149976,0.976099,-0.215926,0.024142,-0.004929
365,-0.149056,-4.119346,8.776093,0.502916,-9.999188,-3.072214,-24.817673,2.359427,-1.062968,0.976431,-0.214645,0.022099,-0.004633
366,-0.313900,-4.151241,8.894642,-3.472132,-2.303672,-1.917206,-24.866816,2.138443,-1.052064,0.976373,-0.215091,0.020198,-0.004946
367,-0.237025,-4.061373,8.904142,-3.050731,-2.491058,-2.454424,-24.976736,2.035282,-1.084397,0.976179,-0.216034,0.019385,-0.005397
368,-0.326027,-4.140018,8.901867,-7.263282,0.790668,-2.631561,-25.150909,1.973706,-1.149222,0.975854,-0.217513,0.018992,-0.006037
369,-0.354978,-4.285800,8.515230,-16.199869,2.167424,-2.192421,-25.545212,1.983840,-1.242988,0.975093,-0.220853,0.019280,-0.006750
370,-0.337708,-4.535151,8.458284,-23.750462,0.706391,-2.037891,-26.213980,1.996104,-1.327342,0.973781,-0.226524,0.019590,-0.007330
371,-0.262605,-4.530010,8.286593,-22.541416,-1.294301,-3.212987,-26.988018,1.948073,-1.401312,0.972230,-0.233090,0.019382,-0.007923
372,-0.282613,-4.852444,7.995728,-31.310743,-0.668826,-0.328214,-27.886749,1.891856,-1.438769,0.970376,-0.240710,0.019046,-0.008206
373,0.025552,-4.702405,7.650790,-32.600384,-8.551604,-4.899338,-28.951948,1.715082,-1.442098,0.968115,-0.249744,0.017635,-0.008443
374,0.194997,-4.784426,7.353402,-41.903469,-12.398804,-10.604236,-30.194935,1.283932,-1.495198,0.965379,-0.260282,0.014215,-0.009679
375,-0.215342,-4.707999,7.422177,-39.165783,0.604426,-2.810643,-31.547770,1.000777,-1.586511,0.962246,-0.271689,0.012167,-0.010949
376,0.038885,-4.415950,7.010858,-38.227551,-5.764386,-6.799793,-32.838989,0.842732,-1.674806,0.959120,-0.282527,0.011185,-0.011940
377,-0.396075,-4.602314,6.792642,-51.675507,6.635496,-1.553937,-34.338867,0.777815,-1.799526,0.955328,-0.295053,0.011120,-0.013000
378,-0.280520,-5.514428,6.771680,-70.685120,1.423036,-0.674823,-36.379379,0.866015,-1.906021,0.949909,-0.311992,0.012371,-0.013442
379,-0.512387,-5.021795,6.568460,-52.809273,6.228645,6.547392,-38.436836,1.026005,-1.906397,0.944151,-0.328971,0.013929,-0.012761
380,-0.077456,-5.748189,6.401147,-64.935608,-7.606660,0.437916,-40.396721,1.081768,-1.800432,0.938397,-0.345074,0.014283,-0.011485
381,-0.219319,-6.381048,6.375829,-66.549164,-5.118124,2.691938,-42.584324,0.956971,-1.623008,0.931658,-0.362964,0.012923,-0.010164
382,0.067654,-6.322547,6.300404,-48.203274,-11.444447,-1.479453,-44.492981,0.770865,-1.417714,0.925503,-0.378477,0.010909,-0.008904
383,0.197264,-6.000716,6.486855,-27.932190,-10.947801,-5.560743,-45.759808,0.423996,-1.237337,0.921277,-0.388739,0.007607,-0.008509
384,-0.009300,-6.856267,6.768645,-33.823246,-3.520771,-2.664983,-46.788662,0.158292,-1.158589,0.917752,-0.397024,0.005282,-0.008731
385,-0.278832,-6.437376,6.777840,-22.162554,5.446748,-0.599692,-47.721844,0.140418,-1.218440,0.914483,-0.404483,0.005422,-0.009228
386,-0.002881,-6.741062,6.596897,-34.296463,0.635679,-5.514877,-48.663158,0.132446,-1.361435,0.911117,-0.411975,0.005948,-0.010349
387,0.100263,-7.156327,6.917019,-38.717461,0.352224,-10.533769,-49.879982,-0.059641,-1.548876,0.906664,-0.421637,0.005227,-0.012475
388,-0.323610,-7.375462,6.539897,-45.720493,7.513177,-1.193676,-51.286709,-0.127186,-1.774513,0.901389,-0.432731,0.005701,-0.014440
389,-0.288234,-7.709946,6.559635,-47.077194,5.434439,0.973493,-52.833057,0.002445,-1.945677,0.895455,-0.444829,0.007573,-0.015196
390,0.294378,-8.071813,6.171103,-49.402378,-4.779110,-10.666569,-54.440647,-0.121497,-2.050184,0.889103,-0.457357,0.007241,-0.016394
391,-0.258520,-8.529199,6.386393,-40.070225,4.739147,1.966413,-55.931141,-0.241104,-2.134177,0.883056,-0.468893,0.006875,-0.017435
392,-0.250463,-8.279013,5.902501,-33.030922,2.838801,6.165722,-57.149323,-0.058276,-2.163178,0.878033,-0.478227,0.008582,-0.016820
393,-0.394858,-8.920584,5.852815,-34.750923,2.586492,9.203933,-58.278858,0.206230,-2.102483,0.873305,-0.486825,0.010505,-0.015148
394,0.011893,-8.627610,5.676348,-21.837158,-3.203640,-0.869885,-59.221558,0.319486,-2.021470,0.869288,-0.493984,0.011139,-0.013959
395,-0.372749,-8.996329,5.455976,-23.722452,1.878606,6.537313,-59.980488,0.389713,-1.955317,0.866008,-0.499727,0.011474,-0.013078
396,-0.273841,-8.630831,5.223987,-16.407658,0.958328,4.201693,-60.648857,0.568661,-1.907271,0.863092,-0.504748,0.012686,-0.011861
397,-0.106212,-9.089922,5.034090,-20.624073,-0.260302,-1.015912,-61.265869,0.620718,-1.891691,0.860365,-0.509382,0.013071,-0.011444
398,0.365455,-8.868259,5.172273,-6.165529,-3.729316,-13.496723,-61.712845,0.376510,-1.948964,0.858355,-0.512764,0.011543,-0.012915
399,-0.030114,-9.107764,5.138903,-3.705443,2.844425,-3.073300,-61.877876,0.126319,-2.067156,0.857586,-0.514023,0.010219,-0.014905
400,0.115394,-9.536235,5.451871,0.526407,1.549727,-4.239482,-61.931175,0.053322,-2.189058,0.857325,-0.514422,0.010227,-0.016140
401,0.791605,-9.704792,5.851828,6.940987,-5.575985,-18.232435,-61.806431,-0.308569,-2.306497,0.857831,-0.513530,0.008027,-0.018652
402,0.289809,-9.998816,7.069400,23.083740,1.413269,-8.992045,-61.304489,-0.740515,-2.461644,0.859990,-0.509817,0.005393,-0.021772
403,0.215300,-10.114985,7.848090,26.760773,2.157761,-7.919953,-60.471142,-0.957675,-2.651708,0.863603,-0.503571,0.004433,-0.024197
404,0.486974,-10.511771,8.423680,18.404034,-0.437470,-11.251916,-59.714970,-1.220295,-2.836033,0.866821,-0.497892,0.003087,-0.026760
405,0.361068,-10.555032,7.983470,6.221020,2.418754,-5.159350,-59.300629,-1.439304,-3.002928,0.868531,-0.494782,0.002050,-0.028981
407,0.308930,-10.682669,7.727357,13.025013,4.291341,5.717526,-58.977695,-1.374082,-3.094189,0.869912,-0.492321,0.002856,-0.029400
408,0.190422,-10.733319,6.750823,12.404716,2.841845,18.099245,-58.556091,-0.972890,-2.990207,0.871820,-0.489057,0.005357,-0.026908
409,-0.186311,-10.984274,4.748089,-1.640021,0.575124,33.940384,-58.380993,-0.203624,-2.585482,0.872760,-0.487625,0.009452,-0.020562
410,0.158585,-10.344145,3.710388,9.674020,-5.781264,29.401121,-58.244854,0.649604,-1.958109,0.873487,-0.486514,0.013267,-0.012168
411,-0.411594,-9.447716,4.101274,47.842739,-2.232073,42.313171,-57.272163,1.588691,-1.206697,0.877618,-0.479044,0.017213,-0.002598
412,-0.911117,-8.762485,3.506297,42.885117,-0.888864,48.509773,-55.726044,2.820021,-0.325792,0.883829,-0.467154,0.023082,0.008987
413,0.096377,-7.751308,3.354599,42.988586,-17.405867,14.009871,-54.248375,3.498789,0.521659,0.889533,-0.455827,0.025096,0.017968
414,0.307762,-6.040907,4.771193,97.451454,-20.779814,0.657829,-51.871159,3.310971,1.182066,0.898733,-0.437422,0.021469,0.021907
415,-0.173677,-5.738054,4.843693,88.482735,-10.058123,10.631235,-48.745972,3.124055,1.699359,0.910273,-0.412844,0.018710,0.024750
416,0.003077,-5.176393,4.590245,64.594543,-13.513489,-1.207654,-46.175152,2.974305,2.092039,0.919258,-0.392376,0.016714,0.026963
417,0.214091,-4.728603,4.555433,50.794933,-16.336187,-14.689779,-44.245266,2.435632,2.260831,0.925833,-0.376820,0.012257,0.026274
418,-0.563391,-4.417001,4.624349,43.444691,6.164800,5.501771,-42.675190,2.206397,2.268412,0.930959,-0.364079,0.010729,0.025438
419,-0.786984,-4.801642,4.501168,11.170442,11.448709,9.407966,-41.765793,2.590690,2.251823,0.933733,-0.356714,0.014115,0.026411
420,-0.897633,-4.756410,5.343536,20.923201,8.329411,7.317217,-41.231453,3.022203,2.240836,0.935277,-0.352391,0.017795,0.027579
421,-0.644808,-4.846980,6.210529,36.656193,-1.020734,-3.238289,-40.273350,3.158871,2.213231,0.938159,-0.344566,0.019227,0.027613
422,-1.033034,-5.206267,7.319572,44.770405,3.952870,3.028745,-38.918159,3.194175,2.180476,0.942166,-0.333444,0.019938,0.027216
423,-0.941389,-5.380200,8.138767,49.665440,1.130114,-0.741659,-37.345825,3.284523,2.157369,0.946632,-0.320488,0.021121,0.027001
424,-1.035705,-5.627439,8.394182,43.263409,2.665512,1.120480,-35.799183,3.338937,2.125251,0.950863,-0.307681,0.022021,0.026593
425,-0.916814,-5.780251,8.114479,32.099339,2.140074,-1.467115,-34.546375,3.401119,2.074022,0.954163,-0.297262,0.022961,0.026085
426,-1.151004,-5.747844,8.112805,24.954092,5.138701,4.785861,-33.596912,3.532375,2.051962,0.956560,-0.289351,0.024329,0.026040
427,-1.002275,-5.547480,7.845473,18.118650,3.201742,2.781109,-32.877296,3.717990,2.080832,0.958294,-0.283358,0.025973,0.026585
428,-1.038396,-5.511747,7.675790,9.715395,4.283172,4.749068,-32.410851,3.890709,2.119352,0.959374,-0.279476,0.027434,0.027221
429,-1.011469,-5.271926,7.983844,13.616033,3.115418,4.109681,-32.017899,4.073802,2.178505,0.960251,-0.276213,0.028919,0.028062
430,-0.952272,-4.899035,8.361220,23.428844,1.426329,3.155596,-31.395926,4.201822,2.241989,0.961676,-0.271023,0.029996,0.028738
431,-0.652357,-4.899985,8.354374,22.186407,-3.844481,-1.968659,-30.632936,4.177431,2.279987,0.963458,-0.264622,0.029894,0.028801
432,-0.735546,-4.885144,8.475741,24.521915,-1.390888,-0.776096,-29.854172,4.078920,2.284825,0.965268,-0.258061,0.029248,0.028418
433,-0.556851,-4.570973,8.495242,28.959829,-4.545694,-3.814795,-28.964146,3.955152,2.266540,0.967289,-0.250540,0.028462,0.027766
434,-0.370640,-4.607635,8.383747,19.861462,-7.508798,-7.340405,-28.154993,3.689758,2.199381,0.969136,-0.243663,0.026555,0.026435
435,-0.285397,-4.556717,8.510859,13.881432,-8.012129,-7.797210,-27.598898,3.342998,2.097559,0.970433,-0.238901,0.023958,0.024724
436,-0.185302,-4.356184,8.403033,9.444650,-7.589626,-10.280346,-27.218287,2.973422,1.949745,0.971352,-0.235613,0.021211,0.022635
437,-0.129545,-4.274907,8.524961,2.153698,-5.815850,-11.717954,-27.035969,2.607291,1.725191,0.971855,-0.233997,0.018600,0.019951
438,-0.314610,-4.470836,8.387699,-11.697056,0.802637,-9.282848,-27.206982,2.373217,1.451682,0.971599,-0.235387,0.017147,0.017180
439,-0.385506,-4.415989,8.267831,-15.521080,4.550344,-9.808400,-27.673967,2.305505,1.128236,0.970689,-0.239293,0.017179,0.014369
440,-0.395457,-4.489480,7.949334,-25.070225,5.870138,-10.529282,-28.365860,2.299570,0.747246,0.969271,-0.245091,0.017857,0.011237
441,-0.281671,-4.770411,7.940003,-33.554039,3.599736,-13.112502,-29.359619,2.247394,0.325725,0.967153,-0.253421,0.018251,0.007719
442,-0.530494,-4.624186,8.029260,-27.795057,9.323815,-7.919395,-30.398094,2.259354,-0.085980,0.964837,-0.262108,0.019222,0.004445
443,-0.541552,-4.849417,8.275048,-27.905369,8.256878,-7.655013,-31.341665,2.377718,-0.458823,0.962637,-0.269970,0.021058,0.001750
444,-0.297891,-4.946482,8.392847,-25.401175,1.500274,-11.647206,-32.244835,2.346392,-0.818258,0.960485,-0.277485,0.021651,-0.001173
445,-0.096630,-5.003684,8.485081,-19.943314,-2.629737,-13.555324,-33.013687,2.104115,-1.162604,0.958628,-0.283889,0.020485,-0.004509
446,-0.570140,-4.964650,8.335290,-16.830555,8.321001,-3.113266,-33.636703,2.030850,-1.447358,0.957065,-0.289056,0.020616,-0.006961
447,-0.173711,-5.421356,7.975172,-30.983191,-0.760942,-9.381746,-34.442436,2.018640,-1.689948,0.954994,-0.295736,0.021189,-0.008869
448,0.085868,-5.456481,7.443607,-36.258488,-5.938032,-14.204057,-35.571243,1.701458,-1.948610,0.952041,-0.305138,0.019329,-0.011655
449,-0.163761,-5.683627,6.822395,-46.705475,1.135505,-7.857841,-36.960484,1.419433,-2.198229,0.948261,-0.316670,0.017825,-0.014266
450,-0.516778,-5.734460,6.352054,-54.817009,7.878058,-0.660811,-38.657425,1.450828,-2.401335,0.943440,-0.330638,0.018879,-0.015582
451,-0.045994,-5.764696,5.944571,-60.642445,-4.431808,-12.499725,-40.586395,1.354942,-2.605724,0.937715,-0.346458,0.018972,-0.017225
452,-0.322664,-5.783312,5.715822,-60.587833,2.359527,-5.132269,-42.610321,1.134130,-2.804864,0.931422,-0.362983,0.018110,-0.019206
453,-0.154539,-5.716061,5.652318,-55.708900,-1.448345,-6.977706,-44.550976,1.005920,-2.960040,0.925114,-0.378709,0.017911,-0.020574
454,0.027804,-5.998054,5.653393,-57.581585,-5.042473,-10.843071,-46.440506,0.718220,-3.091659,0.918710,-0.393960,0.016394,-0.022321
455,0.017490,-6.207553,6.052195,-45.872921,-2.568739,-10.158259,-48.165569,0.375040,-3.236428,0.912625,-0.407807,0.014510,-0.024446
456,0.132711,-6.517971,6.303124,-37.400700,-3.340446,-9.898824,-49.553768,0.058858,-3.382177,0.907557,-0.418889,0.012834,-0.026579
457,0.004158,-6.837260,6.533865,-30.077053,0.027055,-7.267736,-50.678043,-0.196045,-3.523473,0.903340,-0.427818,0.011612,-0.028517
458,-0.073524,-7.223922,6.692661,-24.407269,2.177727,-4.084607,-51.585434,-0.320134,-3.670599,0.899870,-0.434972,0.011421,-0.030051
459,0.010242,-6.983284,6.640238,-10.222136,2.018624,-5.501390,-52.161617,-0.402587,-3.824050,0.897618,-0.439496,0.011515,-0.031511
460,0.044727,-7.232304,6.313196,-13.951183,2.229051,-4.077255,-52.563301,-0.485584,-3.977739,0.896015,-0.442645,0.011570,-0.032993
461,-0.144905,-7.461205,6.081936,-18.111536,4.488717,1.606118,-53.096752,-0.450820,-4.091782,0.893917,-0.446791,0.012439,-0.033693
462,0.440069,-7.639965,5.861602,-20.857050,-6.528361,-9.122121,-53.745838,-0.571765,-4.138913,0.891337,-0.451873,0.011875,-0.034465
463,0.255226,-7.718745,5.513916,-25.785606,-3.194976,-5.439785,-54.522964,-0.863509,-4.150470,0.888192,-0.457981,0.009892,-0.035638
464,0.184442,-8.246042,5.596164,-32.127800,-3.079293,2.749427,-55.489105,-0.960174,-4.090131,0.884298,-0.465482,0.009201,-0.035480
465,0.415618,-8.420319,5.690539,-28.582855,-7.949080,-1.264206,-56.503719,-1.042724,-3.923377,0.880175,-0.473326,0.008192,-0.034457
466,0.127172,-8.545009,5.707046,-22.603636,-4.731147,6.667136,-57.361004,-1.082746,-3.697580,0.876667,-0.479921,0.007198,-0.032835
467,-0.009195,-8.683959,5.681157,-16.513723,-2.230258,8.906684,-58.016937,-0.925592,-3.460252,0.874003,-0.484915,0.007580,-0.030318
468,-0.116656,-8.753857,6.071003,-3.108048,-0.091441,12.584336,-58.346920,-0.641702,-3.238292,0.872708,-0.487391,0.008886,-0.027400
469,-0.088613,-9.025127,6.079857,0.433983,0.178792,8.847113,-58.393017,-0.337030,-3.051827,0.872600,-0.487700,0.010423,-0.024680
470,-0.217007,-9.262799,5.841656,-1.799255,3.357905,9.399759,-58.416130,-0.047155,-2.942635,0.872560,-0.487831,0.012171,-0.022613
471,-0.040604,-9.216900,5.662671,-1.507333,2.125779,4.378501,-58.471127,0.196375,-2.900381,0.872360,-0.488206,0.013855,-0.021247
472,0.087652,-9.119103,5.616207,-0.484593,0.121054,2.024672,-58.504200,0.306934,-2.876540,0.872233,-0.488439,0.014601,-0.020591
473,0.253870,-9.189400,5.340423,-5.119737,-5.077552,-1.257697,-58.597233,0.274736,-2.799395,0.871847,-0.489163,0.014044,-0.020129
474,0.111191,-8.822050,5.135015,-2.371991,-5.292796,0.897638,-58.721539,0.179721,-2.654922,0.871333,-0.490143,0.012725,-0.019422
475,0.146453,-8.618287,5.338347,5.937902,-7.027544,2.231922,-58.661560,0.117540,-2.452383,0.871617,-0.489719,0.011377,-0.018154
476,0.248348,-8.783137,5.521093,9.162315,-8.485351,0.918328,-58.409557,0.027258,-2.204486,0.872722,-0.487838,0.009594,-0.016675
477,-0.083782,-9.725091,5.586673,-1.893210,-4.257601,8.795930,-58.288250,0.053586,-1.938724,0.873276,-0.486932,0.008647,-0.014548
478,0.019717,-9.808142,5.948444,-9.689274,-7.219029,5.201444,-58.480610,0.152199,-1.653643,0.872496,-0.488406,0.008208,-0.011943
479,0.025874,-10.052015,7.445162,-14.340020,-9.392349,4.228739,-58.880379,0.142706,-1.335557,0.870817,-0.491468,0.006813,-0.009538
480,0.057815,-10.566735,8.274793,-29.321136,-10.310678,3.394244,-59.607399,0.084025,-0.988456,0.867704,-0.497006,0.004924,-0.007120
481,-0.171058,-11.267114,8.657399,-43.763172,-6.499342,8.523579,-60.824806,0.117606,-0.646673,0.862393,-0.506207,0.003742,-0.004347
482,0.078662,-10.934161,8.807323,-32.529076,-7.982693,5.664561,-62.095058,0.210442,-0.321195,0.856738,-0.515742,0.003019,-0.001454
483,-0.472928,-11.372890,8.381641,-13.483464,-1.671893,18.419931,-62.859909,0.491782,0.006742,0.853270,-0.521451,0.003631,0.002288
484,-0.451987,-11.736973,6.762113,0.592853,-2.280330,21.273788,-63.069557,1.050625,0.367322,0.852267,-0.523016,0.006138,0.007527
485,-0.658008,-11.370103,5.732888,30.074011,-2.391855,25.801140,-62.548130,1.712488,0.795815,0.854524,-0.519150,0.009167,0.013693
486,-0.739529,-10.794422,4.428882,50.476734,-4.180566,26.940134,-61.187183,2.435049,1.308394,0.860425,-0.509006,0.012480,0.020640
487,-0.762345,-10.356169,2.727880,33.186462,-1.346974,25.545612,-59.768223,3.150073,1.821116,0.866380,-0.498375,0.015913,0.027466
488,-0.414122,-9.160181,3.087373,47.383022,-3.370080,11.008653,-58.402977,3.632595,2.201230,0.872013,-0.488079,0.018295,0.032219
489,-0.581313,-8.836316,3.006704,51.655018,3.449331,9.656949,-56.740593,3.922960,2.386959,0.878850,-0.475414,0.020219,0.034577
490,-0.123672,-8.042429,1.912246,14.540669,2.755346,-8.072106,-55.642365,4.001575,2.315328,0.883360,-0.466958,0.021448,0.034149
491,0.023981,-6.571246,3.447056,49.386517,-1.378622,-19.074617,-54.595322,3.642610,2.038149,0.887787,-0.458811,0.020086,0.030370
492,-0.098993,-5.706668,4.427916,85.539917,-2.512273,-18.159187,-52.365604,3.105936,1.720500,0.896781,-0.441390,0.017695,0.025425
493,0.073891,-6.120122,4.022790,51.994507,-5.754280,-26.588942,-50.091972,2.439686,1.359296,0.905592,-0.423449,0.014265,0.019756
494,-0.161895,-4.438284,4.796771,92.046997,-0.917173,-19.451763,-47.707550,1.787256,0.941601,0.914387,-0.404458,0.010941,0.013821
495,-0.451956,-3.856536,5.139247,98.450371,7.808045,-6.025228,-44.546059,1.562500,0.561336,0.925266,-0.379043,0.010761,0.009701
496,-0.426440,-4.670406,4.525479,40.179096,8.569563,-6.112607,-42.247231,1.622898,0.223283,0.932700,-0.360370,0.012508,0.006921
497,-0.458902,-4.514497,5.894518,57.781780,7.412980,-5.626757,-40.624348,1.691613,-0.100087,0.937717,-0.347085,0.014147,0.004305
498,-0.659303,-4.147722,6.120910,65.777061,12.283314,5.037902,-38.572475,1.938773,-0.316761,0.943757,-0.330195,0.016882,0.002979
499,-0.135975,-4.786396,6.109360,34.412205,-2.723758,-8.210340,-36.908382,2.033276,-0.457530,0.948443,-0.316427,0.018094,0.001830
500,-0.259515,-5.519196,8.421630,52.155716,-3.131694,-10.170867,-35.471844,1.773149,-0.645016,0.952368,-0.304506,0.016452,-0.000647
501,-0.581491,-4.883144,8.609158,72.685631,3.284200,-2.640093,-33.396988,1.654645,-0.822759,0.957735,-0.287199,0.015893,-0.002728
502,-0.498812,-5.189684,8.245768,51.437805,2.126406,-4.087896,-31.333384,1.671493,-0.967339,0.962745,-0.269884,0.016323,-0.004188
503,-0.667561,-4.827603,8.851965,54.270458,5.441075,-5.176278,-29.577871,1.701638,-1.164156,0.966755,-0.255072,0.016949,-0.006031
504,-0.733147,-4.753113,9.119442,51.845715,5.310251,-2.646738,-27.815889,1.795895,-1.364897,0.970540,-0.240135,0.018074,-0.007794
505,-0.848248,-4.222707,8.297303,46.306335,9.739704,2.593040,-26.184282,2.019191,-1.479752,0.973826,-0.226242,0.020085,-0.008584
506,-0.483488,-4.261755,8.696248,34.606369,0.432298,-4.412220,-24.839804,2.159387,-1.581013,0.976387,-0.214762,0.021367,-0.009419
507,-0.465159,-3.796327,8.732368,39.569942,0.959194,-2.330956,-23.607748,2.134099,-1.692085,0.978633,-0.204235,0.021247,-0.010642
508,-0.357701,-3.673529,8.622327,31.714121,-1.279860,-1.572727,-22.421988,2.103935,-1.750035,0.980693,-0.194092,0.020975,-0.011408
510,-0.369587,-3.354140,8.660770,33.642342,-0.000883,0.769519,-21.332968,2.079242,-1.754333,0.982496,-0.184767,0.020661,-0.011684
511,-0.315975,-3.424280,8.686609,21.445868,-1.297682,1.502242,-20.413363,2.072648,-1.711384,0.983952,-0.176885,0.020444,-0.011491
512,-0.351463,-3.282830,8.758058,18.472908,-0.193328,4.345955,-19.744457,2.082885,-1.611174,0.984976,-0.171155,0.020315,-0.010733
513,-0.485789,-3.209624,8.962232,11.899734,2.355424,5.904150,-19.232712,2.173980,-1.462148,0.985731,-0.166768,0.020833,-0.009409
514,-0.420600,-3.379617,9.006830,-0.559205,0.534135,6.362577,-19.036781,2.286587,-1.284804,0.986011,-0.165100,0.021531,-0.007756
515,-0.533414,-3.342325,9.192078,-2.335412,3.351535,5.812793,-19.078053,2.414231,-1.114085,0.985942,-0.165473,0.022385,-0.006095
516,-0.445784,-3.301710,9.185259,-1.383191,0.252526,3.515433,-19.134499,2.521905,-0.986731,0.985847,-0.165972,0.023130,-0.004832
517,-0.450126,-3.141511,9.256385,2.004030,-1.326761,3.656376,-19.118917,2.544150,-0.867826,0.985870,-0.165860,0.023149,-0.003779
518,-0.500704,-3.180158,9.243386,0.113345,-0.087417,4.412674,-19.077627,2.565851,-0.732892,0.985930,-0.165530,0.023139,-0.002595
519,-0.490156,-3.127253,9.173202,-0.244072,-1.226398,5.086613,-19.072727,2.596917,-0.575955,0.985934,-0.165517,0.023179,-0.001201
520,-0.388678,-3.196628,9.025059,-5.650101,-5.103057,4.753826,-19.162455,2.550962,-0.386254,0.985813,-0.166330,0.022510,0.000382
521,-0.383730,-3.117658,9.071237,-5.234935,-5.292353,5.028706,-19.334723,2.441209,-0.175019,0.985580,-0.167857,0.021256,0.002072
522,-0.267501,-3.339618,8.982282,-12.248249,-6.782781,2.890768,-19.618183,2.295471,0.016678,0.985183,-0.170335,0.019713,0.003556
523,-0.202948,-3.325535,8.972333,-12.387623,-6.353736,-1.650351,-20.025230,2.096645,0.110464,0.984601,-0.173853,0.017849,0.004130
524,-0.122762,-3.246158,8.987099,-9.627792,-6.369911,-5.434119,-20.393511,1.856987,0.072861,0.984074,-0.177016,0.015836,0.003494
525,-0.178378,-3.397155,8.677715,-15.619501,-2.379409,-6.701218,-20.818581,1.649418,-0.065281,0.983442,-0.180652,0.014259,0.002040
526,-0.093125,-3.456889,8.335126,-23.371359,-3.000382,-9.491053,-21.474449,1.468462,-0.284516,0.982414,-0.186258,0.013053,-0.000052
527,-0.031820,-3.633662,7.997436,-35.166523,-3.776970,-9.649153,-22.456034,1.244389,-0.538139,0.980801,-0.194650,0.011566,-0.002492
528,-0.043602,-3.740050,7.791171,-43.891026,-3.205852,-6.906066,-23.777626,1.028830,-0.746083,0.978501,-0.205943,0.010127,-0.004521
529,-0.208464,-3.958059,7.535030,-55.403225,1.919213,-2.153183,-25.434433,0.946144,-0.874120,0.975421,-0.220064,0.009733,-0.005623
530,-0.180671,-4.117966,7.441193,-64.640549,-0.094234,-0.396762,-27.435518,0.954117,-0.924823,0.971426,-0.237058,0.010002,-0.005866
531,-0.117204,-4.520232,7.731042,-69.818291,-2.945071,-0.051562,-29.675396,0.905679,-0.907312,0.966611,-0.256005,0.009667,-0.005630
532,-0.285129,-4.746107,7.777687,-65.686264,1.088127,2.631145,-31.932020,0.900843,-0.854902,0.961385,-0.274994,0.009610,-0.005010
533,-0.294547,-5.067169,8.028668,-56.891712,0.987921,2.429997,-33.973289,0.975698,-0.802161,0.956332,-0.292074,0.010188,-0.004207
534,-0.130111,-5.468009,8.126941,-51.630474,-1.955361,-1.496040,-35.781048,0.971357,-0.780158,0.951607,-0.307126,0.010158,-0.003875
535,-0.169676,-6.194461,8.440018,-40.264313,0.637462,-1.951966,-37.312809,0.919683,-0.813862,0.947418,-0.319820,0.009876,-0.004162
536,-0.048203,-6.194218,8.138194,-21.889967,0.012046,-6.689997,-38.350414,0.840142,-0.934106,0.944482,-0.328382,0.009602,-0.005291
537,-0.383879,-6.093663,8.021971,-8.226175,8.074352,-2.623338,-38.855331,0.849031,-1.139877,0.943014,-0.332521,0.010295,-0.006916
538,-0.438489,-6.023302,7.845003,-7.461700,8.784772,-2.542236,-39.120884,1.013539,-1.383279,0.942219,-0.334663,0.012375,-0.008413
539,-0.216870,-5.991762,7.584929,-8.760998,3.824261,-8.277058,-39.396206,1.062168,-1.655910,0.941388,-0.336888,0.013596,-0.010480
540,-0.279633,-5.474411,7.223005,-12.463762,4.100300,-7.866765,-39.755020,0.992551,-1.947639,0.940301,-0.339810,0.013923,-0.013038
541,-0.487663,-5.526309,7.176212,-23.606106,7.915482,-2.051701,-40.360714,1.039362,-2.203047,0.938459,-0.344735,0.015143,-0.014915
542,-0.201851,-5.878298,7.203789,-36.021534,0.777068,-5.176587,-41.358006,1.069828,-2.388701,0.935398,-0.352858,0.016093,-0.016204
543,-0.011110,-6.059778,6.702165,-44.392189,-2.421406,-7.514102,-42.700397,0.907538,-2.528024,0.931180,-0.363805,0.015405,-0.017662
544,-0.233953,-6.330614,6.709839,-44.707500,2.492042,0.024394,-44.186481,0.822443,-2.619737,0.926369,-0.375855,0.015246,-0.018482
545,0.052685,-6.432633,6.546575,-36.327610,-2.134910,-4.479489,-45.537651,0.774083,-2.675607,0.921863,-0.386754,0.015262,-0.018914
546,0.074095,-6.783791,6.177840,-40.791107,-1.773810,-4.277757,-46.823421,0.623710,-2.730317,0.917451,-0.397098,0.014459,-0.019701
547,0.191944,-6.638760,6.022505,-34.449238,-2.869752,-8.752643,-48.078072,0.411408,-2.820065,0.913022,-0.407152,0.013302,-0.021011
548,0.156287,-6.875604,6.221962,-29.253452,-0.644736,-7.674431,-49.140354,0.167549,-2.957600,0.909164,-0.415634,0.012060,-0.022863
549,-0.072725,-6.801974,6.006516,-27.310719,4.610629,-2.764423,-50.083393,0.077998,-3.120582,0.905672,-0.423104,0.012142,-0.024381
550,-0.151030,-7.336061,6.306753,-29.623978,5.919432,0.749474,-51.032661,0.163640,-3.276962,0.902110,-0.430555,0.013605,-0.025189
551,0.061870,-7.486040,6.363504,-26.332455,1.137020,-3.545087,-51.965618,0.200280,-3.397765,0.898552,-0.437862,0.014559,-0.025885
552,-0.068130,-8.149441,6.889770,-22.650190,2.363775,1.437816,-52.782135,0.208036,-3.465832,0.895394,-0.444242,0.015067,-0.026282
553,0.122964,-8.314001,6.917721,-15.152246,-0.409672,-1.439897,-53.412273,0.227460,-3.491614,0.892934,-0.449151,0.015464,-0.026324
554,0.248572,-9.131395,7.323299,-11.151031,-0.244452,-4.196497,-53.850792,0.145346,-3.538709,0.891189,-0.452579,0.015112,-0.026955
555,0.198393,-9.191270,7.217933,-3.063023,3.265505,-6.988117,-54.087921,0.024283,-3.689168,0.890200,-0.454432,0.014824,-0.028573
556,-0.023063,-9.279651,7.301726,3.730111,10.542209,-4.295108,-54.076916,0.007150,-3.985929,0.890164,-0.454312,0.015865,-0.030947
557,-0.156832,-8.875575,6.962758,11.535394,14.982359,-2.908697,-53.823250,0.160569,-4.400539,0.891072,-0.452233,0.018626,-0.033601
558,-0.310096,-8.831470,6.880342,16.102249,17.534763,0.385181,-53.365162,0.448544,-4.861654,0.892772,-0.448492,0.022540,-0.036140
559,-0.252779,-8.373137,6.639911,21.372179,14.273893,0.240667,-52.745213,0.775655,-5.279127,0.895092,-0.443446,0.026514,-0.038255
560,-0.227496,-8.110060,6.256558,16.856161,10.457111,2.116568,-52.112938,1.058376,-5.581665,0.897455,-0.438313,0.029674,-0.039687
561,-0.275976,-8.171515,6.390303,15.186935,6.776587,4.966810,-51.582165,1.328731,-5.734680,0.899451,-0.433995,0.032190,-0.039999
562,-0.079024,-8.888271,5.916671,-12.201668,-0.199035,1.563663,-51.532948,1.482295,-5.752908,0.899646,-0.433536,0.033447,-0.039573
563,-0.058335,-8.500542,6.426229,-21.226988,-5.691540,-2.307280,-52.088367,1.411830,-5.683666,0.897551,-0.437942,0.032822,-0.039138
564,0.096049,-8.787194,7.620142,-32.503613,-11.342052,-6.911227,-52.980961,1.117174,-5.551981,0.894126,-0.445082,0.030317,-0.039001
565,-0.075539,-9.335838,8.465561,-41.932987,-9.800793,-1.665868,-54.218174,0.793036,-5.353402,0.889295,-0.454890,0.027434,-0.038419
566,-0.151329,-9.730548,8.548976,-47.057293,-7.702896,4.125545,-55.697666,0.659107,-5.090358,0.883416,-0.466446,0.025825,-0.036579
567,-0.229746,-9.692451,9.245896,-20.420031,-6.161998,11.948703,-56.817734,0.753457,-4.748737,0.878930,-0.475102,0.025488,-0.033313
568,-0.901294,-11.021930,9.107754,1.171318,-1.667457,30.356440,-57.129604,1.272566,-4.254206,0.877815,-0.477431,0.027493,-0.027290
569,-0.636904,-11.161210,7.109644,28.573925,-6.470807,29.320782,-56.614475,2.030414,-3.595592,0.880109,-0.473402,0.030466,-0.019219
570,-0.194396,-10.936878,5.890435,47.696953,-11.616485,22.342442,-55.314316,2.573936,-2.861757,0.885502,-0.463421,0.031476,-0.011690
571,-0.486339,-10.268798,5.051150,55.160164,-11.487164,25.919653,-53.562778,3.003190,-2.078484,0.892493,-0.449934,0.031560,-0.004380
572,-0.312378,-9.647386,4.322010,45.725742,-15.762621,16.325594,-51.838455,3.287770,-1.289785,0.899125,-0.436606,0.030718,0.002420
573,0.344115,-8.472579,3.656489,33.455181,-22.055305,-5.846837,-50.486450,3.028798,-0.687501,0.904241,-0.426162,0.026462,0.005846
574,-0.614261,-7.274757,4.071561,33.652756,-0.795466,17.164261,-49.347649,2.927546,-0.271906,0.908425,-0.417260,0.024203,0.008508
575,-0.663054,-6.663492,4.566323,34.190041,0.747631,16.498743,-48.195969,3.348840,0.096411,0.912448,-0.408146,0.026330,0.012698
576,-0.404316,-6.087614,5.203879,56.845383,-3.749893,2.811608,-46.663521,3.551832,0.351365,0.917744,-0.395950,0.027242,0.015088
577,-0.639527,-5.279175,5.458613,74.004906,1.819368,5.560518,-44.475750,3.627797,0.473965,0.925099,-0.378381,0.027734,0.015806
578,-0.547352,-4.808871,5.643197,70.988609,-0.776515,2.656009,-42.054623,3.733790,0.561042,0.932846,-0.358767,0.028652,0.016257
579,-0.160951,-4.736277,6.155787,66.324608,-9.665977,-10.405952,-39.766079,3.517701,0.578072,0.939881,-0.340082,0.027148,0.015180
580,-0.406964,-4.421728,6.225542,63.605484,-3.179790,-7.433949,-37.607151,3.164138,0.482270,0.946222,-0.322309,0.024779,0.012881
581,-0.419410,-4.409935,6.502323,48.741020,-0.721341,-7.328199,-35.744034,2.964841,0.322573,0.951400,-0.306857,0.023758,0.010618
582,-0.319104,-4.806471,7.116617,34.374996,-2.700320,-14.021709,-34.371971,2.713477,0.063729,0.955079,-0.295404,0.022456,0.007527
583,-0.612559,-4.718279,7.386556,39.345150,6.518229,-12.231265,-33.161659,2.522491,-0.334933,0.958200,-0.285236,0.021930,0.003481
584,-0.500411,-4.492161,7.563997,41.135845,2.984476,-16.607279,-31.841913,2.397653,-0.826614,0.961447,-0.274099,0.022097,-0.001196
585,-0.887934,-4.727476,8.387415,41.177151,12.021352,-11.448664,-30.492107,2.369549,-1.356008,0.964596,-0.262654,0.023059,-0.005977
586,-0.598755,-4.609939,8.479510,40.604351,3.741015,-15.581021,-29.151346,2.373424,-1.878872,0.967564,-0.251242,0.024166,-0.010653
587,-0.790818,-4.504982,8.384199,35.577595,9.570223,-7.627714,-27.899982,2.383644,-2.324055,0.970199,-0.240564,0.025070,-0.014664
588,-0.592972,-4.393041,8.711558,34.339558,2.153596,-8.230032,-26.748831,2.436145,-2.649613,0.972513,-0.230721,0.026023,-0.017572
589,-0.759102,-4.468616,8.743787,30.522945,6.166950,-1.844458,-25.676847,2.486597,-2.861093,0.974588,-0.221553,0.026695,-0.019515
590,-0.530489,-3.921725,8.499990,36.882000,0.497322,-2.609349,-24.558706,2.555905,-2.976061,0.976673,-0.211988,0.027307,-0.020626
591,-0.677947,-3.844109,8.755611,33.490669,3.925605,2.462740,-23.387356,2.622448,-3.007788,0.978773,-0.201968,0.027718,-0.021057
592,-0.588719,-3.400180,8.954662,40.577797,0.844361,2.148639,-22.151197,2.725758,-2.968104,0.980886,-0.191381,0.028307,-0.020842
593,-0.799655,-3.343518,8.996976,32.335052,6.030269,7.744382,-20.930687,2.892907,-2.856364,0.982861,-0.180908,0.029341,-0.019918
594,-0.650870,-3.263591,9.239409,27.823311,0.823789,5.471560,-19.919493,3.077173,-2.690308,0.984412,-0.172225,0.030497,-0.018470
595,-0.665394,-3.264546,9.310003,20.858109,-0.251424,5.119385,-19.099373,3.145138,-2.526530,0.985631,-0.165203,0.030712,-0.017181
596,-0.829629,-3.257948,9.355088,14.740965,3.471231,6.163575,-18.497107,3.256613,-2.365527,0.986486,-0.160040,0.031356,-0.015799
597,-0.565850,-3.347004,9.295613,4.094128,-3.881883,1.944137,-18.175703,3.292690,-2.235112,0.986940,-0.157300,0.031443,-0.014714
598,-0.421747,-3.363578,9.294291,-0.551627,-9.080343,-1.227162,-18.112341,3.091178,-2.156197,0.987080,-0.156816,0.029592,-0.014329
599,-0.358588,-3.507501,9.192622,-8.295388,-9.971698,-1.653497,-18.257103,2.774543,-2.102551,0.986950,-0.158138,0.026809,-0.014269
600,-0.106006,-3.406416,9.329401,-5.401114,-16.074183,-6.428120,-18.484972,2.320156,-2.093389,0.986710,-0.160188,0.022913,-0.014775
601,-0.086245,-3.542082,9.296456,-5.246838,-11.297443,-7.746184,-18.665373,1.812527,-2.172268,0.986511,-0.161822,0.018678,-0.016138
602,-0.140244,-3.460611,9.244073,-3.750069,-7.462653,-8.010747,-18.819639,1.432101,-2.320501,0.986306,-0.163199,0.015637,-0.017932
603,-0.326084,-3.501040,9.432274,-3.276996,-0.701639,-6.449655,-18.941103,1.225398,-2.504559,0.986117,-0.164261,0.014141,-0.019796
604,-0.328933,-3.225929,9.742356,5.227980,-1.104682,-5.528090,-18.912376,1.132182,-2.683616,0.986131,-0.164012,0.013590,-0.021475
605,-0.414174,-3.322627,9.524612,2.674323,0.536458,-2.181412,-18.782955,1.081823,-2.802237,0.986295,-0.162895,0.013301,-0.022583
606,-0.253111,-2.764870,9.914252,18.039959,-4.359176,-0.275375,-18.438065,1.008379,-2.820728,0.986781,-0.159941,0.012626,-0.022885
607,-0.160103,-2.994376,10.146152,15.950818,-7.370447,3.152522,-17.869825,0.837666,-2.714221,0.987589,-0.155094,0.010898,-0.022261
608,0.270095,-2.699198,10.005052,26.419943,-17.515688,1.539597,-17.161362,0.465866,-2.514708,0.988574,-0.149077,0.007293,-0.021091
609,0.127819,-2.764053,9.719320,24.615557,-11.132439,1.374097,-16.310148,0.022564,-2.330488,0.989684,-0.141819,0.003080,-0.020102
610,0.275067,-2.587452,9.419239,24.151478,-11.228292,1.355734,-15.497784,-0.323451,-2.184939,0.990677,-0.134860,-0.000226,-0.019272
611,0.198556,-2.795473,9.016220,9.324235,-6.340002,3.701457,-14.941143,-0.583836,-2.026730,0.991332,-0.130084,-0.002751,-0.018198
613,0.166319,-2.639601,8.705218,0.931876,-2.952113,3.944338,-14.771955,-0.700642,-1.863778,0.991540,-0.128632,-0.003972,-0.016914
614,-0.067009,-2.460684,8.648391,-5.057714,5.131641,4.521573,-14.842159,-0.629372,-1.736611,0.991484,-0.129226,-0.003488,-0.015736
615,0.012479,-2.354624,8.754303,-8.732009,2.764808,6.432158,-15.073257,-0.455041,-1.594189,0.991250,-0.131201,-0.002112,-0.014312
616,-0.124202,-2.398558,9.209834,-9.684599,5.557449,7.213573,-15.381390,-0.261478,-1.411251,0.990923,-0.133843,-0.000613,-0.012510
617,-0.089880,-2.474547,9.420068,-8.809808,3.710763,5.937840,-15.690056,-0.053934,-1.241393,0.990582,-0.136491,0.001012,-0.010796
618,-0.235763,-2.459445,9.635013,-3.249024,6.441935,6.043094,-15.890914,0.163233,-1.095328,0.990356,-0.138210,0.002732,-0.009270
619,-0.124798,-2.762238,9.720517,-8.262537,2.453394,7.333077,-16.081924,0.367102,-0.921717,0.990135,-0.139850,0.004297,-0.007516
620,0.041944,-2.893388,9.699024,-9.704283,-2.278461,4.236715,-16.380178,0.423829,-0.737509,0.989777,-0.142430,0.004578,-0.005843
621,0.026191,-2.888291,9.654743,-9.623268,-2.332835,4.087708,-16.701269,0.389708,-0.582752,0.989382,-0.145211,0.004103,-0.004538
622,0.255247,-2.854762,9.409381,-10.693546,-7.506367,0.079739,-17.039240,0.252939,-0.468696,0.988956,-0.148138,0.002789,-0.003718
623,0.317433,-2.844044,9.221416,-10.471198,-6.467120,-3.973119,-17.392036,0.011346,-0.461890,0.988496,-0.151191,0.000707,-0.003969
624,0.435760,-2.835799,9.127022,-7.371583,-6.069960,-8.538537,-17.689205,-0.250626,-0.597756,0.988091,-0.153764,-0.001359,-0.005491
625,0.143036,-2.857156,8.832072,-6.993806,5.187798,-7.664717,-17.927380,-0.347087,-0.850455,0.987752,-0.155826,-0.001835,-0.007803
626,0.215261,-3.154400,8.512335,-14.158774,5.048144,-11.860768,-18.278139,-0.285996,-1.212593,0.987243,-0.158848,-0.000783,-0.010844
627,-0.031493,-3.407068,8.283831,-21.881981,12.055937,-13.576726,-18.876871,-0.150941,-1.705332,0.986349,-0.163989,0.001141,-0.014896
628,-0.070820,-3.597829,8.425152,-27.456194,12.068487,-15.714099,-19.698874,0.067191,-2.298686,0.985064,-0.171014,0.004009,-0.019663
629,-0.366864,-3.902389,8.335657,-38.448753,19.160120,-15.704739,-20.799711,0.374109,-2.970158,0.983252,-0.180372,0.007888,-0.024902
630,-0.171916,-3.893540,8.657300,-37.152153,11.855334,-20.283077,-22.066389,0.635726,-3.716964,0.981020,-0.191097,0.011649,-0.030770
631,-0.387285,-3.862664,8.972893,-37.785885,15.371222,-19.235113,-23.324476,0.800416,-4.500341,0.978633,-0.201713,0.014772,-0.037040
632,-0.159284,-4.200956,9.646005,-40.920208,9.111573,-19.756058,-24.647552,0.909028,-5.259555,0.975975,-0.212849,0.017534,-0.043132
633,-0.248254,-4.337708,9.503601,-39.690594,10.810470,-18.215103,-26.002033,0.938064,-5.974138,0.973106,-0.224239,0.019688,-0.048934
634,-0.103017,-4.323302,9.637792,-30.949020,6.582034,-18.907761,-27.190348,0.920267,-6.656896,0.970420,-0.234203,0.021440,-0.054547
635,-0.130037,-4.678185,9.656927,-31.302578,5.448065,-17.201408,-28.237040,0.818223,-7.283266,0.967921,-0.242990,0.022404,-0.059857
636,0.010061,-4.965136,9.359243,-31.584545,2.848171,-16.626362,-29.292290,0.667971,-7.844010,0.965324,-0.251866,0.022921,-0.064704
637,-0.107852,-5.064002,8.849658,-30.044214,5.727218,-16.216309,-30.324877,0.519752,-8.390118,0.962679,-0.260533,0.023499,-0.069422
638,-0.025059,-4.960289,8.842121,-21.000748,4.017747,-16.379793,-31.179995,0.381699,-8.939813,0.960344,-0.267683,0.024144,-0.074175
639,-0.342151,-5.302785,8.676296,-23.470526,11.102244,-10.432952,-31.924387,0.362922,-9.452652,0.958241,-0.273816,0.025694,-0.078351
640,-0.280341,-5.265193,8.471029,-15.459930,10.458864,-9.844584,-32.577068,0.486322,-9.929712,0.956354,-0.279067,0.028332,-0.081884
641,-0.365760,-5.222859,8.433351,-4.481256,11.182797,-7.836304,-32.913719,0.630536,-10.372606,0.955234,-0.281652,0.030863,-0.085138
642,-0.351506,-4.931710,8.354604,10.347753,9.476603,-5.716594,-32.820709,0.797479,-10.749062,0.955207,-0.280641,0.033108,-0.087890
643,-0.256376,-5.247937,8.121606,3.545251,6.806986,-3.562755,-32.593388,0.942697,-11.025684,0.955572,-0.278545,0.034817,-0.089908
644,0.146447,-5.345728,8.165534,2.046806,-6.865366,-10.662127,-32.503258,0.814242,-11.225081,0.955610,-0.277840,0.034158,-0.091911
645,0.022120,-5.552160,8.041571,-6.706338,-2.792190,-7.692140,-32.582664,0.513990,-11.396261,0.955220,-0.278705,0.032136,-0.094048
646,0.250465,-5.719640,8.048996,-10.746937,-7.769744,-11.047260,-32.874641,0.196937,-11.563606,0.954298,-0.281360,0.030146,-0.096139
647,0.302123,-5.927703,7.977274,-18.229305,-6.625999,-11.820930,-33.357471,-0.212284,-11.751778,0.952840,-0.285678,0.027617,-0.098596
648,0.247925,-6.066616,8.066871,-12.383549,-0.868907,-8.979750,-33.866337,-0.508266,-11.971099,0.951286,-0.290108,0.026151,-0.101041
649,0.008979,-5.986246,7.877617,-12.840739,5.291793,-4.297249,-34.284733,-0.571062,-12.195584,0.950001,-0.293582,0.026574,-0.102966
650,0.042079,-5.919788,8.006037,-11.731947,4.008175,-1.722557,-34.692806,-0.500137,-12.365812,0.948818,-0.296860,0.027969,-0.104097
651,-0.174757,-5.685500,8.170259,4.609649,8.133977,4.993641,-34.811039,-0.302861,-12.436357,0.948509,-0.297645,0.029893,-0.104141
652,-0.221127,-5.328658,7.929269,18.615704,5.205800,4.893366,-34.424061,-0.026226,-12.426754,0.949598,-0.294194,0.031809,-0.103452
653,0.061583,-5.318828,7.591787,14.332472,-2.688986,-0.111989,-33.874962,0.053251,-12.384000,0.951057,-0.289580,0.031865,-0.103047
654,0.044688,-5.635335,7.747546,4.324326,-2.018818,-0.456100,-33.564045,-0.017245,-12.347970,0.951852,-0.287072,0.030909,-0.103011
655,-0.033230,-5.643754,7.687708,-2.511935,1.139738,-2.079286,-33.533821,-0.052798,-12.375048,0.951894,-0.286846,0.030654,-0.103333
656,-0.015159,-5.764887,7.572757,-17.934782,1.520721,-4.855843,-33.874466,-0.080069,-12.495795,0.950920,-0.289666,0.031040,-0.104312
657,0.049392,-6.022066,7.938204,-30.465162,-0.282175,-4.051862,-34.680836,-0.146696,-12.630092,0.948716,-0.296374,0.031569,-0.105375
658,-0.267264,-5.761178,8.388916,-23.518034,5.406000,3.260504,-35.580353,-0.084668,-12.690011,0.946324,-0.303738,0.033067,-0.105455
659,-0.261221,-5.350292,8.262263,-15.646638,2.871439,6.721342,-36.233101,0.124490,-12.635557,0.944691,-0.308949,0.035244,-0.104252
660,-0.058011,-5.364017,8.240315,-16.414095,-4.546900,7.997442,-36.766796,0.247723,-12.421635,0.943469,-0.313300,0.036159,-0.101988
661,0.057513,-5.325742,8.272568,-14.142489,-9.551818,9.272198,-37.274624,0.233213,-12.050562,0.942392,-0.317608,0.035463,-0.098816
662,-0.126607,-5.335538,8.290459,-13.632791,-7.976077,14.752520,-37.735554,0.245037,-11.555191,0.941528,-0.321538,0.034567,-0.094570
663,-0.030325,-5.537048,8.201335,-16.991632,-12.179340,14.578171,-38.243061,0.281045,-10.963018,0.940579,-0.325853,0.033598,-0.089454
664,0.137894,-5.572136,8.148796,-15.235074,-16.908564,12.026509,-38.777706,0.177841,-10.314354,0.939514,-0.330502,0.031299,-0.084277
665,0.095195,-5.572886,8.006192,-14.890853,-16.449810,12.676906,-39.278957,0.005093,-9.644676,0.938493,-0.334907,0.028296,-0.079161
666,0.034359,-5.689145,7.905463,-16.782864,-14.699310,15.011695,-39.807365,-0.101464,-8.958306,0.937371,-0.339465,0.025757,-0.073732
667,0.174690,-5.719363,7.657193,-18.105593,-17.223028,13.527329,-40.390533,-0.201993,-8.251698,0.936044,-0.344444,0.023188,-0.068131
668,0.173976,-5.710318,7.451461,-18.433296,-16.955210,14.031367,-41.002991,-0.334323,-7.532187,0.934569,-0.349654,0.020277,-0.062543
669,0.202561,-5.908101,7.347845,-21.673626,-17.026922,14.063256,-41.676338,-0.450257,-6.806544,0.932851,-0.355318,0.017451,-0.056875
670,0.169538,-6.037015,7.174385,-23.031305,-16.067257,14.769893,-42.427624,-0.537766,-6.080287,0.930824,-0.361568,0.014822,-0.051137
671,0.276583,-6.099555,6.921731,-24.733286,-17.966005,12.733345,-43.231018,-0.642050,-5.358472,0.928550,-0.368211,0.012016,-0.045518
672,0.293702,-6.408541,6.807562,-30.593801,-17.228189,12.239347,-44.161953,-0.778498,-4.652498,0.925765,-0.375854,0.008968,-0.040163
673,0.275671,-6.638325,6.461928,-37.189793,-15.037325,10.761611,-45.301037,-0.890359,-4.001655,0.922176,-0.385113,0.006279,-0.035210
674,0.296507,-6.842581,6.284921,-40.692230,-12.515059,8.409827,-46.607887,-0.979401,-3.449381,0.917868,-0.395651,0.004060,-0.031020
675,0.225458,-7.189553,6.341198,-42.931973,-7.785751,9.039626,-48.009098,-0.994585,-3.003505,0.913072,-0.406862,0.002735,-0.027470
676,0.148117,-7.551291,6.501871,-41.484722,-3.957876,9.729509,-49.421501,-0.888290,-2.649693,0.908085,-0.418076,0.002625,-0.024243
677,0.114648,-7.622526,6.694715,-30.497623,-2.207670,9.219780,-50.624863,-0.712105,-2.367749,0.903725,-0.427571,0.003217,-0.021333
678,0.033828,-7.748564,7.173142,-14.619591,-0.860875,11.192217,-51.379333,-0.479993,-2.113725,0.900961,-0.433489,0.004222,-0.018437
679,-0.175007,-7.755050,7.402541,0.425279,1.434757,14.863428,-51.617271,-0.134502,-1.850472,0.900127,-0.435327,0.005974,-0.015048
680,-0.070049,-7.498105,7.361068,14.373294,-1.298379,9.606247,-51.370441,0.185753,-1.597891,0.901110,-0.433364,0.007504,-0.011863
681,-0.186081,-7.360389,7.367197,24.666306,-0.041261,6.202139,-50.718983,0.376316,-1.414456,0.903582,-0.428225,0.008254,-0.009747
682,-0.224608,-7.284472,7.225936,26.676550,1.463096,1.311007,-49.862823,0.487490,-1.352462,0.906763,-0.421454,0.008832,-0.008909
683,-0.167853,-7.052032,6.902874,23.270386,2.217068,-5.038207,-49.031136,0.479889,-1.439266,0.909791,-0.414856,0.009021,-0.009690
684,0.000161,-6.885047,6.636090,16.403154,1.233105,-12.374415,-48.371513,0.299510,-1.673735,0.912137,-0.409616,0.008368,-0.012253
685,0.009222,-7.105512,6.605318,7.017597,3.562963,-13.498908,-47.982128,0.031155,-2.020461,0.913469,-0.406527,0.007417,-0.015997
686,0.095205,-7.280417,6.335191,-4.493115,4.060475,-12.758371,-47.939522,-0.209083,-2.407703,0.913541,-0.406199,0.006868,-0.019939
687,0.024579,-7.330428,6.079646,-11.286870,6.241680,-8.567554,-48.200729,-0.359097,-2.772749,0.912529,-0.408284,0.007020,-0.023365
688,0.048247,-7.502056,6.103491,-11.791492,5.086586,-6.205038,-48.583412,-0.418018,-3.077248,0.911088,-0.411321,0.007722,-0.025974
689,0.005601,-7.747581,6.109435,-15.869025,3.288558,-2.625676,-49.042915,-0.436938,-3.279184,0.909382,-0.414960,0.008407,-0.027613
690,0.216012,-7.692173,5.983222,-11.091901,-4.947029,-8.140779,-49.491413,-0.591129,-3.375274,0.907705,-0.418543,0.007645,-0.028904
691,0.430033,-7.439456,5.785518,-1.254332,-10.107480,-14.796268,-49.696259,-1.044912,-3.432381,0.906865,-0.420256,0.004314,-0.031005
692,0.721407,-7.284622,5.811893,2.338020,-15.031406,-24.043097,-49.675690,-1.809505,-3.532184,0.906752,-0.420241,-0.001379,-0.034595
693,0.832175,-7.381914,6.045976,2.202306,-13.684769,-29.288713,-49.591579,-2.796640,-3.743562,0.906720,-0.419760,-0.008447,-0.039872
694,0.816392,-7.419035,6.242557,4.097568,-8.888393,-30.975935,-49.465755,-3.804855,-4.109835,0.906686,-0.418970,-0.015139,-0.046431
695,0.606577,-7.302954,6.358741,5.352735,-1.335200,-26.142296,-49.272446,-4.638194,-4.601870,0.906819,-0.417655,-0.020030,-0.053318
696,0.461898,-7.376363,6.730567,7.709242,5.565149,-19.915958,-49.007523,-5.172592,-5.159565,0.907243,-0.415759,-0.022369,-0.059611
697,0.335973,-7.510421,7.014547,12.474997,10.725203,-13.221745,-48.618931,-5.409350,-5.730230,0.908211,-0.412842,-0.022396,-0.064904
698,0.337339,-7.425344,7.027991,21.008274,11.342215,-7.058968,-48.013870,-5.416985,-6.232190,0.910082,-0.408138,-0.021012,-0.068798
699,0.594552,-7.210126,7.095781,30.400295,7.420841,-7.236359,-47.120255,-5.381374,-6.625674,0.913016,-0.401090,-0.019886,-0.071645
700,0.765941,-7.130675,7.257046,38.781052,5.668872,-7.696199,-45.936161,-5.411453,-6.956448,0.916884,-0.391702,-0.019736,-0.074184
701,0.927832,-7.035267,7.395687,48.173832,3.119171,-7.932917,-44.459652,-5.492780,-7.245063,0.921618,-0.379936,-0.020389,-0.076511
702,1.008460,-6.870206,7.514616,54.596874,0.951982,-7.976646,-42.723885,-5.626071,-7.484800,0.927025,-0.366027,-0.021861,-0.078552
703,1.081973,-6.569620,7.577066,57.452625,-1.436203,-10.329535,-40.834572,-5.835018,-7.707838,0.932652,-0.350821,-0.024176,-0.080625
704,1.101371,-6.186463,7.662563,59.442936,-2.728178,-10.514207,-38.863647,-6.110798,-7.930788,0.938217,-0.334893,-0.027171,-0.082812
705,1.135961,-5.878589,7.894320,61.807854,-3.712558,-8.627972,-36.823082,-6.391069,-8.117787,0.943715,-0.318302,-0.030437,-0.084616
706,1.160722,-5.627023,8.071682,60.466793,-4.073035,-6.199901,-34.771610,-6.640425,-8.243181,0.949005,-0.301504,-0.033687,-0.085735
707,1.222230,-5.332033,8.098380,58.236076,-4.781500,-4.123250,-32.786648,-6.858345,-8.304666,0.953893,-0.285140,-0.036833,-0.086178
708,1.218384,-5.040524,8.172824,57.605328,-2.427307,-0.977330,-30.855455,-7.004900,-8.313643,0.958457,-0.269096,-0.039488,-0.085953
709,1.163387,-5.078278,8.200474,49.787590,1.874195,3.124145,-29.070408,-6.994796,-8.278284,0.962566,-0.254116,-0.040815,-0.085009
710,0.944693,-4.971273,8.138535,42.724213,8.833561,7.378380,-27.537184,-6.754500,-8.209055,0.966088,-0.241074,-0.040065,-0.083383
711,0.984121,-4.809922,7.951373,33.169495,7.872396,7.598559,-26.283495,-6.393200,-8.112905,0.968963,-0.230280,-0.038108,-0.081426
712,0.800259,-4.710204,7.917558,22.682701,12.204868,9.772200,-25.365175,-5.965800,-7.997594,0.971111,-0.222259,-0.035355,-0.079339
713,0.655692,-4.725374,7.924129,11.431578,15.718678,12.135819,-24.809799,-5.389436,-7.864241,0.972585,-0.217225,-0.031094,-0.076975
714,0.462692,-4.553967,8.084713,7.567808,19.444239,13.886782,-24.506269,-4.675777,-7.714658,0.973612,-0.214256,-0.025508,-0.074323
716,0.404148,-4.509100,8.222003,2.885289,18.327389,15.052155,-24.345407,-3.903146,-7.535633,0.974366,-0.212469,-0.019369,-0.071364
717,0.176015,-4.419948,8.568439,6.060471,21.358534,16.662666,-24.209204,-3.082842,-7.325624,0.975056,-0.210873,-0.012856,-0.068071
718,0.155998,-4.180872,8.797195,15.621359,18.110914,16.676090,-23.858992,-2.255848,-7.085676,0.976092,-0.207463,-0.006452,-0.064510
719,0.133957,-3.935716,9.018791,24.434847,13.605844,17.016897,-23.201668,-1.547196,-6.781069,0.977608,-0.201504,-0.001311,-0.060638
720,0.177352,-3.654347,9.196543,33.115196,7.548026,16.690121,-22.251293,-1.005131,-6.398408,0.979545,-0.193133,0.002175,-0.056447
721,0.298960,-3.368691,9.340518,39.773037,0.159580,14.333795,-21.043308,-0.695153,-5.964476,0.981779,-0.182667,0.003544,-0.052257
722,0.316510,-3.119168,9.393275,42.577877,-3.928259,12.923424,-19.676308,-0.596193,-5.515941,0.984097,-0.170912,0.003101,-0.048297
723,0.381172,-2.977923,9.495100,40.906456,-7.675703,10.902339,-18.290056,-0.649992,-5.077144,0.986265,-0.159024,0.001445,-0.044629
724,0.360870,-2.828194,9.509686,39.529011,-8.306212,8.998557,-16.954865,-0.803445,-4.680004,0.988183,-0.147576,-0.000910,-0.041415
725,0.259725,-2.676570,9.483156,38.019665,-6.082722,7.915761,-15.667821,-0.954529,-4.341985,0.989879,-0.136512,-0.003083,-0.038662
726,0.174290,-2.509279,9.423254,35.586670,-3.332331,7.311015,-14.446167,-1.040234,-4.056316,0.991361,-0.125968,-0.004550,-0.036249
727,0.110637,-2.394551,9.444366,31.506113,-0.968749,6.933255,-13.332566,-1.052892,-3.808848,0.992613,-0.116321,-0.005263,-0.034072
728,0.015366,-2.313379,9.463054,27.082008,1.907891,6.746457,-12.360047,-0.986944,-3.590205,0.993635,-0.107864,-0.005186,-0.032069
729,-0.010604,-2.174031,9.456352,23.141359,2.295740,6.355499,-11.526234,-0.873204,-3.391272,0.994458,-0.100593,-0.004607,-0.030205
730,0.070980,-2.110325,9.506849,17.060192,-0.266934,5.268074,-10.858918,-0.802405,-3.207835,0.995080,-0.094776,-0.004320,-0.028526
731,0.123670,-2.072654,9.558208,12.484035,-1.771128,3.615559,-10.368700,-0.808468,-3.055940,0.995513,-0.090514,-0.004614,-0.027192
732,0.177951,-2.013936,9.534835,9.128287,-2.604821,1.512028,-10.009939,-0.865129,-2.958852,0.995810,-0.087405,-0.005266,-0.026377
733,0.188751,-1.909527,9.625285,4.471376,-2.587058,-0.652737,-9.783754,-0.947938,-2.929822,0.995980,-0.085456,-0.006059,-0.026176
734,0.271335,-1.820333,9.723941,2.788315,-4.678789,-4.178735,-9.661732,-1.080920,-2.988715,0.996044,-0.084427,-0.007200,-0.026779
735,0.286817,-1.746187,9.716336,0.708638,-3.282302,-7.245740,-9.600111,-1.243625,-3.154235,0.996032,-0.083940,-0.008507,-0.028332
736,0.347003,-1.734070,9.686432,-6.262397,-3.599208,-10.499276,-9.686422,-1.406276,-3.426644,0.995878,-0.084751,-0.009698,-0.030825
737,0.312187,-1.705740,9.857931,-11.373060,-1.896519,-12.891629,-9.970817,-1.563190,-3.795177,0.995539,-0.087296,-0.010705,-0.034170
738,0.345286,-1.736274,9.793773,-15.034264,-2.609583,-14.612452,-10.398453,-1.718239,-4.233156,0.995044,-0.091099,-0.011576,-0.038135
739,0.375223,-1.787421,9.719483,-18.038588,-3.248918,-14.391834,-10.935188,-1.903730,-4.690334,0.994415,-0.095866,-0.012625,-0.042309
740,0.512976,-1.853180,9.809982,-16.920218,-6.040944,-13.582234,-11.502685,-2.146414,-5.117762,0.993716,-0.100926,-0.014144,-0.046289
741,0.460743,-1.912038,9.824234,-12.400970,-3.234109,-11.036090,-11.976602,-2.381259,-5.488431,0.993084,-0.105173,-0.015648,-0.049771
742,0.525121,-1.858700,9.633679,-5.984914,-4.011525,-8.420012,-12.270480,-2.567371,-5.780330,0.992638,-0.107836,-0.016859,-0.052511
743,0.524860,-2.033403,9.699997,-5.602559,-2.996220,-4.875652,-12.454702,-2.728825,-5.972075,0.992334,-0.109529,-0.017990,-0.054350
744,0.465289,-1.963678,9.748882,8.760872,-0.249999,-0.992466,-12.397998,-2.802746,-6.056020,0.992328,-0.109083,-0.018577,-0.055137
745,0.405142,-1.880230,9.628661,22.942881,1.775895,5.098552,-11.872602,-2.763397,-5.994481,0.992858,-0.104505,-0.018545,-0.054483
746,0.448513,-1.779465,9.708141,37.814713,-0.183405,10.892327,-10.872198,-2.684678,-5.738240,0.993871,-0.095758,-0.018551,-0.052032
747,0.440225,-1.805039,9.786257,44.621048,-0.308168,15.073747,-9.518270,-2.615983,-5.310314,0.995135,-0.083910,-0.018881,-0.048045
748,0.400244,-1.486340,9.751770,54.601025,1.203704,16.439899,-7.888070,-2.521574,-4.793015,0.996455,-0.069623,-0.019056,-0.043218
749,0.366664,-1.491477,9.758041,44.903034,2.641368,15.902818,-6.252641,-2.391898,-4.265769,0.997560,-0.055263,-0.018797,-0.038291
750,0.258674,-1.326507,9.795704,31.322992,4.995613,11.521123,-5.000221,-2.220160,-3.823383,0.998276,-0.044235,-0.017889,-0.034166
751,0.216078,-1.150790,9.809585,17.979061,5.385064,6.970278,-4.189354,-2.023020,-3.530226,0.998682,-0.037071,-0.016507,-0.031422
752,0.195326,-0.953924,9.825860,9.688236,4.922067,3.911764,-3.733882,-1.839109,-3.361265,0.998895,-0.033031,-0.015078,-0.029832
753,0.208590,-0.886841,9.829680,0.196554,4.323220,2.171417,-3.571909,-1.678875,-3.269949,0.998987,-0.031568,-0.013748,-0.028971
754,0.232552,-0.752528,9.849082,1.810308,1.437191,1.243199,-3.539890,-1.579481,-3.219184,0.999022,-0.031258,-0.012904,-0.028498
755,0.260421,-0.717004,9.843360,1.209169,-0.035953,1.873076,-3.490949,-1.552994,-3.168738,0.999051,-0.030820,-0.012698,-0.028046
756,0.251166,-0.776693,9.888038,-2.993484,0.372693,1.642169,-3.522266,-1.543804,-3.110579,0.999058,-0.031084,-0.012626,-0.027540
757,0.224768,-0.768166,9.881272,-0.328752,1.061733,1.246402,-3.578879,-1.516943,-3.063994,0.999056,-0.031566,-0.012391,-0.027133
