seq,ax,ay,az,wroll,wpitch,wyaw,roll,pitch,yaw,q0,q1,q2,q3
5508,-0.156891,-7.229904,-6.541232,-0.235336,0.207098,0.046874,-132.137131,0.921903,-178.981186,0.010959,-0.004863,0.913995,-0.405549
5510,-0.161185,-7.231616,-6.582655,-0.232285,0.228461,0.065185,-132.154816,0.927609,-178.979507,0.011010,-0.004858,0.914057,-0.405407
5511,-0.162443,-7.228836,-6.581238,-0.160565,0.213201,0.083496,-132.183716,0.927624,-178.986984,0.010983,-0.004801,0.914160,-0.405177
5512,-0.162800,-7.223236,-6.578485,-0.133099,0.075868,0.072814,-132.208832,0.929744,-178.992630,0.010979,-0.004751,0.914249,-0.404977
5513,-0.157793,-7.215962,-6.583833,-0.131574,0.005676,0.075866,-132.233963,0.932183,-178.995651,0.010986,-0.004720,0.914338,-0.404777
5514,-0.153622,-7.210093,-6.587988,-0.061381,-0.046206,0.094177,-132.260727,0.932381,-178.997437,0.010980,-0.004708,0.914432,-0.404563
5515,-0.150254,-7.204659,-6.585770,-0.000344,-0.075198,0.100281,-132.285385,0.930706,-178.998489,0.010962,-0.004708,0.914519,-0.404367
5517,-0.146537,-7.202279,-6.588239,-0.036965,-0.078250,0.085022,-132.308319,0.926638,-178.999039,0.010927,-0.004720,0.914600,-0.404184
5518,-0.156383,-7.213495,-6.584295,-0.047648,-0.066043,0.088073,-132.326126,0.925062,-178.999466,0.010912,-0.004724,0.914663,-0.404042
5519,-0.153527,-7.214008,-6.582314,-0.055277,-0.056887,0.075866,-132.336716,0.926216,-178.999939,0.010919,-0.004717,0.914701,-0.403957
5520,-0.158800,-7.220349,-6.576008,-0.081217,-0.059939,0.056029,-132.341766,0.927883,-179.000031,0.010932,-0.004711,0.914718,-0.403917
5521,-0.155983,-7.222291,-6.578363,-0.139203,-0.056887,0.030089,-132.343842,0.929737,-178.999527,0.010949,-0.004709,0.914725,-0.403900
5522,-0.157259,-7.223608,-6.580071,-0.117840,-0.040102,0.030089,-132.346359,0.930179,-178.998978,0.010954,-0.004712,0.914734,-0.403880
5524,-0.156650,-7.221406,-6.582957,-0.117840,-0.027895,0.030089,-132.349792,0.930388,-178.998810,0.010956,-0.004713,0.914746,-0.403853
5525,-0.155631,-7.217311,-6.582827,-0.108685,-0.029421,0.031615,-132.355118,0.929833,-178.998825,0.010951,-0.004715,0.914765,-0.403810
5526,-0.147768,-7.214827,-6.581846,-0.090374,-0.030947,0.031615,-132.360825,0.925917,-178.998825,0.010920,-0.004729,0.914785,-0.403765
5527,-0.147645,-7.215289,-6.581602,-0.053751,-0.030947,0.051452,-132.365067,0.919452,-178.999023,0.010867,-0.004751,0.914801,-0.403732
5528,-0.151104,-7.221834,-6.576227,-0.032387,-0.037050,0.065185,-132.364212,0.915457,-178.999466,0.010834,-0.004761,0.914798,-0.403739
5529,-0.148650,-7.221871,-6.571723,-0.006448,-0.049258,0.068237,-132.357758,0.912975,-178.999786,0.010813,-0.004767,0.914775,-0.403791
5531,-0.149014,-7.222222,-6.571006,0.005760,-0.052310,0.072815,-132.349518,0.910393,-178.999985,0.010792,-0.004774,0.914746,-0.403857
5532,-0.150307,-7.224979,-6.578616,-0.009500,-0.053836,0.083496,-132.343506,0.908994,-179.000336,0.010780,-0.004775,0.914725,-0.403905
5533,-0.154411,-7.221690,-6.579903,-0.020181,-0.043154,0.075866,-132.341583,0.909871,-179.000885,0.010785,-0.004768,0.914718,-0.403920
5534,-0.150392,-7.214767,-6.582858,-0.032387,-0.052310,0.074340,-132.344498,0.910715,-179.001434,0.010790,-0.004760,0.914728,-0.403897
5535,-0.151521,-7.205864,-6.588201,-0.043069,-0.055362,0.074340,-132.354279,0.910469,-179.001907,0.010786,-0.004758,0.914763,-0.403819
5536,-0.151603,-7.205132,-6.583142,-0.075115,-0.047732,0.069763,-132.366547,0.910592,-179.002426,0.010785,-0.004755,0.914806,-0.403721
5538,-0.153999,-7.203151,-6.576683,-0.044596,-0.061465,0.083496,-132.374771,0.911933,-179.002899,0.010793,-0.004747,0.914835,-0.403655
5539,-0.155713,-7.204321,-6.572975,-0.027811,-0.069095,0.092651,-132.378113,0.915353,-179.003311,0.010819,-0.004732,0.914847,-0.403628
5540,-0.156055,-7.201447,-6.577085,-0.043069,-0.066043,0.075866,-132.381226,0.919224,-179.003571,0.010849,-0.004717,0.914858,-0.403603
5541,-0.155372,-7.208873,-6.575610,-0.081217,-0.069094,0.060607,-132.384354,0.922050,-179.003448,0.010872,-0.004708,0.914869,-0.403578
5542,-0.159165,-7.205615,-6.581953,-0.070537,-0.075198,0.060607,-132.387817,0.925520,-179.003052,0.010901,-0.004699,0.914881,-0.403550
5543,-0.155938,-7.201274,-6.585640,-0.091898,-0.064517,0.043822,-132.395920,0.928528,-179.002594,0.010926,-0.004693,0.914909,-0.403485
5545,-0.155750,-7.201536,-6.590216,-0.096477,-0.069095,0.031614,-132.407150,0.929326,-179.001923,0.010934,-0.004697,0.914949,-0.403395
5546,-0.153814,-7.207633,-6.585347,-0.075113,-0.073672,0.034666,-132.415054,0.929002,-179.000992,0.010935,-0.004706,0.914976,-0.403332
5547,-0.151335,-7.212597,-6.586134,-0.015604,-0.069095,0.049926,-132.416229,0.927111,-179.000183,0.010922,-0.004719,0.914981,-0.403323
5548,-0.154999,-7.216853,-6.585589,0.008811,-0.067569,0.046874,-132.413040,0.925871,-178.999542,0.010915,-0.004729,0.914969,-0.403348
5549,-0.155404,-7.221922,-6.577269,0.021018,-0.069094,0.046874,-132.404358,0.926386,-178.998779,0.010922,-0.004732,0.914939,-0.403417
5550,-0.152358,-7.228477,-6.574186,0.024072,-0.084354,0.049926,-132.389847,0.926138,-178.997757,0.010924,-0.004740,0.914888,-0.403533
5552,-0.153048,-7.223937,-6.572281,0.024072,-0.091983,0.054503,-132.374863,0.925314,-178.996536,0.010923,-0.004751,0.914835,-0.403653
5553,-0.155622,-7.209451,-6.574288,0.011864,-0.091983,0.056029,-132.367096,0.926084,-178.995392,0.010933,-0.004757,0.914807,-0.403715
5554,-0.148799,-7.211166,-6.571870,0.019493,-0.104191,0.074340,-132.364151,0.925636,-178.994400,0.010933,-0.004766,0.914797,-0.403738
5555,-0.147521,-7.212223,-6.576425,0.037804,-0.102665,0.089600,-132.361389,0.922508,-178.993668,0.010911,-0.004783,0.914787,-0.403760
5556,-0.146529,-7.201297,-6.581251,0.048485,-0.096561,0.091125,-132.363846,0.918857,-178.993301,0.010883,-0.004799,0.914796,-0.403741
5557,-0.153073,-7.201561,-6.584503,0.034752,-0.084354,0.094177,-132.371536,0.917696,-178.993301,0.010873,-0.004803,0.914823,-0.403680
5559,-0.152553,-7.208852,-6.580018,0.011864,-0.095035,0.088073,-132.376785,0.919130,-178.993240,0.010885,-0.004799,0.914842,-0.403638
5560,-0.150872,-7.210902,-6.578175,0.004234,-0.066043,0.078918,-132.377411,0.919275,-178.993149,0.010886,-0.004800,0.914844,-0.403633
5561,-0.151755,-7.204656,-6.581338,-0.036965,-0.056887,0.048399,-132.379944,0.918099,-178.993088,0.010877,-0.004804,0.914853,-0.403613
5562,-0.147069,-7.202779,-6.575472,-0.052226,-0.049258,0.046874,-132.384567,0.914967,-178.992905,0.010852,-0.004817,0.914869,-0.403576
5563,-0.146040,-7.208457,-6.574718,-0.047648,-0.053835,0.048400,-132.385971,0.909861,-178.992706,0.010812,-0.004837,0.914874,-0.403565
5564,-0.144246,-7.202698,-6.571685,-0.038492,-0.047732,0.046874,-132.385666,0.904196,-178.992493,0.010768,-0.004859,0.914873,-0.403568
5566,-0.147729,-7.196751,-6.577185,-0.041544,-0.067569,0.051452,-132.388992,0.900145,-178.992218,0.010736,-0.004876,0.914885,-0.403542
5567,-0.144184,-7.204924,-6.573849,-0.026285,-0.076724,0.068237,-132.391953,0.897287,-178.991806,0.010715,-0.004889,0.914896,-0.403519
5568,-0.153610,-7.214083,-6.576290,-0.023232,-0.082828,0.075866,-132.389359,0.897590,-178.991409,0.010719,-0.004891,0.914887,-0.403539
5569,-0.150508,-7.206791,-6.574080,-0.036965,-0.069095,0.066711,-132.386490,0.900426,-178.991089,0.010743,-0.004883,0.914876,-0.403562
5570,-0.142792,-7.213895,-6.578624,-0.029336,-0.056887,0.074340,-132.384811,0.898502,-178.991074,0.010727,-0.004890,0.914871,-0.403575
5571,-0.145271,-7.221934,-6.573228,-0.021707,-0.056887,0.085022,-132.378952,0.894494,-178.991364,0.010695,-0.004901,0.914850,-0.403623
5573,-0.152534,-7.222558,-6.576131,-0.027811,-0.058413,0.088074,-132.370575,0.894849,-178.991745,0.010696,-0.004896,0.914820,-0.403690
5574,-0.144234,-7.218658,-6.573579,-0.004921,-0.049258,0.094177,-132.363815,0.895082,-178.992340,0.010696,-0.004890,0.914797,-0.403743
5575,-0.147309,-7.223706,-6.571455,0.036279,-0.058413,0.104859,-132.355377,0.893453,-178.993134,0.010681,-0.004889,0.914767,-0.403811
5576,-0.150916,-7.217813,-6.568038,0.036279,-0.070621,0.094177,-132.345856,0.894798,-178.993652,0.010690,-0.004879,0.914733,-0.403887
5577,-0.149435,-7.215496,-6.573439,0.031701,-0.078250,0.080444,-132.340347,0.896942,-178.993713,0.010707,-0.004870,0.914714,-0.403931
5578,-0.147298,-7.206948,-6.571973,0.039330,-0.075198,0.077392,-132.339783,0.897316,-178.993591,0.010711,-0.004870,0.914712,-0.403935
5580,-0.149669,-7.210126,-6.570683,0.030175,-0.085880,0.065185,-132.340271,0.897545,-178.993240,0.010714,-0.004872,0.914714,-0.403931
5581,-0.147924,-7.211399,-6.574143,0.034752,-0.084354,0.074340,-132.340286,0.898016,-178.992722,0.010719,-0.004874,0.914714,-0.403931
5582,-0.155564,-7.221443,-6.574863,0.051537,-0.078250,0.089599,-132.338135,0.900894,-178.992554,0.010743,-0.004865,0.914706,-0.403948
5583,-0.151640,-7.217478,-6.568052,0.046960,-0.062991,0.072814,-132.332565,0.904741,-178.992569,0.010774,-0.004851,0.914686,-0.403992
5584,-0.150352,-7.216630,-6.566704,0.017968,-0.059939,0.065185,-132.326981,0.905651,-178.992538,0.010782,-0.004848,0.914667,-0.404036
5585,-0.154446,-7.215487,-6.575097,-0.021707,-0.044680,0.056029,-132.325851,0.906909,-178.992584,0.010792,-0.004843,0.914662,-0.404045
5586,-0.153325,-7.208724,-6.576417,-0.047648,-0.041628,0.037718,-132.331161,0.908637,-178.992645,0.010805,-0.004837,0.914681,-0.404003
5587,-0.149304,-7.193768,-6.579028,-0.062906,-0.049258,0.040770,-132.343735,0.908099,-178.992569,0.010800,-0.004840,0.914725,-0.403903
5588,-0.151327,-7.198843,-6.583513,-0.059856,-0.046206,0.056029,-132.359985,0.906992,-178.992706,0.010790,-0.004845,0.914783,-0.403773
5589,-0.152622,-7.208417,-6.584117,-0.053751,-0.033998,0.046874,-132.371765,0.907111,-178.993042,0.010790,-0.004843,0.914824,-0.403679
5590,-0.150089,-7.215080,-6.578513,-0.033914,-0.035524,0.054504,-132.375519,0.906620,-178.993347,0.010784,-0.004842,0.914838,-0.403649
5591,-0.149909,-7.216086,-6.573205,-0.032387,-0.046206,0.048400,-132.372696,0.905259,-178.993439,0.010773,-0.004846,0.914828,-0.403672
5592,-0.150722,-7.219466,-6.571646,-0.041544,-0.043154,0.031615,-132.366806,0.904081,-178.993134,0.010765,-0.004852,0.914807,-0.403719
5593,-0.150260,-7.218293,-6.571640,-0.043069,-0.049258,0.039244,-132.360626,0.903128,-178.992661,0.010760,-0.004859,0.914785,-0.403768
5594,-0.150947,-7.211790,-6.571908,-0.009499,-0.055361,0.060607,-132.356827,0.902932,-178.992432,0.010759,-0.004861,0.914772,-0.403799
5595,-0.149745,-7.203156,-6.572267,0.002708,-0.066043,0.063659,-132.357086,0.903165,-178.992325,0.010761,-0.004861,0.914773,-0.403796
5596,-0.149749,-7.205064,-6.578650,-0.001870,-0.067569,0.072814,-132.361206,0.903217,-178.992279,0.010762,-0.004862,0.914787,-0.403764
5597,-0.149450,-7.217052,-6.579341,0.002707,-0.067569,0.078918,-132.363403,0.903249,-178.992355,0.010762,-0.004861,0.914795,-0.403746
5598,-0.151823,-7.210000,-6.579640,-0.001870,-0.070621,0.074340,-132.364151,0.904115,-178.992386,0.010768,-0.004858,0.914798,-0.403740
5599,-0.155914,-7.208797,-6.579718,-0.012551,-0.085880,0.066711,-132.367249,0.907539,-178.992081,0.010797,-0.004848,0.914808,-0.403715
5600,-0.156573,-7.213810,-6.578995,-0.018655,-0.084354,0.069762,-132.369171,0.912619,-178.991547,0.010839,-0.004835,0.914815,-0.403699
5601,-0.160910,-7.221222,-6.578576,-0.011026,-0.084354,0.077392,-132.367142,0.919148,-178.991074,0.010893,-0.004816,0.914808,-0.403714
5602,-0.160533,-7.213419,-6.579068,-0.029337,-0.081302,0.072815,-132.365417,0.926456,-178.990692,0.010953,-0.004793,0.914801,-0.403727
5603,-0.157444,-7.219533,-6.579481,-0.047648,-0.081302,0.071288,-132.365250,0.931381,-178.990280,0.010993,-0.004779,0.914800,-0.403728
5604,-0.153131,-7.219913,-6.578919,-0.052226,-0.078250,0.074340,-132.363846,0.932551,-178.989899,0.011004,-0.004777,0.914795,-0.403739
5605,-0.153426,-7.215268,-6.579658,-0.053751,-0.070620,0.072814,-132.363831,0.931661,-178.989700,0.010998,-0.004782,0.914795,-0.403740
5606,-0.148803,-7.208914,-6.582360,-0.049174,-0.069095,0.078918,-132.367737,0.929049,-178.989716,0.010977,-0.004792,0.914809,-0.403709
5607,-0.150958,-7.203348,-6.579640,-0.024759,-0.070621,0.081970,-132.374054,0.925871,-178.989883,0.010950,-0.004802,0.914832,-0.403658
5608,-0.151653,-7.198921,-6.577252,-0.009500,-0.067569,0.088074,-132.380188,0.924355,-178.990173,0.010937,-0.004806,0.914853,-0.403610
5609,-0.152387,-7.206038,-6.577611,-0.004922,-0.059939,0.086548,-132.383865,0.923645,-178.990631,0.010930,-0.004805,0.914866,-0.403580
5611,-0.150705,-7.215199,-6.577199,-0.023232,-0.062991,0.085022,-132.382812,0.922550,-178.991013,0.010920,-0.004806,0.914863,-0.403589
5612,-0.151274,-7.219269,-6.575272,-0.043069,-0.055361,0.083496,-132.378067,0.921001,-178.991364,0.010906,-0.004808,0.914846,-0.403627
5613,-0.148261,-7.218065,-6.577630,-0.061381,-0.056887,0.072814,-132.373703,0.918439,-178.991638,0.010885,-0.004814,0.914831,-0.403662
5614,-0.146192,-7.221971,-6.575896,-0.067484,-0.061465,0.065185,-132.369812,0.913992,-178.991623,0.010850,-0.004830,0.914817,-0.403694
5615,-0.147911,-7.214702,-6.580282,-0.075113,-0.053836,0.065185,-132.368347,0.909752,-178.991608,0.010816,-0.004845,0.914812,-0.403706
5616,-0.147063,-7.207927,-6.579197,-0.053751,-0.058413,0.066711,-132.371689,0.906464,-178.991730,0.010789,-0.004855,0.914824,-0.403679
5617,-0.144252,-7.203681,-6.578794,-0.049173,-0.062991,0.063659,-132.376923,0.902384,-178.991760,0.010756,-0.004870,0.914843,-0.403638
5618,-0.140779,-7.206156,-6.576074,-0.044596,-0.059939,0.077392,-132.381012,0.896504,-178.991867,0.010709,-0.004890,0.914857,-0.403606
5619,-0.143784,-7.210545,-6.579614,-0.027811,-0.059939,0.081970,-132.382553,0.891264,-178.992188,0.010666,-0.004906,0.914863,-0.403594
5620,-0.142314,-7.218800,-6.582100,-0.036965,-0.073673,0.078918,-132.382004,0.887463,-178.992325,0.010635,-0.004919,0.914861,-0.403599
5621,-0.142840,-7.215087,-6.582479,-0.046122,-0.073673,0.075866,-132.381302,0.883943,-178.992218,0.010607,-0.004932,0.914859,-0.403605
5622,-0.146711,-7.209827,-6.585333,-0.020181,-0.073673,0.081970,-132.383728,0.882695,-178.992203,0.010597,-0.004937,0.914867,-0.403586
5623,-0.154572,-7.223582,-6.583638,-0.029336,-0.078250,0.085021,-132.383835,0.886472,-178.992188,0.010627,-0.004923,0.914867,-0.403584
5624,-0.150633,-7.223037,-6.582965,-0.044596,-0.073673,0.085021,-132.380020,0.891603,-178.992157,0.010669,-0.004905,0.914854,-0.403614
5625,-0.144738,-7.215303,-6.575162,-0.032387,-0.076724,0.091125,-132.376236,0.892424,-178.992203,0.010675,-0.004902,0.914841,-0.403645
5626,-0.148001,-7.221075,-6.576052,-0.024759,-0.072147,0.092651,-132.371155,0.891932,-178.992340,0.010671,-0.004902,0.914823,-0.403685
5627,-0.143309,-7.226080,-6.572219,-0.058329,-0.075198,0.078918,-132.363403,0.890658,-178.992310,0.010661,-0.004906,0.914795,-0.403747
5628,-0.137668,-7.218235,-6.580571,-0.061381,-0.075198,0.080444,-132.359161,0.885340,-178.992157,0.010620,-0.004925,0.914781,-0.403782
5629,-0.141439,-7.208278,-6.578130,-0.049173,-0.070621,0.091126,-132.361984,0.879882,-178.992294,0.010575,-0.004944,0.914791,-0.403760
5630,-0.147283,-7.208519,-6.580043,-0.059855,-0.053835,0.081970,-132.367279,0.878724,-178.992767,0.010564,-0.004945,0.914809,-0.403717
5631,-0.144399,-7.208700,-6.580352,-0.046122,-0.056887,0.083496,-132.372513,0.878907,-178.993301,0.010564,-0.004940,0.914828,-0.403676
5632,-0.148493,-7.208883,-6.578859,-0.043069,-0.052310,0.075866,-132.376328,0.879539,-178.993790,0.010567,-0.004934,0.914841,-0.403645
5633,-0.148053,-7.208623,-6.576321,-0.041544,-0.037050,0.065185,-132.378326,0.881115,-178.994278,0.010577,-0.004925,0.914848,-0.403629
5634,-0.146026,-7.212801,-6.579891,-0.055277,-0.046206,0.054503,-132.379395,0.881225,-178.994598,0.010577,-0.004922,0.914852,-0.403621
5635,-0.143072,-7.210759,-6.578877,-0.026285,-0.053836,0.071289,-132.380173,0.879519,-178.994766,0.010563,-0.004927,0.914855,-0.403615
5636,-0.143064,-7.212612,-6.577548,-0.036965,-0.047732,0.060607,-132.379913,0.876863,-178.994980,0.010541,-0.004935,0.914854,-0.403617
5637,-0.144620,-7.211603,-6.578784,-0.029336,-0.049258,0.066711,-132.379410,0.874991,-178.995193,0.010525,-0.004939,0.914852,-0.403621
5638,-0.150267,-7.212742,-6.576714,-0.012550,-0.062991,0.066711,-132.378265,0.876490,-178.995285,0.010537,-0.004933,0.914848,-0.403630
5639,-0.153859,-7.212927,-6.576779,-0.009500,-0.059939,0.062133,-132.375977,0.881693,-178.995178,0.010579,-0.004916,0.914840,-0.403648
5640,-0.156772,-7.214758,-6.580925,-0.040018,-0.055361,0.056029,-132.375061,0.888750,-178.995056,0.010636,-0.004892,0.914837,-0.403655
5641,-0.156656,-7.207066,-6.579855,-0.041544,-0.058413,0.060607,-132.377319,0.896062,-178.994980,0.010694,-0.004867,0.914844,-0.403636
5642,-0.155755,-7.210548,-6.580796,-0.036965,-0.052309,0.057555,-132.380524,0.902023,-178.994965,0.010742,-0.004846,0.914855,-0.403610
5643,-0.152505,-7.208413,-6.583875,-0.061381,-0.061465,0.052977,-132.384491,0.905393,-178.994843,0.010769,-0.004836,0.914869,-0.403578
5644,-0.149278,-7.210081,-6.581523,-0.046122,-0.069094,0.056029,-132.388474,0.905775,-178.994492,0.010773,-0.004837,0.914883,-0.403546
5645,-0.147387,-7.210725,-6.578956,-0.040018,-0.072146,0.048400,-132.389526,0.903979,-178.993927,0.010761,-0.004848,0.914887,-0.403537
5646,-0.148474,-7.211204,-6.577890,-0.049173,-0.078250,0.046874,-132.388947,0.901962,-178.993118,0.010748,-0.004862,0.914885,-0.403542
5647,-0.148763,-7.209219,-6.576334,-0.052225,-0.090458,0.051452,-132.388168,0.900999,-178.992096,0.010743,-0.004873,0.914882,-0.403548
5648,-0.145933,-7.207524,-6.574719,-0.035440,-0.085880,0.052978,-132.387314,0.899429,-178.991074,0.010735,-0.004887,0.914879,-0.403555
5649,-0.149019,-7.212914,-6.571509,-0.053751,-0.070621,0.049926,-132.384232,0.897889,-178.990234,0.010725,-0.004899,0.914868,-0.403580
5650,-0.154007,-7.216268,-6.571472,-0.044596,-0.078250,0.052978,-132.378311,0.899606,-178.989426,0.010742,-0.004899,0.914847,-0.403627
5651,-0.155773,-7.224583,-6.573895,-0.038492,-0.075198,0.062133,-132.370361,0.904091,-178.988693,0.010781,-0.004888,0.914819,-0.403690
5652,-0.154352,-7.231773,-6.573975,-0.033915,-0.066043,0.063659,-132.359787,0.908211,-178.988174,0.010816,-0.004877,0.914782,-0.403774
5653,-0.160671,-7.233758,-6.574446,-0.012551,-0.058413,0.072814,-132.347794,0.913570,-178.987976,0.010860,-0.004858,0.914739,-0.403869
5654,-0.157958,-7.228138,-6.576940,0.008811,-0.078250,0.071288,-132.338394,0.919941,-178.987762,0.010912,-0.004837,0.914706,-0.403944
5655,-0.151289,-7.225448,-6.576464,-0.001870,-0.075198,0.069762,-132.332993,0.922044,-178.987366,0.010930,-0.004832,0.914687,-0.403986
5656,-0.149614,-7.220445,-6.581265,-0.000344,-0.076724,0.062133,-132.332016,0.920208,-178.986954,0.010917,-0.004841,0.914684,-0.403994
5657,-0.151711,-7.214561,-6.583003,0.010337,-0.073672,0.063659,-132.336029,0.918450,-178.986588,0.010904,-0.004851,0.914698,-0.403962
5658,-0.149716,-7.213115,-6.581403,-0.000344,-0.075198,0.066711,-132.341797,0.917042,-178.986313,0.010894,-0.004859,0.914718,-0.403917
5659,-0.146981,-7.213745,-6.579183,-0.007974,-0.064517,0.065185,-132.346329,0.913930,-178.986145,0.010869,-0.004871,0.914734,-0.403881
5660,-0.146872,-7.216165,-6.576042,0.004234,-0.067569,0.066711,-132.347763,0.909930,-178.986008,0.010838,-0.004887,0.914739,-0.403870
5661,-0.146650,-7.221005,-6.569881,-0.001870,-0.069095,0.060607,-132.344070,0.906275,-178.985703,0.010810,-0.004902,0.914726,-0.403899
5662,-0.144043,-7.220710,-6.568027,-0.012550,-0.067569,0.051452,-132.337311,0.901847,-178.985168,0.010777,-0.004921,0.914703,-0.403954
5663,-0.146144,-7.222049,-6.570714,-0.029336,-0.066043,0.051452,-132.331650,0.897606,-178.984573,0.010745,-0.004940,0.914683,-0.403999
5664,-0.147319,-7.221159,-6.573268,-0.027811,-0.056887,0.063659,-132.328491,0.895231,-178.984283,0.010728,-0.004950,0.914672,-0.404025
5665,-0.149350,-7.219930,-6.574995,-0.040018,-0.050783,0.056029,-132.327896,0.894429,-178.984283,0.010721,-0.004953,0.914670,-0.404029
5666,-0.151807,-7.215092,-6.575652,-0.052226,-0.040102,0.054504,-132.330246,0.895310,-178.984406,0.010728,-0.004949,0.914678,-0.404011
5667,-0.150211,-7.216699,-6.576705,-0.055277,-0.059939,0.057555,-132.334076,0.896652,-178.984467,0.010738,-0.004945,0.914692,-0.403980
5668,-0.146471,-7.213691,-6.572907,-0.046122,-0.067568,0.048400,-132.336960,0.896008,-178.984100,0.010734,-0.004950,0.914702,-0.403957
5669,-0.146942,-7.216939,-6.570257,-0.056802,-0.079776,0.028563,-132.337494,0.893929,-178.983139,0.010721,-0.004965,0.914704,-0.403953
5670,-0.146450,-7.218670,-6.569400,-0.075113,-0.084354,0.028563,-132.335938,0.891959,-178.981689,0.010710,-0.004983,0.914698,-0.403965
5671,-0.143881,-7.207146,-6.576128,-0.052225,-0.091983,0.033141,-132.338654,0.889275,-178.980225,0.010694,-0.005005,0.914708,-0.403944
5672,-0.145247,-7.204605,-6.575315,-0.043069,-0.072146,0.040770,-132.346191,0.886480,-178.979126,0.010675,-0.005024,0.914734,-0.403884
5673,-0.149317,-7.207111,-6.573214,-0.033914,-0.062991,0.048400,-132.351913,0.886053,-178.978531,0.010674,-0.005031,0.914754,-0.403838
5674,-0.156464,-7.204149,-6.579376,-0.020181,-0.049258,0.074341,-132.357666,0.890374,-178.978607,0.010708,-0.005016,0.914775,-0.403792
5675,-0.153452,-7.201673,-6.582942,0.013390,-0.047732,0.085022,-132.366119,0.896318,-178.979324,0.010752,-0.004990,0.914804,-0.403724
5676,-0.152448,-7.211038,-6.576758,-0.000344,-0.049258,0.092652,-132.370728,0.900211,-178.980209,0.010780,-0.004969,0.914820,-0.403687
5677,-0.156268,-7.212967,-6.575979,-0.001870,-0.049258,0.104859,-132.369736,0.904789,-178.981186,0.010813,-0.004945,0.914817,-0.403694
5678,-0.151739,-7.216050,-6.579506,0.017968,-0.047732,0.100281,-132.367676,0.908568,-178.982269,0.010839,-0.004923,0.914809,-0.403710
5679,-0.149612,-7.220038,-6.573312,0.021019,-0.049258,0.091126,-132.362808,0.908996,-178.983154,0.010840,-0.004914,0.914792,-0.403749
5680,-0.154843,-7.218134,-6.569796,0.017968,-0.053835,0.083496,-132.355011,0.910250,-178.983734,0.010848,-0.004904,0.914765,-0.403811
5681,-0.161523,-7.229200,-6.569531,0.031701,-0.049257,0.081970,-132.344406,0.915910,-178.984177,0.010892,-0.004880,0.914727,-0.403896
5682,-0.158704,-7.226806,-6.567798,0.030175,-0.052309,0.059081,-132.331924,0.922270,-178.984314,0.010943,-0.004855,0.914683,-0.403994
5683,-0.158706,-7.221197,-6.564797,0.005760,-0.055361,0.046874,-132.322174,0.926422,-178.984039,0.010978,-0.004842,0.914649,-0.404072
5684,-0.154164,-7.230065,-6.563489,-0.009500,-0.066043,0.027037,-132.312439,0.927860,-178.983215,0.010992,-0.004842,0.914614,-0.404149
5685,-0.151895,-7.239439,-6.561981,-0.023232,-0.056887,0.020933,-132.298874,0.925886,-178.982010,0.010981,-0.004858,0.914566,-0.404258
5686,-0.146310,-7.233993,-6.563941,-0.024759,-0.058413,0.013304,-132.286209,0.920603,-178.980759,0.010944,-0.004885,0.914522,-0.404359
5687,-0.146163,-7.234235,-6.565625,-0.041544,-0.070621,0.016355,-132.278030,0.913669,-178.979340,0.010894,-0.004920,0.914493,-0.404425
5688,-0.151441,-7.238092,-6.570051,-0.049173,-0.081302,0.028563,-132.272324,0.909956,-178.977859,0.010870,-0.004944,0.914473,-0.404471
5689,-0.152677,-7.227288,-6.569736,-0.046122,-0.087406,0.042296,-132.270630,0.910022,-178.976517,0.010875,-0.004955,0.914467,-0.404484
5690,-0.146785,-7.217187,-6.572664,-0.050698,-0.087406,0.048400,-132.275726,0.908906,-178.975433,0.010870,-0.004968,0.914485,-0.404444
5691,-0.145044,-7.217010,-6.568776,-0.055277,-0.087406,0.042296,-132.283173,0.904924,-178.974396,0.010842,-0.004991,0.914511,-0.404384
5692,-0.140496,-7.213915,-6.571352,-0.053751,-0.069095,0.039245,-132.290314,0.898521,-178.973465,0.010794,-0.005022,0.914537,-0.404328
5693,-0.131956,-7.210126,-6.568675,-0.018655,-0.061465,0.039245,-132.297668,0.887389,-178.972824,0.010707,-0.005067,0.914563,-0.404270
5694,-0.126111,-7.209484,-6.575800,0.004234,-0.056887,0.039245,-132.305557,0.871660,-178.972366,0.010582,-0.005127,0.914591,-0.404209
5695,-0.130561,-7.216902,-6.575865,0.027122,-0.061465,0.043822,-132.311951,0.857180,-178.971939,0.010468,-0.005182,0.914614,-0.404159
5696,-0.134248,-7.214675,-6.580155,0.017968,-0.053836,0.054503,-132.317047,0.848016,-178.971710,0.010396,-0.005216,0.914632,-0.404119
5697,-0.135302,-7.217134,-6.579445,0.019493,-0.055362,0.056029,-132.322495,0.842351,-178.971695,0.010350,-0.005237,0.914652,-0.404077
5698,-0.136545,-7.220201,-6.581751,-0.004922,-0.052310,0.060607,-132.326630,0.838603,-178.971741,0.010320,-0.005250,0.914666,-0.404044
5699,-0.139047,-7.219909,-6.583123,-0.029336,-0.056887,0.069762,-132.331268,0.837108,-178.971924,0.010307,-0.005254,0.914683,-0.404007
5700,-0.144871,-7.207325,-6.582292,-0.030861,-0.056887,0.072814,-132.339310,0.839472,-178.972214,0.010325,-0.005244,0.914711,-0.403943
5701,-0.136703,-7.206255,-6.584557,-0.001870,-0.070621,0.075866,-132.350052,0.841141,-178.972473,0.010336,-0.005238,0.914749,-0.403857
5702,-0.138771,-7.204545,-6.584116,-0.001870,-0.075198,0.077392,-132.360321,0.840421,-178.972534,0.010330,-0.005240,0.914785,-0.403775
5703,-0.139058,-7.207994,-6.577244,0.005760,-0.079776,0.080444,-132.366501,0.840739,-178.972488,0.010332,-0.005240,0.914807,-0.403726
5704,-0.142864,-7.207673,-6.571167,0.005760,-0.064517,0.081970,-132.366882,0.842658,-178.972549,0.010348,-0.005233,0.914808,-0.403722
5705,-0.140842,-7.214737,-6.571477,-0.009500,-0.066043,0.078918,-132.363632,0.844947,-178.972702,0.010365,-0.005223,0.914797,-0.403748
5706,-0.143702,-7.211504,-6.567438,-0.032387,-0.058413,0.068237,-132.359116,0.847044,-178.972748,0.010382,-0.005215,0.914781,-0.403784
5707,-0.144290,-7.213485,-6.566239,-0.030861,-0.064517,0.071288,-132.354294,0.850113,-178.972717,0.010407,-0.005204,0.914764,-0.403822
5708,-0.153451,-7.213923,-6.570744,-0.058329,-0.058413,0.048400,-132.350845,0.856385,-178.972473,0.010458,-0.005184,0.914751,-0.403849
5709,-0.152739,-7.224545,-6.576612,-0.058329,-0.066043,0.042296,-132.348465,0.864910,-178.971893,0.010528,-0.005158,0.914743,-0.403867
5710,-0.150708,-7.225774,-6.574885,-0.056802,-0.064517,0.036192,-132.344559,0.871223,-178.971069,0.010582,-0.005142,0.914729,-0.403898
5711,-0.154927,-7.233876,-6.573619,-0.049173,-0.066043,0.043822,-132.337570,0.877390,-178.970230,0.010634,-0.005126,0.914704,-0.403953
5712,-0.155469,-7.238423,-6.573137,-0.050700,-0.056887,0.034666,-132.327377,0.884431,-178.969421,0.010694,-0.005107,0.914668,-0.404033
5714,-0.155539,-7.233073,-6.573511,-0.030861,-0.058413,0.056029,-132.318222,0.890899,-178.968842,0.010748,-0.005088,0.914635,-0.404106
5715,-0.156911,-7.219027,-6.575254,-0.026285,-0.067569,0.046874,-132.315659,0.897382,-178.968399,0.010801,-0.005069,0.914626,-0.404125
5716,-0.158541,-7.218736,-6.579021,-0.003396,-0.067569,0.045348,-132.318787,0.904189,-178.967804,0.010858,-0.005049,0.914637,-0.404100
5717,-0.156943,-7.213696,-6.578400,-0.003396,-0.062991,0.056029,-132.323807,0.910195,-178.967407,0.010907,-0.005032,0.914654,-0.404059
5718,-0.154127,-7.214074,-6.573648,0.013389,-0.062991,0.072815,-132.327682,0.913952,-178.967377,0.010937,-0.005019,0.914668,-0.404028
5719,-0.146164,-7.213773,-6.569045,0.001182,-0.058413,0.060608,-132.328156,0.912883,-178.967377,0.010928,-0.005023,0.914669,-0.404024
5720,-0.142100,-7.226002,-6.564485,0.008811,-0.044680,0.063659,-132.322647,0.906596,-178.967422,0.010878,-0.005044,0.914650,-0.404069
5721,-0.143943,-7.225320,-6.561989,-0.017129,-0.033998,0.065185,-132.312683,0.899690,-178.967743,0.010822,-0.005065,0.914615,-0.404149
5722,-0.140401,-7.226674,-6.565296,-0.027811,-0.033998,0.056029,-132.304428,0.892780,-178.968124,0.010766,-0.005086,0.914586,-0.404216
5723,-0.143891,-7.227140,-6.572349,-0.035440,-0.038576,0.043822,-132.300201,0.886511,-178.968262,0.010716,-0.005106,0.914572,-0.404250
5724,-0.148062,-7.232030,-6.577716,-0.014077,-0.043154,0.052977,-132.298767,0.884108,-178.968307,0.010696,-0.005114,0.914567,-0.404262
5725,-0.148407,-7.224934,-6.577377,-0.030863,-0.052309,0.057555,-132.299667,0.884363,-178.968369,0.010698,-0.005113,0.914570,-0.404254
5726,-0.143460,-7.235088,-6.577988,-0.003396,-0.058413,0.075866,-132.299683,0.883402,-178.968491,0.010690,-0.005116,0.914570,-0.404254
5727,-0.148117,-7.231888,-6.573981,0.004234,-0.058413,0.066711,-132.296265,0.882539,-178.968597,0.010683,-0.005117,0.914558,-0.404282
5728,-0.147832,-7.226413,-6.574109,-0.026285,-0.061465,0.059081,-132.294601,0.883386,-178.968506,0.010690,-0.005115,0.914552,-0.404295
5729,-0.138142,-7.216105,-6.574558,-0.050700,-0.058413,0.049926,-132.298508,0.880191,-178.968292,0.010665,-0.005128,0.914566,-0.404264
5730,-0.142262,-7.213040,-6.574520,-0.029336,-0.050784,0.054503,-132.305969,0.874855,-178.968216,0.010623,-0.005149,0.914592,-0.404205
5731,-0.148481,-7.207672,-6.572354,-0.041544,-0.061465,0.045348,-132.314087,0.874156,-178.968048,0.010617,-0.005153,0.914621,-0.404140
5732,-0.145378,-7.213099,-6.574455,-0.059855,-0.067569,0.043822,-132.321655,0.875135,-178.967545,0.010626,-0.005154,0.914648,-0.404080
5733,-0.143137,-7.212345,-6.572609,-0.053751,-0.070621,0.036193,-132.327209,0.873972,-178.966797,0.010620,-0.005165,0.914667,-0.404035
5734,-0.150160,-7.218974,-6.569468,-0.055277,-0.075199,0.045348,-132.328812,0.874791,-178.965912,0.010629,-0.005169,0.914673,-0.404022
5735,-0.147572,-7.217745,-6.567254,-0.081217,-0.075199,0.036193,-132.327438,0.877418,-178.964920,0.010654,-0.005168,0.914668,-0.404033
5736,-0.142913,-7.204760,-6.570572,-0.102581,-0.064517,0.025511,-132.330887,0.876671,-178.963898,0.010651,-0.005179,0.914680,-0.404005
5737,-0.144534,-7.198981,-6.571940,-0.073588,-0.056887,0.051452,-132.340408,0.874655,-178.963364,0.010637,-0.005191,0.914714,-0.403930
5738,-0.144514,-7.207141,-6.573729,-0.052225,-0.046206,0.074340,-132.348495,0.873824,-178.963608,0.010629,-0.005193,0.914742,-0.403865
5739,-0.145811,-7.205675,-6.576769,-0.043069,-0.047732,0.065185,-132.354553,0.873701,-178.964081,0.010626,-0.005190,0.914763,-0.403817
5740,-0.144437,-7.207294,-6.579030,-0.024759,-0.055361,0.072815,-132.360687,0.873674,-178.964432,0.010624,-0.005188,0.914785,-0.403768
5741,-0.142627,-7.216688,-6.578977,-0.009500,-0.067569,0.071289,-132.363190,0.872654,-178.964569,0.010615,-0.005191,0.914794,-0.403748
5742,-0.143803,-7.219380,-6.577908,-0.027811,-0.075199,0.057555,-132.361633,0.871443,-178.964218,0.010607,-0.005198,0.914788,-0.403761
5743,-0.146176,-7.209377,-6.572670,-0.012550,-0.090458,0.059081,-132.360168,0.871932,-178.963455,0.010614,-0.005202,0.914783,-0.403772
5744,-0.145619,-7.205993,-6.573030,-0.004922,-0.090458,0.068237,-132.360657,0.873559,-178.962662,0.010629,-0.005202,0.914785,-0.403768
5745,-0.150100,-7.204090,-6.571669,-0.012550,-0.088932,0.068237,-132.362305,0.876704,-178.962006,0.010657,-0.005197,0.914791,-0.403755
5746,-0.152726,-7.200331,-6.576304,-0.009500,-0.067569,0.077392,-132.366333,0.882182,-178.961777,0.010701,-0.005180,0.914805,-0.403722
5747,-0.153433,-7.201044,-6.576436,-0.017129,-0.066043,0.071288,-132.372253,0.888164,-178.961884,0.010748,-0.005158,0.914825,-0.403674
5748,-0.153025,-7.207940,-6.581475,-0.044596,-0.061465,0.048399,-132.377579,0.893019,-178.961731,0.010787,-0.005143,0.914844,-0.403631
5749,-0.148931,-7.218912,-6.580292,-0.041544,-0.066043,0.054503,-132.378952,0.895086,-178.961304,0.010805,-0.005139,0.914849,-0.403620
5750,-0.148457,-7.224277,-6.583043,-0.050700,-0.066043,0.039244,-132.376144,0.894766,-178.960663,0.010805,-0.005145,0.914839,-0.403642
5751,-0.146790,-7.231058,-6.575406,-0.061381,-0.082828,0.037718,-132.369125,0.893441,-178.959564,0.010799,-0.005158,0.914814,-0.403698
5752,-0.143933,-7.230647,-6.574390,-0.059855,-0.090458,0.033141,-132.358749,0.890663,-178.958038,0.010782,-0.005179,0.914777,-0.403781
5753,-0.144499,-7.226685,-6.572240,-0.033915,-0.079776,0.054504,-132.349304,0.887467,-178.956757,0.010762,-0.005200,0.914744,-0.403857
5754,-0.145686,-7.221336,-6.569863,-0.050700,-0.075198,0.054504,-132.342178,0.885504,-178.955933,0.010749,-0.005212,0.914719,-0.403914
5755,-0.146971,-7.221432,-6.563620,-0.030863,-0.064517,0.066711,-132.334991,0.884887,-178.955444,0.010746,-0.005218,0.914694,-0.403971
5756,-0.149445,-7.217164,-6.562469,-0.020181,-0.059939,0.068237,-132.327209,0.885958,-178.955292,0.010756,-0.005215,0.914666,-0.404033
5757,-0.150520,-7.213488,-6.566473,-0.017129,-0.052310,0.074340,-132.323120,0.888370,-178.955429,0.010775,-0.005204,0.914652,-0.404065
5758,-0.149437,-7.213701,-6.566574,-0.043069,-0.064517,0.074340,-132.322327,0.890671,-178.955627,0.010792,-0.005195,0.914649,-0.404072
5759,-0.152478,-7.219344,-6.566255,-0.032387,-0.069095,0.054504,-132.320480,0.893342,-178.955383,0.010815,-0.005187,0.914642,-0.404086
5760,-0.152553,-7.220523,-6.568303,-0.040018,-0.066043,0.066711,-132.317474,0.896788,-178.955017,0.010844,-0.005178,0.914632,-0.404110
5761,-0.150140,-7.218868,-6.571034,-0.038492,-0.073672,0.065185,-132.316391,0.899076,-178.954727,0.010863,-0.005172,0.914628,-0.404118
5762,-0.149256,-7.222342,-6.570769,-0.035440,-0.066043,0.066711,-132.315750,0.899674,-178.954468,0.010869,-0.005172,0.914625,-0.404123
5763,-0.151190,-7.226013,-6.574411,-0.014077,-0.061465,0.071289,-132.313904,0.900383,-178.954391,0.010875,-0.005169,0.914619,-0.404138
5764,-0.150258,-7.219109,-6.588028,-0.000344,-0.038576,0.075866,-132.317490,0.901146,-178.954865,0.010879,-0.005163,0.914632,-0.404109
5765,-0.143199,-7.224693,-6.589936,0.056116,0.005676,0.054503,-132.324631,0.897673,-178.956055,0.010847,-0.005167,0.914657,-0.404053
5766,-0.145207,-7.227404,-6.589364,0.066796,0.037720,0.045348,-132.328156,0.891133,-178.957794,0.010788,-0.005176,0.914670,-0.404025
5767,-0.149365,-7.227093,-6.583776,0.074426,0.033142,0.039244,-132.328247,0.887187,-178.959656,0.010750,-0.005175,0.914670,-0.404025
5768,-0.148898,-7.222394,-6.579078,0.065270,0.039246,0.027037,-132.326477,0.885201,-178.961304,0.010729,-0.005169,0.914664,-0.404040
5769,-0.145455,-7.224101,-6.566478,0.051537,0.013305,0.033141,-132.320969,0.882312,-178.962570,0.010701,-0.005169,0.914645,-0.404084
5770,-0.153029,-7.217761,-6.571330,0.001182,-0.041628,0.049926,-132.315994,0.882605,-178.963089,0.010702,-0.005163,0.914627,-0.404124
5771,-0.152792,-7.217870,-6.570964,-0.011025,-0.066043,0.060607,-132.315689,0.887180,-178.962997,0.010739,-0.005148,0.914626,-0.404126
5772,-0.146380,-7.209977,-6.574601,-0.018655,-0.069095,0.066711,-132.319046,0.889365,-178.962799,0.010757,-0.005142,0.914638,-0.404099
5773,-0.146271,-7.217772,-6.574461,-0.023232,-0.070621,0.065185,-132.323456,0.888643,-178.962616,0.010752,-0.005146,0.914653,-0.404063
5774,-0.152358,-7.215589,-6.578554,-0.014077,-0.061465,0.063659,-132.326935,0.889997,-178.962479,0.010763,-0.005143,0.914666,-0.404036
5775,-0.149927,-7.207118,-6.572382,-0.033915,-0.058413,0.057555,-132.332260,0.892565,-178.962433,0.010783,-0.005135,0.914684,-0.403993
5776,-0.149958,-7.203636,-6.573716,-0.043069,-0.059939,0.056029,-132.339249,0.893894,-178.962341,0.010794,-0.005131,0.914709,-0.403937
5777,-0.153710,-7.212878,-6.570389,-0.030861,-0.061465,0.065185,-132.343277,0.896554,-178.962250,0.010815,-0.005123,0.914723,-0.403904
5778,-0.153341,-7.207615,-6.567863,-0.027811,-0.058413,0.071288,-132.343552,0.900450,-178.962296,0.010846,-0.005109,0.914724,-0.403902
5779,-0.151993,-7.205117,-6.563867,-0.033914,-0.058413,0.078918,-132.343781,0.903434,-178.962524,0.010869,-0.005097,0.914724,-0.403900
5780,-0.154339,-7.208885,-6.563781,-0.024759,-0.067569,0.083496,-132.342392,0.906615,-178.962753,0.010894,-0.005083,0.914720,-0.403911
5781,-0.152716,-7.214781,-6.562413,-0.026285,-0.061465,0.083496,-132.337982,0.909720,-178.962967,0.010918,-0.005070,0.914704,-0.403945
5782,-0.149487,-7.211828,-6.564891,-0.043069,-0.049257,0.077392,-132.333817,0.910208,-178.963318,0.010921,-0.005066,0.914689,-0.403979
5783,-0.154228,-7.220095,-6.568936,-0.043069,-0.055361,0.086548,-132.330994,0.910966,-178.963806,0.010925,-0.005059,0.914679,-0.404001
5784,-0.155225,-7.229285,-6.565559,-0.059855,-0.062991,0.071288,-132.324509,0.913884,-178.963989,0.010948,-0.005046,0.914656,-0.404053
5785,-0.153252,-7.233089,-6.565636,-0.062906,-0.050783,0.071288,-132.314606,0.915889,-178.963989,0.010965,-0.005038,0.914621,-0.404132
5786,-0.160970,-7.232286,-6.563127,-0.044596,-0.053835,0.074340,-132.304047,0.919745,-178.964142,0.010995,-0.005022,0.914584,-0.404215
5787,-0.165741,-7.235971,-6.561156,-0.017129,-0.064517,0.077392,-132.292023,0.928327,-178.964172,0.011064,-0.004991,0.914541,-0.404311
5788,-0.161016,-7.226887,-6.556752,-0.023232,-0.075198,0.066711,-132.280716,0.936296,-178.963867,0.011129,-0.004964,0.914501,-0.404400
5789,-0.159465,-7.222116,-6.561073,-0.017129,-0.067569,0.075866,-132.274597,0.940790,-178.963593,0.011166,-0.004950,0.914479,-0.404448
5790,-0.157101,-7.217201,-6.563571,-0.007974,-0.070621,0.069763,-132.273911,0.942924,-178.963516,0.011184,-0.004943,0.914477,-0.404454
5791,-0.152109,-7.217839,-6.568421,-0.038492,-0.069095,0.068237,-132.277283,0.941649,-178.963379,0.011174,-0.004949,0.914489,-0.404427
5792,-0.147826,-7.215777,-6.568227,-0.064433,-0.066043,0.059081,-132.283127,0.936491,-178.963211,0.011133,-0.004969,0.914510,-0.404381
5793,-0.148333,-7.219647,-6.570879,-0.056802,-0.055362,0.059081,-132.288895,0.929999,-178.963089,0.011081,-0.004993,0.914530,-0.404335
5794,-0.143858,-7.216055,-6.568757,-0.041544,-0.059939,0.062133,-132.293625,0.922697,-178.963074,0.011023,-0.005019,0.914547,-0.404298
5795,-0.143164,-7.217763,-6.565245,-0.030861,-0.072147,0.063659,-132.296051,0.914567,-178.962875,0.010959,-0.005050,0.914556,-0.404280
5796,-0.139167,-7.218749,-6.567219,-0.017129,-0.081302,0.051451,-132.296448,0.905732,-178.962280,0.010890,-0.005086,0.914557,-0.404277
5797,-0.139679,-7.215738,-6.567958,-0.004921,-0.082828,0.054503,-132.297546,0.896669,-178.961456,0.010821,-0.005125,0.914562,-0.404269
5798,-0.137541,-7.215456,-6.566836,0.004234,-0.081302,0.054503,-132.298920,0.888216,-178.960678,0.010756,-0.005161,0.914567,-0.404259
5799,-0.142331,-7.214162,-6.568492,-0.004921,-0.070620,0.048400,-132.300720,0.881761,-178.959976,0.010707,-0.005189,0.914573,-0.404245
5800,-0.141004,-7.217031,-6.566172,-0.014077,-0.064517,0.043822,-132.302002,0.877332,-178.959366,0.010674,-0.005210,0.914578,-0.404236
5801,-0.139838,-7.219650,-6.561204,-0.027811,-0.055361,0.046874,-132.299911,0.872467,-178.958862,0.010637,-0.005231,0.914571,-0.404253
5802,-0.144428,-7.224171,-6.562724,-0.021707,-0.053835,0.040770,-132.295120,0.869387,-178.958420,0.010614,-0.005245,0.914554,-0.404291
5803,-0.146642,-7.217019,-6.565913,-0.026285,-0.064517,0.039245,-132.292816,0.869501,-178.957809,0.010617,-0.005249,0.914546,-0.404309
5804,-0.145546,-7.219088,-6.565045,-0.036965,-0.072147,0.034667,-132.293243,0.870394,-178.956940,0.010627,-0.005253,0.914547,-0.404306
5805,-0.143872,-7.215818,-6.568035,-0.030861,-0.070621,0.036193,-132.294800,0.870163,-178.955978,0.010629,-0.005262,0.914553,-0.404293
5806,-0.145771,-7.213667,-6.571569,-0.001870,-0.082828,0.052978,-132.298965,0.870320,-178.955139,0.010633,-0.005268,0.914567,-0.404260
5807,-0.143415,-7.209442,-6.572861,-0.026285,-0.087406,0.062133,-132.305756,0.870819,-178.954437,0.010639,-0.005273,0.914591,-0.404206
5808,-0.141400,-7.212111,-6.577036,-0.029336,-0.084354,0.062133,-132.314240,0.869679,-178.953827,0.010632,-0.005282,0.914621,-0.404138
5809,-0.140553,-7.208979,-6.580764,-0.024759,-0.075199,0.074340,-132.324127,0.867447,-178.953522,0.010614,-0.005294,0.914656,-0.404059
5811,-0.146619,-7.215358,-6.577727,-0.033914,-0.076724,0.080444,-132.332184,0.867606,-178.953491,0.010615,-0.005294,0.914684,-0.403995
5812,-0.148810,-7.216191,-6.574511,-0.038492,-0.075198,0.077392,-132.335587,0.871164,-178.953430,0.010644,-0.005282,0.914696,-0.403968
5813,-0.149804,-7.214806,-6.573447,-0.030861,-0.075198,0.078918,-132.337067,0.875703,-178.953339,0.010680,-0.005267,0.914701,-0.403955
5814,-0.150997,-7.221765,-6.566825,-0.032387,-0.066043,0.075866,-132.334442,0.880444,-178.953278,0.010719,-0.005251,0.914692,-0.403976
5815,-0.153691,-7.221093,-6.563501,-0.040018,-0.079776,0.063659,-132.327499,0.885962,-178.952927,0.010764,-0.005233,0.914667,-0.404031
5816,-0.152405,-7.214234,-6.568072,-0.035440,-0.087406,0.060607,-132.323593,0.891428,-178.952179,0.010811,-0.005220,0.914653,-0.404061
5817,-0.151613,-7.205990,-6.573018,-0.033914,-0.085880,0.052977,-132.327026,0.895314,-178.951355,0.010844,-0.005213,0.914665,-0.404033
5818,-0.152604,-7.208998,-6.567726,-0.036965,-0.087406,0.040770,-132.331802,0.898436,-178.950333,0.010873,-0.005211,0.914682,-0.403995
5819,-0.152405,-7.209551,-6.564226,-0.027811,-0.088931,0.048399,-132.332443,0.901398,-178.949142,0.010900,-0.005210,0.914684,-0.403989
5820,-0.149223,-7.217267,-6.561139,-0.004922,-0.085880,0.060607,-132.328110,0.902848,-178.948135,0.010916,-0.005212,0.914669,-0.404024
5821,-0.148436,-7.216300,-6.558354,-0.009500,-0.072146,0.057555,-132.320236,0.902367,-178.947388,0.010915,-0.005219,0.914641,-0.404086
5822,-0.144941,-7.212717,-6.554804,-0.012550,-0.069095,0.065185,-132.312668,0.900058,-178.946899,0.010899,-0.005230,0.914614,-0.404147
5823,-0.140014,-7.216158,-6.560733,-0.011025,-0.078250,0.080444,-132.306870,0.894979,-178.946625,0.010859,-0.005250,0.914594,-0.404194
5824,-0.140635,-7.210033,-6.565337,-0.009500,-0.072147,0.074340,-132.305695,0.888823,-178.946487,0.010811,-0.005273,0.914590,-0.404204
5825,-0.141793,-7.211232,-6.567042,-0.017129,-0.061465,0.068236,-132.308212,0.883770,-178.946472,0.010770,-0.005291,0.914599,-0.404184
5826,-0.138567,-7.210703,-6.566864,-0.027811,-0.056887,0.057555,-132.311203,0.878269,-178.946457,0.010726,-0.005311,0.914610,-0.404161
5827,-0.140949,-7.218560,-6.568578,-0.029336,-0.055362,0.048400,-132.312546,0.872791,-178.946274,0.010683,-0.005332,0.914615,-0.404151
5828,-0.141384,-7.215756,-6.566061,-0.033914,-0.044680,0.039244,-132.312134,0.868767,-178.945999,0.010652,-0.005348,0.914613,-0.404154
5829,-0.138680,-7.214638,-6.563363,-0.050698,-0.050784,0.037718,-132.311539,0.864342,-178.945648,0.010618,-0.005366,0.914611,-0.404159
5830,-0.137629,-7.217092,-6.567436,-0.061381,-0.056887,0.025511,-132.311508,0.858967,-178.945007,0.010577,-0.005390,0.914611,-0.404160
5831,-0.141885,-7.226624,-6.570626,-0.049173,-0.072147,0.031615,-132.310440,0.855586,-178.944016,0.010554,-0.005410,0.914607,-0.404169
5832,-0.142597,-7.226525,-6.571241,-0.052225,-0.067569,0.031615,-132.307907,0.854874,-178.942932,0.010552,-0.005421,0.914599,-0.404189
5833,-0.141545,-7.221754,-6.574125,-0.041544,-0.070621,0.031615,-132.307785,0.854292,-178.941910,0.010551,-0.005431,0.914598,-0.404190
5834,-0.141731,-7.222709,-6.577019,-0.036965,-0.073673,0.048400,-132.310257,0.853727,-178.941055,0.010550,-0.005440,0.914607,-0.404170
5835,-0.138014,-7.218303,-6.572984,-0.033914,-0.067569,0.071289,-132.313034,0.852331,-178.940674,0.010540,-0.005448,0.914617,-0.404148
5836,-0.137749,-7.219929,-6.573096,-0.029336,-0.069095,0.078918,-132.314941,0.849860,-178.940689,0.010520,-0.005457,0.914623,-0.404133
5837,-0.136493,-7.217215,-6.571393,-0.023232,-0.075199,0.083496,-132.316177,0.847297,-178.940735,0.010499,-0.005466,0.914628,-0.404124
5838,-0.138683,-7.221692,-6.573110,-0.023232,-0.069095,0.078918,-132.316650,0.845428,-178.940781,0.010484,-0.005472,0.914629,-0.404120
5839,-0.142589,-7.223871,-6.574502,-0.009500,-0.061465,0.071288,-132.315933,0.845896,-178.940842,0.010488,-0.005470,0.914627,-0.404126
5840,-0.150316,-7.223471,-6.579463,-0.003396,-0.067569,0.062133,-132.316254,0.850748,-178.940750,0.010527,-0.005454,0.914628,-0.404123
5841,-0.150050,-7.216947,-6.579353,-0.026285,-0.046206,0.052977,-132.320114,0.857777,-178.940689,0.010583,-0.005430,0.914641,-0.404091
5842,-0.151629,-7.214309,-6.580592,-0.033915,-0.037050,0.051452,-132.326935,0.864089,-178.940918,0.010632,-0.005406,0.914665,-0.404036
5843,-0.155661,-7.211226,-6.578262,-0.026285,-0.032472,0.060607,-132.334259,0.871677,-178.941422,0.010690,-0.005376,0.914691,-0.403977
5844,-0.154803,-7.208154,-6.574155,-0.040018,-0.041628,0.048400,-132.340485,0.879649,-178.941803,0.010752,-0.005346,0.914713,-0.403926
5845,-0.153916,-7.207870,-6.569319,-0.041544,-0.049257,0.045348,-132.344360,0.885953,-178.941772,0.010803,-0.005324,0.914726,-0.403895
5846,-0.154620,-7.212513,-6.565706,-0.032387,-0.055361,0.046874,-132.343842,0.891384,-178.941498,0.010847,-0.005307,0.914724,-0.403898
5847,-0.155240,-7.215981,-6.560769,-0.040018,-0.067568,0.030089,-132.338455,0.896568,-178.940750,0.010891,-0.005294,0.914705,-0.403941
5848,-0.150606,-7.227027,-6.555237,-0.049173,-0.076724,0.034666,-132.326874,0.899540,-178.939484,0.010920,-0.005293,0.914664,-0.404033
5849,-0.151523,-7.236719,-6.557040,-0.052225,-0.079776,0.043822,-132.310089,0.900740,-178.938156,0.010935,-0.005298,0.914605,-0.404167
5850,-0.149260,-7.241353,-6.559881,-0.050698,-0.066043,0.057555,-132.292816,0.901215,-178.937195,0.010943,-0.005302,0.914544,-0.404304
5851,-0.145418,-7.239319,-6.562346,-0.020181,-0.076724,0.075866,-132.278137,0.899520,-178.936676,0.010932,-0.005311,0.914492,-0.404422
5852,-0.146441,-7.243874,-6.561752,0.007287,-0.070621,0.101807,-132.264511,0.897384,-178.936646,0.010916,-0.005317,0.914444,-0.404531
5853,-0.149874,-7.242458,-6.566277,0.022545,-0.058413,0.107911,-132.252380,0.897404,-178.937210,0.010914,-0.005311,0.914401,-0.404627
5854,-0.146625,-7.233559,-6.567564,0.039330,-0.055361,0.109437,-132.245834,0.897582,-178.938156,0.010913,-0.005302,0.914378,-0.404680
5855,-0.146597,-7.227272,-6.567336,0.042383,-0.070621,0.097229,-132.244476,0.896534,-178.938919,0.010902,-0.005300,0.914373,-0.404691
5856,-0.148369,-7.220208,-6.567745,0.034752,-0.076724,0.086548,-132.247299,0.896241,-178.939224,0.010898,-0.005299,0.914383,-0.404668
5857,-0.144414,-7.217360,-6.570571,0.025597,-0.073672,0.075866,-132.253845,0.894984,-178.939316,0.010888,-0.005303,0.914406,-0.404616
5858,-0.145879,-7.215178,-6.570844,0.004233,-0.075198,0.066710,-132.262482,0.892603,-178.939209,0.010869,-0.005313,0.914437,-0.404548
5859,-0.144116,-7.219348,-6.572731,-0.009500,-0.062991,0.059081,-132.270798,0.890005,-178.939056,0.010848,-0.005325,0.914466,-0.404481
5860,-0.143074,-7.217345,-6.572114,-0.023232,-0.062991,0.065185,-132.278229,0.886472,-178.938995,0.010820,-0.005338,0.914493,-0.404422
5861,-0.143008,-7.218417,-6.575726,-0.035440,-0.056887,0.059081,-132.286179,0.882838,-178.939011,0.010790,-0.005352,0.914521,-0.404359
5862,-0.147374,-7.215700,-6.574847,-0.064433,-0.059939,0.052978,-132.294998,0.881175,-178.938950,0.010777,-0.005359,0.914552,-0.404289
5863,-0.143599,-7.213287,-6.572977,-0.070537,-0.061465,0.039245,-132.303833,0.879936,-178.938583,0.010768,-0.005367,0.914583,-0.404219
5864,-0.145332,-7.210056,-6.572292,-0.069011,-0.070621,0.046874,-132.312317,0.878171,-178.938019,0.010755,-0.005378,0.914613,-0.404151
5865,-0.145740,-7.216341,-6.571080,-0.058329,-0.070621,0.039244,-132.318085,0.877541,-178.937302,0.010752,-0.005387,0.914634,-0.404105
5866,-0.145332,-7.221096,-6.569736,-0.044596,-0.067569,0.051452,-132.318863,0.877055,-178.936600,0.010751,-0.005394,0.914636,-0.404099
5867,-0.143913,-7.230018,-6.567883,-0.024758,-0.070621,0.049926,-132.314117,0.876015,-178.935944,0.010745,-0.005403,0.914620,-0.404137
5868,-0.146292,-7.232846,-6.566354,-0.001870,-0.069095,0.059081,-132.304840,0.875525,-178.935287,0.010744,-0.005409,0.914587,-0.404211
5869,-0.148689,-7.230927,-6.568330,0.008811,-0.055361,0.059081,-132.295837,0.876940,-178.934952,0.010757,-0.005406,0.914555,-0.404282
5870,-0.148816,-7.231965,-6.566763,0.008811,-0.049258,0.051451,-132.288223,0.878966,-178.934784,0.010774,-0.005399,0.914528,-0.404343
