seq,ax,ay,az,wroll,wpitch,wyaw,roll,pitch,yaw,q0,q1,q2,q3
30,1.506568,-8.665664,2.957320,-39.043495,7.182179,6.933612,-71.156837,-9.343575,25.442186,0.801155,-0.551062,-0.192311,0.132278
31,0.643694,-11.112598,-1.574014,-67.237190,12.528945,39.566814,-73.134430,-8.462683,25.400906,0.791036,-0.566576,-0.188434,0.133214
32,0.330715,-11.142602,-1.800744,-45.907814,8.515761,48.607925,-75.456551,-6.861240,25.527096,0.778085,-0.585271,-0.181107,0.138711
33,0.198716,-11.086755,-2.248285,-22.417715,3.216223,53.872368,-77.038681,-5.063715,25.800976,0.768047,-0.598750,-0.172595,0.147690
34,-0.234454,-10.864188,-2.493209,-5.156445,0.085024,54.839806,-77.941750,-3.192961,26.185514,0.760931,-0.607432,-0.163511,0.158983
35,-0.696789,-10.523487,-2.453348,9.907490,-1.538561,52.933922,-78.289619,-1.338504,26.610315,0.756381,-0.612211,-0.154087,0.171296
36,-1.068000,-10.112687,-2.289084,23.375307,-1.852902,48.202026,-78.137505,0.412762,27.027573,0.754359,-0.613453,-0.144557,0.183632
37,-1.162088,-9.611876,-1.906352,31.566473,-0.995332,38.988491,-77.597069,1.934728,27.385122,0.754593,-0.611804,-0.135515,0.194734
38,-1.000946,-9.207661,-1.589739,37.488590,2.579912,26.890951,-76.801949,3.099788,27.597839,0.756779,-0.608069,-0.127517,0.203168
39,-1.171404,-8.589991,-1.246984,42.507359,5.862178,12.445017,-75.820229,3.845586,27.603245,0.760847,-0.602664,-0.120787,0.208133
40,-1.236980,-8.404671,-1.211250,41.779491,10.485731,-1.126563,-74.783958,4.176279,27.368193,0.766200,-0.596484,-0.115437,0.209327
41,-0.908760,-8.224471,-1.034361,37.342102,14.228827,-13.388901,-73.859879,4.113720,26.881859,0.771963,-0.590673,-0.111666,0.206662
42,-0.757012,-8.060223,-1.028014,32.002888,16.745077,-24.206186,-73.120087,3.692239,26.181965,0.777606,-0.585744,-0.109643,0.200527
44,-1.044529,-7.284841,-0.899233,25.615366,20.541578,-39.108372,-72.592827,2.918987,25.250927,0.782926,-0.581948,-0.109316,0.190821
45,-1.049062,-7.314065,-0.888522,17.766006,22.624468,-47.169838,-72.302750,1.849043,24.109720,0.787564,-0.579558,-0.110447,0.177923
46,-0.844450,-7.496159,-1.822255,9.811357,20.744528,-48.576740,-72.310112,0.632072,22.919243,0.790669,-0.579087,-0.112847,0.163604
47,-0.429227,-8.557241,-2.861220,-7.346148,14.163212,-44.308727,-72.797180,-0.613821,21.890013,0.790859,-0.581778,-0.116898,0.149702
48,0.370416,-9.785748,-3.252591,-29.958838,3.704520,-38.520893,-73.962692,-1.847412,21.211313,0.786868,-0.588832,-0.123359,0.137473
49,1.037753,-11.143113,-3.482781,-51.732265,-11.357889,-27.311441,-75.855690,-2.983805,21.063265,0.778160,-0.600356,-0.132501,0.128390
50,1.364742,-11.726001,-3.636841,-69.829742,-25.361305,-16.924467,-78.415131,-3.901089,21.522612,0.764810,-0.615730,-0.143872,0.123459
51,1.580281,-11.262175,-2.994385,-81.872337,-36.663837,-9.754145,-81.469505,-4.586514,22.497631,0.747680,-0.633595,-0.156930,0.122084
52,1.646758,-10.453772,-2.719957,-83.186157,-44.156132,-7.823849,-84.725235,-5.111065,23.837803,0.728451,-0.651834,-0.171259,0.123054
53,1.195621,-9.373474,-2.898522,-77.357124,-46.405346,-6.445939,-87.904343,-5.500398,25.368473,0.708853,-0.668754,-0.185924,0.125407
54,0.930281,-8.555072,-3.581142,-72.202553,-45.126621,-1.916993,-90.925583,-5.679022,26.935602,0.689472,-0.684251,-0.199595,0.128808
55,1.201525,-8.212362,-4.068670,-66.893860,-43.165806,-0.792385,-93.792297,-5.687269,28.454981,0.670450,-0.698519,-0.212082,0.132625
56,1.031080,-8.712269,-4.633705,-61.516499,-39.492905,-0.017215,-96.466408,-5.601691,29.874979,0.652217,-0.711407,-0.223476,0.136278
57,0.577515,-8.330172,-4.995295,-55.631012,-33.576889,3.110932,-98.926682,-5.378097,31.118649,0.634991,-0.723154,-0.233007,0.139795
58,0.533164,-8.336128,-5.433268,-51.558311,-27.605946,6.782308,-101.194489,-5.006214,32.134426,0.618730,-0.734138,-0.240293,0.143085
59,0.284211,-8.370186,-5.716548,-45.965794,-22.285044,9.600693,-103.265495,-4.521071,32.925335,0.603555,-0.744383,-0.245498,0.146106
60,0.075142,-8.248800,-5.829559,-38.748165,-16.132511,15.132171,-105.081871,-3.906964,33.475597,0.589881,-0.753745,-0.248326,0.149141
61,-0.002591,-7.656653,-5.986111,-31.133804,-10.871120,18.045164,-106.628548,-3.189408,33.783737,0.577913,-0.762197,-0.248831,0.152170
62,0.107137,-7.678154,-5.694503,-24.950750,-7.810114,21.292332,-107.916901,-2.420295,33.907345,0.567656,-0.769654,-0.247617,0.155195
63,0.000144,-7.426669,-5.738002,-15.464071,-6.928130,23.247044,-108.914497,-1.599282,33.921555,0.559285,-0.775848,-0.245102,0.158700
64,-0.134403,-7.141312,-5.518179,-5.435690,-5.534960,22.754169,-109.576729,-0.768095,33.876179,0.553169,-0.780442,-0.241723,0.162742
65,-0.419664,-7.107518,-5.768294,2.479285,-5.722649,23.787222,-109.938133,0.073075,33.797188,0.549081,-0.783592,-0.237670,0.167355
66,-0.575049,-7.593800,-5.951335,8.285432,-8.240425,25.629013,-110.066811,0.982330,33.736355,0.546383,-0.785625,-0.233081,0.173013
67,-0.899583,-7.844192,-6.106666,11.228941,-9.320781,18.214542,-110.035194,1.832166,33.758488,0.544752,-0.786592,-0.229095,0.178982
68,-1.225523,-7.886229,-5.492496,6.736617,-7.102086,7.418620,-109.998810,2.408238,33.863380,0.543587,-0.786976,-0.226977,0.183477
69,-1.650808,-8.053782,-4.796932,3.597789,-4.639241,0.992947,-110.029938,2.716014,33.991722,0.542492,-0.787271,-0.226422,0.186117
70,-1.845978,-8.391514,-4.524458,6.043847,-3.366620,-7.880308,-110.017197,2.785868,34.149609,0.542168,-0.786990,-0.227148,0.187365
71,-1.915445,-9.078688,-4.221534,13.121088,-0.954132,-18.593830,-109.795792,2.531073,34.362919,0.543902,-0.785180,-0.229482,0.187086
72,-2.022645,-9.518482,-4.852078,23.234922,3.233008,-23.241796,-109.281395,1.996267,34.556778,0.548284,-0.781612,-0.232564,0.185422
73,-2.082577,-10.021801,-5.813962,28.320831,6.332162,-19.875607,-108.567184,1.401172,34.634701,0.554315,-0.777180,-0.234846,0.183233
74,-1.763447,-10.390106,-6.964257,24.867662,9.281776,-18.422928,-107.894699,0.837192,34.582417,0.560160,-0.773196,-0.236190,0.180562
75,-1.340647,-10.204328,-7.270807,11.274720,14.501967,-16.764248,-107.562218,0.257436,34.379475,0.563941,-0.771119,-0.237160,0.176355
76,-0.895111,-9.185391,-7.508032,-6.816653,20.205875,-13.451464,-107.807297,-0.320297,33.979187,0.564091,-0.772279,-0.237678,0.169986
77,-0.414877,-8.345910,-6.843213,-26.591118,24.035946,-8.595967,-108.709618,-0.845945,33.394569,0.559901,-0.777120,-0.237598,0.161686
78,-0.097125,-7.791666,-6.570502,-35.879425,24.611223,-6.320813,-110.087715,-1.318154,32.716171,0.552375,-0.784506,-0.237138,0.152309
79,0.155607,-7.193311,-6.133864,-39.067085,22.751120,-5.078710,-111.659256,-1.763446,32.052647,0.543278,-0.792735,-0.236700,0.142806
80,0.186902,-6.699028,-5.931885,-36.135788,19.046171,-3.272014,-113.220627,-2.151655,31.470634,0.533865,-0.800713,-0.236338,0.134131
81,0.124456,-6.379159,-5.767832,-30.259447,14.183048,-2.556355,-114.625282,-2.450964,31.014332,0.525088,-0.807719,-0.236096,0.127011
82,0.084761,-6.198487,-5.752103,-21.196974,8.228888,-2.109259,-115.773438,-2.655621,30.721104,0.517667,-0.813260,-0.236182,0.121852
83,0.233760,-6.017119,-5.584373,-12.169599,3.278786,-2.739467,-116.612938,-2.790631,30.597116,0.512075,-0.817100,-0.236774,0.118594
84,0.380802,-6.126075,-5.488664,-5.185439,-1.105198,-4.678917,-117.169304,-2.909421,30.633211,0.508285,-0.819338,-0.238121,0.116746
85,0.541334,-6.525395,-5.361547,-0.030863,-3.470382,-8.483048,-117.491722,-3.075925,30.813086,0.506106,-0.820158,-0.240454,0.115668
86,1.067643,-7.120087,-5.467377,3.156796,-4.331004,-10.976412,-117.638344,-3.341515,31.088367,0.505276,-0.819850,-0.243714,0.114654
87,1.417726,-7.838743,-5.695293,3.092707,-3.017183,-14.571490,-117.704697,-3.734839,31.403605,0.505226,-0.818901,-0.247719,0.113060
88,1.598564,-8.449245,-5.853989,0.870959,-1.015168,-17.438705,-117.786842,-4.260189,31.720051,0.505318,-0.817797,-0.252301,0.110479
89,1.672586,-8.739787,-5.830519,0.159878,0.231513,-17.536364,-117.898964,-4.852187,32.012314,0.505353,-0.816741,-0.257006,0.107239
90,1.833477,-8.561571,-5.883205,1.588144,0.628254,-15.664055,-117.995148,-5.430870,32.268330,0.505516,-0.815680,-0.261363,0.103964
91,1.630828,-8.156179,-5.501498,2.811937,-0.143865,-13.510973,-118.047668,-5.940475,32.500076,0.505888,-0.814560,-0.265202,0.101177
92,1.553979,-7.814488,-5.204482,5.436528,-3.583301,-8.533404,-118.030479,-6.297994,32.738373,0.506469,-0.813342,-0.268379,0.099682
93,1.505037,-7.327369,-4.941159,7.534676,-7.068514,-2.531940,-117.936890,-6.434952,32.993240,0.507167,-0.812100,-0.270679,0.100039
94,1.589134,-7.249520,-5.007055,9.016350,-10.057801,4.392709,-117.791824,-6.334416,33.243946,0.507784,-0.811033,-0.271905,0.102219
95,1.364260,-7.515391,-5.337679,9.364261,-13.176792,10.002010,-117.628159,-5.991753,33.489426,0.508064,-0.810300,-0.272053,0.106168
96,1.056607,-7.801820,-5.719766,8.930898,-15.261209,14.932275,-117.480064,-5.424506,33.732716,0.507780,-0.810010,-0.271240,0.111681
97,0.692206,-8.051088,-5.905465,7.211180,-15.981444,19.687059,-117.372604,-4.663522,33.944126,0.506823,-0.810277,-0.269403,0.118339
98,0.222826,-8.406683,-6.114391,5.592173,-16.085209,23.338598,-117.314651,-3.741330,34.102497,0.505201,-0.811115,-0.266537,0.125788
99,-0.568914,-8.418546,-6.113184,3.419255,-15.625904,23.062407,-117.314705,-2.726821,34.227833,0.502963,-0.812382,-0.263087,0.133602
100,-1.243043,-8.255072,-5.854064,1.176145,-14.060303,21.629562,-117.379959,-1.700746,34.332794,0.500206,-0.813941,-0.259506,0.141247
101,-1.629605,-8.268888,-5.723070,0.002708,-12.314645,19.879326,-117.487877,-0.713577,34.408741,0.497212,-0.815636,-0.255932,0.148382
102,-1.876491,-8.075305,-5.674257,0.722946,-9.397077,15.777638,-117.597984,0.165815,34.456921,0.494431,-0.817198,-0.252625,0.154617
103,-2.040365,-7.826245,-5.506216,1.586619,-5.637196,11.082366,-117.682594,0.871796,34.471485,0.492232,-0.818452,-0.249791,0.159524
104,-1.971363,-7.811849,-5.449204,2.477759,-1.051790,7.722279,-117.735680,1.389023,34.423157,0.490755,-0.819439,-0.247280,0.162885
105,-1.838991,-7.808257,-5.497663,2.163418,3.033112,5.080902,-117.780960,1.731172,34.292011,0.489843,-0.820337,-0.244922,0.164662
106,-1.827835,-7.636456,-5.474725,0.414709,6.586993,2.257940,-117.868851,1.920600,34.089413,0.489076,-0.821373,-0.242774,0.164958
107,-1.842440,-7.745681,-5.408941,-3.142224,9.223792,0.307807,-118.044594,1.987669,33.832188,0.488033,-0.822745,-0.240890,0.163969
108,-1.854661,-7.896070,-5.497020,-5.070994,10.484206,-1.692681,-118.304199,1.962110,33.548885,0.486628,-0.824413,-0.239334,0.162038
109,-1.870332,-7.957476,-5.548495,-5.859897,11.381450,-2.957673,-118.605164,1.868844,33.260727,0.485072,-0.826181,-0.238083,0.159521
110,-1.719465,-7.936613,-5.574124,-5.159498,12.402293,-3.914429,-118.904793,1.720174,32.963814,0.483647,-0.827891,-0.236992,0.156578
111,-1.531310,-7.967644,-5.667522,-4.425528,13.162205,-5.093969,-119.179596,1.509928,32.660030,0.482529,-0.829435,-0.236066,0.153217
112,-1.189943,-7.888157,-5.719355,-5.600490,13.540634,-7.915405,-119.462776,1.208178,32.374432,0.481506,-0.830868,-0.235655,0.149256
113,-0.664364,-7.721072,-5.848304,-7.617763,14.440929,-10.929108,-119.806808,0.772701,32.121063,0.480262,-0.832330,-0.236100,0.144333
114,-0.241658,-7.531711,-5.955554,-10.912234,15.046721,-15.116246,-120.251694,0.179229,31.910238,0.478535,-0.833931,-0.237609,0.138223
115,0.245768,-7.518771,-5.969756,-14.609553,15.322915,-18.444290,-120.815178,-0.567829,31.757273,0.476157,-0.835701,-0.240263,0.130965
116,0.663580,-7.532485,-6.044808,-16.400990,15.266456,-19.481918,-121.463768,-1.414267,31.648617,0.473269,-0.837573,-0.243664,0.122948
117,0.927906,-7.381315,-6.154480,-14.421865,15.174900,-18.305428,-122.109055,-2.279099,31.552107,0.470386,-0.839335,-0.247131,0.114809
118,1.199699,-7.315839,-6.188865,-11.690457,13.569627,-14.600485,-122.675247,-3.073567,31.446312,0.467911,-0.840839,-0.250079,0.107281
119,1.585909,-7.335607,-6.243990,-8.418874,11.398234,-9.276530,-123.133049,-3.726620,31.319714,0.465940,-0.842103,-0.252146,0.100922
120,1.779719,-7.349894,-6.304548,-5.589809,8.468457,-4.199776,-123.480888,-4.204292,31.174110,0.464429,-0.843181,-0.253245,0.096015
121,1.943685,-7.355089,-6.246491,-3.542017,5.341836,-0.790859,-123.739540,-4.516701,31.036785,0.463234,-0.844098,-0.253663,0.092561
122,2.046099,-7.483375,-6.231319,-2.348743,2.589068,1.560592,-123.933792,-4.700840,30.927980,0.462238,-0.844867,-0.253729,0.090318
123,1.931213,-7.555113,-6.155874,-2.452505,1.412579,1.481244,-124.099190,-4.811664,30.851856,0.461287,-0.845547,-0.253725,0.088818
124,1.773399,-7.511897,-6.067136,-1.611721,0.808312,1.067718,-124.244911,-4.898267,30.804319,0.460411,-0.846117,-0.253819,0.087657
125,1.712808,-7.359232,-6.122938,-1.005928,0.287972,1.353066,-124.370300,-4.965756,30.773764,0.459635,-0.846594,-0.253948,0.086751
126,1.685211,-7.223870,-6.129297,-2.461661,0.051453,2.494458,-124.518745,-5.002727,30.740990,0.458632,-0.847209,-0.253959,0.086014
127,1.676587,-7.103716,-6.233607,-4.166120,-0.099613,3.823539,-124.728386,-5.000795,30.690950,0.457115,-0.848160,-0.253738,0.085364
128,1.661203,-7.107522,-6.371973,-4.767335,-0.178961,5.743154,-124.983917,-4.950495,30.613621,0.455185,-0.849419,-0.253164,0.084869
129,1.466064,-7.150251,-6.475190,-4.758179,-0.044680,7.995419,-125.249657,-4.832914,30.495092,0.453081,-0.850895,-0.252036,0.084696
130,1.096884,-7.165425,-6.504989,-4.300401,0.571794,12.982141,-125.500458,-4.597813,30.295090,0.450925,-0.852641,-0.249847,0.085126
131,0.594861,-7.231021,-6.542142,-2.782105,1.322549,19.978510,-125.705124,-4.174371,29.958080,0.448862,-0.854734,-0.245892,0.086548
132,0.075952,-7.282088,-6.518300,-0.732789,1.594164,24.977444,-125.837746,-3.554917,29.487810,0.447078,-0.857038,-0.240143,0.089098
133,-0.426106,-7.271196,-6.399581,1.551522,1.429364,27.428078,-125.890419,-2.795280,28.941065,0.445710,-0.859291,-0.233214,0.092590
134,-0.756907,-7.320734,-6.455838,2.900440,1.215735,26.883322,-125.884354,-1.977345,28.379490,0.444712,-0.861324,-0.225880,0.096595
135,-0.961730,-7.389773,-6.415049,3.455877,0.994476,21.904228,-125.852188,-1.217019,27.876867,0.443991,-0.862989,-0.219163,0.100449
136,-1.143616,-7.262125,-6.335982,4.029625,1.395794,13.021816,-125.806870,-0.639115,27.506296,0.443606,-0.864099,-0.214109,0.103464
137,-1.309737,-7.247661,-6.309627,4.601847,2.700460,5.561568,-125.747665,-0.291725,27.271404,0.443633,-0.864643,-0.210944,0.105287
138,-1.363543,-7.329084,-6.339936,4.473670,4.273689,-0.255260,-125.681122,-0.149095,27.126295,0.444009,-0.864787,-0.209236,0.105924
139,-1.289139,-7.344931,-6.278660,4.545388,5.419658,-4.382888,-125.612617,-0.172765,27.040564,0.444648,-0.864655,-0.208618,0.105538
140,-1.178435,-7.508268,-6.323387,5.283936,6.454237,-7.547657,-125.525650,-0.326908,26.995655,0.445624,-0.864253,-0.208797,0.104358
141,-0.876733,-7.645057,-6.389052,6.307832,6.699910,-9.069004,-125.405579,-0.576771,26.978313,0.446993,-0.863576,-0.209527,0.102624
142,-0.466092,-7.590078,-6.355581,6.080469,6.361154,-9.221597,-125.272957,-0.879549,26.977827,0.448532,-0.862761,-0.210582,0.100581
143,-0.112069,-7.448943,-6.312251,5.515876,5.560045,-8.304516,-125.159180,-1.192743,26.985090,0.449937,-0.861987,-0.211756,0.098457
144,0.248489,-7.554962,-6.331852,3.892292,4.162297,-5.657035,-125.084084,-1.465640,26.987946,0.450980,-0.861407,-0.212774,0.096549
145,0.665606,-7.465123,-6.239780,2.723433,2.096194,-3.282696,-125.053772,-1.670085,26.990042,0.451565,-0.861071,-0.213560,0.095072
147,0.901618,-7.582118,-6.257156,1.408085,0.585527,-1.587393,-125.062279,-1.812410,27.002190,0.451740,-0.860932,-0.214211,0.094031
148,1.088041,-7.652283,-6.350012,0.492530,-1.079258,-0.734400,-125.106972,-1.906063,27.033520,0.451542,-0.860950,-0.214847,0.093364
149,1.088489,-7.740685,-6.361246,-1.401144,-1.875791,-0.873259,-125.197945,-1.972353,27.091740,0.450927,-0.861128,-0.215615,0.092922
150,0.918747,-7.440314,-6.364785,-4.308030,-1.630117,-1.057897,-125.375404,-2.028949,27.160950,0.449636,-0.861634,-0.216498,0.092432
151,0.771340,-7.251888,-6.360789,-8.927008,-0.435317,-0.067571,-125.690506,-2.073738,27.203382,0.447309,-0.862739,-0.217243,0.091664
152,0.751320,-7.075068,-6.333729,-10.802370,0.274239,0.855614,-126.118896,-2.103232,27.201721,0.444134,-0.864376,-0.217684,0.090621
153,0.551862,-7.030770,-6.259727,-10.665036,1.301187,1.507184,-126.572273,-2.118036,27.161043,0.440769,-0.866189,-0.217789,0.089490
154,0.360642,-6.905160,-6.248065,-9.277969,1.607898,2.778280,-126.994179,-2.101223,27.082937,0.437607,-0.867972,-0.217462,0.088517
155,0.337796,-6.999416,-6.216568,-5.475364,1.380535,3.710621,-127.321022,-2.045737,26.981028,0.435110,-0.869467,-0.216734,0.087932
156,0.268931,-7.183450,-6.351628,0.503211,0.979216,3.088043,-127.473465,-1.975704,26.883581,0.433905,-0.870302,-0.215850,0.087809
157,0.040613,-7.246124,-6.436722,3.689344,1.221839,1.133332,-127.470306,-1.924111,26.814074,0.433892,-0.870473,-0.215127,0.087945
158,-0.067432,-7.314455,-6.561556,4.583536,0.594683,-0.009586,-127.402588,-1.893952,26.781088,0.434379,-0.870310,-0.214712,0.088177
159,0.061894,-7.486651,-6.643039,4.965017,-0.558917,-0.438371,-127.315262,-1.868201,26.787588,0.434992,-0.869992,-0.214598,0.088562
160,0.121205,-7.502271,-6.625418,4.815477,-1.343242,-1.472948,-127.222954,-1.851817,26.834440,0.435627,-0.869571,-0.214821,0.089038
161,0.095589,-7.425909,-6.619554,3.449773,-1.767450,-1.701837,-127.159401,-1.842084,26.910126,0.436033,-0.869197,-0.215309,0.089519
162,0.140701,-7.471360,-6.551027,2.077966,-2.400709,-0.677941,-127.141243,-1.812388,26.991808,0.436055,-0.869005,-0.215803,0.090090
163,0.250120,-7.419152,-6.388293,1.783463,-2.599079,-0.073674,-127.143105,-1.760623,27.067871,0.435889,-0.868921,-0.216187,0.090770
164,0.257286,-7.300346,-6.309632,1.987937,-2.046694,-0.601645,-127.142982,-1.718049,27.138308,0.435759,-0.868832,-0.216562,0.091362
165,0.243147,-7.338008,-6.263648,2.087122,-1.585864,-0.320874,-127.135368,-1.689580,27.197662,0.435718,-0.868720,-0.216899,0.091819
166,0.279595,-7.388866,-6.161767,2.772263,-1.193701,-0.716089,-127.173241,-1.672344,27.248524,0.435360,-0.868785,-0.217250,0.092071
167,0.313112,-7.339427,-6.139824,3.669507,-1.021272,-0.952608,-127.248192,-1.678172,27.300066,0.434760,-0.868966,-0.217723,0.092080
168,0.290134,-7.354331,-6.161656,3.964010,-0.665731,-1.291363,-127.303886,-1.699551,27.350428,0.434336,-0.869059,-0.218230,0.092003
169,0.329211,-7.477960,-6.122459,4.725447,-0.436842,-0.902252,-127.267128,-1.721469,27.390350,0.434622,-0.868821,-0.218585,0.092057
170,0.350362,-7.523362,-6.200055,4.983329,-0.131657,-1.286786,-127.141434,-1.749739,27.421007,0.435601,-0.868256,-0.218822,0.092199
171,0.335704,-7.526225,-6.203327,5.253417,0.052980,-1.628592,-127.009911,-1.792394,27.452505,0.436648,-0.867651,-0.219115,0.092246
172,0.298499,-7.569446,-6.190887,5.392277,0.266609,-1.932252,-126.872009,-1.844535,27.485125,0.437759,-0.867008,-0.219446,0.092238
173,0.301123,-7.575515,-6.183836,5.779862,0.176579,-1.704889,-126.725304,-1.896490,27.516760,0.438936,-0.866331,-0.219763,0.092245
174,0.256409,-7.594743,-6.198581,5.259521,0.127750,-1.419541,-126.582611,-1.937336,27.545113,0.440065,-0.865686,-0.220017,0.092318
175,0.243904,-7.573116,-6.200545,5.143551,-0.029420,-0.900726,-126.453468,-1.961860,27.568296,0.441065,-0.865119,-0.220180,0.092469
176,0.220722,-7.535909,-6.192015,4.479773,-0.439894,0.265081,-126.340858,-1.955995,27.582512,0.441893,-0.864664,-0.220174,0.092785
177,0.192091,-7.569864,-6.142206,3.196470,-0.767968,1.556014,-126.260101,-1.907225,27.582388,0.442415,-0.864405,-0.219923,0.093309
178,0.133816,-7.646442,-6.149351,2.795151,-0.801539,2.344917,-126.203529,-1.823084,27.566536,0.442704,-0.864306,-0.219437,0.093993
179,0.057833,-7.591488,-6.205807,3.121699,-0.758813,2.312873,-126.150887,-1.723355,27.543230,0.442942,-0.864253,-0.218838,0.094759
180,-0.036828,-7.506263,-6.157835,3.036247,-0.508561,2.177066,-126.099739,-1.621959,27.517797,0.443167,-0.864210,-0.218217,0.095526
181,-0.144226,-7.513508,-6.168322,2.938588,-0.723717,1.951229,-126.053642,-1.517541,27.495483,0.443345,-0.864183,-0.217612,0.096317
182,-0.187501,-7.478266,-6.186662,4.530129,-1.396650,0.352059,-125.986221,-1.423302,27.503088,0.443678,-0.864006,-0.217252,0.097187
183,-0.269672,-7.505924,-6.223034,5.650158,-2.737939,-2.655540,-125.878616,-1.367082,27.583067,0.444319,-0.863496,-0.217548,0.098127
184,-0.034393,-7.511140,-6.061739,5.325136,-5.824886,-8.148872,-125.756851,-1.391465,27.805693,0.445089,-0.862573,-0.219213,0.099038
185,0.161287,-7.521541,-5.917899,3.698500,-9.561876,-15.706780,-125.663338,-1.547955,28.247307,0.445696,-0.861192,-0.223054,0.099754
186,0.559924,-7.644665,-5.755292,3.507759,-11.785149,-22.910673,-125.594376,-1.875206,28.912537,0.446242,-0.859252,-0.229243,0.100013
187,0.875677,-7.785299,-5.776228,2.573892,-12.931119,-24.766199,-125.541420,-2.324299,29.710857,0.446792,-0.856906,-0.236892,0.099852
188,1.190782,-7.828358,-5.670032,0.539834,-12.815148,-23.633963,-125.537369,-2.797681,30.530066,0.447023,-0.854598,-0.244810,0.099498
189,1.274266,-7.970422,-5.744102,-0.361988,-11.293801,-18.195564,-125.577942,-3.208393,31.263626,0.446892,-0.852650,-0.251867,0.099189
190,1.325218,-7.956338,-5.733089,0.977774,-9.493210,-10.329418,-125.603836,-3.468898,31.823223,0.446735,-0.851169,-0.257034,0.099361
191,1.341616,-7.985661,-5.693318,2.264129,-9.168187,-2.478532,-125.573456,-3.534873,32.201084,0.446765,-0.850111,-0.260061,0.100408
192,1.250738,-7.849649,-5.598763,5.328188,-8.931669,1.504133,-125.460701,-3.440981,32.456306,0.447183,-0.849216,-0.261500,0.102363
193,1.131087,-7.790478,-5.614447,9.460394,-8.786707,5.054962,-125.226524,-3.240468,32.634174,0.448343,-0.848163,-0.261847,0.105091
194,0.967229,-7.769142,-5.559870,13.214170,-8.455580,9.173433,-124.859535,-2.929863,32.733498,0.450321,-0.846911,-0.261058,0.108634
195,0.639741,-7.906505,-5.686837,16.021873,-7.547655,11.868218,-124.383354,-2.517912,32.754028,0.452959,-0.845531,-0.259168,0.112860
196,0.090266,-7.924984,-5.730022,16.137844,-5.814204,13.355995,-123.864845,-2.035409,32.703392,0.455822,-0.844216,-0.256402,0.117405
197,-0.455665,-8.112826,-5.821070,16.352999,-5.245034,15.000942,-123.347305,-1.484639,32.596684,0.458587,-0.843089,-0.252915,0.122204
198,-0.787359,-8.268477,-6.073996,16.815355,-4.709434,13.487225,-122.831467,-0.908832,32.478268,0.461295,-0.841993,-0.249197,0.127107
199,-1.141410,-8.527513,-6.303950,14.677533,-3.033968,8.602737,-122.360268,-0.421716,32.390686,0.463824,-0.840871,-0.246069,0.131355
200,-1.341848,-8.695955,-6.091253,11.882037,-1.553820,3.179599,-121.969505,-0.092820,32.352470,0.466036,-0.839759,-0.244004,0.134449
201,-1.290500,-8.909245,-6.110069,7.701002,-0.134710,-2.486162,-121.685516,0.052621,32.371307,0.467785,-0.838734,-0.243214,0.136195
202,-1.057350,-8.922552,-5.968315,-1.903173,2.495986,-9.229226,-121.626717,-0.030427,32.440716,0.468309,-0.838248,-0.243991,0.135996
203,-0.804531,-8.854726,-5.439459,-13.251480,4.887111,-13.521656,-121.896454,-0.334067,32.535614,0.466870,-0.838781,-0.246240,0.133583
204,-0.545936,-8.425519,-4.772161,-20.104410,5.651599,-15.351238,-122.433182,-0.768094,32.642620,0.463736,-0.840200,-0.249394,0.129672
205,-0.082405,-7.909191,-4.342715,-22.344467,6.071230,-15.310039,-123.092415,-1.263102,32.753933,0.459824,-0.841998,-0.252919,0.125032
206,0.158514,-7.335013,-3.902741,-18.781433,5.703480,-13.373638,-123.707680,-1.758066,32.851746,0.456242,-0.843614,-0.256248,0.120400
207,0.466916,-6.878088,-3.472356,-7.868014,3.661793,-9.175819,-124.054863,-2.170060,32.928951,0.454475,-0.844289,-0.258782,0.116876
208,0.758598,-6.722303,-3.528642,8.578409,1.424787,-4.384413,-123.935135,-2.448799,32.981098,0.455891,-0.843330,-0.260128,0.115289
209,1.193103,-7.155539,-4.591978,22.600138,2.804223,-5.139746,-123.353828,-2.695689,33.007153,0.460653,-0.840617,-0.260698,0.114887
210,0.968553,-8.030252,-5.843742,29.181452,5.367777,-6.654991,-122.502464,-3.004809,32.999191,0.467534,-0.836764,-0.261006,0.114512
211,1.090176,-8.715543,-6.507762,28.314728,7.201940,-7.460679,-121.598869,-3.362140,32.948540,0.474901,-0.832663,-0.261164,0.113736
212,1.028885,-8.989400,-7.100143,20.437902,6.945584,-7.529346,-120.872765,-3.735792,32.881016,0.480990,-0.829251,-0.261467,0.112372
213,0.916016,-9.024689,-7.179351,6.378025,6.184148,-5.550221,-120.539597,-4.056968,32.811363,0.484109,-0.827536,-0.261945,0.110491
214,0.692659,-8.720942,-6.492790,-7.103527,2.772179,0.806784,-120.659706,-4.204846,32.730862,0.483612,-0.828008,-0.262080,0.108796
215,0.835276,-8.188254,-5.754694,-16.095802,-0.838161,5.233494,-121.128586,-4.136629,32.657833,0.480153,-0.830247,-0.261718,0.107917
216,0.732316,-7.698536,-5.420417,-19.811432,-3.249123,7.224827,-121.793884,-3.931480,32.612785,0.474957,-0.833421,-0.261193,0.107717
217,0.849728,-7.726025,-5.174808,-19.068308,-2.768457,7.443034,-122.489136,-3.684587,32.571331,0.469434,-0.836733,-0.260563,0.107782
218,0.706642,-7.745298,-5.277978,-14.948309,-1.817805,4.343880,-123.085045,-3.493996,32.531448,0.464728,-0.839519,-0.260080,0.107674
219,0.453538,-7.762570,-5.410745,-10.150798,-1.469894,1.708606,-123.532562,-3.378620,32.523682,0.461218,-0.841504,-0.259992,0.107482
220,0.584590,-7.812061,-5.525139,-6.209333,-2.019227,0.619096,-123.836227,-3.308869,32.552292,0.458818,-0.842754,-0.260216,0.107424
221,0.602142,-7.817661,-5.744965,-4.822268,-1.877316,-0.188119,-124.058044,-3.269707,32.604282,0.457057,-0.843575,-0.260655,0.107419
222,0.400609,-7.817496,-5.888525,-5.627956,-1.474472,-1.030430,-124.280548,-3.249506,32.664574,0.455320,-0.844351,-0.261229,0.107302
223,0.447465,-7.774059,-5.828731,-6.561823,-1.814754,-0.163704,-124.532845,-3.222177,32.723686,0.453348,-0.845254,-0.261796,0.107164
224,0.560484,-7.630708,-5.775077,-7.044015,-1.906309,0.352059,-124.805397,-3.180330,32.775391,0.451202,-0.846268,-0.262272,0.107056
225,0.450024,-7.509668,-5.670960,-7.483481,-1.755242,1.002103,-125.089882,-3.124298,32.814793,0.448946,-0.847370,-0.262616,0.106977
226,0.443505,-7.561551,-5.615527,-5.965187,-2.327464,2.262518,-125.346672,-3.033358,32.840748,0.446832,-0.848436,-0.262703,0.107168
227,0.469007,-7.524934,-5.675763,-3.697661,-3.008027,3.043791,-125.535393,-2.904647,32.863380,0.445144,-0.849289,-0.262561,0.107785
228,0.369609,-7.509592,-5.740865,-2.864506,-2.895108,1.865777,-125.675873,-2.773779,32.897320,0.443795,-0.849927,-0.262452,0.108572
229,0.423962,-7.626777,-5.788650,-2.397573,-3.276590,1.157748,-125.794350,-2.665293,32.952824,0.442635,-0.850400,-0.262569,0.109326
230,0.447057,-7.767632,-5.891534,-2.141216,-4.219612,1.626207,-125.897598,-2.552221,33.028145,0.441556,-0.850772,-0.262802,0.110225
231,0.381238,-7.833381,-5.961382,-2.417409,-5.069553,1.308814,-126.000763,-2.418630,33.125904,0.440411,-0.851117,-0.263126,0.111363
232,0.215547,-7.796294,-6.048103,-2.699706,-5.678397,0.918177,-126.117569,-2.270690,33.250092,0.439105,-0.851470,-0.263609,0.112678
233,0.227440,-7.668702,-6.058789,-3.389424,-6.085819,1.699451,-126.257416,-2.102197,33.383995,0.437569,-0.851911,-0.264112,0.114127
234,0.038877,-7.589057,-6.070590,-3.834994,-5.414412,4.218754,-126.419441,-1.885766,33.481407,0.435796,-0.852577,-0.264191,0.115743
235,-0.168678,-7.479795,-5.835414,-3.690031,-4.120426,7.151582,-126.578102,-1.599099,33.497517,0.433972,-0.853499,-0.263404,0.117583
236,-0.204934,-7.329948,-5.640967,-2.991157,-2.509049,9.876885,-126.708565,-1.257330,33.417328,0.432331,-0.854594,-0.261669,0.119538
237,-0.006462,-7.596123,-5.703142,-3.339068,-0.149968,10.873314,-126.820686,-0.919030,33.246017,0.430929,-0.855808,-0.259248,0.121170
238,0.070518,-8.254940,-6.083045,-5.139660,2.460890,11.643907,-126.956436,-0.626798,32.989853,0.429544,-0.857234,-0.256389,0.122091
239,0.098324,-8.651882,-6.408779,-9.807465,4.612444,9.712086,-127.195511,-0.408660,32.681049,0.427605,-0.859063,-0.253520,0.122040
240,0.234178,-8.834709,-7.038164,-17.536278,6.210088,6.800620,-127.656868,-0.305453,32.370476,0.424245,-0.861576,-0.251294,0.120645
241,0.244392,-8.906859,-7.539100,-26.430897,7.723806,4.588028,-128.420715,-0.313218,32.070770,0.418819,-0.865032,-0.249860,0.117814
242,0.073336,-8.259915,-7.439237,-33.433372,8.268562,4.127199,-129.467972,-0.375991,31.772503,0.411330,-0.869409,-0.248888,0.113979
244,-0.042556,-7.073676,-7.038615,-36.646969,7.676503,4.763509,-130.708450,-0.429287,31.474228,0.402297,-0.874404,-0.248018,0.109824
245,-0.005488,-5.990366,-6.798982,-33.189224,6.446606,5.549361,-131.980576,-0.446827,31.184719,0.392872,-0.879426,-0.247061,0.105937
246,0.009447,-5.237844,-6.485713,-22.977728,5.470014,5.602769,-133.055649,-0.437058,30.913786,0.384827,-0.883666,-0.245923,0.102781
247,-0.012641,-4.463268,-6.247157,-9.245926,4.777245,5.358620,-133.760666,-0.414057,30.665447,0.379553,-0.886571,-0.244554,0.100621
248,0.144053,-4.076481,-6.099890,6.820543,4.642962,4.800132,-133.997025,-0.402284,30.436378,0.377898,-0.887850,-0.242948,0.099453
249,0.261109,-4.102548,-6.086378,25.572639,4.887111,2.868310,-133.658218,-0.439525,30.234688,0.380775,-0.887120,-0.241215,0.099212
250,0.263718,-4.223251,-5.706948,43.932575,5.148044,0.722859,-132.679337,-0.537814,30.072771,0.388684,-0.884082,-0.239441,0.099961
251,0.146331,-4.259932,-5.147331,62.370335,4.795556,-0.120978,-131.052017,-0.660758,29.943361,0.401566,-0.878621,-0.237433,0.101954
252,0.112417,-4.624564,-4.158374,82.179893,3.274208,0.464977,-128.713837,-0.751435,29.836664,0.419690,-0.870372,-0.234823,0.105697
253,0.106498,-5.297748,-3.554761,102.418243,0.910550,1.804740,-125.605156,-0.767905,29.757177,0.443254,-0.858810,-0.231337,0.111596
254,-0.052853,-6.459706,-2.673347,117.422668,-1.001435,1.780325,-121.795570,-0.708800,29.722942,0.471477,-0.843738,-0.227006,0.119519
255,-0.103516,-8.269948,-1.845448,126.685028,-3.435286,4.411020,-117.467514,-0.560831,29.733891,0.502708,-0.825489,-0.221764,0.129122
256,-0.034227,-10.932293,-1.428876,124.765419,-5.975952,5.584457,-112.963943,-0.325923,29.801758,0.534238,-0.805269,-0.215904,0.139705
257,-0.096962,-13.652578,-1.488622,106.216270,-8.803491,5.096161,-108.820587,-0.059594,29.966080,0.562300,-0.785480,-0.210533,0.150052
258,-0.350523,-16.100794,-2.172930,67.088493,-11.444868,2.210636,-105.706131,0.174477,30.251396,0.582623,-0.769714,-0.207103,0.158741
259,-0.564951,-17.911911,-3.604407,5.987386,-13.596424,0.713703,-104.359200,0.355424,30.642258,0.590746,-0.762361,-0.206889,0.164384
260,-0.763911,-19.017069,-5.097741,-68.776855,-12.065921,-1.334089,-105.372017,0.486075,31.057638,0.583146,-0.766974,-0.210448,0.165538
261,-1.263161,-17.906097,-5.099267,-136.425705,-6.499345,-1.678948,-108.797615,0.575089,31.365343,0.559359,-0.783600,-0.216970,0.161284
262,-0.705686,-13.890464,-5.294213,-191.423111,3.274208,-0.983126,-114.274193,0.602152,31.426390,0.521150,-0.809342,-0.224735,0.151203
263,-0.628226,-10.348071,-5.513876,-229.499512,13.420087,-2.055852,-121.318336,0.469842,31.198095,0.470991,-0.840145,-0.232472,0.135205
264,-0.412910,-6.776928,-3.748479,-244.828964,23.062407,-4.738429,-129.201447,0.073187,30.760677,0.413409,-0.871061,-0.239325,0.114318
265,0.414669,-2.418412,-1.815469,-244.828964,29.735279,-8.437272,-137.277878,-0.726721,30.268873,0.353145,-0.898381,-0.245374,0.089395
266,0.883431,0.293135,-1.244275,-239.376831,29.736805,-11.194619,-145.600067,-2.029350,29.939043,0.289997,-0.921362,-0.251774,0.060028
267,0.272348,0.819443,-2.569945,-214.022049,24.681416,-14.145759,-153.806259,-3.317669,29.917511,0.226105,-0.938894,-0.257641,0.031226
268,0.742497,2.342177,-2.523031,-190.519745,20.393564,-13.872617,-161.331680,-4.307828,30.121609,0.166147,-0.950607,-0.262109,0.006302
269,0.960703,3.536166,-4.426396,-158.397507,16.668781,-13.434676,-167.976639,-5.164050,30.470751,0.112721,-0.957334,-0.265627,-0.015733
270,0.132123,3.779290,-6.488007,-124.006187,11.758353,-11.310589,-173.418045,-5.727067,30.868973,0.068541,-0.960381,-0.268130,-0.032817
271,0.248232,4.841212,-7.766063,-94.249123,9.438947,-10.050174,-177.701523,-6.053705,31.254364,0.033510,-0.961213,-0.269967,-0.045447
272,0.529489,5.237387,-7.936491,-73.040283,10.896205,-8.957612,178.902054,-6.353447,31.625128,0.005895,-0.960780,-0.271549,-0.055923
273,0.515843,4.840977,-8.238878,-52.217514,10.522353,-7.475938,176.268631,-6.660924,31.968180,-0.015256,-0.959727,-0.272941,-0.064769
274,0.541942,4.983282,-7.859034,-41.539089,7.926755,-6.217051,174.211777,-6.905132,32.273323,-0.031697,-0.958480,-0.274150,-0.071783
275,0.875232,5.159811,-7.570097,-29.499538,6.583939,-6.479509,172.540588,-7.093128,32.566261,-0.045013,-0.957149,-0.275392,-0.077457
276,0.848645,4.633495,-8.262723,-15.786040,5.289954,-5.533436,171.351028,-7.242592,32.842960,-0.054380,-0.955914,-0.276765,-0.081687
277,0.786142,4.470862,-8.129841,-14.569879,1.702505,-4.256236,170.478836,-7.302789,33.066223,-0.061339,-0.954913,-0.277945,-0.084411
278,0.512363,4.348742,-8.118979,-11.153331,-0.532976,-1.501941,169.718735,-7.257403,33.204914,-0.067682,-0.954163,-0.278575,-0.085958
279,0.661453,3.987519,-8.461514,-5.808016,-1.323405,3.898310,169.164307,-7.177925,33.194267,-0.072506,-0.953873,-0.278142,-0.086639
280,0.716370,3.722907,-8.844906,-4.709349,-0.806117,6.774679,168.788345,-7.128978,33.039177,-0.075877,-0.954019,-0.276613,-0.087043
281,0.945770,3.810666,-9.024233,-5.107615,0.030090,7.252294,168.457108,-7.126994,32.829842,-0.078800,-0.954299,-0.274620,-0.087682
282,0.894238,3.655502,-8.783801,-6.372608,0.086550,7.749744,168.107620,-7.153756,32.606750,-0.081816,-0.954580,-0.272466,-0.088582
283,0.959374,3.710566,-9.013028,-6.479423,-0.076724,6.571731,167.743790,-7.178377,32.393620,-0.084951,-0.954813,-0.270382,-0.089493
284,0.725882,3.872452,-9.075121,-7.562831,-0.058413,3.605332,167.353195,-7.177174,32.248158,-0.088323,-0.954860,-0.268865,-0.090292
285,0.830561,4.090620,-9.288104,-7.524681,-0.709983,2.065673,166.930817,-7.142283,32.174976,-0.091986,-0.954708,-0.267959,-0.090934
286,0.759220,4.300863,-9.216865,-10.961064,-1.884946,0.765585,166.437897,-7.068573,32.142262,-0.096299,-0.954397,-0.267377,-0.091447
287,0.889855,4.297709,-8.955647,-12.306931,-1.564502,-0.034000,165.853775,-6.977895,32.140793,-0.101387,-0.953916,-0.267002,-0.092056
288,1.065182,4.353956,-8.727138,-11.257095,-1.015168,-1.701837,165.256363,-6.909011,32.182690,-0.106494,-0.953291,-0.266951,-0.092915
289,1.076292,4.431694,-8.640476,-10.414784,-0.905302,-2.841703,164.682236,-6.849886,32.272675,-0.111340,-0.952546,-0.267304,-0.093850
290,0.995428,4.372763,-8.354408,-9.616725,-1.312724,-3.122474,164.133469,-6.778275,32.383526,-0.115986,-0.951755,-0.267866,-0.094649
291,0.841519,4.237030,-8.286872,-6.603023,-1.025850,-3.040073,163.657745,-6.694222,32.495052,-0.120052,-0.951016,-0.268508,-0.095182
292,0.848444,4.517853,-8.729525,-3.966223,-1.234902,-3.375777,163.286255,-6.601539,32.608955,-0.123269,-0.950366,-0.269268,-0.095410
293,0.686431,4.601209,-8.783269,-4.611690,-1.808650,-2.396133,162.951965,-6.490308,32.707748,-0.126236,-0.949783,-0.269961,-0.095386
294,0.706235,4.632094,-8.679590,-3.395527,-1.933776,-1.283733,162.631332,-6.372557,32.768742,-0.129136,-0.949293,-0.270363,-0.095239
295,0.682975,4.621141,-8.599974,-3.212416,-1.898679,-0.778652,162.337509,-6.263503,32.802593,-0.131814,-0.948887,-0.270553,-0.095073
296,0.823743,4.648996,-8.579288,-1.717010,-1.334087,-0.340712,162.075180,-6.176528,32.823544,-0.134186,-0.948539,-0.270633,-0.095000
297,0.781538,4.494071,-8.431355,-0.262803,-0.389539,-0.925141,161.867188,-6.119834,32.853508,-0.136025,-0.948227,-0.270790,-0.095060
298,0.770656,4.410572,-8.408944,1.810929,0.790002,-1.759822,161.724655,-6.088827,32.915806,-0.137230,-0.947911,-0.271232,-0.095216
299,0.835394,4.227270,-8.250569,3.104914,1.408001,-2.522785,161.645172,-6.082306,33.011745,-0.137824,-0.947588,-0.271969,-0.095466
300,0.784943,4.222626,-7.939854,8.113002,2.563127,-4.402725,161.664429,-6.093178,33.159172,-0.137514,-0.947260,-0.273188,-0.095687
301,0.472984,3.501966,-7.314088,17.428776,4.670430,-4.944428,161.929550,-6.128171,33.360874,-0.135066,-0.947092,-0.275026,-0.095580
302,0.421947,2.827161,-6.364244,29.489689,5.854548,-3.404768,162.581757,-6.208615,33.559967,-0.129304,-0.947360,-0.277099,-0.094900
303,0.182976,1.965333,-5.467381,44.210289,6.263496,-1.239481,163.726486,-6.321331,33.701576,-0.119431,-0.948249,-0.279057,-0.093204
304,0.201322,1.014478,-4.878225,60.913071,6.794518,4.330147,165.495285,-6.475352,33.709358,-0.104380,-0.949939,-0.280343,-0.090164
305,0.255241,0.218829,-4.699096,73.393616,5.761467,11.085418,167.892212,-6.678267,33.493294,-0.084130,-0.952401,-0.280165,-0.085801
306,0.624901,0.017392,-4.758677,78.400177,4.095156,14.399729,170.663177,-6.899573,33.083000,-0.060804,-0.955097,-0.278556,-0.080622
307,0.606832,-0.249489,-5.269073,81.490173,2.448683,15.248142,173.582397,-7.080934,32.581474,-0.036330,-0.957486,-0.276219,-0.074853
308,1.052069,0.033715,-6.007926,78.995285,0.730490,15.976009,176.469666,-7.200290,32.044899,-0.012225,-0.959336,-0.273479,-0.068810
309,0.969705,-0.338469,-6.759282,79.344719,0.133854,11.448587,179.268387,-7.263660,31.570549,0.011100,-0.960446,-0.271092,-0.062688
310,0.375227,-0.251226,-7.144190,81.386414,-4.562945,7.450664,-177.938721,-7.157669,31.244593,0.034096,-0.960722,-0.269807,-0.055272
311,0.299661,-0.229944,-7.426984,89.508911,-1.466842,5.550887,-175.046173,-6.967461,31.032671,0.057805,-0.960173,-0.269300,-0.046956
312,0.577654,-1.576687,-8.854586,102.988937,7.978636,11.027432,-171.765167,-6.975575,30.743660,0.085189,-0.958798,-0.268120,-0.039510
313,0.997718,-1.985563,-10.126107,86.737831,7.337748,8.895715,-168.493668,-7.131791,30.367104,0.112764,-0.956738,-0.266105,-0.033519
314,1.102069,-1.466023,-10.397038,61.596691,9.825006,5.549361,-165.990829,-7.335924,30.069204,0.134004,-0.954574,-0.264473,-0.029754
315,1.696784,-2.413766,-11.919720,54.929916,13.978574,6.373361,-164.061203,-7.663802,29.780149,0.150696,-0.952567,-0.262869,-0.028415
316,2.007690,-2.326429,-13.130633,39.110653,8.621051,7.406413,-162.519485,-7.971999,29.458586,0.164075,-0.950909,-0.260908,-0.027906
317,2.613688,-1.669782,-13.085260,13.566659,-1.758294,0.271185,-161.752319,-8.077990,29.317682,0.170625,-0.950011,-0.260046,-0.027252
318,1.774287,-2.067621,-13.433113,24.263395,-2.939361,-2.141303,-161.292160,-8.037122,29.394699,0.174371,-0.949181,-0.260742,-0.025750
319,1.680777,-1.885518,-13.871694,33.841625,-7.674306,-1.933778,-160.510788,-7.879273,29.541832,0.180541,-0.947785,-0.261927,-0.022426
320,1.525359,-1.627634,-13.307549,31.258236,-10.576616,2.320502,-159.633835,-7.572781,29.667362,0.187169,-0.946380,-0.262717,-0.017668
321,1.395160,-1.936274,-13.013117,28.424595,-13.897031,4.961880,-158.845474,-7.127603,29.725868,0.192750,-0.945355,-0.262690,-0.012066
322,0.867332,-1.634327,-13.332365,29.248592,-16.402601,6.309272,-158.101578,-6.551259,29.764137,0.197676,-0.944525,-0.262232,-0.005515
323,1.118319,-0.874656,-11.790285,25.024834,-16.568926,10.855003,-157.453171,-5.900982,29.738232,0.201648,-0.944027,-0.261053,0.001309
324,1.366719,-1.450929,-11.323031,32.327908,-19.451397,18.196230,-156.746597,-5.162593,29.553978,0.205922,-0.943810,-0.258347,0.008697
325,1.783854,-1.381156,-10.375708,51.322628,-19.568895,15.594526,-155.583801,-4.389368,29.324734,0.213901,-0.942813,-0.255051,0.017277
326,1.582575,-2.160512,-9.437382,86.350250,-18.621296,12.628129,-153.500839,-3.693328,29.191010,0.229586,-0.939619,-0.252306,0.027370
327,1.055487,-2.496088,-7.896502,103.579468,-16.826807,9.725819,-150.502075,-3.068684,29.150158,0.252819,-0.933879,-0.249867,0.038982
328,1.075116,-3.765158,-7.940544,117.523369,-16.906157,10.235477,-146.928482,-2.478793,29.162188,0.280603,-0.926000,-0.247240,0.051567
329,0.462705,-4.464304,-6.855141,126.504974,-13.089817,8.219729,-142.901505,-1.932818,29.196884,0.311836,-0.915961,-0.244108,0.064695
330,0.240406,-6.088856,-6.471706,121.492310,-11.122897,8.575272,-138.724030,-1.447362,29.233780,0.344010,-0.904342,-0.240449,0.077501
331,-0.003282,-6.319893,-6.846375,102.061180,-8.104617,5.412026,-134.941345,-1.039815,29.281757,0.372818,-0.892775,-0.236824,0.088733
332,0.062165,-6.793279,-6.276035,86.762253,-7.132604,8.656144,-131.767685,-0.677605,29.306473,0.396657,-0.882406,-0.233222,0.098136
333,-0.253371,-7.282396,-5.969844,76.836105,-6.001892,9.538130,-129.004242,-0.281818,29.276346,0.417065,-0.873034,-0.229124,0.106640
334,-0.062283,-7.645020,-6.023854,67.733955,-7.198218,7.700915,-126.569542,0.103366,29.274849,0.434762,-0.864363,-0.225334,0.114383
335,-0.470970,-7.333920,-6.223352,56.764080,-8.109196,4.772665,-124.519897,0.448909,29.362177,0.449382,-0.856628,-0.222545,0.121319
336,-0.473433,-7.266439,-5.441735,49.802807,-10.266854,7.107330,-122.793137,0.827383,29.508396,0.461332,-0.849864,-0.220243,0.128050
337,-0.521755,-7.717574,-5.533142,56.934982,-13.942808,8.187685,-121.053604,1.297549,29.716257,0.473007,-0.842851,-0.217842,0.135686
338,-0.561110,-8.115536,-5.719104,64.337250,-16.758141,5.785879,-119.082115,1.791002,30.042376,0.486048,-0.834490,-0.215729,0.144377
339,-0.623325,-8.747466,-5.424733,66.154625,-18.798304,5.572250,-116.949654,2.266781,30.476727,0.499959,-0.824998,-0.214021,0.153671
340,-0.509990,-9.131779,-4.913983,72.554367,-19.608570,8.378427,-114.651657,2.773250,30.951799,0.514699,-0.814483,-0.211952,0.163641
341,-0.255426,-10.180467,-5.041761,79.884903,-18.685385,8.260931,-112.112305,3.272718,31.426697,0.530878,-0.802575,-0.209231,0.173966
342,-0.209884,-10.573558,-4.671161,83.391479,-15.709830,2.428843,-109.392754,3.610923,31.897882,0.548323,-0.789300,-0.206631,0.183442
343,-0.301369,-10.812175,-3.627508,84.850266,-11.792779,-1.570608,-106.570404,3.729649,32.329296,0.566631,-0.774938,-0.204367,0.191402
344,-0.423858,-10.742460,-3.946694,88.298859,-7.890988,-5.071081,-103.687294,3.677065,32.673168,0.585465,-0.759767,-0.202043,0.197897
345,-0.583477,-10.429127,-3.583029,79.891014,-3.708427,-11.655448,-100.944649,3.427054,32.916733,0.603566,-0.744774,-0.200179,0.202357
347,-0.842566,-10.108307,-2.870284,69.043205,0.025513,-12.291759,-98.541306,3.048603,33.040985,0.619597,-0.731195,-0.198770,0.204800
348,-0.948096,-9.902596,-3.176706,61.401367,3.176549,-9.395554,-96.485687,2.711168,33.030071,0.633305,-0.719478,-0.196891,0.206181
349,-0.803240,-9.839960,-3.524765,47.108021,4.388134,-7.326398,-94.867645,2.454110,32.923794,0.644095,-0.710249,-0.194767,0.206770
350,-0.782117,-9.773365,-3.021801,31.069023,5.933896,-2.611288,-93.782104,2.307002,32.755924,0.651381,-0.704169,-0.192615,0.206758
351,-0.737847,-9.711791,-2.890035,19.278198,6.641926,4.980191,-93.158852,2.365915,32.535839,0.655487,-0.701074,-0.189800,0.206900
352,-0.659789,-10.106393,-3.015069,9.674024,7.186681,10.609329,-92.903587,2.639612,32.282730,0.656988,-0.700450,-0.186202,0.207523
353,-0.423589,-10.367407,-2.499848,-2.617306,7.133273,13.301062,-92.998207,3.033102,32.014648,0.656150,-0.702018,-0.182445,0.208210
354,-0.315341,-10.141254,-2.019173,-7.272904,9.075776,16.693193,-93.337090,3.503942,31.708853,0.653729,-0.705130,-0.178446,0.208776
355,-0.219525,-10.401051,-2.323628,-8.569941,10.185124,17.006008,-93.770134,4.015081,31.344675,0.650743,-0.708881,-0.174021,0.209136
356,0.045548,-10.860158,-2.870974,-14.473747,11.051850,13.531477,-94.351517,4.443848,30.943748,0.647040,-0.713362,-0.170111,0.208603
357,0.225776,-10.874790,-2.757893,-24.564690,12.208502,7.836723,-95.208992,4.685335,30.514240,0.641993,-0.719136,-0.167588,0.206403
358,-0.071886,-10.734192,-3.350588,-29.040232,12.089478,2.967495,-96.319534,4.742222,30.078190,0.635659,-0.726035,-0.166496,0.202705
359,-0.394318,-10.752637,-4.255825,-39.257828,10.180546,-2.788296,-97.714478,4.642338,29.690653,0.627640,-0.734166,-0.167029,0.197914
360,-0.025646,-10.895378,-4.611395,-56.714417,9.744133,-7.698723,-99.589050,4.360414,29.368328,0.616629,-0.744479,-0.169704,0.191623
361,-0.619307,-10.802405,-5.282134,-67.688873,10.607805,-14.138129,-101.941673,3.891900,29.083820,0.602568,-0.756875,-0.174241,0.183556
362,-0.972066,-10.438548,-6.341609,-77.030579,10.487257,-14.193062,-104.660263,3.347666,28.829079,0.585865,-0.770744,-0.179671,0.174455
363,-0.364438,-10.542016,-7.183741,-94.790825,10.916042,-12.877714,-107.851570,2.808531,28.593204,0.565534,-0.786552,-0.185548,0.164558
364,-0.057646,-10.754467,-7.603896,-106.844109,12.785300,-12.166634,-111.522079,2.249123,28.348072,0.541439,-0.804080,-0.191687,0.153478
365,-0.426576,-10.272294,-8.134695,-110.530746,14.569107,-9.961671,-115.431053,1.706926,28.067047,0.515071,-0.822013,-0.197261,0.141722
366,0.249800,-10.175999,-8.652858,-117.644623,13.694753,-5.657035,-119.497925,1.234418,27.762234,0.486816,-0.839852,-0.201959,0.129890
367,0.561865,-10.510626,-8.796441,-126.627739,14.367686,-9.796870,-123.777000,0.718281,27.498690,0.456364,-0.857443,-0.206764,0.117358
368,0.246399,-10.153037,-8.604531,-118.576958,14.323435,-15.409224,-127.998405,0.053599,27.358095,0.425850,-0.873343,-0.212349,0.104079
369,0.092484,-9.629102,-8.534437,-108.386826,13.710012,-15.296307,-131.858963,-0.657241,27.327818,0.397548,-0.886636,-0.217954,0.091257
370,0.353921,-9.115152,-8.718033,-104.231728,13.444501,-15.557237,-135.443954,-1.352654,27.355803,0.370907,-0.897992,-0.223145,0.079024
371,0.492328,-8.190719,-8.390031,-91.040108,15.237463,-15.770868,-138.714355,-2.074205,27.413464,0.346459,-0.907485,-0.227902,0.067066
372,0.750743,-7.230792,-8.209719,-74.628777,13.816826,-12.194099,-141.476578,-2.768036,27.460360,0.325775,-0.914887,-0.231738,0.056125
373,0.608537,-6.554965,-8.187244,-66.729057,13.795464,-8.148872,-143.828735,-3.358881,27.451506,0.308053,-0.920892,-0.234293,0.046563
374,0.840617,-6.231715,-8.248135,-75.190308,8.823998,-7.381331,-146.184097,-3.830687,27.447521,0.289961,-0.926633,-0.236302,0.037894
375,0.786395,-6.044690,-7.759351,-83.079353,7.121065,-10.073064,-148.786240,-4.228305,27.549292,0.269580,-0.932431,-0.238808,0.029506
376,0.750258,-5.684576,-7.435009,-95.363045,2.877468,-11.527271,-151.690536,-4.561579,27.774321,0.246467,-0.938215,-0.241987,0.021185
377,0.465049,-4.916500,-7.224227,-111.447838,1.357646,-14.179328,-155.062637,-4.808041,28.119722,0.219203,-0.944129,-0.245782,0.012676
378,0.581093,-4.421073,-7.074456,-126.934441,-1.749139,-12.755640,-158.958740,-4.959043,28.526909,0.187275,-0.950042,-0.249668,0.003721
379,0.562942,-3.493106,-6.271994,-135.375854,1.911557,-15.224586,-163.237564,-5.102572,28.957716,0.152000,-0.955328,-0.253390,-0.006233
380,0.545646,-2.597017,-6.129795,-127.569237,1.713186,-16.715416,-167.540085,-5.289230,29.446648,0.116502,-0.959156,-0.257224,-0.016811
381,0.402640,-2.068624,-5.543762,-119.335335,3.338297,-18.578571,-171.583984,-5.465395,29.999937,0.083103,-0.961321,-0.261206,-0.026958
382,0.233832,-1.387866,-5.390433,-103.282608,4.377452,-20.637047,-175.234222,-5.633149,30.623243,0.053018,-0.961966,-0.265492,-0.036387
383,0.005127,-1.008594,-4.774639,-92.404282,6.998992,-20.420362,-178.449249,-5.790718,31.284204,0.026633,-0.961463,-0.269917,-0.044993
384,-0.061050,-0.513987,-5.015708,-69.927399,7.456770,-19.120274,178.876007,-5.935387,31.930416,0.004822,-0.960233,-0.274183,-0.052468
385,0.017302,-0.348159,-4.880554,-57.756615,6.838769,-18.006351,176.763153,-6.049834,32.548214,-0.012292,-0.958630,-0.278300,-0.058539
386,-0.095107,0.178939,-5.396079,-42.776611,6.066651,-18.348158,175.077240,-6.115825,33.162113,-0.025892,-0.956823,-0.282507,-0.063318
387,0.087109,0.197326,-5.969781,-33.003063,3.677052,-12.354321,173.795151,-6.126082,33.683414,-0.036267,-0.955179,-0.286123,-0.066726
388,0.704475,0.587063,-6.994243,-20.989447,2.495986,-12.731225,172.886780,-6.132607,34.107780,-0.043565,-0.953795,-0.289115,-0.069208
389,0.860400,0.713027,-7.844021,-12.642635,1.981749,-11.200722,172.310364,-6.153237,34.512138,-0.048058,-0.952533,-0.292112,-0.071003
390,0.967592,1.022168,-8.779703,-3.732757,1.664357,-7.280619,172.028336,-6.173351,34.824749,-0.050154,-0.951607,-0.294519,-0.072025
391,1.140367,0.966571,-9.153008,-0.546625,0.568742,-0.934297,171.966660,-6.199509,34.963654,-0.050509,-0.951215,-0.295614,-0.072462
392,1.091799,0.696246,-8.760301,7.083002,0.786950,1.009733,172.120544,-6.236959,34.960651,-0.049135,-0.951280,-0.295660,-0.072374
393,0.737598,0.625566,-8.221771,19.537605,0.376476,1.951228,172.627747,-6.260883,34.907677,-0.044894,-0.951618,-0.295521,-0.071242
394,0.619710,-0.011467,-7.415179,31.969316,-1.239480,3.051421,173.586975,-6.235288,34.812901,-0.037050,-0.952213,-0.295335,-0.068523
395,0.395112,-0.347440,-6.602670,42.444794,-2.629598,2.459362,174.978256,-6.145320,34.699760,-0.025786,-0.952914,-0.295250,-0.064160
396,0.445655,-0.719836,-6.079832,51.658333,-2.419020,1.020414,176.729202,-6.026818,34.617527,-0.011575,-0.953453,-0.295556,-0.058648
397,0.435737,-0.986415,-6.095538,57.102833,-2.205390,-1.186074,178.742264,-5.917997,34.597145,0.004883,-0.953606,-0.296396,-0.052543
398,0.596483,-1.105895,-6.248031,53.025562,-2.039065,0.593155,-179.227158,-5.827194,34.587254,0.021541,-0.953436,-0.297205,-0.046529
399,0.498411,-0.650141,-6.381137,43.995136,-1.462265,-1.541614,-177.476837,-5.754104,34.591370,0.035914,-0.953020,-0.297911,-0.041374
400,0.790690,-0.751439,-6.827240,40.448883,0.516861,0.094178,-175.999023,-5.734755,34.609447,0.048157,-0.952440,-0.298567,-0.037360
401,0.686466,-0.814211,-7.135784,40.540443,3.373393,-5.766901,-174.606277,-5.811772,34.693672,0.059952,-0.951523,-0.299719,-0.034326
402,0.733888,-0.459505,-7.676927,41.330868,4.559037,-5.718073,-173.255676,-5.957597,34.870922,0.071587,-0.950200,-0.301625,-0.031892
403,0.922182,-1.176512,-7.892358,45.502750,7.877924,-10.959625,-171.837189,-6.201501,35.121346,0.084037,-0.948426,-0.304180,-0.029998
404,1.209009,-1.719066,-8.905941,61.018360,9.882991,-8.652427,-170.055710,-6.561667,35.395214,0.099766,-0.946026,-0.307078,-0.028012
405,1.289994,-2.280690,-9.480970,59.840343,9.881466,-12.818203,-168.023575,-6.973285,35.679047,0.117653,-0.943028,-0.310156,-0.025675
406,0.808437,-2.515318,-10.156503,60.899338,7.763480,-5.325909,-165.994537,-7.313792,35.903976,0.135257,-0.939899,-0.312695,-0.022723
407,1.200540,-3.049221,-10.864892,56.333767,6.129215,-3.078222,-164.021164,-7.542901,35.976688,0.152026,-0.937024,-0.313859,-0.019124
408,1.235830,-3.405189,-11.244088,60.745220,3.294045,3.713673,-162.041855,-7.666979,35.918114,0.168499,-0.934300,-0.313804,-0.014805
409,1.628330,-3.450703,-11.371222,53.330746,1.021942,4.913050,-160.121506,-7.677491,35.757519,0.184145,-0.931774,-0.312715,-0.009888
410,1.447105,-4.114059,-11.507925,57.746780,1.649097,10.322454,-158.247437,-7.622507,35.503407,0.199210,-0.929386,-0.310699,-0.004765
411,2.081058,-3.907463,-11.523536,58.712685,-0.082828,9.809744,-156.291275,-7.527391,35.184536,0.214812,-0.926814,-0.308011,0.000717
412,1.984839,-4.752529,-10.633641,71.277153,0.614520,10.139343,-154.107147,-7.431274,34.878128,0.232221,-0.923479,-0.305311,0.006747
413,1.796908,-4.642264,-10.746845,83.344177,-2.208442,10.020322,-151.512024,-7.282715,34.590343,0.252753,-0.918918,-0.302493,0.014227
414,1.420855,-5.772240,-10.044888,89.783577,-1.999390,10.934351,-148.603943,-7.055821,34.320923,0.275511,-0.913188,-0.299414,0.023077
415,1.218728,-5.447901,-9.891936,95.885757,-5.350322,11.910943,-145.490875,-6.736398,34.067894,0.299552,-0.906420,-0.295934,0.033094
416,1.031165,-6.465323,-9.204176,96.163475,-4.959686,15.292393,-142.278961,-6.310690,33.803730,0.323977,-0.898886,-0.291731,0.044004
417,0.865526,-6.979240,-9.687631,90.587746,-6.793849,19.375771,-139.146469,-5.763951,33.481396,0.347367,-0.891213,-0.286391,0.055282
418,0.626446,-6.924320,-9.363728,74.310692,-5.728751,21.959164,-136.417908,-5.107589,33.116169,0.367266,-0.884440,-0.280215,0.066031
419,0.594778,-6.727315,-9.415373,63.638378,-6.641255,23.933708,-134.190216,-4.384970,32.726658,0.383092,-0.878999,-0.273610,0.075756
420,0.759927,-6.956247,-9.148184,51.266171,-7.440840,25.455059,-132.386276,-3.603821,32.343750,0.395503,-0.874739,-0.266885,0.084740
421,1.127756,-7.122783,-9.018691,43.667065,-7.614795,21.806570,-130.933456,-2.861915,32.016609,0.405261,-0.871311,-0.260768,0.092636
422,1.035957,-6.675509,-8.659651,37.400085,-6.366589,15.683032,-129.743729,-2.273855,31.798285,0.413240,-0.868247,-0.256073,0.099029
423,0.906334,-7.418836,-8.045708,30.090906,-5.805049,9.413003,-128.772217,-1.864062,31.697184,0.419822,-0.865415,-0.252991,0.103935
424,0.852495,-7.437051,-7.702005,29.506474,-3.900693,4.673480,-127.901176,-1.622645,31.682398,0.425898,-0.862512,-0.251200,0.107624
425,0.815336,-6.943047,-6.944666,26.285248,-2.029909,1.073822,-127.090744,-1.535089,31.705761,0.431783,-0.859529,-0.250283,0.110146
426,0.534672,-6.678930,-6.243266,21.132196,-0.017213,1.542281,-126.409058,-1.521019,31.709621,0.436856,-0.856953,-0.249599,0.111753
427,0.340103,-6.942968,-5.140451,19.482672,2.592120,1.737599,-125.780930,-1.523523,31.643782,0.441616,-0.854686,-0.248501,0.112847
428,0.424020,-6.826787,-4.472580,27.074150,4.897793,5.178561,-124.980202,-1.520124,31.474516,0.447740,-0.851948,-0.246435,0.113945
429,0.164239,-7.091443,-3.633641,33.055779,4.853541,10.290412,-123.884521,-1.408857,31.192003,0.455926,-0.848364,-0.242807,0.115998
430,0.174413,-8.506942,-3.130312,45.658394,5.491377,11.201387,-122.386993,-1.198216,30.847071,0.466911,-0.843309,-0.237885,0.119311
431,-0.211003,-8.864391,-3.537383,64.245689,4.295052,10.826010,-120.348557,-0.946731,30.512798,0.481705,-0.835858,-0.232241,0.123956
432,-0.055485,-8.921762,-3.883643,68.925713,1.453779,11.968928,-117.981552,-0.630220,30.242815,0.498560,-0.826656,-0.226315,0.129839
433,-0.080764,-8.994385,-4.016485,64.517311,-0.821376,11.392128,-115.667870,-0.267571,30.057131,0.514677,-0.817231,-0.220700,0.136136
434,-0.057525,-8.914817,-4.052641,59.901382,-2.351879,8.868249,-113.552238,0.075795,29.964659,0.529143,-0.808192,-0.215912,0.142181
435,-0.143053,-8.460985,-3.941859,54.227989,-3.287271,8.434885,-111.652603,0.390074,29.941071,0.541908,-0.799747,-0.211872,0.147820
436,0.110122,-8.491009,-3.595932,46.006306,-3.880856,8.910975,-110.005173,0.700527,29.949875,0.552757,-0.792249,-0.208282,0.153036
437,-0.094355,-8.706007,-3.304874,44.762676,-4.085330,8.672930,-108.509598,1.011022,29.977865,0.562431,-0.785311,-0.204925,0.158000
438,-0.077285,-9.150199,-3.245446,47.893875,-5.029878,7.566633,-106.979378,1.309458,30.039680,0.572223,-0.778002,-0.201715,0.163048
439,-0.045025,-9.322675,-3.047316,49.717354,-5.493759,5.408976,-105.368034,1.552747,30.147408,0.582496,-0.770005,-0.198878,0.168043
440,-0.233851,-9.545235,-3.120476,51.817028,-6.716025,4.833702,-103.703888,1.758614,30.300632,0.593002,-0.761472,-0.196358,0.173066
441,-0.161846,-10.185922,-2.763278,51.086109,-7.776543,3.944087,-102.017769,1.945994,30.502428,0.603481,-0.752573,-0.194117,0.178222
442,-0.383847,-10.311959,-2.619879,52.493011,-7.637683,3.677050,-100.314766,2.114182,30.728754,0.613925,-0.743372,-0.192004,0.183383
443,-0.443732,-10.554280,-2.354211,49.605961,-6.606159,3.712147,-98.642776,2.277705,30.941460,0.624053,-0.734211,-0.189769,0.188362
444,-0.460724,-10.801287,-2.398047,46.374054,-5.130589,4.119569,-97.087288,2.436610,31.115570,0.633374,-0.725613,-0.187407,0.192879
445,-0.357452,-10.957124,-2.228552,37.831921,-3.691642,3.353554,-95.747307,2.572680,31.244928,0.641341,-0.718143,-0.185177,0.196625
446,-0.484079,-10.916729,-2.061517,30.522741,-1.241005,3.283362,-94.682793,2.684762,31.313272,0.647657,-0.712208,-0.183125,0.199412
447,-0.448442,-11.007533,-1.673967,21.989767,0.460402,2.851525,-93.881577,2.783926,31.315121,0.652434,-0.707804,-0.181165,0.201302
448,-0.400355,-10.967059,-1.980470,16.142420,2.552445,3.094147,-93.334755,2.870597,31.254488,0.655751,-0.704905,-0.179326,0.202344
450,-0.397445,-11.079042,-2.245623,6.091151,4.191288,3.670947,-93.090630,2.963978,31.129723,0.657299,-0.703836,-0.177584,0.202576
451,-0.512674,-10.771508,-2.441958,-4.723083,5.074800,1.974118,-93.224014,3.040184,30.962481,0.656633,-0.704969,-0.176348,0.201873
452,-0.443616,-10.706389,-3.233521,-16.156841,5.463910,-0.319348,-93.773941,3.048903,30.775101,0.653554,-0.708414,-0.176106,0.200009
453,-0.132369,-10.631240,-3.662822,-32.980167,5.375406,-4.572103,-94.839706,2.929120,30.588400,0.647480,-0.714583,-0.177482,0.196571
454,-0.315923,-10.409527,-4.302079,-50.340622,3.963927,-10.152411,-96.504616,2.640226,30.444107,0.637807,-0.723745,-0.181038,0.191365
455,-0.202506,-10.464681,-4.682969,-67.682762,2.323557,-13.945864,-98.762070,2.205073,30.380091,0.624337,-0.735683,-0.186763,0.184646
456,-0.165022,-10.556989,-5.398220,-83.906395,3.077364,-14.701196,-101.581726,1.695242,30.364441,0.607021,-0.750167,-0.193876,0.176599
457,-0.106398,-10.493779,-5.863286,-102.953003,2.984282,-12.964693,-104.987785,1.203281,30.363621,0.585383,-0.767234,-0.201567,0.167477
458,-0.126879,-10.215427,-6.656610,-118.125275,3.910519,-10.553730,-108.960777,0.781276,30.362917,0.559240,-0.786531,-0.209318,0.157498
459,0.016799,-10.004925,-6.975632,-128.846436,5.473066,-6.078191,-113.350563,0.455583,30.314152,0.529399,-0.807068,-0.216363,0.146850
460,0.301433,-9.411528,-7.567736,-135.345337,7.134800,-1.869689,-118.004974,0.223986,30.182316,0.496803,-0.827888,-0.222202,0.135701
461,0.561251,-9.215655,-8.254801,-135.240067,8.944547,-0.345289,-122.747879,0.019183,29.972492,0.462758,-0.847931,-0.226901,0.124029
462,0.320380,-9.210638,-8.666360,-127.811844,9.023896,-1.686578,-127.324547,-0.214715,29.749960,0.429224,-0.865947,-0.230866,0.112269
463,0.355543,-9.231734,-8.886915,-111.020569,8.094607,-2.731837,-131.439072,-0.475880,29.578152,0.398544,-0.880902,-0.234331,0.101303
464,0.802127,-9.435411,-9.231892,-92.205910,7.981688,-6.075140,-134.899902,-0.802383,29.485231,0.372502,-0.892435,-0.237612,0.091333
465,0.316334,-9.442873,-9.322389,-71.338875,7.438459,-11.406722,-137.645966,-1.219236,29.519257,0.351838,-0.900670,-0.241263,0.082435
466,0.347493,-9.268184,-9.053752,-57.031807,4.430860,-13.840572,-139.759003,-1.653602,29.703482,0.335942,-0.906236,-0.245449,0.075067
467,0.649776,-8.873977,-8.824450,-47.539024,6.245185,-14.864471,-141.441071,-2.109153,29.958462,0.323393,-0.910119,-0.249803,0.068543
468,0.541495,-8.506928,-8.645071,-48.150921,8.306710,-12.767849,-142.953796,-2.598029,30.170675,0.312255,-0.913410,-0.253665,0.061904
469,0.456586,-7.462478,-8.284889,-57.997715,6.040711,-10.233286,-144.639877,-3.018870,30.335365,0.299587,-0.917165,-0.256921,0.055211
470,0.619598,-6.915695,-8.142460,-73.948204,2.213690,-4.453081,-146.762421,-3.270823,30.456844,0.283031,-0.922061,-0.259469,0.048706
471,0.538256,-6.471069,-7.791297,-89.181526,1.948179,-1.857481,-149.387894,-3.385708,30.505571,0.262061,-0.928096,-0.261159,0.041926
472,0.382337,-5.480319,-7.630023,-111.083130,-1.216591,-1.628592,-152.630020,-3.413900,30.545042,0.235751,-0.935025,-0.262617,0.034371
473,0.248085,-4.531498,-7.330523,-138.061493,-4.782678,-2.475481,-156.705719,-3.330134,30.644583,0.202146,-0.942647,-0.264356,0.025878
474,-0.111764,-3.961745,-6.829379,-146.361008,-5.165686,-1.939881,-161.352875,-3.153963,30.764973,0.163350,-0.949896,-0.265957,0.016775
475,0.509494,-3.261672,-6.164568,-140.866135,-0.325450,-5.591421,-166.005951,-3.076772,30.900303,0.124472,-0.955468,-0.267473,0.006757
476,0.334663,-2.301279,-5.829682,-131.811310,1.963438,-9.654961,-170.416992,-3.165816,31.134247,0.087823,-0.958965,-0.269550,-0.004109
477,0.176819,-1.791338,-5.414628,-115.691429,3.152134,-9.423019,-174.417816,-3.282756,31.429680,0.054604,-0.960707,-0.271760,-0.014357
478,0.356995,-1.478760,-5.123485,-88.577255,5.183140,-11.820249,-177.678970,-3.440145,31.763321,0.027684,-0.961032,-0.274057,-0.023325
479,0.233617,-1.053571,-4.926320,-68.581528,7.290443,-17.258644,179.841782,-3.657622,32.233963,0.007533,-0.960219,-0.277415,-0.031042
480,-0.611493,-0.453863,-4.813030,-56.635063,5.190771,-18.602985,177.843719,-3.759495,32.826500,-0.008773,-0.958737,-0.281769,-0.036773
481,-0.490519,-0.167415,-5.008765,-47.960178,3.358134,-14.428053,176.144913,-3.706455,33.374935,-0.022921,-0.957155,-0.285796,-0.040613
482,-0.292227,0.059298,-5.187051,-37.232922,1.984801,-13.973330,174.755432,-3.622640,33.846996,-0.034557,-0.955636,-0.289261,-0.043519
483,-0.109381,0.476104,-5.975924,-26.203533,-0.084354,-11.469285,173.704361,-3.515522,34.268543,-0.043427,-0.954222,-0.292419,-0.045438
484,0.154452,0.689684,-7.060495,-20.121195,-2.093998,-5.943910,172.927048,-3.388076,34.551338,-0.050113,-0.953194,-0.294533,-0.046485
485,0.491394,0.519515,-8.184658,-13.008858,-2.924101,-4.028872,172.400650,-3.265231,34.703430,-0.054749,-0.952570,-0.295658,-0.046890
486,0.472334,0.786108,-9.050230,-2.077127,-3.531419,-5.957643,172.191422,-3.134349,34.851284,-0.056770,-0.952094,-0.296884,-0.046416
487,0.504284,0.701565,-9.771865,3.819048,-3.909849,-5.304546,172.264175,-2.982338,35.017910,-0.056498,-0.951704,-0.298394,-0.045048
488,0.315181,0.725965,-9.962734,9.612987,-4.082279,-6.380323,172.539734,-2.813375,35.190426,-0.054590,-0.951393,-0.300037,-0.043011
489,0.344430,0.742324,-9.560969,13.584970,-3.427657,-6.003420,172.972244,-2.647204,35.376984,-0.051372,-0.951108,-0.301841,-0.040583
490,0.395179,0.856965,-9.312322,15.602244,-2.841701,-2.966829,173.492462,-2.517715,35.511509,-0.047353,-0.950981,-0.303207,-0.038194
491,0.404449,0.655439,-8.992955,15.629710,-2.243539,1.958858,174.046890,-2.430308,35.517567,-0.042982,-0.951186,-0.303482,-0.036004
492,0.348087,0.651337,-8.671624,16.534584,-2.100102,4.617021,174.621140,-2.368567,35.399864,-0.038415,-0.951704,-0.302708,-0.033931
493,0.394599,0.489142,-8.389030,19.368229,-1.863583,4.987821,175.257111,-2.318513,35.233181,-0.033311,-0.952345,-0.301527,-0.031786
494,0.373107,0.432915,-8.483641,24.211515,-1.981079,4.508680,176.022110,-2.270945,35.069019,-0.027121,-0.952981,-0.300384,-0.029339
495,0.353921,0.214636,-8.101488,26.366121,-1.283731,2.442577,176.905365,-2.227260,34.948475,-0.019918,-0.953482,-0.299610,-0.026638
496,0.301144,0.070215,-7.936900,33.113762,-0.177435,-0.577229,177.939911,-2.205646,34.914661,-0.011373,-0.953714,-0.299561,-0.023749
497,0.339515,0.174459,-7.743884,38.579624,1.195898,-1.958192,179.160995,-2.223372,34.956341,-0.001155,-0.953669,-0.300142,-0.020704
498,0.261309,-0.061576,-7.545682,40.284084,2.473097,-1.767451,-179.509949,-2.284738,35.018063,0.010076,-0.953446,-0.300875,-0.017727
499,0.188730,-0.440137,-7.323066,43.020069,3.240638,-1.598073,-178.088516,-2.372382,35.071030,0.022138,-0.953089,-0.301520,-0.014712
500,0.115961,-0.488907,-7.324876,47.999165,3.030060,-0.862578,-176.532867,-2.459731,35.105919,0.035307,-0.952587,-0.301999,-0.011333
501,0.107430,-0.772820,-7.157352,48.977280,3.153660,-2.063481,-174.880386,-2.540630,35.145855,0.049254,-0.951849,-0.302488,-0.007633
502,0.060236,-1.185079,-7.521767,52.738686,2.485305,-0.624534,-173.132690,-2.607881,35.179104,0.063942,-0.950876,-0.302875,-0.003559
503,0.155074,-1.699115,-7.731294,51.453857,2.463942,1.897821,-171.317200,-2.657209,35.144218,0.079128,-0.949817,-0.302632,0.000807
504,0.199548,-1.781918,-8.015040,56.460419,3.171971,3.344398,-169.436279,-2.712658,35.039463,0.094856,-0.948642,-0.301750,0.005228
505,0.435304,-2.266060,-8.634800,54.276821,4.125675,3.036161,-167.518494,-2.800879,34.908306,0.110957,-0.947224,-0.300610,0.009420
506,0.556782,-2.549067,-8.916563,57.961933,5.155674,3.028532,-165.578308,-2.933728,34.770969,0.127336,-0.945498,-0.299405,0.013257
507,0.776069,-2.842225,-9.033849,57.852066,6.684651,1.243199,-163.588074,-3.124831,34.646671,0.144243,-0.943355,-0.298321,0.016722
508,1.066242,-2.946810,-9.275491,64.151085,8.718710,-0.717615,-161.515045,-3.407408,34.558517,0.162013,-0.940637,-0.297603,0.019665
509,1.400988,-3.420176,-9.247105,58.300690,10.693257,-6.162117,-159.449738,-3.815212,34.555336,0.179960,-0.937279,-0.297747,0.021673
510,1.162147,-3.653767,-9.025554,64.636330,13.046234,-8.820279,-157.380096,-4.337903,34.638744,0.198138,-0.933241,-0.298793,0.022913
511,1.439814,-4.034073,-9.200382,63.620068,12.033020,-7.274517,-155.228302,-4.884622,34.713299,0.216958,-0.928678,-0.299835,0.024203
512,1.589990,-4.811127,-8.903266,69.218681,13.525374,-9.815182,-152.982788,-5.457493,34.777931,0.236497,-0.923522,-0.300872,0.025556
513,1.461358,-5.393944,-9.016308,77.866104,11.978086,-7.625479,-150.475784,-6.023043,34.824883,0.257997,-0.917400,-0.301744,0.027670
514,1.418659,-5.780450,-8.830607,93.326775,8.483718,-4.475969,-147.561035,-6.453080,34.813248,0.282271,-0.910072,-0.301790,0.031857
515,1.168723,-6.403633,-8.519660,97.434570,5.045807,-0.304089,-144.308990,-6.696161,34.742577,0.308572,-0.901577,-0.300794,0.038282
516,0.899874,-7.650564,-8.300026,103.049973,4.580400,5.376931,-140.855637,-6.752943,34.565125,0.335801,-0.892257,-0.298272,0.046361
517,0.944313,-7.946164,-7.914851,103.953323,1.073824,13.088958,-137.266953,-6.589549,34.257435,0.363361,-0.882325,-0.293834,0.055977
518,0.854304,-8.485644,-7.723265,96.837936,-0.023317,13.668810,-133.795761,-6.255105,33.914688,0.389389,-0.872262,-0.288348,0.066267
519,0.957848,-8.583646,-7.639819,82.660561,0.844935,17.207430,-130.710266,-5.851869,33.551708,0.412116,-0.862950,-0.282375,0.075778
520,1.266734,-9.094797,-7.652544,72.298004,0.504653,18.347298,-128.067719,-5.398954,33.154274,0.431257,-0.854846,-0.275984,0.084197
521,1.593577,-8.558270,-7.121631,66.177513,0.388683,16.906824,-125.736649,-4.963486,32.788036,0.447962,-0.847404,-0.269892,0.091622
522,1.207497,-8.469107,-7.248021,63.185177,0.446668,11.769033,-123.611725,-4.611851,32.507229,0.463135,-0.840120,-0.264731,0.098086
523,1.283447,-8.431265,-6.881368,56.616062,0.620624,10.056944,-121.685638,-4.343235,32.302208,0.476847,-0.833081,-0.260482,0.103645
524,0.938858,-9.232116,-6.267093,55.630318,-0.160650,11.790395,-119.868294,-4.056308,32.113338,0.489620,-0.826263,-0.256262,0.109048
525,0.751879,-9.104445,-5.680442,63.168392,0.580950,9.441997,-117.914894,-3.753623,31.938147,0.503229,-0.818633,-0.251828,0.114818
526,0.329750,-9.228710,-5.602978,64.395241,1.159275,8.387581,-115.824799,-3.484685,31.781574,0.517732,-0.810061,-0.247404,0.120606
527,0.559896,-9.631683,-4.880994,60.636879,1.804742,12.358040,-113.767349,-3.170835,31.594858,0.531813,-0.801505,-0.242473,0.126379
528,0.391855,-9.590349,-4.378029,64.273163,2.077882,12.342780,-111.689972,-2.803712,31.376722,0.545831,-0.792741,-0.236922,0.132278
529,0.394866,-9.453313,-4.158498,62.260464,2.242682,10.252262,-109.596214,-2.463085,31.178286,0.559845,-0.783555,-0.231475,0.137964
530,0.665571,-9.723435,-3.726619,54.203575,2.189275,11.253269,-107.676926,-2.152051,30.995378,0.572561,-0.774904,-0.226365,0.143027
531,0.436155,-10.102924,-3.406347,46.990528,0.652668,9.626634,-106.005089,-1.844504,30.849281,0.583448,-0.767219,-0.221730,0.147643
532,0.266323,-9.685163,-3.026482,44.556675,-0.125554,5.961360,-104.496552,-1.594831,30.773005,0.593160,-0.759997,-0.217983,0.151820
533,0.166902,-9.689728,-2.771244,41.640636,-0.677939,7.429300,-103.082619,-1.366577,30.733980,0.602146,-0.753042,-0.214648,0.155801
534,0.016760,-9.935804,-2.749896,38.526218,-1.282205,8.126649,-101.778297,-1.090432,30.710974,0.610231,-0.746604,-0.211250,0.159919
535,-0.148806,-9.659729,-2.693413,35.399597,-2.396131,8.694294,-100.598015,-0.776801,30.718132,0.617334,-0.740746,-0.207957,0.164159
536,0.276850,-9.120035,-2.484023,32.645306,-2.948516,7.325537,-99.534798,-0.489700,30.760530,0.623620,-0.735349,-0.205139,0.168159
537,0.152056,-9.534426,-2.604497,27.901201,-3.149938,8.227360,-98.612541,-0.228488,30.820862,0.628974,-0.730599,-0.202732,0.171803
538,0.164318,-9.789362,-2.444376,24.316803,-2.921049,5.108368,-97.835205,-0.003198,30.889507,0.633419,-0.726540,-0.200752,0.174983
539,0.227490,-9.395376,-2.209049,22.375826,-1.819331,1.684192,-97.146843,0.102260,30.953196,0.637489,-0.722773,-0.199512,0.177205
540,0.120566,-9.771633,-2.334349,19.797012,-1.195228,-0.198800,-96.541107,0.115003,30.999994,0.641205,-0.719332,-0.198795,0.178599
541,-0.049855,-10.306523,-2.097841,16.269073,-0.476517,-0.133186,-96.033569,0.107282,31.028090,0.644354,-0.716424,-0.198221,0.179588
542,-0.217788,-10.216998,-1.864430,13.604807,-0.246102,-0.955660,-95.612839,0.100860,31.041798,0.646970,-0.714020,-0.197682,0.180352
543,-0.152725,-10.255788,-1.661197,9.762527,-1.401228,1.502606,-95.289078,0.127839,31.068268,0.648896,-0.712186,-0.197184,0.181227
544,-0.197639,-10.750142,-1.294652,7.842913,-1.817805,3.348976,-95.038536,0.227055,31.114346,0.650207,-0.710842,-0.196509,0.182534
545,-0.222671,-10.764248,-0.991889,7.902424,-1.125035,5.566145,-94.790947,0.394894,31.150469,0.651391,-0.709637,-0.195382,0.184201
546,-0.289752,-10.845143,-1.246816,7.876483,-0.053835,8.238041,-94.544540,0.643100,31.151262,0.652481,-0.708621,-0.193573,0.186157
547,-0.092010,-11.129380,-1.631427,3.405521,2.085512,9.605268,-94.403587,0.944853,31.093830,0.652915,-0.708382,-0.191262,0.187925
548,-0.049487,-11.285994,-1.693433,-4.271409,5.013763,9.275670,-94.486702,1.242146,30.950411,0.652112,-0.709546,-0.188808,0.188801
549,0.052771,-10.904099,-2.359570,-13.719936,6.142948,6.214664,-94.889931,1.465883,30.741871,0.649556,-0.712514,-0.186898,0.188335
550,0.114358,-10.897411,-3.029908,-26.259995,6.011718,3.187228,-95.714333,1.573659,30.521973,0.644579,-0.717686,-0.186260,0.186420
551,0.179184,-10.685464,-3.241310,-40.676941,6.841822,-2.348829,-97.016273,1.526120,30.303045,0.636819,-0.725253,-0.187247,0.182776
553,0.225523,-10.359728,-3.727335,-55.612690,6.104800,-6.143806,-98.823448,1.313198,30.104111,0.625995,-0.735238,-0.190002,0.177356
554,0.394738,-9.991572,-4.512486,-71.847008,4.920681,-9.726678,-101.182518,0.970476,29.964901,0.611553,-0.747734,-0.194544,0.170438
555,0.264057,-9.998191,-5.195800,-87.599136,4.693319,-10.564411,-104.100479,0.558371,29.879599,0.593185,-0.762659,-0.200394,0.162252
556,0.154481,-9.574591,-5.808880,-103.682388,4.906949,-10.469805,-107.560539,0.147567,29.820045,0.570721,-0.779789,-0.206845,0.153039
557,0.041828,-9.344049,-6.512183,-119.503197,4.458327,-6.416946,-111.558617,-0.183445,29.767298,0.543853,-0.798903,-0.213259,0.143172
558,0.046118,-8.982831,-7.018816,-129.751312,4.078371,-3.253703,-115.983437,-0.390984,29.704224,0.513072,-0.819173,-0.219103,0.133066
559,0.026948,-8.675025,-7.679030,-128.635849,3.370342,0.193363,-120.544609,-0.492460,29.621601,0.480353,-0.838987,-0.224044,0.123151
560,0.305661,-8.426223,-8.168613,-116.538322,2.471571,4.565138,-124.862381,-0.484158,29.500065,0.448511,-0.856738,-0.227583,0.114211
561,0.790588,-8.748727,-8.298965,-99.722610,3.434430,3.730458,-128.643478,-0.467124,29.343145,0.420115,-0.871401,-0.229972,0.106195
562,0.541854,-8.947953,-8.687778,-78.432899,1.433942,3.678576,-131.725616,-0.468771,29.204929,0.396652,-0.882662,-0.231686,0.099481
563,0.680652,-9.415312,-8.950360,-58.551624,-1.358502,3.884576,-134.067490,-0.415249,29.120871,0.378494,-0.890802,-0.232841,0.094864
564,0.813777,-9.650743,-8.743747,-44.659603,-2.280161,-2.260325,-135.786697,-0.400798,29.146662,0.365037,-0.896340,-0.234394,0.091555
565,0.371511,-9.617816,-8.244292,-43.396133,-3.859493,-8.171760,-137.196716,-0.483904,29.343550,0.353998,-0.900288,-0.237305,0.088619
566,-0.108969,-8.938313,-8.388473,-47.215527,-8.971344,-4.753687,-138.632645,-0.472586,29.646212,0.342438,-0.904030,-0.240752,0.086633
567,0.569521,-7.938640,-8.165324,-54.578117,-8.539506,-9.094945,-140.274612,-0.412519,30.011475,0.329056,-0.908115,-0.244693,0.084700
568,0.204161,-7.409678,-7.623335,-64.218918,-6.648885,-12.465715,-142.196945,-0.465934,30.449976,0.313581,-0.912518,-0.249718,0.081358
569,-0.590356,-6.499754,-7.489727,-73.713219,-10.720054,-11.869078,-144.435760,-0.449522,30.946815,0.295323,-0.917384,-0.255198,0.077877
570,-0.146346,-5.495144,-7.808767,-86.888054,-12.561846,-13.742912,-147.092209,-0.325633,31.516203,0.273338,-0.922782,-0.261229,0.074299
571,-0.024157,-5.019072,-7.343003,-93.684540,-9.383344,-16.010437,-150.094437,-0.256807,32.128311,0.248546,-0.928251,-0.267899,0.069318
572,-0.445587,-4.860573,-7.104833,-97.218575,-9.889951,-13.753595,-153.226868,-0.178702,32.714592,0.222576,-0.933351,-0.274321,0.063746
573,-0.239717,-3.796452,-7.145875,-104.903130,-9.734305,-13.735284,-156.546387,-0.034303,33.265408,0.194825,-0.938143,-0.280319,0.057895
574,0.280139,-2.948145,-7.168667,-111.704185,-4.442397,-9.955566,-160.152054,0.038490,33.717831,0.164838,-0.942719,-0.285621,0.050298
575,0.039168,-2.485362,-6.847436,-111.202156,-0.253732,-4.778101,-163.871307,0.018909,33.975319,0.134116,-0.946917,-0.289254,0.041143
576,0.041494,-1.839534,-6.664170,-113.903046,0.330698,-3.914429,-167.623779,-0.022217,34.115055,0.103108,-0.950434,-0.291643,0.031435
577,0.244843,-0.928893,-6.542102,-109.308487,1.867305,-4.221139,-171.381241,-0.103052,34.242283,0.072076,-0.952962,-0.293625,0.021264
578,0.338141,-0.330354,-6.532285,-104.684929,3.381023,-2.773036,-175.027267,-0.244803,34.349415,0.042077,-0.954480,-0.295096,0.010771
579,0.219409,-0.137328,-6.176274,-104.195114,5.254858,-2.730309,-178.583649,-0.431612,34.435280,0.012921,-0.955094,-0.296022,0.000061
580,0.015040,0.284391,-6.055523,-97.822838,5.697378,-2.374770,177.987137,-0.625876,34.522514,-0.015153,-0.954829,-0.296587,-0.010427
581,0.189719,0.950364,-6.078489,-91.438370,7.237036,-3.401718,174.743103,-0.841727,34.633148,-0.041595,-0.953745,-0.297008,-0.020655
582,0.165060,1.161345,-6.148115,-87.432808,9.145970,-4.698754,171.659286,-1.112014,34.801056,-0.066497,-0.951877,-0.297570,-0.030982
583,-0.016852,1.453751,-6.480466,-72.231544,9.924191,-7.579702,168.913620,-1.386031,35.057388,-0.088478,-0.949389,-0.298639,-0.040571
584,0.163068,1.685775,-6.952041,-51.869598,10.101198,-10.074589,166.780045,-1.639964,35.415581,-0.105321,-0.946692,-0.300541,-0.048551
585,0.425989,1.941766,-7.587615,-31.446615,12.586930,-14.302929,165.346222,-1.921571,35.901585,-0.116179,-0.944080,-0.303606,-0.055121
586,0.118002,1.981025,-8.333300,-11.606531,12.704426,-16.895475,164.608047,-2.197949,36.512970,-0.121198,-0.941741,-0.307953,-0.059995
587,0.024796,2.122687,-9.034475,1.098322,10.792442,-16.367506,164.436203,-2.402025,37.150707,-0.121705,-0.939874,-0.312858,-0.062808
588,-0.060936,2.039616,-9.384571,9.507698,9.541183,-15.793756,164.632462,-2.546276,37.756226,-0.119358,-0.938443,-0.317761,-0.064085
589,-0.085551,2.055792,-9.722221,15.733473,6.735007,-13.677299,165.084641,-2.631938,38.299473,-0.115109,-0.937404,-0.322361,-0.064078
590,-0.138671,2.009423,-9.717172,13.996969,3.350504,-10.820766,165.615570,-2.637792,38.735275,-0.110509,-0.936695,-0.326213,-0.063052
591,-0.002461,2.006734,-9.691196,14.048851,1.671986,-7.935242,166.117615,-2.592084,39.057293,-0.106364,-0.936241,-0.329167,-0.061548
592,-0.009106,2.023288,-9.550488,15.561043,1.278297,-5.237407,166.639435,-2.544176,39.281071,-0.102123,-0.936063,-0.331321,-0.059857
593,0.216928,1.953748,-9.425843,15.298585,0.759483,-1.222696,167.178543,-2.520523,39.392769,-0.097731,-0.936206,-0.332535,-0.058200
594,0.120374,2.059267,-9.417117,15.687696,1.183690,0.294074,167.711792,-2.523446,39.414410,-0.093353,-0.936588,-0.332977,-0.056694
595,0.233185,1.783885,-9.243194,16.501015,0.858668,2.662310,168.265503,-2.542807,39.372852,-0.088790,-0.937151,-0.332889,-0.055210
596,0.217468,2.020839,-9.250177,15.031549,0.280342,4.044798,168.802200,-2.564299,39.266888,-0.084386,-0.937867,-0.332259,-0.053748
597,0.220395,1.820063,-8.804279,2.857714,-0.229317,6.910486,169.099457,-2.580316,39.088207,-0.081989,-0.938601,-0.330920,-0.052889
598,0.114798,1.787216,-8.413762,-1.105115,-0.795435,8.643938,169.127167,-2.587936,38.830807,-0.081858,-0.939363,-0.328817,-0.052687
599,0.114324,1.624596,-8.011637,-3.409261,-0.851894,10.175966,169.052048,-2.590417,38.517925,-0.082611,-0.940203,-0.326215,-0.052698
600,0.023702,1.604107,-7.777892,-2.354846,-0.282724,11.317358,168.961304,-2.605161,38.162739,-0.083477,-0.941145,-0.323245,-0.052818
601,0.261903,1.030363,-7.286849,2.631877,-0.070620,12.086426,169.002594,-2.649045,37.777454,-0.083190,-0.942261,-0.320060,-0.052782
602,0.088356,1.161653,-7.361400,17.413517,-0.348339,10.111877,169.395569,-2.690227,37.410477,-0.080008,-0.943564,-0.317185,-0.051767
603,0.163069,0.844671,-7.292185,28.430698,0.152165,8.735492,170.224426,-2.713969,37.098293,-0.073249,-0.944981,-0.314959,-0.049467
604,0.166467,0.666633,-7.568382,41.532291,-0.313243,9.075775,171.477142,-2.734272,36.801506,-0.062978,-0.946539,-0.313017,-0.046026
605,0.311616,0.529882,-7.566031,50.196495,-1.338665,8.311285,173.096649,-2.730359,36.507145,-0.049712,-0.948137,-0.311204,-0.041437
606,0.104686,0.449423,-7.944000,56.629799,-1.823909,9.402322,174.958923,-2.688780,36.204891,-0.034506,-0.949642,-0.309350,-0.035940
607,0.310161,0.066443,-7.934920,66.168365,-1.375287,7.432353,177.086563,-2.634892,35.918625,-0.017090,-0.950897,-0.307604,-0.029701
608,0.254416,-0.076700,-8.370973,72.922104,-2.132146,10.197330,179.483795,-2.573569,35.620518,0.002581,-0.951856,-0.305689,-0.022758
609,0.459057,-0.567434,-8.458782,73.700325,-1.231850,8.424203,-177.995148,-2.510784,35.308090,0.023310,-0.952414,-0.303515,-0.015570
610,0.353949,-1.279236,-8.845119,83.147331,-0.711509,7.829093,-175.282791,-2.464642,35.035660,0.045704,-0.952329,-0.301522,-0.008107
611,0.519594,-1.488210,-9.196626,84.712936,0.355113,7.732959,-172.386993,-2.434627,34.774597,0.069674,-0.951565,-0.299449,-0.000395
612,0.547612,-2.356843,-9.353155,82.095970,1.552964,7.139375,-169.506668,-2.439881,34.520584,0.093596,-0.950172,-0.297262,0.006880
613,0.787529,-2.852121,-9.404524,83.365540,2.019897,5.822502,-166.634094,-2.478065,34.291641,0.117509,-0.948101,-0.295138,0.013778
614,0.730547,-3.238717,-9.208961,81.651932,2.660786,3.049895,-163.775696,-2.548243,34.122913,0.141326,-0.945270,-0.293389,0.020347
615,0.739023,-3.523870,-9.218264,75.943436,3.924253,2.494458,-161.056366,-2.653782,33.996571,0.164008,-0.941909,-0.291924,0.026253
616,0.856457,-4.109892,-8.941467,74.751686,4.678060,0.515333,-158.454956,-2.804626,33.894779,0.185748,-0.938100,-0.290646,0.031470
617,0.713992,-4.241971,-8.932778,70.643898,4.035645,3.055999,-155.947678,-2.945378,33.778584,0.206608,-0.934002,-0.289177,0.036461
618,0.838954,-4.925017,-9.060145,67.608833,4.288949,1.375955,-153.568726,-3.064916,33.647671,0.226289,-0.929746,-0.287516,0.041224
619,0.943418,-4.904866,-9.229290,66.433876,5.610399,1.014310,-151.279373,-3.223999,33.532272,0.245243,-0.925194,-0.286023,0.045423
620,1.214270,-5.501800,-9.289863,56.916672,6.028503,1.292029,-149.187973,-3.417246,33.399643,0.262600,-0.920720,-0.284496,0.048772
621,1.029368,-6.065398,-9.751619,56.721352,4.772666,0.028563,-147.262817,-3.599511,33.283134,0.278508,-0.916293,-0.283121,0.051796
622,1.109719,-6.182699,-9.516595,52.772259,3.777762,-1.701837,-145.423645,-3.763982,33.225491,0.293585,-0.911683,-0.282190,0.054869
623,0.954881,-6.452489,-9.444304,49.233635,3.263526,-4.045658,-143.724274,-3.939750,33.234726,0.307469,-0.907023,-0.281862,0.057672
624,0.991647,-6.784035,-9.458168,46.891342,0.004150,0.138429,-142.130997,-4.038304,33.254017,0.320263,-0.902506,-0.281444,0.060858
625,0.899659,-6.622577,-8.994473,47.516972,-2.533464,-0.299511,-140.577499,-4.019701,33.282772,0.332410,-0.898032,-0.280767,0.064898
626,0.839539,-6.762995,-8.447673,50.562721,-3.731316,2.140444,-138.964905,-3.928202,33.327740,0.344782,-0.893261,-0.279916,0.069696
627,1.046232,-7.045756,-8.609075,63.411015,-4.495805,4.479687,-137.087021,-3.768201,33.338226,0.359011,-0.887653,-0.278341,0.075556
628,0.910442,-7.139291,-8.226797,65.767044,-4.173834,5.190768,-134.964447,-3.573086,33.323738,0.374970,-0.881122,-0.276173,0.082163
629,1.176909,-7.701509,-7.796845,68.931808,-3.305582,5.169405,-132.737976,-3.392169,33.294292,0.391644,-0.873964,-0.273707,0.088803
630,1.075924,-7.861863,-7.631889,74.290855,-3.091953,3.393228,-130.365952,-3.254579,33.278927,0.409365,-0.865882,-0.271220,0.095442
631,1.040603,-7.524039,-7.420028,67.361641,-1.645375,1.092133,-128.053757,-3.184932,33.294292,0.426589,-0.857501,-0.269104,0.101478
632,0.820135,-7.552968,-6.800723,54.908554,-1.192176,-1.236430,-126.086800,-3.190166,33.336418,0.441216,-0.849947,-0.267654,0.106205
633,0.549615,-7.551214,-6.352787,50.924362,-1.739983,0.045348,-124.392242,-3.190111,33.391171,0.453684,-0.843203,-0.266457,0.110368
634,0.182353,-7.703931,-5.945530,46.607517,-3.189612,0.423777,-122.831024,-3.120702,33.458691,0.464916,-0.836885,-0.265149,0.114774
635,0.132283,-7.883514,-5.520044,44.822186,-2.835597,4.809287,-121.354919,-2.956429,33.500671,0.475272,-0.830964,-0.263290,0.119555
636,0.251788,-8.415868,-5.060654,46.975266,-3.992249,8.175478,-119.839912,-2.680792,33.489803,0.485657,-0.825029,-0.260469,0.124981
637,0.363249,-8.732129,-5.022586,49.743294,-3.284219,11.205965,-118.223801,-2.322145,33.439217,0.496562,-0.818730,-0.256798,0.131004
638,0.439608,-8.768578,-4.798066,49.882156,-3.125523,12.107788,-116.565010,-1.924852,33.355465,0.507645,-0.812218,-0.252551,0.137170
639,0.592827,-8.692097,-4.628930,49.691414,-2.126042,11.950618,-114.919052,-1.540146,33.260406,0.518592,-0.805608,-0.248170,0.143072
640,0.488814,-8.711889,-4.611731,45.487492,-1.843746,10.490308,-113.367844,-1.195506,33.168316,0.528869,-0.799212,-0.243994,0.148407
641,0.352103,-8.715014,-4.280413,40.895981,-1.286783,9.997434,-111.974846,-0.878597,33.085510,0.538015,-0.793359,-0.240122,0.153174
642,0.374293,-8.797699,-4.147024,39.554691,-1.601124,9.118500,-110.683678,-0.582853,33.014927,0.546421,-0.787824,-0.236492,0.157571
643,0.386441,-9.004952,-3.873142,38.399567,-1.117405,9.437419,-109.432838,-0.301824,32.951588,0.554514,-0.782351,-0.232970,0.161758
644,0.095228,-9.105066,-3.812398,37.180351,-1.269998,8.360115,-108.222084,-0.024382,32.893410,0.562279,-0.776971,-0.229493,0.165806
645,-0.037068,-9.244615,-3.564310,35.251579,-1.092991,8.631730,-107.066345,0.257318,32.845207,0.569597,-0.771767,-0.226083,0.169768
646,-0.073822,-9.533142,-3.431028,34.606117,-1.608753,9.945552,-105.949066,0.570233,32.800320,0.576541,-0.766721,-0.222537,0.173828
647,-0.152820,-9.555305,-2.999084,32.813156,-1.729302,9.112395,-104.860947,0.895076,32.769291,0.583198,-0.761746,-0.219008,0.177928
648,0.012828,-9.571218,-2.913496,32.320282,-2.889005,8.384531,-103.805000,1.191132,32.771305,0.589602,-0.756768,-0.215838,0.181895
649,-0.109487,-9.675326,-2.498535,30.141262,-3.314738,8.167849,-102.786110,1.470706,32.807915,0.595694,-0.751836,-0.212986,0.185821
650,0.045345,-9.926940,-2.353066,30.359468,-4.021241,5.073272,-101.786057,1.693307,32.879913,0.601671,-0.746802,-0.210644,0.189492
651,0.045125,-9.751758,-2.010168,28.037010,-3.478012,-1.486681,-100.813011,1.745862,32.990475,0.607702,-0.741542,-0.209461,0.192198
652,-0.142502,-9.911117,-1.950539,27.020744,-3.185034,-4.781154,-99.893234,1.639045,33.118477,0.613629,-0.736247,-0.209312,0.193877
653,-0.458680,-9.790400,-1.964631,25.636728,-1.910887,-6.424576,-99.027367,1.469282,33.232632,0.619314,-0.731122,-0.209496,0.194994
654,-0.569589,-9.716780,-1.934520,22.925159,-0.821376,-4.268443,-98.246979,1.323342,33.303967,0.624442,-0.726530,-0.209418,0.195885
656,-0.400898,-9.614106,-1.604535,20.196806,-0.319346,0.825096,-97.556503,1.292841,33.330231,0.628823,-0.722658,-0.208568,0.197096
657,-0.288047,-9.738041,-1.662570,20.262419,-0.795435,4.537672,-96.910027,1.395547,33.336720,0.632679,-0.719250,-0.206922,0.198946
658,-0.253084,-9.504786,-1.535952,18.727339,-1.916991,7.179049,-96.296295,1.598812,33.358208,0.636091,-0.716136,-0.204849,0.201432
659,-0.147359,-9.728386,-1.208277,16.105799,-3.674856,7.853508,-95.739220,1.852566,33.423859,0.638955,-0.713322,-0.202846,0.204358
660,-0.211246,-9.846346,-1.209522,16.443029,-4.509538,5.293006,-95.209923,2.072351,33.538116,0.641608,-0.710511,-0.201363,0.207283
661,-0.387672,-9.933565,-1.149497,14.798080,-4.309642,1.891718,-94.706345,2.200362,33.673569,0.644226,-0.707652,-0.200558,0.209710
662,-0.479701,-9.770369,-0.923557,12.098720,-3.226234,-0.189645,-94.270683,2.244720,33.796135,0.646599,-0.705054,-0.200260,0.211433
663,-0.479928,-9.992653,-0.871588,10.568215,-1.978027,-1.268474,-93.901199,2.235765,33.884117,0.648724,-0.702798,-0.200168,0.212521
664,-0.407561,-9.884793,-0.704354,9.066705,-1.062472,-2.420548,-93.579254,2.182814,33.938522,0.650699,-0.700792,-0.200207,0.213071
665,-0.335241,-9.721370,-0.495797,8.473120,-0.699302,-2.589926,-93.281616,2.100443,33.973049,0.652614,-0.698904,-0.200339,0.213290
666,-0.441336,-9.674262,-0.610983,9.281861,-0.906828,-0.946504,-92.981880,2.045513,34.003128,0.654491,-0.697052,-0.200280,0.213655
667,-0.540717,-9.910382,-0.552346,7.733046,-1.248635,1.023466,-92.701523,2.061736,34.038818,0.656096,-0.695413,-0.199880,0.214446
668,-0.427313,-9.758889,-0.534253,6.497046,-1.361554,2.036680,-92.468163,2.127278,34.079826,0.657306,-0.694113,-0.199311,0.215480
669,-0.418123,-9.967102,-0.526732,4.289032,-0.668784,2.874414,-92.295479,2.216415,34.109959,0.658120,-0.693217,-0.198650,0.216487
670,-0.306823,-10.301354,-0.126276,4.554543,0.168950,3.016325,-92.139259,2.312854,34.114815,0.658866,-0.692471,-0.197822,0.217361
671,-0.115578,-10.225203,0.058493,8.900378,1.220312,1.475140,-91.882217,2.368736,34.090332,0.660355,-0.691126,-0.196860,0.217996
672,0.021865,-10.204819,0.169753,13.427799,2.466993,-1.176918,-91.468414,2.337300,34.030388,0.663022,-0.688787,-0.195896,0.218172
673,-0.247061,-10.558331,0.332473,15.449652,2.975127,-2.261851,-90.939804,2.249054,33.942726,0.666530,-0.685723,-0.194882,0.218042
674,-0.432905,-10.512088,0.194874,17.917072,3.289467,-3.162147,-90.343758,2.150110,33.840908,0.670472,-0.682252,-0.193725,0.217875
675,-0.337626,-10.439597,0.029538,13.798600,3.948667,-4.382888,-89.798668,2.022639,33.721172,0.674179,-0.679042,-0.192735,0.217343
676,-0.615360,-10.313471,-0.269098,7.046381,4.592608,-4.747583,-89.466034,1.880429,33.577522,0.676687,-0.677082,-0.192102,0.216222
677,-0.505308,-10.246435,-0.439455,-1.474387,4.504104,-3.612296,-89.417038,1.761941,33.423325,0.677487,-0.676850,-0.191806,0.214700
678,-0.412652,-9.831558,-0.429583,-8.511955,5.361673,-4.477494,-89.638969,1.641567,33.256165,0.676709,-0.678238,-0.191949,0.212635
679,-0.120271,-9.395568,-0.544472,-13.216383,6.294015,-3.465807,-90.062767,1.507402,33.059856,0.674805,-0.680840,-0.192364,0.209978
680,-0.331587,-9.433652,-0.891770,-16.684813,7.009673,-0.546712,-90.641830,1.435752,32.836559,0.671893,-0.684498,-0.192512,0.207269
681,-0.102996,-9.489637,-0.749396,-21.900423,7.108859,0.646562,-91.367508,1.430653,32.599369,0.667979,-0.689131,-0.192425,0.204633
682,-0.424680,-9.476181,-0.792740,-23.456867,6.402354,2.625687,-92.189865,1.480718,32.371120,0.663329,-0.694372,-0.192214,0.202227
683,-0.220715,-9.587568,-1.512638,-24.850039,6.593095,4.719256,-93.085716,1.600952,32.146870,0.658051,-0.700105,-0.191723,0.200160
684,-0.304820,-9.993855,-1.363311,-30.433401,7.169896,4.345406,-94.109314,1.736985,31.905924,0.651937,-0.706570,-0.191238,0.197901
685,-0.046052,-9.791225,-1.623953,-30.647034,6.823510,0.025511,-95.217690,1.779474,31.665060,0.645405,-0.713311,-0.191402,0.194948
686,-0.204807,-9.857253,-2.237265,-32.563595,5.485274,-4.891021,-96.383972,1.660728,31.465809,0.638666,-0.720002,-0.192793,0.191139
687,-0.139076,-10.089900,-2.842380,-39.546227,6.156682,-9.865540,-97.730362,1.380212,31.299145,0.630954,-0.727328,-0.195524,0.186175
688,-0.170066,-10.164389,-3.010508,-50.642757,6.176519,-14.197641,-99.386414,0.941899,31.151566,0.621420,-0.735989,-0.199637,0.179728
689,-0.368393,-10.092366,-4.051920,-62.685364,5.318948,-15.990602,-101.451691,0.417077,31.050589,0.609176,-0.746492,-0.204984,0.172153
690,-0.350091,-10.160927,-4.611643,-82.060036,5.230444,-13.970276,-104.073280,-0.088799,30.986628,0.592967,-0.759627,-0.211063,0.163736
691,-0.259626,-10.126045,-5.053533,-99.881317,7.502547,-8.750086,-107.312820,-0.487213,30.884155,0.572139,-0.775722,-0.216897,0.154493
692,0.023954,-9.657233,-5.752491,-114.105995,7.909970,-4.514118,-111.087914,-0.764718,30.715929,0.547015,-0.794098,-0.222020,0.144535
693,-0.035980,-9.538382,-6.512298,-121.486885,8.039673,1.072295,-115.226524,-0.910614,30.497370,0.518522,-0.813576,-0.226198,0.134397
694,0.365732,-9.109132,-7.064539,-124.604347,7.920650,4.841331,-119.530464,-0.944497,30.220451,0.487974,-0.832988,-0.229216,0.124383
695,0.523519,-8.772496,-7.832109,-121.026070,9.042207,7.072234,-123.816994,-0.944418,29.881546,0.456821,-0.851343,-0.231190,0.114374
696,0.514933,-8.534423,-8.271088,-112.415260,5.964413,7.905389,-127.882271,-0.913955,29.538403,0.426593,-0.867742,-0.232392,0.105056
697,0.505443,-8.808279,-8.736604,-97.830467,4.044801,8.874352,-131.519470,-0.830293,29.236589,0.398930,-0.881541,-0.232999,0.097222
698,0.928463,-8.653978,-8.933299,-86.770561,5.407452,5.303687,-134.682770,-0.805629,28.964319,0.374612,-0.892795,-0.233393,0.090056
699,0.786908,-8.750690,-8.709217,-71.413651,5.895747,2.053466,-137.351791,-0.908267,28.747751,0.354082,-0.901634,-0.234037,0.083119
700,0.422645,-8.927255,-8.832785,-55.005379,2.865260,-3.529896,-139.435699,-1.065949,28.670012,0.337996,-0.907954,-0.235354,0.077368
701,0.324969,-8.983118,-9.136526,-45.408833,2.953764,-9.136146,-141.055756,-1.288038,28.769541,0.325510,-0.912258,-0.237838,0.072544
702,0.565398,-8.366894,-9.062384,-53.220043,7.192785,-12.613729,-142.639572,-1.659895,28.948587,0.313517,-0.915997,-0.241246,0.066759
703,0.621312,-7.792728,-8.431878,-56.462635,9.683095,-14.557758,-144.397736,-2.178319,29.143732,0.300380,-0.919868,-0.245130,0.059386
704,0.212017,-7.300376,-8.369356,-57.576557,6.780784,-16.202707,-146.218704,-2.698700,29.406305,0.286673,-0.923534,-0.249413,0.051929
705,0.210262,-6.409230,-8.193604,-72.124733,3.925778,-14.934662,-148.315598,-3.108014,29.742989,0.270444,-0.927551,-0.253968,0.044822
706,0.907991,-5.678269,-7.311779,-83.642410,6.596147,-12.461138,-150.841736,-3.498219,30.044502,0.250658,-0.932300,-0.258152,0.036683
707,0.137004,-4.833779,-6.824640,-74.879028,2.857630,-14.244942,-153.400803,-3.844506,30.359465,0.230439,-0.936676,-0.262129,0.028698
708,-0.310932,-4.367424,-7.202351,-71.241226,-2.113835,-11.612722,-155.770950,-3.971024,30.736679,0.211218,-0.940275,-0.265977,0.022922
709,0.610514,-3.709838,-7.017016,-79.900848,1.038727,-9.807552,-158.243134,-4.048407,31.066469,0.191008,-0.943786,-0.269243,0.017089
710,0.479491,-3.059865,-6.723509,-77.984283,5.250282,-8.690576,-160.838684,-4.254630,31.314747,0.170028,-0.947141,-0.271885,0.009643
711,0.081204,-2.544905,-7.228407,-74.477707,3.410015,-6.757227,-163.368988,-4.437572,31.512608,0.149488,-0.950073,-0.273879,0.002374
712,0.714693,-2.493114,-7.482018,-79.841331,4.731467,-5.052770,-165.934723,-4.596133,31.664391,0.128553,-0.952720,-0.275274,-0.004911
713,0.690711,-1.949779,-7.507460,-81.727379,4.484267,-6.003420,-168.618988,-4.796383,31.809210,0.106686,-0.955005,-0.276437,-0.012896
714,0.431305,-1.523403,-7.808512,-81.524429,3.275734,-4.424088,-171.349594,-4.944046,31.958227,0.084276,-0.956837,-0.277375,-0.020605
715,0.943731,-1.573903,-8.130599,-80.654655,3.609912,-5.005466,-174.046997,-5.076422,32.098354,0.062080,-0.958151,-0.278028,-0.028161
716,0.664562,-0.980177,-8.225618,-81.278755,3.941037,-9.931152,-176.739624,-5.230916,32.335339,0.039996,-0.958701,-0.279293,-0.035897
717,0.518237,-0.363299,-8.166448,-84.963867,2.172490,-9.572560,-179.537170,-5.326779,32.657486,0.016936,-0.958567,-0.281022,-0.043459
718,0.638708,-0.037131,-8.152972,-88.345314,1.882564,-9.427597,177.539001,-5.368200,32.976460,-0.007281,-0.957891,-0.282477,-0.050981
719,0.378473,0.551765,-8.089176,-90.521294,1.488875,-12.432145,174.511917,-5.369378,33.345245,-0.032388,-0.956454,-0.284111,-0.058539
720,0.345182,1.452905,-7.743630,-95.215034,0.481764,-11.794308,171.326233,-5.306606,33.754406,-0.058885,-0.954183,-0.285830,-0.066102
721,0.561553,1.774608,-7.512343,-95.897118,-0.009584,-9.867064,168.029861,-5.216019,34.117611,-0.086303,-0.951200,-0.286916,-0.073820
722,0.441870,2.242292,-7.424626,-88.668808,0.507705,-9.693108,164.848999,-5.121386,34.443199,-0.112684,-0.947628,-0.287565,-0.081295
723,0.521523,2.562754,-7.264624,-79.797081,1.594164,-9.949464,161.938858,-5.034901,34.773212,-0.136683,-0.943632,-0.288250,-0.088255
724,0.557790,2.802164,-7.194271,-65.331306,2.486830,-9.108678,159.430939,-4.976430,35.100883,-0.157185,-0.939586,-0.289031,-0.094514
725,0.528541,3.030298,-7.244619,-50.412338,3.063630,-8.399123,157.431702,-4.938517,35.410362,-0.173384,-0.935915,-0.289932,-0.099702
726,0.676067,3.198450,-7.504789,-31.683136,4.061586,-7.329451,156.016968,-4.933209,35.700493,-0.184678,-0.932968,-0.291052,-0.103699
727,0.876321,3.272689,-8.130231,-10.552117,4.775719,-8.724146,155.299576,-4.962293,36.004791,-0.190155,-0.931026,-0.292816,-0.106260
728,0.838120,3.398144,-8.498146,-2.484551,4.032593,-8.867583,155.095093,-4.981957,36.330223,-0.191459,-0.929855,-0.295230,-0.107485
729,0.853642,3.415542,-9.023295,3.812944,3.339823,-9.426071,155.147583,-4.968392,36.654652,-0.190765,-0.929099,-0.297937,-0.107781
730,0.753998,3.243557,-9.317643,10.966482,2.364757,-10.657494,155.446075,-4.910967,36.992672,-0.188188,-0.928696,-0.301065,-0.107097
731,0.482656,3.517868,-9.426718,8.358675,0.619098,-11.269389,155.819458,-4.782911,37.340427,-0.185196,-0.928354,-0.304467,-0.105646
732,0.392658,3.475654,-9.104583,0.883167,-1.595020,-8.324352,156.011185,-4.596201,37.627754,-0.183905,-0.927848,-0.307313,-0.104093
733,0.340034,3.640116,-9.159183,2.778366,-2.696738,-7.178383,156.102783,-4.383497,37.831661,-0.183581,-0.927389,-0.309433,-0.102462
734,0.429390,3.649371,-8.975745,0.903004,-3.011079,-6.110235,156.186005,-4.169790,37.993603,-0.183370,-0.927023,-0.311203,-0.100776
735,0.536950,3.834088,-8.916383,-0.618343,-2.921049,-5.599050,156.200226,-3.976818,38.131130,-0.183683,-0.926614,-0.312675,-0.099405
736,0.622244,3.751647,-8.872106,0.579508,-2.509050,-5.661613,156.202255,-3.807564,38.265778,-0.184033,-0.926196,-0.314069,-0.098254
737,0.606508,3.937344,-8.902950,1.989463,-0.987702,-7.428636,156.240387,-3.661921,38.441845,-0.183991,-0.925725,-0.315785,-0.097260
738,0.537579,3.960192,-8.942936,1.900959,-0.264413,-7.196694,156.290131,-3.538390,38.657120,-0.183762,-0.925168,-0.317786,-0.096475
739,0.366220,4.087350,-8.981287,-2.684447,-0.207954,-5.789791,156.257812,-3.428025,38.852921,-0.184177,-0.924533,-0.319535,-0.095993
740,0.236979,4.233659,-9.110260,-10.959538,0.457350,-3.603140,156.005646,-3.339340,38.998886,-0.186345,-0.923686,-0.320659,-0.096221
741,0.348042,4.222151,-9.196787,-18.819582,0.818994,-0.810697,155.489532,-3.299687,39.075459,-0.190553,-0.922607,-0.320911,-0.097474
742,0.303978,4.467043,-9.037046,-34.786865,1.156224,0.918177,154.574936,-3.305647,39.088539,-0.197882,-0.921023,-0.320217,-0.100102
743,0.472055,4.624271,-8.675628,-41.003483,1.900875,1.899347,153.276169,-3.354209,39.070385,-0.208183,-0.918793,-0.318820,-0.104079
744,0.580142,4.578324,-8.532692,-30.482227,2.618060,0.478710,152.050583,-3.435237,39.071476,-0.217763,-0.916549,-0.317530,-0.108130
745,0.645334,4.654030,-8.214886,-16.973211,2.178594,-0.276622,151.231995,-3.511891,39.108021,-0.224048,-0.914906,-0.316878,-0.111076
746,0.541698,4.722784,-8.117270,-3.076609,1.467512,0.399363,150.871094,-3.568324,39.137238,-0.226737,-0.914143,-0.316638,-0.112579
747,0.523495,4.399172,-8.330617,17.662243,-0.175909,1.884088,151.114517,-3.600634,39.114368,-0.224723,-0.914701,-0.316625,-0.112117
748,0.397047,4.245475,-8.953983,30.936268,-2.943938,3.907465,151.971451,-3.586843,39.002060,-0.218024,-0.916660,-0.316585,-0.109423
749,0.187128,3.915336,-9.414208,41.893936,-6.917449,6.757894,153.274292,-3.490830,38.763954,-0.208084,-0.919698,-0.316089,-0.104618
750,-0.042796,2.991340,-10.489780,53.884659,-10.271431,10.412484,155.028000,-3.306441,38.373695,-0.194849,-0.923781,-0.314852,-0.097628
751,-0.058799,2.146017,-11.956422,44.311005,-10.909269,11.367715,156.902252,-3.072472,37.887161,-0.180765,-0.928099,-0.312873,-0.089814
752,0.520345,2.129948,-11.925391,22.243073,-7.468307,5.625657,158.260025,-2.864100,37.496532,-0.170631,-0.931174,-0.311083,-0.083834
753,0.292260,2.095243,-10.382560,1.226499,-2.860013,2.709613,158.853378,-2.739734,37.294147,-0.166297,-0.932555,-0.310063,-0.080920
754,0.118956,2.330132,-9.102299,-18.569332,1.237097,3.020902,158.711227,-2.722255,37.188225,-0.167578,-0.932628,-0.309128,-0.081008
755,0.375669,2.921794,-7.670827,-38.453667,4.493422,-0.267467,157.821396,-2.810705,37.177841,-0.174578,-0.931357,-0.308259,-0.084107
756,0.478865,3.563692,-6.258765,-37.362633,4.935941,-1.901733,156.494766,-2.949384,37.275196,-0.184889,-0.929062,-0.307811,-0.088947
757,-0.072830,3.631709,-6.461377,-24.651669,1.063142,3.643480,155.349945,-3.031881,37.295036,-0.193917,-0.927148,-0.306916,-0.092717
759,0.197553,3.990107,-7.355652,-15.186353,-3.125523,5.824027,154.613861,-3.023793,37.140823,-0.200018,-0.926291,-0.305083,-0.094352
760,0.732526,4.440278,-8.011445,-15.471703,-4.622456,4.166872,154.051773,-2.978187,36.937737,-0.204854,-0.925819,-0.303064,-0.095118
761,0.568370,4.658221,-8.440667,-13.661954,-4.718589,4.377450,153.521790,-2.917711,36.744030,-0.209461,-0.925346,-0.301176,-0.095678
762,0.593683,5.201545,-8.587523,-12.937140,-3.864071,4.588028,153.024628,-2.864385,36.549351,-0.213782,-0.924915,-0.299294,-0.096192
763,0.525843,5.579968,-7.611880,-9.090281,-2.586871,4.974087,152.550858,-2.848602,36.364098,-0.217804,-0.924498,-0.297431,-0.096950
764,0.673534,5.312510,-7.787041,2.512855,-2.541094,6.280278,152.317764,-2.873088,36.164692,-0.219788,-0.924580,-0.295575,-0.097369
765,0.517572,4.623847,-8.305701,12.728926,-3.522264,9.304662,152.517059,-2.916099,35.890724,-0.218296,-0.925684,-0.293444,-0.096679
766,0.604996,4.998410,-8.710600,19.552866,-4.739953,10.046262,153.041443,-2.947451,35.542004,-0.214265,-0.927576,-0.290999,-0.094937
767,0.752513,4.757314,-7.321102,31.992208,-4.491227,9.979123,153.849548,-2.980018,35.177570,-0.207927,-0.929999,-0.288642,-0.092484
768,0.810507,4.045105,-8.591255,41.851212,-6.342174,8.933863,155.056625,-2.985250,34.816483,-0.198387,-0.933048,-0.286652,-0.088856
769,0.783245,4.207800,-8.956167,44.370514,-4.622456,2.779806,156.512436,-2.926955,34.562004,-0.186856,-0.936111,-0.285782,-0.084319
770,0.635679,4.853193,-7.591322,53.704597,-0.609272,-1.874266,158.071838,-2.874076,34.517605,-0.174268,-0.938663,-0.286626,-0.079923
771,0.622837,3.915322,-8.157296,59.570255,0.744224,-4.851346,159.847748,-2.853873,34.628223,-0.159680,-0.940968,-0.288769,-0.075460
772,0.508651,4.002409,-8.342614,63.858105,1.259987,-8.263315,161.817123,-2.824896,34.849239,-0.143425,-0.943006,-0.291883,-0.070525
773,0.252036,4.144593,-7.686044,70.479103,3.905941,-8.084783,163.911499,-2.819795,35.141541,-0.126014,-0.944718,-0.295540,-0.065458
774,0.264699,3.630936,-6.935814,82.596474,1.871883,-3.229288,166.271637,-2.848380,35.358498,-0.106343,-0.946552,-0.298588,-0.059795
775,0.438407,2.816871,-7.397711,96.441193,-0.702354,-0.198800,169.096329,-2.852678,35.426342,-0.082938,-0.948708,-0.300529,-0.052502
776,0.309591,2.251006,-5.842078,119.560486,-2.473953,5.146516,172.554733,-2.817809,35.343006,-0.054396,-0.950999,-0.301306,-0.043081
777,0.254195,0.948920,-6.348928,146.840973,-6.447462,10.359077,176.909592,-2.690903,35.076523,-0.018632,-0.953097,-0.300546,-0.030504
778,0.434944,-0.294103,-5.626122,176.974960,-11.214453,13.490276,-177.644226,-2.410697,34.674572,0.025885,-0.954025,-0.298280,-0.013951
779,0.116418,-1.762690,-5.717649,205.412094,-16.196600,16.081297,-171.100586,-1.913176,34.220253,0.079037,-0.952346,-0.294519,0.006915
780,-0.137810,-3.754404,-6.054180,227.411362,-22.968658,18.676899,-163.598145,-1.117573,33.790047,0.139287,-0.946605,-0.288965,0.032217
781,-0.142095,-5.983734,-7.688132,244.104996,-26.427931,17.904779,-155.417480,-0.097863,33.502541,0.204088,-0.935563,-0.281785,0.060557
782,-0.822566,-9.273759,-9.016404,246.734146,-24.935575,17.550764,-146.939728,0.978290,33.400219,0.270157,-0.918900,-0.273149,0.089596
783,-1.148691,-12.384582,-10.046928,233.452515,-20.035830,14.852928,-138.666534,1.951467,33.434395,0.333383,-0.897704,-0.263343,0.116765
784,-1.192863,-14.847613,-10.167912,206.825104,-10.422498,11.402811,-131.103439,2.655356,33.500153,0.390126,-0.874240,-0.253103,0.139443
785,-1.662420,-15.997312,-9.061995,167.860611,1.667409,5.773672,-124.675957,3.002037,33.455624,0.437779,-0.851430,-0.243194,0.155797
786,-1.772414,-16.896488,-6.036200,128.859482,8.297555,4.302680,-119.538719,3.095073,33.245102,0.475591,-0.831487,-0.234043,0.166335
787,-1.354880,-16.087187,-3.207140,100.651230,8.480665,2.048888,-115.464249,3.093649,32.967373,0.505273,-0.814603,-0.226015,0.173316
788,-1.420032,-14.637507,-1.145208,83.537964,5.445600,-0.397171,-112.090500,3.060584,32.763889,0.529424,-0.799728,-0.219552,0.178726
789,-1.307803,-13.124163,0.069891,77.173332,-0.357494,-1.746089,-109.066231,3.042681,32.718575,0.550455,-0.785541,-0.214536,0.184118
790,-0.904229,-12.193670,0.220731,78.070580,-7.421003,-1.492785,-106.128227,3.065967,32.878941,0.570097,-0.770907,-0.210706,0.190510
791,-0.699506,-10.701208,-0.485299,74.975998,-8.788232,-3.951051,-103.288635,3.065168,33.178856,0.588511,-0.756002,-0.207905,0.197208
792,-0.601749,-9.598492,-1.044144,62.692303,-5.821832,-6.175849,-100.810852,2.961628,33.462559,0.604433,-0.742447,-0.205988,0.202492
793,-0.144157,-9.194814,-1.290320,44.910690,-2.211494,-6.432206,-98.927597,2.764381,33.635582,0.616646,-0.731814,-0.204818,0.205537
794,-0.085459,-8.947805,-1.023882,26.071617,3.048371,-7.706353,-97.700455,2.493229,33.657661,0.624957,-0.724718,-0.204247,0.206144
795,-0.196779,-8.761803,-0.778824,12.580913,7.298074,-7.749079,-97.020210,2.186690,33.521442,0.630106,-0.720765,-0.203871,0.204697
796,-0.335312,-8.131736,-0.127032,4.281403,9.245155,-6.455093,-96.675278,1.909895,33.278812,0.633251,-0.718865,-0.203278,0.202250
797,-0.443124,-7.574904,0.519341,2.517433,8.856044,-2.534992,-96.432411,1.740164,33.001049,0.635591,-0.717747,-0.202061,0.200086
798,-0.857414,-6.884225,1.104893,7.626231,7.671925,2.993436,-96.057060,1.774342,32.733192,0.638341,-0.716183,-0.199539,0.199467
799,-1.059010,-6.529659,1.505417,16.410984,3.484786,13.508587,-95.382774,2.134626,32.529991,0.642213,-0.713320,-0.195055,0.201720
800,0.965883,-7.245809,-0.759215,24.901232,1.081453,16.848837,-94.550468,2.612630,32.415115,0.646669,-0.709559,-0.190140,0.205408
801,-0.394354,-8.414213,-1.741333,19.305664,1.372905,12.345831,-93.881912,3.014941,32.334209,0.650173,-0.706514,-0.186121,0.208501
802,-0.229211,-9.799449,-2.580672,7.876483,-0.932769,16.563488,-93.580658,3.481664,32.287712,0.651211,-0.705572,-0.182585,0.211553
803,0.051821,-10.951621,-3.140211,-3.372639,-5.136693,19.220127,-93.694687,4.038915,32.339413,0.649321,-0.706951,-0.179889,0.215040
804,0.136420,-11.597873,-4.015390,-13.014960,-5.811152,15.393106,-94.187370,4.558693,32.466858,0.644998,-0.710278,-0.178603,0.218138
805,-1.962575,-11.193669,-2.058536,-24.099281,-6.908292,18.150452,-94.970367,5.138748,32.620808,0.638652,-0.715234,-0.177725,0.221310
806,-0.438233,-10.637517,-1.578243,-18.590691,-10.248542,28.088802,-95.741478,5.952960,32.827309,0.631718,-0.720292,-0.175868,0.226234
807,-1.075537,-9.829128,-1.431905,-10.228621,-10.076113,25.291782,-96.244560,6.851405,33.069191,0.626133,-0.723858,-0.173283,0.232291
808,-0.762798,-9.387416,-1.414487,-3.926550,-6.668722,23.109709,-96.497223,7.667011,33.254566,0.622356,-0.725986,-0.170339,0.237910
809,-0.590613,-9.077090,-1.123966,2.258026,-5.150426,23.111235,-96.533737,8.402827,33.361378,0.620244,-0.726928,-0.166911,0.242929
810,-0.391021,-8.831543,-1.038253,11.277770,-5.820306,21.968319,-96.299179,9.087773,33.459652,0.619952,-0.726333,-0.163130,0.247967
811,-0.375240,-8.885715,-0.903962,12.980703,-6.381848,18.530409,-95.870674,9.675918,33.592430,0.621009,-0.724514,-0.159669,0.252851
812,0.510575,-9.547373,-0.763435,14.949147,-6.856411,15.052824,-95.361610,10.093797,33.761261,0.622865,-0.722001,-0.157200,0.256986
813,0.267009,-9.655675,-0.570459,23.198299,-8.422009,3.988339,-94.658051,10.230394,33.993679,0.626438,-0.718007,-0.156283,0.260032
814,0.009322,-10.058261,-0.433088,31.125481,-9.072054,-10.388930,-93.664803,9.963336,34.300911,0.632568,-0.711810,-0.157495,0.261496
815,-0.228700,-10.486176,-0.006094,39.493656,-7.999329,-24.383194,-92.386200,9.242190,34.626152,0.641416,-0.703337,-0.160824,0.260841
816,-0.397227,-10.591540,0.337659,52.979782,-7.636159,-38.514786,-90.736015,8.070282,34.926601,0.653481,-0.691987,-0.165870,0.258078
817,-1.115406,-10.190875,0.652304,67.190735,-7.735343,-50.296459,-88.630798,6.514970,35.184616,0.668942,-0.677147,-0.172052,0.253747
818,-1.191293,-9.873969,0.846004,73.958206,-6.665670,-55.356422,-86.198303,4.733573,35.352985,0.686537,-0.659604,-0.178561,0.248406
819,-1.089045,-9.854839,1.194018,79.134148,-4.065493,-57.862000,-83.593109,2.854949,35.369011,0.705022,-0.640437,-0.184705,0.242218
820,-1.193533,-9.478524,1.136777,83.133598,-1.398176,-59.827393,-80.867668,0.948639,35.197762,0.723882,-0.620098,-0.190083,0.235246
821,-1.638376,-9.244404,1.216247,81.648872,0.449720,-55.504440,-78.134193,-0.832704,34.867306,0.742096,-0.599574,-0.194195,0.228237
822,-0.970245,-9.057066,1.790800,78.304047,2.094668,-49.713554,-75.477486,-2.397669,34.431396,0.759004,-0.579615,-0.196916,0.221773
823,-1.819740,-9.271628,1.704068,74.818832,8.074770,-37.606857,-72.937813,-3.584490,33.879116,0.774328,-0.560991,-0.197157,0.216410
824,-1.845272,-8.856506,1.823983,64.564613,8.006103,-17.299847,-70.658936,-4.136250,33.348930,0.787014,-0.545152,-0.194023,0.213948
825,-0.408720,-9.019627,2.407871,54.090656,2.206061,0.684711,-68.745430,-4.157046,33.103214,0.796494,-0.532296,-0.189425,0.215351
826,0.393386,-9.048479,2.938483,47.188896,3.033112,10.742085,-67.121346,-3.876605,33.099861,0.803648,-0.521586,-0.184398,0.219307
827,0.042569,-8.736134,3.029960,41.481937,4.594134,17.996336,-65.707092,-3.341784,33.179241,0.809266,-0.512697,-0.178299,0.224588
828,0.729283,-8.484540,3.351886,35.219540,-2.585345,20.498852,-64.495674,-2.726002,33.422596,0.813449,-0.505118,-0.172656,0.230969
829,0.564017,-8.503516,3.607048,28.395603,-5.724174,19.610764,-63.497604,-2.201947,33.842476,0.816340,-0.498566,-0.168757,0.237786
830,-0.555715,-8.010406,3.587871,16.887074,-3.206397,23.742970,-62.798992,-1.582211,34.303635,0.817639,-0.494309,-0.164892,0.244820
831,-0.964896,-7.977304,3.327676,-3.453512,-6.497818,31.152863,-62.643639,-0.728420,34.868385,0.815991,-0.494327,-0.160928,0.252787
832,-0.795844,-8.545881,3.138061,-21.413652,-10.892483,38.661942,-63.158466,0.289839,35.656410,0.810599,-0.499188,-0.158279,0.262086
833,0.253897,-10.084930,2.723393,-30.643980,-17.794245,45.314976,-64.167755,1.366277,36.703945,0.802128,-0.507290,-0.157638,0.272758
834,0.210723,-9.689511,2.582989,-10.475821,-24.255011,43.406044,-64.999779,2.365775,37.968746,0.793740,-0.513629,-0.158287,0.284794
835,-0.259803,-10.132216,3.806296,0.133938,-30.009275,48.284428,-65.227043,3.339615,39.431591,0.787311,-0.515439,-0.158641,0.298826
836,0.207169,-11.725061,3.449987,46.265717,-38.621597,32.007381,-64.457275,4.019047,41.033863,0.785227,-0.509561,-0.159017,0.313816
837,0.740257,-10.705848,3.601885,83.222099,-36.773705,16.397163,-62.324558,4.072647,42.514362,0.790315,-0.492976,-0.159153,0.327180
838,-0.916319,-8.737614,4.073469,114.054947,-23.774345,7.511701,-59.045815,3.868219,43.583549,0.801342,-0.468199,-0.155560,0.338292
839,-1.828040,-8.613198,4.525512,101.760567,-17.838497,9.840262,-55.451801,3.798118,44.321808,0.813527,-0.441702,-0.148230,0.347994
840,-0.620401,-9.246396,3.240605,95.124321,-19.520065,-1.147925,-52.286854,3.604191,44.903606,0.823948,-0.417801,-0.142102,0.355471
841,-0.106293,-6.207848,4.188791,75.566528,-6.476455,-7.642265,-49.586342,3.193989,45.140224,0.833486,-0.396787,-0.137525,0.359093
842,-1.166021,-6.511168,4.573472,61.285400,4.156194,2.796591,-47.383282,3.125407,45.110485,0.841160,-0.380520,-0.131006,0.361236
843,-1.788150,-7.554004,5.074943,29.730787,-1.315775,2.961391,-45.980198,3.337240,45.135612,0.845355,-0.370799,-0.125076,0.363646
844,-1.178242,-8.900910,6.405157,17.729383,-0.253731,-1.282208,-45.326626,3.429796,45.167953,0.847214,-0.366214,-0.122411,0.364872
845,-0.983734,-8.521359,8.202924,29.536995,14.556901,-29.826168,-44.644985,3.266408,44.628098,0.851331,-0.361245,-0.119762,0.361102
846,-2.046419,-9.551318,7.216362,66.983208,25.021694,-25.956421,-43.173923,3.160787,43.496319,0.859586,-0.351098,-0.112450,0.353832
847,-1.819621,-7.997948,6.319715,105.645576,23.939816,-39.692802,-40.511402,3.153251,42.130215,0.871707,-0.332229,-0.100303,0.345962
848,-0.326600,-6.855062,6.877843,104.449249,26.509474,-56.766380,-37.211056,2.849576,40.350636,0.886575,-0.307509,-0.087885,0.334214
849,-0.180985,-5.330170,5.687571,120.512672,33.331886,-68.725067,-33.655560,2.424000,38.066444,0.902651,-0.280210,-0.075249,0.317871
850,-1.171190,-3.886818,4.528817,113.423218,30.139648,-52.963772,-29.963064,2.313031,35.783680,0.917501,-0.251946,-0.060848,0.301683
851,-0.692217,-3.357737,6.227163,59.649609,19.116364,-54.288277,-27.206030,2.281122,33.825054,0.928366,-0.230605,-0.049897,0.287174
852,-0.246922,-4.297584,7.636105,6.526039,12.364145,-52.245060,-26.174013,1.967943,32.007046,0.935069,-0.222234,-0.046338,0.272234
853,0.186762,-3.871556,7.490666,6.478736,14.443981,-46.344311,-26.036125,1.606809,30.335133,0.939440,-0.220964,-0.045746,0.257942
854,0.710587,-3.401854,8.283063,-16.022558,13.252234,-49.449566,-26.215038,1.240357,28.698837,0.942898,-0.222304,-0.045987,0.243742
856,1.309612,-2.767420,9.026432,-28.722839,8.573747,-42.552387,-26.880762,0.751418,27.168625,0.945026,-0.227424,-0.048393,0.229920
857,0.505022,-1.803179,11.076924,-44.595516,-6.207892,-26.376051,-27.890299,0.153583,26.136248,0.945318,-0.235046,-0.053224,0.219760
858,0.172914,-4.262167,12.359742,-69.761078,-12.497756,3.561079,-29.576452,-0.339792,25.956221,0.942344,-0.248082,-0.060117,0.216401
859,0.469201,-3.250427,12.539777,-27.019905,-10.610187,-11.689020,-30.991508,-0.766579,26.035803,0.939266,-0.258843,-0.066460,0.215321
860,0.262873,-2.109763,10.865018,32.323334,-11.527267,-4.025823,-30.615765,-1.236263,25.995083,0.940396,-0.254887,-0.069513,0.214142
861,-0.119624,-2.500214,9.899307,32.491184,-10.425550,3.854057,-29.241236,-1.544126,26.167965,0.943183,-0.242891,-0.069837,0.215716
862,0.876144,-3.151839,7.979649,27.058889,3.001067,-7.977970,-28.049913,-1.705192,26.161926,0.945727,-0.232762,-0.068905,0.216044
863,1.418252,-1.212144,7.331477,35.886364,5.454756,-31.616077,-26.766336,-1.997194,25.502615,0.949597,-0.221977,-0.067617,0.210759
864,0.705267,-2.448374,7.531941,3.321595,2.210638,-8.348768,-25.865854,-2.281297,24.839792,0.952594,-0.214356,-0.067074,0.205226
865,0.891884,-3.735635,8.777575,-40.356491,1.881038,-8.022220,-26.376099,-2.391978,24.561043,0.952154,-0.218556,-0.068373,0.202390
866,1.221938,-3.901534,9.189080,-35.572716,4.304208,-14.994173,-27.573580,-2.538803,24.171270,0.950536,-0.228466,-0.070922,0.198129
867,1.000771,-4.237898,8.836154,-14.437122,4.186712,-7.833005,-28.344717,-2.657039,23.767654,0.949697,-0.234899,-0.072403,0.194052
868,0.700974,-4.015262,8.603048,5.297670,5.421186,-1.968874,-28.443127,-2.634144,23.546026,0.949863,-0.235895,-0.071925,0.192202
869,0.933129,-4.510918,8.805920,0.770249,2.199957,3.797598,-28.301966,-2.543633,23.510715,0.950189,-0.234907,-0.070867,0.192190
870,1.018190,-4.866413,9.371881,-3.055245,-0.992279,8.282292,-28.329336,-2.477994,23.677673,0.949835,-0.235147,-0.070712,0.193697
871,0.609990,-4.917072,9.604032,11.988853,-2.109257,12.753254,-28.177351,-2.388535,24.010458,0.949556,-0.233843,-0.070395,0.196738
872,-0.030878,-4.805783,9.527555,30.383883,-0.903776,18.066526,-27.468283,-2.178560,24.487757,0.950098,-0.228058,-0.068387,0.201562
873,-0.576852,-4.705116,9.115297,42.148766,0.535172,20.337103,-26.266363,-1.829056,25.062199,0.951312,-0.218402,-0.064466,0.207727
874,-1.305956,-3.941147,9.048592,59.684704,2.679097,17.826956,-24.560946,-1.385567,25.615736,0.953307,-0.204771,-0.058668,0.214086
875,-1.712343,-3.371778,9.031455,81.296387,1.841364,17.259312,-22.166107,-0.913445,26.127151,0.956268,-0.185483,-0.051069,0.220317
876,-1.864253,-2.900834,9.259568,82.794846,1.635364,14.457713,-19.366249,-0.480890,26.608505,0.959451,-0.162731,-0.042732,0.226155
877,-1.802251,-2.404482,9.355697,76.515671,1.713187,8.762959,-16.635220,-0.120358,26.967566,0.962242,-0.140430,-0.034741,0.230570
878,-1.579181,-1.131068,9.475470,78.241478,0.684713,2.416636,-13.936529,0.136333,27.144669,0.964860,-0.118209,-0.027322,0.233080
879,-1.294377,-0.666950,9.325552,66.346893,-1.292886,0.233037,-11.366739,0.277821,27.197565,0.967129,-0.096822,-0.020939,0.234198
880,-1.250635,-0.606029,8.992051,44.611610,-1.654531,-0.957185,-9.375678,0.354519,27.200594,0.968644,-0.080160,-0.016221,0.234605
881,-1.206021,-0.690219,8.810737,30.434238,-5.058871,-0.629111,-8.023088,0.364633,27.195564,0.969531,-0.068742,-0.013362,0.234744
882,-1.114593,-0.673635,9.376910,22.583351,-10.233283,1.705554,-7.066550,0.229197,27.250000,0.969980,-0.060364,-0.012577,0.235238
883,-0.882451,-1.326638,9.901166,11.531075,-13.391949,4.591080,-6.470102,-0.055904,27.402628,0.970002,-0.054711,-0.013840,0.236456
884,-0.649636,-1.221716,10.024684,7.159298,-13.723075,7.719225,-6.168285,-0.410978,27.657320,0.969648,-0.051387,-0.016337,0.238484
885,-0.402155,-0.866403,10.132339,5.093196,-11.862970,9.493877,-5.960676,-0.751160,27.987968,0.969070,-0.048866,-0.018925,0.241157
886,-0.289396,-0.631389,10.129378,5.897358,-8.542558,7.793997,-5.751790,-1.017873,28.309156,0.968489,-0.046478,-0.020871,0.243789
887,-0.284899,-0.501721,9.798258,6.146084,-3.932738,3.445109,-5.511553,-1.164283,28.515423,0.968147,-0.044096,-0.021676,0.245513
888,-0.384835,-0.489727,9.501789,3.564218,-0.078250,-0.192697,-5.306121,-1.174513,28.574949,0.968097,-0.042327,-0.021344,0.246050
889,-0.421205,-0.617426,9.514200,2.451818,1.758964,-3.537526,-5.169981,-1.092521,28.509880,0.968285,-0.041365,-0.020336,0.245558
890,-0.437194,-0.801715,9.668703,2.067285,2.001586,-6.590902,-5.074661,-0.983781,28.335884,0.968689,-0.040823,-0.019151,0.244147
891,-0.404194,-0.958065,9.823547,0.527626,2.032105,-6.920501,-5.028194,-0.878367,28.105686,0.969192,-0.040692,-0.018079,0.242250
892,-0.138115,-1.085686,9.886635,-2.647825,0.263557,-7.866575,-5.074284,-0.820318,27.857019,0.969697,-0.041243,-0.017597,0.240161
893,-0.153277,-1.118302,10.025977,-4.256150,-0.279672,-8.904204,-5.206388,-0.817658,27.578869,0.970229,-0.042410,-0.017748,0.237788
894,-0.243315,-1.069325,9.951928,-4.771913,-0.845791,-9.072056,-5.371042,-0.831475,27.282421,0.970779,-0.043822,-0.018093,0.235246
895,-0.265948,-1.201479,9.955200,-4.669675,-1.782709,-7.808590,-5.544614,-0.863855,27.006674,0.971276,-0.045270,-0.018615,0.232868
896,-0.125924,-1.229922,9.914788,-4.068461,-2.657064,-7.851315,-5.711580,-0.930318,26.754416,0.971721,-0.046593,-0.019415,0.230672
897,-0.056259,-1.216942,9.798050,-3.387897,-2.119938,-6.780117,-5.855979,-1.010409,26.520079,0.972134,-0.047697,-0.020287,0.228624
898,-0.110943,-1.238661,9.770236,-4.654417,-3.001923,-4.895599,-6.009447,-1.091162,26.335651,0.972438,-0.048872,-0.021199,0.226995
899,-0.023783,-1.310063,9.790060,-3.284135,-2.899686,-3.018711,-6.164193,-1.178960,26.215284,0.972611,-0.050033,-0.022198,0.225902
900,-0.032956,-1.178557,9.696318,0.176663,-2.480057,-1.865111,-6.234280,-1.255225,26.144373,0.972721,-0.050491,-0.022952,0.225250
901,-0.061089,-1.016065,9.794723,3.721388,-1.949035,0.200992,-6.172657,-1.306740,26.124826,0.972787,-0.049870,-0.023260,0.225072
902,-0.079515,-0.976834,9.932031,6.121669,-2.026857,1.894769,-6.002336,-1.340801,26.166473,0.972778,-0.048349,-0.023232,0.225444
903,0.071638,-0.828909,9.749699,9.793046,-1.384443,3.133821,-5.725039,-1.366416,26.255436,0.972717,-0.045926,-0.022939,0.226243
904,0.046873,-0.744670,9.849190,10.346957,-1.062472,4.409495,-5.371260,-1.378059,26.384119,0.972599,-0.042875,-0.022388,0.227400
905,0.112299,-0.780979,9.887576,9.133846,-1.581287,5.824027,-5.031977,-1.391256,26.557659,0.972376,-0.039935,-0.021887,0.228933
906,0.108614,-0.754133,9.875397,7.966513,-2.036013,6.574782,-4.739491,-1.421235,26.768526,0.972052,-0.037354,-0.021626,0.230766
907,0.102557,-0.739258,9.736915,7.290528,-1.999390,7.783316,-4.482483,-1.455813,27.012392,0.971639,-0.035058,-0.021476,0.232870
908,0.034042,-0.727632,9.823853,7.011283,-2.614339,7.977109,-4.245644,-1.495150,27.280169,0.971161,-0.032919,-0.021405,0.235170
909,0.074442,-0.640699,9.761842,7.037224,-3.607716,7.729909,-4.000205,-1.533966,27.548491,0.970674,-0.030709,-0.021302,0.237477
910,0.163009,-0.412051,9.746648,7.681165,-4.259286,8.795004,-3.733153,-1.606127,27.831680,0.970150,-0.028244,-0.021430,0.239902
911,0.164694,-0.483739,9.843850,8.061120,-5.222145,9.377907,-3.459104,-1.734619,28.143528,0.969550,-0.025594,-0.022013,0.242555
912,0.180450,-0.383588,9.961272,8.273224,-6.175848,8.440989,-3.178512,-1.895844,28.450703,0.968944,-0.022816,-0.022845,0.245163
913,0.316264,-0.311543,9.923200,9.283387,-6.413892,9.011685,-2.874461,-2.083645,28.751791,0.968336,-0.019779,-0.023834,0.247721
914,0.390404,-0.322186,9.895650,9.872395,-6.140752,9.063566,-2.547130,-2.279276,29.062134,0.967692,-0.016522,-0.024824,0.250365
915,0.258631,-0.402397,10.038290,8.039757,-5.162634,5.096161,-2.248150,-2.452382,29.305616,0.967175,-0.013563,-0.025661,0.252448
916,0.329671,-0.332896,9.894814,4.931447,-3.873227,0.335274,-2.031449,-2.588296,29.401651,0.966967,-0.011412,-0.026340,0.253280
917,0.331186,-0.275507,10.010871,1.054070,-5.014619,-4.987154,-1.921900,-2.728740,29.328951,0.967116,-0.010193,-0.027276,0.252664
918,0.416568,-0.288936,9.885563,-2.669188,-6.526810,-10.257701,-1.930798,-2.921165,29.080967,0.967626,-0.009905,-0.028898,0.250531
919,0.434700,-0.174866,9.905147,-7.672696,-5.391523,-16.169134,-2.070578,-3.129077,28.646679,0.968518,-0.010747,-0.030918,0.246783
920,0.544577,-0.182812,9.950661,-9.775421,-4.851345,-16.964144,-2.314642,-3.317495,28.099758,0.969622,-0.012559,-0.032976,0.242048
921,0.503821,-0.147816,9.872718,-11.440206,-6.621418,-15.732721,-2.615548,-3.528767,27.561462,0.970669,-0.014823,-0.035329,0.237349
922,0.558157,-0.237890,9.790285,-10.964116,-4.520219,-12.812099,-2.936936,-3.731864,27.092972,0.971541,-0.017276,-0.037644,0.233222
923,0.547414,-0.159332,9.938486,-12.398486,-2.049746,-10.886381,-3.273550,-3.855637,26.701967,0.972248,-0.020011,-0.039310,0.229756
924,0.662704,-0.313874,9.857069,-11.264725,-1.306620,-6.751124,-3.619359,-3.924338,26.409367,0.972751,-0.022909,-0.040527,0.227130
925,0.586022,-0.277261,9.860171,-6.802919,-1.486679,-3.702324,-3.879853,-3.977852,26.236204,0.973026,-0.025076,-0.041460,0.225548
926,0.731555,-0.245428,9.904552,1.243286,-0.868680,0.147585,-3.931320,-4.018782,26.177031,0.973122,-0.025453,-0.041895,0.225012
927,0.875962,-0.158983,9.871784,11.721815,-1.741509,4.699419,-3.675608,-4.067684,26.257511,0.973007,-0.023155,-0.041824,0.225772
928,0.868104,-0.109338,9.886347,26.695723,-2.603657,10.906884,-3.003910,-4.141544,26.518354,0.972590,-0.017211,-0.041166,0.228206
929,0.673598,0.079582,9.991432,40.230679,-4.543108,17.546185,-1.869484,-4.245942,26.994368,0.971726,-0.007207,-0.039821,0.232619
930,0.693433,0.156504,9.918589,42.824753,-4.341686,20.320316,-0.481283,-4.376510,27.626350,0.970401,0.005041,-0.038080,0.238425
931,0.650349,0.245301,10.071722,38.352264,-2.090946,18.774557,0.859779,-4.477893,28.276567,0.968870,0.016812,-0.036051,0.244354
932,0.522605,0.365843,10.066955,30.728743,-0.310191,15.409889,1.992175,-4.513712,28.844896,0.967418,0.026630,-0.033806,0.249502
933,0.465852,0.412871,9.989176,17.949116,1.272194,10.826010,2.782326,-4.487904,29.282976,0.966259,0.033366,-0.031740,0.253421
934,0.576132,0.441376,9.952309,5.288514,2.799645,4.775717,3.150284,-4.408242,29.547014,0.965591,0.036363,-0.030170,0.255736
935,0.664120,0.494657,9.975471,-1.022714,3.123141,1.026518,3.209054,-4.300117,29.649651,0.965384,0.036645,-0.029094,0.256600
936,0.623511,0.545246,9.879902,-2.725646,1.911557,0.304755,3.141608,-4.206715,29.676708,0.965380,0.035876,-0.028450,0.256797
937,0.610678,0.477499,9.846086,-4.555232,1.142490,0.803733,3.015254,-4.145570,29.698168,0.965394,0.034681,-0.028211,0.256937
938,0.626206,0.442452,9.868260,-4.109660,1.102816,0.603837,2.862231,-4.099568,29.724030,0.965397,0.033295,-0.028159,0.257111
939,0.571156,0.410505,9.927948,-3.630521,0.587053,0.297125,2.724202,-4.061101,29.740980,0.965412,0.032051,-0.028139,0.257215
940,0.552166,0.436117,9.914289,-2.969795,0.008728,0.596207,2.607277,-4.037822,29.756742,0.965417,0.031018,-0.028201,0.257317
941,0.573866,0.397806,9.918508,-3.270401,0.205572,0.825095,2.497293,-4.021933,29.780901,0.965398,0.030062,-0.028308,0.257491
942,0.545124,0.381988,9.898260,-2.957587,0.309335,0.959377,2.386399,-4.001285,29.811377,0.965365,0.029089,-0.028375,0.257719
943,0.576122,0.378209,9.922691,-3.659514,0.127750,1.360695,2.269305,-3.982639,29.850664,0.965312,0.028070,-0.028472,0.258019
944,0.620265,0.369150,9.921224,-4.266830,0.272713,1.728444,2.130754,-3.968876,29.902662,0.965233,0.026885,-0.028656,0.258421
