seq,ax,ay,az,wroll,wpitch,wyaw,roll,pitch,yaw,q0,q1,q2,q3
61,-0.116691,-1.932035,9.720602,-2.314100,2.031115,-1.017442,-11.241419,0.674578,-0.134074,0.995175,-0.097934,0.005973,-0.000588
62,-0.105364,-1.989696,9.565307,10.919554,12.236155,-38.592743,-11.106800,0.779923,-0.827856,0.995262,-0.096720,0.007473,-0.006532
63,-0.309290,-1.800108,9.725891,17.656725,18.336378,-39.032368,-10.652055,1.036369,-2.194480,0.995475,-0.092630,0.010781,-0.018226
64,-0.444758,-1.612274,10.118002,27.596603,19.294977,-38.319668,-9.928129,1.423733,-3.575091,0.995721,-0.086096,0.015070,-0.030000
65,-0.724622,-1.559147,10.582036,29.523304,22.881357,-33.016102,-9.014034,1.922386,-4.863478,0.995926,-0.077790,0.020042,-0.040975
66,-0.855216,-1.418848,10.598138,27.659180,22.570511,-26.211580,-8.104026,2.524952,-5.953134,0.995994,-0.069408,0.025616,-0.050230
67,-0.791670,-1.353313,10.761696,19.794628,16.292875,-21.802645,-7.356527,3.059382,-6.834221,0.995913,-0.062429,0.030415,-0.057751
68,-0.738335,-1.432978,10.740074,10.704832,10.956185,-18.230291,-6.888799,3.427056,-7.553650,0.995699,-0.057957,0.033739,-0.063929
69,-0.711840,-1.430583,10.524127,3.484465,7.534788,-14.430833,-6.687957,3.668403,-8.131754,0.995407,-0.055888,0.036006,-0.068884
70,-0.627730,-1.312937,10.186888,-0.504230,3.854355,-12.254185,-6.668534,3.804978,-8.596612,0.995095,-0.055482,0.037406,-0.072856
71,-0.680348,-1.293101,9.782445,-6.319840,4.047737,-10.497361,-6.808549,3.891149,-8.989546,0.994750,-0.056508,0.038437,-0.076175
72,-0.755642,-1.338343,9.607059,-11.587112,3.341416,-7.990323,-7.129078,3.975825,-9.311124,0.994349,-0.059120,0.039551,-0.078810
73,-0.705413,-1.176292,9.102567,-9.035687,0.297670,-7.521791,-7.491217,4.002908,-9.575952,0.993966,-0.062150,0.040178,-0.080966
74,-0.471030,-1.324735,8.917013,-16.859137,-9.031500,-6.979896,-7.937792,3.826247,-9.796497,0.993602,-0.066080,0.039089,-0.082832
75,-0.090987,-1.526239,8.903411,-18.996552,-22.823952,-5.206687,-8.542960,3.271530,-9.921834,0.993266,-0.071711,0.034798,-0.084083
76,0.231222,-1.516809,9.125296,-8.577592,-32.587021,-4.416945,-9.003119,2.334236,-9.940008,0.993099,-0.076416,0.027028,-0.084756
77,0.289270,-1.404640,9.129823,3.269085,-30.912523,-4.038110,-9.090592,1.266951,-9.913777,0.993142,-0.077994,0.017827,-0.085256
78,0.250578,-1.479230,9.424767,4.694867,-25.859762,-1.202775,-8.957006,0.318818,-9.852546,0.993279,-0.077558,0.009469,-0.085395
79,0.079044,-1.374638,9.523958,9.434127,-17.292881,2.288136,-8.721443,-0.389009,-9.724313,0.993489,-0.076048,0.003072,-0.084770
80,-0.050541,-1.317621,9.611731,7.911653,-10.375806,5.249896,-8.434205,-0.826245,-9.531698,0.993775,-0.073877,-0.001056,-0.083385
81,-0.048328,-1.279517,9.646266,2.513076,-8.108897,10.627429,-8.265432,-1.092563,-9.225211,0.994069,-0.072595,-0.003683,-0.080890
82,0.131828,-1.289215,9.563278,-3.589386,-12.101732,17.690207,-8.294235,-1.357743,-8.709487,0.994367,-0.073001,-0.006292,-0.076582
83,0.310110,-1.470027,9.700450,-11.017473,-14.851873,24.527395,-8.557970,-1.698786,-7.947276,0.994629,-0.075450,-0.009577,-0.070200
84,0.432547,-1.554067,9.747574,-13.106797,-15.447310,30.002308,-8.991934,-2.058910,-6.971450,0.994832,-0.079320,-0.013113,-0.062009
85,0.345853,-1.565529,9.692645,-15.025770,-11.196599,36.140911,-9.504941,-2.320020,-5.811255,0.994992,-0.083750,-0.015950,-0.052182
86,0.162453,-1.623680,9.801761,-17.473722,-5.933484,42.308189,-10.100862,-2.378750,-4.473114,0.995073,-0.088753,-0.017226,-0.040691
87,-0.097008,-1.939502,9.969626,-24.685316,-0.130236,48.677883,-10.863171,-2.202225,-2.962438,0.994947,-0.095103,-0.016678,-0.027547
88,-0.120451,-2.024655,9.752857,-25.915781,-1.891820,51.430237,-11.764614,-1.907469,-1.318912,0.994511,-0.102655,-0.015377,-0.013153
89,-0.088902,-2.211907,9.632400,-28.917473,-5.540102,52.975998,-12.732259,-1.659447,0.408058,0.993729,-0.110818,-0.014786,0.001933
90,0.018012,-2.377252,9.492533,-27.934662,-9.129486,51.614452,-13.728304,-1.498327,2.160721,0.992601,-0.119239,-0.015232,0.017156
91,0.127648,-2.576341,9.312304,-29.969397,-10.974917,47.274948,-14.736361,-1.418033,3.840399,0.991163,-0.127752,-0.016562,0.031642
92,0.372529,-2.560997,9.221636,-25.790394,-15.380818,39.778534,-15.703851,-1.460483,5.355509,0.989544,-0.135863,-0.018993,0.044538
93,0.415154,-2.595179,9.344919,-21.865299,-13.498002,33.343983,-16.533316,-1.584565,6.659640,0.987960,-0.142729,-0.022011,0.055490
94,0.211519,-2.578586,9.564959,-15.779474,-4.751574,27.141916,-17.189810,-1.583225,7.712808,0.986576,-0.148176,-0.023680,0.064434
95,-0.058215,-2.613634,9.567256,-12.134542,4.488984,22.319473,-17.674608,-1.340536,8.501085,0.985476,-0.152339,-0.022913,0.071441
96,-0.292026,-2.532925,9.396172,-6.274247,12.173044,17.553839,-17.991436,-0.872643,9.049044,0.984687,-0.155276,-0.019832,0.076726
97,-0.540967,-2.631063,9.406825,-5.135522,19.859455,12.130635,-18.184010,-0.211653,9.353908,0.984170,-0.157345,-0.014702,0.080222
98,-0.800140,-2.825948,9.424027,-3.325767,27.451200,6.122989,-18.324383,0.632509,9.395963,0.983838,-0.159139,-0.007610,0.081733
99,-0.798880,-2.868787,9.317625,-1.320872,28.362602,-1.433253,-18.405458,1.540006,9.177198,0.983704,-0.160462,0.000430,0.081106
100,-0.866812,-3.143507,9.497546,-6.959014,30.558517,-9.127227,-18.559443,2.415587,8.698831,0.983594,-0.162332,0.008516,0.078219
101,-0.867412,-3.411859,9.485869,-11.590443,29.525049,-16.077496,-18.903543,3.228854,7.978256,0.983322,-0.165688,0.016304,0.073211
102,-0.770953,-3.383665,9.323791,-12.119681,24.336937,-20.367954,-19.352062,3.877784,7.108293,0.982962,-0.169725,0.022875,0.066751
103,-0.607209,-3.252044,8.952777,-15.861590,16.467142,-22.361517,-19.881998,4.279278,6.206759,0.982507,-0.174251,0.027381,0.059724
104,-0.454170,-3.463772,8.895555,-24.519934,7.141058,-23.108747,-20.618670,4.385832,5.356852,0.981741,-0.180395,0.029249,0.052783
105,-0.082767,-3.351045,8.703082,-22.393869,-8.381483,-25.552795,-21.455441,4.074758,4.604841,0.980843,-0.187277,0.027429,0.046059
106,0.074406,-3.437239,8.831216,-23.013250,-14.924512,-25.520258,-22.253448,3.397357,3.957179,0.979989,-0.193784,0.022409,0.039579
107,0.161916,-3.747948,8.981505,-24.155884,-17.569357,-24.011297,-23.068007,2.579473,3.403061,0.978992,-0.200465,0.016108,0.033584
108,0.235825,-3.789783,9.377228,-11.396094,-19.311005,-21.733364,-23.677347,1.712703,2.946769,0.978218,-0.205442,0.009348,0.028228
109,0.288979,-3.820977,9.567213,2.289908,-19.829517,-18.314295,-23.836691,0.847121,2.597783,0.978130,-0.206623,0.002550,0.023705
110,0.174914,-3.789356,9.608330,11.669040,-16.604298,-11.002430,-23.605537,0.094992,2.393890,0.978640,-0.204516,-0.003461,0.020617
111,0.269164,-3.877106,9.583613,12.421892,-19.071482,-4.571856,-23.203821,-0.553521,2.391254,0.979364,-0.200966,-0.008927,0.019468
112,0.417610,-3.871251,9.497965,12.381248,-22.624081,0.292877,-22.793310,-1.220839,2.597092,0.980023,-0.197301,-0.014919,0.020109
113,0.348287,-3.835298,9.097399,3.042808,-20.689949,6.659450,-22.546286,-1.842097,2.982407,0.980329,-0.194985,-0.020846,0.022377
114,0.307289,-4.027235,8.582196,-16.605186,-17.730824,12.190962,-22.791447,-2.311513,3.519773,0.979747,-0.196844,-0.025830,0.026116
115,0.310420,-4.270913,8.391102,-29.215904,-14.015114,14.835234,-23.581604,-2.619798,4.143425,0.978174,-0.203343,-0.029748,0.030710
116,0.326790,-4.239364,8.448443,-24.784700,-9.828342,14.016557,-24.509710,-2.786223,4.745606,0.976300,-0.211032,-0.032523,0.035290
117,0.357271,-4.288500,8.512615,-21.456415,-4.988194,10.899281,-25.303816,-2.835336,5.226953,0.974653,-0.217632,-0.034099,0.039064
118,0.294230,-4.664191,8.821316,-19.418892,4.002889,8.340480,-25.999292,-2.711172,5.523605,0.973224,-0.223510,-0.033860,0.041620
119,0.186211,-4.432672,9.075727,-2.013834,12.404097,4.334684,-26.359362,-2.372317,5.592973,0.972522,-0.226702,-0.031253,0.042779
120,0.138562,-4.204786,9.243276,12.174451,16.304056,0.820216,-26.184801,-1.905148,5.458714,0.972946,-0.225463,-0.026959,0.042612
121,-0.077267,-4.058708,9.219738,19.898485,22.693954,0.193582,-25.642580,-1.313096,5.190229,0.974118,-0.221163,-0.021208,0.041606
122,-0.448945,-3.783865,9.246696,29.468546,31.060993,2.087154,-24.814344,-0.486489,4.842861,0.975803,-0.214489,-0.013220,0.040351
123,-0.427179,-3.454525,9.149440,36.790306,26.653603,0.713086,-23.710030,0.409620,4.490285,0.977884,-0.205414,-0.004552,0.039073
124,-0.386761,-3.443592,9.222328,33.002979,20.226482,-0.843268,-22.551046,1.127368,4.182246,0.979928,-0.195740,0.002507,0.037705
125,-0.345642,-3.410851,9.231915,26.670212,14.947636,-1.801044,-21.562860,1.654061,3.921571,0.981578,-0.187419,0.007771,0.036306
126,-0.393031,-3.372772,9.332911,19.399574,12.079557,-1.141750,-20.801794,2.056273,3.713121,0.982789,-0.180982,0.011791,0.035098
127,-0.261927,-3.205150,9.278023,18.912397,4.011232,-1.600662,-20.168488,2.291465,3.576284,0.983766,-0.175590,0.014214,0.034215
128,-0.126960,-3.236566,9.293318,8.250231,-3.928270,-2.512987,-19.718332,2.269482,3.511666,0.984472,-0.171711,0.014257,0.033571
129,-0.011326,-3.243825,9.337971,0.538775,-8.920359,-3.335764,-19.572546,2.035042,3.492116,0.984744,-0.170401,0.012313,0.033039
130,0.156041,-3.283720,9.265546,-4.129986,-10.047812,-5.232740,-19.633299,1.689318,3.463818,0.984725,-0.170838,0.009367,0.032289
131,0.537900,-3.367708,9.158072,-7.908221,-21.320131,-9.237683,-19.835197,1.115795,3.413431,0.984523,-0.172433,0.004458,0.031013
132,0.709062,-3.670981,9.327937,-15.889970,-25.615866,-11.286032,-20.232420,0.263709,3.360034,0.984016,-0.175636,-0.002885,0.029266
133,0.620962,-3.511979,9.474668,-6.119170,-21.476768,-11.404153,-20.598986,-0.603729,3.279771,0.983497,-0.178569,-0.010298,0.027214
134,0.648173,-3.482515,9.351215,-0.868490,-20.347593,-10.452243,-20.713907,-1.384345,3.184297,0.983316,-0.179367,-0.016874,0.025159
135,0.485186,-3.643416,9.219937,-5.687393,-14.926462,-5.521489,-20.821938,-2.028385,3.143524,0.983101,-0.180134,-0.022358,0.023776
136,-0.028603,-3.552150,9.043265,-4.650263,0.718917,3.137931,-20.995909,-2.263789,3.191234,0.982789,-0.181553,-0.024488,0.023776
137,-0.238606,-3.570842,8.753667,-7.147530,8.296973,10.403175,-21.198320,-2.042395,3.348018,0.982458,-0.183317,-0.022883,0.025433
138,-0.186762,-3.911458,8.648396,-18.371374,6.722154,14.143689,-21.632948,-1.660015,3.637730,0.981722,-0.187098,-0.020177,0.028456
139,-0.173253,-4.037521,8.675446,-20.606514,5.451766,15.701399,-22.292566,-1.285714,4.022954,0.980547,-0.192797,-0.017786,0.032268
140,-0.017980,-4.140742,8.938910,-16.978186,1.645136,13.933562,-22.927155,-0.986684,4.433402,0.979348,-0.198262,-0.016119,0.036196
141,0.219481,-4.264007,9.055090,-13.552016,-3.158373,8.932449,-23.441898,-0.859941,4.793573,0.978328,-0.202655,-0.015837,0.039423
142,0.326717,-4.203392,9.194026,-6.145421,-3.991326,3.791846,-23.774004,-0.884191,5.035433,0.977652,-0.205446,-0.016591,0.041397
143,0.259540,-4.061953,9.148976,0.185777,-1.583324,1.191571,-23.875185,-0.935660,5.148876,0.977429,-0.206272,-0.017271,0.042257
144,0.017665,-3.981544,9.125602,5.437384,8.294582,2.480457,-23.781637,-0.808644,5.159656,0.977591,-0.205523,-0.016172,0.042592
145,-0.272225,-3.543524,8.994601,19.715940,18.861135,4.482574,-23.361631,-0.347435,5.085014,0.978349,-0.202127,-0.011947,0.042828
147,-0.221393,-3.647693,8.953952,12.559754,13.400755,3.036513,-22.823572,0.196308,4.989559,0.979285,-0.197744,-0.006935,0.043006
148,-0.338115,-3.628303,9.068435,10.989470,12.741023,3.333591,-22.431601,0.639278,4.919863,0.979936,-0.194557,-0.002881,0.043184
149,-0.290425,-3.591839,9.144167,9.748383,6.984971,1.753145,-22.086643,0.975656,4.873749,0.980490,-0.191726,0.000205,0.043359
150,0.002637,-3.645086,9.319397,5.753308,-6.611237,-3.025315,-21.828655,0.973517,4.851871,0.980928,-0.189518,0.000320,0.043168
151,0.247258,-3.829867,9.405846,-1.690179,-13.267383,-5.166736,-21.760967,0.615204,4.848377,0.981087,-0.188812,-0.002717,0.042549
152,0.274780,-3.601668,9.427263,3.874109,-13.012146,-6.287989,-21.724648,0.137657,4.833525,0.981199,-0.188332,-0.006768,0.041639
153,0.473946,-3.561336,9.340165,2.797316,-16.688410,-7.627480,-21.613422,-0.407993,4.800578,0.981425,-0.187184,-0.011347,0.040471
154,0.372657,-3.735320,9.250284,-3.226820,-11.793623,-7.171748,-21.619925,-0.940161,4.746221,0.981443,-0.187051,-0.015818,0.039133
155,0.018818,-3.499849,9.019783,0.799880,0.646542,-4.250607,-21.658443,-1.183073,4.637994,0.981413,-0.187308,-0.017734,0.037802
156,-0.234461,-3.462129,8.980757,-0.155531,9.915540,-0.390041,-21.645172,-1.047958,4.501098,0.981482,-0.187263,-0.016349,0.036853
157,-0.373328,-3.572693,9.078632,-3.133649,13.287734,3.066391,-21.698574,-0.672112,4.399710,0.981427,-0.187863,-0.012981,0.036595
158,-0.385238,-3.647859,9.063409,-3.057429,16.853151,5.481503,-21.801453,-0.152773,4.345820,0.981259,-0.188922,-0.008478,0.036979
159,-0.352606,-3.552351,9.119088,2.611673,13.705670,5.862078,-21.808964,0.390306,4.332202,0.981212,-0.189162,-0.003808,0.037758
160,-0.169150,-3.693891,9.232404,0.722853,4.181358,3.326437,-21.753134,0.723963,4.364015,0.981259,-0.188789,-0.000984,0.038581
161,-0.064594,-3.637073,9.216093,4.334036,-0.880651,2.634693,-21.667940,0.811833,4.435970,0.981364,-0.188087,-0.000321,0.039341
162,0.044435,-3.563314,9.180061,6.586941,-2.908134,1.502748,-21.484743,0.778458,4.523378,0.981637,-0.186507,-0.000687,0.040036
163,-0.169737,-3.517472,9.079667,6.083934,3.820903,4.639206,-21.272314,0.829921,4.613188,0.981943,-0.184704,-0.000316,0.040890
164,-0.215432,-3.319172,9.018365,11.379498,5.745987,7.458510,-20.979071,1.051332,4.743699,0.982335,-0.182266,0.001479,0.042360
165,-0.183219,-3.245207,8.971902,8.150090,2.275070,10.936665,-20.648716,1.285220,4.982847,0.982730,-0.179519,0.003233,0.044771
166,-0.239653,-3.145146,9.040054,8.244036,0.565467,14.664103,-20.366352,1.479200,5.365998,0.982980,-0.177182,0.004416,0.048348
167,-0.269616,-2.975631,9.014171,10.679715,-1.571674,17.892801,-20.036953,1.650915,5.881210,0.983224,-0.174446,0.005244,0.053016
168,-0.153350,-2.760778,9.234130,14.376697,-6.991274,17.782124,-19.601566,1.718240,6.489252,0.983571,-0.170767,0.005118,0.058315
169,0.036742,-2.370918,9.211002,23.442171,-12.641316,12.610120,-18.954649,1.576506,7.075798,0.984238,-0.165165,0.003384,0.063122
170,0.154275,-2.353571,9.223699,22.377851,-14.462593,6.039207,-18.180548,1.246754,7.514603,0.985147,-0.158346,0.000367,0.066419
171,0.357988,-2.388810,9.016839,17.545441,-17.315443,-1.649132,-17.511385,0.764777,7.746809,0.985998,-0.152316,-0.003702,0.067777
172,0.389956,-2.384832,9.015602,15.009924,-14.137615,-8.278956,-16.969152,0.214868,7.744553,0.986777,-0.147331,-0.008114,0.067069
173,0.290364,-2.471408,8.921812,11.140852,-8.717441,-8.386186,-16.533594,-0.230206,7.588437,0.987457,-0.143336,-0.011498,0.065197
174,0.232439,-3.135035,9.164518,-12.730261,-8.299326,-3.924937,-16.559399,-0.560598,7.472480,0.987508,-0.143382,-0.014215,0.063781
175,0.366770,-3.273127,9.272717,-16.703125,-11.689110,-3.695469,-17.049547,-0.916431,7.447786,0.986909,-0.147406,-0.017520,0.063046
176,0.158819,-3.445654,9.589160,-11.758390,-2.246595,0.869602,-17.524290,-1.152237,7.471828,0.986279,-0.151354,-0.019842,0.062866
177,0.299037,-3.916174,9.945512,-17.733158,-4.723006,4.327967,-18.018227,-1.236472,7.590071,0.985552,-0.155534,-0.020997,0.063681
178,0.561835,-4.116836,9.940145,-19.479166,-9.091659,-0.551650,-18.641483,-1.435328,7.722249,0.984617,-0.160748,-0.023237,0.064420
179,0.399695,-4.155776,9.839204,-18.417555,-2.517687,-3.651006,-19.273079,-1.640907,7.718627,0.983714,-0.166051,-0.025351,0.063959
180,0.048234,-4.297346,9.810142,-19.502529,7.671896,-1.522509,-19.902040,-1.588647,7.608774,0.982850,-0.171503,-0.025089,0.062955
181,0.079311,-4.290539,9.630539,-18.167580,7.039597,-2.610846,-20.526068,-1.382307,7.459830,0.981984,-0.177005,-0.023434,0.061863
182,-0.070395,-4.169508,9.149146,-18.082676,9.529325,-4.017467,-21.125721,-1.163433,7.258332,0.981150,-0.182305,-0.021564,0.060365
183,-0.277424,-4.205760,8.853255,-19.982214,13.219234,-1.141724,-21.756279,-0.841876,7.039760,0.980237,-0.187917,-0.018787,0.058906
184,-0.284613,-4.111178,8.783495,-16.270920,11.500176,-0.259633,-22.358559,-0.468919,6.863559,0.979306,-0.193290,-0.015613,0.057932
185,-0.246164,-3.982655,8.699059,-11.916943,8.052448,-0.053406,-22.827635,-0.170084,6.733593,0.978548,-0.197467,-0.013074,0.057273
186,-0.158652,-4.033353,8.783913,-13.712839,5.310981,0.697903,-23.254709,0.039060,6.656297,0.977823,-0.201225,-0.011367,0.056932
187,-0.167156,-3.948955,8.928886,-6.303116,3.637313,2.056539,-23.588350,0.194090,6.639044,0.977224,-0.204149,-0.010180,0.057027
188,-0.125802,-3.939022,9.175077,-3.353428,-0.382388,0.576635,-23.749239,0.261356,6.657521,0.976919,-0.205553,-0.009720,0.057291
189,0.095317,-3.950657,8.866051,-5.720974,-6.216891,-3.167918,-23.900467,0.143288,6.662405,0.976659,-0.206783,-0.010811,0.057107
190,0.143579,-4.062462,9.058665,-7.462785,-6.435616,-3.754251,-24.120213,-0.096270,6.642769,0.976296,-0.208539,-0.012925,0.056483
191,0.095004,-4.068400,9.057919,-4.790365,-2.900936,-3.925331,-24.324265,-0.290686,6.589912,0.975967,-0.210187,-0.014585,0.055652
192,0.137598,-4.083735,9.062101,-2.179806,-1.630832,-6.619503,-24.439655,-0.431996,6.461026,0.975828,-0.211118,-0.015606,0.054279
193,0.101265,-4.017664,9.107321,3.986538,1.072265,-5.803656,-24.408031,-0.526035,6.276320,0.975978,-0.210828,-0.016052,0.052537
194,-0.042923,-4.068365,9.344622,8.308696,5.235790,-1.963160,-24.201731,-0.483416,6.115020,0.976427,-0.209113,-0.015300,0.051270
195,-0.100021,-3.931197,9.175165,15.692861,8.301317,0.684815,-23.801025,-0.285897,6.003716,0.977188,-0.205802,-0.013237,0.050729
196,-0.139625,-3.803048,9.134865,17.355705,8.105399,1.644110,-23.250080,-0.019599,5.930153,0.978178,-0.201228,-0.010591,0.050632
197,-0.182924,-3.770047,9.146052,16.166906,7.430872,4.892278,-22.691412,0.261358,5.929428,0.979120,-0.196580,-0.007942,0.051158
198,-0.209740,-3.518711,9.061351,21.187143,6.494955,6.284649,-22.068336,0.547021,6.013258,0.980103,-0.191374,-0.005360,0.052394
199,-0.144251,-3.356349,9.168444,22.642054,2.210301,6.714614,-21.336233,0.761971,6.161029,0.981208,-0.185199,-0.003423,0.054038
200,-0.077172,-3.343200,9.218554,17.846949,-1.681755,6.762827,-20.658609,0.850765,6.367817,0.982174,-0.179429,-0.002666,0.055969
201,0.011293,-3.301697,9.253802,14.183055,-5.458190,6.442147,-20.121250,0.816041,6.615734,0.982886,-0.174799,-0.003079,0.058054
202,0.034753,-3.142303,9.215416,13.263863,-6.035083,6.481803,-19.660313,0.709306,6.883625,0.983459,-0.170783,-0.004161,0.060207
203,0.112166,-3.398993,9.159698,-3.144177,-8.042961,5.841645,-19.488657,0.557072,7.155791,0.983589,-0.169219,-0.005780,0.062326
204,0.054117,-3.366620,9.120732,-5.482558,-4.932986,4.900784,-19.630434,0.413553,7.397116,0.983264,-0.170344,-0.007448,0.064176
205,0.007291,-3.339562,9.056194,-6.717166,-2.223377,4.199272,-19.832512,0.352550,7.580201,0.982866,-0.172031,-0.008359,0.065642
206,0.015403,-3.460585,9.035657,-10.005954,-1.765298,3.396032,-20.110357,0.333347,7.721922,0.982367,-0.174392,-0.008899,0.066808
207,0.012626,-3.617881,9.118517,-12.286905,-1.569154,1.866813,-20.481329,0.311701,7.823476,0.981741,-0.177551,-0.009458,0.067615
208,0.010818,-3.637269,9.164321,-9.575373,-1.677241,0.049487,-20.845451,0.272403,7.872447,0.981148,-0.180642,-0.010086,0.067942
209,-0.016291,-3.759951,9.169538,-11.043261,-0.901242,-0.683779,-21.189074,0.228531,7.877962,0.980604,-0.183558,-0.010674,0.067889
210,-0.013078,-3.843051,9.075557,-13.141618,-1.068996,-1.234397,-21.592220,0.186321,7.860188,0.979968,-0.186983,-0.011245,0.067630
211,-0.058846,-3.825491,9.133009,-11.148064,0.086583,-1.218767,-21.997139,0.155948,7.828301,0.979324,-0.190430,-0.011690,0.067267
212,-0.056739,-3.755436,9.159996,-7.247227,-0.036453,-1.220844,-22.303820,0.141409,7.790352,0.978835,-0.193046,-0.011931,0.066887
213,-0.066905,-3.644902,9.234868,-1.677393,0.537926,-0.811302,-22.452642,0.136252,7.755845,0.978604,-0.194318,-0.012003,0.066568
214,-0.026841,-3.652246,9.206329,-0.969178,-0.321312,-0.584415,-22.496813,0.130708,7.732976,0.978543,-0.194694,-0.012037,0.066358
215,0.049015,-3.533354,9.259124,3.367659,-1.527571,-2.588361,-22.456902,0.082017,7.695890,0.978638,-0.194330,-0.012367,0.065963
216,0.123830,-3.525704,9.165147,3.161811,-1.833355,-5.023120,-22.348133,-0.018110,7.599945,0.978888,-0.193354,-0.012998,0.064987
217,0.136519,-3.650122,9.095294,-2.410297,-0.593259,-6.821223,-22.335396,-0.130576,7.432742,0.979015,-0.193201,-0.013669,0.063370
218,0.134008,-3.590649,9.034979,-3.109435,0.871750,-9.177200,-22.426638,-0.227880,7.184467,0.979005,-0.193958,-0.014131,0.061073
219,0.040380,-3.518329,9.065045,-1.314653,4.791471,-9.833314,-22.498991,-0.261709,6.855606,0.979056,-0.194598,-0.013900,0.058197
220,-0.056564,-3.535491,9.207929,-2.142833,7.497632,-8.949769,-22.555248,-0.192401,6.487987,0.979137,-0.195156,-0.012710,0.055168
221,-0.052202,-3.504221,9.224323,-2.017696,6.050876,-9.779148,-22.623693,-0.103843,6.113058,0.979188,-0.195822,-0.011346,0.052108
222,-0.117918,-3.297221,9.248315,5.040946,6.845905,-9.863939,-22.572807,-0.031198,5.728209,0.979439,-0.195456,-0.010046,0.048948
223,-0.165434,-3.438541,9.257181,0.182765,7.243624,-9.452148,-22.485870,0.062550,5.340909,0.979739,-0.194783,-0.008549,0.045804
224,-0.063908,-3.322360,9.115233,0.999453,3.674653,-12.021440,-22.466730,0.093739,4.940603,0.979923,-0.194659,-0.007595,0.042435
225,-0.025232,-3.421142,8.876367,-6.913684,3.003258,-13.209874,-22.565659,0.035540,4.509529,0.979912,-0.195513,-0.007394,0.038643
226,-0.143984,-3.490059,8.797492,-14.293881,6.756637,-9.935389,-22.919346,0.036187,4.090917,0.979438,-0.198563,-0.006782,0.035044
227,-0.162180,-3.740715,8.936927,-24.752802,6.836144,-6.176870,-23.570761,0.138094,3.754905,0.978385,-0.204175,-0.005512,0.032317
228,-0.108933,-4.234150,8.876986,-40.218849,3.673107,-1.990605,-24.654268,0.241929,3.559121,0.976457,-0.213454,-0.004568,0.030789
229,-0.201189,-4.417499,9.109273,-35.624226,4.345272,4.133460,-25.918320,0.377374,3.534140,0.974039,-0.224248,-0.003707,0.030789
230,-0.285313,-4.437881,9.272882,-19.423204,3.254119,11.373593,-26.834229,0.605171,3.709761,0.972144,-0.232080,-0.002376,0.032709
231,-0.318506,-4.603288,9.293271,-5.986130,1.055818,17.134846,-27.252695,0.884499,4.100730,0.971137,-0.235700,-0.000932,0.036587
232,-0.131223,-4.760735,8.894197,-1.098137,-6.414318,17.737997,-27.361345,1.071206,4.658505,0.970694,-0.236674,-0.000537,0.041696
233,-0.154319,-4.415522,8.928159,16.839361,-8.006495,20.482260,-27.086203,1.148657,5.335013,0.970983,-0.234365,-0.001164,0.047588
234,-0.060323,-4.491952,8.756519,14.263481,-11.162687,22.199837,-26.552008,1.183662,6.114220,0.971712,-0.229839,-0.002208,0.054272
235,0.147751,-4.494298,8.632809,7.782700,-15.133445,18.621502,-26.168734,1.093314,6.918601,0.972088,-0.226524,-0.004383,0.060926
236,0.190394,-4.541152,8.639597,-1.247118,-13.377480,17.359827,-26.046915,0.930862,7.666465,0.971944,-0.225367,-0.007168,0.066957
237,0.002310,-4.318548,9.021634,5.725575,-5.623741,17.466417,-25.961685,0.901200,8.327144,0.971715,-0.224582,-0.008665,0.072508
238,-0.033213,-4.187316,9.012008,12.103435,-2.811714,14.141373,-25.655310,1.003625,8.862603,0.971940,-0.222007,-0.008639,0.077271
239,0.039039,-4.323539,8.989174,12.111815,-2.617374,7.377346,-25.245079,1.075700,9.225399,0.972462,-0.218546,-0.008443,0.080517
240,-0.055560,-4.210020,9.089621,14.577385,-0.526894,0.500132,-24.797642,1.083561,9.366632,0.973206,-0.214743,-0.008326,0.081764
241,-0.096254,-3.929651,9.118835,22.982533,2.985142,-6.028686,-24.173569,1.082401,9.265811,0.974433,-0.209446,-0.007706,0.080949
242,-0.093540,-3.890871,8.895142,15.219295,3.338704,-12.681686,-23.543013,1.052387,8.937919,0.975806,-0.204081,-0.006932,0.078145
243,-0.266291,-4.058564,8.970845,7.405040,10.106757,-14.026430,-23.175169,1.081144,8.440472,0.976780,-0.200992,-0.005564,0.073977
244,-0.316574,-3.844144,9.049206,14.042304,10.223663,-17.772177,-22.830194,1.185548,7.819952,0.977746,-0.198136,-0.003378,0.068879
245,-0.083320,-3.821852,8.985663,18.988247,-0.442752,-25.092943,-22.293787,1.062189,7.097654,0.979100,-0.193509,-0.002889,0.062517
246,-0.407970,-3.635882,9.125027,30.199652,7.299053,-19.064548,-21.485781,0.894003,6.372581,0.980844,-0.186534,-0.002707,0.056059
247,-0.280907,-3.524469,9.115624,38.168850,3.930411,-15.004718,-20.356068,0.866829,5.774686,0.982918,-0.176853,-0.001465,0.050913
248,0.122878,-3.464459,9.239577,33.673649,-9.064194,-17.596466,-19.164957,0.603398,5.292440,0.984941,-0.166527,-0.002499,0.046400
250,-0.155710,-3.478811,9.382051,24.776346,0.303266,-9.518821,-18.193483,0.320370,4.912362,0.986493,-0.158074,-0.004017,0.042758
251,-0.465296,-3.337967,9.433104,22.177753,13.002789,1.847887,-17.412540,0.492508,4.722218,0.987602,-0.151414,-0.001991,0.041372
252,-0.324897,-3.357108,9.356646,10.675857,7.049582,3.932186,-16.865398,0.840614,4.714874,0.988281,-0.146818,0.001218,0.041762
253,-0.307439,-3.214751,9.412785,10.815026,3.780800,6.066927,-16.505526,1.061509,4.822608,0.988670,-0.143793,0.003120,0.042964
254,-0.449783,-3.071382,9.400348,12.902192,6.532265,9.314964,-16.106237,1.298530,5.020508,0.989055,-0.140439,0.005074,0.044949
255,-0.218291,-2.766578,9.434084,17.076777,-2.709927,8.975802,-15.599990,1.443121,5.296363,0.989532,-0.136136,0.006193,0.047479
256,-0.127932,-2.512979,9.488032,21.707073,-7.363040,9.766489,-14.945343,1.363445,5.642387,0.990159,-0.130467,0.005382,0.050343
257,0.188527,-2.542282,9.475526,16.445173,-15.264316,3.512305,-14.303064,1.054405,5.951970,0.990781,-0.124795,0.002654,0.052655
258,0.040660,-2.750224,9.535507,5.520132,-7.828948,0.161637,-13.934939,0.696022,6.105794,0.991149,-0.121453,-0.000440,0.053599
259,-0.077849,-2.531273,9.328956,8.313708,-1.869755,-0.310976,-13.704048,0.538451,6.142104,0.991391,-0.119383,-0.001733,0.053751
260,-0.227643,-2.439475,9.284330,5.826632,5.347867,-0.186841,-13.468601,0.592809,6.120294,0.991639,-0.117371,-0.001130,0.053621
261,-0.459554,-2.556304,9.355950,-4.210724,14.197691,1.440974,-13.442407,0.914458,6.064686,0.991656,-0.117290,0.001723,0.053467
262,-0.625797,-2.584728,9.340226,-5.636117,12.508556,6.739126,-13.605977,1.379054,6.092903,0.991408,-0.118915,0.005638,0.054191
263,-0.450583,-2.422387,9.376286,-5.828976,5.428796,10.165095,-13.791734,1.736156,6.295846,0.991054,-0.120696,0.008425,0.056327
264,-0.434685,-2.357095,9.484512,-4.297711,0.323744,11.218015,-13.950438,1.914605,6.618924,0.990688,-0.122178,0.009546,0.059319
265,-0.347941,-2.526437,9.547094,-11.231727,-3.609002,11.183827,-14.196723,1.952219,6.994565,0.990215,-0.124356,0.009336,0.062626
266,-0.175034,-2.682754,9.470462,-16.128128,-8.526684,10.600829,-14.639489,1.846906,7.396689,0.989524,-0.128156,0.007735,0.066019
267,0.040101,-2.605073,9.557331,-10.648573,-12.371800,6.603980,-15.074924,1.583896,7.763182,0.988868,-0.131789,0.004792,0.068912
268,-0.030816,-2.516746,9.567407,-6.819443,-8.092358,4.630038,-15.359426,1.303884,8.033194,0.988426,-0.134088,0.001889,0.070929
269,-0.028058,-2.588241,9.605100,-8.358412,-6.227914,3.617852,-15.608247,1.110565,8.229426,0.988044,-0.136119,-0.000166,0.072398
270,0.031597,-2.462258,9.515512,-4.201675,-5.971533,1.421679,-15.815149,0.937633,8.365409,0.987738,-0.137796,-0.001951,0.073364
271,0.061973,-2.401827,9.553760,-2.986551,-5.088452,-0.277072,-15.933959,0.765541,8.434127,0.987577,-0.138711,-0.003594,0.073747
272,-0.125178,-2.467378,9.578955,-6.881993,1.731251,-0.169005,-16.098351,0.709719,8.442409,0.987380,-0.140092,-0.004191,0.073746
273,-0.184609,-2.504120,9.579890,-7.114859,4.281126,-0.542879,-16.332153,0.802649,8.403124,0.987103,-0.142166,-0.003492,0.073513
274,-0.236314,-2.438791,9.593742,-4.250162,5.774859,-1.136279,-16.522705,0.955510,8.328914,0.986889,-0.143904,-0.002204,0.073058
275,-0.230326,-2.515079,9.585594,-5.678586,4.593860,-1.076401,-16.689705,1.110603,8.244220,0.986706,-0.145438,-0.000868,0.072521
276,-0.350200,-2.596993,9.616748,-6.915162,6.718393,0.053476,-16.901081,1.286157,8.173375,0.986448,-0.147364,0.000601,0.072133
277,-0.245117,-2.565445,9.596890,-4.724923,2.211307,-0.284529,-17.096216,1.427343,8.126191,0.986198,-0.149127,0.001755,0.071909
278,-0.234730,-2.634004,9.583502,-6.021040,0.476639,0.805772,-17.275434,1.472702,8.121212,0.985958,-0.150697,0.002040,0.071928
279,-0.159540,-2.594160,9.532836,-4.137256,-2.671325,1.343128,-17.443594,1.448455,8.166303,0.985712,-0.152129,0.001666,0.072287
280,-0.111763,-2.860758,9.540230,-10.477429,-4.526701,2.019394,-17.684988,1.350969,8.255922,0.985352,-0.154148,0.000554,0.072931
281,-0.044279,-2.805842,9.536506,-6.270082,-5.961372,1.660430,-17.961617,1.203351,8.367857,0.984934,-0.156436,-0.001044,0.073695
282,-0.080442,-2.798456,9.526313,-4.146144,-4.361967,2.505952,-18.132879,1.061238,8.487132,0.984649,-0.157818,-0.002540,0.074524
283,-0.051294,-2.859983,9.518670,-4.149370,-4.357183,2.354140,-18.268969,0.948468,8.609488,0.984401,-0.158912,-0.003767,0.075417
284,-0.048282,-3.029793,9.492128,-7.248025,-3.639388,1.826344,-18.457233,0.843931,8.717614,0.984085,-0.160458,-0.004940,0.076194
285,-0.127780,-2.816532,9.432709,0.669011,-0.635933,2.566481,-18.565565,0.799642,8.809704,0.983879,-0.161356,-0.005522,0.076918
286,-0.110680,-2.921490,9.404705,-1.697823,-0.895111,2.371643,-18.581490,0.801617,8.895854,0.983798,-0.161490,-0.005637,0.077660
287,-0.056424,-3.010135,9.394810,-3.158158,-2.143496,0.867119,-18.661499,0.770876,8.963185,0.983644,-0.162153,-0.006051,0.078191
288,-0.082517,-3.014523,9.370849,-2.426542,-1.221038,0.472690,-18.754078,0.724939,9.002318,0.983494,-0.162915,-0.006564,0.078457
289,-0.139685,-3.065430,9.421144,-2.877572,0.410079,0.764601,-18.842178,0.718791,9.026199,0.983353,-0.163665,-0.006711,0.078648
290,-0.070659,-3.110805,9.451302,-3.451290,-1.525399,-1.132499,-18.947653,0.699221,9.026427,0.983205,-0.164557,-0.006952,0.078616
291,-0.117206,-3.128951,9.463513,-2.656488,-0.118887,-1.273299,-19.049795,0.660265,8.997416,0.983084,-0.165409,-0.007314,0.078305
292,-0.175319,-3.172720,9.454488,-2.830606,1.391670,-0.616349,-19.141674,0.670013,8.960719,0.982975,-0.166206,-0.007240,0.077998
293,-0.197598,-3.080105,9.411330,0.881369,1.532705,-0.195634,-19.174517,0.711611,8.931950,0.982940,-0.166517,-0.006864,0.077809
294,-0.072335,-3.178575,9.433956,-0.698174,-2.268277,-1.373271,-19.171717,0.691450,8.911289,0.982961,-0.166481,-0.007005,0.077603
295,-0.091745,-3.069483,9.460102,6.139881,-2.111235,-1.714594,-19.081301,0.605623,8.886585,0.983123,-0.165651,-0.007644,0.077273
296,-0.078905,-3.002728,9.400531,9.839514,-2.328343,-0.512743,-18.815084,0.523596,8.875456,0.983525,-0.163313,-0.008153,0.077079
297,-0.092576,-2.981949,9.379990,11.704565,-1.714140,0.919545,-18.455776,0.461947,8.903386,0.984022,-0.160185,-0.008480,0.077258
298,-0.019334,-3.172258,9.460570,5.212676,-3.678820,0.003182,-18.173504,0.381478,8.946195,0.984396,-0.157704,-0.009040,0.077536
299,-0.084503,-2.963665,9.443959,13.634652,-0.626648,0.775539,-17.859182,0.317268,8.980814,0.984810,-0.154958,-0.009426,0.077771
300,-0.113659,-2.931961,9.362741,14.275918,1.479575,2.220499,-17.393753,0.345911,9.023987,0.985398,-0.150972,-0.008920,0.078218
301,-0.032297,-3.059797,9.451035,4.584254,-1.645359,0.115009,-17.079187,0.354830,9.061901,0.985782,-0.148270,-0.008678,0.078580
302,-0.105609,-2.997915,9.649715,6.673231,0.705743,-0.196014,-16.891550,0.339460,9.065261,0.986023,-0.146645,-0.008686,0.078603
303,-0.153852,-2.867215,9.530563,10.783205,2.343479,2.125138,-16.600510,0.397375,9.081375,0.986374,-0.144178,-0.008008,0.078836
304,-0.182856,-2.850141,9.538553,9.690143,2.282561,3.482528,-16.258764,0.497793,9.149184,0.986739,-0.141300,-0.006992,0.079567
305,-0.105014,-2.959417,9.560103,4.539175,-1.896095,2.812752,-16.020733,0.533184,9.248168,0.986957,-0.139269,-0.006642,0.080477
306,-0.161544,-2.961613,9.550165,8.593086,-0.586023,3.793410,-15.800812,0.523630,9.365458,0.987141,-0.137361,-0.006710,0.081488
307,-0.034142,-2.917118,9.404758,8.549850,-3.726892,2.967349,-15.513959,0.484801,9.493331,0.987395,-0.134854,-0.006991,0.082561
308,0.036278,-3.095823,9.623357,4.088020,-4.698237,0.870219,-15.302627,0.366425,9.592371,0.987586,-0.132942,-0.007974,0.083291
309,0.106568,-3.085776,9.738122,5.375294,-5.450254,-2.291016,-15.144825,0.197007,9.613999,0.987772,-0.131458,-0.009345,0.083294
310,-0.001271,-3.213069,10.007833,0.757023,-2.042296,-2.530873,-15.042756,0.055478,9.568926,0.987936,-0.130480,-0.010439,0.082753
311,0.008225,-2.522635,10.446471,16.513935,-0.851729,-4.425122,-14.754961,-0.020965,9.469316,0.988340,-0.127953,-0.010780,0.081835
312,-0.291459,-2.476911,11.868157,6.645886,8.285028,0.648837,-14.369034,0.083188,9.377150,0.988821,-0.124705,-0.009505,0.081188
313,-0.935399,-4.072597,12.746128,-41.239429,26.359556,15.255675,-14.944918,0.708869,9.487140,0.988026,-0.130109,-0.004642,0.082794
314,-0.653574,-4.835466,14.315695,-48.415039,13.291875,11.071721,-16.434641,1.463592,9.729574,0.985932,-0.143474,0.000475,0.085746
315,-0.488518,-5.919493,14.408462,-44.725796,6.961425,10.484804,-17.979784,1.892326,9.971065,0.983621,-0.157065,0.002671,0.088395
316,-0.409240,-6.671234,13.642727,-26.968670,4.799855,4.852347,-19.168274,2.159263,10.150421,0.981725,-0.167457,0.003780,0.090338
317,-0.292112,-6.940639,12.001346,-10.008678,3.041816,-1.011873,-19.783812,2.303976,10.167211,0.980754,-0.172835,0.004509,0.090715
318,0.081606,-5.227456,11.612860,53.004082,-5.131983,-12.959851,-19.075354,2.193866,9.959061,0.982000,-0.166679,0.004428,0.088744
319,-0.276483,-5.089493,10.281117,53.045208,8.523406,-8.455153,-17.321487,2.136611,9.602267,0.984722,-0.151572,0.005766,0.085526
320,-0.439873,-4.163973,9.964617,69.527649,11.689535,-7.355505,-15.293344,2.385929,9.252772,0.987441,-0.134266,0.009837,0.082685
321,-0.556392,-2.448856,9.459743,106.404694,10.845263,-4.106244,-12.374848,2.705214,8.977200,0.990650,-0.109257,0.014963,0.080320
322,-0.509889,-1.591347,9.365801,106.261711,5.597230,-4.091707,-8.842699,2.950550,8.793377,0.993608,-0.078806,0.019685,0.078387
323,-0.454290,-0.580560,8.384768,101.666962,-2.419294,-4.084162,-5.388007,2.986308,8.652940,0.995618,-0.048816,0.022410,0.076552
324,-0.445755,0.658183,7.495378,111.508583,-2.843916,-3.201690,-1.844328,2.891275,8.539268,0.996748,-0.017922,0.023957,0.074822
325,-0.361331,2.359983,6.865003,133.546768,-1.465496,-0.932459,2.231824,2.820070,8.470188,0.996814,0.017599,0.025973,0.073335
326,-0.811883,1.927043,7.219707,51.240616,19.015205,1.864457,5.309116,3.111433,8.504477,0.995903,0.044159,0.030478,0.072787
327,-1.045146,2.510030,7.178566,38.795620,25.710953,2.586985,6.817864,3.845909,8.650982,0.994977,0.056733,0.037883,0.073257
328,-0.304326,1.937278,6.756522,1.047303,-5.338978,6.539404,7.495174,4.164120,8.843272,0.994418,0.062329,0.041181,0.074512
329,-0.241356,1.982066,6.376050,2.447738,-8.360513,9.918466,7.570095,3.902339,9.086514,0.994285,0.063077,0.039093,0.076753
330,-0.603577,0.705480,5.336255,-43.797424,12.891108,2.023334,6.895146,3.952177,9.293935,0.994485,0.057113,0.039176,0.078754
331,0.105584,-0.199283,4.566279,-78.016869,-26.797873,-0.708613,4.865497,3.720390,9.292900,0.995402,0.039658,0.035762,0.079518
332,0.154736,-0.929969,3.679688,-108.608803,-30.420067,-7.073818,1.745812,2.777231,9.102980,0.996467,0.013259,0.025363,0.078954
333,-0.198619,-0.767336,3.061348,-81.726273,4.185344,-11.425282,-1.437570,2.342456,8.794788,0.996750,-0.014072,0.019417,0.076907
334,-0.323077,-1.299234,2.489028,-117.101662,19.268385,-12.950243,-4.768239,2.712489,8.374959,0.996116,-0.043203,0.020548,0.073919
335,-0.009926,-1.096099,2.742712,-68.736664,-16.681993,-11.806492,-7.882255,2.709486,7.962764,0.994837,-0.070184,0.018759,0.070870
336,-0.087550,-0.712337,2.796563,-14.588734,-11.916152,-8.009067,-9.280335,2.189227,7.699211,0.994188,-0.081979,0.013568,0.068447
337,0.051394,-0.932590,3.230755,-16.899328,-23.204906,-3.465852,-9.808124,1.580976,7.606105,0.993972,-0.086203,0.008046,0.067255
338,-0.005440,-1.159752,4.168485,-7.012977,-18.258118,-2.194818,-10.205707,0.883823,7.632987,0.993753,-0.089255,0.001745,0.066980
339,-0.097179,-0.690001,5.797809,32.896114,-9.292401,1.217754,-9.773572,0.428775,7.696253,0.994090,-0.085245,-0.001997,0.067186
340,0.381312,-0.168268,8.408246,50.036217,-20.945652,-5.143745,-8.391330,-0.079249,7.709574,0.995067,-0.072951,-0.005607,0.066997
341,-0.032599,0.350344,10.624844,44.978390,-3.220456,-6.258881,-6.807572,-0.503967,7.575108,0.996063,-0.058952,-0.008303,0.065679
342,-0.412964,0.585244,12.684373,30.466969,10.698719,-9.312884,-5.548496,-0.408395,7.301850,0.996805,-0.048076,-0.006635,0.063430
343,-0.233435,0.592149,14.643247,7.626499,7.411826,-12.843635,-4.912011,-0.142171,6.905284,0.997270,-0.042700,-0.003818,0.060115
344,-0.494078,0.254520,15.907111,-7.692237,12.044646,-13.618530,-4.912947,0.142336,6.437833,0.997501,-0.042862,-0.001168,0.056153
345,-1.038930,0.037342,15.862666,-10.176978,17.235960,-7.182942,-5.213403,0.597311,6.049116,0.997548,-0.045691,0.002800,0.052945
347,-0.921695,-1.423029,15.957852,-28.232780,12.292559,0.670399,-5.856177,1.076468,5.893650,0.997305,-0.051495,0.006743,0.051819
348,-0.161475,-1.726397,16.017179,-26.731819,-5.563991,-3.765945,-6.773706,1.181642,5.829214,0.996878,-0.059521,0.007276,0.051364
349,-0.718963,-1.936633,15.849817,-26.849611,5.130674,-0.087024,-7.667879,1.166558,5.765204,0.996414,-0.067288,0.006782,0.050854
350,-0.099236,-2.735904,15.622885,-44.332932,-7.029321,-1.066062,-8.854486,1.132339,5.751451,0.995674,-0.077586,0.005967,0.050779
351,0.039041,-4.043590,15.235726,-70.310173,-8.985399,-5.268163,-10.765876,0.851299,5.691902,0.994300,-0.094061,0.002729,0.050127
352,0.193005,-3.855731,14.591225,-53.716682,-8.076196,-12.222518,-12.835010,0.513885,5.464923,0.992570,-0.111857,-0.000877,0.047874
353,-0.206334,-4.564129,13.335178,-56.332718,2.173807,-8.744251,-14.671099,0.336644,5.148456,0.990793,-0.127681,-0.002824,0.044921
354,0.000199,-4.977230,12.718940,-45.542938,1.865045,-6.016284,-16.370270,0.335531,4.894950,0.988888,-0.142365,-0.003184,0.042685
355,-0.208968,-4.597208,12.019924,-7.430462,7.202024,-3.990866,-17.254339,0.431813,4.691675,0.987827,-0.150030,-0.002417,0.041033
356,-0.450743,-3.783705,11.371483,41.820148,15.515626,1.981295,-16.682777,0.784710,4.549768,0.988579,-0.145222,0.001012,0.040266
357,-0.382318,-3.167500,10.804444,61.062996,11.940049,5.663722,-14.968469,1.260256,4.548440,0.990583,-0.130576,0.005727,0.040773
358,0.037741,-2.046206,10.477346,87.273331,0.461907,2.347821,-12.495245,1.493152,4.630065,0.993108,-0.109251,0.008546,0.041567
359,-0.244689,-0.528293,9.326319,120.031975,6.334217,4.358675,-9.040071,1.624821,4.721247,0.995898,-0.079315,0.010877,0.042173
360,-0.398849,0.409464,8.733043,116.391441,12.816037,6.960799,-5.099589,1.964397,4.867833,0.997930,-0.045168,0.015220,0.043181
361,-0.213448,1.168390,8.032469,101.567345,4.972745,5.962170,-1.464175,2.272955,5.063769,0.998735,-0.013638,0.019249,0.044416
362,-0.563543,1.971496,7.459449,90.166405,18.626648,10.272227,1.739869,2.665239,5.337016,0.998547,0.014079,0.023935,0.046187
363,-0.806678,2.651863,7.272095,70.301720,23.396866,13.168245,4.434656,3.344392,5.761643,0.997620,0.037159,0.031066,0.049072
364,-0.781682,1.943083,7.724640,2.161064,16.953876,12.832466,5.672907,3.977126,6.251489,0.996782,0.047492,0.037303,0.052713
365,-0.018459,1.536108,7.230675,-20.733540,-15.871482,16.149904,5.396436,3.950847,6.732583,0.996670,0.044944,0.037136,0.056999
366,-0.116823,0.957447,6.622788,-41.602772,-11.385657,15.058457,4.387376,3.454680,7.212339,0.996908,0.036290,0.032468,0.061672
367,-0.363808,0.358837,5.862707,-52.170616,1.424227,11.378104,2.850115,3.262019,7.643319,0.997111,0.022908,0.030047,0.065897
368,0.119464,-0.971522,4.926826,-98.397743,-23.914280,8.487861,0.359040,2.878915,7.965718,0.997271,0.001380,0.025277,0.069357
369,0.350600,-1.479636,3.559201,-117.721321,-40.751877,2.956354,-3.232103,1.808852,8.179958,0.996901,-0.029252,0.013727,0.071730
370,-0.323677,-1.693920,2.536211,-135.428177,21.956001,-1.827773,-7.445154,1.500828,8.224668,0.995175,-0.065690,0.008380,0.072403
371,-0.207276,-1.558829,1.853915,-138.341690,14.160225,-3.332835,-12.006046,2.083179,8.057498,0.991761,-0.105575,0.010687,0.071757
372,0.276475,-1.649049,1.454159,-149.435165,-47.610649,-15.617640,-16.798906,1.465673,7.887682,0.986722,-0.146586,0.002577,0.069899
373,-0.378288,-1.499504,1.884656,-84.279747,30.308516,7.344691,-20.687174,1.146503,7.828624,0.981282,-0.179795,-0.002437,0.068944
374,-0.395516,-1.614409,2.586658,-35.328537,20.394028,12.499682,-22.678759,2.055079,7.845177,0.977784,-0.197331,0.004093,0.070580
375,0.283054,-1.344780,4.536983,42.378860,-35.956703,-8.913446,-22.556309,1.837529,8.002342,0.977954,-0.196168,0.002042,0.071549
376,-0.414386,-0.903479,6.944072,77.464760,-2.567016,7.493127,-20.554104,1.230924,8.215520,0.981235,-0.178697,-0.002237,0.072391
377,-0.485481,-0.625591,10.095802,75.562592,2.834691,-0.143765,-18.001738,1.275727,8.322686,0.984895,-0.156825,-0.000386,0.073404
378,-0.484053,-1.396323,12.518880,25.950956,2.424224,-2.346530,-16.312159,1.345640,8.256642,0.987129,-0.142329,0.001381,0.072919
379,-0.568508,-0.998397,14.700284,31.444977,2.744078,-4.161312,-15.358735,1.398430,8.128622,0.988350,-0.134140,0.002593,0.071862
380,-0.712038,-0.607541,15.308439,42.388359,4.160092,-0.238222,-14.130810,1.490961,8.028437,0.989776,-0.123594,0.004270,0.071063
381,-0.342983,-1.263672,15.877362,24.418871,-2.809433,-4.323051,-13.019613,1.495384,7.949106,0.990976,-0.113990,0.005076,0.070337
382,0.041721,-2.344446,15.494748,3.782070,-11.824609,-3.369953,-12.551267,1.228871,7.878650,0.991522,-0.109779,0.003125,0.069454
383,-0.007578,-1.682962,14.951015,33.918266,-10.648495,-3.117922,-11.923302,0.839909,7.853055,0.992178,-0.104115,0.000161,0.068865
384,0.362275,-2.145209,14.721896,9.679348,-12.677770,-6.443523,-11.197598,0.427181,7.773936,0.992909,-0.097588,-0.002912,0.067827
385,0.135484,-2.965667,15.102651,-26.616774,-3.865329,-6.502616,-11.480694,0.114143,7.617459,0.992781,-0.099865,-0.005655,0.066192
386,-0.037175,-3.887296,15.716832,-49.991028,5.759069,-5.393443,-12.757937,0.103016,7.418008,0.991720,-0.110929,-0.006296,0.064388
387,-0.233457,-4.708931,16.213947,-55.208565,10.151627,-3.112113,-14.511816,0.327032,7.218701,0.989998,-0.126228,-0.005126,0.062809
388,-0.255912,-5.431269,15.893603,-43.285542,12.053288,-3.865998,-16.154835,0.652890,7.009265,0.988163,-0.140591,-0.002959,0.061321
389,-0.470936,-5.256564,14.751390,-13.347357,14.996983,-2.806784,-17.102022,1.053319,6.774182,0.987034,-0.148961,0.000289,0.059787
390,-0.928144,-5.455819,13.330910,-1.966501,21.295616,4.859810,-17.360712,1.641665,6.628729,0.986666,-0.151473,0.005413,0.059305
391,-0.610043,-4.850554,11.411088,17.577940,12.546579,6.251928,-17.100494,2.235244,6.639182,0.986871,-0.149516,0.010648,0.060146
392,-0.528516,-3.609791,10.426614,41.026905,6.875777,8.018106,-16.118193,2.613451,6.775673,0.987948,-0.141247,0.014257,0.061687
393,-0.547093,-3.601175,10.613999,23.427752,5.684834,14.056449,-15.029762,2.913828,7.075178,0.988997,-0.132048,0.017092,0.064472
394,-0.501171,-3.490507,10.484914,21.130369,1.672409,16.582052,-14.262759,3.162421,7.538422,0.989516,-0.125629,0.019163,0.068623
395,-0.636086,-2.505825,10.044554,55.996807,2.738257,19.887360,-12.944816,3.377073,8.112911,0.990472,-0.114465,0.021234,0.073571
396,-0.297948,-1.419794,10.046349,86.920692,-10.892962,17.979155,-10.525431,3.371165,8.759690,0.992241,-0.093652,0.022204,0.078704
397,-0.188339,-0.958610,9.246524,90.077538,-11.934855,17.266573,-7.541709,3.086451,9.402405,0.993972,-0.067724,0.021394,0.083518
398,-0.315079,0.751746,7.571037,133.536621,-3.779178,14.450287,-3.789301,2.877955,9.954580,0.995298,-0.035104,0.022136,0.087513
399,-0.736049,1.638017,7.001719,122.946716,16.608810,13.990814,0.503995,3.102493,10.419185,0.995505,0.001920,0.027358,0.090647
400,-0.229665,1.688531,7.033805,65.387245,-1.893879,10.160717,3.661963,3.333031,10.823874,0.994701,0.029054,0.031950,0.093303
401,-0.403706,1.789188,6.974017,27.706339,4.274041,7.101473,5.229239,3.350914,11.117371,0.993965,0.042555,0.033487,0.095396
402,-0.778003,1.908079,6.636049,10.721058,18.803364,3.147060,5.882501,3.717664,11.324227,0.993451,0.047839,0.037296,0.096824
403,-0.153223,1.454004,6.700622,-22.210695,-9.610855,6.198998,5.702497,3.854503,11.493883,0.993347,0.046102,0.038398,0.098290
404,0.050232,0.889208,5.713655,-35.811066,-21.774715,6.962271,4.745796,3.314033,11.664293,0.993677,0.038236,0.032947,0.100294
405,-0.183350,-0.023870,5.186155,-63.497723,-8.993031,-0.182876,3.094856,2.795000,11.741723,0.994164,0.024361,0.027013,0.101564
406,-0.102297,-0.718892,4.066285,-82.466667,-9.691627,-2.476815,0.660387,2.486339,11.689783,0.994563,0.003522,0.022169,0.101686
407,0.202897,-0.987695,2.903456,-96.818962,-33.748859,-5.918041,-2.330780,1.761228,11.560723,0.994561,-0.021780,0.013240,0.100994
408,-0.301039,-1.509437,2.053218,-145.652115,20.428219,-7.517536,-6.374080,1.523575,11.349933,0.993399,-0.056631,0.007713,0.099459
409,-0.062047,-1.364321,2.148918,-103.714775,-5.874432,-7.253382,-10.532141,1.728864,11.087693,0.990875,-0.092793,0.006087,0.097567
410,0.047081,-1.066020,2.084769,-55.669559,-20.208849,-11.531757,-13.190835,1.238978,10.863598,0.988746,-0.115352,-0.000180,0.095265
411,-0.224541,-1.606078,2.848942,-56.182404,7.240729,-4.318514,-15.058021,0.965864,10.655605,0.986958,-0.131233,-0.003846,0.093150
412,-0.174383,-1.007600,4.880247,36.094280,-4.173770,-7.363848,-15.396393,0.964022,10.458176,0.986726,-0.134153,-0.003906,0.091436
413,-0.685860,-0.438531,7.258599,66.449783,13.396141,-2.279417,-13.690722,1.073766,10.263711,0.988748,-0.119539,-0.001395,0.089919
414,0.076152,-0.702123,9.676340,44.304806,-15.589594,-18.150116,-11.851420,0.963408,9.937766,0.990808,-0.103572,-0.000611,0.087014
415,-0.760754,-0.510809,11.980259,35.407982,7.893688,-10.660163,-10.529076,0.742631,9.496079,0.992294,-0.091972,-0.001164,0.083016
416,-0.231434,0.155995,14.086135,33.423325,-4.543316,-13.808290,-9.388099,0.727103,9.082557,0.993456,-0.082077,-0.000175,0.079428
417,-0.530256,-0.645755,14.882357,5.083914,5.323693,-10.562716,-8.750922,0.675786,8.680478,0.994175,-0.076517,0.000090,0.075906
418,0.193637,-1.307540,15.217209,-13.209474,-9.976707,-11.129234,-8.890319,0.542962,8.334725,0.994318,-0.077642,-0.000921,0.072817
419,-0.473899,-1.242433,15.319302,-11.898505,6.163465,-3.233358,-9.310327,0.441872,8.108441,0.994178,-0.081227,-0.001904,0.070779
420,0.056408,-1.645920,14.676742,-18.488771,-3.747060,-3.363085,-9.817922,0.463184,7.993849,0.993876,-0.085645,-0.001947,0.069792
421,0.020876,-2.628411,14.217827,-35.122036,-2.138935,-5.009097,-10.712169,0.341680,7.873662,0.993261,-0.093328,-0.003447,0.068634
422,-0.147138,-3.222927,14.069876,-40.230896,0.192244,-1.870073,-11.968539,0.287312,7.767870,0.992246,-0.104185,-0.004574,0.067627
423,-0.031086,-2.983301,14.237474,-24.704214,-1.510689,-6.171983,-13.051236,0.236562,7.642083,0.991295,-0.113531,-0.005527,0.066443
424,-0.303161,-3.515674,14.394650,-28.026638,3.289009,-5.188621,-13.930774,0.221653,7.450798,0.990505,-0.121138,-0.005963,0.064729
425,0.062054,-3.988263,14.975489,-28.943766,-2.485039,-7.277473,-14.881000,0.182911,7.246559,0.989583,-0.129338,-0.006604,0.062870
426,-0.258335,-3.868025,14.937341,-16.728607,4.803649,-7.841797,-15.642806,0.153887,6.992884,0.988841,-0.135913,-0.006971,0.060602
427,-0.323432,-3.682317,14.571690,4.556759,8.425473,-6.163030,-15.846930,0.303121,6.708760,0.988732,-0.137767,-0.005450,0.058317
428,-0.379725,-4.035697,13.165832,8.248029,10.528670,-2.217224,-15.635276,0.569713,6.488909,0.989068,-0.136080,-0.002781,0.056745
429,-0.184745,-3.931653,12.032548,6.236916,6.401823,-1.373879,-15.395599,0.825700,6.355775,0.989385,-0.134135,-0.000296,0.055899
430,-0.216592,-3.405100,10.757634,12.660421,4.480685,-0.224793,-15.081811,0.993707,6.282414,0.989762,-0.131503,0.001393,0.055457
431,-0.422488,-3.047865,9.985225,9.367720,8.268204,8.286851,-14.713225,1.233658,6.357767,0.990109,-0.128432,0.003560,0.056370
432,0.050495,-3.168020,10.288233,-8.158651,-4.725785,7.190634,-14.687873,1.356437,6.592142,0.990000,-0.128280,0.004371,0.058530
433,-0.360983,-3.329953,10.882693,-5.368024,5.192499,13.429305,-14.905463,1.452027,6.922382,0.989565,-0.130220,0.004711,0.061498
434,-0.175432,-2.584430,10.449549,34.700886,-0.703908,12.621671,-14.405533,1.634125,7.323850,0.989868,-0.126016,0.006111,0.065143
435,-0.072089,-2.013715,10.514682,55.383881,-3.336590,14.812992,-12.891124,1.675415,7.784927,0.991169,-0.112974,0.006875,0.069085
436,-0.013116,-1.057242,9.766286,85.699829,-3.947193,13.275939,-10.526460,1.651151,8.268252,0.992994,-0.092518,0.007698,0.073098
437,-0.314269,-0.067521,8.422865,104.190659,6.523507,11.078011,-7.351888,1.755271,8.662455,0.994902,-0.065077,0.010400,0.076337
438,-0.118183,1.028762,7.552514,105.664467,0.072675,5.953654,-3.848655,1.890940,8.931806,0.996223,-0.034757,0.013827,0.078364
439,-0.501441,1.386203,7.015119,71.772331,15.569880,8.062049,-0.886412,2.159630,9.156029,0.996591,-0.009213,0.018167,0.079945
440,-0.601623,1.859171,6.835662,49.369278,18.729551,7.411570,1.142565,2.731390,9.411291,0.996316,0.007979,0.024570,0.081773
441,-0.278466,1.306771,7.418694,-10.077663,0.797005,6.110767,1.808989,3.051206,9.643831,0.996019,0.013487,0.027853,0.083600
442,0.170906,0.935600,7.299740,-34.399899,-19.720705,8.367737,1.079195,2.730758,9.876873,0.995980,0.007329,0.024549,0.085833
443,0.147474,0.961746,6.953171,-26.053034,-18.287943,8.547685,0.083007,2.094829,10.152020,0.995913,-0.000896,0.018272,0.088449
444,0.178141,0.115903,6.380421,-43.993797,-17.695356,4.218743,-1.077453,1.496871,10.369782,0.995768,-0.010544,0.012159,0.090481
445,0.406420,-1.162505,5.871553,-78.758835,-27.545282,-1.116852,-3.121511,0.746144,10.449866,0.995438,-0.027716,0.004002,0.091207
446,0.007829,-1.225034,3.963783,-77.325249,-6.563003,-0.366401,-5.721805,0.178788,10.469395,0.994580,-0.049845,-0.003002,0.091199
447,-0.307598,-1.398191,3.236052,-81.007233,19.387846,0.227793,-8.359308,0.390902,10.444797,0.993172,-0.072891,-0.003246,0.091027
448,0.132891,-2.159485,2.750916,-122.112106,-16.632223,-9.198972,-11.743407,0.410720,10.294529,0.990703,-0.102208,-0.005627,0.089610
450,0.435638,-1.858243,3.151557,-63.875340,-41.419018,-13.513268,-14.839240,-0.616996,10.139544,0.987795,-0.128156,-0.016730,0.086935
451,-0.138420,-1.840346,3.473445,-30.261650,4.319959,0.035962,-16.405754,-1.272609,10.079762,0.986021,-0.141153,-0.023483,0.085367
452,0.133024,-1.671284,5.723537,30.181787,-10.178712,-5.753878,-16.405777,-1.393150,10.019747,0.986066,-0.141072,-0.024446,0.084700
453,-0.013753,-1.451755,7.725161,50.265049,-3.988724,-3.789884,-15.062617,-1.663270,9.930121,0.987714,-0.129317,-0.025678,0.083897
454,-0.607150,-0.709214,10.171152,65.270790,11.631658,4.978779,-13.137110,-1.534738,9.917288,0.989761,-0.112804,-0.023142,0.084335
455,-0.384346,-1.091808,12.487684,35.201115,4.354273,2.478462,-11.464698,-1.247300,9.979703,0.991264,-0.098555,-0.019476,0.085456
456,-0.227590,-0.388767,14.027705,34.530922,-1.070444,2.422177,-10.304194,-1.178112,10.049887,0.992160,-0.088553,-0.018065,0.086311
457,0.437845,-0.487165,14.962092,16.900862,-9.744489,-1.752536,-9.448056,-1.353685,10.092251,0.992757,-0.080996,-0.018970,0.086684
458,0.262351,-0.571314,15.550048,9.448520,-2.734577,-1.218686,-9.008607,-1.567028,10.077525,0.993060,-0.077026,-0.020477,0.086480
459,1.080245,-1.401701,14.986485,-6.903946,-13.564203,-4.500301,-8.964670,-1.850254,10.025680,0.993109,-0.076436,-0.022863,0.085843
460,0.686033,-1.267306,14.369517,-0.417357,-2.398402,-4.934975,-9.082739,-2.137733,9.912402,0.993088,-0.077263,-0.025365,0.084636
461,0.749594,-1.954997,13.856042,-16.251026,0.831921,-8.242499,-9.352631,-2.198611,9.699607,0.993052,-0.079603,-0.025944,0.082689
462,0.316187,-2.473410,12.820176,-22.083529,7.989105,-4.849884,-9.982608,-2.090495,9.459771,0.992781,-0.085195,-0.025284,0.080550
463,0.468370,-3.290681,12.408990,-38.914951,3.835408,-2.791225,-10.993717,-1.920104,9.298901,0.992117,-0.094111,-0.024387,0.079075
464,0.082180,-3.139440,13.371554,-28.348618,10.548295,-2.379231,-12.110445,-1.702923,9.165939,0.991257,-0.103957,-0.023158,0.077886
465,-0.213517,-3.594021,14.193414,-30.202299,15.894130,0.117308,-13.082811,-1.280900,9.033715,0.990443,-0.112686,-0.020041,0.076965
466,-0.197787,-4.574995,14.674863,-40.308159,15.104768,-0.214986,-14.255744,-0.779432,8.910390,0.989316,-0.123182,-0.016367,0.076236
467,-0.676795,-4.872773,14.692052,-23.091030,22.081663,3.358189,-15.311347,-0.166983,8.802469,0.988178,-0.132716,-0.011663,0.075863
468,-0.501350,-4.450977,13.938581,1.545750,16.503302,1.832209,-15.670763,0.475802,8.715438,0.987748,-0.136245,-0.006257,0.075838
469,-0.338851,-4.611831,12.132681,-2.215402,9.890439,0.305121,-15.682894,0.909107,8.631866,0.987728,-0.136633,-0.002430,0.075629
470,0.002821,-4.598472,10.504234,-8.329346,-1.010420,-3.299553,-15.860110,1.037945,8.543476,0.987552,-0.138243,-0.001330,0.075018
471,0.035280,-3.483700,9.325036,7.662903,-5.008145,-6.475091,-15.873325,0.896885,8.413976,0.987643,-0.138271,-0.002398,0.073733
472,0.156331,-3.252896,8.974947,-9.458845,-6.982481,-9.428557,-15.905905,0.632260,8.213570,0.987769,-0.138394,-0.004458,0.071687
473,0.125869,-3.413761,9.410868,-23.894878,-3.451120,-6.377986,-16.463623,0.391590,8.009359,0.987240,-0.143064,-0.006625,0.069606
474,-0.219824,-3.781088,10.282106,-13.348757,9.032783,-1.143559,-17.085423,0.444191,7.862918,0.986531,-0.148459,-0.006360,0.068376
475,-0.454280,-3.756550,10.930316,18.942482,15.375768,2.098155,-16.993500,0.837849,7.759567,0.986658,-0.147900,-0.002782,0.067997
476,-0.455374,-3.344232,11.352901,57.280170,12.356629,9.335600,-15.722260,1.335216,7.813128,0.988125,-0.137232,0.002198,0.069075
477,-0.357972,-2.439481,11.539095,96.520615,6.376989,13.565248,-13.152098,1.733101,8.106389,0.990700,-0.115284,0.006893,0.071937
478,0.012998,-1.098764,10.509151,130.683350,-5.336773,10.370827,-9.356534,1.827916,8.496097,0.993707,-0.082504,0.009813,0.075116
479,-0.080389,-0.115060,9.050578,129.863235,-2.517956,11.827751,-5.008399,1.742956,8.882572,0.995878,-0.044733,0.011766,0.078017
480,-0.606897,1.418566,7.816519,134.895798,16.081278,13.000110,-0.589516,1.988986,9.283384,0.996550,-0.006531,0.016883,0.081000
481,-0.146964,1.866876,6.659042,105.274406,-1.903762,10.810407,3.422028,2.215276,9.679640,0.995853,0.028116,0.021772,0.083742
482,-0.202147,2.403759,6.053555,81.539322,0.905667,9.782139,6.544788,2.168858,10.024666,0.994468,0.055204,0.023809,0.086136
483,-0.650904,2.390800,6.566374,26.595707,18.735233,2.523616,8.355788,2.467095,10.269947,0.993250,0.070623,0.027903,0.087682
484,-0.157666,2.483943,6.825751,-2.451681,-6.230245,6.913979,8.766712,2.650135,10.453052,0.992825,0.073991,0.029922,0.089043
485,0.704714,2.080909,7.051651,-30.740679,-40.650318,17.127190,8.224133,1.818607,10.734471,0.993034,0.069904,0.022466,0.092153
486,0.147512,1.892600,7.516036,-38.054848,-13.413062,11.040902,7.085342,0.863593,11.080033,0.993444,0.060775,0.013452,0.095890
487,0.569828,0.562139,6.345516,-62.361141,-28.492748,6.388437,5.414462,0.138308,11.295524,0.994040,0.046885,0.005848,0.098246
488,0.350940,-0.236823,5.160677,-67.898010,-20.683111,5.405592,3.243003,-0.692282,11.429091,0.994597,0.028757,-0.003191,0.099701
489,0.177753,-0.215803,4.113212,-40.882828,-9.081961,2.259079,1.429016,-1.192754,11.538027,0.994791,0.013453,-0.009102,0.100634
490,0.083110,-0.973066,3.061757,-84.465668,-4.515455,1.333925,-0.660944,-1.419524,11.596939,0.994798,-0.004486,-0.012906,0.100949
491,0.052232,-1.965310,2.187458,-161.392609,-4.965464,3.533296,-4.758021,-1.572979,11.686781,0.993911,-0.039894,-0.017869,0.101146
492,-0.417974,-1.617259,2.336455,-101.845680,39.445210,9.016356,-9.140856,-0.978201,11.825402,0.991551,-0.078381,-0.016672,0.102005
493,-0.288200,-1.614224,2.755139,-64.348923,21.425726,5.358336,-11.907399,0.061995,11.892393,0.989249,-0.103222,-0.010210,0.103092
494,-0.451588,-1.684632,4.950784,-0.504368,13.701368,0.804404,-12.987780,0.655572,11.865631,0.988179,-0.113077,-0.006036,0.103341
495,-0.666976,-1.344003,6.543461,33.649490,15.910995,-3.796872,-12.437653,1.126359,11.710444,0.988773,-0.108752,-0.001330,0.102469
496,-1.359898,-0.524637,8.709469,54.990311,29.392574,0.870413,-10.965502,1.855894,11.510633,0.990122,-0.096669,0.006460,0.101348
497,-0.715454,-0.033987,11.382035,44.284325,-3.007333,-1.299427,-9.314720,2.287876,11.425776,0.991389,-0.082758,0.011718,0.100808
498,-0.464064,0.268998,13.209694,29.478634,-13.250366,4.448205,-8.081861,2.028289,11.522242,0.992195,-0.071874,0.010493,0.101357
499,-0.328650,-0.019584,14.040796,5.165329,-14.979458,10.330850,-7.494684,1.596267,11.831293,0.992358,-0.066435,0.007091,0.103739
500,0.380576,-0.003536,15.113445,-4.835668,-25.144892,12.217246,-7.478657,0.983008,12.291926,0.992039,-0.065756,0.001529,0.107386
501,1.315521,-0.484527,15.022355,-11.193218,-38.439762,7.118852,-7.742136,-0.024319,12.752131,0.991549,-0.067070,-0.007708,0.110786
502,1.351138,-0.969830,14.451265,-17.533007,-27.955984,1.090199,-8.224416,-1.100777,13.041478,0.991006,-0.070155,-0.017662,0.112581
503,1.189356,-1.579899,14.156931,-23.920963,-16.667645,-3.617003,-8.917436,-1.841987,13.111506,0.990469,-0.075393,-0.024795,0.112568
504,1.109674,-1.815159,13.085491,-18.441929,-8.734362,-11.034374,-9.617508,-2.298751,12.939448,0.990124,-0.081027,-0.029305,0.110588
505,0.580992,-2.410460,12.167855,-28.808893,5.951440,-10.856530,-10.390924,-2.407284,12.588081,0.989879,-0.087695,-0.030719,0.107266
506,0.496839,-2.669214,11.685766,-31.370785,10.285015,-9.444940,-11.378832,-2.205569,12.205349,0.989454,-0.096520,-0.029580,0.103870
507,-0.227589,-2.932647,11.304137,-32.693047,25.852837,-4.300168,-12.434834,-1.663658,11.857068,0.988859,-0.106220,-0.025540,0.101106
508,-0.122422,-3.009301,10.798306,-31.609720,20.312941,-1.542194,-13.500854,-0.935966,11.590708,0.988056,-0.116121,-0.019938,0.099317
509,-0.107522,-3.136603,10.556906,-30.732759,15.060092,1.323842,-14.538213,-0.365228,11.444064,0.987055,-0.125583,-0.015761,0.098499
510,-0.254326,-3.203453,10.433414,-25.234390,13.508648,4.583799,-15.470963,0.119814,11.415611,0.985973,-0.134035,-0.012356,0.098690
511,-0.247432,-3.065821,10.119911,-16.631208,8.408740,6.657131,-16.168343,0.522078,11.496433,0.985010,-0.140371,-0.009597,0.099798
512,-0.154621,-3.135984,9.898348,-14.047501,1.803894,7.848978,-16.677711,0.753466,11.680252,0.984174,-0.144933,-0.008285,0.101624
513,-0.287327,-3.041536,9.667127,-7.643676,2.771942,8.498121,-17.035904,0.905307,11.918725,0.983473,-0.148125,-0.007607,0.103838
514,-0.237882,-2.960817,9.573361,-4.225021,-0.480768,8.655040,-17.229277,1.025895,12.180807,0.982956,-0.149876,-0.007090,0.106230
515,-0.166344,-2.734861,9.518701,2.940799,-3.133552,7.865037,-17.245663,1.049871,12.461659,0.982666,-0.150021,-0.007267,0.108668
516,-0.127141,-2.545543,9.404735,10.970326,-4.684844,5.323171,-17.009449,0.989930,12.710135,0.982748,-0.147922,-0.007878,0.110738
517,-0.014202,-2.500524,9.409451,6.511426,-5.983688,3.316671,-16.715076,0.861358,12.899541,0.982968,-0.145261,-0.008937,0.112222
518,0.190825,-2.455789,9.455362,5.630764,-10.511363,0.696942,-16.510904,0.617072,13.042335,0.983133,-0.143261,-0.011012,0.113160
519,0.172234,-2.432667,9.535226,6.130331,-7.423958,-1.926438,-16.314426,0.324534,13.107230,0.983364,-0.141282,-0.013409,0.113377
520,0.138288,-2.370070,9.593269,6.556283,-3.748963,-3.195742,-16.103167,0.121842,13.077191,0.983684,-0.139273,-0.014904,0.112898
521,0.099189,-2.510251,9.744238,0.870155,-0.421437,-3.474319,-15.979543,0.024290,12.989503,0.983934,-0.138128,-0.015514,0.112043
522,-0.024181,-2.447559,9.827651,3.185471,3.565947,-3.960994,-15.912055,0.040591,12.855966,0.984143,-0.137582,-0.015147,0.110925
523,-0.121171,-2.263471,9.822449,9.075176,6.187483,-3.915795,-15.708043,0.161246,12.685349,0.984534,-0.135967,-0.013711,0.109629
524,-0.093673,-2.183857,9.713467,10.287376,4.789720,-3.073114,-15.386024,0.306346,12.524106,0.985044,-0.133355,-0.011968,0.108450
525,-0.132228,-2.227150,9.668523,7.969153,5.147043,-3.368637,-15.082705,0.437968,12.377037,0.985512,-0.130884,-0.010381,0.107366
526,-0.209140,-1.964514,9.639884,15.613397,6.161443,-2.757387,-14.690989,0.593851,12.229909,0.986066,-0.127671,-0.008509,0.106307
527,-0.184329,-1.814816,9.643118,24.510475,4.817508,-0.992081,-14.023539,0.755708,12.124048,0.986865,-0.122079,-0.006382,0.105613
528,-0.063349,-1.881536,9.691259,17.353464,-0.717031,-1.501252,-13.326625,0.812450,12.067659,0.987631,-0.116129,-0.005194,0.105221
529,-0.045103,-1.848828,9.844311,15.786287,-1.931161,-0.748219,-12.774658,0.760998,12.041354,0.988212,-0.111325,-0.005105,0.104969
530,-0.046750,-1.766925,9.793840,16.586689,-1.840419,0.947654,-12.234901,0.700388,12.058258,0.988719,-0.106614,-0.005149,0.105082
531,0.062203,-1.876686,9.743052,8.717835,-5.255916,0.601903,-11.812600,0.590156,12.108135,0.989075,-0.102867,-0.005758,0.105433
532,0.127918,-2.179631,9.610832,-5.169477,-6.382416,-1.085933,-11.753198,0.398665,12.140018,0.989124,-0.102178,-0.007385,0.105541
533,0.007845,-2.263372,9.461716,-8.711082,0.299352,-1.610788,-11.984699,0.290231,12.117085,0.988950,-0.104078,-0.008514,0.105230
534,-0.113554,-2.561260,9.349346,-21.301378,5.840575,-2.500180,-12.485441,0.375744,12.028574,0.988556,-0.108483,-0.008152,0.104509
535,0.016120,-2.817701,9.370493,-22.837967,1.048995,-6.383467,-13.222326,0.454746,11.858794,0.987981,-0.114921,-0.007972,0.103070
536,-0.033010,-2.967925,9.375254,-25.071941,1.767474,-9.003683,-14.022735,0.440089,11.598199,0.987388,-0.121826,-0.008541,0.100751
537,-0.179762,-2.996185,9.379887,-22.921406,5.842321,-8.209055,-14.825101,0.491574,11.288787,0.986771,-0.128804,-0.008456,0.098082
538,-0.227855,-3.161558,9.564974,-23.164888,6.465757,-7.614573,-15.596243,0.620386,10.980733,0.986122,-0.135572,-0.007643,0.095523
539,-0.146301,-3.051368,9.673203,-14.337186,4.020428,-8.171058,-16.224775,0.716304,10.679843,0.985595,-0.141076,-0.006971,0.093010
540,-0.314717,-2.957647,9.689329,-6.464806,8.758565,-5.044832,-16.575144,0.858616,10.408336,0.985352,-0.144216,-0.005690,0.090831
541,-0.335934,-2.949145,9.749055,-1.712094,9.239040,-2.177082,-16.715000,1.111640,10.207282,0.985286,-0.145620,-0.003370,0.089413
542,-0.243708,-2.738203,9.687454,6.112947,5.919483,-2.314383,-16.644796,1.332208,10.063130,0.985442,-0.145184,-0.001235,0.088451
543,-0.327504,-2.607857,9.548017,11.882730,7.762549,-0.165984,-16.347460,1.539202,9.958852,0.985851,-0.142780,0.000906,0.087811
544,-0.324465,-2.456869,9.410227,15.068011,5.494386,1.014440,-15.899702,1.755460,9.911093,0.986389,-0.139084,0.003169,0.087653
545,-0.197752,-2.446599,9.536016,13.955505,-1.262967,-1.646771,-15.416915,1.820587,9.882008,0.986973,-0.134973,0.004134,0.087464
546,-0.261281,-2.519305,9.429594,9.652829,0.548274,-2.752874,-15.025556,1.789812,9.814598,0.987486,-0.131577,0.004244,0.086834
547,-0.288177,-2.570130,9.475377,6.331594,1.160291,-2.934259,-14.762259,1.792903,9.715599,0.987860,-0.129306,0.004582,0.085974
548,-0.133667,-2.557714,9.497552,6.402990,-5.371414,-5.084003,-14.553413,1.691156,9.604009,0.988200,-0.127428,0.003985,0.084892
549,-0.275475,-2.643290,9.412755,1.648227,-0.080143,-4.089596,-14.422732,1.564930,9.478763,0.988464,-0.126209,0.003131,0.083671
550,-0.308458,-2.718767,9.157108,-2.405538,1.220058,-2.873652,-14.438598,1.554361,9.361586,0.988534,-0.126335,0.003157,0.082649
551,-0.145799,-2.690939,9.163971,-5.534220,-3.171122,-4.136065,-14.573730,1.493580,9.256592,0.988472,-0.127456,0.002652,0.081680
553,-0.265415,-2.602591,9.244500,-5.070132,0.972936,-1.935645,-14.752701,1.432499,9.167910,0.988347,-0.128956,0.002098,0.080852
554,-0.270099,-2.586651,9.493577,-4.316207,1.572022,0.316322,-14.910097,1.466582,9.131007,0.988188,-0.130336,0.002323,0.080575
555,-0.102807,-2.695783,9.794870,-6.798004,-2.839798,0.239647,-15.094973,1.448550,9.145447,0.987970,-0.131918,0.002020,0.080682
556,-0.256257,-2.708041,9.978652,-8.287054,1.565635,2.218331,-15.345258,1.438802,9.190511,0.987649,-0.134070,0.001707,0.081064
557,-0.369849,-2.653979,10.099980,-8.407205,3.766942,6.227781,-15.620543,1.562022,9.302571,0.987219,-0.136528,0.002441,0.082178
558,-0.120271,-3.257084,9.810684,-28.614656,-2.873224,1.667498,-16.234175,1.612390,9.425129,0.986374,-0.141850,0.002283,0.083306
559,-0.207388,-3.685538,9.317730,-44.002640,0.118324,-1.576416,-17.444050,1.569176,9.439466,0.984821,-0.152226,0.001013,0.083392
560,-0.479903,-3.985296,8.896788,-52.766697,8.204920,-1.079221,-19.059044,1.687405,9.354174,0.982611,-0.166171,0.000975,0.082836
561,-0.402760,-4.258755,8.535872,-57.689114,5.175960,-2.966999,-20.903872,1.874108,9.215395,0.979860,-0.182092,0.001459,0.081947
562,-0.234055,-4.727027,8.142005,-68.273209,-1.297098,-8.520822,-23.009148,1.862511,9.013075,0.976496,-0.200055,0.000208,0.080216
563,-0.567523,-4.686204,8.184663,-59.091274,6.032794,-3.344757,-25.137888,1.854133,8.799070,0.972761,-0.218156,-0.000946,0.078373
564,-0.605824,-4.854959,8.324626,-51.521950,4.632412,-0.328106,-26.985365,1.986779,8.667320,0.969168,-0.233893,-0.000818,0.077501
565,-0.391780,-4.986331,8.494627,-43.647282,-4.232322,-2.041686,-28.572458,1.973906,8.629352,0.965865,-0.247286,-0.001918,0.077135
566,-0.356063,-5.167515,8.719953,-35.983326,-6.859693,-0.826806,-29.897802,1.788969,8.676947,0.962966,-0.258328,-0.004472,0.077095
567,-0.411627,-5.200837,8.868807,-23.782621,-5.743684,2.462652,-30.889894,1.621336,8.806521,0.960656,-0.266547,-0.006847,0.077753
568,-0.141237,-5.218404,8.744696,-16.959711,-11.577592,-1.092742,-31.564392,1.386044,8.975802,0.959024,-0.272038,-0.009677,0.078573
569,-0.024452,-5.217998,8.665595,-12.504848,-12.772888,-2.937252,-32.052265,1.005680,9.132210,0.957856,-0.275860,-0.013569,0.078928
570,0.075871,-5.243846,8.402249,-12.408312,-12.329244,-4.321203,-32.465843,0.587313,9.253027,0.956877,-0.279025,-0.017643,0.078872
571,0.067472,-5.307817,8.228240,-14.557673,-8.201287,-4.511289,-32.914879,0.219884,9.313928,0.955818,-0.282517,-0.021167,0.078405
572,0.012332,-5.145119,8.465455,-6.929488,-1.699534,-4.924497,-33.273125,-0.004133,9.272445,0.955006,-0.285360,-0.023176,0.077435
573,-0.001573,-4.807621,8.655050,6.311799,2.349312,-5.994185,-33.283352,-0.094806,9.114377,0.955104,-0.285417,-0.023545,0.075890
574,-0.161349,-4.325705,8.706700,21.615664,7.769201,-2.984347,-32.817711,-0.034909,8.896894,0.956387,-0.281616,-0.022202,0.074317
575,-0.362524,-4.034812,8.782867,30.346102,13.254283,1.474129,-31.952196,0.247720,8.687838,0.958568,-0.274602,-0.018775,0.073411
576,-0.153915,-3.756624,8.902168,38.295658,6.841286,-2.072355,-30.809629,0.528620,8.504680,0.961318,-0.265233,-0.015261,0.072707
577,-0.158039,-3.728949,8.724167,38.287170,4.734345,-0.569708,-29.534725,0.673372,8.370433,0.964264,-0.254626,-0.012935,0.072063
578,-0.145600,-3.757426,8.695057,37.899830,2.510535,1.632036,-28.265673,0.787833,8.327687,0.967028,-0.244005,-0.011079,0.072084
579,0.178120,-3.797661,8.697168,39.674454,-6.333574,-3.364212,-26.972912,0.718272,8.331732,0.969731,-0.233038,-0.010862,0.072097
580,0.356031,-3.718452,8.923502,48.429020,-9.546089,-7.579655,-25.505186,0.400242,8.286091,0.972722,-0.220410,-0.012550,0.071233
581,0.181112,-3.625529,8.993739,57.934063,-2.503657,-7.001347,-23.733503,0.116272,8.149157,0.976140,-0.205187,-0.013621,0.069744
582,0.090795,-3.011657,8.883421,76.364594,1.972534,-8.102810,-21.496265,0.011163,7.919204,0.980110,-0.186053,-0.012782,0.067860
583,-0.330853,-2.846701,9.096508,73.158340,13.470960,-1.564577,-19.005924,0.196696,7.678336,0.984043,-0.164841,-0.009365,0.066320
584,-0.558484,-3.182765,9.109550,44.723568,16.687414,2.803796,-17.043491,0.681256,7.540128,0.986744,-0.148248,-0.003877,0.065905
585,0.088307,-3.120732,9.579893,31.148787,-4.585557,-4.791518,-15.780652,0.865529,7.449753,0.988345,-0.137469,-0.001452,0.065383
586,-0.639871,-2.609237,10.366830,32.586876,11.913255,3.460260,-14.719174,0.977281,7.398113,0.989589,-0.128370,0.000176,0.065072
587,-1.143557,-3.077036,10.758729,6.542456,21.499681,12.873487,-14.064405,1.584595,7.522024,0.990134,-0.123052,0.005664,0.066785
588,-0.426609,-2.849030,10.308958,3.746401,0.716398,8.431212,-13.885135,2.030198,7.775593,0.990083,-0.121770,0.009351,0.069432
589,-0.136528,-1.772016,10.199522,34.214691,-7.135683,6.569701,-13.243472,1.984892,8.044060,0.990594,-0.116219,0.009076,0.071654
590,-0.851595,-1.523489,10.095713,40.957020,13.056771,16.768822,-11.977883,2.165506,8.402564,0.991548,-0.105414,0.011100,0.074814
591,-0.021521,-1.387648,9.519272,38.779366,-9.553917,11.596977,-10.631034,2.315759,8.853071,0.992382,-0.093898,0.012912,0.078700
592,0.731687,-0.821551,9.510408,51.808102,-31.297338,1.925561,-9.110339,1.683700,9.194175,0.993434,-0.080329,0.008234,0.081050
593,0.347272,-0.690175,10.033820,49.630379,-16.203581,0.293421,-7.417531,0.904775,9.346457,0.994516,-0.065110,0.002583,0.081809
594,0.326070,-0.771660,10.208474,39.712948,-12.216137,-3.684078,-5.928942,0.427484,9.343662,0.995321,-0.051848,-0.000499,0.081531
595,0.415100,-0.587401,9.880689,35.733780,-13.446043,-9.800672,-4.672518,-0.019535,9.159372,0.995979,-0.040620,-0.003425,0.079772
596,0.463068,-0.762828,9.910769,22.763113,-14.742923,-14.517414,-3.696136,-0.518206,8.789759,0.996542,-0.031808,-0.006978,0.076444
597,0.311685,-0.926147,9.903100,13.816504,-9.751861,-17.959114,-3.080009,-0.958371,8.274137,0.997015,-0.026201,-0.010277,0.071890
598,0.293733,-0.836589,9.674335,12.108824,-7.343862,-21.470577,-2.635721,-1.276195,7.631985,0.997474,-0.022206,-0.012640,0.066275
599,0.073643,-1.016962,9.966836,0.120263,0.674632,-23.253359,-2.414692,-1.420267,6.892010,0.997909,-0.020286,-0.013635,0.059829
600,-0.124565,-0.850543,10.076486,4.290132,6.860029,-24.157221,-2.322574,-1.328132,6.097136,0.998325,-0.019621,-0.012649,0.052933
601,-0.339323,-0.724962,9.980232,9.504323,14.503756,-22.022285,-2.077108,-1.001650,5.314258,0.998730,-0.017700,-0.009570,0.046191
602,-0.416210,-0.605900,9.923611,11.023785,15.537486,-18.279402,-1.726317,-0.523226,4.626303,0.999064,-0.014868,-0.005170,0.040287
603,-0.347452,-0.640572,10.004711,10.258668,11.260219,-14.460744,-1.368823,-0.091353,4.068829,0.999299,-0.011909,-0.001221,0.035488
604,-0.368486,-0.513457,9.897871,16.853132,9.574696,-10.374498,-0.917503,0.247623,3.648168,0.999458,-0.008071,0.001905,0.031847
605,-0.297956,-0.598665,9.784148,14.062511,5.493528,-6.293848,-0.404133,0.495864,3.367709,0.999552,-0.003652,0.004222,0.029399
606,-0.160726,-0.406254,9.729072,16.866077,-1.068742,-4.381153,0.109684,0.569246,3.189704,0.999600,0.000819,0.004992,0.027827
607,-0.011057,-0.329876,9.690156,14.546018,-6.534604,-1.870255,0.632355,0.443310,3.084957,0.999615,0.005412,0.004016,0.026896
608,0.045796,-0.194376,9.790526,11.214352,-7.779050,-0.714215,1.061487,0.205492,3.038593,0.999604,0.009212,0.002038,0.026496
609,0.169739,-0.158563,9.712317,4.638294,-10.303822,-0.294280,1.325695,-0.095445,3.015608,0.999586,0.011587,-0.000528,0.026321
610,0.206244,-0.217013,9.877603,-7.669663,-11.245209,0.040294,1.275243,-0.454407,3.003417,0.999586,0.011228,-0.003672,0.026249
611,0.213482,-0.219553,9.928109,-9.070804,-8.872787,0.615229,0.996196,-0.789864,3.008013,0.999592,0.008871,-0.006662,0.026305
612,0.264884,-0.117365,9.972064,-5.520461,-7.601448,-0.102344,0.752955,-1.064541,3.012451,0.999588,0.006812,-0.009114,0.026345
613,0.241319,-0.146793,9.955437,-5.777643,-4.217731,-0.168986,0.564780,-1.261449,3.005615,0.999582,0.005215,-0.010875,0.026278
614,0.176731,-0.219751,9.984441,-8.350221,0.603147,-0.681295,0.329644,-1.321579,2.991020,0.999588,0.003176,-0.011454,0.026130
615,0.189696,-0.117797,9.965880,-4.745676,1.045590,-2.391104,0.112537,-1.293897,2.940001,0.999606,0.001271,-0.011262,0.025663
616,0.028794,-0.350744,9.946393,-13.568264,5.739856,-4.232137,-0.190307,-1.180841,2.829526,0.999641,-0.001406,-0.010342,0.024671
617,0.063455,-0.342405,9.979418,-17.668060,4.009914,-7.223237,-0.707236,-1.019878,2.637336,0.999678,-0.005965,-0.009039,0.022957
618,0.090838,-0.417695,9.735711,-26.444195,2.126219,-10.583129,-1.437290,-0.923131,2.338557,0.999683,-0.012375,-0.008309,0.020303
619,0.141064,-0.384945,9.873557,-34.847759,-0.513917,-13.134826,-2.452354,-0.909707,1.942390,0.999599,-0.021261,-0.008298,0.016775
620,0.051123,-0.549154,9.853510,-37.363945,1.971686,-11.494733,-3.649145,-0.907356,1.530980,0.999376,-0.031730,-0.008339,0.013101
621,0.191977,-0.571633,9.679702,-34.351166,-1.845823,-9.462010,-4.838729,-0.931313,1.182742,0.999026,-0.042126,-0.008555,0.009969
622,0.226463,-0.805667,9.619177,-40.321522,-2.030612,-6.366094,-6.078651,-1.020839,0.925965,0.998525,-0.052946,-0.009324,0.007596
623,0.351263,-1.148081,9.997003,-43.196167,-4.574453,-3.687277,-7.467489,-1.150288,0.772620,0.997809,-0.065048,-0.010455,0.006074
624,0.260868,-1.392778,9.714681,-34.901100,-1.491979,-1.327388,-8.767400,-1.262497,0.703968,0.997000,-0.076362,-0.011454,0.005283
625,0.353567,-1.334461,9.627898,-29.762899,-3.657791,-1.597503,-9.844228,-1.355203,0.669994,0.996231,-0.085725,-0.012284,0.004810
626,0.366391,-1.391866,10.078341,-19.953827,-2.916609,2.787134,-10.673717,-1.459479,0.708824,0.995573,-0.092923,-0.013256,0.004974
627,0.385051,-1.640804,10.297490,8.023384,-1.439451,11.159043,-10.878732,-1.487619,0.950827,0.995389,-0.094674,-0.013709,0.007029
628,0.227582,-1.562634,9.968130,46.051491,3.394721,18.948162,-9.989576,-1.365305,1.438529,0.996066,-0.086903,-0.012961,0.011467
629,0.197215,-1.399637,9.909358,64.630203,3.877911,23.598257,-8.159889,-1.134720,2.119561,0.997259,-0.070950,-0.011191,0.017743
630,0.241294,-1.476854,10.066268,62.392895,1.571236,24.543917,-6.057866,-0.945701,2.904443,0.998259,-0.052613,-0.009578,0.024871
631,0.206928,-1.288435,9.856977,57.244629,0.626564,19.470753,-4.076199,-0.844167,3.631980,0.998847,-0.035312,-0.008485,0.031407
632,0.034848,-0.868576,9.601026,41.214481,3.174389,10.740094,-2.442750,-0.752777,4.131087,0.999107,-0.021064,-0.007332,0.035894
633,0.070513,-0.551203,9.789398,16.469461,1.072235,3.249585,-1.484272,-0.674538,4.361290,0.999178,-0.012719,-0.006374,0.037970
634,0.160508,-0.455434,10.028076,-0.383263,-2.242622,-1.347727,-1.216567,-0.693395,4.393459,0.999193,-0.010376,-0.006453,0.038264
635,0.110227,-0.269231,9.912855,4.532728,-0.538579,-4.176304,-1.146283,-0.741685,4.302449,0.999227,-0.009753,-0.006843,0.037470
636,0.112291,-0.209856,9.825631,7.379249,-0.388479,-4.804851,-0.945814,-0.759848,4.153033,0.999289,-0.008008,-0.006925,0.036177
637,0.106453,-0.137564,9.878378,7.607092,-0.500778,-5.024607,-0.693851,-0.776990,3.989419,0.999354,-0.005815,-0.006987,0.034765
638,0.093974,-0.068380,9.937639,7.768868,-0.340317,-4.928221,-0.435315,-0.792643,3.823672,0.999413,-0.003566,-0.007040,0.033334
639,0.101740,0.005235,9.908085,9.844456,-0.841377,-4.851393,-0.139481,-0.813151,3.660762,0.999464,-0.000990,-0.007131,0.031931
640,0.139416,0.125856,9.912223,12.054939,-2.245384,-4.391344,0.227767,-0.864452,3.506670,0.999501,0.002217,-0.007479,0.030611
641,0.175561,0.214996,9.929059,11.605021,-3.058378,-3.964452,0.624329,-0.951772,3.366767,0.999518,0.005690,-0.008142,0.029420
642,0.218505,0.270991,9.930430,10.315545,-3.423146,-3.582283,0.991910,-1.058003,3.239486,0.999518,0.008913,-0.008984,0.028344
643,0.229475,0.276195,9.895190,7.981428,-2.398946,-3.133235,1.299059,-1.152782,3.125643,0.999510,0.011606,-0.009746,0.027384
644,0.248224,0.307334,9.920160,6.174024,-1.767878,-2.711907,1.537029,-1.219806,3.026509,0.999501,0.013688,-0.010286,0.026547
645,0.214910,0.313747,9.912913,4.818126,0.466807,-2.464476,1.722092,-1.239034,2.939632,0.999496,0.015299,-0.010422,0.025808
646,0.196879,0.328744,9.909901,4.420486,1.590214,-2.381839,1.877752,-1.202234,2.859932,0.999495,0.016642,-0.010078,0.025122
647,0.180603,0.355527,9.906651,3.843413,1.916162,-2.343106,2.017046,-1.141153,2.783185,0.999496,0.017837,-0.009526,0.024456
648,0.158307,0.334242,9.936543,1.283845,2.138557,-2.399072,2.103976,-1.070780,2.706609,0.999505,0.018574,-0.008906,0.023784
649,0.128315,0.267799,9.953866,-0.881404,2.436445,-2.421305,2.112077,-0.991641,2.629102,0.999526,0.018623,-0.008227,0.023096
650,0.164658,0.325230,9.911613,2.476636,0.017842,-2.424330,2.140004,-0.947780,2.549890,0.999541,0.018853,-0.007852,0.022400
651,0.178121,0.336856,9.957019,1.896787,-1.254321,-2.525623,2.214297,-0.965220,2.466671,0.999543,0.019498,-0.008004,0.021682
652,0.179830,0.317687,9.957094,1.739789,-1.407536,-2.831303,2.276479,-1.006057,2.375713,0.999546,0.020042,-0.008364,0.020900
653,0.183417,0.382082,9.918569,5.364313,-1.366587,-3.093640,2.396683,-1.048230,2.275146,0.999539,0.021090,-0.008728,0.020039
654,0.189782,0.464090,9.894996,7.257899,-1.266619,-3.377207,2.609096,-1.087340,2.165456,0.999513,0.022941,-0.009054,0.019106
656,0.183202,0.463613,9.911628,4.422407,-0.502705,-3.428525,2.805966,-1.111427,2.050733,0.999489,0.024653,-0.009256,0.018126
657,0.170347,0.483725,9.893393,4.052431,0.372015,-3.114870,2.949318,-1.108152,1.941678,0.999474,0.025894,-0.009230,0.017186
658,0.166889,0.507924,9.884838,3.311819,0.828490,-2.589608,3.073845,-1.083175,1.847760,0.999462,0.026969,-0.009015,0.016371
659,0.193849,0.523064,9.896017,2.301427,-0.144960,-2.011357,3.168821,-1.067625,1.771793,0.999451,0.027789,-0.008884,0.015712
660,0.191983,0.595651,9.896055,3.800583,-0.001206,-1.551202,3.271633,-1.066723,1.712370,0.999434,0.028681,-0.008877,0.015202
661,0.176111,0.618665,9.901979,3.368232,0.818485,-1.284351,3.391970,-1.050369,1.665974,0.999410,0.029725,-0.008731,0.014802
662,0.156485,0.549156,9.935405,-0.131561,1.783015,-1.163403,3.446595,-1.004653,1.627823,0.999405,0.030193,-0.008335,0.014462
663,0.141561,0.591205,9.897319,2.282720,2.160979,-1.027373,3.482995,-0.936843,1.595329,0.999404,0.030500,-0.007748,0.014163
664,0.125739,0.627084,9.912373,2.390863,2.487744,-0.904631,3.561314,-0.857526,1.567957,0.999392,0.031172,-0.007054,0.013908
665,0.114530,0.575869,9.925543,-0.530518,2.519949,-0.792782,3.592646,-0.772461,1.544926,0.999392,0.031434,-0.006314,0.013686
666,0.107159,0.550963,9.912091,-1.169558,2.226364,-0.795229,3.564586,-0.691863,1.523428,0.999407,0.031179,-0.005621,0.013475
667,0.110193,0.614170,9.871511,1.044518,1.392560,-0.856896,3.562777,-0.629953,1.499690,0.999414,0.031155,-0.005087,0.013251
