seq,ax,ay,az,wroll,wpitch,wyaw,roll,pitch,yaw
1,0.033096,-0.220704,9.937152,0.524574,-0.636739,29.605574,-1.272267,-0.190768,0.002118
2,0.026764,-0.192049,9.932455,1.549029,-0.233940,19.231236,-1.240394,-0.187430,0.816178
3,0.027065,-0.123309,9.927187,4.098700,-0.145414,12.776891,-1.147978,-0.182720,1.349643
4,0.024109,-0.135980,9.926408,3.078967,0.152062,9.481491,-1.029512,-0.175704,1.720542
5,0.018806,-0.098018,9.926499,4.232491,0.457768,7.523281,-0.908478,-0.160750,2.003738
6,0.013650,-0.074587,9.928643,4.249243,0.741818,1.580014,-0.767505,-0.138581,2.155149
8,0.013707,-0.055827,9.931375,3.728101,0.623932,-0.204656,-0.634587,-0.115601,2.177789
9,0.009722,-0.075655,9.936287,1.317115,0.683837,-0.217572,-0.550485,-0.093895,2.170528
10,0.007628,-0.034166,9.932663,3.589695,0.633198,-0.193695,-0.468694,-0.072008,2.163474
11,0.008426,-0.051124,9.935607,1.765771,0.394409,-0.185338,-0.379429,-0.054927,2.157034
12,0.004536,-0.036432,9.933214,1.669662,0.466190,-0.192416,-0.322167,-0.040623,2.150649
13,0.000503,-0.037339,9.931094,1.088653,0.531387,-0.177600,-0.276191,-0.024030,2.144395
15,-0.001158,-0.027841,9.928874,1.217816,0.441490,-0.101672,-0.237749,-0.007836,2.139667
16,-0.002603,-0.045090,9.929609,-0.260914,0.335490,-0.033022,-0.221801,0.005104,2.137371
17,-0.003372,-0.056180,9.927209,-1.097763,0.213897,0.004611,-0.244445,0.014259,2.136859
18,-0.001219,-0.062092,9.924972,-1.166132,-0.027824,0.055436,-0.282177,0.017364,2.137845
19,0.000557,-0.065113,9.921034,-0.819844,-0.159904,0.060834,-0.315276,0.014246,2.139798
20,0.000681,-0.074996,9.922142,-1.025637,-0.131315,0.002853,-0.346034,0.009398,2.140887
22,0.003017,-0.064575,9.924572,0.000486,-0.242124,-0.021932,-0.363120,0.003172,2.140608
23,0.005697,-0.059747,9.925212,0.726471,-0.311704,-0.001181,-0.351004,-0.006060,2.140280
24,0.003964,-0.030794,9.925599,1.904497,-0.154458,-0.067261,-0.307154,-0.013836,2.139184
25,0.002769,-0.016829,9.928319,1.985710,-0.038205,-0.091083,-0.242316,-0.017060,2.136559
26,0.002088,-0.028710,9.929055,0.479536,0.007401,-0.088952,-0.201228,-0.017585,2.133560
27,0.001344,-0.033510,9.927124,-0.399404,0.072361,-0.102348,-0.199892,-0.016267,2.130367
29,0.001427,-0.036094,9.923757,-0.808288,0.040640,-0.125254,-0.220019,-0.014398,2.126567
30,0.008879,-0.061685,9.922503,-1.685228,-0.376325,-0.079328,-0.261577,-0.020007,2.123181
31,0.009943,-0.070964,9.924350,-1.551504,-0.352605,-0.068763,-0.315521,-0.032168,2.120773
32,0.010961,-0.060282,9.917957,-0.309221,-0.274945,-0.049268,-0.346532,-0.042639,2.118866
33,0.011820,-0.062818,9.919064,-0.148282,-0.222868,-0.030855,-0.354156,-0.050944,2.117581
34,0.011879,-0.061515,9.922074,-0.004867,-0.152198,-0.022878,-0.356707,-0.057200,2.116724
36,0.007773,-0.060074,9.922840,0.088871,0.152070,-0.022653,-0.355306,-0.057207,2.115965
37,0.004933,-0.060378,9.920500,0.079384,0.322175,-0.024659,-0.352501,-0.049308,2.115128
38,0.007191,-0.050673,9.920640,0.625637,0.114330,-0.024884,-0.340750,-0.042038,2.114258
39,0.008273,-0.057125,9.926940,0.116274,-0.022078,-0.020690,-0.328385,-0.040505,2.113490
40,0.005767,-0.053712,9.922669,0.217274,0.111661,-0.007778,-0.322825,-0.039014,2.113007
41,0.006982,-0.056586,9.924385,0.016141,0.037358,-0.018790,-0.318935,-0.036533,2.112550
43,0.008751,-0.053071,9.922963,0.194984,-0.098815,-0.019602,-0.315415,-0.037561,2.111916
44,0.008793,-0.053900,9.920796,0.092944,-0.091086,-0.027129,-0.310616,-0.040730,2.111154
45,0.008505,-0.050938,9.912710,0.219725,-0.040122,-0.033049,-0.305404,-0.042923,2.110163
46,0.009339,-0.050226,9.912362,0.204096,-0.055752,-0.045387,-0.298340,-0.044527,2.108865
47,0.007458,-0.053631,9.913179,-0.069210,0.067523,-0.023157,-0.296091,-0.044337,2.107721
48,0.008332,-0.052647,9.918255,-0.030230,0.021455,-0.015826,-0.297747,-0.042857,2.107064
50,0.002639,-0.052840,9.922610,-0.020425,0.326448,-0.018779,-0.298591,-0.037062,2.106457
51,0.001502,-0.050868,9.924755,0.108616,0.334194,-0.018822,-0.297121,-0.026055,2.105773
52,0.003847,-0.062876,9.932055,-0.618014,0.084350,-0.027401,-0.305611,-0.019083,2.104966
53,0.001673,-0.063025,9.933342,-0.524518,0.133960,-0.047040,-0.324653,-0.015452,2.103705
54,0.000150,-0.068217,9.927541,-0.654237,0.191599,-0.045198,-0.344298,-0.010035,2.102135
55,0.003532,-0.074291,9.931833,-0.808066,-0.043926,-0.026847,-0.368670,-0.007581,2.100920
57,0.002806,-0.073608,9.931578,-0.537339,-0.031173,-0.022275,-0.391093,-0.008838,2.100109
58,-0.000603,-0.059832,9.930039,0.496321,0.173486,-0.016447,-0.391776,-0.006471,2.099447
59,0.002296,-0.059212,9.927801,0.527526,-0.011375,-0.014686,-0.374712,-0.003772,2.098911
60,0.008303,-0.055231,9.931396,0.589362,-0.394032,-0.021667,-0.356097,-0.010533,2.098348
61,0.004279,-0.052905,9.925413,0.532562,-0.099042,-0.039555,-0.337398,-0.018757,2.097378
62,0.007012,-0.052611,9.926787,0.376738,-0.171476,-0.041496,-0.322243,-0.023273,2.096053
64,0.008926,-0.059799,9.925754,-0.199192,-0.244490,-0.035499,-0.319283,-0.030213,2.094809
65,0.009054,-0.050378,9.924289,0.319167,-0.182585,-0.043013,-0.317283,-0.037338,2.093539
66,0.004942,-0.056392,9.924348,-0.067839,0.126051,-0.045670,-0.313093,-0.038288,2.092067
67,0.012658,-0.050084,9.923389,0.277046,-0.308455,-0.042169,-0.309605,-0.041336,2.090619
68,0.012138,-0.059725,9.927499,-0.323726,-0.250745,-0.045984,-0.310382,-0.050664,2.089200
69,0.011104,-0.061386,9.925917,-0.415474,-0.087235,-0.037395,-0.322701,-0.056305,2.087842
71,0.008452,-0.071428,9.928542,-0.883103,0.120848,-0.025071,-0.344343,-0.055751,2.086798
72,0.009231,-0.065373,9.926735,-0.292086,0.079418,-0.021327,-0.363929,-0.052418,2.086005
73,0.007607,-0.065255,9.931285,-0.099922,0.136978,-0.016562,-0.370461,-0.048815,2.085350
74,0.005204,-0.062408,9.928824,0.134859,0.234944,-0.008462,-0.369879,-0.042620,2.084893
75,0.010028,-0.056839,9.929744,0.473607,-0.114479,-0.007834,-0.359738,-0.040614,2.084609
76,0.009344,-0.054097,9.924422,0.539459,-0.090799,-0.012288,-0.342853,-0.044037,2.084295
78,0.010983,-0.053468,9.926620,0.401545,-0.164797,-0.020167,-0.327169,-0.048300,2.083779
79,0.006967,-0.056001,9.924866,0.093379,0.120230,-0.025947,-0.318920,-0.049047,2.083014
80,0.010077,-0.053050,9.922384,0.178957,-0.032141,-0.031569,-0.314380,-0.047584,2.082048
81,0.005410,-0.058056,9.918334,-0.161451,0.225641,-0.026830,-0.314087,-0.044365,2.081057
82,0.007565,-0.061135,9.921634,-0.351773,0.059958,-0.021458,-0.322641,-0.039609,2.080225
83,0.004556,-0.065869,9.918697,-0.531629,0.193723,-0.009967,-0.337363,-0.035384,2.079677
85,0.006011,-0.064925,9.916553,-0.318522,0.049050,-0.009318,-0.351532,-0.031340,2.079331
86,0.004321,-0.063449,9.915915,-0.090293,0.086401,-0.013694,-0.358346,-0.029085,2.078933
87,0.001369,-0.063351,9.921165,-0.028303,0.232945,-0.032642,-0.360322,-0.023767,2.078128
88,0.001684,-0.061588,9.922612,0.112099,0.169242,-0.039244,-0.358925,-0.017072,2.076888
89,-0.000274,-0.061374,9.925228,0.103794,0.221460,-0.042005,-0.355326,-0.010569,2.075494
90,0.002979,-0.066406,9.929154,-0.222686,-0.028225,-0.038941,-0.357308,-0.007357,2.074125
92,0.002581,-0.065585,9.931074,-0.153266,-0.029728,-0.032922,-0.363573,-0.008330,2.072932
93,0.009117,-0.062082,9.931546,0.133008,-0.395538,-0.032244,-0.363911,-0.015425,2.071892
94,0.008129,-0.066769,9.929852,-0.154505,-0.273819,-0.031369,-0.364269,-0.026587,2.070902
95,0.008194,-0.065815,9.932743,-0.096322,-0.173466,-0.026093,-0.368449,-0.034048,2.069992
96,0.007296,-0.067597,9.930200,-0.156800,-0.048710,-0.028291,-0.372667,-0.037757,2.069109
97,0.005766,-0.069720,9.930297,-0.249300,0.087334,-0.033518,-0.379435,-0.037120,2.068076
99,0.005247,-0.066127,9.929557,0.005538,0.113944,-0.035064,-0.383497,-0.033773,2.066910
100,0.010537,-0.053086,9.932396,0.811745,-0.230698,-0.046950,-0.369874,-0.035727,2.065557
101,0.009893,-0.056141,9.930100,0.490982,-0.172632,-0.063137,-0.348161,-0.042461,2.063764
102,0.009598,-0.049008,9.935382,0.680859,-0.081899,-0.067319,-0.328629,-0.046716,2.061615
103,0.011383,-0.057465,9.936277,0.013438,-0.149871,-0.067113,-0.317055,-0.050591,2.059396
104,0.009638,-0.059258,9.934321,-0.198739,-0.002991,-0.056952,-0.320142,-0.053151,2.057343
106,0.006477,-0.069009,9.930188,-0.733469,0.218486,-0.038504,-0.335677,-0.049568,2.055732
107,0.008477,-0.064561,9.928407,-0.313055,0.067192,-0.035174,-0.353118,-0.044814,2.054476
108,0.009769,-0.066548,9.923735,-0.256675,-0.047541,-0.032950,-0.362613,-0.044494,2.053338
109,0.012123,-0.060704,9.920992,0.170111,-0.189915,-0.035714,-0.364055,-0.048459,2.052219
110,0.016305,-0.063045,9.924327,0.042937,-0.397600,-0.030806,-0.360503,-0.058257,2.051172
111,0.017804,-0.060675,9.926157,0.137262,-0.386009,-0.039963,-0.357498,-0.071325,2.050075
113,0.019665,-0.065641,9.926683,-0.171595,-0.349004,-0.028743,-0.358069,-0.083582,2.049006
114,0.015193,-0.065129,9.928770,-0.130988,0.027257,-0.015692,-0.363111,-0.088949,2.048299
115,0.010148,-0.067414,9.931817,-0.218880,0.379866,-0.010316,-0.368941,-0.082166,2.047822
116,0.003060,-0.071068,9.928082,-0.365307,0.719379,-0.026209,-0.378677,-0.063850,2.047095
117,0.003358,-0.075137,9.927976,-0.499808,0.511445,-0.027402,-0.393095,-0.043343,2.046063
118,0.002276,-0.065387,9.926970,0.195942,0.359690,-0.036629,-0.398158,-0.028832,2.044894
120,0.004702,-0.068707,9.928226,0.049373,0.071563,-0.052207,-0.394069,-0.021654,2.043365
121,0.006084,-0.061603,9.925103,0.424965,-0.084653,-0.059492,-0.386162,-0.021885,2.041505
122,0.009594,-0.052187,9.930328,0.889573,-0.277066,-0.051846,-0.364253,-0.027926,2.039689
123,0.014751,-0.047754,9.934268,0.924369,-0.507804,-0.041124,-0.334019,-0.041016,2.038219
124,0.017215,-0.056063,9.937826,0.162349,-0.529393,-0.034426,-0.315906,-0.058310,2.037059
125,0.018228,-0.053815,9.940250,0.116164,-0.407032,-0.025961,-0.311263,-0.073922,2.036139
127,0.017539,-0.053436,9.946262,0.096498,-0.204520,-0.024843,-0.307718,-0.084119,2.035347
128,0.016763,-0.060708,9.940600,-0.356806,-0.072155,-0.037111,-0.312055,-0.088736,2.034339
129,0.009642,-0.061572,9.936376,-0.369365,0.378110,-0.039166,-0.324156,-0.083644,2.033040
130,0.008118,-0.054045,9.934885,0.171440,0.419609,-0.051942,-0.327453,-0.070357,2.031447
131,0.005884,-0.057576,9.935334,-0.011277,0.401898,-0.048653,-0.324781,-0.056675,2.029693
132,0.006766,-0.056310,9.931009,0.025969,0.204919,-0.034531,-0.324535,-0.046570,2.028249
134,0.006614,-0.054910,9.931847,0.093865,0.101998,-0.024437,-0.322537,-0.041460,2.027237
135,0.004654,-0.057413,9.928803,-0.057789,0.166950,-0.030068,-0.321935,-0.036983,2.026304
136,0.003477,-0.057446,9.927336,-0.076893,0.196186,-0.026890,-0.324179,-0.030936,2.025320
137,0.004562,-0.057082,9.926512,-0.032198,0.082244,-0.039821,-0.325997,-0.026302,2.024182
138,0.005854,-0.057507,9.928825,-0.039311,-0.035538,-0.051189,-0.327188,-0.025532,2.022661
139,0.002350,-0.057675,9.930932,-0.033341,0.165096,-0.053134,-0.328398,-0.023383,2.020910
141,0.006049,-0.058405,9.932929,-0.073367,-0.065153,-0.046839,-0.330176,-0.021727,2.019234
142,0.007588,-0.058251,9.934161,-0.029510,-0.175024,-0.041358,-0.331890,-0.025738,2.017787
143,0.009346,-0.059298,9.929496,-0.081999,-0.227424,-0.032542,-0.333748,-0.032452,2.016595
144,0.008142,-0.062846,9.924902,-0.266787,-0.081891,-0.027060,-0.339560,-0.037613,2.015632
145,0.013738,-0.059139,9.923911,0.012606,-0.345801,-0.016628,-0.343796,-0.044746,2.014946
146,0.010393,-0.060825,9.924818,-0.054266,-0.082860,-0.033338,-0.344490,-0.051895,2.014156
147,0.009020,-0.063889,9.923233,-0.211077,0.073903,-0.032271,-0.348911,-0.052051,2.013064
148,0.007460,-0.059235,9.927172,0.115399,0.156552,-0.036575,-0.350505,-0.048217,2.011893
149,0.004514,-0.065325,9.929663,-0.223783,0.277638,-0.040058,-0.352310,-0.040989,2.010572
150,0.000142,-0.063992,9.932352,-0.130891,0.465279,-0.052779,-0.358220,-0.028616,2.008947
151,0.000674,-0.061983,9.935128,0.048141,0.307865,-0.032464,-0.359599,-0.015740,2.007446
152,0.000285,-0.060011,9.935238,0.158907,0.186295,-0.037736,-0.356148,-0.007511,2.006225
153,0.000144,-0.064339,9.932593,-0.126175,0.112150,-0.036623,-0.355602,-0.002545,2.004955
154,0.003733,-0.060917,9.929638,0.057077,-0.146130,-0.029083,-0.356754,-0.003118,2.003863
155,0.005896,-0.059492,9.927866,0.136478,-0.272919,-0.022205,-0.353528,-0.010108,2.003052
156,0.006644,-0.058337,9.924623,0.181995,-0.246349,-0.034253,-0.348220,-0.018768,2.002164
157,0.006118,-0.062082,9.923176,-0.103060,-0.115725,-0.033453,-0.346904,-0.024809,2.001072
158,0.008187,-0.063214,9.922132,-0.181976,-0.170263,-0.038341,-0.351654,-0.029583,1.999905
159,0.008414,-0.067133,9.926965,-0.351279,-0.130840,-0.038039,-0.360541,-0.034609,1.998663
160,0.009261,-0.073075,9.923861,-0.596036,-0.122019,-0.047030,-0.376328,-0.038832,1.997272
161,0.009810,-0.075528,9.921345,-0.573313,-0.108590,-0.045454,-0.395816,-0.042686,1.995757
162,0.011709,-0.077216,9.924396,-0.470015,-0.187156,-0.053668,-0.413204,-0.047627,1.994140
163,0.007280,-0.078805,9.925524,-0.381296,0.110340,-0.054620,-0.427391,-0.048920,1.992344
164,0.004487,-0.073754,9.923052,0.047997,0.282918,-0.058244,-0.432944,-0.042380,1.990414
165,0.003392,-0.078620,9.929069,-0.185355,0.280882,-0.050441,-0.435232,-0.032997,1.988532
166,0.001431,-0.078288,9.931805,-0.149721,0.307887,-0.054921,-0.440816,-0.023198,1.986701
167,-0.002655,-0.082350,9.928123,-0.331515,0.448742,-0.041585,-0.448836,-0.010601,1.984995
168,-0.000445,-0.070541,9.929584,0.436856,0.196787,-0.037630,-0.447081,0.000148,1.983590
169,-0.000994,-0.072597,9.936568,0.303649,0.116376,-0.025940,-0.434739,0.005359,1.982491
170,-0.001212,-0.068567,9.931011,0.431780,0.060093,-0.027742,-0.422482,0.008293,1.981575
171,-0.000888,-0.067503,9.932461,0.374248,0.002894,-0.018933,-0.409048,0.009337,1.980789
172,0.001024,-0.060931,9.934772,0.622918,-0.111728,-0.016689,-0.392429,0.007519,1.980208
173,0.001502,-0.069072,9.934557,-0.029607,-0.111976,-0.018337,-0.382540,0.003787,1.979649
174,0.004890,-0.066828,9.930034,0.009842,-0.268669,-0.033093,-0.382870,-0.002563,1.978835
175,0.005483,-0.068663,9.932339,-0.091826,-0.228663,-0.032891,-0.384236,-0.010859,1.977791
176,0.005207,-0.072755,9.930535,-0.313463,-0.134440,-0.042856,-0.390990,-0.016919,1.976570
177,0.006331,-0.079113,9.933702,-0.600644,-0.138590,-0.044307,-0.406225,-0.021479,1.975149
178,0.005613,-0.076816,9.931274,-0.316953,-0.063876,-0.042271,-0.421518,-0.024864,1.973731
179,0.003969,-0.080794,9.932819,-0.401983,0.072472,-0.032143,-0.433500,-0.024730,1.972489
180,0.007750,-0.083875,9.931328,-0.471330,-0.139401,-0.033775,-0.448054,-0.025854,1.971399
181,0.008491,-0.075953,9.930360,0.121619,-0.157246,-0.026706,-0.453882,-0.030806,1.970430
182,0.009453,-0.067671,9.930359,0.648606,-0.166306,-0.030126,-0.441045,-0.036206,1.969525
183,0.011164,-0.068580,9.928946,0.477958,-0.203514,-0.037992,-0.422268,-0.042378,1.968436
184,0.012004,-0.064751,9.924976,0.508163,-0.190572,-0.051610,-0.405831,-0.048956,1.966990
185,0.008140,-0.058508,9.929231,0.701112,0.087774,-0.054287,-0.385675,-0.050682,1.965237
186,0.008304,-0.057657,9.933812,0.562458,0.086631,-0.051075,-0.364614,-0.047787,1.963461
187,0.006103,-0.062823,9.933542,0.067561,0.183094,-0.050011,-0.354113,-0.043302,1.961748
188,0.004526,-0.066310,9.938342,-0.230638,0.233922,-0.037309,-0.356829,-0.036361,1.960250
189,0.005420,-0.070944,9.939092,-0.464239,0.117588,-0.030307,-0.368410,-0.030510,1.959086
190,0.009928,-0.066559,9.938079,-0.080829,-0.193223,-0.031068,-0.377494,-0.031777,1.958071
191,0.012986,-0.069422,9.936574,-0.161771,-0.361570,-0.029092,-0.381537,-0.041030,1.957129
192,0.013166,-0.071413,9.934292,-0.246270,-0.278108,-0.028486,-0.388337,-0.051697,1.956242
193,0.012529,-0.065628,9.931134,0.144991,-0.138007,-0.037017,-0.390024,-0.058640,1.955197
194,0.010975,-0.055484,9.937712,0.733978,0.012317,-0.041146,-0.375373,-0.060743,1.953908
196,0.006720,-0.060910,9.938851,0.253732,0.274137,-0.040454,-0.358910,-0.055978,1.952517
197,-0.000687,-0.059676,9.935822,0.160732,0.664203,-0.050235,-0.352001,-0.040349,1.950908
198,-0.000434,-0.052567,9.936294,0.503277,0.487272,-0.051557,-0.340933,-0.021168,1.949095
199,-0.002375,-0.049587,9.934926,0.561038,0.399817,-0.047397,-0.323194,-0.006393,1.947361
200,-0.001309,-0.060315,9.929545,-0.221639,0.193710,-0.045401,-0.317537,0.003490,1.945759
201,-0.005124,-0.058201,9.925977,-0.149827,0.328866,-0.043255,-0.323728,0.012191,1.944233
202,-0.001674,-0.062283,9.931953,-0.324447,0.039620,-0.037279,-0.331633,0.018325,1.942855
203,-0.002551,-0.065462,9.929294,-0.435938,0.030438,-0.034364,-0.344307,0.019486,1.941655
204,0.003217,-0.071947,9.934835,-0.679609,-0.309328,-0.048742,-0.362900,0.014829,1.940298
205,0.000548,-0.068977,9.934057,-0.316666,-0.114978,-0.039816,-0.379505,0.007748,1.938868
206,0.002081,-0.064775,9.931665,0.090811,-0.143312,-0.041413,-0.383269,0.003434,1.937542
207,0.000426,-0.063778,9.928982,0.189563,-0.012351,-0.042023,-0.378596,0.000831,1.936169
208,0.000830,-0.061767,9.932360,0.275367,-0.008092,-0.035902,-0.370847,0.000481,1.934873
209,-0.000870,-0.064507,9.928117,0.027565,0.093483,-0.019982,-0.365798,0.001898,1.933932
210,0.002963,-0.060504,9.924321,0.197599,-0.140431,-0.032164,-0.362046,0.001111,1.933068
211,0.005096,-0.068833,9.925944,-0.304864,-0.244985,-0.029840,-0.363833,-0.005319,1.932075
212,0.008572,-0.070732,9.927819,-0.406548,-0.379740,-0.038297,-0.375690,-0.015739,1.931007
213,0.012508,-0.070301,9.928854,-0.271877,-0.501144,-0.055938,-0.386997,-0.030430,1.929534
214,0.011566,-0.065297,9.931116,0.129259,-0.298244,-0.057879,-0.389372,-0.043766,1.927728
215,0.011704,-0.066344,9.930880,0.097109,-0.166795,-0.049407,-0.385598,-0.051528,1.925991
216,0.011059,-0.063213,9.930981,0.226319,-0.056549,-0.048757,-0.380206,-0.055262,1.924380
217,0.010168,-0.059736,9.931198,0.383779,0.036767,-0.049837,-0.370036,-0.055602,1.922739
218,0.008099,-0.058835,9.932485,0.334533,0.164174,-0.039837,-0.358063,-0.052263,1.921223
219,0.007758,-0.059891,9.932240,0.169081,0.145869,-0.048914,-0.349668,-0.047105,1.919712
220,0.006463,-0.059635,9.938844,0.114402,0.164668,-0.054820,-0.344942,-0.041939,1.917951
221,0.004707,-0.061654,9.937853,-0.054181,0.203548,-0.057456,-0.343937,-0.035814,1.916044
222,0.005988,-0.061264,9.940165,-0.036356,0.067004,-0.050660,-0.345445,-0.031316,1.914214
223,0.004813,-0.069911,9.938596,-0.515767,0.082077,-0.051791,-0.354646,-0.028841,1.912492
224,0.003022,-0.065326,9.933491,-0.164470,0.158974,-0.053029,-0.365982,-0.024835,1.910719
225,0.002801,-0.066380,9.933249,-0.125743,0.134716,-0.048642,-0.370819,-0.019951,1.908994
226,0.005734,-0.061438,9.932809,0.212085,-0.071102,-0.056279,-0.369379,-0.018902,1.907238
227,0.002566,-0.061186,9.927689,0.204317,0.104113,-0.053636,-0.362438,-0.018364,1.905403
228,0.005410,-0.050076,9.927355,0.768401,-0.060839,-0.057947,-0.346226,-0.017654,1.903539
229,0.008859,-0.056007,9.935264,0.263547,-0.269657,-0.054413,-0.329026,-0.023173,1.901699
230,0.007840,-0.057905,9.932960,-0.014092,-0.154311,-0.055093,-0.324868,-0.030250,1.899915
231,0.007005,-0.060812,9.935602,-0.217858,-0.033766,-0.035975,-0.328733,-0.033393,1.898415
232,0.010992,-0.062371,9.934956,-0.269369,-0.233832,-0.027922,-0.336852,-0.037859,1.897376
233,0.008019,-0.065097,9.935992,-0.349596,-0.017693,-0.025093,-0.347168,-0.042056,1.896518
234,0.007814,-0.066968,9.935390,-0.350022,0.045222,-0.020173,-0.358828,-0.041602,1.895760
235,0.008057,-0.067080,9.935274,-0.232334,0.022081,-0.028008,-0.368533,-0.040486,1.894950
236,0.006103,-0.066290,9.937045,-0.089063,0.109926,-0.033573,-0.373889,-0.038292,1.893909
237,0.003217,-0.065646,9.936991,0.010752,0.246771,-0.031165,-0.375193,-0.032354,1.892792
238,0.001921,-0.065913,9.935642,0.018564,0.262123,-0.032589,-0.374704,-0.023880,1.891674
239,0.000475,-0.063279,9.933561,0.172428,0.269934,-0.038772,-0.371521,-0.015020,1.890427
240,0.006259,-0.055613,9.932203,0.571655,-0.156891,-0.032458,-0.359119,-0.013144,1.889228
241,0.008019,-0.057586,9.928383,0.335637,-0.266704,-0.031571,-0.343997,-0.020210,1.888205
242,0.008237,-0.056184,9.928504,0.254706,-0.208647,-0.044876,-0.334157,-0.028140,1.886978
243,0.010257,-0.056714,9.930350,0.130925,-0.251940,-0.040433,-0.327730,-0.035825,1.885600
244,0.010957,-0.056576,9.931567,0.070434,-0.226116,-0.040163,-0.324373,-0.043800,1.884302
245,0.004122,-0.057397,9.932530,0.003555,0.254058,-0.043507,-0.323138,-0.043342,1.882905
246,0.006882,-0.058733,9.933668,-0.087000,0.082703,-0.041317,-0.324528,-0.037737,1.881460
247,0.008218,-0.061605,9.935386,-0.238157,-0.041163,-0.034355,-0.329947,-0.037052,1.880195
248,0.009035,-0.064645,9.931430,-0.365377,-0.099925,-0.028496,-0.340005,-0.039410,1.879161
249,0.006477,-0.069124,9.930309,-0.531314,0.063542,-0.016700,-0.354949,-0.040021,1.878412
250,0.007917,-0.076439,9.929026,-0.815231,-0.004335,-0.015449,-0.377391,-0.039037,1.877869
251,0.003206,-0.075701,9.930866,-0.547490,0.257711,-0.023098,-0.400103,-0.034819,1.877198
252,0.004246,-0.078958,9.928362,-0.504903,0.147853,-0.016167,-0.417642,-0.028064,1.876496
253,0.002707,-0.073967,9.930492,-0.051298,0.178320,-0.023903,-0.426912,-0.022633,1.875788
254,0.004520,-0.067639,9.931596,0.414563,0.017919,-0.031360,-0.420857,-0.019369,1.874843
255,0.004007,-0.061908,9.936756,0.681952,-0.006371,-0.039079,-0.402582,-0.019185,1.873668
256,0.005456,-0.062926,9.937026,0.428442,-0.085654,-0.048739,-0.384075,-0.020729,1.872215
257,0.003164,-0.058625,9.942277,0.485553,0.065075,-0.063003,-0.368841,-0.021084,1.870355
258,0.005520,-0.062204,9.940279,0.129328,-0.065683,-0.062206,-0.358592,-0.021108,1.868268
259,0.008543,-0.060773,9.936956,0.108159,-0.235294,-0.058691,-0.354633,-0.026136,1.866285
260,0.006070,-0.066681,9.931260,-0.265129,-0.027381,-0.043579,-0.357248,-0.030525,1.864608
261,0.009320,-0.069978,9.933616,-0.413001,-0.176982,-0.033686,-0.368550,-0.033939,1.863342
262,0.010139,-0.069898,9.926400,-0.270876,-0.187474,-0.030807,-0.379947,-0.040020,1.862306
263,0.003159,-0.068051,9.926510,-0.054858,0.282313,-0.040106,-0.385375,-0.038448,1.861114
264,0.000480,-0.074266,9.927198,-0.374277,0.412084,-0.046580,-0.392526,-0.026884,1.859590
265,0.006544,-0.070775,9.927180,-0.108954,-0.045875,-0.056045,-0.400580,-0.020793,1.857838
266,0.000970,-0.064031,9.924654,0.358338,0.216420,-0.048321,-0.396422,-0.017963,1.856078
267,0.003943,-0.065465,9.927844,0.216913,0.016570,-0.045082,-0.386835,-0.014090,1.854495
268,0.008391,-0.068624,9.930101,-0.061893,-0.287911,-0.033254,-0.384250,-0.018621,1.853220
269,0.009559,-0.066622,9.930239,0.030876,-0.294760,-0.025779,-0.384767,-0.028339,1.852302
270,0.010073,-0.064951,9.934704,0.141770,-0.237696,-0.029957,-0.381889,-0.037219,1.851432
271,0.010272,-0.066891,9.939532,0.001462,-0.161635,-0.036979,-0.379501,-0.043882,1.850361
272,0.009473,-0.067790,9.946148,-0.074697,-0.044029,-0.043791,-0.380721,-0.047318,1.849038
273,0.010164,-0.072793,9.944605,-0.348313,-0.055673,-0.045121,-0.387770,-0.048990,1.847567
274,0.009034,-0.067935,9.943368,0.009178,0.021496,-0.050972,-0.393421,-0.049571,1.845969
275,0.005139,-0.070119,9.941254,-0.068651,0.251674,-0.043231,-0.394410,-0.045029,1.844368
276,0.005405,-0.065620,9.934861,0.190472,0.190742,-0.040813,-0.392379,-0.037665,1.842917
277,0.001344,-0.068308,9.927924,0.015451,0.352791,-0.028899,-0.388946,-0.028614,1.841693
278,0.002807,-0.063609,9.929989,0.257651,0.191646,-0.033277,-0.384394,-0.019547,1.840596
279,0.005331,-0.071253,9.928726,-0.229433,-0.043159,-0.025517,-0.383924,-0.017079,1.839599
280,0.005552,-0.072511,9.931264,-0.317899,-0.083576,-0.027281,-0.393045,-0.019197,1.838734
281,0.007924,-0.079563,9.931684,-0.630308,-0.196182,-0.027980,-0.408849,-0.023866,1.837846
282,0.004790,-0.071810,9.933659,-0.031875,0.011500,-0.025102,-0.419885,-0.026951,1.836983
283,0.002824,-0.070551,9.935790,0.158080,0.142037,-0.013454,-0.417781,-0.024396,1.836321
284,-0.002683,-0.066668,9.939899,0.364089,0.426379,-0.014462,-0.409078,-0.014926,1.835788
285,-0.001445,-0.068167,9.938600,0.210004,0.264943,-0.020185,-0.399510,-0.003409,1.835129
286,-0.003734,-0.066125,9.937348,0.228522,0.278723,-0.015497,-0.392201,0.005648,1.834472
287,-0.002474,-0.070870,9.937743,-0.114920,0.136887,-0.019704,-0.390308,0.012571,1.833838
288,-0.003318,-0.071461,9.938693,-0.169077,0.130043,-0.029033,-0.395041,0.017014,1.832995
289,0.002696,-0.076905,9.942791,-0.445981,-0.257968,-0.027242,-0.405292,0.014875,1.832072
290,0.003907,-0.069432,9.942917,0.085648,-0.310975,-0.012227,-0.411298,0.005388,1.831482
291,0.004260,-0.064045,9.946527,0.459000,-0.231817,-0.014756,-0.402220,-0.003661,1.831096
292,0.007243,-0.069243,9.944182,0.080105,-0.322436,-0.009219,-0.393235,-0.012901,1.830760
293,0.008359,-0.068317,9.940585,0.043708,-0.299125,-0.010490,-0.391172,-0.023262,1.830503
294,0.005518,-0.068388,9.938124,0.037839,-0.033397,-0.014745,-0.389812,-0.028807,1.830120
295,0.004299,-0.070542,9.933165,-0.095869,0.090672,-0.018394,-0.390779,-0.027856,1.829561
296,0.004389,-0.077058,9.933301,-0.460479,0.066824,-0.018318,-0.400051,-0.025236,1.828931
297,0.003604,-0.063341,9.932775,0.403366,0.082836,-0.033854,-0.401003,-0.022748,1.828044
299,0.001521,-0.060700,9.933333,0.557827,0.170490,-0.033235,-0.384983,-0.018533,1.826897
300,0.003193,-0.056967,9.929981,0.610355,0.047113,-0.028082,-0.365513,-0.014913,1.825851
301,-0.002705,-0.058221,9.933011,0.344370,0.354234,-0.026038,-0.349600,-0.008230,1.824908
302,-0.000547,-0.058297,9.933050,0.185477,0.169052,-0.027232,-0.340769,0.000486,1.823967
303,0.000542,-0.069436,9.935022,-0.532344,0.023669,-0.029653,-0.346550,0.003692,1.822999
304,0.001738,-0.074905,9.932164,-0.782077,-0.066719,-0.021163,-0.368458,0.002969,1.822157
305,0.000097,-0.070733,9.933812,-0.330889,0.024480,-0.029680,-0.387007,0.002260,1.821314
306,0.006813,-0.073960,9.936833,-0.330252,-0.358722,-0.041411,-0.398026,-0.003319,1.820168
307,0.003248,-0.068319,9.937479,0.093211,-0.092829,-0.035084,-0.401977,-0.010853,1.818945
308,0.004830,-0.061422,9.937372,0.536446,-0.107186,-0.024614,-0.391482,-0.014194,1.817973
309,0.004127,-0.050806,9.942638,1.042140,-0.033141,-0.031860,-0.365172,-0.016539,1.817047
310,0.008843,-0.055822,9.944784,0.481605,-0.282886,-0.042435,-0.339776,-0.021813,1.815841
311,0.007640,-0.052723,9.941984,0.400790,-0.160988,-0.033941,-0.325069,-0.029218,1.814612
312,0.011125,-0.060118,9.940255,-0.183719,-0.290963,-0.034357,-0.321450,-0.036757,1.813516
313,0.006354,-0.061607,9.940052,-0.307354,0.053287,-0.039893,-0.329634,-0.040726,1.812301
314,0.004234,-0.069354,9.936656,-0.681091,0.213562,-0.049361,-0.346107,-0.036287,1.810788
315,-0.001153,-0.066224,9.932936,-0.325165,0.488995,-0.037295,-0.362877,-0.024587,1.809271
316,-0.002952,-0.060996,9.936266,0.139152,0.475750,-0.037529,-0.365977,-0.008516,1.807923
317,-0.004835,-0.061049,9.933822,0.184552,0.411521,-0.042389,-0.360582,0.006263,1.806497
318,0.000895,-0.059773,9.934284,0.207422,-0.059103,-0.040818,-0.354049,0.012128,1.805074
319,0.004519,-0.060759,9.933268,0.087933,-0.334437,-0.025684,-0.349127,0.005562,1.804006
320,0.004315,-0.065288,9.935323,-0.240062,-0.266153,-0.032842,-0.351662,-0.004453,1.803092
321,0.008752,-0.071854,9.933249,-0.594251,-0.418954,-0.032211,-0.365567,-0.015878,1.802080
322,0.012188,-0.068186,9.932459,-0.247050,-0.490788,-0.032830,-0.379589,-0.031047,1.801094
323,0.007790,-0.069443,9.931056,-0.193668,-0.099242,-0.028715,-0.386933,-0.040888,1.800134
324,0.009956,-0.069638,9.930614,-0.120985,-0.116683,-0.036551,-0.392177,-0.044494,1.799071
325,0.008956,-0.066169,9.930106,0.149701,-0.022968,-0.026956,-0.391697,-0.046829,1.798029
326,0.008040,-0.060716,9.930078,0.467172,0.053223,-0.031269,-0.381415,-0.046331,1.797055
327,0.006222,-0.055017,9.934250,0.693030,0.157873,-0.032310,-0.362078,-0.042820,1.795972
328,0.004845,-0.059812,9.934718,0.226367,0.205253,-0.034727,-0.346754,-0.036774,1.794818
329,0.003585,-0.060905,9.931684,0.005975,0.214367,-0.031485,-0.342881,-0.029788,1.793671
330,0.005496,-0.066821,9.929563,-0.376407,0.043354,-0.033906,-0.349054,-0.025499,1.792556
331,0.002844,-0.073511,9.928806,-0.717850,0.155005,-0.033125,-0.367291,-0.022200,1.791418
332,0.001282,-0.077182,9.924207,-0.744871,0.204498,-0.034287,-0.391670,-0.016216,1.790254
333,0.005826,-0.069056,9.925356,-0.034605,-0.108475,-0.044340,-0.404660,-0.014625,1.788933
334,0.003332,-0.073159,9.927851,-0.137436,0.016562,-0.040397,-0.407527,-0.016166,1.787532
335,0.000168,-0.069612,9.927665,0.101951,0.211525,-0.037526,-0.408119,-0.012374,1.786206
336,-0.000288,-0.068532,9.933438,0.184704,0.193822,-0.037619,-0.403341,-0.005628,1.784905
337,-0.000925,-0.068987,9.936562,0.121099,0.173774,-0.045455,-0.398244,0.000489,1.783478
338,-0.007038,-0.075635,9.934658,-0.310982,0.465177,-0.034281,-0.401409,0.011129,1.782075
339,-0.008129,-0.069232,9.937636,0.066688,0.429229,-0.043712,-0.405481,0.026026,1.780670
340,-0.006314,-0.065217,9.940914,0.341665,0.170948,-0.051455,-0.398676,0.036018,1.779014
341,-0.004948,-0.061748,9.934062,0.472655,-0.002919,-0.055628,-0.385105,0.038806,1.777210
342,-0.002226,-0.065554,9.931830,0.122720,-0.196930,-0.044866,-0.375183,0.035464,1.775558
343,0.003735,-0.064500,9.933141,0.084799,-0.518076,-0.045356,-0.371725,0.023538,1.774132
344,0.005238,-0.065314,9.929314,0.010971,-0.490256,-0.039048,-0.370129,0.006723,1.772834
345,0.006627,-0.064916,9.932471,0.006957,-0.389985,-0.020137,-0.369831,-0.007953,1.771943
346,0.003234,-0.062997,9.933128,0.104221,-0.049044,-0.022506,-0.367977,-0.015275,1.771279
347,0.000803,-0.061407,9.933925,0.163961,0.155237,-0.025737,-0.363508,-0.013510,1.770464
348,-0.000441,-0.059327,9.935102,0.242700,0.216977,-0.031519,-0.356730,-0.007313,1.769470
349,-0.000096,-0.062434,9.939213,0.012505,0.139696,-0.035046,-0.352476,-0.001375,1.768324
350,0.000481,-0.065361,9.935253,-0.195692,0.030268,-0.049353,-0.355529,0.001449,1.766900
351,0.006175,-0.068867,9.934521,-0.372242,-0.326370,-0.047006,-0.364995,-0.003496,1.765325
352,0.007065,-0.065580,9.936096,-0.099659,-0.322117,-0.047060,-0.372860,-0.014314,1.763827
353,0.006065,-0.068296,9.933192,-0.169632,-0.159460,-0.041411,-0.377347,-0.022350,1.762405
354,0.002514,-0.062431,9.932632,0.199591,0.111964,-0.036616,-0.376847,-0.023150,1.761110
355,0.000767,-0.061797,9.928381,0.226604,0.217678,-0.026760,-0.369744,-0.017663,1.760018
356,-0.002051,-0.064885,9.927252,-0.009315,0.330041,-0.018362,-0.366122,-0.008540,1.759207
357,-0.000570,-0.066265,9.925595,-0.113617,0.162515,-0.016448,-0.368171,-0.000334,1.758574
358,-0.000267,-0.064151,9.927524,0.023503,0.070606,-0.011004,-0.369673,0.003548,1.758091
359,-0.000228,-0.064979,9.925598,-0.003890,0.038691,-0.012798,-0.369346,0.005367,1.757683
360,0.001775,-0.065964,9.929011,-0.061190,-0.073728,-0.015193,-0.370431,0.004780,1.757220
361,0.001057,-0.067596,9.930569,-0.145444,-0.035588,-0.008792,-0.373875,0.002956,1.756832
362,0.000140,-0.070639,9.930679,-0.277392,0.032504,-0.009862,-0.380922,0.002902,1.756522
363,0.005852,-0.067274,9.930293,-0.000746,-0.304168,-0.012040,-0.385558,-0.001628,1.756187
364,0.008377,-0.068964,9.931427,-0.057554,-0.401483,-0.012738,-0.386529,-0.013391,1.755853
365,0.005864,-0.073174,9.935368,-0.293633,-0.140305,-0.006317,-0.392382,-0.022423,1.755597
366,0.005631,-0.067920,9.938124,0.079622,-0.036479,-0.014868,-0.395949,-0.025372,1.755265
367,0.005886,-0.070928,9.940063,-0.078691,-0.023162,-0.017763,-0.395933,-0.026369,1.754727
368,0.000772,-0.073818,9.940098,-0.262215,0.286163,-0.023209,-0.401615,-0.021991,1.754014
369,0.001693,-0.078812,9.939281,-0.479924,0.187777,-0.014643,-0.413983,-0.014097,1.753327
370,0.001009,-0.068728,9.935150,0.223367,0.132991,-0.033459,-0.418259,-0.008756,1.752486
371,0.000546,-0.064584,9.929830,0.493977,0.116963,-0.027572,-0.406303,-0.004598,1.751439
372,0.000854,-0.058890,9.927773,0.690099,0.059126,-0.021884,-0.386569,-0.001669,1.750595
373,0.002538,-0.056780,9.925269,0.598498,-0.062814,-0.027278,-0.365092,-0.001736,1.749776
374,0.003641,-0.052551,9.927811,0.621060,-0.131884,-0.039839,-0.344766,-0.004988,1.748678
375,0.007949,-0.060732,9.928027,-0.063382,-0.344949,-0.039522,-0.335471,-0.012942,1.747403
376,0.012482,-0.062716,9.931608,-0.257327,-0.528312,-0.049621,-0.340816,-0.027505,1.746003
377,0.013245,-0.065959,9.931750,-0.354319,-0.428269,-0.061148,-0.351009,-0.043459,1.744253
378,0.012342,-0.065828,9.936193,-0.238592,-0.230095,-0.056859,-0.360889,-0.054444,1.742355
379,0.010874,-0.061334,9.933746,0.126089,-0.034249,-0.046812,-0.362762,-0.058861,1.740655
380,0.006308,-0.059681,9.932816,0.238325,0.268658,-0.051094,-0.356687,-0.054964,1.738999
381,0.001151,-0.065269,9.930083,-0.153414,0.521066,-0.043024,-0.355271,-0.041812,1.737348
382,0.000022,-0.067060,9.926933,-0.285902,0.453206,-0.025095,-0.362592,-0.025582,1.736111
383,-0.003472,-0.076076,9.928698,-0.730791,0.498671,-0.024684,-0.379537,-0.009723,1.735178
384,0.002323,-0.079455,9.929172,-0.751606,0.004192,-0.023443,-0.404243,-0.001347,1.734318
385,0.001001,-0.081096,9.931080,-0.587718,0.008937,-0.009897,-0.426565,-0.001133,1.733761
386,0.000246,-0.079358,9.931906,-0.262373,0.056448,-0.015718,-0.440733,-0.000046,1.733325
387,0.001202,-0.072575,9.933836,0.256135,-0.003450,-0.016233,-0.440837,0.000833,1.732786
388,0.004969,-0.063109,9.929184,0.796891,-0.222026,-0.021015,-0.423287,-0.002929,1.732194
389,0.000380,-0.057631,9.926075,0.922788,0.075792,-0.034007,-0.394625,-0.005373,1.731294
390,0.001568,-0.051940,9.921143,0.958686,0.022455,-0.035883,-0.363268,-0.003743,1.730118
391,0.002655,-0.051577,9.920197,0.649083,-0.068845,-0.027163,-0.336471,-0.004523,1.729072
392,0.000471,-0.057559,9.919569,0.055291,0.058976,-0.036964,-0.324732,-0.004694,1.728004
393,-0.002352,-0.060067,9.918198,-0.210504,0.222237,-0.040590,-0.327318,-0.000014,1.726685
394,-0.000743,-0.065494,9.920046,-0.485257,0.088605,-0.032243,-0.338915,0.005159,1.725441
395,-0.001015,-0.072130,9.920538,-0.737155,0.057158,-0.035569,-0.359288,0.007582,1.724295
396,-0.000697,-0.073028,9.924402,-0.588285,0.019129,-0.035846,-0.381379,0.008845,1.723097
397,0.004083,-0.072815,9.925212,-0.339529,-0.272505,-0.036233,-0.396843,0.004614,1.721924
398,0.007402,-0.069613,9.924663,0.008852,-0.420322,-0.029669,-0.402354,-0.006940,1.720906
399,0.006425,-0.069969,9.926332,0.033408,-0.243778,-0.036130,-0.401649,-0.018016,1.719887
400,0.010234,-0.057628,9.932882,0.734790,-0.354047,-0.034057,-0.388846,-0.027987,1.718786
402,0.012508,-0.061920,9.928956,0.365455,-0.388878,-0.035643,-0.370508,-0.040377,1.717706
403,0.006150,-0.055967,9.931841,0.496044,0.112656,-0.026406,-0.356149,-0.044987,1.716701
404,0.002797,-0.059267,9.934920,0.176911,0.350721,-0.026232,-0.344932,-0.037270,1.715776
405,0.003395,-0.056482,9.932154,0.230567,0.231401,-0.016290,-0.338140,-0.027572,1.715009
406,0.002616,-0.066295,9.929268,-0.404536,0.171704,-0.016281,-0.341040,-0.020857,1.714427
407,-0.001122,-0.059591,9.932560,0.020032,0.330924,-0.030853,-0.347448,-0.012485,1.713591
408,0.004019,-0.060935,9.926390,0.016608,-0.058635,-0.043812,-0.346837,-0.007954,1.712319
409,0.007886,-0.065847,9.929122,-0.270460,-0.333138,-0.040821,-0.351067,-0.014492,1.710948
410,0.007845,-0.074209,9.931911,-0.720191,-0.259195,-0.049440,-0.367578,-0.024374,1.709506
411,0.004480,-0.073690,9.931970,-0.523665,0.042871,-0.047599,-0.388308,-0.027990,1.707913
412,0.008112,-0.071906,9.927693,-0.215282,-0.130694,-0.029059,-0.400623,-0.029462,1.706645
413,0.004994,-0.075431,9.931260,-0.284870,0.059488,-0.029216,-0.408958,-0.030656,1.705683
414,0.002016,-0.070412,9.924928,0.067105,0.247736,-0.035724,-0.412587,-0.025543,1.704564
415,-0.002358,-0.065842,9.924477,0.379257,0.444566,-0.034393,-0.405148,-0.014013,1.703313
416,0.000715,-0.058421,9.928614,0.739303,0.144282,-0.041113,-0.386505,-0.004208,1.701987
417,-0.000101,-0.069487,9.929587,-0.083746,0.088748,-0.045890,-0.375579,-0.000334,1.700511
418,0.000740,-0.071552,9.931536,-0.306793,0.012172,-0.049531,-0.382088,0.001337,1.698910
419,0.000931,-0.070715,9.934189,-0.187782,-0.020128,-0.049729,-0.390331,0.001194,1.697256
420,0.001348,-0.074319,9.933722,-0.325646,-0.042751,-0.043791,-0.398888,0.000135,1.695705
421,0.001124,-0.079245,9.929029,-0.529439,-0.007076,-0.045160,-0.413139,-0.000706,1.694228
422,-0.000772,-0.075071,9.931757,-0.157135,0.118353,-0.051953,-0.424582,0.001137,1.692597
423,0.001218,-0.071080,9.931182,0.178125,-0.008771,-0.037670,-0.424232,0.002952,1.691090
424,0.000702,-0.077835,9.932031,-0.210109,0.010470,-0.043703,-0.424765,0.002970,1.689733
425,0.007885,-0.076539,9.931436,-0.139460,-0.404117,-0.049825,-0.430592,-0.003602,1.688223
426,0.006848,-0.078660,9.930577,-0.196338,-0.284753,-0.045856,-0.436188,-0.015095,1.686715
427,0.011311,-0.076279,9.926194,0.004191,-0.438323,-0.039353,-0.439390,-0.027157,1.685388
428,0.008400,-0.075854,9.928189,0.061620,-0.161837,-0.038711,-0.438292,-0.037169,1.684163
429,0.012344,-0.075427,9.928621,0.077003,-0.286257,-0.018331,-0.435981,-0.044644,1.683269
430,0.005392,-0.076714,9.929824,-0.006105,0.189681,-0.017676,-0.434799,-0.046258,1.682681
431,0.004482,-0.076696,9.934869,-0.019226,0.258474,-0.015622,-0.435221,-0.038794,1.682070
