seq,ax,ay,az,wroll,wpitch,wyaw,roll,pitch,yaw,q0,q1,q2,q3
6099,-6.950475,6.970869,-0.056601,-0.031266,-0.110473,0.042093,90.465202,44.915131,90.658867,0.650421,0.269965,0.655739,0.272173
6101,-6.949268,6.973403,-0.071009,0.551436,0.488305,0.184032,90.480125,44.911308,90.667717,0.650355,0.270021,0.655787,0.272159
6102,-6.950685,6.982440,-0.073104,0.574749,0.503179,0.468217,90.515289,44.900299,90.690926,0.650191,0.270150,0.655899,0.272152
6103,-6.952560,6.976489,-0.070112,0.272909,0.198527,0.048789,90.540970,44.891571,90.707321,0.650070,0.270252,0.655979,0.272148
6104,-6.951293,6.976478,-0.075030,0.363517,0.273185,0.011447,90.559402,44.890484,90.718407,0.649998,0.270299,0.656046,0.272111
6105,-6.945127,6.972638,-0.074909,0.257134,0.189346,0.104090,90.577408,44.888481,90.729256,0.649925,0.270351,0.656110,0.272081
6106,-6.945382,6.964144,-0.073811,0.125120,0.055543,-0.276251,90.587875,44.891315,90.735054,0.649893,0.270361,0.656155,0.272038
6108,-6.942073,6.964346,-0.070618,-0.072982,-0.120296,-0.108722,90.587738,44.897736,90.733627,0.649912,0.270332,0.656166,0.271994
6109,-6.944502,6.964316,-0.068372,-0.166462,-0.218421,-0.158222,90.578163,44.902245,90.725716,0.649965,0.270297,0.656135,0.271979
6110,-6.943231,6.964827,-0.065457,-0.237437,-0.283371,-0.032581,90.563148,44.905518,90.713974,0.650036,0.270260,0.656079,0.271979
6111,-6.944204,6.962504,-0.062096,-0.284566,-0.346581,-0.133309,90.543991,44.908375,90.699173,0.650123,0.270220,0.656006,0.271989
6112,-6.945793,6.959716,-0.057177,-0.384415,-0.449036,-0.267575,90.519684,44.915180,90.680542,0.650241,0.270150,0.655920,0.271983
6113,-6.951653,6.962950,-0.061388,-0.097578,-0.169483,-0.309172,90.501465,44.924889,90.666107,0.650342,0.270074,0.655865,0.271951
6115,-6.948459,6.957771,-0.061680,-0.001441,-0.073397,-0.294524,90.495850,44.934978,90.660507,0.650393,0.270016,0.655861,0.271893
6116,-6.951593,6.952867,-0.055460,-0.232807,-0.307732,-0.532616,90.485725,44.948822,90.651695,0.650471,0.269930,0.655849,0.271822
6117,-6.954027,6.956191,-0.056234,-0.160462,-0.235564,-0.370260,90.470276,44.963951,90.639091,0.650574,0.269829,0.655817,0.271753
6118,-6.956595,6.964143,-0.060637,0.086491,0.017231,-0.019554,90.465439,44.970467,90.634018,0.650613,0.269793,0.655809,0.271715
6119,-6.953354,6.959348,-0.056108,-0.072781,-0.134204,-0.007630,90.463730,44.970936,90.631256,0.650625,0.269796,0.655799,0.271706
6120,-6.957143,6.961795,-0.061967,0.185445,0.118790,-0.056859,90.465355,44.972019,90.630913,0.650624,0.269801,0.655805,0.271689
6122,-6.956346,6.965067,-0.062201,0.179688,0.114487,0.135176,90.475319,44.970676,90.636391,0.650585,0.269834,0.655838,0.271671
6123,-6.949229,6.968244,-0.060030,0.051595,-0.022260,0.562878,90.480621,44.959023,90.638428,0.650539,0.269919,0.655829,0.271718
6124,-6.946789,6.975439,-0.053253,-0.259579,-0.327595,0.844438,90.471146,44.935627,90.629913,0.650525,0.270048,0.655732,0.271858
6125,-6.947203,6.969851,-0.052284,-0.230391,-0.319120,0.360372,90.452057,44.915634,90.614464,0.650558,0.270142,0.655604,0.271993
6126,-6.943968,6.975752,-0.049587,-0.252429,-0.324420,0.529501,90.433212,44.900887,90.599167,0.650604,0.270206,0.655489,0.272098
6127,-6.946464,6.977543,-0.052890,-0.010048,-0.088787,0.347326,90.421883,44.886330,90.589302,0.650619,0.270281,0.655406,0.272190
6129,-6.953893,6.976131,-0.051696,-0.004957,-0.076866,-0.176619,90.418854,44.883499,90.585365,0.650628,0.270303,0.655383,0.272201
6130,-6.953326,6.967137,-0.057451,0.251818,0.176152,-0.543648,90.424706,44.895496,90.587830,0.650638,0.270254,0.655430,0.272113
6131,-6.949822,6.972913,-0.056677,0.178042,0.114007,-0.050852,90.436768,44.905369,90.594772,0.650617,0.270226,0.655498,0.272027
6132,-6.949219,6.968355,-0.060874,0.296667,0.215043,-0.101972,90.450157,44.907871,90.602539,0.650573,0.270243,0.655554,0.271980
6133,-6.953202,6.970027,-0.060588,0.210956,0.139711,-0.165744,90.464554,44.912292,90.610939,0.650529,0.270252,0.655618,0.271920
6134,-6.950241,6.968251,-0.056312,-0.052084,-0.102000,-0.075016,90.467842,44.916290,90.611862,0.650529,0.270242,0.655637,0.271884
6136,-6.949660,6.968850,-0.055580,-0.099009,-0.148072,0.019854,90.461189,44.917248,90.605995,0.650561,0.270233,0.655610,0.271883
6137,-6.949675,6.972555,-0.058240,0.050430,-0.006897,0.189881,90.457771,44.913773,90.602303,0.650569,0.270254,0.655585,0.271902
6138,-6.952185,6.968921,-0.055144,-0.057282,-0.118127,-0.106981,90.455566,44.912411,90.599350,0.650578,0.270266,0.655570,0.271905
6139,-6.947498,6.963974,-0.059507,0.132291,0.061525,-0.152284,90.455910,44.916737,90.598061,0.650591,0.270251,0.655577,0.271871
6140,-6.946488,6.962580,-0.061775,0.229200,0.155363,-0.115500,90.465584,44.921173,90.603218,0.650567,0.270251,0.655623,0.271820
6141,-6.945336,6.957364,-0.061743,0.191942,0.106571,-0.244109,90.476997,44.927132,90.609444,0.650539,0.270246,0.655678,0.271756
6143,-6.950473,6.956218,-0.061834,0.128148,0.044294,-0.446162,90.484940,44.938614,90.613136,0.650540,0.270205,0.655732,0.271666
6144,-6.951666,6.960414,-0.057888,-0.077355,-0.149606,-0.198311,90.484123,44.949368,90.610786,0.650573,0.270152,0.655750,0.271596
6145,-6.954465,6.967031,-0.053012,-0.280986,-0.341516,0.076756,90.470001,44.951466,90.599243,0.650639,0.270126,0.655694,0.271600
6146,-6.958015,6.964514,-0.053794,-0.177167,-0.255032,-0.161732,90.452446,44.952961,90.585205,0.650717,0.270098,0.655623,0.271612
6147,-6.961715,6.967210,-0.057603,0.057511,-0.007171,-0.198077,90.446121,44.958984,90.579086,0.650761,0.270063,0.655607,0.271579
6148,-6.961709,6.966167,-0.056998,0.075224,0.007664,-0.191381,90.448410,44.965481,90.579185,0.650771,0.270039,0.655628,0.271529
6150,-6.961542,6.965337,-0.059524,0.172680,0.097694,-0.158293,90.454330,44.971294,90.581711,0.650765,0.270024,0.655661,0.271477
6151,-6.959732,6.963863,-0.058885,0.127913,0.050525,-0.093606,90.461830,44.975468,90.585251,0.650749,0.270023,0.655697,0.271430
6152,-6.956390,6.969888,-0.055343,-0.058980,-0.122081,0.338399,90.461754,44.971401,90.583519,0.650744,0.270056,0.655683,0.271444
6153,-6.952435,6.969731,-0.055150,-0.066509,-0.128665,0.464856,90.455383,44.958050,90.577461,0.650741,0.270130,0.655623,0.271522
6154,-6.951097,6.965178,-0.060539,0.185898,0.127339,0.203599,90.457260,44.946907,90.577293,0.650710,0.270205,0.655601,0.271574
6155,-6.955294,6.969321,-0.056045,-0.011543,-0.063103,0.095803,90.461189,44.941910,90.578751,0.650685,0.270248,0.655603,0.271588
6157,-6.954066,6.967249,-0.056018,-0.034702,-0.093005,0.017487,90.457817,44.940041,90.575066,0.650697,0.270261,0.655582,0.271597
6158,-6.952801,6.962848,-0.056347,-0.002775,-0.068426,-0.130243,90.454521,44.941940,90.571281,0.650719,0.270253,0.655569,0.271584
6159,-6.955011,6.966416,-0.056154,0.022917,-0.072662,-0.064793,90.452530,44.945213,90.567993,0.650739,0.270242,0.655564,0.271558
6160,-6.956394,6.973125,-0.058363,0.127724,0.033953,0.183509,90.454384,44.943241,90.567062,0.650732,0.270269,0.655562,0.271553
6161,-6.950583,6.971010,-0.060302,0.199105,0.104719,0.310291,90.462067,44.934986,90.570229,0.650687,0.270341,0.655569,0.271574
6162,-6.947444,6.969903,-0.060724,0.183006,0.090184,0.313570,90.471588,44.924564,90.574699,0.650628,0.270429,0.655578,0.271604
6164,-6.953240,6.975824,-0.063735,0.260262,0.167934,0.211026,90.483192,44.915787,90.580666,0.650566,0.270511,0.655599,0.271622
6165,-6.949150,6.980577,-0.061020,0.070316,0.008242,0.505804,90.491539,44.903820,90.584679,0.650508,0.270604,0.655600,0.271665
6166,-6.949732,6.973392,-0.054989,-0.225190,-0.286988,0.076638,90.484245,44.894154,90.578003,0.650517,0.270655,0.655545,0.271724
6167,-6.945712,6.972687,-0.050335,-0.369691,-0.442729,0.108816,90.462189,44.891159,90.560799,0.650603,0.270646,0.655445,0.271770
6168,-6.947192,6.976609,-0.051334,-0.217545,-0.290577,0.178016,90.440178,44.886471,90.543488,0.650684,0.270646,0.655341,0.271824
6169,-6.949036,6.966422,-0.054840,0.055956,-0.029902,-0.361229,90.432182,44.889565,90.535980,0.650729,0.270626,0.655312,0.271809
6171,-6.951469,6.953907,-0.056785,0.187956,0.077438,-0.961309,90.437218,44.911602,90.537338,0.650767,0.270522,0.655378,0.271663
6172,-6.952887,6.954679,-0.059102,0.261115,0.148859,-0.776662,90.448677,44.940536,90.542984,0.650796,0.270389,0.655485,0.271464
6173,-6.956129,6.962248,-0.066288,0.484931,0.389680,-0.302764,90.470207,44.958454,90.555855,0.650758,0.270336,0.655608,0.271312
6174,-6.960042,6.958686,-0.065749,0.357524,0.255483,-0.425865,90.495102,44.970512,90.571213,0.650692,0.270321,0.655731,0.271188
6175,-6.955072,6.966324,-0.068809,0.344044,0.261223,0.206993,90.515427,44.974083,90.583435,0.650624,0.270346,0.655816,0.271121
6176,-6.954928,6.977530,-0.064733,0.068722,0.006030,0.709977,90.526611,44.958755,90.589523,0.650546,0.270462,0.655822,0.271179
6177,-6.955240,6.984787,-0.058368,-0.245820,-0.323542,0.843809,90.518158,44.932915,90.581726,0.650522,0.270606,0.655724,0.271330
6178,-6.953106,6.972468,-0.061315,-0.071605,-0.163366,0.179414,90.504623,44.915932,90.570053,0.650541,0.270692,0.655625,0.271438
6179,-6.948281,6.968498,-0.059531,-0.075869,-0.168794,0.037117,90.496620,44.912369,90.562195,0.650569,0.270712,0.655579,0.271460
6180,-6.950373,6.967562,-0.054746,-0.234206,-0.343301,-0.117450,90.482948,44.913780,90.550163,0.650634,0.270696,0.655522,0.271462
6181,-6.952719,6.959919,-0.059231,0.012700,-0.100480,-0.512036,90.471977,44.924335,90.539841,0.650710,0.270632,0.655496,0.271406
6182,-6.949673,6.956485,-0.059289,0.063664,-0.030509,-0.416763,90.471207,44.939835,90.536942,0.650756,0.270556,0.655523,0.271305
6183,-6.953465,6.959919,-0.057317,-0.016510,-0.112370,-0.291992,90.469711,44.951668,90.533707,0.650795,0.270498,0.655539,0.271228
6184,-6.955627,6.965312,-0.062430,0.193688,0.104117,-0.034848,90.472557,44.957108,90.533569,0.650802,0.270484,0.655558,0.271180
6185,-6.955428,6.960769,-0.063501,0.228170,0.137566,-0.155915,90.483643,44.960251,90.539299,0.650770,0.270497,0.655605,0.271131
6186,-6.953187,6.961985,-0.062137,0.116091,0.033202,0.018329,90.492241,44.962528,90.543358,0.650746,0.270509,0.655640,0.271092
6187,-6.953029,6.962546,-0.065389,0.211420,0.127350,0.063378,90.500366,44.961147,90.547127,0.650714,0.270542,0.655665,0.271075
6188,-6.952081,6.958179,-0.060180,-0.046860,-0.125844,-0.090784,90.503136,44.961601,90.547165,0.650709,0.270555,0.655673,0.271057
6189,-6.951796,6.956719,-0.053423,-0.331113,-0.410106,-0.132970,90.487953,44.965405,90.534584,0.650783,0.270519,0.655616,0.271050
6190,-6.953783,6.957294,-0.049121,-0.444788,-0.500948,-0.156854,90.459892,44.970364,90.513176,0.650912,0.270454,0.655511,0.271061
6191,-6.953381,6.962080,-0.048402,-0.332439,-0.383531,0.108163,90.432220,44.971283,90.492348,0.651029,0.270410,0.655398,0.271096
6192,-6.952834,6.957780,-0.048864,-0.176660,-0.216846,-0.025932,90.413727,44.969994,90.478195,0.651103,0.270393,0.655318,0.271128
6193,-6.949928,6.958398,-0.051585,0.021731,-0.013104,0.114857,90.407295,44.968533,90.472755,0.651128,0.270396,0.655287,0.271143
6194,-6.950663,6.970587,-0.054156,0.160661,0.116709,0.569667,90.411987,44.957111,90.475082,0.651083,0.270475,0.655277,0.271194
6195,-6.951458,6.973207,-0.059961,0.384618,0.324775,0.535089,90.428284,44.938648,90.485283,0.650976,0.270614,0.655297,0.271264
6196,-6.952051,6.970304,-0.057434,0.201446,0.128737,0.207339,90.445503,44.926220,90.495827,0.650881,0.270723,0.655333,0.271296
6197,-6.952572,6.977195,-0.052880,-0.082236,-0.163904,0.343822,90.446831,44.917042,90.494904,0.650858,0.270788,0.655313,0.271336
6198,-6.955003,6.980170,-0.053533,-0.055312,-0.146709,0.261852,90.439293,44.906994,90.487473,0.650869,0.270845,0.655254,0.271394
6199,-6.948843,6.965987,-0.051100,-0.122529,-0.197210,-0.181499,90.430603,44.905689,90.479370,0.650905,0.270849,0.655212,0.271405
6200,-6.946007,6.966177,-0.048398,-0.178314,-0.271737,-0.079220,90.417831,44.910091,90.468376,0.650972,0.270814,0.655166,0.271391
6201,-6.948714,6.969744,-0.047008,-0.171072,-0.262414,-0.009767,90.403152,44.911644,90.455826,0.651040,0.270794,0.655105,0.271394
6202,-6.955367,6.966060,-0.056160,0.294639,0.171558,-0.437240,90.403732,44.919098,90.453751,0.651062,0.270767,0.655119,0.271337
6203,-6.952645,6.971561,-0.059135,0.409518,0.292141,-0.030516,90.423241,44.926838,90.464745,0.651008,0.270770,0.655209,0.271244
6204,-6.959416,6.972558,-0.064563,0.527140,0.411422,-0.176551,90.450577,44.930206,90.481354,0.650913,0.270812,0.655320,0.271162
6205,-6.959087,6.978358,-0.068185,0.525015,0.435918,0.117481,90.482216,44.931076,90.501312,0.650793,0.270872,0.655444,0.271090
6206,-6.955683,6.979438,-0.072706,0.552258,0.470913,0.316535,90.515167,44.923706,90.522568,0.650647,0.270980,0.655556,0.271064
6207,-6.949177,6.980761,-0.067770,0.168181,0.122121,0.571328,90.536896,44.908821,90.536331,0.650527,0.271109,0.655605,0.271103
6208,-6.948382,6.979527,-0.063414,-0.121300,-0.170959,0.420882,90.536728,44.892296,90.534973,0.650491,0.271210,0.655563,0.271190
6209,-6.947070,6.983776,-0.058700,-0.311699,-0.375257,0.477999,90.520287,44.877392,90.521919,0.650524,0.271276,0.655459,0.271295
6210,-6.949382,6.986408,-0.058868,-0.224799,-0.297588,0.333308,90.500076,44.863979,90.505936,0.650577,0.271330,0.655342,0.271396
6211,-6.946728,6.984601,-0.058213,-0.143527,-0.229768,0.242666,90.485115,44.854458,90.493416,0.650620,0.271370,0.655255,0.271465
6212,-6.949191,6.987130,-0.056094,-0.144324,-0.255724,0.156584,90.472206,44.847870,90.481926,0.650661,0.271400,0.655182,0.271511
6213,-6.954641,6.981849,-0.063894,0.249922,0.132299,-0.349472,90.471954,44.851101,90.479065,0.650677,0.271397,0.655182,0.271478
6214,-6.954684,6.980191,-0.067748,0.406117,0.299596,-0.379330,90.490150,44.863190,90.489372,0.650638,0.271372,0.655278,0.271363
6215,-6.954686,6.973258,-0.060622,0.023466,-0.079548,-0.537994,90.501099,44.878445,90.494720,0.650637,0.271317,0.655352,0.271244
6216,-6.955523,6.976130,-0.063657,0.081934,-0.013291,-0.309175,90.501411,44.892567,90.492706,0.650675,0.271250,0.655380,0.271151
6217,-6.954257,6.967507,-0.068315,0.270928,0.188889,-0.477632,90.510330,44.905655,90.496994,0.650675,0.271201,0.655442,0.271049
6218,-6.948967,6.974423,-0.059316,-0.164098,-0.223820,0.143607,90.511574,44.911224,90.496239,0.650687,0.271181,0.655456,0.271006
6219,-6.951493,6.975073,-0.059363,-0.168633,-0.219399,0.121983,90.498642,44.906872,90.485771,0.650732,0.271192,0.655390,0.271046
6220,-6.951058,6.967471,-0.065605,0.163982,0.103121,-0.215139,90.496643,44.908443,90.483055,0.650747,0.271188,0.655383,0.271033
6221,-6.952972,6.962117,-0.060446,-0.024562,-0.099435,-0.506295,90.499130,44.920467,90.483276,0.650770,0.271132,0.655417,0.270951
6222,-6.950442,6.965455,-0.056190,-0.196909,-0.271186,-0.142889,90.489372,44.931343,90.474693,0.650840,0.271064,0.655399,0.270896
6223,-6.955780,6.962321,-0.057123,-0.082453,-0.189552,-0.374304,90.477119,44.940022,90.463943,0.650915,0.271006,0.655365,0.270856
6224,-6.950650,6.959541,-0.052565,-0.212728,-0.319511,-0.194117,90.463806,44.949566,90.452057,0.650997,0.270944,0.655327,0.270810
6225,-6.951681,6.963141,-0.051025,-0.213694,-0.314301,0.001828,90.446190,44.952862,90.437172,0.651082,0.270910,0.655258,0.270807
6226,-6.950540,6.952322,-0.053149,-0.039043,-0.130602,-0.356798,90.434601,44.958828,90.426750,0.651148,0.270870,0.655220,0.270780
6227,-6.948137,6.958666,-0.051312,-0.080216,-0.160865,0.071986,90.427795,44.963608,90.419930,0.651192,0.270843,0.655199,0.270753
6228,-6.952213,6.955871,-0.057044,0.177264,0.109767,-0.158933,90.428589,44.965073,90.418755,0.651197,0.270846,0.655201,0.270734
6229,-6.953156,6.960236,-0.062614,0.407591,0.340997,-0.002033,90.445854,44.967693,90.429398,0.651137,0.270868,0.655273,0.270681
6230,-6.945774,6.965023,-0.063817,0.363172,0.305333,0.532270,90.469398,44.958778,90.444534,0.651024,0.270966,0.655344,0.270683
6231,-6.952350,6.976106,-0.059140,0.045641,-0.004790,0.625423,90.481033,44.939438,90.451370,0.650934,0.271103,0.655343,0.270765
6232,-6.952448,6.973028,-0.066125,0.274534,0.214868,0.308261,90.489738,44.923855,90.456139,0.650864,0.271214,0.655339,0.270831
6233,-6.945746,6.971195,-0.063468,0.122310,0.072455,0.350674,90.501030,44.912830,90.462753,0.650795,0.271303,0.655355,0.270867
6234,-6.948536,6.961969,-0.060365,-0.051305,-0.125738,-0.259594,90.501312,44.911324,90.461494,0.650794,0.271321,0.655350,0.270867
6235,-6.951549,6.961920,-0.059215,-0.097098,-0.177195,-0.394811,90.493896,44.922272,90.454491,0.650855,0.271256,0.655341,0.270807
6236,-6.947848,6.956968,-0.061667,0.041462,-0.035429,-0.339984,90.489540,44.934540,90.449638,0.650906,0.271190,0.655348,0.270735
6237,-6.951787,6.955383,-0.061253,0.058941,-0.024903,-0.461897,90.490326,44.947922,90.448380,0.650939,0.271125,0.655377,0.270647
6238,-6.951003,6.958776,-0.060765,0.030645,-0.045932,-0.162264,90.490738,44.958328,90.446838,0.650967,0.271077,0.655399,0.270576
6239,-6.951083,6.967714,-0.064040,0.167932,0.087571,0.304715,90.494728,44.955956,90.447800,0.650950,0.271108,0.655405,0.270573
6240,-6.949080,6.969734,-0.063646,0.137145,0.059595,0.439153,90.502144,44.943535,90.451103,0.650894,0.271202,0.655402,0.270620
6241,-6.947429,6.973131,-0.065070,0.166578,0.077509,0.530602,90.509338,44.927345,90.454124,0.650831,0.271317,0.655388,0.270688
6242,-6.946564,6.968049,-0.061789,-0.015050,-0.096017,0.198991,90.511444,44.915192,90.453537,0.650798,0.271402,0.655364,0.270742
6243,-6.948993,6.970331,-0.061838,-0.025953,-0.112603,0.075769,90.507271,44.910648,90.448578,0.650809,0.271432,0.655332,0.270764
6244,-6.948269,6.967337,-0.059167,-0.136916,-0.190954,-0.066126,90.499504,44.910530,90.441437,0.650844,0.271430,0.655296,0.270768
6245,-6.952768,6.974103,-0.061433,-0.007006,-0.066740,0.035665,90.492813,44.911072,90.435364,0.650875,0.271423,0.655267,0.270769
6246,-6.949731,6.978592,-0.060303,-0.020142,-0.074072,0.348838,90.489975,44.904682,90.431976,0.650875,0.271463,0.655238,0.270802
6247,-6.953583,6.991301,-0.063414,0.119204,0.071934,0.644294,90.491455,44.888134,90.431725,0.650832,0.271567,0.655202,0.270887
6248,-6.954770,6.984740,-0.066193,0.240872,0.178284,0.144241,90.501488,44.874954,90.437447,0.650763,0.271667,0.655209,0.270937
6250,-6.951377,6.988659,-0.064212,0.109058,0.037747,0.322551,90.510849,44.867149,90.442444,0.650710,0.271736,0.655225,0.270956
6251,-6.949090,6.971819,-0.064976,0.104484,0.022638,-0.367228,90.515411,44.867886,90.443871,0.650697,0.271749,0.655240,0.270934
6252,-6.956552,6.960593,-0.068703,0.241060,0.145616,-1.118121,90.524193,44.892620,90.448151,0.650726,0.271634,0.655329,0.270767
6253,-6.955186,6.953546,-0.064926,0.056113,-0.055220,-1.096808,90.530983,44.929520,90.450752,0.650793,0.271447,0.655436,0.270533
6254,-6.953663,6.953939,-0.062851,-0.065187,-0.184351,-0.625779,90.527107,44.958263,90.445488,0.650884,0.271291,0.655481,0.270361
6255,-6.955358,6.950273,-0.066489,0.114762,-0.007104,-0.554911,90.524925,44.977974,90.441238,0.650947,0.271191,0.655512,0.270237
6256,-6.952049,6.956544,-0.060899,-0.113174,-0.227837,0.044319,90.521111,44.986511,90.435799,0.650989,0.271152,0.655510,0.270179
6257,-6.950063,6.954066,-0.054711,-0.351330,-0.479068,0.095643,90.501564,44.984287,90.419106,0.651069,0.271149,0.655419,0.270209
6258,-6.950753,6.956234,-0.058946,-0.088955,-0.195123,0.140964,90.482971,44.980442,90.403175,0.651142,0.271156,0.655329,0.270247
6259,-6.949733,6.958941,-0.057488,-0.069121,-0.149948,0.255264,90.474525,44.973885,90.394966,0.651165,0.271193,0.655274,0.270286
6260,-6.949421,6.951052,-0.054693,-0.142498,-0.229462,-0.130347,90.464661,44.971855,90.386002,0.651205,0.271199,0.655225,0.270303
6261,-6.953191,6.958289,-0.058152,0.050040,-0.028444,-0.002252,90.458847,44.974098,90.379944,0.651238,0.271188,0.655202,0.270289
6262,-6.949894,6.967279,-0.062932,0.269980,0.206222,0.537950,90.467079,44.965145,90.384041,0.651188,0.271263,0.655210,0.270316
6263,-6.949734,6.962640,-0.061112,0.163136,0.065216,0.258432,90.478706,44.951839,90.390282,0.651113,0.271369,0.655222,0.270361
6264,-6.947984,6.963622,-0.058672,0.014734,-0.084661,0.230791,90.481285,44.943695,90.389732,0.651089,0.271433,0.655207,0.270389
6265,-6.950445,6.974878,-0.056933,-0.073693,-0.172090,0.512198,90.475929,44.931347,90.383545,0.651087,0.271508,0.655151,0.270455
6266,-6.952827,6.974826,-0.057941,-0.019053,-0.111854,0.277572,90.469559,44.918228,90.376709,0.651086,0.271586,0.655090,0.270528
6267,-6.952728,6.974260,-0.055889,-0.077549,-0.162308,0.122369,90.463326,44.911591,90.370178,0.651100,0.271626,0.655044,0.270564
6268,-6.950049,6.978279,-0.054403,-0.110463,-0.178172,0.331289,90.454491,44.904083,90.362083,0.651122,0.271665,0.654987,0.270611
6269,-6.953466,6.977261,-0.057596,0.059720,-0.012170,0.076261,90.450417,44.897305,90.357521,0.651127,0.271706,0.654950,0.270647
6270,-6.950504,6.979414,-0.057306,0.079678,0.005807,0.220411,90.452591,44.892361,90.357315,0.651110,0.271748,0.654944,0.270662
6271,-6.949449,6.978290,-0.054512,-0.032271,-0.128985,0.172974,90.451302,44.885830,90.354347,0.651104,0.271795,0.654918,0.270690
6272,-6.949960,6.981879,-0.055855,0.039127,-0.068028,0.246002,90.448090,44.878872,90.349640,0.651106,0.271843,0.654883,0.270721
6273,-6.956887,6.981736,-0.057547,0.120416,0.014639,-0.121043,90.449852,44.876804,90.348358,0.651100,0.271872,0.654880,0.270715
6274,-6.954883,6.983178,-0.056550,0.086850,-0.020829,-0.010671,90.453209,44.878994,90.348244,0.651098,0.271879,0.654892,0.270683
6275,-6.954540,6.971398,-0.060615,0.241438,0.124997,-0.462774,90.460464,44.886864,90.350777,0.651093,0.271861,0.654934,0.270611
6276,-6.955286,6.964172,-0.060010,0.170330,0.075005,-0.714696,90.470818,44.906464,90.355705,0.651105,0.271780,0.655016,0.270468
6277,-6.953025,6.962259,-0.056832,-0.014984,-0.101907,-0.511543,90.473122,44.926914,90.355316,0.651149,0.271679,0.655068,0.270336
6278,-6.947620,6.962239,-0.057577,0.005724,-0.080812,-0.078996,90.470016,44.936779,90.351128,0.651190,0.271629,0.655073,0.270274
6279,-6.945593,6.964247,-0.058871,0.060281,-0.018121,0.193374,90.469444,44.934879,90.348763,0.651192,0.271650,0.655062,0.270275
6280,-6.951114,6.970217,-0.055851,-0.066488,-0.141576,0.199873,90.466637,44.928349,90.344933,0.651192,0.271693,0.655031,0.270306
6281,-6.946916,6.969255,-0.055049,-0.075995,-0.162685,0.261919,90.459137,44.920689,90.337677,0.651209,0.271736,0.654978,0.270351
6282,-6.951594,6.972519,-0.058154,0.082370,-0.004339,0.121760,90.456413,44.914318,90.333672,0.651210,0.271780,0.654948,0.270380
6283,-6.950325,6.971760,-0.053791,-0.092673,-0.167048,0.080568,90.453369,44.910965,90.329605,0.651218,0.271805,0.654923,0.270394
6284,-6.949146,6.965491,-0.054599,-0.045123,-0.121568,-0.178954,90.446289,44.912647,90.322838,0.651255,0.271793,0.654894,0.270386
6285,-6.948420,6.971163,-0.060865,0.236183,0.177844,0.091478,90.450432,44.914101,90.324188,0.651246,0.271801,0.654911,0.270362
6286,-6.954772,6.973124,-0.062913,0.288373,0.240766,-0.068888,90.466118,44.913666,90.334023,0.651184,0.271836,0.654970,0.270331
6287,-6.949133,6.971725,-0.061844,0.166257,0.129532,0.096154,90.479843,44.913166,90.342728,0.651130,0.271867,0.655022,0.270305
6288,-6.946906,6.974219,-0.060724,0.053478,0.015652,0.289068,90.485863,44.906723,90.346077,0.651092,0.271919,0.655029,0.270326
6289,-6.946543,6.971797,-0.058543,-0.067316,-0.101434,0.158688,90.484154,44.899277,90.343979,0.651083,0.271964,0.655003,0.270366
6290,-6.941138,6.966693,-0.054215,-0.226406,-0.275716,0.101871,90.472961,44.894985,90.335052,0.651121,0.271976,0.654945,0.270404
6291,-6.937428,6.967228,-0.054270,-0.166677,-0.219669,0.245896,90.458130,44.889259,90.323334,0.651170,0.271991,0.654869,0.270455
6292,-6.941714,6.966902,-0.056034,-0.022381,-0.074892,-0.003833,90.450073,44.885265,90.316360,0.651196,0.272008,0.654824,0.270484
6293,-6.941460,6.968401,-0.058564,0.131174,0.064615,0.028009,90.451706,44.884853,90.316109,0.651191,0.272021,0.654826,0.270476
6294,-6.949308,6.973714,-0.059923,0.186292,0.098847,-0.081334,90.459724,44.885727,90.319969,0.651165,0.272040,0.654856,0.270447
6295,-6.948774,6.970114,-0.060146,0.154990,0.063660,-0.201286,90.468147,44.890411,90.323853,0.651147,0.272039,0.654896,0.270394
6296,-6.948932,6.966834,-0.062673,0.225714,0.128789,-0.316868,90.477753,44.899029,90.328476,0.651134,0.272018,0.654950,0.270316
6297,-6.951326,6.964823,-0.060904,0.111348,-0.001195,-0.416374,90.485603,44.911232,90.331627,0.651138,0.271975,0.655004,0.270220
6298,-6.954576,6.961009,-0.064691,0.223424,0.128917,-0.589437,90.493431,44.927963,90.334816,0.651152,0.271906,0.655069,0.270098
6299,-6.952128,6.963402,-0.062121,0.069655,-0.012120,-0.217831,90.500389,44.941406,90.337746,0.651161,0.271852,0.655124,0.269998
6300,-6.954803,6.966722,-0.062779,0.060730,-0.008928,-0.052248,90.502251,44.945911,90.337303,0.651168,0.271839,0.655138,0.269959
6301,-6.955715,6.970209,-0.061116,-0.033627,-0.091125,0.097138,90.501030,44.945179,90.334938,0.651175,0.271850,0.655128,0.269957
6302,-6.956423,6.962502,-0.062679,0.033563,-0.014958,-0.245637,90.499283,44.947666,90.332474,0.651191,0.271840,0.655123,0.269938
6303,-6.952641,6.961906,-0.058270,-0.134618,-0.196714,-0.094217,90.494141,44.953358,90.327576,0.651228,0.271806,0.655113,0.269908
6304,-6.955111,6.964439,-0.055669,-0.215324,-0.273734,-0.044181,90.480499,44.955734,90.316513,0.651292,0.271779,0.655060,0.269909
6305,-6.955634,6.959190,-0.055788,-0.154073,-0.212868,-0.255530,90.466293,44.960793,90.305115,0.651365,0.271734,0.655011,0.269897
6306,-6.952151,6.961679,-0.058743,0.051687,-0.018636,0.055667,90.460754,44.964161,90.299698,0.651399,0.271715,0.654993,0.269878
6307,-6.949336,6.967311,-0.060030,0.127498,0.060153,0.436778,90.464355,44.955944,90.300583,0.651369,0.271777,0.654985,0.269910
6308,-6.952026,6.964799,-0.062243,0.201494,0.125512,0.142154,90.472839,44.946259,90.304825,0.651315,0.271856,0.654992,0.269940
6309,-6.946115,6.960324,-0.068995,0.434544,0.356229,0.112925,90.491432,44.941952,90.316132,0.651234,0.271921,0.655053,0.269923
6310,-6.950175,6.959315,-0.069066,0.338658,0.268995,-0.138382,90.514709,44.942268,90.330849,0.651145,0.271968,0.655143,0.269872
6311,-6.953627,6.954731,-0.066226,0.105120,0.040538,-0.480382,90.527359,44.952541,90.338272,0.651122,0.271939,0.655215,0.269783
6312,-6.953368,6.957791,-0.062131,-0.120521,-0.187158,-0.245071,90.524765,44.964653,90.334976,0.651165,0.271874,0.655229,0.269710
6313,-6.952476,6.962696,-0.062246,-0.116878,-0.161949,0.117596,90.515022,44.966835,90.326782,0.651213,0.271853,0.655191,0.269707
6314,-6.958419,6.963891,-0.058500,-0.219699,-0.267761,-0.055100,90.502251,44.965855,90.316650,0.651265,0.271844,0.655135,0.269728
6315,-6.952594,6.963501,-0.063214,0.064441,-0.011013,0.156870,90.495010,44.964199,90.310059,0.651294,0.271850,0.655099,0.269741
6316,-6.952371,6.964438,-0.062971,0.082751,0.004462,0.198387,90.497307,44.958282,90.309830,0.651274,0.271898,0.655090,0.269761
6317,-6.950989,6.967960,-0.062472,0.040297,-0.038251,0.341092,90.498711,44.949291,90.308922,0.651252,0.271962,0.655070,0.269799
6318,-6.953951,6.966846,-0.063849,0.093415,0.006415,0.075860,90.500351,44.942348,90.308098,0.651233,0.272016,0.655056,0.269824
6319,-6.947826,6.962504,-0.068790,0.289111,0.209359,0.080321,90.510292,44.939713,90.313141,0.651191,0.272058,0.655085,0.269811
6320,-6.951743,6.969120,-0.061162,-0.086762,-0.149766,0.166549,90.514618,44.935593,90.314491,0.651168,0.272099,0.655089,0.269818
6321,-6.953503,6.970916,-0.065657,0.080647,0.024572,0.116161,90.512390,44.930893,90.311478,0.651169,0.272130,0.655065,0.269840
6322,-6.955789,6.963998,-0.066648,0.142912,0.085927,-0.297302,90.517982,44.933895,90.314117,0.651157,0.272130,0.655092,0.269806
6323,-6.956402,6.962607,-0.064245,0.030130,-0.033158,-0.352591,90.521843,44.944717,90.315498,0.651170,0.272082,0.655129,0.269730
6324,-6.960167,6.963832,-0.062027,-0.071857,-0.144062,-0.356486,90.518303,44.956566,90.311485,0.651217,0.272018,0.655139,0.269660
6325,-6.957556,6.966206,-0.062587,-0.044159,-0.101289,-0.039168,90.512337,44.963196,90.305786,0.651260,0.271978,0.655127,0.269624
6326,-6.959772,6.966078,-0.058288,-0.195819,-0.245407,-0.055957,90.502586,44.964836,90.297638,0.651306,0.271960,0.655088,0.269624
6327,-6.955102,6.968018,-0.059895,-0.080014,-0.131783,0.222921,90.491676,44.962097,90.288712,0.651347,0.271965,0.655035,0.269651
6328,-6.953528,6.962955,-0.055878,-0.192183,-0.246836,0.062431,90.480797,44.957401,90.279739,0.651382,0.271981,0.654977,0.269689
6329,-6.954317,6.966442,-0.054454,-0.200619,-0.257762,0.118294,90.465843,44.954460,90.267838,0.651439,0.271981,0.654907,0.269723
6330,-6.949373,6.964671,-0.054722,-0.109537,-0.178206,0.217645,90.453362,44.948914,90.257484,0.651479,0.272001,0.654840,0.269768
6331,-6.944876,6.959293,-0.053664,-0.091991,-0.159921,0.113672,90.444344,44.943439,90.249466,0.651507,0.272026,0.654787,0.269805
6332,-6.951338,6.958241,-0.053418,-0.064226,-0.122851,-0.246611,90.437050,44.945690,90.242836,0.651545,0.272010,0.654760,0.269796
6333,-6.948964,6.959161,-0.061210,0.282601,0.230651,-0.093243,90.442528,44.951347,90.245438,0.651539,0.271994,0.654792,0.269747
6334,-6.948139,6.959069,-0.060111,0.199237,0.167971,0.004346,90.457199,44.952778,90.254845,0.651486,0.272016,0.654852,0.269709
6335,-6.955060,6.958460,-0.061802,0.195593,0.163508,-0.286466,90.469330,44.957432,90.262703,0.651450,0.272013,0.654910,0.269657
6336,-6.955893,6.967978,-0.063284,0.198649,0.154596,0.123938,90.481224,44.960102,90.270233,0.651410,0.272022,0.654962,0.269617
6337,-6.952701,6.971065,-0.063233,0.134411,0.091356,0.403394,90.490799,44.951279,90.275917,0.651353,0.272095,0.654978,0.269645
6338,-6.950612,6.974144,-0.061394,0.012737,-0.024461,0.529751,90.494217,44.935707,90.277290,0.651304,0.272195,0.654953,0.269722
6339,-6.947271,6.977104,-0.063268,0.082378,0.027628,0.622942,90.495697,44.916492,90.277138,0.651255,0.272313,0.654911,0.269822
6340,-6.946756,6.981664,-0.061822,0.013794,-0.039161,0.633223,90.496925,44.895565,90.276604,0.651203,0.272443,0.654864,0.269932
6341,-6.942704,6.974758,-0.061733,0.003460,-0.037065,0.307638,90.495819,44.879898,90.274628,0.651172,0.272537,0.654820,0.270016
6342,-6.941867,6.969227,-0.056042,-0.207026,-0.271028,-0.031136,90.487267,44.875332,90.267319,0.651199,0.272556,0.654772,0.270049
6343,-6.942568,6.975160,-0.054742,-0.221341,-0.285339,0.127027,90.470879,44.873817,90.254219,0.651265,0.272546,0.654699,0.270077
6344,-6.943192,6.970129,-0.056550,-0.064267,-0.121863,-0.119726,90.459366,44.873749,90.244644,0.651315,0.272536,0.654649,0.270089
6345,-6.944240,6.963099,-0.060169,0.157523,0.088739,-0.448680,90.460434,44.883224,90.243965,0.651337,0.272492,0.654672,0.270025
6346,-6.949663,6.966941,-0.061963,0.232339,0.146783,-0.416424,90.470963,44.897621,90.249687,0.651333,0.272437,0.654744,0.269915
6347,-6.949158,6.972948,-0.069801,0.495981,0.420535,-0.022712,90.492569,44.904850,90.263100,0.651267,0.272442,0.654843,0.269827
6348,-6.952431,6.969839,-0.072625,0.512642,0.421924,-0.201410,90.523415,44.908466,90.282974,0.651156,0.272483,0.654972,0.269743
6349,-6.958329,6.966620,-0.067664,0.156245,0.058937,-0.531572,90.542671,44.920605,90.294456,0.651112,0.272458,0.655072,0.269629
6350,-6.953084,6.973613,-0.064089,-0.091796,-0.185677,0.090996,90.541710,44.927971,90.291573,0.651139,0.272427,0.655080,0.269576
6351,-6.944407,6.974738,-0.059957,-0.257720,-0.343647,0.571611,90.526993,44.917019,90.278961,0.651177,0.272478,0.654990,0.269651
6353,-6.944626,6.972412,-0.059112,-0.227050,-0.301376,0.353793,90.508049,44.901684,90.263588,0.651222,0.272545,0.654873,0.269759
6354,-6.946054,6.976023,-0.054928,-0.299766,-0.366766,0.283020,90.488083,44.891171,90.247734,0.651281,0.272582,0.654764,0.269843
6355,-6.944466,6.980198,-0.061295,0.062968,-0.010363,0.412358,90.477776,44.879631,90.238724,0.651299,0.272641,0.654692,0.269917
6356,-6.946358,6.972230,-0.063602,0.214254,0.134328,-0.113248,90.484413,44.874634,90.241585,0.651265,0.272691,0.654702,0.269923
6357,-6.951898,6.965953,-0.064050,0.200151,0.121796,-0.655492,90.495689,44.887405,90.247757,0.651254,0.272647,0.654773,0.269821
6358,-6.950608,6.965992,-0.061978,0.052007,-0.028827,-0.461887,90.501595,44.906017,90.250183,0.651279,0.272561,0.654836,0.269695
6359,-6.947869,6.959289,-0.062516,0.051620,-0.048834,-0.424756,90.502151,44.920799,90.248528,0.651317,0.272489,0.654868,0.269598
6360,-6.946511,6.956697,-0.054170,-0.297738,-0.390265,-0.332147,90.490868,44.933483,90.238350,0.651398,0.272411,0.654847,0.269533
6361,-6.945081,6.963839,-0.052232,-0.320442,-0.405805,0.151642,90.467346,44.936600,90.219643,0.651506,0.272366,0.654755,0.269543
6362,-6.946510,6.963808,-0.052860,-0.178189,-0.270293,0.126228,90.447762,44.932072,90.203690,0.651579,0.272372,0.654660,0.269590
6363,-6.948245,6.971084,-0.056162,0.069010,-0.029852,0.300043,90.440895,44.924999,90.196533,0.651595,0.272414,0.654610,0.269629
6364,-6.952371,6.975539,-0.057090,0.120347,0.052850,0.234518,90.444366,44.916088,90.196976,0.651565,0.272482,0.654599,0.269662
6365,-6.956004,6.979187,-0.058128,0.147545,0.076206,0.142570,90.450935,44.909790,90.199944,0.651527,0.272538,0.654607,0.269678
6366,-6.957116,6.978605,-0.055134,-0.022169,-0.089509,0.014751,90.452766,44.907158,90.199600,0.651517,0.272566,0.654604,0.269680
6367,-6.958055,6.983492,-0.052993,-0.119633,-0.193214,0.152033,90.445694,44.904427,90.192924,0.651543,0.272579,0.654565,0.269698
6368,-6.960433,6.979046,-0.049893,-0.207271,-0.282954,-0.151434,90.432320,44.904465,90.181702,0.651601,0.272567,0.654507,0.269710
6369,-6.956440,6.975058,-0.048486,-0.184861,-0.265108,-0.149277,90.416725,44.909554,90.168861,0.651681,0.272523,0.654452,0.269697
6370,-6.955135,6.976415,-0.057383,0.262488,0.169824,0.013471,90.416451,44.911823,90.166641,0.651692,0.272521,0.654451,0.269673
6371,-6.954020,6.973990,-0.057599,0.281197,0.192874,-0.025120,90.431549,44.911972,90.175171,0.651636,0.272557,0.654507,0.269635
6372,-6.952531,6.970526,-0.057685,0.219393,0.129154,-0.107087,90.445251,44.914139,90.182770,0.651591,0.272579,0.654563,0.269588
6373,-6.951158,6.971103,-0.062120,0.322619,0.238926,-0.000098,90.460419,44.915874,90.191460,0.651539,0.272606,0.654623,0.269540
6374,-6.954538,6.973940,-0.063272,0.292990,0.197151,-0.003305,90.477936,44.915871,90.201729,0.651473,0.272647,0.654689,0.269499
6375,-6.953121,6.970627,-0.058419,-0.007310,-0.092288,-0.069693,90.484444,44.917072,90.204216,0.651455,0.272663,0.654713,0.269469
6376,-6.958186,6.976556,-0.062260,0.114618,0.032726,-0.017893,90.485268,44.918545,90.202835,0.651459,0.272667,0.654715,0.269448
6377,-6.956934,6.979788,-0.069234,0.387378,0.323172,0.167289,90.499519,44.916004,90.211182,0.651400,0.272715,0.654762,0.269428
6378,-6.958198,6.976099,-0.060933,-0.013838,-0.081898,-0.067077,90.509743,44.914291,90.216835,0.651358,0.272750,0.654796,0.269412
6379,-6.959731,6.976982,-0.063614,0.040413,-0.025172,-0.115141,90.508438,44.917347,90.214363,0.651374,0.272740,0.654794,0.269388
6380,-6.957149,6.978445,-0.061160,-0.051563,-0.110544,0.072529,90.505997,44.918076,90.211174,0.651389,0.272740,0.654782,0.269379
6381,-6.959195,6.975059,-0.057213,-0.199106,-0.267208,-0.155739,90.495552,44.919518,90.202293,0.651438,0.272723,0.654740,0.269380
6382,-6.959556,6.977425,-0.050958,-0.385252,-0.485503,-0.048848,90.473335,44.923031,90.184624,0.651541,0.272678,0.654654,0.269387
6383,-6.960655,6.977931,-0.058572,0.022606,-0.064978,-0.023844,90.458145,44.924316,90.171669,0.651611,0.272658,0.654590,0.269393
6384,-6.955565,6.979794,-0.055832,-0.022296,-0.098228,0.269862,90.455406,44.920238,90.167778,0.651617,0.272688,0.654565,0.269409
6385,-6.957308,6.979040,-0.058995,0.124956,0.044423,0.127852,90.456169,44.913612,90.166443,0.651602,0.272738,0.654548,0.269435
6386,-6.949800,6.978333,-0.063678,0.305256,0.228881,0.354157,90.467819,44.905544,90.172783,0.651540,0.272814,0.654572,0.269451
6387,-6.950415,6.977521,-0.061759,0.154333,0.095556,0.221376,90.480789,44.895912,90.180313,0.651469,0.272899,0.654598,0.269474
6388,-6.952228,6.981600,-0.056257,-0.128122,-0.193528,0.210657,90.479538,44.888733,90.177925,0.651460,0.272947,0.654572,0.269509
6389,-6.952460,6.979165,-0.054328,-0.197473,-0.267151,0.033885,90.466415,44.884716,90.167023,0.651507,0.272957,0.654506,0.269545
6390,-6.953406,6.977176,-0.053256,-0.173694,-0.244748,-0.131997,90.451759,44.886421,90.155014,0.651575,0.272933,0.654447,0.269551
6391,-6.955442,6.977600,-0.053776,-0.077247,-0.142930,-0.186676,90.441185,44.891785,90.145958,0.651634,0.272894,0.654413,0.269529
6392,-6.955643,6.972375,-0.051358,-0.131323,-0.181330,-0.353282,90.432381,44.900814,90.138412,0.651694,0.272835,0.654396,0.269485
6393,-6.956223,6.972816,-0.053177,-0.009366,-0.071322,-0.273575,90.425919,44.911297,90.132584,0.651748,0.272772,0.654391,0.269429
6394,-6.957385,6.979193,-0.053694,0.042329,-0.005166,0.049565,90.425224,44.915039,90.130814,0.651763,0.272757,0.654394,0.269401
6395,-6.953361,6.983802,-0.054596,0.075455,0.036868,0.444862,90.427650,44.906799,90.131485,0.651736,0.272814,0.654382,0.269438
6396,-6.953330,6.985003,-0.049536,-0.130157,-0.191175,0.419244,90.424072,44.892418,90.127701,0.651719,0.272897,0.654331,0.269519
6397,-6.951653,6.988965,-0.053371,0.042990,-0.016473,0.511376,90.419067,44.876942,90.122650,0.651706,0.272986,0.654271,0.269607
6398,-6.946105,6.974083,-0.049381,-0.091741,-0.156160,-0.014827,90.415321,44.868675,90.118500,0.651705,0.273035,0.654233,0.269652
6399,-6.949279,6.964455,-0.052671,0.064131,-0.022182,-0.619608,90.411980,44.879276,90.114418,0.651748,0.272979,0.654240,0.269588
6400,-6.950636,6.966529,-0.051977,0.065367,-0.029006,-0.486008,90.413422,44.897713,90.113403,0.651791,0.272888,0.654284,0.269469
6401,-6.951822,6.967194,-0.053567,0.108236,0.030128,-0.315525,90.416412,44.911060,90.113556,0.651815,0.272828,0.654323,0.269376
6402,-6.955637,6.964800,-0.052667,0.061339,-0.022032,-0.442117,90.419472,44.923687,90.113876,0.651837,0.272772,0.654360,0.269288
6403,-6.957877,6.974276,-0.056344,0.182303,0.118479,-0.030711,90.425194,44.931561,90.116226,0.651837,0.272746,0.654398,0.269224
6404,-6.953820,6.967367,-0.056616,0.164051,0.115291,-0.070189,90.434860,44.933220,90.121758,0.651805,0.272760,0.654437,0.269191
6405,-6.951255,6.957738,-0.058838,0.202752,0.157906,-0.343780,90.445580,44.940090,90.128258,0.651781,0.272745,0.654494,0.269128
6406,-6.955900,6.950871,-0.062643,0.317433,0.267677,-0.747481,90.461479,44.958221,90.138489,0.651762,0.272674,0.654598,0.268992
6407,-6.953483,6.951947,-0.065133,0.343233,0.289969,-0.421693,90.481934,44.977623,90.151855,0.651729,0.272603,0.654723,0.268840
6408,-6.958213,6.954198,-0.063416,0.178317,0.116896,-0.318198,90.497498,44.989895,90.161583,0.651698,0.272566,0.654812,0.268736
6409,-6.958776,6.965962,-0.060801,-0.005395,-0.073905,0.260080,90.501122,44.990864,90.162621,0.651689,0.272575,0.654825,0.268716
6410,-6.962965,6.972413,-0.059204,-0.091436,-0.160538,0.364187,90.495499,44.980495,90.156960,0.651691,0.272635,0.654774,0.268775
6411,-6.957045,6.976491,-0.058021,-0.116514,-0.179897,0.662283,90.486214,44.963436,90.148735,0.651692,0.272726,0.654693,0.268879
6412,-6.956725,6.983104,-0.061886,0.086642,0.028508,0.775971,90.483002,44.939491,90.144890,0.651651,0.272866,0.654620,0.269012
6413,-6.952936,6.980364,-0.064342,0.206461,0.140194,0.575497,90.490501,44.916935,90.148575,0.651570,0.273016,0.654594,0.269119
6414,-6.950654,6.981329,-0.065628,0.227658,0.155881,0.482530,90.502502,44.899258,90.155327,0.651484,0.273146,0.654597,0.269189
6415,-6.953525,6.984161,-0.068941,0.308956,0.247506,0.305686,90.518036,44.886063,90.164673,0.651393,0.273256,0.654625,0.269229
6416,-6.959899,6.982203,-0.065437,0.087456,0.020990,-0.162273,90.529068,44.883629,90.170952,0.651346,0.273297,0.654660,0.269215
6417,-6.960803,6.974647,-0.061821,-0.112501,-0.189265,-0.541113,90.525963,44.895378,90.167137,0.651391,0.273234,0.654671,0.269145
6418,-6.960116,6.977450,-0.062297,-0.089030,-0.155907,-0.274363,90.517006,44.909027,90.159203,0.651463,0.273151,0.654663,0.269073
6419,-6.962772,6.967410,-0.059431,-0.161466,-0.228539,-0.643330,90.506577,44.924377,90.150345,0.651546,0.273055,0.654653,0.268994
6420,-6.958101,6.963571,-0.055240,-0.272963,-0.367009,-0.443798,90.489594,44.942577,90.136543,0.651662,0.272934,0.654623,0.268909
6421,-6.955528,6.962435,-0.058083,-0.058142,-0.173431,-0.204890,90.475159,44.953465,90.123932,0.651752,0.272862,0.654585,0.268858
6422,-6.955682,6.962565,-0.055796,-0.084764,-0.189927,-0.097593,90.466774,44.958561,90.115440,0.651804,0.272833,0.654557,0.268828
6423,-6.951301,6.954756,-0.052566,-0.161171,-0.274563,-0.195676,90.454987,44.963509,90.104561,0.651870,0.272800,0.654515,0.268805
6424,-6.951278,6.956247,-0.055702,0.026623,-0.086092,-0.093486,90.446785,44.968380,90.096123,0.651921,0.272774,0.654487,0.268776
6425,-6.956764,6.956361,-0.057851,0.151603,0.035899,-0.277131,90.448967,44.974564,90.095016,0.651933,0.272758,0.654504,0.268722
6426,-6.953340,6.955527,-0.053328,-0.056074,-0.153483,-0.108552,90.448647,44.981007,90.092316,0.651956,0.272735,0.654511,0.268672
6427,-6.954798,6.958052,-0.054445,-0.003184,-0.108940,0.010480,90.443298,44.982677,90.086143,0.651987,0.272730,0.654488,0.268658
6428,-6.961606,6.967564,-0.057241,0.138615,0.038349,0.151770,90.444374,44.979984,90.084457,0.651982,0.272761,0.654480,0.268658
6429,-6.964674,6.969738,-0.054409,0.011483,-0.083104,0.092575,90.446106,44.975914,90.083366,0.651970,0.272800,0.654472,0.268665
6430,-6.958562,6.967889,-0.052365,-0.092915,-0.166543,0.225937,90.440544,44.970638,90.077415,0.651985,0.272833,0.654433,0.268693
6431,-6.959304,6.971816,-0.054677,0.016590,-0.039775,0.296224,90.435776,44.961960,90.072464,0.651987,0.272883,0.654389,0.268741
6432,-6.955179,6.972854,-0.050748,-0.126110,-0.181372,0.412671,90.430176,44.950172,90.067131,0.651985,0.272949,0.654336,0.268810
6433,-6.948724,6.969749,-0.046285,-0.285643,-0.340484,0.419277,90.414536,44.936375,90.054710,0.652018,0.273009,0.654237,0.268908
6434,-6.947921,6.976369,-0.050383,-0.043431,-0.096060,0.576620,90.401657,44.919819,90.044243,0.652034,0.273090,0.654144,0.269016
6435,-6.950271,6.973413,-0.050781,0.044475,-0.011194,0.204698,90.399818,44.906818,90.041603,0.652014,0.273169,0.654102,0.269086
6436,-6.948548,6.972844,-0.053399,0.164928,0.105213,0.131372,90.404831,44.901207,90.043762,0.651983,0.273217,0.654106,0.269101
6437,-6.947910,6.961737,-0.062040,0.507381,0.433900,-0.354954,90.425018,44.904869,90.056480,0.651914,0.273238,0.654193,0.269038
6438,-6.953338,6.958354,-0.064783,0.503555,0.447375,-0.683710,90.456650,44.922066,90.077408,0.651831,0.273201,0.654357,0.268878
6439,-6.949749,6.954381,-0.060250,0.165609,0.102371,-0.523253,90.477081,44.942101,90.090569,0.651799,0.273128,0.654483,0.268722
6440,-6.949360,6.961021,-0.060498,0.060369,0.005916,-0.038727,90.482735,44.951454,90.093239,0.651802,0.273091,0.654525,0.268651
6441,-6.951331,6.963091,-0.058852,-0.028890,-0.094542,0.052855,90.481789,44.951241,90.091156,0.651808,0.273099,0.654517,0.268646
6442,-6.950358,6.969635,-0.057884,-0.070821,-0.135356,0.362871,90.476234,44.944336,90.085655,0.651818,0.273138,0.654475,0.268686
6443,-6.948038,6.976998,-0.059787,0.046550,-0.041413,0.704051,90.472748,44.926579,90.081284,0.651794,0.273245,0.654414,0.268782
6444,-6.948016,6.975948,-0.060266,0.097923,-0.005767,0.481121,90.474220,44.906837,90.079956,0.651746,0.273373,0.654369,0.268879
6445,-6.949702,6.976266,-0.060056,0.094049,-0.017857,0.219712,90.476913,44.895149,90.079247,0.651713,0.273459,0.654346,0.268926
6446,-6.949298,6.971106,-0.066545,0.343760,0.231353,-0.096851,90.487747,44.893070,90.084259,0.651671,0.273504,0.654378,0.268905
6447,-6.956160,6.970414,-0.063776,0.172400,0.076048,-0.442136,90.501541,44.902016,90.091606,0.651642,0.273489,0.654449,0.268817
6448,-6.960374,6.961154,-0.061663,0.016499,-0.077354,-0.917203,90.504852,44.924667,90.091843,0.651688,0.273378,0.654510,0.268670
6449,-6.963300,6.960022,-0.065570,0.152076,0.075128,-0.857615,90.507896,44.954258,90.092171,0.651751,0.273225,0.654587,0.268486
6450,-6.962082,6.956684,-0.063613,0.063608,-0.015789,-0.641417,90.512703,44.979229,90.093887,0.651795,0.273100,0.654661,0.268325
6451,-6.959577,6.959803,-0.057307,-0.207518,-0.291552,-0.147861,90.505295,44.992420,90.086800,0.651861,0.273023,0.654658,0.268252
6452,-6.958188,6.964592,-0.058618,-0.118229,-0.208106,0.245692,90.491531,44.990868,90.075005,0.651918,0.273021,0.654594,0.268272
6453,-6.951639,6.968320,-0.059231,-0.022400,-0.102750,0.648011,90.483879,44.976013,90.067497,0.651918,0.273105,0.654523,0.268358
6454,-6.948182,6.967702,-0.057238,-0.070560,-0.155790,0.619362,90.477852,44.954933,90.061157,0.651897,0.273227,0.654445,0.268477
6456,-6.951346,6.970209,-0.056337,-0.082898,-0.171643,0.370250,90.469719,44.938488,90.053261,0.651895,0.273320,0.654368,0.268572
6457,-6.959316,6.969912,-0.060458,0.124638,0.037406,-0.142617,90.468140,44.934704,90.050056,0.651898,0.273351,0.654348,0.268585
6458,-6.958307,6.966323,-0.060432,0.135763,0.054952,-0.285011,90.474068,44.941807,90.052299,0.651895,0.273331,0.654384,0.268523
6459,-6.961387,6.964397,-0.061086,0.136644,0.044047,-0.402870,90.480362,44.953262,90.054771,0.651902,0.273287,0.654431,0.268436
6460,-6.961943,6.960205,-0.060002,0.057428,-0.031140,-0.483480,90.483940,44.968040,90.055260,0.651927,0.273221,0.654476,0.268334
6461,-6.956533,6.961224,-0.062075,0.106283,0.039439,-0.064918,90.486885,44.977177,90.055557,0.651941,0.273184,0.654504,0.268266
