seq,ax,ay,az,wroll,wpitch,wyaw,roll,pitch,yaw,q0,q1,q2,q3
6064,-6.949678,6.970920,-0.055531,-0.029379,-0.116297,0.039092,90.456421,44.911671,90.646454,0.650463,0.270006,0.655681,0.272172
6066,-6.950528,6.979657,-0.055861,-0.050700,-0.091984,0.057555,90.451683,44.909283,90.641594,0.650480,0.270021,0.655653,0.272185
6067,-6.953019,6.984048,-0.053626,-0.043069,-0.084354,0.057555,90.446922,44.905632,90.637245,0.650492,0.270039,0.655623,0.272208
6068,-6.951545,6.990013,-0.053612,-0.043069,-0.082828,0.054503,90.442223,44.901230,90.632950,0.650503,0.270062,0.655591,0.272236
6069,-6.947384,6.983053,-0.061234,-0.032387,-0.105717,0.048400,90.439140,44.896698,90.629425,0.650508,0.270091,0.655565,0.272260
6070,-6.952426,6.982500,-0.060119,-0.029336,-0.098087,0.039244,90.437569,44.893501,90.626633,0.650510,0.270116,0.655547,0.272271
6071,-6.953138,6.977568,-0.064219,-0.033914,-0.108769,0.034666,90.436668,44.891884,90.624298,0.650514,0.270133,0.655536,0.272272
6073,-6.954991,6.972416,-0.063639,-0.030861,-0.105717,0.039244,90.438576,44.892563,90.623863,0.650512,0.270143,0.655541,0.272255
6074,-6.954257,6.968608,-0.060845,-0.030861,-0.110295,0.048400,90.441345,44.895256,90.623985,0.650512,0.270143,0.655554,0.272224
6075,-6.955791,6.965793,-0.059782,-0.040018,-0.110295,0.039244,90.442093,44.899323,90.622726,0.650523,0.270131,0.655562,0.272190
6076,-6.954386,6.967802,-0.059400,-0.049174,-0.111820,0.039244,90.441734,44.903385,90.620903,0.650538,0.270116,0.655567,0.272158
6077,-6.957136,6.965666,-0.057758,-0.044596,-0.104191,0.046874,90.440559,44.907234,90.618622,0.650555,0.270101,0.655567,0.272130
6078,-6.952226,6.968765,-0.060568,-0.033915,-0.113346,0.042296,90.440155,44.909973,90.616684,0.650568,0.270094,0.655568,0.272106
6080,-6.957541,6.963772,-0.061135,-0.033915,-0.117924,0.037718,90.441193,44.913025,90.615479,0.650575,0.270089,0.655575,0.272076
6081,-6.958365,6.962824,-0.061268,-0.033915,-0.108769,0.045348,90.442574,44.918209,90.614571,0.650587,0.270073,0.655588,0.272033
6082,-6.952761,6.966758,-0.063104,-0.023232,-0.107243,0.049926,90.444969,44.921169,90.614372,0.650589,0.270070,0.655600,0.272001
6083,-6.954305,6.964642,-0.062042,-0.024759,-0.108769,0.051451,90.447662,44.922428,90.614281,0.650586,0.270079,0.655609,0.271978
6084,-6.956281,6.965212,-0.058464,-0.036965,-0.105717,0.049926,90.447983,44.924519,90.612701,0.650594,0.270078,0.655611,0.271956
6085,-6.951335,6.973963,-0.052368,-0.030861,-0.105717,0.049926,90.444092,44.923950,90.608238,0.650612,0.270085,0.655590,0.271956
6087,-6.954061,6.978463,-0.050619,-0.020181,-0.113347,0.057555,90.437279,44.920013,90.601433,0.650635,0.270107,0.655549,0.271978
6088,-6.956816,6.976446,-0.048737,-0.018655,-0.111821,0.045348,90.429588,44.917000,90.593803,0.650664,0.270125,0.655505,0.271996
6089,-6.951356,6.978194,-0.046593,-0.011025,-0.110295,0.042296,90.421204,44.914101,90.585602,0.650696,0.270140,0.655460,0.272014
6090,-6.949686,6.973199,-0.049564,-0.007974,-0.110295,0.042296,90.414169,44.910740,90.578247,0.650722,0.270162,0.655418,0.272032
6091,-6.948737,6.969001,-0.053153,-0.011025,-0.104191,0.036192,90.410728,44.909122,90.573494,0.650738,0.270178,0.655395,0.272034
6092,-6.941600,6.962400,-0.051081,-0.018655,-0.102665,0.046874,90.408394,44.908226,90.569756,0.650750,0.270192,0.655378,0.272031
6094,-6.941430,6.961568,-0.053848,-0.029336,-0.104191,0.062133,90.406357,44.907055,90.566422,0.650760,0.270206,0.655363,0.272030
6095,-6.945153,6.965662,-0.057419,-0.040018,-0.101139,0.046874,90.406815,44.906029,90.565132,0.650759,0.270222,0.655358,0.272026
6096,-6.944924,6.956944,-0.056432,-0.047648,-0.104191,0.043822,90.408127,44.907097,90.564667,0.650760,0.270226,0.655363,0.272010
6097,-6.942339,6.964300,-0.060137,-0.041544,-0.093510,0.045348,90.410583,44.907879,90.565102,0.650755,0.270233,0.655372,0.271994
6098,-6.945311,6.966774,-0.064415,-0.056802,-0.096561,0.030089,90.416061,44.906837,90.567879,0.650733,0.270254,0.655389,0.271984
6099,-6.949346,6.968526,-0.069072,-0.046122,-0.105717,0.022459,90.424530,44.906765,90.572670,0.650701,0.270275,0.655420,0.271964
6101,-6.949268,6.973403,-0.071009,-0.041544,-0.104191,0.030089,90.435104,44.906185,90.578690,0.650661,0.270304,0.655458,0.271940
6102,-6.950685,6.982440,-0.073104,-0.026285,-0.099613,0.039244,90.446777,44.902767,90.585312,0.650609,0.270352,0.655493,0.271931
6103,-6.952560,6.976489,-0.070112,-0.030861,-0.104191,0.049926,90.457130,44.899277,90.590889,0.650563,0.270399,0.655523,0.271923
6104,-6.951293,6.976478,-0.075030,-0.014077,-0.102665,0.046874,90.467339,44.897339,90.596169,0.650522,0.270437,0.655555,0.271906
6105,-6.945127,6.972638,-0.074909,-0.024759,-0.091984,0.052977,90.478813,44.894871,90.602409,0.650474,0.270481,0.655591,0.271890
6106,-6.945382,6.964144,-0.073811,-0.024759,-0.090458,0.051452,90.488754,44.893852,90.607841,0.650435,0.270512,0.655625,0.271869
6108,-6.942073,6.964346,-0.070618,-0.038492,-0.084354,0.045348,90.495827,44.894234,90.611511,0.650411,0.270529,0.655652,0.271848
6109,-6.944502,6.964316,-0.068372,-0.040018,-0.090458,0.033141,90.499550,44.894737,90.612991,0.650399,0.270539,0.655665,0.271832
6110,-6.943231,6.964827,-0.065457,-0.038492,-0.084354,0.040770,90.500610,44.895424,90.612595,0.650400,0.270543,0.655668,0.271820
6111,-6.944204,6.962504,-0.062096,-0.023232,-0.084354,0.043822,90.499222,44.896191,90.610344,0.650410,0.270544,0.655662,0.271810
6112,-6.945793,6.959716,-0.057177,-0.017129,-0.079776,0.062133,90.494911,44.898129,90.605820,0.650436,0.270534,0.655645,0.271798
6113,-6.951653,6.962950,-0.061388,-0.024759,-0.093509,0.062133,90.490402,44.901070,90.601067,0.650465,0.270519,0.655630,0.271780
6115,-6.948459,6.957771,-0.061680,-0.033915,-0.102665,0.062133,90.487534,44.904705,90.597412,0.650489,0.270503,0.655623,0.271755
6116,-6.951593,6.952867,-0.055460,-0.038492,-0.108769,0.054504,90.482147,44.910229,90.591957,0.650528,0.270472,0.655610,0.271724
6117,-6.954027,6.956191,-0.056234,-0.047648,-0.119450,0.042296,90.474434,44.917095,90.584824,0.650580,0.270430,0.655591,0.271688
6118,-6.956595,6.964143,-0.060637,-0.056802,-0.125554,0.020933,90.468887,44.922611,90.579231,0.650619,0.270399,0.655577,0.271657
6119,-6.953354,6.959348,-0.056108,-0.055277,-0.116398,0.031615,90.463867,44.926895,90.574142,0.650654,0.270375,0.655563,0.271632
6120,-6.957143,6.961795,-0.061967,-0.046121,-0.111820,0.033141,90.460327,44.931076,90.570145,0.650682,0.270354,0.655555,0.271606
6122,-6.956346,6.965067,-0.062201,-0.052225,-0.117924,0.046874,90.459717,44.934010,90.568146,0.650695,0.270345,0.655556,0.271581
6123,-6.949229,6.968244,-0.060030,-0.040018,-0.117924,0.063659,90.458504,44.933125,90.565582,0.650702,0.270358,0.655545,0.271579
6124,-6.946789,6.975439,-0.053253,-0.043069,-0.117924,0.065185,90.453819,44.927746,90.560455,0.650712,0.270392,0.655509,0.271607
6125,-6.947203,6.969851,-0.052284,-0.023232,-0.114872,0.062133,90.446579,44.921970,90.553368,0.650732,0.270424,0.655462,0.271641
6126,-6.943968,6.975752,-0.049587,-0.027811,-0.104191,0.056029,90.438904,44.916271,90.545959,0.650754,0.270455,0.655413,0.271675
6127,-6.946464,6.977543,-0.052890,-0.015603,-0.096561,0.051452,90.432632,44.909580,90.539658,0.650767,0.270494,0.655368,0.271714
6129,-6.953893,6.976131,-0.051696,-0.018655,-0.088932,0.037718,90.428337,44.905777,90.534836,0.650780,0.270519,0.655337,0.271732
6130,-6.953326,6.967137,-0.057451,-0.017129,-0.087406,0.045348,90.426605,44.906155,90.531944,0.650791,0.270523,0.655327,0.271724
6131,-6.949822,6.972913,-0.056677,-0.027811,-0.090457,0.036193,90.427040,44.906528,90.530670,0.650794,0.270531,0.655326,0.271712
6132,-6.949219,6.968355,-0.060874,-0.023232,-0.102665,0.048400,90.428596,44.905720,90.530083,0.650790,0.270548,0.655327,0.271704
6133,-6.953202,6.970027,-0.060588,-0.029336,-0.098087,0.054503,90.431526,44.905910,90.530388,0.650783,0.270561,0.655335,0.271688
6134,-6.950241,6.968251,-0.056312,-0.044596,-0.093509,0.051452,90.432144,44.906322,90.529419,0.650785,0.270568,0.655335,0.271677
6136,-6.949660,6.968850,-0.055580,-0.044596,-0.093509,0.057555,90.430336,44.906162,90.526978,0.650794,0.270573,0.655325,0.271674
6137,-6.949675,6.972555,-0.058240,-0.036965,-0.095035,0.066710,90.429489,44.904747,90.525093,0.650797,0.270587,0.655315,0.271677
6138,-6.952185,6.968921,-0.055144,-0.035440,-0.095035,0.057555,90.428711,44.903900,90.523148,0.650802,0.270598,0.655306,0.271675
6139,-6.947498,6.963974,-0.059507,-0.038492,-0.107243,0.036192,90.428337,44.905003,90.521355,0.650810,0.270600,0.655304,0.271660
6140,-6.946488,6.962580,-0.061775,-0.033915,-0.105717,0.045348,90.430626,44.906410,90.521309,0.650808,0.270605,0.655312,0.271639
6141,-6.945336,6.957364,-0.061743,-0.023232,-0.105717,0.039244,90.434044,44.908554,90.521881,0.650804,0.270609,0.655327,0.271611
6143,-6.950473,6.956218,-0.061834,-0.033914,-0.113346,0.036192,90.437088,44.912811,90.522125,0.650806,0.270601,0.655344,0.271570
6144,-6.951666,6.960414,-0.057888,-0.035440,-0.105717,0.045348,90.438004,44.917313,90.520988,0.650817,0.270587,0.655354,0.271533
6145,-6.954465,6.967031,-0.053012,-0.040018,-0.101139,0.056029,90.435158,44.919670,90.517410,0.650838,0.270578,0.655345,0.271515
6146,-6.958015,6.964514,-0.053794,-0.040018,-0.116398,0.046874,90.430466,44.922127,90.512466,0.650867,0.270565,0.655328,0.271500
6147,-6.961715,6.967210,-0.057603,-0.049173,-0.111821,0.037718,90.427711,44.926098,90.508865,0.650892,0.270548,0.655322,0.271473
6148,-6.961709,6.966167,-0.056998,-0.038492,-0.104191,0.027037,90.426857,44.930492,90.506737,0.650909,0.270530,0.655325,0.271441
6150,-6.961542,6.965337,-0.059524,-0.033915,-0.107243,0.022459,90.427315,44.935062,90.505432,0.650922,0.270514,0.655333,0.271404
6151,-6.959732,6.963863,-0.058885,-0.023232,-0.099613,0.014829,90.428925,44.939468,90.504791,0.650931,0.270502,0.655346,0.271367
6152,-6.956390,6.969888,-0.055343,-0.024759,-0.090458,0.019407,90.429115,44.941467,90.503250,0.650939,0.270500,0.655347,0.271345
6153,-6.952435,6.969731,-0.055150,-0.024759,-0.090458,0.030089,90.427788,44.940201,90.500748,0.650945,0.270514,0.655335,0.271346
6154,-6.951097,6.965178,-0.060539,-0.027811,-0.087406,0.034667,90.428673,44.938507,90.499893,0.650941,0.270534,0.655332,0.271346
6155,-6.955294,6.969321,-0.056045,-0.029336,-0.081302,0.040770,90.430000,44.937439,90.499504,0.650936,0.270550,0.655331,0.271342
6157,-6.954066,6.967249,-0.056018,-0.032387,-0.090458,0.046874,90.429245,44.936520,90.497665,0.650940,0.270561,0.655323,0.271341
6158,-6.952801,6.962848,-0.056347,-0.032387,-0.096562,0.046874,90.428299,44.936405,90.495544,0.650947,0.270568,0.655316,0.271335
6159,-6.955011,6.966416,-0.056154,-0.014077,-0.108769,0.037718,90.427498,44.936867,90.493095,0.650955,0.270575,0.655309,0.271323
6160,-6.956394,6.973125,-0.058363,-0.007974,-0.102665,0.034667,90.427879,44.936142,90.491127,0.650957,0.270593,0.655304,0.271314
6161,-6.950583,6.971010,-0.060302,-0.007974,-0.104191,0.028563,90.430161,44.933716,90.490471,0.650948,0.270623,0.655302,0.271311
6162,-6.947444,6.969903,-0.060724,-0.003396,-0.098087,0.030089,90.433434,44.930336,90.490532,0.650932,0.270661,0.655302,0.271312
6164,-6.953240,6.975824,-0.063735,-0.000344,-0.093509,0.027037,90.438141,44.926826,90.491631,0.650910,0.270701,0.655307,0.271311
6165,-6.949150,6.980577,-0.061020,-0.018655,-0.084354,0.045348,90.442505,44.921566,90.492828,0.650884,0.270749,0.655308,0.271323
6166,-6.949732,6.973392,-0.054989,-0.026285,-0.088932,0.054503,90.442459,44.916073,90.491280,0.650874,0.270789,0.655292,0.271346
6167,-6.945712,6.972687,-0.050335,-0.015603,-0.090458,0.046874,90.437790,44.912022,90.486343,0.650887,0.270814,0.655260,0.271367
6168,-6.947192,6.976609,-0.051334,-0.014077,-0.088932,0.046874,90.432045,44.907398,90.480515,0.650903,0.270841,0.655222,0.271394
6169,-6.949036,6.966422,-0.054840,0.001182,-0.081302,0.049926,90.429138,44.905121,90.476593,0.650914,0.270860,0.655200,0.271401
6171,-6.951469,6.953907,-0.056785,0.008811,-0.093510,0.034666,90.429268,44.908936,90.474503,0.650928,0.270851,0.655204,0.271367
6172,-6.952887,6.954679,-0.059102,0.011864,-0.093510,0.025511,90.431305,44.916279,90.473473,0.650943,0.270826,0.655224,0.271307
6173,-6.956129,6.962248,-0.066288,-0.000344,-0.091984,0.031615,90.436989,44.922348,90.475159,0.650940,0.270815,0.655255,0.271250
6174,-6.960042,6.958686,-0.065749,0.001182,-0.096561,0.036193,90.444763,44.928204,90.478416,0.650928,0.270807,0.655295,0.271190
6175,-6.955072,6.966324,-0.068809,-0.011025,-0.095035,0.028563,90.452690,44.932461,90.481857,0.650912,0.270808,0.655332,0.271140
6176,-6.954928,6.977530,-0.064733,-0.012550,-0.081302,0.028563,90.459358,44.931412,90.484756,0.650887,0.270835,0.655352,0.271125
6177,-6.955240,6.984787,-0.058368,-0.006448,-0.091983,0.030089,90.461075,44.926426,90.484146,0.650872,0.270877,0.655343,0.271140
6178,-6.953106,6.972468,-0.061315,-0.000344,-0.093509,0.042296,90.460968,44.922192,90.481964,0.650867,0.270913,0.655328,0.271152
6179,-6.948281,6.968498,-0.059531,-0.000344,-0.093509,0.034666,90.461395,44.920254,90.480057,0.650866,0.270937,0.655320,0.271150
6180,-6.950373,6.967562,-0.054746,-0.001870,-0.110295,0.040770,90.458832,44.919106,90.475861,0.650879,0.270953,0.655301,0.271147
6181,-6.952719,6.959919,-0.059231,-0.011025,-0.119450,0.043822,90.455666,44.920643,90.471046,0.650902,0.270954,0.655286,0.271129
6182,-6.949673,6.956485,-0.059289,-0.018655,-0.108769,0.049926,90.454430,44.924137,90.467827,0.650921,0.270945,0.655283,0.271098
6183,-6.953465,6.959919,-0.057317,-0.020181,-0.113347,0.034667,90.452583,44.927685,90.464355,0.650942,0.270935,0.655279,0.271069
6184,-6.955627,6.965312,-0.062430,-0.026285,-0.114872,0.040770,90.451920,44.930439,90.461731,0.650957,0.270930,0.655278,0.271042
6185,-6.955428,6.960769,-0.063501,-0.023232,-0.111821,0.043822,90.453896,44.932949,90.461029,0.650960,0.270931,0.655287,0.271012
6186,-6.953187,6.961985,-0.062137,-0.023232,-0.105717,0.043822,90.455894,44.935314,90.460403,0.650962,0.270932,0.655295,0.270984
6187,-6.953029,6.962546,-0.065389,-0.018655,-0.102665,0.036193,90.458702,44.936707,90.460411,0.650959,0.270940,0.655305,0.270960
6188,-6.952081,6.958179,-0.060180,-0.023232,-0.101139,0.036193,90.460556,44.938602,90.459808,0.650960,0.270944,0.655313,0.270935
6189,-6.951796,6.956719,-0.053423,-0.015604,-0.093509,0.037718,90.457474,44.941265,90.455788,0.650984,0.270934,0.655302,0.270915
6190,-6.953783,6.957294,-0.049121,-0.027811,-0.082828,0.034667,90.450134,44.944279,90.449028,0.651024,0.270914,0.655276,0.270901
6191,-6.953381,6.962080,-0.048402,-0.024759,-0.076724,0.037718,90.441368,44.946232,90.441566,0.651067,0.270895,0.655242,0.270898
6192,-6.952834,6.957780,-0.048864,-0.027811,-0.067569,0.049926,90.433540,44.947388,90.434944,0.651104,0.270882,0.655210,0.270898
6193,-6.949928,6.958398,-0.051585,-0.033915,-0.069095,0.059081,90.427826,44.948059,90.430008,0.651131,0.270874,0.655187,0.270899
6194,-6.950663,6.970587,-0.054156,-0.029336,-0.076724,0.057555,90.424767,44.945446,90.426872,0.651139,0.270890,0.655166,0.270914
6195,-6.951458,6.973207,-0.059961,-0.020181,-0.082828,0.062133,90.425537,44.940128,90.426094,0.651127,0.270929,0.655154,0.270935
6196,-6.952051,6.970304,-0.057434,-0.018655,-0.091984,0.062133,90.427689,44.935467,90.426003,0.651110,0.270968,0.655148,0.270949
6197,-6.952572,6.977195,-0.052880,-0.026283,-0.110295,0.060607,90.426208,44.930756,90.423080,0.651109,0.271003,0.655126,0.270968
6198,-6.955003,6.980170,-0.053533,-0.018655,-0.111821,0.048400,90.422745,44.925339,90.418541,0.651115,0.271040,0.655095,0.270992
6199,-6.948843,6.965987,-0.051100,-0.027811,-0.101139,0.034667,90.418953,44.922386,90.413887,0.651128,0.271062,0.655068,0.271004
6200,-6.946007,6.966177,-0.048398,-0.015603,-0.108769,0.025511,90.413559,44.921268,90.408104,0.651152,0.271071,0.655039,0.271009
6201,-6.948714,6.969744,-0.047008,-0.014077,-0.105717,0.016355,90.407097,44.919865,90.401360,0.651180,0.271081,0.655004,0.271015
6202,-6.955367,6.966060,-0.056160,-0.000344,-0.119450,-0.000430,90.404503,44.920963,90.397026,0.651199,0.271085,0.654991,0.270999
6203,-6.952645,6.971561,-0.059135,-0.003396,-0.119450,-0.006534,90.407280,44.922874,90.396217,0.651199,0.271094,0.655000,0.270968
6204,-6.959416,6.972558,-0.064563,-0.011025,-0.124028,0.007200,90.413223,44.923996,90.397713,0.651184,0.271113,0.655020,0.270936
6205,-6.959087,6.978358,-0.068185,-0.023232,-0.111820,0.014829,90.422218,44.924526,90.401680,0.651154,0.271138,0.655052,0.270904
6206,-6.955683,6.979438,-0.072706,-0.023232,-0.105717,0.019407,90.433899,44.922577,90.407906,0.651107,0.271180,0.655090,0.270884
6207,-6.949177,6.980761,-0.067770,-0.038492,-0.088932,0.023985,90.444481,44.918011,90.413795,0.651057,0.271233,0.655118,0.270883
6208,-6.948382,6.979527,-0.063414,-0.040018,-0.093509,0.039244,90.450066,44.911926,90.416512,0.651023,0.271284,0.655123,0.270901
6209,-6.947070,6.983776,-0.058700,-0.035440,-0.104191,0.033141,90.450905,44.905186,90.415657,0.651007,0.271332,0.655108,0.270930
6210,-6.949382,6.986408,-0.058868,-0.036965,-0.113346,0.025511,90.449242,44.898121,90.412758,0.651001,0.271379,0.655080,0.270963
6211,-6.946728,6.984601,-0.058213,-0.030861,-0.119450,0.034666,90.447258,44.891487,90.409401,0.650997,0.271425,0.655052,0.270993
6212,-6.949191,6.987130,-0.056094,-0.018655,-0.131657,0.042296,90.444305,44.885075,90.404930,0.651000,0.271470,0.655020,0.271021
6213,-6.954641,6.981849,-0.063894,-0.012550,-0.125554,0.043822,90.444138,44.881344,90.402138,0.650998,0.271506,0.655004,0.271028
6214,-6.954684,6.980191,-0.067748,-0.017129,-0.117924,0.051451,90.449196,44.880516,90.403168,0.650981,0.271534,0.655017,0.271009
6215,-6.954686,6.973258,-0.060622,-0.017129,-0.114872,0.056029,90.452782,44.881477,90.403343,0.650975,0.271548,0.655028,0.270984
6216,-6.955523,6.976130,-0.063657,-0.027811,-0.119450,0.048400,90.454079,44.883495,90.402008,0.650980,0.271551,0.655032,0.270958
6217,-6.954257,6.967507,-0.068315,-0.032389,-0.108769,0.040770,90.458153,44.886711,90.402901,0.650976,0.271551,0.655052,0.270921
6218,-6.948967,6.974423,-0.059316,-0.049173,-0.110295,0.028563,90.459984,44.888988,90.402550,0.650977,0.271550,0.655060,0.270896
6219,-6.951493,6.975073,-0.059363,-0.049173,-0.101139,0.028563,90.457657,44.889088,90.399559,0.650990,0.271554,0.655048,0.270892
6220,-6.951058,6.967471,-0.065605,-0.041544,-0.099613,0.030089,90.458267,44.890888,90.398689,0.650995,0.271552,0.655052,0.270873
6221,-6.952972,6.962117,-0.060446,-0.029336,-0.099613,0.022459,90.459816,44.895660,90.398254,0.651004,0.271536,0.655065,0.270834
6222,-6.950442,6.965455,-0.056190,-0.012550,-0.085880,0.023985,90.458107,44.900513,90.395348,0.651027,0.271515,0.655066,0.270800
6223,-6.955780,6.962321,-0.057123,0.013389,-0.090457,0.033141,90.455910,44.905247,90.391701,0.651052,0.271497,0.655063,0.270765
6224,-6.950650,6.959541,-0.052565,0.008811,-0.096561,0.030089,90.452606,44.910667,90.386894,0.651084,0.271475,0.655056,0.270726
6225,-6.951681,6.963141,-0.051025,0.005760,-0.095035,0.025511,90.446869,44.914700,90.380402,0.651123,0.271456,0.655037,0.270698
6226,-6.950540,6.952322,-0.053149,0.001182,-0.087406,0.033141,90.441864,44.919670,90.374626,0.651160,0.271432,0.655023,0.270666
6227,-6.948137,6.958666,-0.051312,-0.020181,-0.101139,0.042296,90.436981,44.924091,90.369179,0.651195,0.271410,0.655009,0.270638
6228,-6.952213,6.955871,-0.057044,-0.033915,-0.099613,0.046874,90.433403,44.927437,90.364906,0.651222,0.271396,0.654998,0.270615
6229,-6.953156,6.960236,-0.062614,-0.027811,-0.093509,0.048400,90.434898,44.930977,90.364395,0.651228,0.271387,0.655008,0.270583
6230,-6.945774,6.965023,-0.063817,-0.033915,-0.095035,0.054503,90.439323,44.930832,90.366020,0.651213,0.271403,0.655022,0.270568
6231,-6.952350,6.976106,-0.059140,-0.036965,-0.091983,0.051451,90.441841,44.927040,90.366417,0.651197,0.271437,0.655020,0.270577
6232,-6.952448,6.973028,-0.066125,-0.038492,-0.099613,0.057555,90.444778,44.923130,90.367104,0.651179,0.271472,0.655020,0.270587
6233,-6.945746,6.971195,-0.063468,-0.038492,-0.090458,0.054503,90.449249,44.919182,90.368927,0.651155,0.271510,0.655026,0.270594
6234,-6.948536,6.961969,-0.060365,-0.030861,-0.102665,0.048400,90.451080,44.917255,90.368744,0.651146,0.271532,0.655025,0.270593
6235,-6.951549,6.961920,-0.059215,-0.027811,-0.104191,0.054503,90.450851,44.918743,90.366821,0.651155,0.271533,0.655023,0.270575
6236,-6.947848,6.956968,-0.061667,-0.029336,-0.102665,0.051452,90.451111,44.921093,90.365219,0.651164,0.271531,0.655026,0.270552
6237,-6.951787,6.955383,-0.061253,-0.017129,-0.096561,0.034666,90.452530,44.924957,90.364418,0.651172,0.271521,0.655036,0.270517
6238,-6.951003,6.958776,-0.060765,-0.020181,-0.095035,0.028563,90.453758,44.929169,90.363449,0.651181,0.271510,0.655047,0.270480
6239,-6.951083,6.967714,-0.064040,-0.012550,-0.095035,0.027037,90.456078,44.930431,90.363228,0.651179,0.271517,0.655054,0.270458
6240,-6.949080,6.969734,-0.063646,-0.006446,-0.087406,0.019407,90.459709,44.928905,90.363861,0.651166,0.271543,0.655061,0.270450
6241,-6.947429,6.973131,-0.065070,0.002708,-0.090458,0.027037,90.463806,44.925529,90.364677,0.651146,0.271580,0.655065,0.270451
6242,-6.946564,6.968049,-0.061789,-0.009500,-0.091984,0.030089,90.466614,44.922058,90.364594,0.651131,0.271617,0.655063,0.270454
6243,-6.948993,6.970331,-0.061838,-0.011025,-0.098087,0.034666,90.467415,44.919704,90.363152,0.651127,0.271643,0.655056,0.270455
6244,-6.948269,6.967337,-0.059167,-0.033914,-0.087406,0.031615,90.466599,44.918102,90.360909,0.651130,0.271660,0.655045,0.270455
6245,-6.952768,6.974103,-0.061433,-0.033914,-0.093510,0.042296,90.465317,44.916580,90.358650,0.651135,0.271674,0.655033,0.270459
6246,-6.949731,6.978592,-0.060303,-0.032387,-0.088932,0.040770,90.464561,44.913055,90.356750,0.651133,0.271701,0.655019,0.270472
6247,-6.953583,6.991301,-0.063414,-0.030861,-0.082828,0.037718,90.464897,44.906490,90.355698,0.651119,0.271746,0.655002,0.270502
6248,-6.954770,6.984740,-0.066193,-0.018655,-0.081302,0.020933,90.468002,44.900536,90.356529,0.651095,0.271793,0.654997,0.270523
6250,-6.951377,6.988659,-0.064212,-0.017129,-0.090458,0.030089,90.471375,44.895412,90.357300,0.651073,0.271837,0.654995,0.270537
6251,-6.949090,6.971819,-0.064976,-0.012551,-0.090458,0.014830,90.473923,44.892433,90.357307,0.651060,0.271869,0.654994,0.270540
6252,-6.956552,6.960593,-0.068703,-0.011026,-0.095036,0.025511,90.478142,44.896751,90.358368,0.651057,0.271862,0.655017,0.270497
6253,-6.955186,6.953546,-0.064926,0.001182,-0.099613,0.033141,90.482155,44.905720,90.359009,0.651068,0.271830,0.655048,0.270426
6254,-6.953663,6.953939,-0.062851,-0.000344,-0.113347,0.056029,90.483223,44.914303,90.357239,0.651090,0.271797,0.655067,0.270361
6255,-6.955358,6.950273,-0.066489,0.008811,-0.107243,0.060607,90.484703,44.922260,90.355560,0.651110,0.271770,0.655085,0.270298
6256,-6.952049,6.956544,-0.060899,0.002707,-0.111821,0.068237,90.485321,44.928318,90.353264,0.651128,0.271752,0.655095,0.270247
6257,-6.950063,6.954066,-0.054711,-0.000344,-0.128606,0.054503,90.480469,44.931931,90.346970,0.651164,0.271740,0.655077,0.270218
6258,-6.950753,6.956234,-0.058946,-0.009500,-0.116398,0.062133,90.474747,44.934959,90.340134,0.651201,0.271729,0.655054,0.270195
6259,-6.949733,6.958941,-0.057488,-0.021707,-0.104191,0.062133,90.470718,44.936451,90.335045,0.651226,0.271727,0.655036,0.270180
6260,-6.949421,6.951052,-0.054693,-0.024759,-0.110295,0.054504,90.465294,44.938641,90.329216,0.651258,0.271717,0.655015,0.270166
6261,-6.953191,6.958289,-0.058152,-0.021707,-0.099613,0.060607,90.460693,44.941517,90.324036,0.651288,0.271704,0.654998,0.270146
6262,-6.949894,6.967279,-0.062932,-0.024759,-0.091984,0.072815,90.460228,44.940571,90.321968,0.651291,0.271719,0.654990,0.270142
6263,-6.949734,6.962640,-0.061112,-0.017129,-0.116399,0.066711,90.461029,44.937828,90.320557,0.651286,0.271747,0.654982,0.270146
6264,-6.947984,6.963622,-0.058672,-0.006448,-0.107243,0.059081,90.460114,44.935860,90.317535,0.651291,0.271770,0.654968,0.270145
6265,-6.950445,6.974878,-0.056933,-0.006448,-0.108769,0.060607,90.457741,44.931854,90.313454,0.651296,0.271803,0.654944,0.270158
6266,-6.952827,6.974826,-0.057941,-0.020181,-0.114872,0.049926,90.454865,44.927010,90.309082,0.651302,0.271839,0.654915,0.270177
6267,-6.952728,6.974260,-0.055889,-0.026285,-0.111821,0.045348,90.451431,44.923458,90.304520,0.651312,0.271866,0.654888,0.270191
6268,-6.950049,6.978279,-0.054403,-0.027811,-0.098087,0.045348,90.447006,44.919128,90.299553,0.651324,0.271894,0.654856,0.270213
6269,-6.953466,6.977261,-0.057596,-0.033914,-0.105717,0.048400,90.443642,44.914669,90.295494,0.651331,0.271923,0.654828,0.270234
6270,-6.950504,6.979414,-0.057306,-0.021707,-0.096561,0.049926,90.441994,44.910439,90.292580,0.651331,0.271955,0.654807,0.270252
6271,-6.949449,6.978290,-0.054512,-0.007974,-0.105717,0.054503,90.439735,44.905499,90.288940,0.651333,0.271991,0.654782,0.270272
6272,-6.949960,6.981879,-0.055855,0.002708,-0.105717,0.066711,90.437332,44.900120,90.284805,0.651336,0.272031,0.654754,0.270293
6273,-6.956887,6.981736,-0.057547,-0.001870,-0.105717,0.060607,90.436501,44.895977,90.281700,0.651335,0.272068,0.654735,0.270303
6274,-6.954883,6.983178,-0.056550,0.014915,-0.091984,0.049926,90.436539,44.893337,90.279228,0.651335,0.272097,0.654723,0.270304
6275,-6.954540,6.971398,-0.060615,0.014915,-0.096561,0.045348,90.438339,44.892925,90.277916,0.651333,0.272117,0.654723,0.270289
6276,-6.955286,6.964172,-0.060010,0.002708,-0.085880,0.042296,90.441444,44.896770,90.277725,0.651335,0.272114,0.654739,0.270248
6277,-6.953025,6.962259,-0.056832,-0.000344,-0.082828,0.034666,90.442757,44.902195,90.276627,0.651347,0.272097,0.654752,0.270204
6278,-6.947620,6.962239,-0.057577,0.001182,-0.084354,0.040770,90.442848,44.906002,90.274704,0.651361,0.272087,0.654756,0.270170
6279,-6.945593,6.964247,-0.058871,-0.012550,-0.091984,0.048400,90.443344,44.907185,90.273102,0.651366,0.272092,0.654756,0.270152
6280,-6.951114,6.970217,-0.055851,-0.015603,-0.091984,0.056029,90.442673,44.906933,90.270775,0.651373,0.272103,0.654749,0.270144
6281,-6.946916,6.969255,-0.055049,-0.006446,-0.095036,0.049926,90.440475,44.905869,90.267258,0.651384,0.272117,0.654733,0.270142
6282,-6.951594,6.972519,-0.058154,-0.012550,-0.099613,0.045348,90.439270,44.904667,90.264336,0.651391,0.272133,0.654720,0.270139
6283,-6.950325,6.971760,-0.053791,-0.021707,-0.096561,0.046874,90.437431,44.903820,90.261116,0.651401,0.272146,0.654706,0.270136
6284,-6.949146,6.965491,-0.054599,-0.024759,-0.099613,0.030088,90.434105,44.904278,90.256996,0.651419,0.272148,0.654690,0.270129
6285,-6.948420,6.971163,-0.060865,-0.035440,-0.093510,0.020933,90.433784,44.904911,90.255196,0.651426,0.272153,0.654686,0.270117
6286,-6.954772,6.973124,-0.062913,-0.046122,-0.091984,0.027037,90.436798,44.905106,90.256088,0.651417,0.272164,0.654696,0.270104
6287,-6.949133,6.971725,-0.061844,-0.046122,-0.082828,0.020933,90.440079,44.905296,90.257423,0.651406,0.272174,0.654707,0.270092
6288,-6.946906,6.974219,-0.060724,-0.043069,-0.082828,0.023985,90.442352,44.903664,90.258118,0.651396,0.272192,0.654710,0.270092
6289,-6.946543,6.971797,-0.058543,-0.044596,-0.079776,0.042296,90.443062,44.901215,90.257721,0.651389,0.272212,0.654705,0.270100
6290,-6.941138,6.966693,-0.054215,-0.035440,-0.085880,0.046874,90.441048,44.898949,90.255272,0.651394,0.272228,0.654689,0.270110
6291,-6.937428,6.967228,-0.054270,-0.033915,-0.088932,0.059081,90.437355,44.895702,90.251411,0.651404,0.272247,0.654664,0.270128
6292,-6.941714,6.966902,-0.056034,-0.036965,-0.088932,0.057555,90.434647,44.892632,90.248215,0.651411,0.272268,0.654643,0.270143
6293,-6.941460,6.968401,-0.058564,-0.027811,-0.093509,0.057555,90.434029,44.890484,90.246384,0.651411,0.272287,0.654632,0.270148
6294,-6.949308,6.973714,-0.059923,-0.018655,-0.104191,0.057555,90.435234,44.888767,90.245445,0.651407,0.272309,0.654629,0.270146
6295,-6.948774,6.970114,-0.060146,-0.020181,-0.108769,0.054504,90.436905,44.888439,90.244553,0.651404,0.272325,0.654630,0.270133
6296,-6.948932,6.966834,-0.062673,-0.012551,-0.105717,0.033141,90.439667,44.889965,90.244347,0.651401,0.272334,0.654639,0.270107
6297,-6.951326,6.964823,-0.060904,-0.006448,-0.114872,0.028563,90.442673,44.893463,90.244080,0.651403,0.272332,0.654654,0.270069
6298,-6.954576,6.961009,-0.064691,-0.012551,-0.101139,0.023985,90.446312,44.899235,90.244316,0.651408,0.272319,0.654677,0.270016
6299,-6.952128,6.963402,-0.062121,-0.020181,-0.099613,0.028563,90.450150,44.904980,90.245026,0.651411,0.272304,0.654701,0.269966
6300,-6.954803,6.966722,-0.062779,-0.020181,-0.088932,0.033141,90.452866,44.908878,90.245201,0.651413,0.272296,0.654717,0.269929
6301,-6.955715,6.970209,-0.061116,-0.035440,-0.093510,0.031614,90.454674,44.911583,90.244972,0.651416,0.272292,0.654727,0.269902
6302,-6.956423,6.962502,-0.062679,-0.041544,-0.087406,0.042296,90.455910,44.915012,90.244598,0.651422,0.272282,0.654737,0.269873
6303,-6.952641,6.961906,-0.058270,-0.036965,-0.098087,0.037718,90.455750,44.919106,90.243210,0.651436,0.272265,0.654742,0.269843
6304,-6.955111,6.964439,-0.055669,-0.035440,-0.093509,0.028563,90.452629,44.922405,90.239594,0.651460,0.272250,0.654734,0.269821
6305,-6.955634,6.959190,-0.055788,-0.049173,-0.105717,0.031615,90.448341,44.926601,90.235214,0.651490,0.272226,0.654724,0.269797
6306,-6.952151,6.961679,-0.058743,-0.035440,-0.105717,0.046874,90.445503,44.930084,90.231697,0.651514,0.272210,0.654717,0.269773
6307,-6.949336,6.967311,-0.060030,-0.038492,-0.108769,0.046874,90.444855,44.929943,90.229561,0.651520,0.272220,0.654710,0.269766
6308,-6.952026,6.964799,-0.062243,-0.038492,-0.114872,0.048400,90.445595,44.928944,90.228355,0.651519,0.272237,0.654706,0.269760
6309,-6.946115,6.960324,-0.068995,-0.043069,-0.120976,0.056029,90.449783,44.928616,90.229469,0.651505,0.272256,0.654718,0.269745
6310,-6.950175,6.959315,-0.069066,-0.049173,-0.116398,0.056029,90.456329,44.928944,90.232368,0.651484,0.272275,0.654741,0.269722
6311,-6.953627,6.954731,-0.066226,-0.050700,-0.110294,0.040770,90.461281,44.932255,90.234360,0.651475,0.272273,0.654765,0.269686
6312,-6.953368,6.957791,-0.062131,-0.043069,-0.107243,0.036193,90.463058,44.936684,90.234146,0.651482,0.272259,0.654779,0.269649
6313,-6.952476,6.962696,-0.062246,-0.055277,-0.101139,0.039244,90.462921,44.938877,90.232735,0.651491,0.272253,0.654781,0.269630
6314,-6.958419,6.963891,-0.058500,-0.052226,-0.099613,0.040770,90.461143,44.940460,90.230377,0.651504,0.272248,0.654774,0.269617
6315,-6.952594,6.963501,-0.063214,-0.026285,-0.102665,0.039244,90.460335,44.941711,90.228340,0.651514,0.272248,0.654771,0.269603
6316,-6.952371,6.964438,-0.062971,-0.033915,-0.113346,0.049926,90.461555,44.941292,90.227348,0.651513,0.272263,0.654770,0.269593
6317,-6.950989,6.967960,-0.062472,-0.043069,-0.124028,0.049926,90.461815,44.939423,90.225624,0.651512,0.272285,0.654762,0.269592
6318,-6.953951,6.966846,-0.063849,-0.040018,-0.127080,0.042296,90.461998,44.937618,90.223770,0.651511,0.272307,0.654754,0.269591
6319,-6.947826,6.962504,-0.068790,-0.041544,-0.120976,0.042296,90.464882,44.936588,90.223824,0.651502,0.272329,0.654759,0.269581
6320,-6.951743,6.969120,-0.061162,-0.050698,-0.114872,0.043822,90.466515,44.934753,90.223274,0.651495,0.272351,0.654757,0.269579
6321,-6.953503,6.970916,-0.065657,-0.046122,-0.102665,0.033141,90.466827,44.932659,90.222061,0.651492,0.272372,0.654750,0.269582
6322,-6.955789,6.963998,-0.066648,-0.038492,-0.091984,0.045348,90.469902,44.932613,90.222916,0.651482,0.272385,0.654759,0.269570
6323,-6.956402,6.962607,-0.064245,-0.024759,-0.084354,0.042296,90.472908,44.934814,90.223701,0.651479,0.272385,0.654773,0.269544
6324,-6.960167,6.963832,-0.062027,-0.015604,-0.084354,0.034666,90.474220,44.938038,90.223106,0.651485,0.272378,0.654782,0.269515
6325,-6.957556,6.966206,-0.062587,-0.027811,-0.084354,0.028563,90.474579,44.940716,90.221878,0.651493,0.272371,0.654786,0.269491
6326,-6.959772,6.966078,-0.058288,-0.032389,-0.081302,0.042296,90.473091,44.942440,90.219566,0.651506,0.272366,0.654781,0.269476
6327,-6.955102,6.968018,-0.059895,-0.030861,-0.084354,0.033141,90.470482,44.942993,90.216515,0.651521,0.272366,0.654769,0.269471
6328,-6.953528,6.962955,-0.055878,-0.033915,-0.088932,0.043822,90.466957,44.942760,90.212730,0.651538,0.272369,0.654752,0.269471
6329,-6.954317,6.966442,-0.054454,-0.036965,-0.095035,0.036193,90.461205,44.942642,90.207321,0.651564,0.272368,0.654725,0.269473
6330,-6.949373,6.964671,-0.054722,-0.032387,-0.102665,0.034666,90.455238,44.941483,90.201591,0.651589,0.272373,0.654695,0.269481
6331,-6.944876,6.959293,-0.053664,-0.035440,-0.104191,0.022459,90.449448,44.940147,90.195854,0.651613,0.272380,0.654664,0.269490
6332,-6.951338,6.958241,-0.053418,-0.043069,-0.099613,0.027037,90.443588,44.940784,90.190231,0.651641,0.272376,0.654639,0.269487
6333,-6.948964,6.959161,-0.061210,-0.053751,-0.104191,0.022459,90.441116,44.942318,90.187210,0.651658,0.272370,0.654629,0.269476
6334,-6.948139,6.959069,-0.060111,-0.064433,-0.095036,0.033141,90.441528,44.942802,90.186539,0.651660,0.272373,0.654630,0.269467
6335,-6.955060,6.958460,-0.061802,-0.064433,-0.093510,0.037718,90.442299,44.944332,90.186371,0.651662,0.272370,0.654635,0.269453
6336,-6.955893,6.967978,-0.063284,-0.058329,-0.102665,0.043822,90.444237,44.945339,90.186867,0.651659,0.272373,0.654643,0.269439
6337,-6.952701,6.971065,-0.063233,-0.059855,-0.105717,0.037719,90.446472,44.943142,90.187370,0.651647,0.272395,0.654644,0.269441
6338,-6.950612,6.974144,-0.061394,-0.056802,-0.098087,0.039245,90.447807,44.938732,90.187271,0.651633,0.272428,0.654637,0.269458
6339,-6.947271,6.977104,-0.063268,-0.046122,-0.105717,0.028563,90.449188,44.932442,90.187042,0.651616,0.272473,0.654625,0.269485
6340,-6.946756,6.981664,-0.061822,-0.046122,-0.104191,0.022459,90.450645,44.924633,90.186684,0.651594,0.272528,0.654609,0.269519
6341,-6.942704,6.974758,-0.061733,-0.049173,-0.091984,0.022459,90.451538,44.917168,90.186119,0.651576,0.272579,0.654592,0.269553
6342,-6.941867,6.969227,-0.056042,-0.032387,-0.096562,0.033141,90.450325,44.911842,90.183998,0.651571,0.272614,0.654572,0.269579
6343,-6.942568,6.975160,-0.054742,-0.033914,-0.099613,0.022459,90.446381,44.907059,90.179665,0.651579,0.272644,0.654541,0.269604
6344,-6.943192,6.970129,-0.056550,-0.035440,-0.091984,0.023985,90.442932,44.903019,90.175774,0.651587,0.272669,0.654514,0.269624
6345,-6.944240,6.963099,-0.060169,-0.023232,-0.087406,0.028563,90.442497,44.902130,90.174042,0.651590,0.272682,0.654507,0.269622
6346,-6.949663,6.966941,-0.061963,-0.015604,-0.096562,0.031615,90.444740,44.903347,90.173912,0.651587,0.272689,0.654515,0.269602
6347,-6.949158,6.972948,-0.069801,-0.020181,-0.093510,0.013303,90.450775,44.903767,90.176338,0.651568,0.272707,0.654536,0.269579
6348,-6.952431,6.969839,-0.072625,-0.012551,-0.099613,0.023985,90.460770,44.904205,90.181496,0.651533,0.272731,0.654573,0.269548
6349,-6.958329,6.966620,-0.067664,-0.011025,-0.102665,0.031615,90.469101,44.907478,90.185257,0.651513,0.272739,0.654609,0.269503
6350,-6.953084,6.973613,-0.064089,-0.012551,-0.107243,0.028563,90.472862,44.909866,90.185707,0.651508,0.272744,0.654624,0.269471
6351,-6.944407,6.974738,-0.059957,-0.012551,-0.104191,0.031615,90.472778,44.907444,90.183441,0.651508,0.272770,0.654613,0.269472
6353,-6.944626,6.972412,-0.059112,-0.021707,-0.099613,0.028563,90.470451,44.903542,90.179794,0.651513,0.272800,0.654590,0.269487
6354,-6.946054,6.976023,-0.054928,-0.015604,-0.085880,0.022459,90.466423,44.900181,90.175194,0.651525,0.272822,0.654562,0.269503
6355,-6.944466,6.980198,-0.061295,-0.014078,-0.090458,0.020933,90.463860,44.895676,90.171646,0.651529,0.272854,0.654537,0.269523
6356,-6.946358,6.972230,-0.063602,-0.012551,-0.090458,0.016355,90.465187,44.892494,90.170753,0.651520,0.272885,0.654530,0.269529
6357,-6.951898,6.965953,-0.064050,-0.014077,-0.085880,0.010252,90.467834,44.894333,90.170853,0.651518,0.272889,0.654541,0.269504
6358,-6.950608,6.965992,-0.061978,-0.020181,-0.096562,0.020933,90.469398,44.898319,90.170204,0.651525,0.272878,0.654552,0.269468
6359,-6.947869,6.959289,-0.062516,-0.015603,-0.111821,0.034667,90.469704,44.902161,90.168373,0.651538,0.272869,0.654558,0.269434
6360,-6.946511,6.956697,-0.054170,-0.018655,-0.108769,0.030089,90.466545,44.906540,90.163940,0.651567,0.272851,0.654550,0.269402
6361,-6.945081,6.963839,-0.052232,-0.015603,-0.102665,0.034667,90.459419,44.908997,90.156799,0.651606,0.272837,0.654522,0.269388
6362,-6.946510,6.963808,-0.052860,-0.017129,-0.110295,0.039244,90.452263,44.909515,90.149620,0.651641,0.272835,0.654489,0.269385
6363,-6.948245,6.971084,-0.056162,-0.001870,-0.102665,0.031614,90.447639,44.909084,90.144066,0.651664,0.272843,0.654464,0.269383
6364,-6.952371,6.975539,-0.057090,-0.021707,-0.090458,0.023985,90.445572,44.907696,90.140594,0.651674,0.272859,0.654448,0.269383
6365,-6.956004,6.979187,-0.058128,-0.018655,-0.090458,0.020933,90.444527,44.906502,90.138191,0.651679,0.272873,0.654437,0.269382
6366,-6.957116,6.978605,-0.055134,-0.032387,-0.099613,0.025511,90.442497,44.905762,90.135117,0.651690,0.272884,0.654423,0.269380
6367,-6.958055,6.983492,-0.052993,-0.030861,-0.105717,0.027037,90.438049,44.904572,90.130287,0.651709,0.272893,0.654398,0.269385
6368,-6.960433,6.979046,-0.049893,-0.027811,-0.102665,0.031615,90.431808,44.903973,90.124107,0.651737,0.272896,0.654368,0.269389
6369,-6.956440,6.975058,-0.048486,-0.015603,-0.095035,0.033141,90.424690,44.904766,90.117264,0.651772,0.272890,0.654336,0.269386
6370,-6.955135,6.976415,-0.057383,-0.012550,-0.104191,0.036193,90.421555,44.904911,90.113022,0.651789,0.272895,0.654319,0.269379
6371,-6.954020,6.973990,-0.057599,-0.004921,-0.091984,0.028563,90.422905,44.904793,90.111862,0.651789,0.272910,0.654319,0.269365
6372,-6.952531,6.970526,-0.057685,0.004234,-0.084354,0.025511,90.425095,44.905521,90.111320,0.651786,0.272922,0.654325,0.269345
6373,-6.951158,6.971103,-0.062120,-0.006446,-0.088932,0.030089,90.429008,44.906193,90.112061,0.651777,0.272936,0.654337,0.269323
6374,-6.954538,6.973940,-0.063272,-0.006446,-0.101139,0.031615,90.434448,44.906399,90.113815,0.651761,0.272956,0.654355,0.269301
6375,-6.953121,6.970627,-0.058419,-0.020181,-0.104191,0.042296,90.437416,44.906860,90.113777,0.651755,0.272970,0.654363,0.269281
6376,-6.958186,6.976556,-0.062260,-0.021707,-0.102665,0.046874,90.439240,44.907257,90.113113,0.651753,0.272982,0.654366,0.269265
6377,-6.956934,6.979788,-0.069234,-0.030861,-0.095035,0.033141,90.445229,44.906651,90.115616,0.651731,0.273005,0.654385,0.269249
6378,-6.958198,6.976099,-0.060933,-0.020181,-0.087406,0.027037,90.450554,44.906471,90.117813,0.651713,0.273024,0.654402,0.269232
6379,-6.959731,6.976982,-0.063614,-0.024759,-0.088932,0.022459,90.453217,44.907669,90.118134,0.651709,0.273031,0.654412,0.269211
6380,-6.957149,6.978445,-0.061160,-0.021707,-0.081302,0.013304,90.455650,44.908356,90.118385,0.651704,0.273039,0.654420,0.269195
6381,-6.959195,6.975059,-0.057213,-0.020181,-0.087406,0.001096,90.455315,44.909595,90.116653,0.651712,0.273040,0.654418,0.269180
6382,-6.959556,6.977425,-0.050958,-0.000344,-0.101139,0.011778,90.450706,44.911480,90.111420,0.651740,0.273033,0.654399,0.269166
6383,-6.960655,6.977931,-0.058572,-0.017129,-0.104191,0.027037,90.446663,44.912498,90.106354,0.651763,0.273033,0.654380,0.269154
6384,-6.955565,6.979794,-0.055832,-0.024759,-0.102665,0.022459,90.444618,44.911873,90.102959,0.651775,0.273044,0.654366,0.269150
6385,-6.957308,6.979040,-0.058995,-0.021707,-0.102665,0.023985,90.442993,44.910374,90.099922,0.651782,0.273061,0.654351,0.269151
6386,-6.949800,6.978333,-0.063678,-0.030861,-0.108769,0.036193,90.444572,44.907829,90.099159,0.651774,0.273089,0.654347,0.269152
6387,-6.950415,6.977521,-0.061759,-0.044596,-0.104191,0.042296,90.446892,44.904083,90.099159,0.651760,0.273123,0.654344,0.269160
6388,-6.952228,6.981600,-0.056257,-0.033914,-0.101139,0.034667,90.446030,44.900520,90.097054,0.651758,0.273151,0.654328,0.269173
6389,-6.952460,6.979165,-0.054328,-0.030861,-0.101139,0.039245,90.442329,44.897465,90.092796,0.651770,0.273171,0.654302,0.269188
6390,-6.953406,6.977176,-0.053256,-0.029336,-0.099613,0.034667,90.437737,44.895893,90.087898,0.651788,0.273182,0.654276,0.269195
6391,-6.955442,6.977600,-0.053776,-0.027811,-0.091984,0.030089,90.433525,44.895649,90.083336,0.651809,0.273186,0.654255,0.269194
6392,-6.955643,6.972375,-0.051358,-0.036965,-0.084354,0.033141,90.429131,44.896957,90.078903,0.651833,0.273179,0.654237,0.269187
6393,-6.956223,6.972816,-0.053177,-0.033915,-0.093510,0.028563,90.424805,44.899387,90.074577,0.651859,0.273165,0.654222,0.269173
6394,-6.957385,6.979193,-0.053694,-0.033915,-0.081302,0.033141,90.421944,44.900581,90.071289,0.651876,0.273161,0.654211,0.269164
6395,-6.953361,6.983802,-0.054596,-0.040018,-0.081302,0.036193,90.420097,44.898621,90.068924,0.651882,0.273175,0.654196,0.269172
6396,-6.953330,6.985003,-0.049536,-0.024759,-0.088932,0.042296,90.416794,44.894524,90.065331,0.651888,0.273200,0.654170,0.269194
6397,-6.951653,6.988965,-0.053371,-0.026285,-0.088932,0.046874,90.413330,44.889145,90.061386,0.651893,0.273233,0.654140,0.269222
6398,-6.946105,6.974083,-0.049381,-0.026285,-0.090458,0.057555,90.410118,44.884743,90.057610,0.651899,0.273262,0.654113,0.269244
6399,-6.949279,6.964455,-0.052671,-0.027811,-0.108769,0.062133,90.406677,44.885124,90.053452,0.651918,0.273264,0.654096,0.269238
6400,-6.950636,6.966529,-0.051977,-0.014077,-0.104191,0.060607,90.404617,44.888134,90.049965,0.651938,0.273255,0.654090,0.269213
6401,-6.951822,6.967194,-0.053567,-0.029336,-0.104191,0.068237,90.403244,44.890827,90.047035,0.651954,0.273248,0.654086,0.269188
6402,-6.955637,6.964800,-0.052667,-0.024759,-0.104191,0.063659,90.402176,44.894577,90.044449,0.651972,0.273236,0.654086,0.269158
6403,-6.957877,6.974276,-0.056344,-0.036965,-0.099613,0.051452,90.402275,44.898067,90.042831,0.651984,0.273225,0.654091,0.269129
6404,-6.953820,6.967367,-0.056616,-0.040018,-0.087406,0.049926,90.404076,44.900513,90.042786,0.651986,0.273222,0.654100,0.269104
6405,-6.951255,6.957738,-0.058838,-0.047648,-0.088932,0.049926,90.406853,44.904720,90.043686,0.651987,0.273209,0.654119,0.269069
6406,-6.955900,6.950871,-0.062643,-0.038492,-0.081302,0.051452,90.412064,44.912384,90.046349,0.651987,0.273180,0.654156,0.269011
6407,-6.953483,6.951947,-0.065133,-0.035440,-0.084354,0.051452,90.419754,44.921074,90.050690,0.651979,0.273149,0.654204,0.268942
6408,-6.958213,6.954198,-0.063416,-0.026285,-0.084354,0.062133,90.427261,44.928558,90.054726,0.651969,0.273126,0.654249,0.268880
6409,-6.958776,6.965962,-0.060801,-0.020181,-0.090458,0.056029,90.432350,44.933369,90.056786,0.651964,0.273116,0.654277,0.268835
6410,-6.962965,6.972413,-0.059204,-0.020181,-0.091984,0.057555,90.434959,44.934879,90.056946,0.651961,0.273121,0.654287,0.268812
6411,-6.957045,6.976491,-0.058021,-0.023232,-0.091984,0.048400,90.435951,44.933681,90.055977,0.651958,0.273139,0.654284,0.268808
6412,-6.956725,6.983104,-0.061886,-0.023232,-0.087406,0.048400,90.437843,44.929138,90.055733,0.651943,0.273177,0.654278,0.268822
6413,-6.952936,6.980364,-0.064342,-0.021707,-0.091984,0.043822,90.442223,44.923313,90.057236,0.651915,0.273227,0.654278,0.268838
6414,-6.950654,6.981329,-0.065628,-0.015604,-0.090458,0.042296,90.447891,44.917206,90.059509,0.651882,0.273281,0.654282,0.268854
6415,-6.953525,6.984161,-0.068941,-0.009500,-0.072146,0.043822,90.455467,44.911037,90.063240,0.651840,0.273338,0.654295,0.268867
6416,-6.959899,6.982203,-0.065437,-0.009500,-0.073672,0.049926,90.462692,44.907074,90.066833,0.651805,0.273381,0.654311,0.268869
6417,-6.960803,6.974647,-0.061821,-0.007974,-0.079776,0.042296,90.466156,44.907097,90.067650,0.651795,0.273396,0.654321,0.268854
6418,-6.960116,6.977450,-0.062297,-0.018655,-0.082828,0.048400,90.467537,44.908386,90.067024,0.651796,0.273400,0.654326,0.268835
6419,-6.962772,6.967410,-0.059431,-0.021707,-0.082828,0.065185,90.467415,44.911110,90.065437,0.651807,0.273393,0.654328,0.268811
6420,-6.958101,6.963571,-0.055240,-0.014077,-0.104191,0.077392,90.464111,44.915611,90.061302,0.651835,0.273372,0.654321,0.268781
6421,-6.955528,6.962435,-0.058083,-0.001870,-0.114872,0.075866,90.460220,44.919102,90.056145,0.651865,0.273359,0.654308,0.268753
6422,-6.955682,6.962565,-0.055796,-0.006446,-0.110295,0.075866,90.456963,44.921932,90.051277,0.651891,0.273353,0.654295,0.268728
6423,-6.951301,6.954756,-0.052566,0.005760,-0.105717,0.068237,90.452103,44.925301,90.045280,0.651924,0.273340,0.654277,0.268703
6424,-6.951278,6.956247,-0.055702,0.005760,-0.105717,0.059081,90.447906,44.929024,90.039688,0.651957,0.273327,0.654263,0.268674
6425,-6.956764,6.956361,-0.057851,0.001182,-0.111821,0.048400,90.446152,44.933510,90.035782,0.651981,0.273314,0.654260,0.268636
6426,-6.953340,6.955527,-0.053328,-0.009500,-0.105717,0.048400,90.443459,44.938339,90.031410,0.652009,0.273296,0.654254,0.268599
6427,-6.954798,6.958052,-0.054445,-0.003396,-0.108769,0.059081,90.439568,44.941776,90.026268,0.652038,0.273283,0.654241,0.268572
6428,-6.961606,6.967564,-0.057241,-0.000344,-0.101139,0.072815,90.437798,44.943623,90.022583,0.652056,0.273284,0.654232,0.268551
6429,-6.964674,6.969738,-0.054409,-0.004922,-0.099613,0.077392,90.436386,44.944515,90.019264,0.652069,0.273290,0.654223,0.268535
6430,-6.958562,6.967889,-0.052365,-0.017129,-0.091984,0.075867,90.432999,44.944538,90.014854,0.652087,0.273296,0.654205,0.268529
6431,-6.959304,6.971816,-0.054677,-0.029336,-0.087406,0.068237,90.429726,44.943119,90.010963,0.652101,0.273307,0.654185,0.268533
6432,-6.955179,6.972854,-0.050748,-0.033915,-0.091984,0.059081,90.425865,44.940346,90.006851,0.652113,0.273324,0.654159,0.268548
6433,-6.948724,6.969749,-0.046285,-0.038492,-0.096562,0.045348,90.418602,44.936432,90.000336,0.652136,0.273343,0.654118,0.268575
6434,-6.947921,6.976369,-0.050383,-0.041544,-0.098087,0.036193,90.411514,44.931004,89.993973,0.652155,0.273369,0.654073,0.268610
6435,-6.950271,6.973413,-0.050781,-0.035440,-0.091984,0.048400,90.407112,44.925560,89.989517,0.652163,0.273401,0.654039,0.268641
6436,-6.948548,6.972844,-0.053399,-0.032389,-0.091984,0.057555,90.404785,44.921150,89.986496,0.652165,0.273430,0.654016,0.268662
6437,-6.947910,6.961737,-0.062040,-0.024759,-0.093509,0.057555,90.407600,44.918980,89.986961,0.652152,0.273456,0.654019,0.268661
6438,-6.953338,6.958354,-0.064783,-0.041544,-0.090458,0.054503,90.414986,44.921124,89.990768,0.652131,0.273464,0.654050,0.268628
6439,-6.949749,6.954381,-0.060250,-0.035440,-0.093510,0.057555,90.420990,44.925179,89.993736,0.652119,0.273458,0.654081,0.268588
6440,-6.949360,6.961021,-0.060498,-0.046122,-0.099613,0.051451,90.424316,44.927608,89.994751,0.652115,0.273457,0.654097,0.268561
6441,-6.951331,6.963091,-0.058852,-0.038492,-0.104191,0.045348,90.426346,44.928459,89.994774,0.652112,0.273464,0.654104,0.268544
6442,-6.950358,6.969635,-0.057884,-0.043069,-0.110295,0.048400,90.426872,44.927628,89.993568,0.652111,0.273478,0.654100,0.268539
6443,-6.948038,6.976998,-0.059787,-0.029336,-0.122502,0.060607,90.427467,44.923012,89.992073,0.652103,0.273517,0.654087,0.268554
6444,-6.948016,6.975948,-0.060266,-0.015603,-0.122502,0.057555,90.429214,44.916729,89.990936,0.652086,0.273569,0.654074,0.268573
6445,-6.949702,6.976266,-0.060056,-0.003396,-0.116398,0.049926,90.431496,44.911663,89.989944,0.652071,0.273616,0.654065,0.268583
6446,-6.949298,6.971106,-0.066545,-0.009500,-0.119450,0.045348,90.436325,44.908623,89.990715,0.652050,0.273657,0.654071,0.268577
6447,-6.956160,6.970414,-0.063776,-0.012550,-0.104191,0.031614,90.442398,44.908813,89.992607,0.652032,0.273679,0.654090,0.268553
6448,-6.960374,6.961154,-0.061663,-0.015603,-0.101139,0.020933,90.446144,44.913879,89.993164,0.652034,0.273669,0.654112,0.268505
6449,-6.963300,6.960022,-0.065570,-0.024759,-0.093510,0.020933,90.450157,44.922478,89.994164,0.652042,0.273637,0.654144,0.268439
6450,-6.962082,6.956684,-0.063613,-0.018655,-0.091984,0.028563,90.454697,44.931526,89.995689,0.652049,0.273602,0.654180,0.268370
6451,-6.959577,6.959803,-0.057307,-0.004922,-0.087406,0.040770,90.455856,44.938652,89.994652,0.652066,0.273574,0.654196,0.268317
6452,-6.958188,6.964592,-0.058618,-0.004922,-0.096561,0.048400,90.454788,44.942223,89.991852,0.652084,0.273564,0.654196,0.268287
6453,-6.951639,6.968320,-0.059231,-0.001870,-0.087406,0.043822,90.454544,44.941818,89.989578,0.652089,0.273578,0.654189,0.268278
6454,-6.948182,6.967702,-0.057238,-0.006448,-0.096561,0.046874,90.453758,44.938576,89.986938,0.652089,0.273607,0.654173,0.268286
6456,-6.951346,6.970209,-0.056337,-0.011025,-0.102665,0.036193,90.451416,44.935204,89.983131,0.652095,0.273635,0.654150,0.268296
6457,-6.959316,6.969912,-0.060458,-0.014077,-0.099613,0.028563,90.450371,44.934299,89.980301,0.652102,0.273650,0.654139,0.268291
6458,-6.958307,6.966323,-0.060432,-0.011025,-0.088932,0.030089,90.451424,44.935936,89.979103,0.652107,0.273653,0.654143,0.268269
6459,-6.961387,6.964397,-0.061086,-0.007974,-0.096561,0.046874,90.452904,44.938793,89.978180,0.652112,0.273651,0.654150,0.268239
6460,-6.961943,6.960205,-0.060002,-0.012551,-0.096561,0.046874,90.453934,44.943142,89.976860,0.652123,0.273639,0.654160,0.268201
6461,-6.956533,6.961224,-0.062075,-0.030863,-0.096561,0.052977,90.454872,44.946693,89.975746,0.652132,0.273631,0.654168,0.268169
