seq,ax,ay,az,wroll,wpitch,wyaw,roll,pitch,yaw,q0,q1,q2,q3
60,0.280137,-3.003489,9.316925,-2.197676,8.740072,24.728716,-17.867718,-1.639203,0.528341,0.987767,-0.155212,-0.014847,0.002333
61,-1.281408,-4.759032,9.139272,8.529579,3.403912,15.707445,-17.894632,-1.394759,1.524815,0.987696,-0.155341,-0.014091,0.011250
62,-1.610258,-4.624605,8.818722,16.789413,-1.137243,9.739552,-17.520559,-1.190911,1.918861,0.988169,-0.152099,-0.012820,0.014966
63,-1.427139,-4.666428,8.642472,19.635265,-3.943419,7.041716,-16.961823,-1.147807,2.212705,0.988860,-0.147254,-0.012752,0.017619
64,-1.705788,-4.617430,8.452452,19.432316,-6.493241,2.283880,-16.360962,-1.227338,2.413022,0.989581,-0.142029,-0.013595,0.019317
65,-1.770035,-4.430014,8.417109,19.117975,-7.251624,-2.980563,-15.766773,-1.403445,2.466884,0.990282,-0.136854,-0.015081,0.019642
66,-1.590431,-4.364494,8.374545,16.743635,-7.361491,-8.772975,-15.213088,-1.643746,2.344768,0.990930,-0.132037,-0.016923,0.018380
67,-1.258362,-4.460313,8.512382,13.345400,-7.601061,-15.511461,-14.750987,-1.948080,2.019919,0.991467,-0.128036,-0.019118,0.015296
68,-1.823850,-4.247872,8.668522,12.550393,-8.811120,-23.324200,-14.347296,-2.330877,1.463737,0.991919,-0.124583,-0.021773,0.010131
69,-1.511777,-4.178161,8.714993,13.296571,-9.867061,-27.299232,-13.929637,-2.789871,0.723096,0.992325,-0.121069,-0.024929,0.003310
70,-1.390868,-4.194742,8.743374,11.697400,-12.032350,-30.290051,-13.514999,-3.326477,-0.121405,0.992631,-0.117648,-0.028699,-0.004467
71,-1.323422,-4.228811,8.746605,9.162838,-14.429578,-32.162354,-13.158595,-3.950505,-1.031139,0.992748,-0.114814,-0.033209,-0.012883
72,-1.370369,-4.142342,8.690602,5.871417,-16.335461,-32.205086,-12.888631,-4.644454,-1.959657,0.992642,-0.112817,-0.038340,-0.021526
73,-0.610715,-4.338242,8.707734,1.032707,-16.700157,-28.587116,-12.751083,-5.364739,-2.824266,0.992297,-0.112036,-0.043762,-0.029660
74,-0.296016,-4.451510,8.742870,-3.368061,-15.937192,-26.185308,-12.770377,-6.065912,-3.592876,0.991732,-0.112650,-0.049075,-0.036992
75,-0.194918,-4.380083,8.795872,-4.782594,-12.903653,-24.213816,-12.884511,-6.692296,-4.303583,0.991046,-0.114109,-0.053753,-0.043791
76,0.039557,-4.311070,8.888535,-4.381275,-9.178868,-22.098881,-13.011285,-7.196289,-4.972062,0.990360,-0.115676,-0.057391,-0.050115
77,0.208029,-4.211891,9.032829,-1.636136,-5.863034,-20.179266,-13.082128,-7.574318,-5.600866,0.989770,-0.116737,-0.059989,-0.055948
78,0.261767,-4.070798,8.956716,1.821611,-3.152990,-17.968201,-13.048676,-7.839870,-6.185328,0.989337,-0.116859,-0.061705,-0.061233
79,0.349840,-4.045123,8.993079,2.613566,-0.917509,-16.376661,-12.946399,-8.010530,-6.726754,0.989029,-0.116341,-0.062685,-0.066013
80,0.579737,-4.012833,9.021878,2.865344,0.062135,-15.334454,-12.828982,-8.121142,-7.237462,0.988769,-0.115659,-0.063194,-0.070459
81,0.648297,-3.962752,8.989144,3.352114,0.695394,-13.517077,-12.703671,-8.196977,-7.707561,0.988547,-0.114875,-0.063455,-0.074516
82,0.642561,-4.007489,8.947571,-0.119366,0.564164,-12.191048,-12.635448,-8.252800,-8.127934,0.988297,-0.114549,-0.063562,-0.078156
83,0.541446,-4.162699,9.082387,-3.180372,0.094179,-11.583730,-12.682681,-8.309776,-8.514039,0.987941,-0.115203,-0.063634,-0.081563
84,0.539913,-4.110560,8.951371,-0.986092,1.263038,-10.305005,-12.749311,-8.347366,-8.871528,0.987588,-0.115997,-0.063549,-0.084716
85,0.342436,-4.167054,8.951535,0.738204,2.778283,-8.719567,-12.756491,-8.328396,-9.191799,0.987353,-0.116224,-0.063055,-0.087462
86,0.093898,-4.194117,8.972997,1.644604,4.378979,-7.500353,-12.725784,-8.243028,-9.477400,0.987223,-0.116062,-0.062053,-0.089828
87,-0.115603,-4.232498,9.000255,4.580484,6.660237,-5.505969,-12.637665,-8.077254,-9.724360,0.987232,-0.115326,-0.060444,-0.091759
88,-0.185335,-4.035904,8.825609,8.102320,9.214636,-3.670280,-12.448436,-7.815419,-9.925765,0.987437,-0.113623,-0.058136,-0.093162
89,-0.229290,-4.009184,8.906932,6.217802,10.192754,-2.386977,-12.236820,-7.483656,-10.088021,0.987730,-0.111650,-0.055287,-0.094163
90,-0.075569,-4.046575,8.813526,4.704084,8.895717,-1.514148,-12.166230,-7.103401,-10.202987,0.987944,-0.110826,-0.051951,-0.094789
91,0.090194,-4.025157,8.776598,5.256469,6.136844,-1.193704,-12.195820,-6.750440,-10.274486,0.988070,-0.110859,-0.048811,-0.095110
92,0.054763,-4.071217,8.878972,8.122158,3.426801,1.334755,-12.176517,-6.488771,-10.281047,0.988235,-0.110507,-0.046562,-0.094929
93,-0.025076,-4.020708,8.998993,10.969534,0.678609,4.977139,-12.070831,-6.293648,-10.168481,0.988539,-0.109409,-0.045072,-0.093745
94,0.050940,-3.687120,9.131665,13.807756,-3.088901,6.353524,-11.798877,-6.227660,-9.960478,0.989001,-0.106934,-0.044919,-0.091787
95,-0.212021,-3.412378,9.569100,14.943045,-4.924589,10.880944,-11.390623,-6.273289,-9.646057,0.989598,-0.103317,-0.045923,-0.088949
96,-0.218223,-3.273681,9.700373,14.073266,-5.499863,15.899714,-10.990636,-6.326240,-9.167964,0.990286,-0.099702,-0.047108,-0.084699
97,0.123847,-3.138281,9.721447,9.597727,-4.814723,18.252689,-10.691456,-6.360767,-8.569545,0.990953,-0.096889,-0.048134,-0.079428
98,0.344223,-3.162679,9.606084,3.114070,-3.912901,16.798485,-10.576795,-6.375000,-7.961436,0.991449,-0.095648,-0.048845,-0.074131
99,0.093001,-3.491293,9.481910,-3.015572,-1.141820,15.870719,-10.672309,-6.336104,-7.403387,0.991739,-0.096216,-0.048915,-0.069313
100,0.192877,-3.531925,8.881305,-8.069438,1.614001,11.283788,-10.948718,-6.220706,-6.952979,0.991830,-0.098360,-0.048136,-0.065440
101,-0.044998,-3.683630,8.738403,-14.176190,4.200445,6.683124,-11.396606,-6.043578,-6.671355,0.991687,-0.102036,-0.046597,-0.063043
102,-0.190856,-3.839005,8.500054,-15.436604,4.977140,2.253362,-11.953537,-5.835429,-6.550595,0.991350,-0.106713,-0.044601,-0.062041
103,-0.280358,-3.919786,8.526937,-14.707211,5.285378,-0.507037,-12.508265,-5.631814,-6.553232,0.990919,-0.111420,-0.042536,-0.062091
104,-0.270056,-4.050486,8.616240,-12.909672,3.596178,-1.999392,-13.014045,-5.466347,-6.622030,0.990459,-0.115743,-0.040761,-0.062713
105,-0.126724,-4.345423,8.975371,-9.433615,2.544816,-3.168251,-13.429104,-5.358935,-6.724934,0.990027,-0.119317,-0.039498,-0.063643
106,-0.005701,-4.398460,9.117595,-4.527764,1.652149,-4.685020,-13.700546,-5.298000,-6.864440,0.989691,-0.121681,-0.038672,-0.064880
107,-0.021476,-4.372408,9.429349,-2.373157,1.314920,-6.212472,-13.846950,-5.271104,-7.048968,0.989442,-0.122994,-0.038159,-0.066495
108,-0.110286,-4.309592,9.603887,-1.935217,2.064149,-6.873198,-13.942719,-5.245660,-7.271089,0.989219,-0.123882,-0.037643,-0.068418
110,0.021304,-4.095391,9.399233,-3.323809,1.621631,-6.963228,-14.049986,-5.219260,-7.506938,0.988972,-0.124872,-0.037094,-0.070461
111,-0.028198,-3.851947,8.991795,-3.635097,-1.645375,-6.477983,-14.185086,-5.252724,-7.721498,0.988675,-0.126124,-0.037064,-0.072391
112,-0.096411,-3.736925,8.594800,-1.381307,-5.228249,-5.080235,-14.292313,-5.388087,-7.877298,0.988393,-0.127173,-0.037992,-0.073913
113,-0.202182,-3.713495,8.403517,-0.058329,-7.860469,-2.412918,-14.349083,-5.604661,-7.941096,0.988182,-0.127802,-0.039754,-0.074711
114,0.126895,-3.953850,8.703471,1.266174,-11.637135,-0.732874,-14.372789,-5.908911,-7.907265,0.988023,-0.128160,-0.042402,-0.074749
115,0.144630,-4.027469,8.982807,6.168973,-12.354320,1.894769,-14.302779,-6.271260,-7.784690,0.987988,-0.127703,-0.045711,-0.074047
116,0.284465,-4.000784,9.275814,8.331209,-9.943358,3.699939,-14.120734,-6.588755,-7.597842,0.988132,-0.126221,-0.048775,-0.072692
117,0.444221,-3.887050,9.411482,5.348025,-6.851833,3.144502,-13.949889,-6.814772,-7.414044,0.988305,-0.124781,-0.051034,-0.071265
118,0.624275,-3.863287,9.455664,0.597819,-4.910856,0.086548,-13.897461,-6.976954,-7.309793,0.988331,-0.124362,-0.052580,-0.070508
119,0.460918,-3.911387,9.143362,-1.887914,-2.542620,-3.644340,-13.952202,-7.096208,-7.333214,0.988186,-0.124903,-0.053550,-0.070857
120,0.375137,-3.950167,8.752192,-4.263779,-1.259317,-7.280619,-14.075480,-7.183078,-7.490777,0.987900,-0.126082,-0.054051,-0.072362
121,0.260389,-4.279160,8.718221,-7.591823,-1.269998,-9.421493,-14.286905,-7.270830,-7.746642,0.987447,-0.128070,-0.054388,-0.074758
122,0.418813,-4.737317,8.909545,-6.432120,-1.428694,-10.694115,-14.533991,-7.376658,-8.056054,0.986896,-0.130402,-0.054788,-0.077653
123,0.341079,-4.719470,8.793134,-0.377247,-1.436324,-10.056278,-14.662357,-7.489371,-8.374249,0.986458,-0.131722,-0.055307,-0.080574
124,0.268660,-4.487820,8.629445,2.935537,-1.291361,-8.029848,-14.637812,-7.586718,-8.649754,0.986226,-0.131699,-0.055847,-0.083037
125,0.377752,-4.461694,8.892854,3.336855,-1.123509,-7.478990,-14.552868,-7.667929,-8.885108,0.986097,-0.131131,-0.056339,-0.085107
126,0.303332,-4.223091,8.984095,5.631847,-0.908354,-5.930176,-14.422517,-7.733681,-9.088602,0.986049,-0.130150,-0.056771,-0.086863
127,0.168458,-3.916669,9.069502,6.365818,-0.902250,-4.289805,-14.298191,-7.737703,-9.234458,0.986076,-0.129154,-0.056736,-0.088061
128,0.260263,-3.883759,9.182797,6.268158,-0.297984,-3.302533,-14.218814,-7.681715,-9.333276,0.986126,-0.128485,-0.056203,-0.088814
129,0.421818,-3.818427,9.247635,8.100795,-0.095036,-2.187081,-14.108696,-7.616112,-9.402084,0.986239,-0.127529,-0.055647,-0.089286
130,0.504530,-3.769576,9.318069,10.543800,0.091127,-1.930725,-13.874460,-7.579897,-9.457661,0.986478,-0.125517,-0.055456,-0.089614
131,0.611597,-3.807255,9.363119,12.109401,0.461927,-3.056858,-13.519708,-7.572504,-9.536724,0.986805,-0.122496,-0.055585,-0.090115
132,0.593898,-3.737279,9.298286,14.682111,0.843409,-3.380354,-13.093435,-7.559134,-9.642398,0.987179,-0.118867,-0.055695,-0.090806
133,0.574368,-3.557977,9.211114,15.545785,0.132327,-3.047703,-12.609629,-7.549952,-9.746763,0.987595,-0.114743,-0.055894,-0.091461
134,0.482462,-3.555344,9.274030,15.789933,-0.449050,-1.775081,-12.111418,-7.553922,-9.820142,0.988024,-0.110487,-0.056255,-0.091853
135,0.347966,-3.513742,9.283181,17.503548,-1.323405,1.791007,-11.592935,-7.561653,-9.808897,0.988518,-0.106015,-0.056747,-0.091507
136,0.360520,-3.402991,9.191207,19.874836,-2.267953,6.010190,-11.024787,-7.572234,-9.663455,0.989139,-0.101047,-0.057420,-0.089978
137,0.462305,-3.334543,9.198317,21.516733,-3.384930,9.622056,-10.408256,-7.595145,-9.382454,0.989871,-0.095596,-0.058336,-0.087257
138,0.533207,-3.305832,9.165434,23.576729,-3.754204,12.719683,-9.746842,-7.628035,-8.986297,0.990680,-0.089698,-0.059433,-0.083517
139,0.607887,-3.287829,9.138910,24.124537,-3.447494,13.627609,-9.053287,-7.657431,-8.523855,0.991514,-0.083476,-0.060529,-0.079174
140,0.642028,-3.294627,9.104720,23.706434,-2.702842,11.793447,-8.358187,-7.678723,-8.079681,0.992287,-0.077235,-0.061493,-0.074973
141,0.603471,-3.168059,9.102401,21.756302,-1.947509,9.260411,-7.694061,-7.690633,-7.711984,0.992944,-0.071290,-0.062259,-0.071436
142,0.538880,-3.014350,9.074239,17.048820,-1.012117,7.324011,-7.130093,-7.686780,-7.422831,0.993462,-0.066242,-0.062743,-0.068620
143,0.470008,-3.063234,9.298684,11.996481,0.146061,5.216709,-6.789111,-7.626928,-7.196155,0.993825,-0.063130,-0.062553,-0.066439
144,0.422444,-2.955886,9.538696,11.685193,0.669453,4.406443,-6.595114,-7.512575,-7.012843,0.994104,-0.061291,-0.061771,-0.064689
145,0.379627,-2.690828,9.632016,12.101770,1.284401,3.695362,-6.378206,-7.379140,-6.859536,0.994383,-0.059261,-0.060815,-0.063182
146,0.393750,-2.536575,9.785673,12.120081,1.758964,2.918665,-6.080323,-7.262642,-6.742250,0.994666,-0.056557,-0.060025,-0.061956
147,0.320188,-2.446026,10.007419,13.682629,1.978698,2.000058,-5.692896,-7.170526,-6.662082,0.994947,-0.053108,-0.059471,-0.061020
148,0.234932,-2.158250,10.086660,16.446081,2.526505,0.867822,-5.225214,-7.067925,-6.617459,0.995237,-0.048974,-0.058848,-0.060352
149,0.167246,-1.822272,10.018734,14.987295,4.217230,-1.250163,-4.723398,-6.931798,-6.630480,0.995510,-0.044557,-0.057923,-0.060162
150,0.116942,-1.746144,10.092717,9.359683,6.849451,-2.544147,-4.329644,-6.727351,-6.705903,0.995728,-0.041074,-0.056326,-0.060557
151,-0.271693,-1.844703,10.345578,2.105434,12.988250,-7.398117,-4.139522,-6.379984,-6.894125,0.995873,-0.039339,-0.053342,-0.062000
152,-0.408926,-1.566442,10.285923,-0.142254,19.424601,-14.205271,-4.085705,-5.832320,-7.291977,0.995935,-0.038762,-0.048475,-0.065279
153,-0.313696,-0.950461,9.628633,11.294558,18.193180,-16.430067,-3.858983,-5.208492,-7.845946,0.995957,-0.036663,-0.043004,-0.069832
154,-0.478836,-1.055856,9.637450,-5.951452,16.946497,-15.946349,-3.728417,-4.626760,-8.423775,0.995863,-0.035380,-0.037848,-0.074656
155,-0.455599,-1.553106,10.036569,-27.863739,14.266973,-11.394514,-4.269958,-4.108744,-8.915558,0.995539,-0.039902,-0.032821,-0.078952
156,-0.016890,-2.148771,10.083274,-28.173506,7.359110,-4.498857,-5.210387,-3.748869,-9.209244,0.995090,-0.047906,-0.028923,-0.081635
157,-0.064150,-2.376001,9.699508,-5.484520,0.817468,3.249791,-5.803083,-3.598598,-9.241490,0.994853,-0.052957,-0.027180,-0.082001
158,-0.094862,-2.495202,9.138411,-14.653805,1.424786,10.385018,-6.190065,-3.520916,-9.016710,0.994851,-0.056211,-0.026339,-0.080106
159,0.157330,-2.494854,9.148288,-18.209209,-1.503465,17.274572,-6.804219,-3.456234,-8.555451,0.994871,-0.061396,-0.025595,-0.076210
160,0.077744,-2.011560,7.808020,11.981223,-5.771478,19.737415,-6.980908,-3.491507,-7.925439,0.995168,-0.062810,-0.026130,-0.070797
161,-0.025875,-1.268172,7.140438,15.446600,-9.569506,23.655991,-6.592988,-3.647678,-7.174386,0.995770,-0.059349,-0.028116,-0.064259
162,0.050941,-1.397586,7.468575,-11.452414,-13.800896,26.523205,-6.599294,-3.924151,-6.295977,0.996143,-0.059314,-0.030971,-0.056760
163,0.187745,-2.351513,9.074758,-25.660303,-17.820185,23.993221,-7.307799,-4.331108,-5.392040,0.996037,-0.065387,-0.034673,-0.049313
164,0.266169,-3.249552,9.933600,-13.979344,-16.897001,15.707447,-8.066257,-4.803351,-4.653782,0.995706,-0.071911,-0.038914,-0.043409
165,0.316503,-3.700772,10.857771,-23.060127,-13.707816,10.359077,-8.772882,-5.232075,-4.144432,0.995254,-0.077999,-0.042716,-0.039504
166,0.210088,-3.910268,11.202653,-28.483265,-9.864009,4.966456,-9.705905,-5.563000,-3.823823,0.994550,-0.086065,-0.045507,-0.037307
167,0.286056,-4.231066,11.305760,-28.779297,-4.910856,-1.179970,-10.715055,-5.776405,-3.713361,0.993692,-0.094828,-0.047120,-0.036919
168,0.053747,-4.204755,10.937447,-24.773743,-0.391065,-6.418473,-11.640663,-5.867232,-3.816717,0.992817,-0.102916,-0.047514,-0.038273
169,-0.217134,-3.768710,10.044015,-23.058601,0.933438,-5.122962,-12.458428,-5.872313,-4.003804,0.991991,-0.110076,-0.047104,-0.040235
170,-0.218229,-3.924599,9.971575,-25.965490,1.679616,-4.541584,-13.295777,-5.836807,-4.167885,0.991118,-0.117380,-0.046334,-0.041963
171,-0.103592,-4.134155,9.761577,-23.437031,2.100771,-4.846768,-14.141025,-5.785112,-4.332084,0.990188,-0.124739,-0.045397,-0.043667
172,-0.060972,-4.083004,9.398314,-23.440083,1.124179,-2.060429,-14.949224,-5.736187,-4.453982,0.989260,-0.131754,-0.044525,-0.044984
173,-0.046846,-4.200659,8.903580,-22.152201,0.066713,1.563644,-15.748633,-5.694482,-4.463544,0.988333,-0.138644,-0.043839,-0.045327
174,0.092536,-4.285640,8.513469,-17.975744,-0.413954,4.313361,-16.471176,-5.650254,-4.363273,0.987499,-0.144823,-0.043298,-0.044684
175,0.272585,-3.999460,8.097684,-11.324236,-1.311198,5.872857,-17.019587,-5.610537,-4.187516,0.986881,-0.149471,-0.042971,-0.043327
176,0.449918,-3.841467,7.918936,-6.242904,-2.443435,7.391152,-17.373768,-5.591638,-3.953037,0.986510,-0.152428,-0.042986,-0.041416
177,0.651012,-3.978754,7.975685,-3.760223,-2.338146,6.008664,-17.601137,-5.592401,-3.711357,0.986291,-0.154294,-0.043236,-0.039422
178,0.732442,-3.913288,8.248622,-2.290758,-0.973968,2.825584,-17.752560,-5.595513,-3.550156,0.986139,-0.155537,-0.043429,-0.038096
179,0.623277,-3.789367,8.564840,-2.226668,1.202001,-1.883422,-17.858120,-5.581424,-3.533490,0.986008,-0.156437,-0.043295,-0.037974
180,0.430903,-4.040887,8.927058,-3.656461,5.169407,-6.624472,-17.966190,-5.513987,-3.699314,0.985835,-0.157415,-0.042451,-0.039351
181,0.186910,-4.254572,9.264995,-1.608668,10.116457,-9.839598,-18.049200,-5.340976,-4.037906,0.985679,-0.158212,-0.040466,-0.042060
182,-0.224952,-4.181302,9.505104,2.154263,14.033508,-8.570026,-18.028229,-5.030347,-4.453494,0.985686,-0.158093,-0.037228,-0.045208
183,-0.547175,-4.265837,9.598749,5.346499,17.816277,-4.161629,-17.896946,-4.560519,-4.818002,0.985914,-0.156938,-0.032736,-0.047671
184,-0.413478,-4.296047,9.319270,9.472601,20.985624,0.590103,-17.657969,-3.932008,-5.070432,0.986370,-0.154745,-0.027082,-0.048944
185,-0.214382,-4.012730,9.009759,10.069238,21.113802,3.155184,-17.350554,-3.219054,-5.219948,0.986951,-0.151883,-0.020872,-0.049230
186,-0.062392,-4.059042,8.707272,5.206114,19.687061,4.406443,-17.121151,-2.514081,-5.299255,0.987413,-0.149663,-0.014790,-0.048964
187,0.268418,-4.108595,8.350557,0.834338,17.579758,2.744710,-17.052641,-1.876249,-5.366359,0.987618,-0.148839,-0.009234,-0.048714
188,0.548304,-4.076186,8.054906,-3.007943,12.156619,-0.969393,-17.124546,-1.395528,-5.482460,0.987563,-0.149279,-0.004909,-0.049100
189,0.318595,-4.134439,8.294771,-9.519065,3.997497,-5.002413,-17.368967,-1.172554,-5.656404,0.987203,-0.151300,-0.002653,-0.050316
190,0.044454,-4.375892,8.571011,-10.930548,-3.194190,-7.187538,-17.745012,-1.220503,-5.853561,0.986605,-0.154564,-0.002635,-0.052086
191,-0.054849,-4.422302,8.766097,-5.811067,-10.898586,-8.489152,-18.058504,-1.519305,-6.029452,0.986045,-0.157396,-0.004823,-0.054014
192,-0.472924,-4.484819,8.723229,-0.644284,-20.412733,-5.545642,-18.201784,-2.075942,-6.088812,0.985704,-0.158874,-0.009463,-0.055294
193,-0.678951,-4.290217,8.823512,0.754990,-26.356211,-1.219644,-18.240511,-2.830229,-5.951295,0.985523,-0.159511,-0.016125,-0.055149
194,-0.602031,-4.238530,8.595110,0.904530,-27.894344,3.515302,-18.263309,-3.651108,-5.629991,0.985386,-0.159976,-0.023625,-0.053514
195,-0.579748,-4.330580,8.466791,-1.488121,-28.162907,9.425212,-18.342934,-4.442305,-5.128653,0.985210,-0.160822,-0.031097,-0.050307
196,-0.554431,-4.229035,8.354465,-4.898564,-25.962524,15.452616,-18.541874,-5.135864,-4.445002,0.984925,-0.162535,-0.037944,-0.045448
197,-0.124520,-4.140607,8.544138,-8.751526,-19.820671,17.285254,-18.873798,-5.655112,-3.677318,0.984499,-0.165239,-0.043383,-0.039696
198,0.211752,-4.473543,8.629824,-7.993141,-13.964171,17.326452,-19.259867,-5.977407,-2.941208,0.984020,-0.168321,-0.047100,-0.033987
199,0.448217,-4.589408,8.775373,-4.329394,-8.893520,15.071135,-19.567692,-6.141231,-2.298214,0.983661,-0.170712,-0.049374,-0.028835
200,0.564506,-4.495426,8.816547,-1.109692,-2.956146,10.298039,-19.741274,-6.172292,-1.827479,0.983496,-0.172000,-0.050304,-0.024916
201,0.587916,-4.527355,8.948635,-1.175306,3.597704,4.395761,-19.833899,-6.067722,-1.596111,0.983455,-0.172689,-0.049735,-0.022815
202,0.379031,-4.570175,9.090150,-0.636655,8.968962,-1.714044,-19.890047,-5.841640,-1.622284,0.983471,-0.173172,-0.047743,-0.022725
203,0.211280,-4.280670,9.024132,1.429448,14.175419,-5.789791,-19.877781,-5.503721,-1.869613,0.983590,-0.173147,-0.044471,-0.024337
204,0.054899,-4.263958,8.994865,1.446233,18.405283,-8.936250,-19.814339,-5.055928,-2.284243,0.983782,-0.172717,-0.040015,-0.027203
205,-0.099343,-4.195065,8.982748,1.839922,20.283697,-10.196663,-19.738384,-4.534654,-2.802210,0.983970,-0.172167,-0.034777,-0.030850
206,-0.162705,-4.173475,8.812243,1.351627,19.810661,-10.057804,-19.667246,-3.996317,-3.344867,0.984115,-0.171614,-0.029359,-0.034691
207,-0.195177,-3.991771,8.602881,1.482856,18.524305,-8.876738,-19.609131,-3.478557,-3.856191,0.984209,-0.171119,-0.024164,-0.038304
208,-0.278198,-3.988350,8.484840,2.026085,15.164218,-8.980500,-19.546520,-3.027807,-4.323991,0.984273,-0.170552,-0.019616,-0.041646
209,-0.384986,-3.995478,8.405196,1.093745,10.002013,-8.113774,-19.497803,-2.705747,-4.731786,0.984280,-0.170100,-0.016261,-0.044668
210,-0.392932,-4.253253,8.513382,1.298219,4.704000,-7.678887,-19.469625,-2.540802,-5.060677,0.984232,-0.169847,-0.014367,-0.047247
211,-0.548681,-4.256529,8.689631,5.325136,-0.920561,-6.688560,-19.376617,-2.538456,-5.306385,0.984267,-0.169077,-0.014023,-0.049343
213,-0.467860,-4.410065,8.765443,9.243712,-6.833521,-3.124000,-19.157614,-2.691414,-5.416860,0.984500,-0.167267,-0.015271,-0.050485
214,-0.247378,-4.475473,8.880096,10.188260,-11.219032,1.275244,-18.868078,-2.966367,-5.346355,0.984873,-0.164870,-0.017864,-0.050231
215,0.143477,-4.360234,8.998506,12.310822,-12.818201,3.612961,-18.534599,-3.306663,-5.138812,0.985337,-0.162088,-0.021230,-0.048868
216,0.528930,-4.073809,8.842875,12.341340,-12.772423,5.076324,-18.167665,-3.661062,-4.865069,0.985851,-0.158995,-0.024817,-0.046928
217,0.878242,-4.026956,8.812953,9.435978,-11.325846,5.526472,-17.850378,-3.991192,-4.570621,0.986292,-0.156299,-0.028191,-0.044767
218,1.066609,-4.027215,8.844208,5.717299,-8.379283,2.708088,-17.641472,-4.270090,-4.337401,0.986563,-0.154520,-0.030989,-0.043077
219,1.145816,-4.019853,8.949862,1.885700,-4.657552,-1.331037,-17.589478,-4.495173,-4.244506,0.986583,-0.154108,-0.033072,-0.042560
220,0.975219,-3.898939,8.965885,-0.189559,-1.492783,-3.549733,-17.660910,-4.647832,-4.283161,0.986412,-0.154775,-0.034308,-0.043116
221,0.840849,-3.751798,9.107346,-0.659544,1.342387,-3.890014,-17.753967,-4.700178,-4.393815,0.986223,-0.155623,-0.034574,-0.044166
222,0.532013,-3.670993,9.310505,-0.102581,4.208075,-3.697748,-17.825314,-4.639048,-4.537209,0.986094,-0.156263,-0.033825,-0.045340
223,0.269372,-3.695619,9.488599,1.380619,7.240089,-3.433762,-17.828997,-4.473565,-4.706151,0.986087,-0.156295,-0.032168,-0.046573
224,0.012138,-3.685194,9.468483,2.386203,9.730399,-2.600607,-17.766777,-4.219327,-4.887698,0.986195,-0.155730,-0.029757,-0.047780
225,-0.155646,-3.802373,9.395700,4.661358,10.331614,-0.107245,-17.655169,-3.894793,-5.031519,0.986403,-0.154699,-0.026815,-0.048559
226,-0.281316,-3.895593,9.355921,4.693403,9.495407,1.775747,-17.513775,-3.549387,-5.103553,0.986680,-0.153381,-0.023803,-0.048692
227,-0.203574,-3.964839,9.224820,3.611521,7.777213,2.892725,-17.396976,-3.230269,-5.114210,0.986931,-0.152267,-0.021089,-0.048343
228,-0.219552,-3.822724,9.169611,2.235137,3.770133,5.985776,-17.359661,-2.955309,-5.027133,0.987097,-0.151835,-0.018851,-0.047227
229,-0.446774,-3.659358,8.983992,1.968100,-1.501939,10.934351,-17.386127,-2.751235,-4.764504,0.987222,-0.151953,-0.017430,-0.044702
230,-0.566936,-3.713160,9.109790,-0.317737,-4.904752,12.817343,-17.428120,-2.675699,-4.351878,0.987340,-0.152229,-0.017311,-0.041054
231,-0.580680,-3.804932,9.054083,-0.207870,-7.507982,15.142853,-17.481972,-2.708124,-3.843760,0.987433,-0.152623,-0.018248,-0.036727
232,-0.639295,-3.725435,8.862922,0.033226,-9.696157,17.070097,-17.535891,-2.793967,-3.243795,0.987519,-0.153009,-0.019772,-0.031679
233,-0.522076,-3.830246,8.730692,-0.087321,-9.796867,16.586380,-17.592196,-2.908631,-2.609085,0.987576,-0.153401,-0.021595,-0.026372
234,-0.180290,-4.044999,8.876695,0.356722,-8.367077,13.784781,-17.644623,-3.023428,-2.032929,0.987598,-0.153756,-0.023345,-0.021569
235,0.089462,-4.070470,8.857186,1.244811,-6.856411,12.004025,-17.673079,-3.121451,-1.544226,0.987618,-0.153908,-0.024841,-0.017494
236,0.134913,-4.087527,8.941319,1.665966,-4.216560,7.311803,-17.716549,-3.175027,-1.177011,0.987597,-0.154205,-0.025791,-0.014411
237,0.169587,-4.117565,9.063243,1.391300,-0.600117,1.499555,-17.787985,-3.169227,-1.006224,0.987523,-0.154782,-0.025963,-0.012947
238,0.138069,-4.044301,9.142513,0.489478,2.618060,-2.683007,-17.861538,-3.105405,-1.029485,0.987436,-0.155418,-0.025373,-0.013078
239,0.114171,-3.949257,9.152342,-0.740418,5.462385,-6.764857,-17.917509,-3.000848,-1.217593,0.987363,-0.155936,-0.024209,-0.014569
240,0.007857,-3.810385,9.062845,0.063745,7.864192,-10.926056,-17.932463,-2.869024,-1.565788,0.987325,-0.156127,-0.022597,-0.017394
241,-0.026452,-3.721508,8.949587,-1.266862,9.217688,-13.050144,-17.949562,-2.708819,-2.033181,0.987260,-0.156346,-0.020577,-0.021207
242,0.005740,-3.822531,8.944140,-2.145795,9.429792,-13.393476,-18.003325,-2.537430,-2.547865,0.987121,-0.156872,-0.018386,-0.025417
243,-0.140311,-3.730844,8.974535,-2.103069,8.900296,-12.833463,-18.072596,-2.369794,-3.057642,0.986940,-0.157516,-0.016226,-0.029590
244,-0.319967,-3.701327,8.993500,-0.958625,8.152592,-11.669182,-18.123034,-2.210671,-3.533699,0.986773,-0.157978,-0.014186,-0.033479
245,-0.327066,-3.780622,9.075136,-0.978461,6.828088,-7.921510,-18.159164,-2.057639,-3.921251,0.986636,-0.158295,-0.012322,-0.036610
246,-0.345976,-3.819190,9.205628,0.906056,4.398815,-3.598563,-18.197855,-1.897589,-4.160539,0.986536,-0.158607,-0.010600,-0.038455
247,-0.208709,-3.774452,9.287909,2.758529,1.609423,0.721332,-18.203428,-1.758112,-4.235042,0.986529,-0.158621,-0.009294,-0.038905
248,0.095509,-3.792826,9.273829,3.957907,-1.517198,4.002072,-18.160061,-1.696316,-4.158551,0.986626,-0.158223,-0.008882,-0.038158
249,0.335643,-3.849889,9.295309,4.215788,-5.690604,6.724323,-18.072779,-1.745290,-3.949863,0.986805,-0.157469,-0.009620,-0.036421
250,0.369654,-3.904708,9.318708,2.520485,-9.238380,7.206515,-17.988785,-1.911219,-3.651339,0.986982,-0.156761,-0.011484,-0.034068
251,0.405776,-3.738867,9.285598,0.077478,-11.257179,5.590561,-17.974438,-2.171838,-3.342216,0.987040,-0.156666,-0.014156,-0.031758
252,0.209978,-3.491286,9.073721,-2.615779,-11.983520,4.990872,-18.043110,-2.484552,-3.053948,0.986956,-0.157284,-0.017227,-0.029710
253,-0.002600,-3.361751,8.869529,-4.337023,-11.069490,3.902887,-18.183079,-2.796443,-2.792809,0.986756,-0.158505,-0.020238,-0.027911
254,-0.077070,-3.531341,8.734936,-4.936712,-8.731773,2.985806,-18.362171,-3.061788,-2.579389,0.986491,-0.160052,-0.022777,-0.026473
255,-0.019387,-3.484491,8.634892,-0.838077,-5.725701,0.728962,-18.481382,-3.257402,-2.443505,0.986302,-0.161079,-0.024625,-0.025600
256,-0.016894,-3.543379,8.678818,2.273285,-2.391553,-0.201852,-18.475758,-3.369350,-2.391418,0.986290,-0.161035,-0.025663,-0.025306
257,-0.032529,-3.776606,8.891523,5.497566,0.513809,-2.364089,-18.390053,-3.376016,-2.419481,0.986403,-0.160304,-0.025700,-0.025538
258,-0.045935,-3.805881,8.919546,8.148098,3.364238,-4.157051,-18.232615,-3.288968,-2.538534,0.986619,-0.158963,-0.024820,-0.026408
259,-0.173514,-3.519022,8.983200,7.986350,5.825555,-4.477496,-18.019075,-3.122000,-2.719213,0.986917,-0.157135,-0.023183,-0.027691
260,-0.478345,-3.304613,9.022840,4.350070,6.089540,-2.133674,-17.848610,-2.881435,-2.882726,0.987171,-0.155656,-0.020930,-0.028741
261,-0.787762,-3.097162,8.926606,1.296693,4.034119,1.882562,-17.772009,-2.656550,-2.937182,0.987316,-0.154964,-0.018937,-0.028894
262,-0.641107,-2.843632,8.932652,-2.655454,1.939023,6.695331,-17.801903,-2.488531,-2.831239,0.987340,-0.155173,-0.017625,-0.027760
263,-0.309948,-2.916769,9.240449,-5.472312,0.046876,8.808737,-17.946569,-2.355052,-2.595379,0.987227,-0.156361,-0.016762,-0.025570
264,-0.106617,-2.831017,9.399989,-5.272415,-2.307627,7.310278,-18.133471,-2.292470,-2.328266,0.987040,-0.157922,-0.016549,-0.023210
265,0.201294,-2.737012,9.436687,-5.577601,-3.487168,5.254857,-18.317007,-2.310180,-2.099298,0.986827,-0.159472,-0.016983,-0.021290
266,0.548736,-2.875502,9.470305,-4.187483,-2.676901,0.805258,-18.477983,-2.375236,-1.971244,0.986612,-0.160847,-0.017693,-0.020302
267,0.532907,-3.095541,9.367743,0.295685,-1.733879,-4.230295,-18.538204,-2.466322,-2.002213,0.986503,-0.161381,-0.018423,-0.020705
268,0.242453,-3.126216,9.031525,3.924336,-1.448531,-6.830472,-18.461706,-2.574465,-2.160353,0.986558,-0.160762,-0.019146,-0.022206
269,0.082163,-3.308652,8.875040,4.308869,-1.778131,-4.732325,-18.322182,-2.679838,-2.326208,0.986696,-0.159603,-0.019850,-0.023756
270,0.101804,-3.540544,8.913293,4.997062,-1.210487,-2.588399,-18.194328,-2.743801,-2.425067,0.986838,-0.158529,-0.020291,-0.024674
271,0.076012,-3.686024,9.018363,3.979269,-0.847317,-0.758815,-18.104206,-2.757461,-2.464478,0.986950,-0.157762,-0.020373,-0.025016
272,0.075651,-3.675098,9.169562,1.188353,-0.565021,0.831199,-18.083286,-2.741112,-2.452870,0.986985,-0.157577,-0.020253,-0.024890
273,0.195848,-3.896678,9.412180,-1.834507,-0.113346,1.885614,-18.136599,-2.715110,-2.404336,0.986928,-0.158024,-0.020085,-0.024445
274,0.311557,-3.861727,9.417572,-2.972847,1.522446,0.002622,-18.235628,-2.677585,-2.380904,0.986805,-0.158867,-0.019773,-0.024209
275,0.273766,-3.884151,9.561783,-4.391957,2.515823,-2.771511,-18.372095,-2.623770,-2.445143,0.986614,-0.160045,-0.019191,-0.024711
276,0.279121,-3.887281,9.345826,-3.806001,3.500045,-5.083288,-18.518490,-2.565492,-2.600451,0.986387,-0.161321,-0.018439,-0.025991
277,0.216120,-4.047283,9.033678,-3.616786,4.122622,-6.099553,-18.653048,-2.499568,-2.816897,0.986161,-0.162502,-0.017534,-0.027783
278,0.079452,-3.973301,8.917392,-2.609676,3.846430,-7.408798,-18.768644,-2.439053,-3.071981,0.985946,-0.163523,-0.016621,-0.029909
279,-0.146261,-4.129585,8.988493,-1.773469,3.294045,-5.997316,-18.854605,-2.387391,-3.321083,0.985767,-0.164287,-0.015797,-0.031991
280,-0.294766,-4.227317,8.897697,-1.655972,2.499038,-4.176888,-18.929800,-2.335621,-3.511869,0.985616,-0.164948,-0.015056,-0.033569
281,-0.339573,-4.227181,9.143191,-2.307542,1.003631,-1.108251,-19.017609,-2.291706,-3.613191,0.985469,-0.165706,-0.014506,-0.034388
282,-0.370368,-4.166678,9.226481,-1.987099,-1.190650,2.817955,-19.113539,-2.267405,-3.584312,0.985344,-0.166521,-0.014310,-0.034117
283,-0.349655,-4.274237,9.165772,-2.275498,-2.953094,8.547804,-19.215790,-2.252557,-3.381665,0.985257,-0.167372,-0.014448,-0.032366
284,-0.110155,-4.148787,9.074388,-1.311114,-3.766412,9.791433,-19.311737,-2.242668,-3.055032,0.985206,-0.168153,-0.014815,-0.029556
285,0.001156,-4.216984,9.086929,0.707685,-4.100589,9.850944,-19.358383,-2.247408,-2.701568,0.985223,-0.168508,-0.015364,-0.026530
286,0.051148,-4.214314,8.930333,3.927388,-3.751153,9.631211,-19.355627,-2.242512,-2.349203,0.985305,-0.168436,-0.015840,-0.023493
287,0.202364,-4.163264,9.011646,5.674573,-2.318309,7.575789,-19.301870,-2.218050,-2.041164,0.985449,-0.167927,-0.016093,-0.020800
288,0.235220,-4.049709,9.101510,6.970083,-0.923613,4.388132,-19.183352,-2.187388,-1.831637,0.985664,-0.166875,-0.016155,-0.018937
289,0.142641,-4.151259,9.112359,7.012809,-0.203376,2.946132,-19.004974,-2.155228,-1.707930,0.985948,-0.165319,-0.016087,-0.017801
290,0.076328,-4.006294,9.002245,7.290528,0.323068,2.708088,-18.791313,-2.116474,-1.618520,0.986275,-0.163464,-0.015914,-0.016947
291,-0.024767,-3.979293,9.046259,5.685254,0.695394,2.848473,-18.598740,-2.062484,-1.535391,0.986570,-0.161790,-0.015595,-0.016128
292,-0.140705,-4.012977,9.124248,4.908558,0.876979,2.518873,-18.445902,-1.998557,-1.458063,0.986807,-0.160458,-0.015174,-0.015352
293,-0.194809,-3.933768,9.098619,5.262573,0.965483,1.998532,-18.299479,-1.933233,-1.395484,0.987030,-0.159184,-0.014718,-0.014703
294,-0.269452,-3.810714,9.091556,5.039788,0.381054,2.935451,-18.149654,-1.872445,-1.323649,0.987256,-0.157879,-0.014312,-0.013982
295,-0.211320,-3.831632,9.019273,4.424840,-0.217109,3.959347,-18.014788,-1.820439,-1.214523,0.987462,-0.156700,-0.014030,-0.012953
296,-0.175053,-3.849468,9.049617,4.264618,-0.786279,3.915095,-17.894659,-1.783518,-1.083762,0.987645,-0.155646,-0.013903,-0.011762
297,-0.145867,-3.811262,9.007158,4.455358,-1.604176,4.240117,-17.806137,-1.751958,-0.940428,0.987783,-0.154864,-0.013833,-0.010473
298,-0.140503,-3.746996,8.961797,3.747329,-2.496842,5.149568,-17.757210,-1.725869,-0.767862,0.987868,-0.154420,-0.013846,-0.008944
299,0.011046,-3.723268,8.978590,2.648663,-2.705894,5.323524,-17.736767,-1.720005,-0.572635,0.987910,-0.154220,-0.014059,-0.007251
300,0.080353,-3.763391,9.128520,2.012352,-2.354931,4.375924,-17.743061,-1.726883,-0.390517,0.987911,-0.154252,-0.014363,-0.005691
301,0.190389,-3.746852,9.095411,2.895863,-1.730828,2.787436,-17.742886,-1.739845,-0.253662,0.987915,-0.154233,-0.014659,-0.004528
302,0.153220,-3.527872,9.174360,1.812455,-0.923613,0.365792,-17.732460,-1.753846,-0.188100,0.987930,-0.154135,-0.014869,-0.003981
303,0.210942,-3.525585,9.295664,0.674115,0.109439,-2.077215,-17.743038,-1.763963,-0.209537,0.987914,-0.154229,-0.014927,-0.004180
304,0.120409,-3.610973,9.349410,1.601878,0.924283,-4.257761,-17.755274,-1.766337,-0.313758,0.987893,-0.154348,-0.014806,-0.005084
305,-0.044967,-3.401806,9.254823,2.520485,1.243201,-5.980531,-17.714392,-1.770741,-0.486349,0.987938,-0.154017,-0.014614,-0.006572
306,-0.166174,-3.340986,9.279956,0.754989,0.863246,-6.104131,-17.662901,-1.788552,-0.688704,0.987992,-0.153599,-0.014500,-0.008334
307,-0.172977,-3.527466,9.175310,0.625285,0.117068,-4.662131,-17.666775,-1.798493,-0.863707,0.987971,-0.153655,-0.014350,-0.009857
308,-0.185935,-3.574062,9.103485,-0.094952,-0.484146,-4.077703,-17.713079,-1.801312,-0.998850,0.987896,-0.154071,-0.014189,-0.011031
309,-0.178219,-3.581164,9.064839,-2.705810,-1.160131,-3.168251,-17.795763,-1.834302,-1.104366,0.987769,-0.154799,-0.014323,-0.011996
310,-0.107670,-3.541939,9.106277,-6.323779,-1.451583,-2.272533,-17.959078,-1.892528,-1.176891,0.987531,-0.156220,-0.014709,-0.012720
311,-0.061086,-3.545712,9.121952,-8.162518,-0.703880,-2.086370,-18.212616,-1.939451,-1.234396,0.987169,-0.158415,-0.015005,-0.013313
312,-0.010003,-3.487532,9.164678,-9.059762,0.759483,-3.995303,-18.508667,-1.961667,-1.330557,0.986741,-0.160979,-0.015027,-0.014211
313,-0.045401,-3.393979,9.209608,-8.428029,1.722342,-5.417465,-18.803638,-1.963821,-1.492237,0.986302,-0.163540,-0.014778,-0.015644
314,-0.129606,-3.220256,9.286122,-7.544519,2.644001,-6.345227,-19.066971,-1.948259,-1.701299,0.985896,-0.165831,-0.014306,-0.017454
316,-0.071721,-3.347390,9.389414,-5.232742,2.439527,-7.376753,-19.273493,-1.932712,-1.945245,0.985559,-0.167635,-0.013784,-0.019556
317,-0.009667,-3.290539,9.343652,-3.361957,2.148075,-6.358961,-19.410017,-1.927277,-2.186699,0.985316,-0.168837,-0.013358,-0.021640
318,0.079683,-3.329502,9.217631,-2.841617,1.839838,-5.161109,-19.507784,-1.921361,-2.389963,0.985133,-0.169700,-0.012988,-0.023390
319,0.131138,-3.478978,9.220842,-4.117290,1.983275,-3.836606,-19.621698,-1.906083,-2.552592,0.984932,-0.170695,-0.012591,-0.024778
320,0.192206,-3.663949,9.113087,-3.941809,1.951231,-3.226235,-19.758808,-1.879985,-2.685357,0.984702,-0.171883,-0.012138,-0.025895
321,0.204483,-3.706686,9.041589,-4.691038,2.476149,-1.173867,-19.909672,-1.832413,-2.779103,0.984462,-0.173181,-0.011553,-0.026645
322,0.204469,-3.772788,9.160318,-4.953497,2.177068,-1.150978,-20.078884,-1.770040,-2.841722,0.984201,-0.174629,-0.010883,-0.027105
323,0.119888,-3.684762,9.418020,-4.129499,2.358653,-0.197274,-20.236673,-1.703199,-2.888654,0.983960,-0.175975,-0.010199,-0.027421
324,0.056348,-3.659147,9.443920,-1.703277,1.791009,0.011777,-20.337763,-1.634251,-2.915404,0.983809,-0.176832,-0.009542,-0.027554
325,0.063706,-3.517020,9.562296,0.170559,1.446149,0.622148,-20.364727,-1.574448,-2.924212,0.983775,-0.177053,-0.009008,-0.027540
326,-0.084351,-3.410192,9.515378,2.857714,1.232520,-0.079778,-20.312418,-1.522512,-2.931291,0.983862,-0.176594,-0.008564,-0.027517
327,-0.215546,-3.416243,9.456977,4.841417,1.131809,-0.940400,-20.181028,-1.481423,-2.960925,0.984063,-0.175459,-0.008197,-0.027699
328,-0.251997,-3.478027,9.340536,6.754928,0.538224,-2.446488,-19.987240,-1.444538,-3.023419,0.984348,-0.173792,-0.007832,-0.028166
329,-0.194510,-3.329833,9.203741,8.520424,0.115542,-2.333570,-19.731892,-1.415442,-3.101853,0.984718,-0.171597,-0.007527,-0.028779
330,-0.032839,-3.369224,9.203512,9.390202,-0.284250,-3.915955,-19.433294,-1.418076,-3.198817,0.985137,-0.169038,-0.007482,-0.029597
331,0.264058,-3.415761,9.226962,11.772170,-0.293405,-6.395583,-19.081533,-1.470728,-3.357671,0.985601,-0.166035,-0.007796,-0.031016
332,0.352125,-3.288486,9.161626,13.011223,-0.337657,-7.434738,-18.666019,-1.556777,-3.572346,0.986123,-0.162496,-0.008344,-0.032956
333,0.086800,-3.403145,9.049591,11.613474,-0.903776,-4.388992,-18.256016,-1.637895,-3.752637,0.986632,-0.159002,-0.008911,-0.034590
334,0.024483,-3.380566,9.307246,10.185209,-0.500931,-1.392074,-17.908529,-1.675357,-3.836429,0.987078,-0.156026,-0.009224,-0.035336
335,0.208402,-3.378938,9.337452,11.082453,0.411572,-0.221689,-17.584103,-1.668527,-3.860631,0.987509,-0.153230,-0.009233,-0.035509
336,0.278859,-3.403945,9.279381,11.529549,0.205572,-0.648948,-17.244627,-1.658684,-3.876439,0.987956,-0.150303,-0.009232,-0.035605
337,0.169619,-3.568588,9.114623,10.945118,0.950224,-0.874785,-16.924969,-1.641811,-3.904734,0.988365,-0.147544,-0.009150,-0.035801
338,0.470003,-3.466462,9.320592,12.492409,3.109408,-4.736902,-16.572943,-1.600706,-4.012614,0.988786,-0.144504,-0.008769,-0.036653
339,0.256494,-3.521963,9.053068,14.662274,4.043274,-7.715508,-16.130949,-1.546887,-4.244952,0.989269,-0.140691,-0.008160,-0.038559
340,-0.284514,-3.561414,8.982852,13.790971,2.802697,-5.864562,-15.671307,-1.492344,-4.493357,0.989748,-0.136721,-0.007547,-0.040607
341,-0.745370,-3.493784,9.012894,11.059564,1.517868,0.742695,-15.311810,-1.389955,-4.593147,0.990152,-0.133588,-0.006673,-0.041327
342,-0.608948,-3.461825,9.219304,11.293031,-0.587909,6.213138,-15.031397,-1.254523,-4.482617,0.990535,-0.131114,-0.005730,-0.040201
343,-0.407874,-3.553805,9.061212,9.710646,-4.190619,11.871268,-14.745141,-1.205382,-4.169097,0.990973,-0.128608,-0.005758,-0.037420
344,-0.098907,-3.585928,9.183780,6.120143,-6.882350,14.678970,-14.518584,-1.260757,-3.693498,0.991364,-0.126638,-0.006836,-0.033356
345,0.172186,-3.516600,9.203840,3.458929,-6.969329,14.015194,-14.397893,-1.360505,-3.171993,0.991626,-0.125584,-0.008306,-0.028944
346,0.522690,-3.545663,9.165441,2.119166,-5.768426,10.410958,-14.343296,-1.468027,-2.724165,0.991777,-0.125099,-0.009739,-0.025182
347,0.502135,-3.472975,9.147546,-0.584774,-4.233345,5.747731,-14.393363,-1.578501,-2.420089,0.991770,-0.125525,-0.011018,-0.022675
348,0.244249,-3.267534,9.208062,-1.184462,-2.568561,1.899347,-14.523565,-1.667477,-2.265695,0.991644,-0.126650,-0.011933,-0.021449
349,0.218206,-3.251952,9.126214,-0.749572,-0.407850,-1.463793,-14.641557,-1.709358,-2.243753,0.991511,-0.127675,-0.012297,-0.021318
350,0.170633,-3.304705,9.118364,-2.286181,0.567216,-2.654015,-14.743507,-1.719626,-2.309283,0.991383,-0.128566,-0.012294,-0.021907
351,0.009540,-3.203562,9.211607,-4.411794,0.992949,-3.320844,-14.872275,-1.715023,-2.411648,0.991218,-0.129690,-0.012113,-0.022801
352,-0.040221,-3.223625,9.292452,-6.470266,1.418683,-3.181985,-15.068319,-1.696691,-2.526259,0.990975,-0.131395,-0.011784,-0.023792
353,-0.005168,-3.269276,9.309221,-7.462118,1.791008,-3.751155,-15.314630,-1.667724,-2.651341,0.990668,-0.133532,-0.011337,-0.024865
354,-0.098660,-3.293535,9.341443,-8.498221,1.336283,-3.043126,-15.594549,-1.639417,-2.773945,0.990316,-0.135958,-0.010886,-0.025919
355,-0.095694,-3.185795,9.312083,-8.025185,0.996001,-2.957673,-15.882300,-1.619932,-2.880402,0.989950,-0.138450,-0.010524,-0.026842
356,-0.110262,-3.265627,9.268866,-8.632504,0.414624,-1.656059,-16.171858,-1.609287,-2.960479,0.989579,-0.140956,-0.010266,-0.027547
357,-0.063117,-3.264000,9.222118,-8.344104,-0.273569,-0.200326,-16.468201,-1.606934,-2.990494,0.989204,-0.143517,-0.010137,-0.027830
358,0.008188,-3.288992,9.214553,-9.509911,-1.013643,1.176059,-16.779902,-1.615511,-2.968432,0.988814,-0.146207,-0.010163,-0.027678
359,0.132579,-3.300657,9.203462,-10.300340,-1.273050,1.368325,-17.124292,-1.634648,-2.916418,0.988380,-0.149178,-0.010313,-0.027285
360,0.174376,-3.381388,9.278879,-10.977850,-0.783228,0.812888,-17.492395,-1.653517,-2.871177,0.987904,-0.152352,-0.010448,-0.026953
361,0.214194,-3.407227,9.286409,-9.975318,-0.081302,-0.482622,-17.853460,-1.663402,-2.861229,0.987419,-0.155465,-0.010461,-0.026913
362,0.217680,-3.466982,9.303121,-9.877659,0.591631,-1.888000,-18.194088,-1.665798,-2.901138,0.986943,-0.158403,-0.010347,-0.027291
363,0.125770,-3.522954,9.288811,-9.219983,1.272194,-3.360518,-18.520437,-1.661023,-2.993679,0.986466,-0.161220,-0.010098,-0.028110
364,0.060237,-3.486012,9.325735,-9.302384,1.343912,-3.835081,-18.834932,-1.653387,-3.121049,0.985990,-0.163937,-0.009773,-0.029223
365,0.014833,-3.542550,9.218398,-8.452444,1.003631,-3.485643,-19.135820,-1.650073,-3.248985,0.985523,-0.166535,-0.009482,-0.030344
366,-0.027068,-3.632838,9.220017,-8.922427,0.924283,-3.320844,-19.431496,-1.650186,-3.366486,0.985058,-0.169087,-0.009231,-0.031379
367,-0.049447,-3.572251,9.190550,-8.061807,0.501601,-3.258281,-19.720060,-1.656747,-3.477596,0.984597,-0.171577,-0.009042,-0.032366
368,-0.032857,-3.508618,9.174314,-6.113200,0.223883,-2.242014,-19.959970,-1.668599,-3.567831,0.984208,-0.173648,-0.008939,-0.033178
369,0.044146,-3.565142,9.219585,-3.873142,0.056031,-0.969393,-20.129871,-1.675774,-3.619615,0.983933,-0.175113,-0.008872,-0.033647
370,0.039294,-3.457934,9.320590,-0.519158,-0.207954,0.240666,-20.207106,-1.667327,-3.630038,0.983813,-0.175775,-0.008761,-0.033729
371,0.092516,-3.214011,9.357017,5.474677,-1.187598,2.596695,-20.125309,-1.658430,-3.577628,0.983956,-0.175066,-0.008789,-0.033260
372,0.090960,-3.208665,9.377100,9.684705,-2.203864,5.816398,-19.864119,-1.651818,-3.426807,0.984396,-0.172810,-0.009035,-0.031934
373,0.177485,-3.184523,9.465496,10.916127,-2.843227,8.112915,-19.506989,-1.638089,-3.180308,0.984998,-0.169718,-0.009382,-0.029767
374,0.133129,-3.056485,9.422216,11.575326,-2.991242,8.860619,-19.126894,-1.629149,-2.881396,0.985632,-0.166423,-0.009838,-0.027152
375,0.189120,-2.962088,9.437472,11.099237,-3.078220,9.406899,-18.751358,-1.623079,-2.560632,0.986245,-0.163162,-0.010331,-0.024350
376,0.199747,-2.930887,9.460247,8.129786,-2.501420,8.675982,-18.423414,-1.610126,-2.245654,0.986773,-0.160308,-0.010730,-0.021590
377,0.244358,-2.878319,9.534079,5.500617,-1.681998,7.320960,-18.177557,-1.586977,-1.971250,0.987166,-0.158161,-0.010956,-0.019171
378,0.161925,-2.780151,9.517774,5.007743,-1.225746,6.124635,-17.979347,-1.556361,-1.743904,0.987479,-0.156428,-0.011035,-0.017151
379,0.149273,-2.707651,9.568950,5.515876,-0.870206,5.212131,-17.788744,-1.524723,-1.553828,0.987769,-0.154764,-0.011048,-0.015452
380,0.137845,-2.762811,9.567546,5.586069,-0.583332,4.255376,-17.599829,-1.496883,-1.396289,0.988047,-0.153117,-0.011044,-0.014038
381,0.144328,-2.765811,9.604062,5.381595,-0.561969,3.455791,-17.413656,-1.473524,-1.268105,0.988312,-0.151497,-0.011035,-0.012884
382,0.067589,-2.652658,9.517211,5.984336,-0.581806,3.199435,-17.220049,-1.455069,-1.156670,0.988581,-0.149815,-0.011043,-0.011880
383,0.132309,-2.739209,9.579561,6.022484,-0.128606,2.071777,-17.015680,-1.436837,-1.069346,0.988858,-0.148042,-0.011019,-0.011083
384,0.168047,-2.756451,9.629897,5.856158,-0.001954,1.017362,-16.814144,-1.421520,-1.019552,0.989123,-0.146297,-0.010970,-0.010614
385,0.122781,-2.643192,9.572416,5.084040,0.207098,0.565688,-16.627363,-1.408194,-0.995375,0.989364,-0.144682,-0.010903,-0.010371
386,0.083656,-2.716269,9.615017,4.809373,0.631305,-0.145393,-16.452564,-1.383589,-0.992866,0.989586,-0.143171,-0.010709,-0.010302
387,0.093423,-2.738762,9.684776,5.659314,1.218787,-1.556874,-16.268745,-1.352494,-1.028961,0.989815,-0.141584,-0.010413,-0.010558
388,0.075984,-2.608284,9.566184,5.145077,1.252357,-1.730829,-16.077314,-1.318835,-1.093285,0.990048,-0.139934,-0.010061,-0.011056
389,0.065801,-2.769723,9.625663,5.412113,1.336283,-1.056371,-15.891401,-1.274691,-1.149996,0.990273,-0.138330,-0.009629,-0.011476
390,0.059318,-2.700483,9.710338,8.843920,0.916653,-1.035007,-15.651914,-1.238216,-1.193736,0.990559,-0.136261,-0.009286,-0.011791
391,0.001418,-2.586344,9.629730,9.597727,0.570268,1.166903,-15.338573,-1.201532,-1.198303,0.990932,-0.133549,-0.008995,-0.011762
392,0.009127,-2.697643,9.636638,9.786942,0.046875,2.355599,-15.013967,-1.156359,-1.144285,0.991316,-0.130734,-0.008699,-0.011218
393,0.012919,-2.678188,9.645818,12.834215,-0.380384,2.703510,-14.645304,-1.121526,-1.061080,0.991743,-0.127535,-0.008527,-0.010431
394,-0.058251,-2.494906,9.603972,14.317414,-0.725243,2.827110,-14.198637,-1.104366,-0.966999,0.992242,-0.123660,-0.008520,-0.009564
395,-0.147750,-2.549684,9.570422,13.940511,-0.940398,4.600235,-13.735928,-1.082076,-0.839911,0.992745,-0.119642,-0.008498,-0.008406
396,-0.158212,-2.641242,9.536826,15.416081,-1.413435,4.104310,-13.259100,-1.065816,-0.689297,0.993246,-0.115498,-0.008544,-0.007048
397,-0.119441,-2.530779,9.550045,15.077326,-1.544664,3.678577,-12.760406,-1.076861,-0.551546,0.993746,-0.111164,-0.008804,-0.005827
398,-0.070626,-2.471081,9.667318,12.808274,-1.842220,3.257421,-12.314478,-1.090871,-0.426018,0.994176,-0.107287,-0.009066,-0.004717
399,-0.006210,-2.494905,9.645526,11.650096,-2.098575,3.364236,-11.940564,-1.110159,-0.303541,0.994523,-0.104033,-0.009360,-0.003642
400,0.143345,-2.583533,9.644229,9.828141,-2.187079,1.406474,-11.628115,-1.152065,-0.210154,0.994802,-0.101313,-0.009816,-0.002843
401,0.281885,-2.585272,9.750860,7.418706,-2.225227,-0.151496,-11.373576,-1.218544,-0.174317,0.995020,-0.099101,-0.010431,-0.002567
402,0.189916,-2.822604,10.204762,6.098780,-2.980560,-2.373244,-11.162972,-1.312429,-0.198310,0.995190,-0.097275,-0.011230,-0.002836
403,0.073025,-2.832627,10.966770,7.244750,-5.550219,-5.171791,-10.953677,-1.473772,-0.294111,0.995346,-0.095468,-0.012557,-0.003782
404,-0.181941,-2.439414,12.260484,9.768631,-7.794855,-5.820310,-10.673817,-1.719870,-0.432154,0.995541,-0.093057,-0.014592,-0.005150
405,-0.472823,-2.691802,13.142090,19.296509,-6.749597,-6.673301,-10.186688,-1.983351,-0.592995,0.995881,-0.088853,-0.016779,-0.006690
406,-0.554507,-2.879425,14.076747,23.057915,-5.301493,-5.187050,-9.479716,-2.198416,-0.753455,0.996365,-0.082741,-0.018574,-0.008137
407,-0.348702,-3.062808,14.271182,25.452091,-4.625508,-3.993777,-8.674624,-2.369674,-0.878157,0.996882,-0.075768,-0.020039,-0.009203
408,0.044165,-3.106931,14.142124,34.406223,-3.014130,-2.872222,-7.686232,-2.499920,-0.972720,0.997466,-0.067191,-0.021196,-0.009929
409,0.320720,-3.613547,12.697114,44.263702,1.252357,-3.777096,-6.395299,-2.535715,-1.078172,0.998143,-0.055972,-0.021566,-0.010626
410,0.790409,-3.066624,11.957726,41.501774,2.482253,-5.516650,-4.992682,-2.489385,-1.237479,0.998747,-0.043777,-0.021230,-0.011732
411,0.978864,-2.736928,10.908392,43.976822,5.303689,-7.118872,-3.594281,-2.383659,-1.456051,0.999203,-0.031616,-0.020390,-0.013349
412,0.712177,-2.448995,9.908013,50.639015,15.629625,-8.374709,-2.047053,-2.056808,-1.730068,0.999561,-0.018129,-0.017674,-0.015413
413,0.202656,-2.183280,10.310267,54.255459,32.628433,-6.481036,-0.333504,-1.259618,-1.993850,0.999783,-0.003101,-0.010940,-0.017430
414,-0.171940,-1.833441,10.571978,63.024952,35.678757,-4.460710,1.581970,-0.112979,-2.164336,0.999726,0.013784,-0.001246,-0.018871
415,-0.474153,0.106499,9.124739,76.768959,30.592850,-5.950014,3.888134,1.009258,-2.283767,0.999181,0.034091,0.008124,-0.020215
416,-0.753000,0.674825,9.109076,65.295532,25.143768,1.914606,6.254052,1.953774,-2.266046,0.998152,0.054868,0.015942,-0.020671
417,-0.689913,1.665087,8.912817,52.210716,13.500959,1.939021,8.226580,2.598211,-2.119957,0.996967,0.072116,0.021283,-0.020073
419,-0.993301,2.316458,7.317813,26.355440,-2.306102,4.809287,9.570425,2.779949,-1.977243,0.996038,0.083801,0.022730,-0.019212
420,-0.830746,3.006619,6.700012,-11.028206,-8.556292,5.801139,9.881631,2.589741,-1.829574,0.995872,0.086453,0.021136,-0.017848
421,-0.421698,1.897169,7.139250,-49.766876,-7.335549,9.518292,8.917573,2.296415,-1.618219,0.996652,0.078001,0.018878,-0.015633
422,-0.263892,1.781476,6.057259,-59.424454,-4.923063,-0.281200,7.128772,2.074730,-1.492333,0.997803,0.062390,0.017258,-0.014121
423,-0.664825,1.163086,5.336245,-65.184814,-1.601124,3.268102,5.079998,1.973109,-1.452984,0.998779,0.044525,0.016638,-0.013428
424,0.284042,0.391520,4.196389,-57.347664,-3.807612,1.459881,3.052186,1.875134,-1.380113,0.999434,0.026824,0.016035,-0.012473
425,0.294932,-0.266549,3.178550,-40.071148,-0.832057,-5.942383,1.410834,1.774097,-1.458055,0.999721,0.012506,0.015322,-0.012912
426,-0.370123,-1.015463,2.472088,-21.558615,3.364238,-11.191567,0.311021,1.819706,-1.744384,0.999754,0.002955,0.015836,-0.015263
427,0.163286,-1.146825,2.162741,-7.460593,3.667897,-13.082190,-0.289984,1.939442,-2.152124,0.999678,-0.002212,0.016968,-0.018734
428,-0.092235,-1.118713,1.934508,12.126185,3.193334,-19.832884,-0.346866,2.041351,-2.705257,0.999559,-0.002605,0.017880,-0.023548
429,-0.618716,-1.483351,2.582423,21.432804,5.448652,-17.373091,0.072621,2.206765,-3.329933,0.999392,0.001193,0.019230,-0.029062
430,-0.268518,-1.096946,3.709512,28.589396,6.222296,-17.078587,0.791347,2.430638,-3.906121,0.999166,0.007623,0.020962,-0.034219
431,-0.434652,-0.600991,5.530952,30.467810,5.483748,-6.961701,1.709574,2.642966,-4.304435,0.998905,0.015770,0.022483,-0.037884
432,-0.900662,-0.224397,7.938294,22.040123,5.035126,-6.508502,2.552693,2.839538,-4.523143,0.998645,0.023228,0.023873,-0.039991
433,-1.067360,0.133641,10.809018,4.018944,2.946135,-0.490252,2.970657,2.991734,-4.633816,0.998479,0.026946,0.025027,-0.041075
434,-1.312963,1.015168,13.172306,-4.539971,3.559557,-5.361005,2.956179,3.116522,-4.725843,0.998419,0.026884,0.026098,-0.041901
435,-1.760938,1.053534,14.900528,-17.063240,-2.260323,2.036681,2.598422,3.153887,-4.780054,0.998469,0.023793,0.026543,-0.042299
436,-1.247028,0.782007,15.958134,-22.431446,-5.982055,0.957851,1.945262,3.024650,-4.735714,0.998636,0.018045,0.025665,-0.041742
437,-1.303308,1.104260,15.808867,-15.398456,-9.586290,3.731984,1.323025,2.769364,-4.664848,0.998802,0.012516,0.023674,-0.040961
438,-0.106550,0.225921,15.613435,-17.954380,-10.929105,5.453228,0.777065,2.423089,-4.518063,0.998971,0.007608,0.020860,-0.039551
439,0.017130,-0.042144,14.605169,-15.515952,-11.492171,4.711628,0.222748,2.037776,-4.351836,0.999118,0.002617,0.017695,-0.037996
440,0.376705,-0.659954,14.359596,-19.701565,-7.590381,0.986844,-0.369007,1.707321,-4.256679,0.999196,-0.002664,0.015008,-0.037086
441,0.602675,-1.368198,13.723191,-20.809387,-4.614827,-5.641777,-1.063321,1.487038,-4.331839,0.999163,-0.008781,0.013317,-0.037668
442,0.263537,-1.970423,13.843524,-19.410112,-0.105717,-8.127509,-1.765135,1.388984,-4.559733,0.999024,-0.014908,0.012723,-0.039586
443,-0.089706,-1.655651,13.516447,-19.297195,2.521927,-12.763270,-2.444335,1.409169,-4.909554,0.998791,-0.020781,0.013196,-0.042556
444,-0.070881,-2.095085,13.924026,-29.899328,-1.218116,-10.697166,-3.297491,1.407109,-5.301643,0.998457,-0.028171,0.013591,-0.045874
445,-0.310823,-2.259859,13.156313,-28.937994,-5.879819,-11.948426,-4.312639,1.261128,-5.671252,0.998028,-0.037034,0.012845,-0.049019
446,-0.675650,-2.107837,12.955692,-34.168865,-7.007477,-7.746027,-5.394020,1.022828,-5.981099,0.997514,-0.046523,0.011358,-0.051692
447,-0.622514,-2.997277,12.141362,-37.277176,-4.115849,3.654161,-6.613159,0.838237,-6.030158,0.996949,-0.057213,0.010326,-0.052088
448,-0.874947,-3.272040,12.066326,-33.390640,1.478194,10.186647,-7.822538,0.833054,-5.796120,0.996394,-0.067756,0.010692,-0.049945
449,-0.917542,-3.671525,12.513669,-20.598810,7.914548,17.384439,-8.750358,1.066867,-5.364124,0.995984,-0.075766,0.012842,-0.045946
450,-0.669429,-4.306640,12.582675,-3.177319,11.587449,25.036951,-9.170560,1.507684,-4.716303,0.995912,-0.079329,0.016392,-0.039960
451,-0.495154,-3.968695,12.534438,36.580666,10.307198,23.742970,-8.629416,1.998121,-3.969411,0.996462,-0.074576,0.019981,-0.033218
452,-0.191736,-2.806150,12.251401,73.720161,3.059052,19.174349,-6.792119,2.311613,-3.289478,0.997664,-0.058623,0.021827,-0.027452
453,0.243934,-1.432528,11.088194,96.786057,-5.454086,15.570112,-3.938539,2.313870,-2.707946,0.998943,-0.033870,0.020985,-0.022917
454,0.321441,-0.225944,9.528329,104.670509,-9.180394,12.005551,-0.561837,2.070506,-2.238160,0.999636,-0.004548,0.018160,-0.019438
455,-0.069882,1.675467,8.293575,91.759659,-9.481002,7.649034,2.749462,1.740394,-1.915804,0.999451,0.024239,0.014780,-0.017075
456,0.001569,2.171579,7.094354,46.778423,-9.470320,7.821464,5.117075,1.400254,-1.678684,0.998813,0.044811,0.011552,-0.015178
457,-0.309494,1.913777,6.704306,1.838396,-5.965271,7.615463,5.983947,1.119020,-1.445095,0.998503,0.052312,0.009093,-0.013102
458,-0.720549,1.692083,6.731467,-27.444111,-2.745568,6.777731,5.600502,0.963599,-1.219495,0.998710,0.048939,0.007878,-0.011040
459,-0.319315,1.947732,6.541491,-52.571529,-2.768457,0.741170,4.308418,0.875380,-1.101660,0.999215,0.037660,0.007272,-0.009894
460,0.187080,1.361992,6.709300,-64.095314,-1.543138,0.114014,2.402074,0.802169,-1.090941,0.999709,0.021026,0.006799,-0.009665
461,-0.220974,0.838975,6.134706,-55.536400,1.455305,3.562606,0.435794,0.796832,-1.028981,0.999928,0.003865,0.006919,-0.009006
462,0.176278,0.445015,5.115189,-43.113838,0.146061,-3.406296,-1.187221,0.819859,-1.025822,0.999881,-0.010296,0.007247,-0.008877
463,-0.090490,-0.145880,4.330509,-23.031134,-0.948028,-9.874693,-2.284649,0.795658,-1.246547,0.999720,-0.019859,0.007158,-0.010737
464,-0.293195,-0.666085,3.070120,0.027122,0.512283,-7.627004,-2.694130,0.786805,-1.538138,0.999612,-0.023414,0.007179,-0.013257
465,-0.335115,-1.619158,1.560000,22.772566,1.224890,-5.881347,-2.419009,0.831970,-1.765723,0.999635,-0.020993,0.007583,-0.015251
466,-0.088909,-1.963161,1.403676,39.481445,-1.634694,-4.750635,-1.559181,0.839110,-1.944800,0.999738,-0.013479,0.007552,-0.016869
467,-0.536696,-2.047434,1.799672,45.112110,-2.043642,-0.899200,-0.330545,0.801806,-2.039999,0.999813,-0.002759,0.007047,-0.017781
468,0.123727,-2.231157,2.255049,38.910751,-0.490250,-0.858000,0.900035,0.776200,-2.071350,0.999782,0.007975,0.006630,-0.018127
469,0.037343,-2.220810,4.775935,21.820389,-1.317302,-4.088384,1.775589,0.739893,-2.156506,0.999680,0.015613,0.006163,-0.018915
470,-0.601823,-0.789735,7.858996,6.063684,-1.848324,-9.978456,2.169740,0.700193,-2.393492,0.999582,0.019057,0.005712,-0.020997
471,-1.221921,-0.415387,10.553717,-22.103374,-0.264413,-14.582173,1.872671,0.698854,-2.804128,0.999546,0.016485,0.005696,-0.024564
472,-0.640683,-0.265794,13.460671,-37.989788,-3.502427,-15.079626,0.849812,0.663594,-3.300190,0.999540,0.007579,0.005575,-0.028837
473,-0.780512,0.108189,15.614375,-34.802128,-8.032900,-10.987092,-0.374650,0.481432,-3.735861,0.999455,-0.003131,0.004306,-0.032582
474,-1.049874,0.123620,15.983251,-23.084543,-8.736350,-7.308087,-1.340167,0.208585,-4.037158,0.999310,-0.011624,0.002231,-0.035200
475,-0.449004,-0.320192,16.015793,-20.127300,-10.553728,-2.802029,-2.058264,-0.108021,-4.196469,0.999167,-0.017983,-0.000284,-0.036624
476,0.239236,-0.585122,15.400358,-5.884313,-12.329905,0.143007,-2.491330,-0.489782,-4.225815,0.999071,-0.021882,-0.003469,-0.036953
477,0.111834,-0.614327,14.250330,-0.789248,-8.101566,0.594681,-2.602973,-0.831027,-4.198838,0.999039,-0.022963,-0.006413,-0.036788
478,0.295636,-0.918204,13.367355,-7.080637,-4.884916,3.886102,-2.738222,-1.044582,-4.114195,0.999021,-0.024204,-0.008249,-0.036101
479,0.696447,-1.410803,13.072713,-13.341509,-2.832546,3.297095,-3.090840,-1.171987,-3.987747,0.998969,-0.027307,-0.009279,-0.035054
480,0.685406,-2.081761,13.185301,-14.690427,0.292550,2.849999,-3.579540,-1.216044,-3.882440,0.998871,-0.031572,-0.009543,-0.034187
481,0.628212,-2.049683,13.811162,-22.144571,3.680105,-2.939363,-4.215626,-1.156585,-3.887782,0.998685,-0.037099,-0.008833,-0.034267
482,0.431133,-2.442690,14.343412,-28.646542,6.231452,-3.235392,-5.081338,-1.003980,-4.003147,0.998356,-0.044605,-0.007199,-0.035279
483,0.321278,-3.030043,14.212405,-30.930851,6.538162,-5.335065,-6.097443,-0.807808,-4.165439,0.997887,-0.053404,-0.005102,-0.036665
484,-0.051800,-3.510942,13.691249,-31.297075,8.035095,-2.963777,-7.164093,-0.580864,-4.330404,0.997309,-0.062624,-0.002695,-0.038023
485,0.105313,-3.445417,12.612799,-24.789001,5.233496,-4.164680,-8.131650,-0.375349,-4.477077,0.996708,-0.070976,-0.000495,-0.039193
486,-0.236633,-3.698567,11.327450,-19.503197,1.874935,1.491925,-8.906883,-0.261283,-4.538517,0.996189,-0.077678,0.000803,-0.039653
487,-0.240229,-3.549579,10.494847,-17.496605,0.699972,3.217747,-9.564736,-0.200385,-4.467866,0.995754,-0.083376,0.001508,-0.038990
488,-0.113642,-3.561360,10.105659,-25.817472,-4.060916,5.376932,-10.327868,-0.226115,-4.317039,0.995226,-0.090016,0.001426,-0.037689
489,0.411260,-4.054892,10.075002,-24.180157,-3.709953,9.167331,-11.206773,-0.310510,-4.054786,0.994586,-0.097676,0.000759,-0.035473
490,-0.281697,-4.584823,11.535603,-3.790743,3.469527,11.276158,-11.720172,-0.247692,-3.719760,0.994241,-0.102115,0.001165,-0.032506
491,0.232275,-4.390075,11.957676,44.204185,2.294564,11.462321,-11.086637,-0.077442,-3.366712,0.994892,-0.096576,0.002165,-0.029304
492,0.280538,-3.596159,11.665808,83.331963,-0.137761,12.351935,-8.991681,0.021636,-2.981607,0.996586,-0.078355,0.002228,-0.025922
493,0.257915,-2.027226,11.220218,105.549446,3.342875,11.959773,-5.860136,0.120651,-2.586632,0.998439,-0.051080,0.002205,-0.022487
494,-0.115172,-0.246645,10.387590,111.515808,0.869350,7.691759,-2.237998,0.211219,-2.266104,0.999613,-0.019489,0.002229,-0.019734
495,-0.120944,0.982157,7.992165,85.115776,-4.964264,9.533551,1.065036,0.147131,-1.977812,0.999807,0.009315,0.001123,-0.017270
496,-0.198304,1.615493,6.632669,29.274534,-3.383405,7.639877,3.015548,0.003444,-1.695103,0.999544,0.026310,-0.000359,-0.014788
497,-0.098438,1.974990,6.236105,-18.683775,-3.014131,7.047820,3.247833,-0.110567,-1.455996,0.999518,0.028324,-0.001324,-0.012673
498,-0.430242,2.082948,6.237907,-45.651455,-2.480057,11.759876,2.236013,-0.206399,-1.147038,0.999758,0.019493,-0.001996,-0.009973
499,-0.082334,1.978280,6.212892,-67.540855,-3.795405,13.296484,0.410960,-0.310394,-0.732290,0.999970,0.003569,-0.002732,-0.006381
500,0.896113,1.667878,6.369224,-77.054993,-3.879330,9.876885,-1.939834,-0.446191,-0.344697,0.999844,-0.016939,-0.003842,-0.003074
501,0.502422,1.047111,6.483307,-68.920288,-1.375287,9.545759,-4.322402,-0.538707,-0.016212,0.999278,-0.037711,-0.004692,-0.000319
502,0.474805,0.332038,4.662839,-44.053814,-2.357983,7.287390,-6.166994,-0.594232,0.269490,0.998537,-0.053778,-0.005305,0.002069
503,0.473378,-0.621227,3.299744,-21.122204,-2.686057,-1.672844,-7.246141,-0.693391,0.372478,0.997979,-0.063171,-0.006244,0.002862
504,0.130452,-1.181771,2.367684,-1.587306,-2.460220,-4.025822,-7.672221,-0.810178,0.290085,0.997733,-0.066883,-0.007224,0.002053
505,-0.309823,-1.299685,1.050953,19.360600,-3.912901,-0.355971,-7.495116,-0.906480,0.233250,0.997829,-0.065342,-0.008027,0.001514
506,-0.238201,-1.673156,0.953227,28.963245,-4.991730,0.008725,-6.864942,-1.015596,0.248839,0.998166,-0.059850,-0.008977,0.001637
507,0.315071,-1.853082,2.342353,30.803513,-4.178412,-1.547718,-6.025133,-1.165303,0.243307,0.998565,-0.052531,-0.010267,0.001586
508,0.264239,-1.593328,4.223433,24.777634,-1.694205,-3.705377,-5.189326,-1.286739,0.167183,0.998911,-0.045251,-0.011283,0.000949
509,-0.223371,-1.079486,6.323627,23.082331,-0.171332,-4.141792,-4.428312,-1.326670,0.040082,0.999187,-0.038628,-0.011582,-0.000098
510,-0.342987,-1.112300,9.649326,2.535744,0.085024,-8.487627,-4.010350,-1.329836,-0.169445,0.999319,-0.035005,-0.011546,-0.001884
511,-0.351997,-0.617824,11.969488,-4.279038,-0.517717,-4.820828,-4.036534,-1.339790,-0.390153,0.999304,-0.035255,-0.011564,-0.003814
512,-0.530803,-0.168877,13.878413,-15.082590,-1.108250,-3.389511,-4.346896,-1.363314,-0.524931,0.999197,-0.037976,-0.011714,-0.005028
513,-0.374928,-0.582790,15.077108,-23.104380,-4.257760,2.480725,-4.971740,-1.440674,-0.533134,0.998967,-0.043428,-0.012358,-0.005193
514,0.370184,-1.006683,15.607848,-27.587547,-4.845241,-0.146919,-5.810813,-1.582367,-0.480495,0.998608,-0.050740,-0.013578,-0.004887
515,0.449892,-0.825002,14.999008,-14.304369,-5.396101,0.124696,-6.501308,-1.752036,-0.462800,0.998263,-0.056759,-0.015035,-0.004899
516,0.783379,-1.451547,14.571266,-19.408588,-4.904752,-5.689079,-7.053617,-1.936504,-0.535047,0.997948,-0.061585,-0.016579,-0.005699
517,0.268636,-1.802358,13.695488,-15.973732,-2.397657,-5.374740,-7.636746,-2.081592,-0.702401,0.997589,-0.066693,-0.017716,-0.007325
518,0.596038,-2.002248,12.845123,-12.372547,-0.798487,-5.576161,-8.106256,-2.158730,-0.875826,0.997283,-0.070810,-0.018250,-0.008954
519,0.541703,-2.562517,12.301617,-10.500237,-0.355969,-3.607717,-8.491989,-2.201589,-1.024193,0.997019,-0.074193,-0.018496,-0.010334
520,0.420036,-3.034421,12.101801,-11.174696,0.922757,-1.538563,-8.869157,-2.205335,-1.109715,0.996761,-0.077489,-0.018437,-0.011141
522,0.183066,-2.794557,12.370964,-12.609065,2.305245,-3.673332,-9.281622,-2.162553,-1.203260,0.996473,-0.081088,-0.017958,-0.011991
523,0.332582,-3.609623,13.555536,-17.762114,3.231482,-5.006991,-9.801687,-2.090951,-1.360591,0.996089,-0.085627,-0.017164,-0.013386
524,-0.202534,-3.783792,13.696380,-9.952429,3.069734,-7.569020,-10.278979,-2.016393,-1.584610,0.995708,-0.089801,-0.016285,-0.015346
525,-0.280230,-3.775574,13.313802,-2.570002,2.193853,-6.435257,-10.502439,-1.959355,-1.829363,0.995506,-0.091770,-0.015563,-0.017459
526,-0.040916,-3.827027,12.867464,3.053032,1.635364,-7.617849,-10.510339,-1.928185,-2.070599,0.995465,-0.091866,-0.015098,-0.019531
527,0.273781,-3.587193,11.651443,14.604287,0.271187,-4.717066,-10.235373,-1.928116,-2.277741,0.995646,-0.089505,-0.014982,-0.021294
528,0.275956,-2.894816,10.228302,19.018791,-1.466842,-4.147896,-9.695457,-1.970874,-2.419002,0.996023,-0.084838,-0.015349,-0.022483
529,0.635077,-2.701830,9.387237,10.762008,-1.361553,-2.740992,-9.259808,-2.049979,-2.522336,0.996304,-0.081079,-0.016049,-0.023378
530,0.686824,-2.559773,9.067910,-2.594418,-0.549761,-4.413407,-9.185888,-2.119697,-2.632747,0.996321,-0.080465,-0.016593,-0.024376
531,0.530972,-2.437566,9.586091,-18.296188,1.578905,-4.039555,-9.552878,-2.132249,-2.773701,0.996025,-0.083678,-0.016521,-0.025663
532,0.515018,-3.309157,10.728148,-25.808321,3.294045,0.162844,-10.311439,-2.066618,-2.850313,0.995444,-0.090267,-0.015721,-0.026387
533,0.473706,-4.591311,11.792858,-5.978920,4.362193,3.591598,-10.881016,-1.931238,-2.810721,0.995015,-0.095182,-0.014446,-0.026009
534,0.145316,-3.641188,11.890605,44.771832,4.346934,7.494915,-10.274968,-1.752457,-2.654129,0.995567,-0.089864,-0.013153,-0.024433
535,0.335596,-3.316457,12.397482,68.222260,2.611956,13.455181,-8.424072,-1.578646,-2.326935,0.996978,-0.073705,-0.012245,-0.021260
536,0.538463,-2.428251,11.577990,93.790665,1.369853,15.187106,-5.754277,-1.455341,-1.860580,0.998517,-0.050390,-0.011867,-0.016852
537,0.542543,-0.858540,9.734090,103.202568,0.721335,11.500469,-2.490119,-1.394938,-1.419374,0.999610,-0.021876,-0.011900,-0.012647
538,-0.121259,1.222968,8.147889,82.149376,1.221838,9.763967,0.612059,-1.356939,-1.066370,0.999873,0.005230,-0.011890,-0.009242
539,0.385599,1.085773,7.200015,30.389986,1.003631,5.288427,2.519871,-1.325491,-0.815650,0.999668,0.021904,-0.011720,-0.006861
540,0.108361,1.897821,6.235820,3.587107,2.734030,1.160799,3.129752,-1.271051,-0.706458,0.999548,0.027238,-0.011256,-0.005859
541,-0.250927,2.082250,6.145965,-26.789492,3.948667,0.716755,2.804060,-1.153564,-0.671047,0.999634,0.024407,-0.010207,-0.005608
542,-0.309218,2.079161,6.535342,-49.315205,2.973601,2.651628,1.597181,-1.025522,-0.612256,0.999849,0.013889,-0.009023,-0.005217
543,0.367934,2.105251,6.450684,-62.668568,0.654194,4.490367,-0.206616,-0.963359,-0.494237,0.999954,-0.001839,-0.008399,-0.004328
544,0.244012,1.876653,6.960260,-67.952843,0.999053,7.804679,-2.321113,-0.937999,-0.291352,0.999758,-0.020274,-0.008132,-0.002708
545,0.381755,0.880836,6.485120,-57.559769,1.986327,8.717181,-4.364250,-0.879886,-0.020009,0.999245,-0.038076,-0.007666,-0.000467
546,0.585194,-0.298879,5.605750,-34.261944,-0.110295,5.119050,-5.874029,-0.844088,0.207020,0.998658,-0.051223,-0.007449,0.001427
547,0.065014,-0.283912,4.168805,-11.418841,0.594683,0.597733,-6.629839,-0.836334,0.300854,0.998298,-0.057803,-0.007438,0.002199
548,0.734021,-1.763955,3.661535,4.566752,1.124179,-4.884917,-6.777251,-0.835820,0.227123,0.998224,-0.059092,-0.007398,0.001547
549,-0.121257,-2.288342,2.540185,29.994770,1.484298,-8.789761,-6.305114,-0.832406,-0.002735,0.998460,-0.054993,-0.007252,-0.000423
550,-0.267991,-2.304629,1.917094,42.266262,-0.401746,-9.499315,-5.247764,-0.827380,-0.305461,0.998921,-0.045797,-0.007091,-0.002993
551,-0.222314,-2.369776,2.673504,32.080715,-1.538561,-9.070530,-4.157280,-0.864145,-0.608498,0.999298,-0.036310,-0.007343,-0.005580
552,-0.235931,-2.539804,4.419854,25.755753,-0.372753,-7.375227,-3.311526,-0.898052,-0.877735,0.999521,-0.028953,-0.007612,-0.007883
553,-0.576671,-1.799746,5.719035,21.583874,-2.415968,-6.891510,-2.599658,-0.936382,-1.111408,0.999661,-0.022762,-0.007949,-0.009881
554,-0.216710,-1.547396,8.376753,-0.195662,-3.790827,-4.230295,-2.285475,-1.029461,-1.291185,0.999695,-0.020042,-0.008757,-0.011444
555,-0.198359,-1.022285,11.013779,-14.955938,-4.663656,-7.109716,-2.557071,-1.169193,-1.473529,0.999613,-0.022441,-0.009913,-0.013082
556,-0.295466,-0.261419,12.698239,-20.975714,-5.396101,-5.441879,-3.154963,-1.337704,-1.674042,0.999442,-0.027694,-0.011266,-0.014923
557,0.264464,-0.747857,13.972880,-28.599236,-8.954557,-3.958680,-3.974483,-1.580562,-1.815697,0.999171,-0.034888,-0.013233,-0.016311
558,-0.036369,-0.960028,14.942179,-32.562069,-8.521195,-2.269481,-4.990444,-1.875091,-1.896597,0.998770,-0.043795,-0.015624,-0.017245
559,0.281600,-0.687829,14.851634,-27.163342,-10.237861,-0.749659,-5.979534,-2.186009,-1.916952,0.998301,-0.052459,-0.018174,-0.017697
560,0.736919,-1.443365,14.806950,-29.688751,-9.886898,1.766592,-6.923450,-2.517194,-1.862851,0.997781,-0.060716,-0.020941,-0.017548
561,0.613083,-2.184482,14.153308,-21.908056,-7.257729,4.804708,-7.792995,-2.787908,-1.717223,0.997256,-0.068290,-0.023250,-0.016599
562,1.033401,-2.358959,13.575097,-19.492516,-5.208411,3.672472,-8.499557,-2.976787,-1.547273,0.996797,-0.074423,-0.024900,-0.015385
563,1.165059,-2.431028,12.748960,-15.366412,-2.008546,4.166872,-9.097393,-3.083235,-1.398969,0.996389,-0.079599,-0.025848,-0.014299
564,1.287704,-3.050903,12.117101,-14.678221,1.775749,3.124665,-9.619794,-3.077684,-1.277252,0.996032,-0.084113,-0.025824,-0.013354
565,1.038747,-3.003206,11.418981,-11.127392,3.210119,1.418681,-10.074111,-2.992736,-1.215418,0.995718,-0.088041,-0.025080,-0.012854
566,1.216958,-2.904824,10.879242,-12.497673,3.747245,-1.688104,-10.487270,-2.890110,-1.239334,0.995415,-0.091628,-0.024123,-0.013071
567,0.828024,-3.025705,10.544459,-10.878665,3.661793,-1.738459,-10.894499,-2.788899,-1.317284,0.995097,-0.095173,-0.023133,-0.013750
568,0.532777,-3.192191,10.848217,-11.887301,2.447157,-1.424118,-11.293427,-2.701947,-1.387499,0.994770,-0.098644,-0.022270,-0.014365
569,0.218359,-3.185275,11.779041,-15.465596,1.459883,-0.993807,-11.766290,-2.642569,-1.439173,0.994360,-0.102753,-0.021649,-0.014853
570,-0.118568,-3.577734,13.015861,-18.628839,0.936490,-0.536030,-12.348496,-2.598846,-1.471879,0.993830,-0.107806,-0.021163,-0.015205
571,-0.401419,-4.311615,14.091660,-19.222424,0.162846,-0.066045,-12.995924,-2.568018,-1.485087,0.993210,-0.113418,-0.020796,-0.015409
572,-0.466679,-4.218222,14.077967,-7.993141,-1.445479,1.638414,-13.468242,-2.565095,-1.454067,0.992739,-0.117505,-0.020739,-0.015223
573,-0.080257,-4.230428,13.582030,-0.343678,-3.050753,2.740132,-13.626842,-2.605822,-1.364909,0.992579,-0.118866,-0.021163,-0.014521
574,0.376554,-3.989734,12.130232,10.453772,-4.198249,2.082458,-13.480792,-2.696607,-1.257598,0.992723,-0.117588,-0.022078,-0.013657
575,0.679181,-3.569124,10.192123,18.934864,-3.551256,0.916651,-13.016394,-2.810980,-1.178301,0.993176,-0.113556,-0.023203,-0.012993
576,0.997601,-2.823302,8.790863,16.562050,-2.390027,-1.834592,-12.447152,-2.919951,-1.170472,0.993704,-0.108626,-0.024220,-0.012913
577,0.999472,-2.335253,8.405718,5.589121,0.374949,-5.399154,-12.088573,-2.993055,-1.280587,0.994009,-0.105545,-0.024793,-0.013859
578,0.710092,-2.100503,8.229529,-8.199142,2.625690,-9.313153,-12.130009,-3.007049,-1.530638,0.993935,-0.105959,-0.024678,-0.016050
579,0.773864,-2.623051,8.729700,-22.779358,5.088532,-10.329418,-12.642419,-2.959511,-1.877636,0.993409,-0.110471,-0.023860,-0.019123
580,0.763575,-3.088449,10.450891,-23.705593,5.000030,-10.810084,-13.415231,-2.881497,-2.258250,0.992591,-0.117235,-0.022665,-0.022501
581,0.320660,-2.819472,11.953809,16.140894,6.907436,-5.934753,-13.533301,-2.752836,-2.575843,0.992433,-0.118298,-0.021200,-0.025143
582,0.050435,-3.749790,12.371147,46.442715,7.520858,-3.572621,-12.487405,-2.545193,-2.783778,0.993471,-0.109235,-0.019430,-0.026555
583,0.777546,-3.349268,12.321467,72.627594,6.414562,-1.601126,-10.510354,-2.330957,-2.913551,0.995221,-0.092058,-0.017920,-0.027173
584,0.175037,-2.501365,12.075869,96.210777,5.917111,1.644518,-7.704584,-2.126312,-2.944460,0.997207,-0.067626,-0.016781,-0.026876
585,-0.051247,-0.959488,9.617510,102.410606,5.453229,5.529524,-4.398632,-1.916545,-2.844889,0.998800,-0.038774,-0.015754,-0.025444
586,0.374504,-0.320666,7.979490,63.949665,3.124668,2.918665,-1.624224,-1.762202,-2.711639,0.999496,-0.014532,-0.015036,-0.023874
587,0.293667,0.920639,7.203190,31.163628,1.748283,4.794027,-0.020776,-1.682114,-2.584949,0.999638,-0.000512,-0.014671,-0.022556
588,-0.380233,1.686783,6.267935,2.613566,0.857142,6.579360,0.586065,-1.629939,-2.396611,0.999669,0.004815,-0.014327,-0.020838
589,-0.211401,1.837848,6.086880,-29.990885,-1.508042,8.091552,0.187174,-1.624398,-2.153985,0.999722,0.001367,-0.014203,-0.018771
590,-0.082907,1.862489,7.061367,-52.322800,-2.208442,7.859612,-1.128937,-1.671796,-1.889627,0.999707,-0.010090,-0.014424,-0.016631
591,0.107313,1.652495,6.966858,-61.991058,-3.621449,9.957758,-2.982854,-1.751612,-1.591265,0.999443,-0.026234,-0.014917,-0.014277
592,0.635875,1.716833,6.916649,-64.872009,-3.947997,12.271063,-5.044056,-1.857183,-1.214842,0.998837,-0.044167,-0.015723,-0.011303
593,0.424981,0.709872,7.633365,-55.287678,-2.069583,13.917535,-7.004633,-1.921354,-0.771581,0.997963,-0.061192,-0.016323,-0.007744
594,0.773549,0.289242,6.070043,-26.916143,-1.625539,4.601761,-8.343410,-1.955633,-0.458194,0.997192,-0.072803,-0.016729,-0.005229
595,0.359831,-0.144851,4.819241,-4.945868,0.315439,-1.257792,-8.842688,-1.984652,-0.400806,0.996864,-0.077139,-0.016997,-0.004822
596,0.416537,-1.003422,3.728352,16.241606,1.290505,-4.373732,-8.650208,-1.985897,-0.497699,0.996987,-0.075479,-0.016952,-0.005637
597,0.056660,-1.722339,2.694529,33.911823,0.626728,-11.531847,-7.866365,-1.999316,-0.762744,0.997463,-0.068697,-0.016948,-0.007836
598,0.176486,-2.168236,1.798192,44.330837,0.629779,-13.750542,-6.676521,-2.034759,-1.179073,0.998082,-0.058401,-0.017126,-0.011304
599,0.239617,-2.015134,2.696844,38.381260,0.661824,-11.597464,-5.423227,-2.067114,-1.596889,0.998609,-0.047548,-0.017357,-0.014770
600,0.287307,-2.484631,4.151943,30.356415,1.984801,-8.125982,-4.376808,-2.059279,-1.924566,0.998957,-0.038476,-0.017313,-0.017465
601,0.026541,-1.911032,6.069573,19.517769,1.343913,-8.524250,-3.614021,-2.022763,-2.202781,0.999152,-0.031861,-0.017033,-0.019766
602,0.029787,-1.478936,8.288279,4.221892,1.321024,-7.236367,-3.249698,-1.986937,-2.466288,0.999206,-0.028717,-0.016717,-0.022000
603,-0.244970,-0.825148,10.549503,-9.598414,-0.761865,-4.799466,-3.348434,-1.978763,-2.666667,0.999142,-0.029606,-0.016575,-0.023760
604,-0.596928,-0.800043,12.265640,-17.943701,-3.741997,0.484814,-3.808430,-2.041579,-2.733777,0.998991,-0.033639,-0.017008,-0.024429
605,-0.075819,-0.744204,13.317793,-23.633875,-10.269905,5.144991,-4.504997,-2.253080,-2.623422,0.998755,-0.039735,-0.018741,-0.023642
606,0.345319,-0.873018,14.248179,-26.688780,-10.451490,4.560561,-5.348316,-2.576731,-2.432917,0.998411,-0.047110,-0.021465,-0.022250
607,0.028343,-1.088328,14.620344,-23.089121,-12.200201,9.409951,-6.186496,-2.921909,-2.163242,0.998015,-0.054415,-0.024436,-0.020219
608,1.053965,-1.601157,14.318648,-23.787992,-10.956572,7.578842,-6.983350,-3.270683,-1.837579,0.997581,-0.061328,-0.027505,-0.017737
609,1.074127,-2.134295,14.179149,-23.751371,-8.388439,8.617996,-7.797803,-3.560285,-1.527544,0.997087,-0.068370,-0.030084,-0.015405
610,1.140412,-2.569581,13.772502,-20.380602,-4.634664,6.078857,-8.559717,-3.744697,-1.252908,0.996593,-0.074940,-0.031764,-0.013335
611,1.072333,-2.717513,12.691791,-14.299789,-3.075168,8.518811,-9.168021,-3.838393,-0.991134,0.996182,-0.080162,-0.032691,-0.011293
612,1.570383,-3.209001,11.916659,-15.045967,0.233039,6.438975,-9.693651,-3.853669,-0.735478,0.995822,-0.084658,-0.032960,-0.009232
613,0.990702,-3.255310,11.329525,-11.946813,1.519394,6.171939,-10.182359,-3.797674,-0.531141,0.995484,-0.088844,-0.032593,-0.007555
614,1.098308,-3.252134,10.680637,-10.329332,3.760978,3.025480,-10.589584,-3.689366,-0.394028,0.995201,-0.092342,-0.031736,-0.006393
615,0.763475,-3.153377,10.233172,-8.884281,4.594134,3.954769,-10.942922,-3.535444,-0.303677,0.994959,-0.095386,-0.030454,-0.005578
616,0.361075,-3.252976,10.204052,-10.205731,4.279793,5.787405,-11.296568,-3.356596,-0.170862,0.994713,-0.098423,-0.028999,-0.004366
617,0.183041,-3.110719,9.959967,-7.398030,2.857631,7.229405,-11.627402,-3.188776,0.019973,0.994472,-0.101250,-0.027698,-0.002645
618,0.071029,-2.988518,9.763762,-5.769867,1.519394,8.691240,-11.884073,-3.052728,0.266572,0.994278,-0.103424,-0.026734,-0.000445
619,0.032418,-3.088771,9.694729,-3.868565,0.326120,9.876885,-12.083554,-2.946714,0.564533,0.994118,-0.105092,-0.026087,0.002191
620,0.119245,-2.886550,9.497125,-0.806033,-0.464309,8.897242,-12.229268,-2.858455,0.873952,0.993993,-0.106293,-0.025612,0.004924
621,0.154093,-2.900842,9.471400,-1.726165,-1.324931,7.536116,-12.365170,-2.794237,1.152217,0.993864,-0.107416,-0.025321,0.007368
622,0.393365,-2.856133,9.502991,-3.036935,-1.375287,5.460857,-12.531648,-2.770844,1.377383,0.993696,-0.108813,-0.025343,0.009306
623,0.370872,-2.810859,9.599481,-3.464194,-1.300516,3.377969,-12.715351,-2.772472,1.534315,0.993506,-0.110371,-0.025523,0.010624
625,0.442043,-2.693327,9.569047,-5.577601,-0.581806,0.762533,-12.907475,-2.781916,1.610446,0.993310,-0.112018,-0.025697,0.011232
626,0.479884,-2.681839,9.594409,-8.426503,0.124698,-2.055852,-13.151841,-2.793648,1.591712,0.993069,-0.114138,-0.025804,0.011003
627,0.470175,-2.666131,9.587087,-8.559258,1.214209,-3.709955,-13.440742,-2.793758,1.493461,0.992787,-0.116664,-0.025733,0.010087
628,0.458087,-2.641751,9.561144,-8.730163,2.007690,-5.397628,-13.730264,-2.776689,1.333572,0.992505,-0.119210,-0.025444,0.008655
629,0.513833,-2.587411,9.523227,-9.036874,2.850001,-6.700768,-14.023237,-2.746529,1.118510,0.992218,-0.121798,-0.024976,0.006760
630,0.483538,-2.592740,9.543296,-8.057229,3.316934,-6.618368,-14.302215,-2.701694,0.878133,0.991939,-0.124269,-0.024344,0.004667
631,0.485051,-2.549569,9.622634,-8.647763,3.527512,-6.584797,-14.572927,-2.646363,0.636513,0.991661,-0.126667,-0.023609,0.002580
632,0.487008,-2.655599,9.700882,-8.057231,3.684681,-7.211954,-14.842436,-2.588933,0.383450,0.991375,-0.129054,-0.022834,0.000399
633,0.436505,-2.600078,9.656094,-6.604549,4.046327,-7.144811,-15.076993,-2.526270,0.118855,0.991119,-0.131138,-0.021990,-0.001864
634,0.445483,-2.661504,9.752923,-6.464163,4.023438,-6.838101,-15.284355,-2.457272,-0.141473,0.990886,-0.132982,-0.021087,-0.004075
635,0.482531,-2.732411,9.747012,-4.498772,3.838800,-5.940857,-15.458086,-2.387940,-0.381731,0.990685,-0.134527,-0.020200,-0.006103
636,0.443294,-2.843818,9.682572,-1.866550,3.815912,-4.547688,-15.558548,-2.312558,-0.584331,0.990568,-0.135430,-0.019303,-0.007783
637,0.358095,-2.810315,9.629494,-1.639187,3.493941,-3.262858,-15.614095,-2.229864,-0.742422,0.990506,-0.135934,-0.018397,-0.009061
638,0.334922,-2.806925,9.594603,-2.408253,2.790490,-2.458695,-15.679886,-2.153521,-0.862468,0.990431,-0.136518,-0.017589,-0.010018
639,0.215451,-2.714321,9.498347,-3.130016,2.062623,-1.744563,-15.770885,-2.092132,-0.951816,0.990324,-0.137315,-0.016944,-0.010731
640,0.169324,-2.582344,9.423575,-5.176282,1.408001,-1.936829,-15.906249,-2.049067,-1.026706,0.990161,-0.138494,-0.016468,-0.011346
641,0.112388,-2.538864,9.473413,-7.269852,0.689290,-2.072637,-16.108234,-2.028715,-1.100754,0.989912,-0.140248,-0.016182,-0.011990
642,0.149183,-2.424949,9.384885,-7.356831,-0.149969,-1.605704,-16.344566,-2.031940,-1.162388,0.989613,-0.142298,-0.016108,-0.012559
643,0.184126,-2.410613,9.460076,-7.634548,-0.439895,-0.838163,-16.585480,-2.048558,-1.198988,0.989305,-0.144385,-0.016179,-0.012930
644,0.270530,-2.384335,9.537861,-7.617763,-0.822902,-0.005008,-16.829836,-2.069814,-1.206758,0.988990,-0.146497,-0.016325,-0.013059
645,0.305004,-2.471322,9.671603,-7.248490,-1.433272,1.485822,-17.068350,-2.096964,-1.172554,0.988682,-0.148552,-0.016577,-0.012833
646,0.333892,-2.482161,9.622867,-6.154401,-2.034487,3.092621,-17.284422,-2.128660,-1.082916,0.988405,-0.150405,-0.016944,-0.012132
647,0.308162,-2.551614,9.698237,-6.690000,-2.676902,4.531569,-17.493195,-2.164536,-0.938488,0.988138,-0.152185,-0.017423,-0.010965
648,0.235304,-2.685247,9.626010,-6.311571,-3.638234,6.554946,-17.708546,-2.206546,-0.730741,0.987861,-0.154012,-0.018043,-0.009263
649,0.211118,-2.835528,9.553259,-5.507409,-4.474441,8.520338,-17.910025,-2.254706,-0.450224,0.987600,-0.155704,-0.018823,-0.006943
650,0.276944,-2.888558,9.511678,-5.537927,-5.185523,9.019314,-18.102610,-2.314060,-0.122384,0.987343,-0.157308,-0.019773,-0.004231
651,0.376409,-3.044491,9.525656,-5.058786,-5.695182,9.234470,-18.290520,-2.389638,0.223419,0.987079,-0.158863,-0.020897,-0.001390
652,0.484825,-3.141058,9.465669,-3.226150,-5.754693,9.028471,-18.442783,-2.475342,0.572702,0.986851,-0.160104,-0.022121,0.001471
653,0.632763,-3.147618,9.488372,-2.162581,-5.383893,7.374367,-18.546564,-2.567927,0.891147,0.986681,-0.160926,-0.023367,0.004062
654,0.679290,-3.256784,9.460549,-0.241439,-4.324901,5.622605,-18.601944,-2.665680,1.148450,0.986574,-0.161339,-0.024573,0.006128
655,0.668368,-3.348361,9.408507,1.826189,-2.858486,4.237065,-18.596678,-2.747427,1.343144,0.986554,-0.161240,-0.025550,0.007690
656,0.640090,-3.297873,9.382451,3.065240,-1.431746,2.396799,-18.535959,-2.797523,1.471537,0.986621,-0.160682,-0.026157,0.008739
657,0.642263,-3.286511,9.387043,4.325654,-0.073672,0.883081,-18.423695,-2.813681,1.531765,0.986770,-0.159699,-0.026372,0.009260
658,0.593181,-3.383533,9.326248,6.962454,0.928861,-0.424637,-18.249907,-2.804716,1.535209,0.987013,-0.158203,-0.026285,0.009342
659,0.577556,-3.260535,9.316400,7.298157,1.461409,-2.583822,-18.030577,-2.792105,1.476092,0.987321,-0.156329,-0.026078,0.008901
660,0.542034,-3.214956,9.290463,7.469061,1.932920,-3.932740,-17.796040,-2.779289,1.356027,0.987650,-0.154336,-0.025788,0.007937
661,0.467066,-3.200003,9.270150,8.537209,2.232001,-4.546162,-17.540947,-2.758667,1.201042,0.988005,-0.152175,-0.025386,0.006685
662,0.374098,-3.134927,9.243487,8.566201,2.502090,-5.115333,-17.267759,-2.726424,1.024580,0.988380,-0.149861,-0.024862,0.005266
663,0.345701,-3.040107,9.317824,7.377505,2.579912,-4.834562,-17.010004,-2.683792,0.841786,0.988730,-0.147681,-0.024246,0.003800
664,0.324418,-3.062611,9.370752,7.807817,2.166386,-3.545155,-16.765411,-2.636145,0.685789,0.989057,-0.145607,-0.023629,0.002566
665,0.296882,-2.970274,9.386306,8.261017,1.415631,-2.347303,-16.508230,-2.592812,0.575275,0.989392,-0.143413,-0.023111,0.001719
666,0.362243,-2.912060,9.410975,7.475165,0.855616,-1.599600,-16.254986,-2.563393,0.502045,0.989713,-0.141243,-0.022762,0.001174
667,0.378845,-2.947889,9.519570,7.000602,0.168950,-0.851897,-16.025400,-2.551067,0.458660,0.989996,-0.139269,-0.022601,0.000860
668,0.437994,-2.881600,9.500485,6.953298,-0.400220,-0.493304,-15.806913,-2.557489,0.438833,0.990259,-0.137384,-0.022631,0.000724
669,0.454175,-2.818993,9.454721,5.909564,-0.687094,-0.056889,-15.606050,-2.577860,0.435527,0.990495,-0.135648,-0.022802,0.000711
670,0.461635,-2.765285,9.509681,4.607951,-0.902250,0.730488,-15.443256,-2.601785,0.453976,0.990681,-0.134235,-0.023029,0.000874
671,0.444976,-2.796354,9.455345,5.221373,-1.210487,1.607896,-15.288789,-2.626123,0.501260,0.990856,-0.132889,-0.023293,0.001286
672,0.488023,-2.700936,9.401196,4.397373,-1.105198,1.913081,-15.135241,-2.648404,0.568251,0.991028,-0.131546,-0.023561,0.001871
673,0.445898,-2.756850,9.358506,3.848040,-0.893094,2.102296,-15.005423,-2.663573,0.641802,0.991172,-0.130407,-0.023774,0.002517
674,0.467940,-2.836353,9.379818,3.901447,-0.464309,1.379007,-14.885600,-2.670548,0.704059,0.991305,-0.129357,-0.023902,0.003072
675,0.486641,-2.926162,9.316501,4.156277,0.126224,-0.078252,-14.777390,-2.672146,0.727645,0.991426,-0.128416,-0.023939,0.003297
676,0.446036,-2.927001,9.391803,2.308381,0.539750,-1.891052,-14.710381,-2.670708,0.695011,0.991502,-0.127843,-0.023888,0.003030
677,0.293019,-2.965358,9.468648,2.554055,0.542802,-2.235911,-14.669454,-2.661965,0.625852,0.991551,-0.127504,-0.023735,0.002450
678,0.187665,-2.791488,9.625394,2.670026,0.371898,-1.613333,-14.614205,-2.642065,0.561495,0.991618,-0.127040,-0.023490,0.001927
679,0.165816,-2.586483,9.660430,2.999626,0.115543,0.159792,-14.534207,-2.612961,0.536736,0.991712,-0.126355,-0.023209,0.001761
680,0.160607,-2.455128,9.719918,3.783951,-0.494828,2.894250,-14.425843,-2.588713,0.587800,0.991835,-0.125408,-0.023054,0.002251
681,0.314912,-2.357895,9.671398,4.479773,-1.437850,6.010190,-14.288177,-2.573098,0.739431,0.991984,-0.124187,-0.023080,0.003609
682,0.621865,-2.341430,9.402063,3.333803,-1.373761,7.122590,-14.159425,-2.567405,0.962966,0.992115,-0.123028,-0.023267,0.005576
683,0.879182,-2.563374,9.245053,-0.664121,-0.154546,5.360146,-14.132853,-2.572621,1.171498,0.992131,-0.122755,-0.023534,0.007381
684,0.952672,-2.810851,9.135138,-2.417409,2.392223,0.892236,-14.224087,-2.559116,1.265121,0.992029,-0.123527,-0.023524,0.008188
685,0.968626,-2.876094,9.114612,-4.607112,6.455762,-5.414413,-14.367808,-2.467517,1.157063,0.991896,-0.124803,-0.022624,0.007323
686,0.893409,-3.077460,9.167581,-6.552667,11.466904,-14.121343,-14.553162,-2.272102,0.767607,0.991746,-0.126500,-0.020515,0.004132
687,0.450420,-3.261988,9.339884,-6.569453,15.409893,-21.557175,-14.764605,-1.995718,0.079309,0.991562,-0.128458,-0.017360,-0.001551
688,0.074400,-3.367392,9.273417,-4.553704,17.089935,-25.248390,-14.941942,-1.669473,-0.813171,0.991367,-0.130109,-0.013522,-0.008929
689,-0.109095,-3.426778,9.271070,-5.771393,16.351389,-24.804346,-15.110953,-1.339270,-1.762871,0.991109,-0.131640,-0.009562,-0.016785
690,-0.253295,-3.580891,9.143851,-6.931097,14.215093,-22.242319,-15.328277,-1.043024,-2.652777,0.990732,-0.133533,-0.005931,-0.024154
691,-0.459304,-3.602342,9.084733,-8.484488,10.732931,-16.016544,-15.599637,-0.798831,-3.377807,0.990266,-0.135854,-0.002904,-0.030145
692,-0.299583,-3.575349,9.096847,-9.421407,6.687703,-8.801967,-15.917459,-0.618897,-3.854492,0.989768,-0.138559,-0.000689,-0.034053
693,-0.115043,-3.447496,9.135083,-9.029245,3.646534,-2.974459,-16.244768,-0.499986,-4.090635,0.989306,-0.141351,0.000726,-0.035948
694,0.005352,-3.390152,9.151233,-10.175214,0.866298,0.939540,-16.582830,-0.433902,-4.144297,0.988874,-0.144248,0.001470,-0.036325
695,0.206499,-3.265309,9.196527,-12.572443,-1.526353,4.111939,-16.977268,-0.420893,-4.060441,0.988398,-0.147648,0.001599,-0.035580
696,0.414516,-3.447292,9.351473,-15.903536,-2.594501,6.049864,-17.466198,-0.442152,-3.878248,0.987813,-0.151873,0.001326,-0.034031
697,0.494208,-3.476845,9.604838,-21.491478,-2.153509,4.874902,-18.102852,-0.470854,-3.680542,0.987009,-0.157369,0.000996,-0.032359
698,0.257944,-3.571707,9.870337,-28.524467,-1.494309,4.098206,-18.946554,-0.487648,-3.519242,0.985867,-0.164637,0.000858,-0.030987
699,0.243834,-3.770684,9.948509,-33.108345,-1.016695,3.457317,-19.982319,-0.488674,-3.386410,0.984374,-0.173543,0.000928,-0.029839
700,0.246566,-4.232985,9.783826,-36.410454,-0.618428,1.379006,-21.152451,-0.489231,-3.301201,0.982572,-0.183587,0.001092,-0.029098
701,0.200276,-4.346755,9.361976,-37.991306,-0.111821,-3.624503,-22.406986,-0.517257,-3.331277,0.980493,-0.194339,0.001221,-0.029389
702,0.117868,-4.536630,8.686350,-37.936375,-0.537554,-8.884367,-23.689003,-0.610046,-3.518782,0.978199,-0.205317,0.001094,-0.031140
703,0.342667,-4.759542,8.225449,-37.895180,-1.657583,-14.885833,-24.972378,-0.809542,-3.864615,0.975717,-0.216309,0.000396,-0.034447
704,0.434199,-4.945577,7.861577,-37.332108,-2.330516,-20.937651,-26.245485,-1.133967,-4.374133,0.973043,-0.227229,-0.000966,-0.039409
705,0.359791,-4.961053,7.797964,-36.152573,-2.177923,-24.331312,-27.482944,-1.547555,-5.013000,0.970219,-0.237866,-0.002718,-0.045682
706,0.306468,-5.089564,7.874538,-35.352982,-2.309153,-24.680748,-28.677452,-2.000594,-5.698232,0.967289,-0.248151,-0.004585,-0.052468
707,0.410924,-5.278489,8.035696,-33.415058,-2.643331,-21.096350,-29.819960,-2.446867,-6.323313,0.964338,-0.257989,-0.006413,-0.058770
708,0.469645,-5.517790,8.038765,-30.663815,-2.544145,-15.677787,-30.884674,-2.832902,-6.808109,0.961513,-0.267132,-0.007979,-0.063786
709,0.330551,-5.646286,8.051363,-27.456320,-2.583820,-10.228707,-31.854658,-3.129641,-7.131680,0.958925,-0.275418,-0.009148,-0.067265
710,0.280326,-5.790977,8.017530,-24.595207,-4.302012,-4.581258,-32.730705,-3.353746,-7.278284,0.956616,-0.282855,-0.010144,-0.069103
711,0.330241,-5.758092,8.023783,-21.717312,-6.198737,2.132814,-33.520569,-3.516817,-7.215926,0.954615,-0.289510,-0.011185,-0.069059
712,0.341123,-5.872252,7.978335,-17.887239,-7.472884,7.609360,-34.208843,-3.609726,-6.952905,0.952976,-0.295253,-0.012221,-0.067174
713,0.370890,-5.881584,8.027699,-14.003760,-8.524246,11.526411,-34.776619,-3.642906,-6.537610,0.951726,-0.299939,-0.013251,-0.063871
714,0.597598,-5.949115,8.290087,-11.673674,-8.327402,13.934319,-35.242882,-3.626084,-6.027524,0.950779,-0.303742,-0.014204,-0.059648
715,0.702338,-5.868731,8.501473,-8.202192,-6.670248,14.918543,-35.608299,-3.551124,-5.489667,0.950105,-0.306680,-0.014831,-0.055036
716,0.811016,-5.768737,8.557920,-4.246995,-4.887967,13.491801,-35.841358,-3.433692,-4.992090,0.949753,-0.308512,-0.015085,-0.050629
717,0.860468,-5.450013,8.633869,-2.774477,-3.178931,11.064055,-35.971703,-3.307553,-4.581644,0.949621,-0.309504,-0.015090,-0.046907
718,0.882150,-5.228879,8.608803,-1.947424,-1.707939,9.275670,-36.051434,-3.180610,-4.260013,0.949576,-0.310092,-0.014875,-0.043911
719,0.791241,-4.985087,8.383777,0.738204,-0.757287,8.663774,-36.032143,-3.053741,-3.996687,0.949767,-0.309869,-0.014543,-0.041385
720,0.730121,-4.937371,8.215178,2.567789,-0.447524,7.977107,-35.903477,-2.930391,-3.764762,0.950233,-0.308748,-0.014191,-0.039115
721,0.554332,-4.977386,8.131226,3.936544,-0.478043,8.979642,-35.755985,-2.789287,-3.529027,0.950749,-0.307468,-0.013702,-0.036764
722,0.568768,-5.343327,8.068957,5.315981,-0.874783,10.371285,-35.586880,-2.625159,-3.254981,0.951332,-0.306002,-0.013126,-0.034033
723,0.588993,-5.485217,8.060497,6.263580,-1.027376,9.910456,-35.377037,-2.466525,-2.962476,0.952014,-0.304200,-0.012646,-0.031159
724,0.573904,-5.515491,8.286116,5.750869,-0.711509,9.115449,-35.162682,-2.320988,-2.687783,0.952688,-0.302367,-0.012219,-0.028469
725,0.508243,-5.515014,8.351802,7.528572,-0.055361,8.312811,-34.922237,-2.176519,-2.443694,0.953410,-0.300323,-0.011716,-0.026035
726,0.524002,-5.529251,8.302473,9.916645,0.799157,6.954738,-34.614048,-2.033093,-2.242618,0.954288,-0.297720,-0.011114,-0.023957
728,0.464820,-5.355798,8.253397,14.303680,0.316965,5.390665,-34.201954,-1.909868,-2.083842,0.955408,-0.294257,-0.010580,-0.022278
729,0.427881,-5.182707,8.191469,19.655104,-0.084354,4.493421,-33.633053,-1.817496,-1.949444,0.956899,-0.289488,-0.010259,-0.020870
730,0.407761,-5.129016,7.982510,26.434788,-0.586384,3.800650,-32.862904,-1.753761,-1.827807,0.958856,-0.283033,-0.010166,-0.019625
731,0.488081,-5.000873,7.878952,31.784683,-1.138768,2.289984,-31.892868,-1.727686,-1.726708,0.961238,-0.274895,-0.010355,-0.018628
732,0.528776,-4.925397,7.926872,36.898056,-1.866635,0.667925,-30.749300,-1.750696,-1.658560,0.963941,-0.265284,-0.010892,-0.018004
733,0.550301,-4.873001,8.005949,40.015522,-1.050265,-1.544667,-29.469061,-1.806694,-1.646798,0.966837,-0.254502,-0.011591,-0.017906
734,0.574869,-4.808264,8.009497,43.322201,0.306283,-5.811154,-28.081375,-1.883710,-1.748328,0.969819,-0.242793,-0.012244,-0.018786
735,0.549081,-4.728697,8.075602,46.165001,1.614001,-10.309581,-26.589481,-1.985706,-2.001658,0.972836,-0.230185,-0.012845,-0.020980
736,0.389635,-4.497459,8.330406,48.044941,2.346445,-13.088292,-25.014507,-2.100292,-2.381422,0.975811,-0.216852,-0.013389,-0.024252
737,0.333506,-3.791326,8.543681,50.190392,2.923245,-16.060793,-23.360989,-2.220126,-2.860759,0.978705,-0.202826,-0.013913,-0.028362
738,0.198636,-3.151878,8.874137,49.123768,3.031586,-16.610128,-21.674459,-2.334989,-3.402354,0.981415,-0.188492,-0.014422,-0.032981
739,-0.002544,-2.779403,9.457429,46.213829,2.138919,-14.214424,-20.045696,-2.430482,-3.913999,0.983817,-0.174613,-0.014930,-0.037310
740,-0.050266,-2.178237,9.800762,44.085163,0.127750,-10.648337,-18.496946,-2.520854,-4.318727,0.985928,-0.161381,-0.015641,-0.040713
741,0.155989,-1.827871,9.929733,39.887348,-2.060428,-7.529346,-17.052719,-2.634600,-4.598645,0.987754,-0.149018,-0.016770,-0.043072
742,0.253714,-1.854516,10.031344,33.843155,-4.237923,-5.765376,-15.784922,-2.791736,-4.782729,0.989232,-0.138161,-0.018381,-0.044660
743,0.317847,-1.709056,9.833821,32.036461,-5.919493,-4.269969,-14.655107,-2.994354,-4.900712,0.990446,-0.128489,-0.020440,-0.045719
744,0.310687,-1.633116,9.456463,28.883896,-7.387432,-1.378341,-13.615376,-3.227890,-4.938803,0.991490,-0.119585,-0.022835,-0.046101
745,0.519987,-1.859862,9.411503,21.255796,-8.693624,0.266607,-12.767076,-3.490191,-4.896248,0.992288,-0.112323,-0.025490,-0.045813
746,0.484510,-1.981437,9.516341,16.053917,-8.803491,1.330177,-12.143728,-3.767464,-4.807376,0.992832,-0.106996,-0.028224,-0.045156
747,0.594199,-2.147311,9.478109,12.806747,-8.364025,4.702472,-11.672637,-4.024708,-4.649515,0.993240,-0.102958,-0.030782,-0.043896
748,0.730542,-2.514275,9.587962,6.574869,-7.790277,6.435923,-11.374182,-4.251128,-4.412661,0.993515,-0.100375,-0.033067,-0.041955
749,0.995408,-2.389127,9.551385,2.938588,-6.467299,5.375405,-11.262321,-4.458479,-4.170146,0.993624,-0.099393,-0.035117,-0.039995
750,0.983031,-2.088258,9.250890,0.220915,-4.225715,4.105835,-11.249969,-4.618120,-3.977864,0.993641,-0.099270,-0.036673,-0.038458
751,0.834254,-1.887292,9.254470,-6.249009,-2.794398,2.877466,-11.365214,-4.713948,-3.840039,0.993549,-0.100249,-0.037586,-0.037381
752,0.758863,-1.885996,9.499887,-10.175214,-1.236428,0.849511,-11.645404,-4.767722,-3.765437,0.993304,-0.102667,-0.038027,-0.036873
753,0.781904,-1.725701,9.661164,-7.962622,-0.369702,-1.709466,-11.943541,-4.795862,-3.774278,0.993020,-0.105261,-0.038167,-0.037074
754,0.782510,-1.887203,10.053546,-4.402638,0.162846,-5.241984,-12.134264,-4.822027,-3.887759,0.992796,-0.106958,-0.038226,-0.038144
755,0.755465,-2.104560,10.405429,4.202054,0.762535,-9.891479,-12.112262,-4.857398,-4.138855,0.992716,-0.106861,-0.038306,-0.040345
756,0.817490,-2.063023,10.180878,19.000479,1.327127,-14.432632,-11.688242,-4.904450,-4.544441,0.992938,-0.103337,-0.038497,-0.043758
757,0.692634,-1.745143,9.857334,30.501379,1.581957,-17.727106,-10.812263,-4.958442,-5.081972,0.993461,-0.095943,-0.038849,-0.048167
758,0.586131,-1.493835,9.702260,36.875168,1.813897,-19.004307,-9.628305,-5.005924,-5.697343,0.994109,-0.085903,-0.039296,-0.053136
759,0.577310,-1.250257,9.590308,42.043476,1.519394,-18.006351,-8.250000,-5.040183,-6.318250,0.994756,-0.074171,-0.039829,-0.058071
760,0.480731,-0.978741,9.604432,46.668556,1.272194,-14.624899,-6.713910,-5.056660,-6.866184,0.995368,-0.061032,-0.040456,-0.062300
761,0.746311,-0.906974,9.639088,47.664986,1.673512,-11.547108,-5.095381,-5.046234,-7.307225,0.995890,-0.047120,-0.041060,-0.065553
762,1.052835,-1.020081,9.923153,43.342037,1.710134,-10.561359,-3.545038,-5.018071,-7.680368,0.996231,-0.033763,-0.041588,-0.068229
763,1.341790,-1.105637,10.150200,39.482971,1.874934,-13.976380,-2.136007,-4.985882,-8.092792,0.996333,-0.021644,-0.042066,-0.071294
764,1.544525,-0.929917,10.227456,36.293789,2.509719,-21.444260,-0.833670,-4.941210,-8.686195,0.996152,-0.010512,-0.042431,-0.075969
765,1.653786,-0.741086,10.101869,28.345245,2.842371,-30.581501,0.304753,-4.873333,-9.555986,0.995630,-0.000893,-0.042588,-0.083107
766,1.720619,-0.657252,10.226401,18.144434,1.099764,-43.602222,1.169062,-4.811721,-10.794768,0.994677,0.006199,-0.042748,-0.093549
767,1.752727,-0.442003,9.959930,13.772659,-0.746606,-58.812653,1.828501,-4.783327,-12.505507,0.993131,0.011303,-0.043213,-0.108144
768,1.557777,0.004633,9.734952,9.216246,-1.979553,-72.123299,2.382765,-4.769403,-14.694118,0.990827,0.015284,-0.043915,-0.126883
769,1.249686,0.083926,9.767136,0.689374,-4.236397,-82.023499,2.754821,-4.773036,-17.272545,0.987669,0.017494,-0.044763,-0.148998
770,1.150704,0.146710,9.880755,-1.573573,-6.471878,-91.078339,2.974887,-4.817945,-20.170696,0.983537,0.018176,-0.045910,-0.173827
771,0.995409,0.467955,9.809225,1.684277,-6.845729,-97.162201,3.239126,-4.875889,-23.324072,0.978323,0.019059,-0.047350,-0.200697
772,0.855517,0.592967,9.811337,4.273773,-6.203314,-101.453102,3.621706,-4.896333,-26.650700,0.972014,0.020881,-0.048821,-0.228841
773,0.864436,0.655708,9.872808,7.322572,-5.783685,-105.859978,4.110715,-4.862504,-30.120937,0.964557,0.023587,-0.050248,-0.257968
774,0.841543,0.939612,9.740624,13.421697,-4.804041,-109.896049,4.762059,-4.759956,-33.729057,0.955843,0.027687,-0.051748,-0.287958
775,0.688202,1.112807,9.661762,13.650585,-4.242501,-110.935204,5.519536,-4.577564,-37.416958,0.945926,0.032773,-0.053214,-0.318304
776,0.539131,1.082970,9.781919,8.317476,-4.704856,-107.369118,6.174168,-4.350915,-41.058979,0.935176,0.037104,-0.054370,-0.348014
777,0.257348,1.192866,10.129260,3.024041,-6.023256,-99.730339,6.621768,-4.136431,-44.515095,0.924133,0.039769,-0.055206,-0.375963
778,0.012254,1.128953,10.147376,0.458961,-6.821315,-89.619553,6.904229,-3.964214,-47.679161,0.913316,0.041090,-0.055902,-0.401298
779,0.158004,1.153330,9.953424,-2.684446,-7.846736,-81.243759,7.061123,-3.846478,-50.539814,0.902964,0.041357,-0.056564,-0.423964
780,0.474747,1.171402,9.924184,-6.393970,-8.414380,-78.016426,7.086672,-3.780546,-53.211472,0.892828,0.040485,-0.057100,-0.444926
781,0.452038,1.124641,9.855556,-7.985512,-7.767388,-78.901451,7.017734,-3.723106,-55.844124,0.882394,0.038867,-0.057293,-0.465389
782,0.390903,1.138961,9.721620,-11.214369,-7.742973,-82.556046,6.869844,-3.649287,-58.550495,0.871205,0.036694,-0.057008,-0.486216
783,0.372828,1.148557,9.897806,-16.292646,-9.560351,-86.338821,6.589434,-3.600260,-61.383633,0.859002,0.033390,-0.056289,-0.507772
784,0.053432,0.949144,9.965500,-24.888186,-10.549150,-89.515785,6.086306,-3.600736,-64.337288,0.845762,0.028213,-0.054807,-0.529988
785,-0.232288,0.839434,10.020341,-27.270159,-10.741416,-87.425278,5.400334,-3.643263,-67.310440,0.831873,0.021596,-0.052525,-0.552052
786,-0.242577,0.843847,9.929165,-24.000097,-12.983002,-81.565727,4.726391,-3.768408,-70.154594,0.818018,0.014847,-0.050569,-0.572772
787,-0.033674,0.924745,9.790693,-19.423847,-14.008423,-73.743835,4.181360,-3.996709,-72.774849,0.804754,0.008677,-0.049682,-0.591463
788,0.249707,1.057084,9.546809,-17.554588,-13.076083,-65.897514,3.741674,-4.272182,-75.133316,0.792413,0.003146,-0.049419,-0.607971
789,0.526901,1.021706,9.741351,-13.573450,-11.377728,-55.129059,3.389458,-4.545731,-77.177742,0.781417,-0.001627,-0.049417,-0.622048
790,0.630642,0.977535,9.799370,-9.566369,-10.718528,-44.526928,3.150914,-4.814095,-78.862839,0.772146,-0.005449,-0.049874,-0.633462
791,0.824729,1.119173,9.869440,-6.075053,-8.504410,-35.350018,3.018512,-5.060184,-80.215210,0.764574,-0.008304,-0.050703,-0.642485
792,1.111174,1.113597,9.870433,1.951315,-5.638723,-25.451340,3.056181,-5.244323,-81.244896,0.758746,-0.009556,-0.052056,-0.649233
793,0.884175,0.739686,10.064328,14.328095,-2.895108,-14.919403,3.399995,-5.350151,-81.928497,0.754872,-0.008207,-0.054655,-0.653540
794,0.665110,0.768362,9.766260,23.547737,-0.812220,-7.184487,4.070811,-5.383440,-82.302299,0.752769,-0.004170,-0.058685,-0.655651
795,0.842238,0.697031,9.969314,23.218138,1.723868,-2.498370,4.867328,-5.350870,-82.462929,0.751862,0.001161,-0.063030,-0.656300
796,0.711893,0.566105,10.044254,24.397676,4.089053,0.739644,5.659165,-5.247553,-82.483047,0.751723,0.006939,-0.066889,-0.656041
797,0.471373,0.460019,10.026642,19.412479,3.902890,1.113495,6.375463,-5.110117,-82.437317,0.751923,0.012457,-0.070086,-0.655396
798,0.661139,0.739054,9.830966,10.218779,3.625170,-1.685052,6.845190,-4.968474,-82.430115,0.751899,0.016358,-0.071846,-0.655147
799,0.846261,0.876187,10.082963,5.257995,3.214697,-4.259288,7.089170,-4.832436,-82.513054,0.751378,0.018689,-0.072366,-0.655625
800,0.682304,1.091275,9.813177,6.548928,2.375438,-6.044620,7.289117,-4.710872,-82.671486,0.750426,0.020599,-0.072745,-0.656616
801,0.715388,1.170845,9.733217,1.971152,1.258460,-7.335554,7.441438,-4.613791,-82.884941,0.749163,0.022020,-0.073026,-0.657979
802,0.718053,1.247756,9.841659,-0.717528,1.617053,-7.234842,7.479780,-4.532715,-83.120163,0.747794,0.022590,-0.072765,-0.659544
803,0.688351,1.281859,9.890808,-0.918951,1.778801,-4.695702,7.466755,-4.448575,-83.310501,0.746690,0.022872,-0.072182,-0.660849
804,0.755652,1.253979,9.829794,-0.186506,1.705557,-1.291363,7.453531,-4.376097,-83.402023,0.746155,0.023149,-0.071654,-0.661500
805,0.807345,1.248589,9.816284,-0.047648,1.522446,1.800162,7.445097,-4.325520,-83.386330,0.746241,0.023398,-0.071274,-0.661436
806,0.867324,1.255776,9.814584,-0.036965,1.476668,4.040221,7.432927,-4.296662,-83.282829,0.746837,0.023550,-0.070995,-0.660787
807,0.931453,1.289935,9.780481,0.280426,1.209631,5.094635,7.424601,-4.286794,-83.125580,0.747743,0.023650,-0.070851,-0.659773
808,1.012207,1.291200,9.807731,0.494057,0.497024,5.314368,7.425600,-4.303114,-82.949471,0.748758,0.023671,-0.070926,-0.658612
809,1.064229,1.332760,9.783273,0.886219,-0.294932,4.890161,7.439185,-4.350142,-82.780174,0.749734,0.023594,-0.071276,-0.657467
810,1.092838,1.318933,9.808647,1.139523,-0.934295,4.186708,7.466213,-4.421745,-82.632751,0.750582,0.023450,-0.071867,-0.656439
811,1.129676,1.281646,9.852060,2.160366,-1.471420,3.553450,7.512991,-4.511780,-82.509834,0.751287,0.023316,-0.072697,-0.655545
812,1.159103,1.359964,9.786257,3.858722,-1.730828,3.077362,7.607978,-4.614602,-82.407242,0.751866,0.023413,-0.073891,-0.654743
813,1.110991,1.417154,9.774405,3.623729,-1.640798,2.845421,7.733956,-4.716672,-82.317398,0.752366,0.023712,-0.075258,-0.654003
814,1.057595,1.420502,9.800301,3.161374,-1.538561,2.924769,7.849307,-4.808733,-82.229836,0.752852,0.023999,-0.076500,-0.653289
815,1.041418,1.434641,9.802745,3.004203,-1.395124,3.223851,7.952263,-4.892673,-82.135422,0.753378,0.024257,-0.077615,-0.652541
816,1.001363,1.484052,9.771296,2.230559,-1.207435,3.599228,8.039977,-4.968817,-82.029305,0.753972,0.024470,-0.078590,-0.651729
817,0.961166,1.418522,9.797350,0.956411,-1.067050,4.081421,8.089814,-5.036550,-81.908066,0.754658,0.024494,-0.079291,-0.650849
818,0.984968,1.401603,9.792519,1.145626,-1.016695,4.111939,8.115410,-5.100383,-81.777443,0.755402,0.024388,-0.079827,-0.649924
819,0.974201,1.401562,9.799554,1.501167,-0.864102,3.915095,8.148695,-5.160086,-81.648987,0.756129,0.024357,-0.080379,-0.649011
820,0.969396,1.433839,9.784810,1.920796,-0.771020,3.585495,8.196614,-5.212824,-81.528801,0.756805,0.024457,-0.080971,-0.648145
821,0.978696,1.460972,9.778168,2.210722,-0.696250,3.135347,8.259707,-5.260387,-81.421364,0.757404,0.024679,-0.081617,-0.647356
822,0.998078,1.507191,9.811189,2.119167,-0.635213,2.364755,8.330239,-5.303262,-81.334091,0.757886,0.024964,-0.082279,-0.646697
823,0.953089,1.518722,9.802152,1.992515,-0.481095,1.823051,8.400504,-5.337384,-81.268181,0.758246,0.025282,-0.082885,-0.646184
824,0.953591,1.481734,9.820683,1.774307,-0.388013,1.473614,8.463864,-5.362540,-81.216232,0.758527,0.025596,-0.083396,-0.645776
825,0.954373,1.502406,9.778354,1.887226,-0.244576,1.272192,8.524534,-5.382184,-81.172699,0.758761,0.025918,-0.083857,-0.645428
826,0.953418,1.495336,9.785221,1.121211,-0.104191,1.052459,8.574770,-5.395920,-81.135429,0.758961,0.026200,-0.084222,-0.645134
827,0.936548,1.486042,9.783731,0.646648,-0.008058,0.812888,8.603234,-5.403491,-81.104996,0.759127,0.026368,-0.084425,-0.644906
828,0.957527,1.479678,9.798587,0.373508,-0.067569,0.469555,8.618639,-5.408988,-81.084007,0.759242,0.026455,-0.084543,-0.644751
829,0.938925,1.508578,9.771069,0.178189,-0.133183,0.150637,8.628098,-5.414942,-81.074348,0.759295,0.026491,-0.084634,-0.644676
831,0.938678,1.485000,9.829442,-0.387929,-0.175909,-0.073674,8.625564,-5.420188,-81.073959,0.759298,0.026444,-0.084654,-0.644671
832,0.984421,1.503692,9.814082,-0.072063,-0.351391,-0.241526,8.618919,-5.429935,-81.080536,0.759264,0.026340,-0.084682,-0.644712
833,1.020253,1.511020,9.764828,0.088160,-0.384961,-0.490252,8.622698,-5.446135,-81.094696,0.759185,0.026263,-0.084813,-0.644791
834,1.065339,1.526027,9.723193,-0.404714,-0.211006,-0.583333,8.623202,-5.463246,-81.114342,0.759076,0.026154,-0.084933,-0.644907
835,1.113992,1.543257,9.758138,-2.354846,-0.130132,-0.682519,8.584786,-5.479895,-81.136681,0.758961,0.025789,-0.084832,-0.645071
836,1.129873,1.478396,9.742551,-3.538965,-0.258309,-0.598593,8.491794,-5.493427,-81.159149,0.758857,0.025080,-0.084402,-0.645278
837,1.100768,1.400505,9.784983,-4.735290,-0.363598,-0.775600,8.355584,-5.504330,-81.183350,0.758750,0.024098,-0.083712,-0.645530
838,1.086439,1.380671,9.766813,-5.487571,-0.517717,-0.777126,8.186514,-5.518566,-81.211075,0.758630,0.022878,-0.082859,-0.645826
839,1.001293,1.243607,9.838975,-9.256606,-1.021272,-1.758296,7.942486,-5.540175,-81.256447,0.758423,0.021107,-0.081634,-0.646285
840,0.947138,1.049711,9.938100,-13.837435,-2.448012,-5.222147,7.563537,-5.582024,-81.379517,0.757796,0.018275,-0.079791,-0.647336
841,0.964007,1.090679,9.959037,-19.695463,-4.581256,-10.840604,7.025551,-5.663740,-81.660660,0.756284,0.014063,-0.077324,-0.649505
842,1.016998,1.049999,9.769096,-27.259474,-5.870663,-14.388380,6.282306,-5.788247,-82.100250,0.753859,0.008163,-0.073959,-0.652810
843,1.069972,0.900808,9.860179,-38.900761,-6.516130,-17.374615,5.231875,-5.941860,-82.650047,0.750747,0.000040,-0.068979,-0.656979
844,1.269107,0.862159,9.931484,-41.514671,-7.262307,-18.006351,3.953069,-6.127257,-83.259064,0.747168,-0.009740,-0.062803,-0.661590
845,1.377717,0.939276,9.657325,-35.359089,-6.333019,-14.128974,2.734619,-6.329035,-83.810287,0.743785,-0.019128,-0.056986,-0.665711
846,1.451017,0.898965,9.565842,-27.979710,-3.529894,-6.998324,1.728153,-6.488475,-84.171577,0.741441,-0.026752,-0.052086,-0.668459
847,1.458961,0.803931,9.855413,-15.238234,-1.048739,1.139436,1.030833,-6.571476,-84.272705,0.740647,-0.031792,-0.048526,-0.669385
848,1.491239,0.767009,9.694010,9.336794,1.572801,11.285315,0.943633,-6.588622,-84.068024,0.741812,-0.032369,-0.048185,-0.668091
849,1.344339,0.700772,9.423140,24.654034,4.954252,19.922052,1.486024,-6.512459,-83.546494,0.745011,-0.028181,-0.050983,-0.664504
850,1.255742,0.546596,9.758094,27.493780,8.120547,24.377752,2.281855,-6.323929,-82.798134,0.749558,-0.021556,-0.054515,-0.659338
851,1.078877,0.484895,9.806724,33.769913,8.700398,25.662584,3.215636,-6.085344,-81.947495,0.754625,-0.013637,-0.058432,-0.653407
852,1.055234,0.625297,9.693056,30.777573,7.487287,22.606152,4.207551,-5.868629,-81.123070,0.759422,-0.005413,-0.062704,-0.647546
853,0.945793,0.718529,9.812320,19.574228,5.622607,16.217106,4.980463,-5.702200,-80.457382,0.763203,0.001037,-0.065966,-0.642781
854,0.954198,0.843298,9.993055,11.868303,3.344401,9.155122,5.461147,-5.590369,-80.020584,0.765643,0.005128,-0.067901,-0.639652
855,0.945051,1.013390,9.773299,10.115016,0.654194,4.186710,5.808818,-5.544555,-79.792007,0.766900,0.007847,-0.069521,-0.637942
856,1.005418,1.046350,9.829025,3.695447,-0.555865,0.922755,6.036772,-5.553217,-79.707260,0.767354,0.009376,-0.070841,-0.637230
857,0.966399,1.032576,9.813046,3.124752,-0.381909,-0.606222,6.152065,-5.571868,-79.703850,0.767362,0.010046,-0.071606,-0.637124
858,1.003971,1.032802,9.809149,2.506751,-0.261361,-1.128089,6.247412,-5.581757,-79.733749,0.767187,0.010610,-0.072205,-0.637258
859,1.016180,1.035122,9.791048,2.085596,-0.124028,-0.931244,6.324408,-5.588982,-79.768456,0.766987,0.011063,-0.072684,-0.637437
860,1.038995,1.043746,9.830846,1.727004,-0.012635,-0.757289,6.386746,-5.594143,-79.796425,0.766825,0.011434,-0.073068,-0.637581
861,1.059505,1.071581,9.810547,1.939107,0.146061,-0.284252,6.446040,-5.597860,-79.813179,0.766726,0.011799,-0.073425,-0.637653
862,1.077903,1.073924,9.795571,1.769729,0.252876,0.260503,6.504970,-5.601027,-79.812569,0.766723,0.012176,-0.073774,-0.637609
863,1.045818,1.084450,9.807618,1.199033,0.252876,0.524489,6.549875,-5.603249,-79.798225,0.766798,0.012473,-0.074037,-0.637483
864,1.021140,1.098655,9.826297,1.047966,0.167424,0.823570,6.582014,-5.605043,-79.774712,0.766925,0.012693,-0.074225,-0.637303
865,1.048383,1.137068,9.802481,1.427922,-0.030947,1.058562,6.619064,-5.612658,-79.743034,0.767097,0.012919,-0.074478,-0.637062
866,1.045668,1.149769,9.795292,0.980826,-0.194221,1.133333,6.656600,-5.628098,-79.707100,0.767292,0.013108,-0.074785,-0.636787
867,1.046381,1.177874,9.818617,0.735152,-0.334606,0.796103,6.684312,-5.647683,-79.676262,0.767461,0.013204,-0.075066,-0.636549
868,1.054226,1.183373,9.834893,0.960989,-0.404798,0.570266,6.713487,-5.669572,-79.655281,0.767574,0.013291,-0.075372,-0.636375
869,1.069193,1.205223,9.822702,1.217344,-0.386487,0.460399,6.752065,-5.692383,-79.640060,0.767653,0.013432,-0.075736,-0.636232
870,1.034722,1.203272,9.837988,0.977774,-0.238472,0.588577,6.791228,-5.711159,-79.624283,0.767736,0.013599,-0.076077,-0.636088
871,1.039246,1.206262,9.820107,1.273804,-0.078250,0.904444,6.829947,-5.723956,-79.600433,0.767864,0.013803,-0.076374,-0.635894
872,1.030824,1.194384,9.808656,1.218870,0.110965,1.458355,6.870266,-5.732419,-79.561348,0.768076,0.014052,-0.076650,-0.635599
873,1.037803,1.212303,9.788737,1.197508,0.260505,2.045836,6.907160,-5.737490,-79.502571,0.768397,0.014311,-0.076881,-0.635177
874,1.022960,1.212474,9.804132,0.639019,0.321542,2.393747,6.933040,-5.740510,-79.427856,0.768808,0.014517,-0.077035,-0.634657
875,1.022074,1.199187,9.803785,0.265168,0.309335,2.596695,6.941210,-5.742965,-79.343765,0.769273,0.014615,-0.077086,-0.634085
876,1.025668,1.202494,9.817700,-0.062906,0.191838,2.561599,6.936579,-5.747929,-79.257042,0.769753,0.014615,-0.077083,-0.633502
877,1.004003,1.191607,9.817816,-0.232285,0.060609,2.349495,6.923635,-5.755511,-79.174896,0.770209,0.014541,-0.077051,-0.632954
878,1.010167,1.151940,9.871161,0.007287,-0.101139,2.000059,6.910268,-5.765720,-79.102402,0.770610,0.014443,-0.077037,-0.632469
