seq,ax,ay,az,wroll,wpitch,wyaw,roll,pitch,yaw
1,9.823484,-0.073328,-0.005144,-1.192092,0.286446,-0.355971,-94.014107,-89.571129,93.585983
2,9.825576,-0.054066,-0.002738,-0.680907,0.210150,-0.230082,-93.008881,-89.582222,92.550110
3,9.824777,-0.054273,-0.002551,-0.368093,0.156742,-0.137255,-92.221863,-89.587883,91.745781
4,9.831243,-0.044700,-0.010188,-0.213593,0.114779,-0.117545,-91.620560,-89.593140,91.134697
5,9.833900,-0.046363,-0.005737,-0.119367,0.104861,-0.093511,-91.122543,-89.597000,90.630493
6,9.836516,-0.034224,-0.007886,0.219389,0.046876,-0.009585,-90.765549,-89.598946,90.275284
8,9.840017,-0.043592,-0.008766,0.429967,0.016357,0.037718,-90.603386,-89.598465,90.124367
9,9.844829,-0.039812,-0.013749,0.393345,0.020935,0.020933,-90.501122,-89.597488,90.034897
10,9.841754,-0.047287,-0.009208,0.329257,0.036194,0.014829,-90.352303,-89.595551,89.898376
11,9.842883,-0.047291,-0.012803,0.249908,0.034668,-0.005008,-90.175117,-89.596031,89.731041
12,9.838602,-0.057273,-0.013702,0.156826,0.054505,-0.035526,-89.957840,-89.596519,89.520287
13,9.835912,-0.053945,-0.013276,-0.007974,0.078920,-0.073674,-89.637863,-89.598465,89.203186
15,9.832318,-0.057366,-0.010080,-0.073588,0.091127,-0.093511,-89.230515,-89.600906,88.794746
16,9.830692,-0.054936,-0.007705,-0.036965,0.097231,-0.075200,-88.773041,-89.603859,88.335159
17,9.830723,-0.053217,-0.011565,0.025597,0.098757,-0.070622,-88.291473,-89.606834,87.853355
18,9.836093,-0.048767,-0.005813,0.045434,0.120120,-0.062993,-87.747955,-89.608826,87.311325
19,9.838958,-0.046858,-0.006850,0.046960,0.143009,-0.061467,-87.091530,-89.610832,86.656082
20,9.840422,-0.037421,-0.009616,0.109523,0.153690,-0.050785,-86.345787,-89.612343,85.913254
22,9.841905,-0.041345,-0.008857,0.121730,0.162846,-0.075200,-85.542030,-89.613861,85.112709
23,9.838048,-0.041985,-0.006757,0.097315,0.156742,-0.079778,-84.717041,-89.615898,84.291443
24,9.836150,-0.044574,-0.005580,0.101893,0.149113,-0.081304,-83.916039,-89.617935,83.494095
25,9.835460,-0.042345,-0.001380,0.117153,0.139957,-0.085882,-83.146103,-89.619995,82.727768
26,9.838033,-0.051454,0.003869,0.126308,0.139957,-0.075200,-82.392357,-89.622574,81.977791
27,9.835904,-0.056016,0.006372,0.048487,0.139957,-0.066045,-81.638779,-89.624657,81.227348
29,9.837309,-0.060133,0.012914,0.101893,0.164372,-0.043156,-80.830276,-89.625702,80.421547
30,9.835901,-0.056015,0.006613,0.112575,0.161320,-0.037052,-79.974785,-89.625175,79.569328
31,9.836402,-0.054051,0.003123,0.117154,0.139957,-0.041630,-79.179840,-89.625175,78.778244
32,9.832698,-0.056901,0.005110,0.149197,0.117068,-0.047734,-78.488052,-89.625702,78.090683
33,9.836206,-0.048354,0.002745,0.254486,0.114016,-0.043156,-77.857109,-89.627800,77.466644
34,9.837989,-0.048312,0.003862,0.187345,0.120120,-0.067571,-77.202866,-89.628326,76.820084
36,9.841990,-0.049008,0.009841,0.214812,0.141483,-0.064519,-76.463379,-89.628853,76.086937
37,9.840743,-0.056811,0.012608,0.243804,0.196416,-0.052311,-75.539322,-89.629379,75.170616
38,9.842628,-0.057220,0.015415,0.237700,0.240668,-0.037052,-74.385612,-89.629379,74.024673
39,9.840512,-0.051096,0.014760,0.220915,0.243720,-0.020267,-73.142181,-89.627800,72.789017
40,9.839227,-0.050444,0.011723,0.234649,0.226935,-0.006533,-71.966133,-89.625702,71.620224
41,9.837783,-0.054227,0.007366,0.181241,0.190313,-0.012637,-70.938591,-89.624657,70.599510
43,9.837156,-0.054341,0.009404,0.170559,0.147587,-0.000430,-70.114716,-89.622574,69.781952
44,9.842755,-0.047400,0.004911,0.169034,0.107913,-0.009585,-69.496353,-89.621544,69.168968
45,9.848220,-0.057386,0.009973,0.170559,0.097231,-0.017215,-68.984734,-89.621025,68.663002
46,9.845667,-0.054065,0.009196,0.178189,0.083498,-0.015689,-68.526039,-89.620506,68.210381
47,9.843518,-0.055265,0.009762,0.187345,0.085024,-0.014163,-68.100128,-89.619995,67.790169
48,9.845956,-0.049285,0.009432,0.158352,0.086550,-0.024845,-67.660225,-89.619476,67.356285
50,9.838048,-0.056139,0.016052,0.136991,0.092653,-0.020267,-67.197693,-89.617935,66.898659
51,9.832522,-0.051152,0.011843,0.100367,0.101809,-0.026371,-66.701118,-89.616913,66.405891
52,9.830812,-0.050128,0.013136,0.056116,0.110964,-0.035526,-66.151192,-89.616402,65.858452
53,9.831141,-0.050568,0.015794,-0.024759,0.114016,-0.044682,-65.557693,-89.615898,65.265511
54,9.829686,-0.048277,0.014557,-0.096478,0.104861,-0.058415,-64.957291,-89.615898,64.663551
55,9.836985,-0.044896,0.012151,-0.113263,0.098757,-0.073674,-64.362228,-89.616913,64.064919
57,9.838060,-0.043719,0.011204,-0.087321,0.068239,-0.070622,-63.833355,-89.618454,63.532326
58,9.837931,-0.044641,0.012771,-0.015604,0.062135,-0.056889,-63.400730,-89.619476,63.098309
59,9.841136,-0.042716,0.013066,0.072900,0.063661,-0.041630,-63.007664,-89.619995,62.706104
60,9.842614,-0.055134,0.014205,0.124782,0.069765,-0.024845,-62.630848,-89.619995,62.332394
61,9.838609,-0.056747,0.010882,0.111049,0.059083,-0.030949,-62.275974,-89.619995,61.981361
62,9.833945,-0.059036,0.012369,0.066798,0.065187,-0.040104,-61.914501,-89.620506,61.622902
64,9.835555,-0.056891,0.015045,0.043908,0.083498,-0.046208,-61.482029,-89.620506,61.192585
65,9.830573,-0.053831,0.016755,0.025597,0.065187,-0.044682,-61.044411,-89.620506,60.755573
66,9.827072,-0.049146,0.013789,0.016441,0.045350,-0.053837,-60.680645,-89.621544,60.392681
67,9.827809,-0.044227,0.016081,0.005760,0.048401,-0.055363,-60.338932,-89.621025,60.051201
68,9.835593,-0.044654,0.017067,0.017968,0.051453,-0.053837,-59.983677,-89.622574,59.696632
69,9.842133,-0.045836,0.013573,-0.000344,0.039246,-0.066045,-59.632607,-89.623093,59.345665
71,9.843313,-0.043031,0.012021,0.013390,0.051453,-0.072148,-59.257370,-89.624657,58.970760
72,9.843608,-0.039757,0.013345,0.040856,0.059083,-0.072148,-58.825962,-89.625175,58.540691
73,9.837390,-0.048725,0.012770,0.072900,0.063661,-0.055363,-58.387913,-89.626221,58.104446
74,9.832171,-0.048791,0.017376,0.059167,0.069764,-0.062993,-57.936947,-89.626221,57.655483
75,9.827915,-0.052830,0.017187,0.053063,0.056031,-0.047734,-57.512596,-89.627800,57.233147
76,9.831174,-0.053242,0.016042,0.021019,0.040772,-0.052311,-57.165295,-89.627800,56.886913
78,9.831901,-0.046584,0.017366,0.001182,0.039246,-0.037052,-56.867878,-89.628326,56.589550
79,9.841153,-0.040814,0.018485,-0.011025,0.034668,-0.038578,-56.602818,-89.628326,56.324528
80,9.844104,-0.043800,0.016255,0.016441,0.030090,-0.034000,-56.361656,-89.629379,56.083511
81,9.843759,-0.045663,0.017097,0.036279,0.037720,-0.040104,-56.109650,-89.628853,55.832321
82,9.844502,-0.049129,0.018805,0.066796,0.048402,-0.038578,-55.811371,-89.629379,55.535519
83,9.846035,-0.054117,0.017157,0.101892,0.043824,-0.049259,-55.484135,-89.629379,55.211327
85,9.840643,-0.060752,0.015145,0.115626,0.046876,-0.044682,-55.150513,-89.629906,54.880978
86,9.839572,-0.058812,0.012591,0.123256,0.051454,-0.035526,-54.820435,-89.629906,54.555309
87,9.839047,-0.055216,0.012212,0.112575,0.054505,-0.027897,-54.498890,-89.629906,54.237484
88,9.835090,-0.061013,0.009622,0.088160,0.056031,-0.024845,-54.185371,-89.630966,53.927170
89,9.833371,-0.058945,0.010430,0.054589,0.071290,-0.034000,-53.828167,-89.630432,53.572369
90,9.834101,-0.051826,0.011030,0.040856,0.060609,-0.043156,-53.435184,-89.628853,53.180931
92,9.832432,-0.047410,0.014485,0.010337,0.065187,-0.043156,-53.041954,-89.628853,52.788483
93,9.830454,-0.048864,0.011680,0.004234,0.069765,-0.056889,-52.610176,-89.629379,52.357140
94,9.832202,-0.048459,0.014844,-0.004921,0.072816,-0.062993,-52.131050,-89.629379,51.878178
95,9.830174,-0.049774,0.015413,0.017968,0.057557,-0.059941,-51.671898,-89.630432,51.419247
96,9.828572,-0.055621,0.015879,0.022545,0.057557,-0.059941,-51.246063,-89.629379,50.994251
97,9.831274,-0.056759,0.012436,0.030175,0.048402,-0.067571,-50.826157,-89.630432,50.575211
99,9.835361,-0.051542,0.014909,0.050012,0.049927,-0.061467,-50.417034,-89.630966,50.167538
100,9.833671,-0.047985,0.012219,0.068323,0.052979,-0.056889,-50.014709,-89.630966,49.767029
101,9.838302,-0.046720,0.014108,0.056116,0.057557,-0.050785,-49.614815,-89.631493,49.369099
102,9.836662,-0.040584,0.013703,0.051537,0.062135,-0.040104,-49.224953,-89.631493,48.981239
103,9.837998,-0.041955,0.013851,0.057641,0.060609,-0.040104,-48.846802,-89.630966,48.604797
104,9.835238,-0.042698,0.014887,0.048487,0.056031,-0.029422,-48.500332,-89.630432,48.260113
106,9.839053,-0.041114,0.014712,0.045434,0.036194,-0.021793,-48.233116,-89.630432,47.994358
107,9.837477,-0.049054,0.015424,0.039330,0.034668,-0.012637,-48.037075,-89.630432,47.799450
108,9.839540,-0.050184,0.014740,0.039330,0.040772,-0.011111,-47.849342,-89.629379,47.613297
109,9.836597,-0.049743,0.019025,0.033226,0.045350,-0.005008,-47.656361,-89.628326,47.421509
110,9.836879,-0.050568,0.016862,0.027122,0.049928,-0.003482,-47.460072,-89.627800,47.225994
111,9.835819,-0.053140,0.018054,0.025597,0.065187,-0.014163,-47.211700,-89.627274,46.978661
113,9.834914,-0.044572,0.014162,0.034752,0.062135,-0.024845,-46.905434,-89.626221,46.673321
114,9.834531,-0.045260,0.016567,0.048485,0.063661,-0.029422,-46.576183,-89.625175,46.345451
115,9.841959,-0.044194,0.015735,0.045433,0.065187,-0.043156,-46.211193,-89.625175,45.981792
116,9.842731,-0.040448,0.016705,0.040856,0.057557,-0.055363,-45.811295,-89.624657,45.583363
117,9.840010,-0.039300,0.021595,0.037804,0.060609,-0.050786,-45.407288,-89.624138,45.180714
118,9.841405,-0.046825,0.023685,0.025597,0.063661,-0.061467,-44.982075,-89.624138,44.756702
120,9.841884,-0.045082,0.022003,0.016441,0.059083,-0.069096,-44.527927,-89.624657,44.303078
121,9.836759,-0.051032,0.017343,0.030175,0.054505,-0.055363,-44.099144,-89.624138,43.875278
122,9.839444,-0.054473,0.017399,0.045434,0.057557,-0.058415,-43.693108,-89.624657,43.470551
123,9.848066,-0.051533,0.015019,0.046960,0.043824,-0.059941,-43.296375,-89.624138,43.075253
124,9.845006,-0.049016,0.017006,0.042383,0.045350,-0.043156,-42.949005,-89.623611,42.729404
125,9.844020,-0.046709,0.016622,0.036279,0.046876,-0.035526,-42.642231,-89.623093,42.423874
127,9.843304,-0.050307,0.019991,0.022545,0.051453,-0.038578,-42.333763,-89.622574,42.116501
128,9.842880,-0.055081,0.020838,0.019493,0.040772,-0.041630,-42.026054,-89.622574,41.809353
129,9.835787,-0.053933,0.021188,0.033226,0.051454,-0.046208,-41.704582,-89.623611,41.488834
130,9.837955,-0.053782,0.020263,0.051537,0.057557,-0.050785,-41.336262,-89.623093,41.122066
131,9.839647,-0.062255,0.019228,0.060693,0.060609,-0.058415,-40.930035,-89.622574,40.717575
132,9.839952,-0.054940,0.015843,0.066796,0.063661,-0.052311,-40.511272,-89.622574,40.301044
134,9.841200,-0.050721,0.016580,0.069849,0.074342,-0.050785,-40.086006,-89.622574,39.877815
135,9.841642,-0.054915,0.014910,0.074426,0.074342,-0.050785,-39.646976,-89.621025,39.441254
136,9.842993,-0.055367,0.013128,0.080530,0.066713,-0.046208,-39.231323,-89.620506,39.028214
137,9.843174,-0.053139,0.015054,0.075953,0.060609,-0.040104,-38.859455,-89.619995,38.658730
138,9.837798,-0.053365,0.013993,0.092737,0.063661,-0.046207,-38.494331,-89.619476,38.296444
139,9.837438,-0.059441,0.011590,0.085108,0.062135,-0.043156,-38.120697,-89.617935,37.925743
141,9.835499,-0.050392,0.012498,0.045434,0.059083,-0.046207,-37.757107,-89.616913,37.564293
142,9.834016,-0.050282,0.015605,0.019493,0.063661,-0.055363,-37.369205,-89.616913,37.177483
143,9.837767,-0.046470,0.017834,0.045434,0.071291,-0.052311,-36.952354,-89.615898,36.761692
144,9.841117,-0.047444,0.019222,0.017968,0.069765,-0.050785,-36.537415,-89.615387,36.347836
145,9.838008,-0.040743,0.020477,0.011864,0.075868,-0.044682,-36.133648,-89.614876,35.944523
146,9.841090,-0.057430,0.022618,0.045433,0.085024,-0.041630,-35.727314,-89.613358,35.539280
147,9.842202,-0.055231,0.018054,0.050011,0.086550,-0.049260,-35.298779,-89.610832,35.112251
148,9.837717,-0.050667,0.016998,0.028648,0.083498,-0.049260,-34.860336,-89.608826,34.675098
149,9.839369,-0.050392,0.018595,0.046959,0.072816,-0.050785,-34.442295,-89.608826,34.258301
150,9.839816,-0.061583,0.015132,0.050011,0.068238,-0.061467,-34.021740,-89.607826,33.839474
151,9.839411,-0.049488,0.014737,0.039330,0.060609,-0.055363,-33.610722,-89.606834,33.429806
152,9.837472,-0.048127,0.014819,0.039330,0.049927,-0.041630,-33.265163,-89.606834,33.085567
153,9.838134,-0.052075,0.014358,0.031701,0.045350,-0.041630,-32.969471,-89.605843,32.791168
154,9.835684,-0.055045,0.012512,0.027122,0.056031,-0.037052,-32.675804,-89.605339,32.498402
155,9.837735,-0.043335,0.016862,0.030175,0.060609,-0.040104,-32.367008,-89.604851,32.190769
156,9.836094,-0.043038,0.013939,0.022545,0.069765,-0.053837,-32.007000,-89.602875,31.831539
157,9.835328,-0.049677,0.015386,0.033226,0.069765,-0.061467,-31.594379,-89.601395,31.419653
158,9.836916,-0.048968,0.012641,0.051537,0.078920,-0.062993,-31.153780,-89.600906,30.980368
160,9.836339,-0.046734,0.017326,0.050012,0.075868,-0.069097,-30.691628,-89.600418,30.519972
161,9.830209,-0.045916,0.017695,0.056116,0.071290,-0.056889,-30.253550,-89.599434,30.083735
162,9.827879,-0.045934,0.021389,0.079004,0.057557,-0.038578,-29.901485,-89.597977,29.733747
163,9.828002,-0.043621,0.018855,0.092739,0.069764,-0.024845,-29.618397,-89.596519,29.453802
164,9.827318,-0.049083,0.021868,0.101893,0.063661,-0.023319,-29.361097,-89.595062,29.199743
165,9.827738,-0.051186,0.019711,0.118678,0.057557,-0.017215,-29.134855,-89.593620,28.977106
166,9.830818,-0.056833,0.019418,0.118678,0.049927,-0.018741,-28.934881,-89.592178,28.780973
167,9.832175,-0.064631,0.015964,0.095789,0.056031,-0.027897,-28.716652,-89.591217,28.566494
168,9.834098,-0.067024,0.018053,0.089685,0.049928,-0.026371,-28.484652,-89.589783,28.337402
169,9.836568,-0.059674,0.013984,0.072900,0.039246,-0.024845,-28.278908,-89.588829,28.134285
170,9.834340,-0.067484,0.018300,0.056116,0.037720,-0.026370,-28.087675,-89.588356,27.945251
171,9.836380,-0.065597,0.016284,0.048487,0.034668,-0.027896,-27.896517,-89.587402,27.755749
172,9.839893,-0.066298,0.022857,0.062220,0.040772,-0.029422,-27.696321,-89.586929,27.557507
173,9.841014,-0.060574,0.022744,0.050012,0.036194,-0.035526,-27.479174,-89.586456,27.342314
174,9.838341,-0.059913,0.024622,0.048487,0.043824,-0.041630,-27.235065,-89.585983,27.099735
175,9.842241,-0.051837,0.020457,0.048487,0.049928,-0.035526,-26.977133,-89.585045,26.843531
176,9.839479,-0.052580,0.021493,0.021019,0.060609,-0.032474,-26.721989,-89.584572,26.589563
177,9.838037,-0.051973,0.012668,0.019493,0.051454,-0.030948,-26.476521,-89.582687,26.344690
178,9.832575,-0.057072,0.014027,0.011864,0.046876,-0.038578,-26.234144,-89.581284,26.102772
179,9.835760,-0.061900,0.013975,-0.003396,0.052979,-0.040104,-25.973015,-89.581284,25.841776
180,9.836513,-0.057682,0.015907,-0.000344,0.056031,-0.043156,-25.694342,-89.579422,25.563061
181,9.838573,-0.055283,0.020398,0.037804,0.051454,-0.037052,-25.424524,-89.578026,25.293768
182,9.840678,-0.049030,0.026449,0.037804,0.052979,-0.026371,-25.192789,-89.578026,25.063311
183,9.845184,-0.043374,0.024228,0.042383,0.057557,-0.027897,-24.975058,-89.577103,24.846945
184,9.846250,-0.046351,0.028231,0.056116,0.049928,-0.030949,-24.751747,-89.575714,24.625248
185,9.843746,-0.048370,0.029275,0.068322,0.045350,-0.030949,-24.534372,-89.574333,24.409840
186,9.844451,-0.048641,0.022057,0.057641,0.040772,-0.043156,-24.301437,-89.573418,24.179247
187,9.841920,-0.052210,0.018042,0.050012,0.037720,-0.058415,-24.020521,-89.572960,23.899998
188,9.840929,-0.052674,0.020797,0.065271,0.042298,-0.053837,-23.717249,-89.572502,23.598669
189,9.835907,-0.049424,0.016601,0.068323,0.049928,-0.047734,-23.425505,-89.571587,23.309149
190,9.836851,-0.052811,0.012528,0.043908,0.048402,-0.061467,-23.113907,-89.571129,22.999468
191,9.833214,-0.058236,0.012354,0.043908,0.059083,-0.059941,-22.771080,-89.569763,22.658020
192,9.834163,-0.059831,0.014664,0.053063,0.063661,-0.055363,-22.429012,-89.568855,22.317650
193,9.833723,-0.059512,0.011522,0.046960,0.056031,-0.056889,-22.097685,-89.567947,21.987906
194,9.836085,-0.065982,0.012061,0.045433,0.051453,-0.046208,-21.796463,-89.566139,21.688343
195,9.842569,-0.065056,0.010369,0.036279,0.049927,-0.043156,-21.530323,-89.565689,21.423403
196,9.848252,-0.058788,0.009133,0.036279,0.051453,-0.050785,-21.256376,-89.565239,21.150522
197,9.845804,-0.055573,0.009443,0.027122,0.040772,-0.046208,-20.984644,-89.564339,20.879887
198,9.846961,-0.057033,0.013927,0.010337,0.048402,-0.040104,-20.737888,-89.562546,20.633869
199,9.843958,-0.047664,0.013490,0.004234,0.039246,-0.056889,-20.472549,-89.562096,20.368755
200,9.837652,-0.042084,0.013001,0.033226,0.056031,-0.049260,-20.183157,-89.560760,20.079914
201,9.835439,-0.040133,0.015006,0.036279,0.042298,-0.034000,-19.938864,-89.559868,19.836834
202,9.834406,-0.041331,0.012941,0.062218,0.048402,-0.044682,-19.710636,-89.559868,19.610249
203,9.836327,-0.045864,0.008767,0.083581,0.060609,-0.044682,-19.447098,-89.558540,19.349049
204,9.836542,-0.045963,0.010579,0.091211,0.074342,-0.035526,-19.184780,-89.556328,19.089659
205,9.840225,-0.039229,0.014729,0.069849,0.065187,-0.030948,-18.949326,-89.554565,18.856808
206,9.843096,-0.040905,0.016833,0.060693,0.065187,-0.034000,-18.725645,-89.552811,18.635426
207,9.845054,-0.036552,0.018185,0.039330,0.066713,-0.026371,-18.512510,-89.551064,18.423994
208,9.841681,-0.035914,0.018604,0.050012,0.046876,-0.029422,-18.322531,-89.549759,18.235430
209,9.845945,-0.041416,0.019297,0.069849,0.034668,-0.034000,-18.139191,-89.548889,18.054092
210,9.843169,-0.046951,0.017692,0.092739,0.017883,-0.053837,-17.925344,-89.547592,17.842878
211,9.837473,-0.044715,0.019873,0.094263,0.019409,-0.055363,-17.678667,-89.547592,17.599319
212,9.838347,-0.047952,0.020619,0.075953,0.017883,-0.061467,-17.417046,-89.548027,17.340559
213,9.839776,-0.048036,0.021369,0.057641,0.027039,-0.062993,-17.135622,-89.547592,17.061312
214,9.833896,-0.045138,0.018966,0.019493,0.036194,-0.073674,-16.819647,-89.547592,16.746649
215,9.839296,-0.054924,0.019808,0.007287,0.051454,-0.070622,-16.475178,-89.547157,16.402592
216,9.840817,-0.057595,0.016588,0.002707,0.052979,-0.070622,-16.128155,-89.546730,16.055851
217,9.841104,-0.060503,0.016238,0.027122,0.048402,-0.066045,-15.793484,-89.545433,15.721529
218,9.842986,-0.057560,0.015783,0.028648,0.042298,-0.069096,-15.468674,-89.544579,15.397708
219,9.844902,-0.059719,0.018113,0.045433,0.042298,-0.055363,-15.169578,-89.542862,15.099782
220,9.836644,-0.047917,0.013839,0.051537,0.045350,-0.041630,-14.924885,-89.541580,14.856748
221,9.838882,-0.045890,0.014599,0.054591,0.043824,-0.037052,-14.717404,-89.540726,14.650975
222,9.840255,-0.046354,0.011250,0.027123,0.051454,-0.040104,-14.510946,-89.539452,14.445954
223,9.834754,-0.048544,0.012481,0.019493,0.060609,-0.024845,-14.322198,-89.538177,14.257894
224,9.833933,-0.047760,0.010415,-0.001870,0.062135,-0.030949,-14.148181,-89.536484,14.084218
225,9.840057,-0.055107,0.008494,-0.052226,0.062135,-0.046208,-13.933251,-89.534378,13.868391
226,9.834586,-0.059277,0.009609,-0.041544,0.071290,-0.049260,-13.679786,-89.532700,13.613289
227,9.836122,-0.058890,0.010841,0.001182,0.075868,-0.040104,-13.433108,-89.531860,13.365920
228,9.837708,-0.053613,0.012063,0.028648,0.071290,-0.062993,-13.160076,-89.529366,13.093390
229,9.837621,-0.048601,0.013256,0.065271,0.065187,-0.062993,-12.848088,-89.527702,12.782999
230,9.833692,-0.048512,0.019813,0.130886,0.057557,-0.047734,-12.572563,-89.525635,12.510705
231,9.838306,-0.049033,0.016041,0.120204,0.051454,-0.061467,-12.306775,-89.523987,12.249119
232,9.839297,-0.044116,0.017374,0.107997,0.048402,-0.076726,-11.990160,-89.522758,11.936329
233,9.838318,-0.053260,0.010989,0.072900,0.054505,-0.076726,-11.644809,-89.521118,11.593966
234,9.839127,-0.057566,0.008964,0.048485,0.056031,-0.072148,-11.308052,-89.520302,11.259251
235,9.842115,-0.061149,0.004567,0.033226,0.062135,-0.078252,-10.968009,-89.518677,10.920461
236,9.841465,-0.059633,0.006722,0.045433,0.069765,-0.055363,-10.657605,-89.517456,10.611423
237,9.835114,-0.060101,0.006969,0.028649,0.068239,-0.038578,-10.424220,-89.515030,10.379270
238,9.840502,-0.055197,0.011033,0.033226,0.062135,-0.024845,-10.254708,-89.514221,10.210732
239,9.839218,-0.052927,0.006305,0.053064,0.069765,-0.017215,-10.126400,-89.511810,10.083875
240,9.839641,-0.045665,0.011599,0.050012,0.062135,-0.017215,-10.013507,-89.509811,9.972774
241,9.838119,-0.041375,0.013249,0.053063,0.052979,-0.030949,-9.881062,-89.508217,9.842046
242,9.837996,-0.039180,0.011193,0.077478,0.054505,-0.034001,-9.719679,-89.506630,9.682823
243,9.833946,-0.041928,0.012090,0.097315,0.057557,-0.034001,-9.551230,-89.505043,9.517252
244,9.834532,-0.045723,0.016930,0.077478,0.056031,-0.047734,-9.357236,-89.502678,9.326136
245,9.830240,-0.050731,0.011681,0.075953,0.062135,-0.046208,-9.140683,-89.501495,9.112115
246,9.835204,-0.055978,0.013470,0.068323,0.063661,-0.043156,-8.931988,-89.499542,8.905807
247,9.835458,-0.058061,0.014563,0.053063,0.054505,-0.044682,-8.730232,-89.497589,8.706069
248,9.837739,-0.051371,0.016157,0.034752,0.046876,-0.044682,-8.532203,-89.496033,8.509511
249,9.840224,-0.046339,0.013419,0.043908,0.056031,-0.038578,-8.346584,-89.494484,8.325216
250,9.841831,-0.038469,0.019095,0.057641,0.060609,-0.034000,-8.177914,-89.492935,8.158245
251,9.837949,-0.042046,0.017466,0.075953,0.059083,-0.034000,-8.017572,-89.491394,8.000128
252,9.844266,-0.039251,0.017213,0.062220,0.059083,-0.035526,-7.855775,-89.489479,7.840631
253,9.844329,-0.035060,0.017084,0.050012,0.065187,-0.053837,-7.657487,-89.487946,7.644166
254,9.843541,-0.032960,0.019837,0.045434,0.045350,-0.055363,-7.427588,-89.486038,7.415865
255,9.841661,-0.037352,0.012943,0.027122,0.039246,-0.069097,-7.177431,-89.484894,7.166931
256,9.840466,-0.030151,0.013990,0.019493,0.046876,-0.058415,-6.922978,-89.483757,6.913227
257,9.831265,-0.030162,0.020452,0.030174,0.049927,-0.058415,-6.686806,-89.481865,6.677859
258,9.830058,-0.036482,0.018877,0.056116,0.039246,-0.040104,-6.486349,-89.480362,6.478810
259,9.827908,-0.041380,0.023308,0.037804,0.045350,-0.044682,-6.312786,-89.479607,6.306826
260,9.828699,-0.037180,0.022469,0.030174,0.042298,-0.032474,-6.153708,-89.478477,6.148861
261,9.831223,-0.033554,0.018289,0.019493,0.030090,-0.030949,-6.023597,-89.477356,6.019602
263,9.834393,-0.037280,0.009798,0.022545,0.031616,-0.035526,-5.890611,-89.476234,5.887302
264,9.834512,-0.040629,0.013182,0.019493,0.048402,-0.040104,-5.738117,-89.475113,5.735495
265,9.839685,-0.038345,0.009535,0.056116,0.048402,-0.037052,-5.580081,-89.473625,5.578700
266,9.842976,-0.047787,0.015280,0.066798,0.057557,-0.032474,-5.434269,-89.471771,5.434949
267,9.843365,-0.054613,0.020002,0.060693,0.074342,-0.047733,-5.265881,-89.469551,5.268661
268,9.843724,-0.055068,0.020491,0.059167,0.081972,-0.043156,-5.075927,-89.467339,5.080715
269,9.844810,-0.050660,0.015560,0.054589,0.078920,-0.032474,-4.914248,-89.464409,4.920943
270,9.840034,-0.050065,0.013664,0.036279,0.078920,-0.035526,-4.768523,-89.462952,4.776718
271,9.835823,-0.045861,0.010445,0.050012,0.077394,-0.043156,-4.605525,-89.460411,4.615171
272,9.833934,-0.045218,0.007758,0.062220,0.069764,-0.052311,-4.415342,-89.457153,4.426840
273,9.834656,-0.043934,0.006323,0.065271,0.052979,-0.053837,-4.211053,-89.455353,4.224657
274,9.832913,-0.040583,0.007489,0.068323,0.043824,-0.050785,-4.014004,-89.454277,4.029819
275,9.831992,-0.045127,0.009410,0.068323,0.039246,-0.044681,-3.835425,-89.453560,3.853526
276,9.835913,-0.042608,0.009355,0.063745,0.036194,-0.046208,-3.666542,-89.452484,3.686830
277,9.837873,-0.052015,0.007242,0.065271,0.039246,-0.030948,-3.522231,-89.451416,3.544657
278,9.838123,-0.053171,0.007731,0.074427,0.049928,-0.034000,-3.398070,-89.449638,3.422813
279,9.841564,-0.060198,0.008773,0.066798,0.052979,-0.049260,-3.241553,-89.447861,3.268640
280,9.845775,-0.054750,0.010766,0.071374,0.059083,-0.059941,-3.040597,-89.446449,3.069975
281,9.842340,-0.058071,0.011193,0.054589,0.052979,-0.059941,-2.822743,-89.444328,2.854211
282,9.843393,-0.050466,0.013847,0.043908,0.043824,-0.072149,-2.587057,-89.442574,2.620158
283,9.842203,-0.050724,0.013464,0.031701,0.040772,-0.055364,-2.361695,-89.441170,2.396049
284,9.838777,-0.045553,0.013270,0.046959,0.042298,-0.044682,-2.184206,-89.439766,2.219866
285,9.833574,-0.050310,0.012945,0.053063,0.045350,-0.043156,-2.027677,-89.438721,2.064997
286,9.835214,-0.045059,0.010433,0.053063,0.051454,-0.034000,-1.889408,-89.437332,1.928480
287,9.835877,-0.042476,0.011765,0.054589,0.057557,-0.020267,-1.789899,-89.435249,1.830761
288,9.838394,-0.047282,0.016642,0.053063,0.062135,-0.024845,-1.705871,-89.433174,1.748534
289,9.837000,-0.045828,0.012034,0.016441,0.069765,-0.038578,-1.591787,-89.430763,1.635603
290,9.835962,-0.045637,0.008881,-0.004922,0.075868,-0.027897,-1.473830,-89.428017,1.517825
291,9.832299,-0.045673,0.013635,0.011864,0.066713,-0.021793,-1.384987,-89.425972,1.429096
292,9.825263,-0.042703,0.008077,0.011864,0.066713,-0.024845,-1.301994,-89.423927,1.346496
293,9.822877,-0.039056,0.003567,0.010337,0.057557,-0.040104,-1.189729,-89.421219,1.234595
294,9.828753,-0.044031,0.008505,0.027122,0.037720,-0.037052,-1.058824,-89.420204,1.104304
295,9.830800,-0.045731,0.009510,0.036279,0.023987,-0.037052,-0.934083,-89.419525,0.980614
296,9.836157,-0.055033,0.013003,0.034752,0.027039,-0.049260,-0.789854,-89.418518,0.837564
297,9.841314,-0.058750,0.016599,0.037804,0.027039,-0.047734,-0.628447,-89.417511,0.677359
298,9.844155,-0.059718,0.020148,0.028648,0.031616,-0.041630,-0.480058,-89.416504,0.530069
299,9.838553,-0.052615,0.019187,0.034752,0.039246,-0.032474,-0.357013,-89.415497,0.408075
300,9.839458,-0.049450,0.019920,0.045433,0.033142,-0.030948,-0.251578,-89.414162,0.303971
301,9.841910,-0.047583,0.014055,0.050012,0.048402,-0.024845,-0.158687,-89.413826,0.212666
302,9.839988,-0.048310,0.015106,0.062220,0.054505,-0.023319,-0.078267,-89.411827,0.134113
303,9.842154,-0.047580,0.013818,0.071374,0.052980,-0.026371,0.004512,-89.409500,0.053555
304,9.844213,-0.053969,0.010134,0.071374,0.060609,-0.037052,0.109062,-89.408180,-0.048621
305,9.845851,-0.055134,0.005707,0.065270,0.071291,-0.032474,0.222538,-89.405540,-0.159826
306,9.843746,-0.048899,0.004209,0.039330,0.065187,-0.047734,0.351694,-89.402908,-0.287244
307,9.844760,-0.048038,0.007961,0.028648,0.068239,-0.049260,0.506039,-89.400620,-0.440467
308,9.841851,-0.043916,0.006091,0.016441,0.071291,-0.047734,0.658755,-89.398666,-0.592439
309,9.843837,-0.039284,0.013710,0.025597,0.065187,-0.037052,0.791001,-89.396065,-0.723990
310,9.840968,-0.043850,0.017645,0.027123,0.065187,-0.044682,0.917784,-89.394127,-0.849899
311,9.839130,-0.042940,0.019538,0.045434,0.054505,-0.027897,1.029910,-89.391869,-0.960824
312,9.837349,-0.039746,0.015160,0.025597,0.039246,-0.034000,1.125366,-89.390266,-1.055098
313,9.836485,-0.045126,0.013830,0.053063,0.045350,-0.018741,1.206471,-89.389305,-1.134898
314,9.830597,-0.053380,0.014585,0.060693,0.042298,-0.020267,1.266273,-89.388023,-1.192810
315,9.836045,-0.050817,0.016727,0.057641,0.037720,-0.020267,1.328507,-89.386429,-1.253078
316,9.838238,-0.056225,0.019671,0.050012,0.033142,-0.026371,1.400120,-89.385468,-1.322896
317,9.841909,-0.053591,0.020214,0.074427,0.033142,-0.005008,1.448261,-89.383881,-1.368969
318,9.842972,-0.051136,0.018902,0.068323,0.019409,-0.017215,1.482961,-89.382927,-1.401294
319,9.844515,-0.050814,0.011096,0.045434,0.025513,-0.021793,1.543311,-89.382614,-1.459747
320,9.837766,-0.054565,0.008933,0.051537,0.022461,-0.017215,1.603110,-89.381660,-1.517937
321,9.835401,-0.056707,0.008775,0.051537,0.034669,-0.014163,1.650693,-89.380714,-1.563800
322,9.835401,-0.060465,0.004083,0.039330,0.036194,-0.040104,1.732465,-89.379135,-1.644058
323,9.837935,-0.060712,0.011601,0.031701,0.045350,-0.044682,1.859893,-89.378502,-1.770316
324,9.836049,-0.056311,0.013486,0.042383,0.051454,-0.040104,1.985986,-89.376930,-1.895179
325,9.837568,-0.053490,0.013387,0.042383,0.062135,-0.040104,2.103646,-89.374115,-2.011432
326,9.839868,-0.049875,0.008238,0.050012,0.060609,-0.035526,2.213245,-89.372551,-2.119494
327,9.836907,-0.051105,0.006861,0.065270,0.066713,-0.026371,2.301436,-89.370064,-2.205765
328,9.831803,-0.052960,0.005085,0.065270,0.066713,-0.020267,2.365843,-89.367577,-2.268021
329,9.835523,-0.047977,0.008396,0.054589,0.066713,-0.029422,2.434220,-89.365417,-2.334401
330,9.840462,-0.043560,0.010765,0.051537,0.060609,-0.034000,2.522888,-89.363266,-2.421304
331,9.839599,-0.044719,0.013645,0.062220,0.062135,-0.053837,2.647841,-89.361115,-2.544368
332,9.842492,-0.042995,0.019237,0.053063,0.057557,-0.059941,2.810814,-89.358978,-2.705420
333,9.844475,-0.038769,0.018902,0.051537,0.052980,-0.059941,2.982307,-89.357147,-2.875186
334,9.843976,-0.045417,0.018426,0.060693,0.049928,-0.046208,3.133194,-89.355324,-3.024217
335,9.839381,-0.041554,0.017370,0.054589,0.049928,-0.053837,3.274569,-89.353203,-3.163668
336,9.836880,-0.037503,0.020690,0.045433,0.049928,-0.037052,3.401488,-89.351990,-3.288930
337,9.831463,-0.040599,0.025419,0.031701,0.049928,-0.023319,3.482625,-89.350487,-3.368783
338,9.833413,-0.043120,0.025701,0.039330,0.060609,-0.027897,3.548849,-89.348679,-3.433822
339,9.832273,-0.042940,0.021341,0.037804,0.059083,-0.040104,3.638402,-89.346581,-3.522094
340,9.833952,-0.042332,0.020647,0.042383,0.068239,-0.041630,3.746669,-89.344193,-3.629034
341,9.832784,-0.052368,0.020046,0.045434,0.069764,-0.056889,3.877562,-89.342102,-3.758477
342,9.828864,-0.044371,0.009472,0.062220,0.074342,-0.072148,4.051200,-89.339134,-3.930326
343,9.826266,-0.045133,0.007378,0.062220,0.069764,-0.064519,4.234691,-89.336182,-4.111776
344,9.829544,-0.046187,0.014068,0.071374,0.071290,-0.066045,4.408613,-89.334122,-4.283481
345,9.830109,-0.049224,0.011072,0.057641,0.063661,-0.062993,4.579643,-89.331482,-4.452373
346,9.832585,-0.047192,0.011956,0.051537,0.062135,-0.052311,4.730729,-89.329147,-4.601644
347,9.840194,-0.056555,0.017297,0.051537,0.063661,-0.043156,4.852673,-89.327103,-4.721866
348,9.842275,-0.049427,0.015632,0.053063,0.062135,-0.044682,4.963097,-89.324783,-4.830567
349,9.840090,-0.047952,0.016071,0.039330,0.057557,-0.034000,5.060539,-89.322762,-4.926459
350,9.843365,-0.055075,0.020485,0.039330,0.060609,-0.029423,5.135982,-89.321030,-5.000599
351,9.842155,-0.051279,0.017442,0.054589,0.063661,-0.032474,5.208315,-89.318726,-5.071377
352,9.841515,-0.048843,0.017907,0.045434,0.062135,-0.043156,5.299181,-89.316719,-5.160566
353,9.841645,-0.051273,0.019602,0.017968,0.057557,-0.047733,5.410838,-89.314713,-5.271185
354,9.847635,-0.054686,0.014777,0.005760,0.066713,-0.050785,5.531034,-89.312431,-5.391002
355,9.841095,-0.051655,0.016459,0.014915,0.065187,-0.049259,5.651502,-89.309875,-5.511143
356,9.843197,-0.055461,0.015783,0.005760,0.065187,-0.050785,5.771324,-89.307617,-5.630638
357,9.842106,-0.051716,0.021419,0.004234,0.068239,-0.040104,5.877256,-89.305077,-5.736388
358,9.841347,-0.052811,0.016828,0.027122,0.080446,-0.038578,5.964078,-89.302826,-5.822696
359,9.835980,-0.044661,0.015146,0.043908,0.081972,-0.043156,6.053043,-89.299744,-5.910497
360,9.837923,-0.044752,0.013494,0.062220,0.080446,-0.035526,6.137785,-89.297234,-5.993465
361,9.837100,-0.037435,0.013463,0.050012,0.072816,-0.043156,6.223246,-89.293900,-6.077053
362,9.837218,-0.043155,0.010826,0.046959,0.065187,-0.043156,6.320310,-89.291138,-6.172500
363,9.834182,-0.046890,0.017408,0.053063,0.062135,-0.046208,6.422465,-89.289207,-6.273019
364,9.833799,-0.045499,0.017639,0.066798,0.051453,-0.037052,6.518205,-89.286736,-6.366796
366,9.833995,-0.041891,0.017152,0.051537,0.049928,-0.040104,6.607264,-89.285362,-6.453883
367,9.834450,-0.047016,0.015485,0.056116,0.056031,-0.029423,6.684839,-89.283447,-6.529662
368,9.836264,-0.051210,0.010104,0.063745,0.054505,-0.034000,6.753485,-89.281540,-6.596304
369,9.838574,-0.057370,0.005339,0.045434,0.049928,-0.027897,6.820452,-89.279633,-6.661445
370,9.839087,-0.062693,0.008373,0.031701,0.056031,-0.037052,6.890365,-89.277466,-6.730093
371,9.838294,-0.063078,0.005467,0.039330,0.054505,-0.044682,6.981061,-89.275841,-6.819600
372,9.836223,-0.058647,0.011927,0.051537,0.037720,-0.041630,7.080480,-89.273956,-6.917509
373,9.839171,-0.054115,0.019322,0.063745,0.048402,-0.037052,7.171014,-89.272873,-7.006126
374,9.839107,-0.051425,0.021243,0.083582,0.045350,-0.037052,7.254416,-89.271263,-7.087086
375,9.838900,-0.051214,0.018708,0.083582,0.037720,-0.038578,7.341479,-89.269653,-7.171384
376,9.837632,-0.052420,0.016278,0.077478,0.051454,-0.043156,7.435040,-89.268051,-7.262249
377,9.835779,-0.053181,0.012389,0.068322,0.063661,-0.050786,7.539097,-89.265381,-7.363907
378,9.832028,-0.050868,0.004001,0.045433,0.059083,-0.058415,7.660472,-89.263786,-7.483380
379,9.831545,-0.047694,0.009649,0.043908,0.056031,-0.061467,7.795709,-89.261658,-7.617121
380,9.829541,-0.043529,0.011532,0.060693,0.051454,-0.061467,7.935503,-89.258751,-7.755213
381,9.828620,-0.037087,0.019455,0.045434,0.042298,-0.061467,8.077177,-89.257172,-7.895123
382,9.832141,-0.034325,0.022043,0.039330,0.039246,-0.073674,8.235518,-89.255852,-8.052059
383,9.830509,-0.038424,0.022866,0.034752,0.031616,-0.081304,8.419972,-89.254013,-8.235300
384,9.832320,-0.034929,0.018432,0.025597,0.033142,-0.082830,8.616295,-89.252441,-8.430635
385,9.835894,-0.040458,0.017063,0.007287,0.033142,-0.084356,8.814881,-89.251137,-8.628691
386,9.838156,-0.043011,0.012169,0.002707,0.040772,-0.084356,9.012661,-89.249565,-8.826310
387,9.837508,-0.047336,0.011444,0.017968,0.051454,-0.058415,9.173553,-89.247482,-8.986892
388,9.837747,-0.046752,0.010965,0.059167,0.062135,-0.049259,9.286412,-89.245407,-9.098454
389,9.832686,-0.041750,0.007728,0.060693,0.072816,-0.049259,9.383507,-89.242821,-9.193553
390,9.830885,-0.040511,0.006729,0.063745,0.085024,-0.056889,9.484792,-89.239723,-9.292773
391,9.836182,-0.043774,0.008399,0.091211,0.078920,-0.052311,9.588338,-89.236641,-9.393765
392,9.836325,-0.046325,0.009371,0.083582,0.069764,-0.059941,9.698336,-89.234085,-9.500851
393,9.835492,-0.041892,0.012961,0.057641,0.069764,-0.062992,9.822039,-89.231277,-9.622194
394,9.837129,-0.054497,0.020129,0.071374,0.059083,-0.056889,9.943172,-89.228737,-9.741209
395,9.841585,-0.055349,0.019489,0.066798,0.065187,-0.053837,10.053708,-89.226707,-9.849429
396,9.837528,-0.059887,0.014123,0.053063,0.057557,-0.052311,10.157960,-89.224434,-9.951704
397,9.841172,-0.060651,0.011539,0.046960,0.059083,-0.056889,10.266348,-89.222420,-10.058436
398,9.843493,-0.061439,0.009173,0.059167,0.045350,-0.041630,10.363976,-89.220909,-10.154304
399,9.844413,-0.053251,0.012305,0.036279,0.052979,-0.058415,10.464081,-89.218155,-10.252827
400,9.841490,-0.050047,0.012365,0.039330,0.054505,-0.044682,10.565115,-89.216400,-10.352597
401,9.841011,-0.044564,0.015357,0.062220,0.066713,-0.043156,10.644692,-89.213913,-10.430483
402,9.835795,-0.038622,0.013683,0.060693,0.066713,-0.040104,10.715993,-89.211670,-10.499743
403,9.837601,-0.036512,0.011060,0.039330,0.077394,-0.046208,10.787659,-89.208946,-10.569740
404,9.838583,-0.034078,0.006974,0.024072,0.077394,-0.034000,10.848643,-89.206474,-10.629687
405,9.836506,-0.038087,0.005258,0.011864,0.072817,-0.037052,10.899059,-89.203773,-10.679498
406,9.832494,-0.037964,0.000606,-0.000344,0.063661,-0.038578,10.957092,-89.201317,-10.737372
407,9.834939,-0.046439,-0.002826,-0.003396,0.066713,-0.044682,11.024845,-89.198868,-10.805214
408,9.833135,-0.055429,-0.001875,0.016441,0.066713,-0.047734,11.102425,-89.196190,-10.882582
409,9.837379,-0.061329,-0.007931,0.043908,0.063661,-0.041630,11.177496,-89.193756,-10.956676
410,9.837159,-0.062268,-0.008415,0.051537,0.063661,-0.041630,11.246370,-89.191330,-11.023958
411,9.840856,-0.063921,-0.005331,0.048485,0.062135,-0.032474,11.304686,-89.188919,-11.080601
412,9.839115,-0.060802,-0.004044,0.069849,0.066713,-0.018741,11.336011,-89.186752,-11.109938
413,9.836823,-0.051994,-0.003262,0.077478,0.065187,-0.017215,11.349317,-89.184105,-11.120776
414,9.830013,-0.054330,-0.002657,0.072900,0.069765,-0.027897,11.372564,-89.182426,-11.141516
415,9.829113,-0.057783,0.005168,0.095789,0.059083,-0.029423,11.411131,-89.179565,-11.177297
416,9.829059,-0.063364,0.006143,0.111049,0.056031,-0.041630,11.468983,-89.177177,-11.231673
417,9.832172,-0.065153,0.008132,0.092737,0.048402,-0.052311,11.554981,-89.175514,-11.314319
418,9.837633,-0.069822,0.008121,0.056116,0.049928,-0.066045,11.668558,-89.173622,-11.425451
419,9.836935,-0.067820,0.013165,0.048485,0.045350,-0.056889,11.786916,-89.171967,-11.542077
420,9.836338,-0.064366,0.009531,0.027122,0.057557,-0.056889,11.892056,-89.169609,-11.645945
421,9.834892,-0.055314,0.009485,-0.011025,0.066713,-0.058415,11.992216,-89.167015,-11.745831
422,9.840484,-0.053223,0.010426,0.004234,0.071290,-0.047734,12.078062,-89.164673,-11.831802
423,9.834106,-0.050211,0.009098,0.025597,0.077394,-0.034000,12.134163,-89.162102,-11.887419
424,9.836223,-0.045296,0.007077,0.019493,0.088075,-0.037052,12.174268,-89.159302,-11.926784
425,9.837010,-0.042713,0.008170,0.014915,0.081972,-0.044682,12.224652,-89.156281,-11.976563
426,9.839975,-0.049174,0.008359,0.042383,0.080446,-0.034000,12.273496,-89.153275,-12.024484
427,9.831683,-0.046314,0.006997,0.027122,0.072816,-0.040104,12.319386,-89.150269,-12.069203
428,9.834339,-0.049279,0.008618,0.016441,0.054505,-0.035526,12.372437,-89.147972,-12.121545
429,9.835027,-0.055204,0.008282,0.002708,0.045350,-0.040104,12.431413,-89.145905,-12.180204
430,9.839169,-0.060361,0.008730,-0.004922,0.042298,-0.029422,12.486008,-89.144302,-12.234866
431,9.836763,-0.060518,0.009410,0.002708,0.034668,-0.040104,12.543065,-89.142708,-12.291987
