seq,ax,ay,az,wroll,wpitch,wyaw,roll,pitch,yaw,q0,q1,q2,q3
3982,0.027535,-7.094705,6.694664,-0.253648,0.435987,0.062133,-46.661728,-0.161729,0.171392,0.918232,-0.396037,-0.001888,0.000814
3984,0.020651,-7.110690,6.682652,-0.291892,0.413121,0.071313,-46.670677,-0.150757,0.163237,0.918201,-0.396109,-0.001772,0.000787
3985,0.021844,-7.111936,6.684363,-0.145587,0.390267,0.053040,-46.679787,-0.139537,0.154923,0.918170,-0.396183,-0.001654,0.000759
3986,0.010037,-7.099008,6.684120,0.075548,0.341496,0.025637,-46.682175,-0.129357,0.146953,0.918162,-0.396202,-0.001545,0.000730
3987,0.008162,-7.098079,6.688663,0.220458,-0.056677,0.034890,-46.677761,-0.124016,0.144193,0.918177,-0.396167,-0.001492,0.000727
3988,0.012900,-7.098369,6.684412,0.263133,-0.285492,0.027340,-46.670223,-0.126094,0.149055,0.918203,-0.396106,-0.001526,0.000758
3989,0.015060,-7.086535,6.689487,0.305840,-0.299176,0.015184,-46.660942,-0.131551,0.156629,0.918235,-0.396032,-0.001595,0.000800
3991,0.018954,-7.079497,6.686770,0.127345,-0.486832,0.068627,-46.653362,-0.139047,0.167115,0.918261,-0.395971,-0.001692,0.000859
3992,0.033670,-7.090939,6.691762,-0.093896,-0.543313,0.115908,-46.652668,-0.148919,0.181711,0.918263,-0.395965,-0.001821,0.000942
3993,0.042544,-7.089271,6.689871,-0.220559,-0.207702,0.109707,-46.658051,-0.156108,0.193395,0.918245,-0.396008,-0.001919,0.001010
3994,0.041426,-7.087308,6.690691,-0.254129,-0.000284,0.100436,-46.665966,-0.157511,0.198321,0.918217,-0.396071,-0.001948,0.001045
3995,0.037883,-7.097632,6.688720,-0.150386,0.037777,0.097292,-46.672909,-0.155956,0.200128,0.918193,-0.396127,-0.001941,0.001064
3996,0.041812,-7.090665,6.692151,0.014401,0.239110,0.057524,-46.675312,-0.152202,0.198542,0.918185,-0.396146,-0.001906,0.001065
3998,0.045593,-7.091321,6.688244,0.035778,0.335127,0.040614,-46.674309,-0.146158,0.192702,0.918188,-0.396138,-0.001837,0.001039
3999,0.042206,-7.090560,6.689627,-0.009994,0.365520,0.048113,-46.673805,-0.138884,0.185221,0.918190,-0.396134,-0.001753,0.001004
4000,0.044212,-7.095767,6.688590,-0.042047,0.371497,0.057134,-46.674744,-0.131036,0.177489,0.918187,-0.396142,-0.001664,0.000969
4001,0.049481,-7.093817,6.686994,-0.078698,0.378966,0.055436,-46.677021,-0.123428,0.169678,0.918179,-0.396161,-0.001576,0.000933
4002,0.050018,-7.105915,6.686549,-0.156588,0.378778,0.056764,-46.681602,-0.116154,0.161775,0.918164,-0.396197,-0.001490,0.000895
4003,0.046435,-7.101075,6.689245,-0.048325,0.383168,0.044357,-46.685776,-0.108940,0.153693,0.918149,-0.396231,-0.001404,0.000855
4005,0.044267,-7.100417,6.689324,0.090492,0.390622,0.022808,-46.685482,-0.101841,0.145078,0.918150,-0.396229,-0.001318,0.000810
4006,0.041208,-7.091484,6.693347,0.140856,0.387403,0.002794,-46.681522,-0.095063,0.135936,0.918164,-0.396197,-0.001232,0.000761
4007,0.035593,-7.089403,6.689866,0.082913,0.375051,0.005692,-46.677345,-0.088362,0.126787,0.918179,-0.396164,-0.001146,0.000710
4008,0.032061,-7.077824,6.690740,0.078408,0.376455,0.000984,-46.673923,-0.081474,0.117751,0.918191,-0.396137,-0.001060,0.000662
4009,0.029338,-7.074249,6.693214,0.125842,0.365663,-0.009814,-46.669212,-0.074688,0.108650,0.918207,-0.396099,-0.000974,0.000612
4010,0.029744,-7.072008,6.696229,0.100064,0.368606,-0.009930,-46.663803,-0.068125,0.099521,0.918226,-0.396056,-0.000890,0.000562
4012,0.032765,-7.078496,6.692442,0.107830,0.371529,-0.007015,-46.658966,-0.061738,0.090353,0.918242,-0.396017,-0.000807,0.000511
4013,0.038961,-7.077837,6.703038,0.144585,0.368311,-0.014821,-46.653427,-0.055972,0.081134,0.918262,-0.395973,-0.000729,0.000457
4014,0.039597,-7.083221,6.697277,0.143184,0.372692,-0.018081,-46.647373,-0.050759,0.071776,0.918283,-0.395925,-0.000655,0.000400
4015,0.044404,-7.082674,6.695916,0.138680,0.377049,-0.004583,-46.641930,-0.045681,0.062430,0.918301,-0.395881,-0.000582,0.000342
4016,0.050341,-7.079298,6.696498,0.103658,0.364577,0.008871,-46.637138,-0.040980,0.053491,0.918318,-0.395843,-0.000513,0.000287
4017,0.056759,-7.078109,6.699264,0.012196,0.364266,0.026854,-46.634274,-0.036732,0.045068,0.918328,-0.395820,-0.000450,0.000234
4019,0.055551,-7.080499,6.693824,0.038210,0.366985,0.024975,-46.632687,-0.032590,0.036800,0.918334,-0.395807,-0.000388,0.000182
4020,0.051553,-7.079799,6.704596,0.116115,0.349880,0.033790,-46.629280,-0.028343,0.028787,0.918345,-0.395780,-0.000327,0.000133
4021,0.053214,-7.079759,6.705832,0.128447,0.352614,0.022774,-46.623951,-0.024239,0.020922,0.918364,-0.395737,-0.000267,0.000084
4022,0.049837,-7.079465,6.706975,0.230811,0.352298,-0.012657,-46.616695,-0.020654,0.012498,0.918389,-0.395679,-0.000209,0.000029
4023,0.043524,-7.077810,6.710954,0.340818,0.338276,-0.034325,-46.605759,-0.017513,0.003595,0.918427,-0.395592,-0.000153,-0.000032
4024,0.041459,-7.068298,6.711860,0.333368,0.333435,-0.043761,-46.592716,-0.014610,-0.005435,0.918472,-0.395487,-0.000098,-0.000094
4026,0.048728,-7.071436,6.709588,0.295398,0.323994,-0.039484,-46.580463,-0.012237,-0.014349,0.918514,-0.395389,-0.000049,-0.000157
4027,0.048263,-7.076422,6.713568,0.280274,0.306898,-0.036761,-46.569508,-0.010458,-0.022860,0.918552,-0.395301,-0.000005,-0.000219
4028,0.044929,-7.074123,6.718202,0.260574,0.305071,-0.015716,-46.559120,-0.008452,-0.030869,0.918587,-0.395218,0.000039,-0.000277
4029,0.048302,-7.075109,6.718024,0.182891,0.306294,-0.009933,-46.550335,-0.006161,-0.038562,0.918618,-0.395147,0.000084,-0.000330
4030,0.045617,-7.081668,6.719436,0.091437,0.301409,0.009579,-46.544739,-0.003673,-0.045919,0.918637,-0.395103,0.000129,-0.000381
4031,0.040415,-7.085732,6.718387,0.047241,0.313332,0.009280,-46.541870,-0.000523,-0.053141,0.918647,-0.395079,0.000179,-0.000428
4033,0.037714,-7.080318,6.717482,0.006089,0.317650,0.010531,-46.540512,0.003164,-0.060547,0.918652,-0.395069,0.000234,-0.000474
4034,0.037592,-7.084078,6.712909,-0.076283,0.303662,0.014840,-46.541393,0.006888,-0.067773,0.918648,-0.395076,0.000289,-0.000520
4035,0.036812,-7.086088,6.710730,-0.108341,0.300354,0.040511,-46.544613,0.010758,-0.074446,0.918637,-0.395101,0.000343,-0.000560
4036,0.037737,-7.087209,6.714244,-0.079365,0.290937,0.029555,-46.547916,0.014589,-0.080797,0.918626,-0.395128,0.000396,-0.000597
4037,0.037572,-7.078229,6.716993,-0.076277,0.292195,0.024694,-46.550140,0.018035,-0.087230,0.918618,-0.395146,0.000445,-0.000637
4038,0.039260,-7.079128,6.717146,-0.044153,0.296495,0.018297,-46.551357,0.021271,-0.093860,0.918614,-0.395155,0.000494,-0.000679
4040,0.038342,-7.075638,6.719291,0.018509,0.302316,0.017998,-46.550789,0.024449,-0.100689,0.918616,-0.395151,0.000543,-0.000723
4041,0.035107,-7.070554,6.722596,0.056805,0.302042,-0.002128,-46.548069,0.027593,-0.107819,0.918625,-0.395129,0.000593,-0.000769
4042,0.038818,-7.063949,6.724818,0.098209,0.312445,-0.005474,-46.543449,0.030493,-0.115340,0.918641,-0.395092,0.000642,-0.000820
4043,0.039639,-7.070457,6.724124,0.125880,0.315199,-0.014944,-46.537682,0.033117,-0.123166,0.918661,-0.395045,0.000690,-0.000873
4044,0.038585,-7.072454,6.724350,0.113837,0.307269,-0.012208,-46.532043,0.035568,-0.131007,0.918680,-0.395000,0.000737,-0.000928
4045,0.042199,-7.066325,6.725487,0.020929,0.306958,0.001196,-46.528061,0.037952,-0.138562,0.918694,-0.394968,0.000782,-0.000980
4047,0.042393,-7.064795,6.727174,0.024183,0.302054,0.003903,-46.525303,0.040245,-0.145869,0.918703,-0.394946,0.000825,-0.001031
4048,0.040959,-7.064478,6.726545,0.048804,0.294098,0.005086,-46.522026,0.042458,-0.152974,0.918715,-0.394920,0.000868,-0.001080
4049,0.040559,-7.063772,6.728705,0.036806,0.275465,0.018481,-46.518501,0.044596,-0.159591,0.918727,-0.394891,0.000908,-0.001126
4050,0.040015,-7.065251,6.734845,-0.017896,0.279722,0.027297,-46.515873,0.046849,-0.165778,0.918736,-0.394870,0.000947,-0.001168
4051,0.045614,-7.077153,6.732201,-0.010073,0.283958,0.014731,-46.514416,0.048874,-0.172111,0.918741,-0.394858,0.000985,-0.001211
4052,0.042614,-7.073856,6.729126,-0.052658,0.285132,0.026569,-46.514061,0.050789,-0.178518,0.918742,-0.394855,0.001022,-0.001256
4054,0.045704,-7.077775,6.726419,-0.122735,0.280201,0.039928,-46.515827,0.052928,-0.184591,0.918736,-0.394870,0.001060,-0.001298
4055,0.046679,-7.074236,6.730286,-0.090570,0.285934,0.041063,-46.518181,0.055018,-0.190507,0.918728,-0.394888,0.001098,-0.001338
4056,0.051074,-7.082345,6.724237,-0.079787,0.284017,0.037600,-46.520020,0.056827,-0.196496,0.918721,-0.394903,0.001133,-0.001380
4057,0.042168,-7.072032,6.724896,-0.085799,0.279062,0.035675,-46.521858,0.058679,-0.202465,0.918715,-0.394918,0.001168,-0.001421
4058,0.047631,-7.083697,6.723213,-0.087237,0.283270,0.047494,-46.523872,0.060779,-0.208311,0.918708,-0.394934,0.001205,-0.001461
4059,0.049398,-7.082839,6.724569,-0.036828,0.276772,0.037922,-46.525417,0.062495,-0.214104,0.918702,-0.394946,0.001239,-0.001501
4060,0.051809,-7.077138,6.717852,-0.067288,0.273309,0.034437,-46.526569,0.063701,-0.219926,0.918698,-0.394955,0.001269,-0.001544
4061,0.050514,-7.070758,6.718296,-0.117563,0.265262,0.041627,-46.528858,0.064737,-0.225567,0.918690,-0.394973,0.001296,-0.001585
4062,0.058644,-7.073890,6.714473,-0.119008,0.264821,0.054895,-46.531990,0.065569,-0.230871,0.918679,-0.394998,0.001321,-0.001625
4063,0.059129,-7.069316,6.717967,-0.096029,0.262823,0.046768,-46.534683,0.065997,-0.236087,0.918670,-0.395020,0.001343,-0.001665
4064,0.054587,-7.066519,6.714263,-0.112695,0.273047,0.043232,-46.536976,0.066564,-0.241535,0.918662,-0.395038,0.001366,-0.001707
4065,0.055774,-7.073255,6.713336,-0.054616,0.280228,0.032078,-46.538841,0.067309,-0.247364,0.918656,-0.395053,0.001392,-0.001751
4066,0.051646,-7.068915,6.712649,0.076696,0.276738,-0.003481,-46.537651,0.067665,-0.253773,0.918660,-0.395043,0.001417,-0.001801
4067,0.046580,-7.061537,6.716035,0.262991,0.271752,-0.032904,-46.530674,0.067577,-0.260823,0.918684,-0.394987,0.001441,-0.001858
4068,0.051742,-7.049766,6.720683,0.385284,0.265239,-0.054698,-46.517689,0.066730,-0.268321,0.918728,-0.394883,0.001460,-0.001921
4069,0.051255,-7.046359,6.726331,0.393204,0.261762,-0.047517,-46.501804,0.065371,-0.275864,0.918783,-0.394756,0.001474,-0.001987
4070,0.046883,-7.050518,6.726019,0.260731,0.255252,-0.025056,-46.488098,0.064516,-0.282945,0.918830,-0.394646,0.001492,-0.002047
4071,0.048467,-7.049516,6.731710,0.219798,0.256381,-0.004110,-46.477440,0.064281,-0.289461,0.918866,-0.394560,0.001512,-0.002100
4072,0.050835,-7.058994,6.734787,0.107128,0.254446,0.019874,-46.469517,0.064400,-0.295452,0.918894,-0.394497,0.001534,-0.002147
4073,0.045364,-7.069695,6.733988,-0.028506,0.255574,0.034714,-46.466480,0.065135,-0.300986,0.918904,-0.394472,0.001558,-0.002189
4074,0.047821,-7.073955,6.734042,-0.043656,0.252134,0.031254,-46.466587,0.066125,-0.306362,0.918903,-0.394473,0.001585,-0.002229
4075,0.049183,-7.068460,6.733934,-0.011498,0.254783,0.030831,-46.466389,0.066857,-0.311774,0.918904,-0.394471,0.001609,-0.002270
4076,0.044035,-7.076363,6.732894,-0.066331,0.258971,0.048732,-46.466698,0.068050,-0.317067,0.918903,-0.394474,0.001637,-0.002308
4077,0.043302,-7.077179,6.734690,-0.098303,0.261652,0.043764,-46.468712,0.069751,-0.322295,0.918896,-0.394490,0.001669,-0.002344
4078,0.042561,-7.081403,6.731914,-0.144027,0.259757,0.051006,-46.472210,0.071537,-0.327506,0.918884,-0.394518,0.001701,-0.002380
4079,0.037462,-7.079733,6.734831,-0.185175,0.268563,0.062844,-46.477192,0.073889,-0.332583,0.918867,-0.394558,0.001738,-0.002412
4080,0.041038,-7.089886,6.737931,-0.252264,0.268215,0.068581,-46.483982,0.076593,-0.337561,0.918843,-0.394612,0.001777,-0.002443
4081,0.051670,-7.085275,6.735945,-0.301049,0.266291,0.060533,-46.492748,0.078506,-0.342539,0.918813,-0.394682,0.001809,-0.002476
4082,0.050712,-7.082058,6.732666,-0.360493,0.271962,0.072284,-46.503117,0.079993,-0.347520,0.918777,-0.394765,0.001839,-0.002511
4083,0.053961,-7.080848,6.730553,-0.296325,0.279148,0.058084,-46.513271,0.081455,-0.352686,0.918742,-0.394846,0.001868,-0.002547
4084,0.054963,-7.078424,6.725022,-0.204690,0.274112,0.046918,-46.520824,0.082400,-0.358170,0.918716,-0.394907,0.001895,-0.002588
4085,0.053176,-7.064705,6.727490,-0.154195,0.276704,0.043385,-46.525429,0.083153,-0.363794,0.918700,-0.394944,0.001920,-0.002630
4086,0.048875,-7.065256,6.727052,-0.140261,0.280844,0.053603,-46.528336,0.084345,-0.369422,0.918690,-0.394967,0.001950,-0.002671
4087,0.045245,-7.065653,6.729879,-0.056123,0.277379,0.047064,-46.529495,0.085962,-0.375016,0.918685,-0.394976,0.001982,-0.002710
4088,0.044389,-7.060169,6.734070,-0.049761,0.280031,0.051221,-46.528694,0.087737,-0.380627,0.918688,-0.394969,0.002015,-0.002749
4089,0.048608,-7.067558,6.731270,-0.105964,0.285722,0.050786,-46.528732,0.089460,-0.386297,0.918688,-0.394969,0.002049,-0.002789
4090,0.048655,-7.070123,6.730554,-0.079814,0.280715,0.030496,-46.529736,0.090704,-0.392213,0.918684,-0.394977,0.002079,-0.002832
4091,0.050719,-7.068711,6.727213,-0.044525,0.272647,0.023931,-46.529892,0.091345,-0.398279,0.918683,-0.394978,0.002105,-0.002878
4092,0.054935,-7.073210,6.721756,-0.122195,0.284395,0.035654,-46.531162,0.091766,-0.404331,0.918679,-0.394989,0.002129,-0.002925
4093,0.053447,-7.068706,6.720755,-0.137324,0.290028,0.029054,-46.534195,0.092304,-0.410535,0.918668,-0.395013,0.002155,-0.002973
4094,0.054707,-7.066456,6.722701,-0.152422,0.286507,0.028559,-46.537437,0.092783,-0.416846,0.918657,-0.395039,0.002181,-0.003022
4095,0.052248,-7.067919,6.720008,-0.149205,0.305877,0.043326,-46.540825,0.093665,-0.423185,0.918645,-0.395066,0.002210,-0.003070
4096,0.046984,-7.069757,6.721122,-0.139897,0.306962,0.032180,-46.544113,0.095193,-0.429730,0.918634,-0.395092,0.002245,-0.003117
4097,0.045749,-7.068491,6.722423,-0.116841,0.298911,0.010373,-46.546741,0.096540,-0.436570,0.918624,-0.395113,0.002279,-0.003167
4098,0.041689,-7.067882,6.720660,-0.105984,0.280196,0.008421,-46.548710,0.097528,-0.443358,0.918617,-0.395128,0.002311,-0.003218
4099,0.038287,-7.064802,6.720833,-0.070701,0.275237,-0.002662,-46.549805,0.098431,-0.450009,0.918613,-0.395137,0.002341,-0.003268
4100,0.042662,-7.070528,6.722371,-0.026263,0.265696,-0.016801,-46.549568,0.098800,-0.456774,0.918614,-0.395135,0.002367,-0.003321
4101,0.047336,-7.064948,6.725336,0.060917,0.263754,-0.021818,-46.546982,0.098353,-0.463619,0.918623,-0.395114,0.002387,-0.003377
4102,0.047084,-7.057605,6.727364,0.088645,0.261797,-0.017695,-46.541889,0.097634,-0.470426,0.918640,-0.395073,0.002405,-0.003435
4103,0.052775,-7.060993,6.726752,0.072133,0.265926,-0.010538,-46.536491,0.096820,-0.477130,0.918659,-0.395030,0.002421,-0.003491
4104,0.055074,-7.065814,6.730058,0.095268,0.265451,-0.007987,-46.531254,0.095789,-0.483767,0.918676,-0.394988,0.002435,-0.003548
4105,0.054847,-7.058715,6.730520,0.119941,0.260393,-0.002391,-46.525085,0.094709,-0.490242,0.918697,-0.394938,0.002449,-0.003604
4106,0.054125,-7.058843,6.730869,0.080543,0.256865,-0.005944,-46.519009,0.093618,-0.496590,0.918718,-0.394889,0.002462,-0.003659
4107,0.055633,-7.058558,6.734150,0.114392,0.250282,-0.017129,-46.512985,0.092214,-0.502983,0.918739,-0.394841,0.002472,-0.003715
4108,0.053940,-7.053668,6.738809,0.139120,0.252858,-0.023734,-46.505627,0.090580,-0.509532,0.918764,-0.394782,0.002482,-0.003773
4109,0.054180,-7.050543,6.735672,0.086048,0.255441,-0.024228,-46.498531,0.089015,-0.516223,0.918788,-0.394725,0.002492,-0.003832
4110,0.052449,-7.057428,6.737825,0.074149,0.244296,-0.024715,-46.492802,0.087441,-0.522821,0.918808,-0.394679,0.002502,-0.003891
4111,0.053802,-7.058806,6.736768,0.050006,0.245363,-0.009938,-46.488018,0.085971,-0.529134,0.918824,-0.394640,0.002512,-0.003947
4112,0.051518,-7.071333,6.732778,-0.038298,0.244909,0.010946,-46.485844,0.085012,-0.535046,0.918831,-0.394623,0.002524,-0.003997
4113,0.053574,-7.078183,6.729817,-0.056506,0.229198,0.013522,-46.486401,0.084186,-0.540494,0.918829,-0.394627,0.002536,-0.004044
4114,0.050923,-7.085567,6.729665,-0.076300,0.222645,0.023731,-46.488190,0.083304,-0.545527,0.918823,-0.394641,0.002547,-0.004087
4115,0.052786,-7.086952,6.726448,-0.119023,0.223726,0.026314,-46.491428,0.082567,-0.550348,0.918811,-0.394667,0.002558,-0.004128
4116,0.053513,-7.082143,6.729584,-0.102219,0.214118,0.009052,-46.494934,0.081442,-0.555235,0.918799,-0.394695,0.002565,-0.004171
4117,0.055206,-7.075818,6.730685,-0.077727,0.207554,-0.000589,-46.497177,0.079701,-0.560234,0.918791,-0.394713,0.002569,-0.004217
4118,0.049271,-7.072431,6.731655,-0.057770,0.214740,-0.010212,-46.498222,0.077964,-0.565461,0.918787,-0.394722,0.002573,-0.004265
4119,0.049987,-7.060738,6.737185,0.037036,0.209737,-0.018288,-46.496593,0.076321,-0.570917,0.918793,-0.394709,0.002578,-0.004315
4120,0.046414,-7.060008,6.734829,0.029658,0.204745,-0.020250,-46.492981,0.074608,-0.576366,0.918805,-0.394679,0.002583,-0.004364
4121,0.041430,-7.061861,6.733055,0.010049,0.218096,-0.017600,-46.490047,0.073446,-0.581909,0.918815,-0.394656,0.002593,-0.004413
4122,0.046712,-7.067720,6.729910,0.051428,0.223817,-0.018002,-46.487240,0.072540,-0.587657,0.918824,-0.394633,0.002605,-0.004462
4123,0.048825,-7.071070,6.727907,0.089702,0.220360,-0.010800,-46.483639,0.071399,-0.593355,0.918836,-0.394604,0.002616,-0.004512
4124,0.051311,-7.066847,6.725894,0.080654,0.227570,-0.015820,-46.479725,0.070119,-0.599073,0.918850,-0.394573,0.002625,-0.004562
4125,0.054853,-7.065944,6.728848,0.092984,0.221027,-0.016282,-46.475613,0.068505,-0.604862,0.918864,-0.394540,0.002632,-0.004614
4126,0.056708,-7.069867,6.728771,0.108361,0.211416,-0.007606,-46.471104,0.066567,-0.610361,0.918879,-0.394504,0.002635,-0.004665
4127,0.052413,-7.065391,6.731334,0.117635,0.206393,-0.017230,-46.466145,0.064599,-0.615694,0.918896,-0.394464,0.002637,-0.004715
4128,0.054909,-7.058454,6.734377,0.090339,0.210534,-0.026846,-46.460979,0.062508,-0.621236,0.918913,-0.394422,0.002640,-0.004767
4129,0.050847,-7.065933,6.740948,0.038651,0.211631,-0.030350,-46.456898,0.060431,-0.626991,0.918927,-0.394390,0.002643,-0.004820
4130,0.048572,-7.058404,6.741734,0.017501,0.215802,-0.033828,-46.453842,0.058677,-0.632890,0.918937,-0.394365,0.002649,-0.004873
4131,0.044974,-7.051361,6.743340,0.017765,0.215418,-0.035756,-46.450619,0.057219,-0.638896,0.918948,-0.394339,0.002657,-0.004927
4133,0.043196,-7.036837,6.744361,0.002847,0.224210,-0.030036,-46.446873,0.056190,-0.644958,0.918961,-0.394309,0.002670,-0.004979
4134,0.041169,-7.045494,6.743741,-0.092929,0.222334,-0.009040,-46.444801,0.055770,-0.650797,0.918967,-0.394292,0.002687,-0.005027
4135,0.041165,-7.040985,6.739512,-0.144490,0.211309,0.004334,-46.445557,0.055728,-0.656086,0.918965,-0.394298,0.002704,-0.005070
4136,0.042784,-7.042834,6.737015,-0.151815,0.214014,0.011597,-46.447453,0.055763,-0.661038,0.918958,-0.394313,0.002722,-0.005109
4137,0.046939,-7.047534,6.736137,-0.070669,0.218225,-0.010151,-46.448433,0.055420,-0.666239,0.918954,-0.394321,0.002737,-0.005152
4138,0.046739,-7.062643,6.739902,-0.049087,0.210215,-0.016655,-46.448261,0.054505,-0.671720,0.918955,-0.394320,0.002749,-0.005199
4139,0.047364,-7.060564,6.736053,-0.016867,0.208308,-0.020107,-46.447617,0.053348,-0.677196,0.918957,-0.394314,0.002758,-0.005247
4140,0.046420,-7.059202,6.733622,0.019919,0.206404,-0.008296,-46.445934,0.052279,-0.682530,0.918962,-0.394301,0.002768,-0.005294
4141,0.044980,-7.057435,6.740461,0.059780,0.210613,-0.007158,-46.442726,0.051529,-0.687743,0.918973,-0.394275,0.002780,-0.005338
4142,0.041748,-7.053045,6.744249,0.006615,0.210261,0.006205,-46.439205,0.051243,-0.692835,0.918985,-0.394247,0.002795,-0.005380
4143,0.040619,-7.049574,6.744342,-0.037360,0.211450,0.013481,-46.436951,0.051437,-0.697700,0.918992,-0.394228,0.002813,-0.005418
4144,0.040401,-7.048489,6.750241,-0.030947,0.209592,0.005503,-46.435009,0.051683,-0.702564,0.918999,-0.394213,0.002831,-0.005457
4145,0.039981,-7.053204,6.759283,0.048746,0.215365,-0.014682,-46.431263,0.051663,-0.707799,0.919011,-0.394183,0.002849,-0.005499
4146,0.036019,-7.058074,6.756088,0.091800,0.213524,-0.031798,-46.425632,0.051454,-0.713509,0.919030,-0.394137,0.002867,-0.005545
4147,0.045108,-7.056852,6.756371,0.076840,0.207087,-0.032148,-46.419842,0.050690,-0.719320,0.919050,-0.394091,0.002880,-0.005595
4148,0.043301,-7.056535,6.756699,0.006944,0.215887,-0.026418,-46.415493,0.049671,-0.725097,0.919065,-0.394056,0.002892,-0.005645
4149,0.043848,-7.060025,6.755391,-0.035507,0.214009,-0.013054,-46.413239,0.049039,-0.730739,0.919072,-0.394038,0.002906,-0.005692
4150,0.050581,-7.061703,6.747081,-0.093276,0.206004,0.007915,-46.413223,0.048366,-0.735866,0.919072,-0.394037,0.002918,-0.005736
4151,0.054210,-7.051244,6.751342,-0.102201,0.202543,0.012063,-46.414177,0.047365,-0.740567,0.919068,-0.394045,0.002927,-0.005777
4152,0.049196,-7.060078,6.750185,-0.179775,0.206717,0.022320,-46.416405,0.046629,-0.745110,0.919061,-0.394063,0.002936,-0.005816
4153,0.055794,-7.059956,6.749702,-0.203975,0.198680,0.023418,-46.420650,0.045924,-0.749477,0.919046,-0.394097,0.002946,-0.005853
4154,0.056651,-7.053532,6.750547,-0.286131,0.204351,0.033645,-46.426388,0.044974,-0.753686,0.919026,-0.394143,0.002953,-0.005890
4155,0.055579,-7.054018,6.750529,-0.369782,0.202394,0.020986,-46.434570,0.044061,-0.757967,0.918997,-0.394208,0.002961,-0.005927
4156,0.050050,-7.060416,6.749478,-0.415299,0.209617,0.012928,-46.445061,0.043296,-0.762550,0.918961,-0.394292,0.002971,-0.005966
4157,0.049188,-7.047763,6.746904,-0.382972,0.210758,0.006421,-46.455532,0.042775,-0.767403,0.918925,-0.394376,0.002984,-0.006007
4158,0.047639,-7.044677,6.743133,-0.318551,0.208856,0.004499,-46.463917,0.042268,-0.772344,0.918896,-0.394443,0.002998,-0.006048
4159,0.045567,-7.043081,6.743936,-0.193072,0.213070,-0.020298,-46.468914,0.041648,-0.777620,0.918878,-0.394483,0.003011,-0.006092
4160,0.041907,-7.031962,6.745893,-0.098047,0.212727,-0.034392,-46.469601,0.040891,-0.783390,0.918875,-0.394489,0.003025,-0.006141
4161,0.036105,-7.005516,6.748261,-0.083750,0.200209,-0.019460,-46.466980,0.040468,-0.788993,0.918884,-0.394467,0.003041,-0.006188
4162,0.033916,-7.019877,6.747891,-0.122813,0.206028,-0.015180,-46.464317,0.040599,-0.794295,0.918893,-0.394446,0.003060,-0.006230
4163,0.030298,-7.022592,6.752170,-0.016961,0.204238,-0.030715,-46.461025,0.040931,-0.799775,0.918904,-0.394419,0.003081,-0.006273
4164,0.033309,-7.030808,6.750917,0.073598,0.196346,-0.029465,-46.454777,0.041008,-0.805302,0.918925,-0.394369,0.003100,-0.006317
4165,0.037821,-7.037812,6.752461,0.086279,0.208267,-0.022137,-46.447392,0.040864,-0.810779,0.918950,-0.394310,0.003118,-0.006361
4166,0.051256,-7.058547,6.747086,0.080528,0.212497,-0.013347,-46.441086,0.040228,-0.816267,0.918972,-0.394259,0.003131,-0.006408
4167,0.052412,-7.099840,6.731893,0.253018,0.193790,-0.024444,-46.434929,0.038698,-0.821608,0.918993,-0.394210,0.003137,-0.006456
4168,0.053929,-7.083721,6.735741,0.613061,0.168973,-0.073698,-46.421249,0.035831,-0.827118,0.919039,-0.394100,0.003132,-0.006510
4169,0.052344,-7.084084,6.738003,0.692392,0.153313,-0.097007,-46.399670,0.031663,-0.832972,0.919113,-0.393927,0.003117,-0.006572
4170,0.050306,-7.083313,6.737241,0.684723,0.137670,-0.100463,-46.377113,0.027049,-0.838756,0.919190,-0.393746,0.003099,-0.006635
4171,0.048764,-7.082828,6.744081,0.715192,0.123569,-0.102375,-46.354298,0.022280,-0.844242,0.919268,-0.393563,0.003078,-0.006696
4172,0.053619,-7.048018,6.764580,0.631393,0.118617,-0.102767,-46.330578,0.017181,-0.849524,0.919349,-0.393373,0.003054,-0.006757
4173,0.049209,-7.060425,6.766697,0.233370,0.127404,-0.051272,-46.313732,0.012804,-0.854264,0.919406,-0.393238,0.003034,-0.006810
4174,0.051739,-7.045470,6.767795,0.103896,0.128572,-0.027232,-46.305817,0.009623,-0.858253,0.919433,-0.393175,0.003022,-0.006853
4175,0.052861,-7.047667,6.766976,0.030904,0.119050,-0.010831,-46.301037,0.006717,-0.861675,0.919449,-0.393136,0.003010,-0.006891
4176,0.047718,-7.040775,6.767711,-0.028348,0.126331,-0.020351,-46.298412,0.004115,-0.864991,0.919458,-0.393115,0.003000,-0.006927
4177,0.043422,-7.029710,6.763752,-0.046357,0.130595,-0.008473,-46.296631,0.002177,-0.868418,0.919464,-0.393101,0.002997,-0.006961
4178,0.049852,-7.029974,6.758567,-0.100989,0.136378,-0.001176,-46.296070,0.000517,-0.871746,0.919466,-0.393097,0.002995,-0.006993
4179,0.045751,-7.036280,6.766702,-0.079337,0.137580,-0.009146,-46.296196,-0.001154,-0.875166,0.919465,-0.393098,0.002993,-0.007026
4180,0.045223,-7.031296,6.765114,-0.030201,0.138799,-0.014045,-46.294952,-0.002696,-0.878763,0.919469,-0.393088,0.002993,-0.007060
4181,0.054041,-7.040816,6.761439,-0.040611,0.135414,-0.006765,-46.293415,-0.004613,-0.882307,0.919474,-0.393075,0.002990,-0.007096
4182,0.054339,-7.039624,6.764575,0.002355,0.133526,-0.007144,-46.291649,-0.006923,-0.885707,0.919480,-0.393061,0.002983,-0.007131
4183,0.055072,-7.047074,6.762556,0.026989,0.140792,-0.012101,-46.288971,-0.009249,-0.889234,0.919489,-0.393040,0.002976,-0.007167
4184,0.055016,-7.047107,6.758096,0.022578,0.148060,-0.006376,-46.286469,-0.011392,-0.892927,0.919497,-0.393020,0.002971,-0.007204
4185,0.054907,-7.054973,6.765222,0.016621,0.152278,-0.018959,-46.284355,-0.013439,-0.896837,0.919504,-0.393003,0.002968,-0.007243
4186,0.052609,-7.066107,6.760746,-0.010758,0.150404,-0.023902,-46.283386,-0.015512,-0.900978,0.919507,-0.392995,0.002966,-0.007283
4187,0.052645,-7.069244,6.761356,-0.032098,0.156168,-0.033412,-46.283875,-0.017568,-0.905331,0.919505,-0.392999,0.002964,-0.007325
4188,0.053878,-7.062938,6.761123,0.027447,0.135991,-0.039871,-46.283604,-0.020011,-0.909694,0.919506,-0.392997,0.002959,-0.007368
4189,0.052257,-7.064731,6.758808,0.007651,0.121922,-0.041749,-46.282612,-0.022893,-0.913742,0.919509,-0.392989,0.002950,-0.007411
4190,0.050177,-7.060241,6.757314,0.056516,0.126179,-0.034454,-46.281185,-0.025599,-0.917608,0.919513,-0.392978,0.002941,-0.007451
4191,0.048697,-7.049555,6.758107,0.099325,0.124347,-0.053087,-46.277767,-0.028196,-0.921635,0.919525,-0.392950,0.002934,-0.007492
4192,0.047360,-7.038471,6.765289,0.091875,0.124053,-0.054919,-46.272778,-0.030884,-0.925872,0.919541,-0.392910,0.002927,-0.007536
4193,0.050699,-7.066031,6.760108,0.063007,0.131386,-0.043023,-46.268948,-0.033420,-0.930078,0.919554,-0.392880,0.002921,-0.007578
4194,0.053715,-7.062748,6.755455,0.069110,0.128018,-0.046404,-46.266739,-0.036072,-0.934232,0.919561,-0.392862,0.002913,-0.007621
4195,0.051153,-7.063582,6.759509,0.056904,0.127704,-0.065045,-46.264622,-0.039011,-0.938596,0.919568,-0.392845,0.002905,-0.007666
4196,0.047185,-7.069605,6.757883,0.096561,0.130468,-0.051613,-46.262234,-0.041617,-0.943049,0.919576,-0.392826,0.002899,-0.007711
4197,0.049132,-7.074845,6.752506,0.079693,0.121033,-0.033593,-46.260128,-0.043775,-0.947059,0.919583,-0.392809,0.002895,-0.007750
4198,0.040235,-7.039271,6.769862,0.091958,0.120780,-0.047590,-46.256687,-0.045620,-0.950907,0.919594,-0.392782,0.002893,-0.007788
4199,0.043947,-7.042089,6.772948,0.047942,0.122074,-0.032574,-46.251995,-0.047156,-0.954757,0.919610,-0.392744,0.002894,-0.007824
4200,0.044261,-7.036165,6.770289,-0.058632,0.108095,0.008370,-46.249756,-0.048334,-0.957809,0.919618,-0.392726,0.002895,-0.007852
4201,0.047131,-7.031540,6.774670,-0.081243,0.095634,0.005053,-46.249310,-0.049497,-0.960110,0.919619,-0.392722,0.002893,-0.007875
4202,0.051780,-7.033234,6.769696,-0.105376,0.095356,0.004762,-46.249588,-0.051200,-0.962298,0.919618,-0.392725,0.002887,-0.007898
4203,0.053906,-7.037168,6.767333,-0.109715,0.092005,0.010553,-46.250793,-0.053186,-0.964379,0.919613,-0.392734,0.002878,-0.007922
4204,0.057912,-7.041047,6.767655,-0.078991,0.088635,-0.003512,-46.251884,-0.055617,-0.966475,0.919609,-0.392743,0.002866,-0.007947
4205,0.061950,-7.052514,6.764862,-0.007127,0.095923,-0.022181,-46.251854,-0.058750,-0.968994,0.919609,-0.392743,0.002850,-0.007978
4206,0.065025,-7.047637,6.771415,0.003693,0.110819,-0.016457,-46.250523,-0.062083,-0.971930,0.919613,-0.392733,0.002833,-0.008013
4207,0.061277,-7.052490,6.770032,-0.005307,0.115040,-0.024460,-46.248989,-0.065135,-0.975123,0.919618,-0.392720,0.002819,-0.008049
4208,0.060883,-7.049822,6.769778,-0.040263,0.126908,-0.032444,-46.248344,-0.067938,-0.978693,0.919620,-0.392715,0.002809,-0.008087
4209,0.053919,-7.044224,6.773496,-0.053818,0.137279,-0.026666,-46.248127,-0.070105,-0.982557,0.919621,-0.392714,0.002805,-0.008126
4210,0.053407,-7.038670,6.770220,-0.020032,0.138522,-0.039169,-46.247181,-0.071813,-0.986639,0.919623,-0.392706,0.002805,-0.008164
4211,0.054487,-7.039805,6.771327,-0.047274,0.138239,-0.040991,-46.246063,-0.073680,-0.990898,0.919627,-0.392697,0.002804,-0.008205
4212,0.053303,-7.035730,6.774671,-0.016508,0.139485,-0.047387,-46.244648,-0.075600,-0.995263,0.919631,-0.392686,0.002804,-0.008247
4213,0.054755,-7.048543,6.769543,-0.065129,0.140732,-0.030894,-46.243912,-0.077349,-0.999541,0.919634,-0.392680,0.002804,-0.008287
4214,0.056712,-7.050375,6.768619,-0.052785,0.145021,-0.052558,-46.244507,-0.079231,-1.003945,0.919631,-0.392685,0.002805,-0.008329
4215,0.057363,-7.057785,6.772383,-0.074033,0.138622,-0.045237,-46.245472,-0.081405,-1.008489,0.919627,-0.392693,0.002803,-0.008373
4216,0.055486,-7.062409,6.765610,-0.087701,0.127652,-0.037908,-46.247509,-0.083507,-1.012653,0.919620,-0.392709,0.002800,-0.008413
4217,0.060661,-7.066136,6.767881,-0.180758,0.128881,-0.026011,-46.251743,-0.085614,-1.016479,0.919605,-0.392743,0.002797,-0.008451
4218,0.061362,-7.062300,6.765355,-0.153265,0.116360,-0.023288,-46.257023,-0.087928,-1.019999,0.919587,-0.392785,0.002791,-0.008487
4219,0.058013,-7.058030,6.769021,-0.119626,0.120634,-0.014449,-46.260887,-0.090033,-1.023289,0.919573,-0.392816,0.002785,-0.008521
4220,0.057779,-7.048501,6.767549,-0.140859,0.126450,-0.005596,-46.263927,-0.091600,-1.026497,0.919563,-0.392841,0.002784,-0.008552
4221,0.060393,-7.049017,6.769767,-0.174261,0.120051,-0.012007,-46.267490,-0.093232,-1.029670,0.919550,-0.392870,0.002782,-0.008583
4222,0.054599,-7.037719,6.769757,-0.077910,0.118244,-0.021458,-46.269505,-0.094969,-1.032929,0.919543,-0.392886,0.002779,-0.008615
4223,0.055178,-7.035271,6.768798,-0.062384,0.114930,-0.026311,-46.269180,-0.096658,-1.036292,0.919544,-0.392883,0.002777,-0.008647
4224,0.058554,-7.037474,6.761031,-0.068251,0.108552,-0.020494,-46.268974,-0.098613,-1.039527,0.919544,-0.392882,0.002773,-0.008680
4225,0.056548,-7.036542,6.766416,-0.071079,0.117432,-0.037568,-46.269043,-0.100712,-1.042921,0.919543,-0.392882,0.002768,-0.008714
4226,0.056994,-7.039120,6.762814,-0.069327,0.135474,-0.027168,-46.269131,-0.102470,-1.046717,0.919543,-0.392883,0.002766,-0.008751
4227,0.055819,-7.049616,6.763177,-0.046269,0.136736,-0.033548,-46.269356,-0.103888,-1.050697,0.919542,-0.392885,0.002769,-0.008788
4228,0.054066,-7.046953,6.765791,-0.026278,0.142588,-0.041441,-46.269024,-0.105224,-1.054928,0.919542,-0.392882,0.002773,-0.008826
4229,0.053683,-7.052210,6.764229,-0.050545,0.142345,-0.041696,-46.268814,-0.106465,-1.059320,0.919543,-0.392880,0.002778,-0.008866
4230,0.053649,-7.043118,6.766016,-0.021391,0.134474,-0.040423,-46.268387,-0.107747,-1.063603,0.919544,-0.392877,0.002782,-0.008905
4231,0.053419,-7.041972,6.764202,-0.028824,0.135762,-0.051353,-46.267258,-0.109188,-1.067919,0.919547,-0.392868,0.002785,-0.008944
4232,0.054977,-7.032405,6.763124,-0.059123,0.124839,-0.048554,-46.266510,-0.110883,-1.072212,0.919549,-0.392862,0.002786,-0.008984
4233,0.057101,-7.032926,6.766056,-0.071073,0.121535,-0.056448,-46.266109,-0.112959,-1.076394,0.919550,-0.392859,0.002784,-0.009025
4234,0.057811,-7.036028,6.769812,-0.079961,0.118224,-0.055194,-46.265953,-0.115297,-1.080573,0.919550,-0.392857,0.002779,-0.009067
4236,0.059191,-7.043375,6.764310,-0.116360,0.117961,-0.055470,-46.266968,-0.117727,-1.084697,0.919547,-0.392866,0.002774,-0.009108
4237,0.059470,-7.041480,6.768167,-0.094796,0.117694,-0.067957,-46.268471,-0.120357,-1.088961,0.919541,-0.392878,0.002768,-0.009151
4238,0.061037,-7.047062,6.764592,-0.039671,0.125053,-0.057558,-46.268791,-0.122979,-1.093334,0.919539,-0.392881,0.002762,-0.009195
4239,0.060104,-7.050274,6.757472,-0.028864,0.133940,-0.059365,-46.268669,-0.125297,-1.097803,0.919539,-0.392880,0.002758,-0.009239
4240,0.057135,-7.037395,6.759559,0.007899,0.127583,-0.070313,-46.267590,-0.127511,-1.102450,0.919543,-0.392871,0.002756,-0.009284
4241,0.055069,-7.035109,6.759275,0.061505,0.127350,-0.072082,-46.264450,-0.129672,-1.107165,0.919553,-0.392846,0.002755,-0.009329
4242,0.047630,-7.030793,6.763952,0.055632,0.128677,-0.058558,-46.260170,-0.131178,-1.111759,0.919567,-0.392812,0.002758,-0.009372
4243,0.048266,-7.030045,6.769144,0.010133,0.128503,-0.070947,-46.256287,-0.132293,-1.116354,0.919580,-0.392780,0.002765,-0.009412
4244,0.047581,-7.027819,6.772983,-0.029229,0.120701,-0.046714,-46.253464,-0.133331,-1.120718,0.919589,-0.392758,0.002771,-0.009451
4245,0.047078,-7.026892,6.773695,-0.054835,0.120535,-0.033155,-46.251526,-0.133929,-1.124551,0.919596,-0.392742,0.002779,-0.009484
4246,0.046513,-7.038191,6.774071,-0.063692,0.118847,-0.027221,-46.250504,-0.134247,-1.128136,0.919599,-0.392734,0.002789,-0.009514
4247,0.049581,-7.050887,6.764755,-0.094027,0.100366,-0.021296,-46.251289,-0.134766,-1.131339,0.919596,-0.392740,0.002796,-0.009541
4248,0.048561,-7.044981,6.763156,-0.093905,0.098663,-0.012326,-46.253197,-0.135432,-1.134125,0.919589,-0.392755,0.002800,-0.009566
4249,0.051211,-7.038637,6.764396,-0.046436,0.106112,-0.023197,-46.253891,-0.136127,-1.137004,0.919586,-0.392761,0.002805,-0.009591
4250,0.053320,-7.046899,6.759150,-0.067655,0.105915,-0.011196,-46.254326,-0.136947,-1.139957,0.919585,-0.392764,0.002808,-0.009618
4251,0.061435,-7.039794,6.754581,-0.131635,0.110263,-0.011438,-46.256557,-0.138066,-1.142823,0.919577,-0.392782,0.002809,-0.009645
4252,0.064317,-7.028873,6.760273,-0.075001,0.117625,-0.019346,-46.258228,-0.139674,-1.145926,0.919571,-0.392796,0.002807,-0.009675
4253,0.064154,-7.043190,6.760664,-0.087019,0.112773,-0.028789,-46.259037,-0.141571,-1.149259,0.919567,-0.392802,0.002803,-0.009708
4254,0.060852,-7.047556,6.761216,-0.073156,0.114039,-0.044321,-46.260391,-0.143606,-1.152836,0.919562,-0.392813,0.002799,-0.009744
4255,0.059133,-7.047452,6.763956,-0.031825,0.127531,-0.062884,-46.260834,-0.145602,-1.156983,0.919560,-0.392817,0.002798,-0.009784
4256,0.047431,-7.056479,6.769789,-0.002703,0.122760,-0.063086,-46.260090,-0.147031,-1.161452,0.919563,-0.392811,0.002801,-0.009825
4257,0.041633,-7.052290,6.768711,0.035577,0.124154,-0.067803,-46.258217,-0.147673,-1.165937,0.919569,-0.392796,0.002812,-0.009863
4258,0.040570,-7.037288,6.769622,0.049505,0.134729,-0.060286,-46.254852,-0.147793,-1.170535,0.919580,-0.392769,0.002826,-0.009900
4259,0.037131,-7.044482,6.765599,-0.022010,0.130059,-0.042072,-46.252338,-0.147311,-1.174908,0.919588,-0.392748,0.002845,-0.009934
4260,0.035371,-7.038118,6.765071,-0.038614,0.123880,-0.045203,-46.251534,-0.146521,-1.178976,0.919590,-0.392742,0.002865,-0.009964
4261,0.041996,-7.031538,6.756138,-0.044529,0.132944,-0.045300,-46.251026,-0.145988,-1.183116,0.919592,-0.392737,0.002883,-0.009995
4262,0.044761,-7.038484,6.754034,-0.058115,0.135870,-0.043905,-46.251240,-0.145774,-1.187384,0.919591,-0.392739,0.002900,-0.010029
4263,0.044946,-7.040825,6.751753,-0.015289,0.135735,-0.063883,-46.251453,-0.145901,-1.191899,0.919590,-0.392741,0.002914,-0.010065
4264,0.052358,-7.037670,6.750072,0.062623,0.140152,-0.073208,-46.249763,-0.146704,-1.196803,0.919595,-0.392727,0.002924,-0.010107
4265,0.055735,-7.043164,6.754123,0.065763,0.138428,-0.067310,-46.246727,-0.148038,-1.201779,0.919605,-0.392703,0.002930,-0.010152
4266,0.051790,-7.029079,6.764746,0.087292,0.133658,-0.064461,-46.242512,-0.149293,-1.206578,0.919619,-0.392669,0.002936,-0.010195
4267,0.046827,-7.022561,6.761629,0.021932,0.133496,-0.041742,-46.238121,-0.149843,-1.211024,0.919633,-0.392634,0.002947,-0.010233
4268,0.044940,-7.027581,6.764498,-0.052586,0.130306,-0.020524,-46.236092,-0.149551,-1.214924,0.919640,-0.392617,0.002962,-0.010263
4269,0.042623,-7.021304,6.769504,-0.116394,0.121026,-0.003869,-46.236107,-0.148739,-1.218238,0.919640,-0.392617,0.002980,-0.010287
4270,0.037746,-7.021821,6.758811,-0.172577,0.119401,0.012810,-46.238140,-0.147310,-1.221036,0.919633,-0.392633,0.003002,-0.010304
4271,0.041720,-7.030831,6.758060,-0.147956,0.122354,0.008129,-46.241413,-0.145696,-1.223710,0.919621,-0.392659,0.003024,-0.010320
4272,0.047781,-7.037454,6.759871,-0.091334,0.117643,-0.010322,-46.243774,-0.144895,-1.226628,0.919613,-0.392678,0.003041,-0.010341
4273,0.045447,-7.036489,6.754404,-0.095778,0.123599,-0.012003,-46.245548,-0.144524,-1.229793,0.919607,-0.392692,0.003055,-0.010365
4274,0.044075,-7.038222,6.759926,-0.057496,0.137196,-0.031982,-46.246742,-0.144017,-1.233443,0.919602,-0.392702,0.003071,-0.010392
4275,0.049723,-7.041705,6.762447,-0.032932,0.140097,-0.044348,-46.246758,-0.143923,-1.237665,0.919602,-0.392702,0.003086,-0.010426
4276,0.046778,-7.043867,6.760952,-0.116725,0.138411,-0.033834,-46.247906,-0.143974,-1.241922,0.919597,-0.392711,0.003101,-0.010460
4277,0.050051,-7.032146,6.763637,-0.111977,0.144353,-0.035530,-46.249992,-0.143888,-1.246130,0.919590,-0.392727,0.003116,-0.010494
4278,0.056638,-7.042943,6.766432,-0.125513,0.141107,-0.025052,-46.251976,-0.144147,-1.250270,0.919583,-0.392743,0.003128,-0.010528
4279,0.055313,-7.042733,6.766648,-0.154331,0.145473,-0.019171,-46.254887,-0.144449,-1.254235,0.919572,-0.392766,0.003140,-0.010561
4280,0.056256,-7.039703,6.764730,-0.184666,0.149839,-0.019392,-46.258686,-0.144561,-1.258240,0.919559,-0.392797,0.003153,-0.010593
4281,0.058687,-7.053201,6.758899,-0.183014,0.154195,-0.028779,-46.263538,-0.144848,-1.262458,0.919542,-0.392836,0.003166,-0.010628
4282,0.053230,-7.061769,6.763399,-0.135657,0.152458,-0.039681,-46.268299,-0.145195,-1.266941,0.919525,-0.392874,0.003179,-0.010665
4283,0.053798,-7.056195,6.760022,-0.105081,0.147686,-0.039885,-46.271736,-0.145506,-1.271474,0.919513,-0.392901,0.003192,-0.010702
4284,0.054569,-7.060428,6.752091,-0.103528,0.139859,-0.024832,-46.274929,-0.145846,-1.275683,0.919502,-0.392927,0.003204,-0.010737
4285,0.051815,-7.052270,6.760700,-0.036338,0.145770,-0.026559,-46.276768,-0.145946,-1.279717,0.919495,-0.392941,0.003217,-0.010770
4286,0.053953,-7.049562,6.759408,0.026341,0.148633,-0.028283,-46.275764,-0.145954,-1.283897,0.919498,-0.392933,0.003231,-0.010803
4287,0.049246,-7.046399,6.758471,0.040202,0.151505,-0.023894,-46.273361,-0.145738,-1.288117,0.919506,-0.392914,0.003247,-0.010836
4288,0.050550,-7.020700,6.767838,0.087759,0.155913,-0.054591,-46.268673,-0.145594,-1.292730,0.919521,-0.392876,0.003264,-0.010873
4289,0.049604,-7.020146,6.766374,0.111013,0.154217,-0.062399,-46.261707,-0.145906,-1.297822,0.919545,-0.392820,0.003278,-0.010915
4290,0.051156,-7.024042,6.770750,0.062536,0.146416,-0.050374,-46.255272,-0.146303,-1.302751,0.919566,-0.392768,0.003291,-0.010956
4291,0.049336,-7.018458,6.775163,0.017138,0.123356,-0.042924,-46.250149,-0.146800,-1.307084,0.919583,-0.392727,0.003302,-0.010993
4292,0.055167,-7.019889,6.771175,-0.061826,0.121645,-0.033963,-46.247028,-0.147575,-1.310930,0.919594,-0.392702,0.003308,-0.011026
4293,0.053828,-7.039617,6.766856,-0.078335,0.124499,-0.009756,-46.246590,-0.148144,-1.314404,0.919595,-0.392699,0.003316,-0.011056
4294,0.050436,-7.043422,6.764633,-0.090371,0.130420,-0.019103,-46.247681,-0.148187,-1.317810,0.919591,-0.392707,0.003327,-0.011084
4295,0.047892,-7.052476,6.758581,-0.035339,0.133311,-0.028427,-46.248783,-0.148057,-1.321536,0.919587,-0.392716,0.003341,-0.011113
4296,0.048979,-7.047199,6.761240,0.008989,0.143836,-0.027065,-46.248455,-0.147797,-1.325514,0.919587,-0.392713,0.003357,-0.011144
4297,0.050212,-7.049388,6.761026,-0.009227,0.140619,-0.010452,-46.247494,-0.147354,-1.329373,0.919590,-0.392705,0.003373,-0.011174
4298,0.047449,-7.050246,6.762304,-0.019820,0.141985,-0.025878,-46.247086,-0.146848,-1.333197,0.919591,-0.392702,0.003390,-0.011203
4299,0.049640,-7.041087,6.767746,0.016940,0.132671,-0.016889,-46.245743,-0.146492,-1.337000,0.919596,-0.392691,0.003406,-0.011232
4300,0.049454,-7.043776,6.766665,-0.033240,0.121824,-0.014011,-46.244263,-0.146330,-1.340424,0.919600,-0.392679,0.003419,-0.011259
4301,0.049120,-7.045760,6.766783,-0.060554,0.117082,-0.020287,-46.244286,-0.146367,-1.343699,0.919600,-0.392679,0.003430,-0.011285
4302,0.048505,-7.041603,6.763751,-0.035991,0.116921,-0.046396,-46.244400,-0.146806,-1.347289,0.919599,-0.392680,0.003439,-0.011316
4303,0.047405,-7.042483,6.757586,-0.075537,0.121344,-0.028248,-46.244968,-0.147206,-1.351021,0.919597,-0.392684,0.003448,-0.011347
4304,0.050754,-7.048833,6.755973,-0.101402,0.128810,-0.026892,-46.247147,-0.147338,-1.354670,0.919589,-0.392702,0.003460,-0.011377
4305,0.053819,-7.039327,6.758659,-0.079946,0.142361,-0.024032,-46.249233,-0.147486,-1.358523,0.919582,-0.392718,0.003472,-0.011408
4306,0.049221,-7.042688,6.756535,-0.096612,0.162019,-0.019642,-46.250973,-0.147088,-1.362694,0.919575,-0.392732,0.003490,-0.011440
4307,0.050072,-7.045452,6.758484,-0.073622,0.163378,-0.019815,-46.252792,-0.146215,-1.367069,0.919569,-0.392747,0.003512,-0.011472
4308,0.052311,-7.044813,6.760572,-0.038415,0.163201,-0.030682,-46.253536,-0.145622,-1.371586,0.919566,-0.392752,0.003532,-0.011506
4309,0.053240,-7.041775,6.759618,-0.009292,0.149280,-0.056820,-46.253017,-0.145805,-1.376360,0.919567,-0.392748,0.003547,-0.011545
4310,0.053016,-7.048497,6.748180,-0.012270,0.153666,-0.082962,-46.252628,-0.146766,-1.381620,0.919568,-0.392745,0.003558,-0.011591
4311,0.055864,-7.045886,6.747623,-0.067187,0.151940,-0.081644,-46.253773,-0.148116,-1.387197,0.919563,-0.392754,0.003566,-0.011640
4312,0.055505,-7.045777,6.747496,-0.102259,0.156312,-0.083387,-46.256336,-0.149544,-1.392811,0.919554,-0.392775,0.003574,-0.011690
4313,0.056641,-7.041563,6.747748,-0.071699,0.137793,-0.091233,-46.258801,-0.151266,-1.398366,0.919544,-0.392794,0.003579,-0.011740
4314,0.053537,-7.039949,6.753715,-0.100604,0.152852,-0.068552,-46.260780,-0.152727,-1.403709,0.919537,-0.392810,0.003586,-0.011788
4315,0.050125,-7.034146,6.760388,-0.076028,0.138944,-0.050426,-46.262093,-0.153338,-1.408598,0.919532,-0.392821,0.003598,-0.011829
4316,0.049760,-7.029236,6.764348,0.021871,0.131153,-0.059751,-46.260601,-0.153890,-1.413126,0.919537,-0.392809,0.003609,-0.011868
4317,0.046680,-7.018443,6.768004,0.061861,0.129478,-0.043122,-46.256012,-0.154287,-1.417459,0.919552,-0.392772,0.003620,-0.011904
4318,0.043994,-7.030147,6.766174,0.005719,0.135453,-0.031050,-46.251713,-0.153997,-1.421512,0.919566,-0.392737,0.003636,-0.011936
4319,0.041999,-7.036855,6.761332,-0.012369,0.127710,-0.029643,-46.249580,-0.153334,-1.425386,0.919573,-0.392720,0.003655,-0.011965
4320,0.042195,-7.035789,6.763382,-0.045750,0.133707,-0.025179,-46.248650,-0.152539,-1.429170,0.919576,-0.392712,0.003674,-0.011992
4321,0.041071,-7.044576,6.758319,-0.094431,0.138180,-0.016133,-46.249485,-0.151427,-1.432924,0.919573,-0.392718,0.003696,-0.012019
4322,0.042316,-7.052032,6.754020,-0.137096,0.142650,-0.022349,-46.252720,-0.150198,-1.436750,0.919561,-0.392744,0.003719,-0.012045
4323,0.041687,-7.046945,6.750984,-0.121807,0.142540,-0.020938,-46.256718,-0.149028,-1.440683,0.919547,-0.392776,0.003742,-0.012072
4324,0.044522,-7.050860,6.749357,-0.108048,0.137844,-0.027167,-46.260292,-0.148100,-1.444614,0.919535,-0.392804,0.003764,-0.012101
4325,0.041289,-7.048265,6.746521,-0.074468,0.133147,-0.039498,-46.263222,-0.147503,-1.448646,0.919524,-0.392828,0.003783,-0.012131
4326,0.045285,-7.045954,6.749842,-0.063752,0.126920,-0.048781,-46.265182,-0.147342,-1.452796,0.919517,-0.392843,0.003798,-0.012163
4327,0.043879,-7.053453,6.746579,-0.100353,0.122210,-0.053497,-46.267700,-0.147609,-1.456975,0.919508,-0.392863,0.003811,-0.012198
4328,0.045005,-7.055421,6.745158,-0.106481,0.131236,-0.065841,-46.271374,-0.148016,-1.461401,0.919495,-0.392893,0.003823,-0.012235
4329,0.046042,-7.053300,6.746016,-0.045464,0.141779,-0.070562,-46.274101,-0.148504,-1.466260,0.919485,-0.392915,0.003836,-0.012275
4330,0.049653,-7.059887,6.743083,-0.027191,0.143152,-0.073774,-46.275673,-0.149170,-1.471354,0.919479,-0.392927,0.003848,-0.012318
4331,0.045471,-7.051823,6.742507,0.041435,0.147580,-0.086139,-46.275833,-0.149920,-1.476697,0.919478,-0.392928,0.003861,-0.012364
4333,0.043917,-7.054744,6.745136,0.155864,0.133717,-0.104586,-46.272686,-0.150858,-1.482282,0.919488,-0.392903,0.003872,-0.012412
4334,0.040769,-7.043108,6.752767,0.248992,0.118344,-0.109282,-46.265442,-0.152166,-1.487783,0.919512,-0.392845,0.003879,-0.012461
4335,0.038746,-7.040435,6.757545,0.180458,0.099939,-0.100225,-46.256954,-0.153539,-1.492829,0.919541,-0.392777,0.003885,-0.012506
4336,0.035447,-7.031160,6.761200,0.124186,0.102916,-0.088097,-46.249973,-0.154552,-1.497447,0.919564,-0.392721,0.003892,-0.012547
4337,0.032953,-7.035671,6.755501,0.054180,0.096760,-0.069842,-46.245144,-0.154933,-1.501676,0.919580,-0.392682,0.003903,-0.012582
4338,0.035349,-7.029208,6.757699,0.002466,0.101285,-0.042431,-46.242489,-0.154766,-1.505359,0.919589,-0.392660,0.003916,-0.012611
4339,0.036469,-7.035971,6.753035,-0.088935,0.101221,-0.027240,-46.242393,-0.154206,-1.508604,0.919589,-0.392659,0.003932,-0.012636
4340,0.037469,-7.029788,6.752437,-0.070494,0.114881,-0.037997,-46.243736,-0.153547,-1.511961,0.919584,-0.392670,0.003949,-0.012660
4341,0.043103,-7.037254,6.751350,-0.059692,0.119364,-0.035045,-46.244686,-0.153107,-1.515626,0.919580,-0.392677,0.003965,-0.012688
4342,0.046855,-7.040784,6.752390,-0.001620,0.116185,-0.044334,-46.244843,-0.153196,-1.519379,0.919579,-0.392678,0.003977,-0.012719
4343,0.044477,-7.041186,6.751384,0.059490,0.120630,-0.056680,-46.243137,-0.153600,-1.523396,0.919585,-0.392665,0.003988,-0.012752
4344,0.043409,-7.038146,6.756058,0.167925,0.126613,-0.069013,-46.238400,-0.154008,-1.527824,0.919600,-0.392627,0.003999,-0.012789
