seq,ax,ay,az,wroll,wpitch,wyaw,roll,pitch,yaw,q0,q1,q2,q3
61,-0.116691,-1.932035,9.720602,12.269623,9.631213,-35.447678,-11.241419,0.674578,-0.134074,0.995175,-0.097934,0.005973,-0.000588
62,-0.105364,-1.989696,9.565307,13.401816,12.501473,-38.510208,-11.097256,0.781044,-0.827734,0.995270,-0.096637,0.007482,-0.006530
63,-0.309290,-1.800108,9.725891,14.631721,13.507137,-40.022385,-10.645005,1.019719,-2.194450,0.995482,-0.092571,0.010635,-0.018240
64,-0.444758,-1.612274,10.118002,19.813948,12.375102,-39.764462,-9.962638,1.361443,-3.576321,0.995700,-0.086413,0.014539,-0.030053
65,-0.724622,-1.559147,10.582036,22.002388,11.137902,-35.261395,-9.103552,1.790337,-4.867310,0.995878,-0.078617,0.018929,-0.041085
66,-0.855216,-1.418848,10.598138,20.911604,9.841300,-28.460262,-8.237425,2.307174,-5.960433,0.995942,-0.070668,0.023787,-0.050402
67,-0.791670,-1.353313,10.761696,15.241478,8.352378,-23.136244,-7.515861,2.780426,-6.844607,0.995872,-0.063960,0.028077,-0.057962
68,-0.738335,-1.432978,10.740074,11.881474,6.884684,-18.692715,-7.039480,3.130327,-7.564528,0.995679,-0.059437,0.031251,-0.064143
69,-0.711840,-1.430583,10.524127,7.617972,5.523709,-14.424683,-6.796021,3.382772,-8.140147,0.995415,-0.057005,0.033595,-0.069076
70,-0.627730,-1.312937,10.186888,2.678447,4.649423,-11.955735,-6.730122,3.550370,-8.601821,0.995123,-0.056185,0.035237,-0.073016
71,-0.680348,-1.293101,9.782445,-2.142062,3.331066,-10.301632,-6.829587,3.670328,-8.991812,0.994792,-0.056845,0.036536,-0.076307
72,-0.755642,-1.338343,9.607059,-6.147774,0.558559,-7.950179,-7.106660,3.771260,-9.310044,0.994412,-0.059074,0.037760,-0.078924
73,-0.705413,-1.176292,9.102567,-7.901175,-1.748523,-7.698394,-7.442594,3.806388,-9.572809,0.994043,-0.061876,0.038438,-0.081072
74,-0.471030,-1.324735,8.917013,-12.202864,-4.194596,-6.015308,-7.870599,3.665808,-9.792072,0.993681,-0.065621,0.037647,-0.082916
75,-0.090987,-1.526239,8.903411,-10.294168,-7.240663,-2.446228,-8.431295,3.213159,-9.915039,0.993351,-0.070791,0.034206,-0.084096
76,0.231222,-1.516809,9.125296,-4.224276,-9.980334,-0.769343,-8.852432,2.438333,-9.932597,0.993192,-0.075032,0.027813,-0.084656
77,0.289270,-1.404640,9.129823,2.021261,-11.046161,-0.941886,-8.944303,1.533456,-9.907993,0.993232,-0.076524,0.020024,-0.085046
78,0.250578,-1.479230,9.424767,3.864591,-12.517750,0.913545,-8.836897,0.691359,-9.848115,0.993370,-0.076238,0.012606,-0.085116
79,0.079044,-1.374638,9.523958,5.808674,-13.484007,2.868202,-8.634253,0.010239,-9.720436,0.993578,-0.074999,0.006467,-0.084478
80,-0.050541,-1.317621,9.611731,3.448188,-13.688554,4.772547,-8.389826,-0.473390,-9.527658,0.993842,-0.073238,0.001969,-0.083127
81,-0.048328,-1.279517,9.646266,-1.768812,-13.470260,9.895091,-8.261260,-0.820423,-9.220534,0.994108,-0.072370,-0.001328,-0.080681
82,0.131828,-1.289215,9.563278,-6.454811,-13.601423,17.527777,-8.318434,-1.151112,-8.703909,0.994385,-0.073076,-0.004486,-0.076406
83,0.310110,-1.470027,9.700450,-9.445601,-12.659979,24.809484,-8.583280,-1.519004,-7.941384,0.994646,-0.075562,-0.008005,-0.070036
84,0.432547,-1.554067,9.747574,-10.670983,-11.526353,30.519480,-8.995615,-1.879307,-6.966239,0.994867,-0.079259,-0.011555,-0.061843
85,0.345853,-1.565529,9.692645,-14.134890,-11.387587,36.078411,-9.490424,-2.148461,-5.806790,0.995040,-0.083551,-0.014470,-0.052019
86,0.162453,-1.623680,9.801761,-17.957338,-12.583824,41.214695,-10.082117,-2.256076,-4.468540,0.995114,-0.088550,-0.016171,-0.040556
87,-0.097008,-1.939502,9.969626,-20.263083,-14.132310,45.997005,-10.829584,-2.179257,-2.957636,0.994980,-0.094805,-0.016490,-0.027481
88,-0.120451,-2.024655,9.752857,-21.703707,-15.715755,48.612534,-11.702299,-2.004149,-1.313682,0.994552,-0.102122,-0.016228,-0.013185
89,-0.088902,-2.211907,9.632400,-23.225233,-17.062708,50.382698,-12.642155,-1.853517,0.414055,0.993790,-0.110027,-0.016474,0.001810
90,0.018012,-2.377252,9.492533,-21.464535,-16.479460,49.761730,-13.607617,-1.752143,2.167308,0.992698,-0.118148,-0.017420,0.016966
91,0.127648,-2.576341,9.312304,-21.506008,-14.436024,46.201805,-14.578874,-1.691153,3.847198,0.991314,-0.126305,-0.018889,0.031421
92,0.372529,-2.560997,9.221636,-21.965546,-11.538257,40.691704,-15.523047,-1.704088,5.362234,0.989739,-0.134198,-0.021035,0.044338
93,0.415154,-2.595179,9.344919,-22.753002,-8.860361,34.671898,-16.366821,-1.766120,6.666231,0.988153,-0.141198,-0.023504,0.055352
94,0.211519,-2.578586,9.564959,-22.818510,-6.498244,26.827114,-17.078354,-1.729007,7.720115,0.986710,-0.147127,-0.024882,0.064331
95,-0.058215,-2.613634,9.567256,-21.438816,-4.526538,19.800280,-17.645609,-1.509604,8.510057,0.985508,-0.151977,-0.024361,0.071297
96,-0.292026,-2.532925,9.396172,-18.876425,-2.121257,13.309117,-18.057547,-1.115318,9.059582,0.984599,-0.155674,-0.021976,0.076473
97,-0.540967,-2.631063,9.406825,-16.645107,1.070051,6.213747,-18.342232,-0.561336,9.364684,0.983974,-0.158455,-0.017830,0.079809
98,-0.800140,-2.825948,9.424027,-10.576161,4.942076,-1.241683,-18.541224,0.152721,9.405444,0.983598,-0.160663,-0.011897,0.081129
99,-0.798880,-2.868787,9.317625,-7.209713,9.628962,-7.705247,-18.647604,0.943563,9.184443,0.983481,-0.162139,-0.004872,0.080333
100,-0.866812,-3.143507,9.497546,-7.409466,14.768953,-14.393149,-18.792322,1.743798,8.704539,0.983436,-0.163910,0.002581,0.077339
101,-0.867412,-3.411859,9.485869,-5.659283,17.859520,-19.729122,-19.077253,2.522125,7.986188,0.983288,-0.166782,0.010114,0.072295
102,-0.770953,-3.383665,9.323791,-7.063289,18.612204,-22.025507,-19.447605,3.184679,7.121236,0.983060,-0.170209,0.016851,0.065873
103,-0.607209,-3.252044,8.952777,-12.897016,17.434380,-21.807240,-19.919556,3.653274,6.223800,0.982678,-0.174318,0.021964,0.058946
104,-0.454170,-3.463772,8.895555,-17.757242,14.069681,-20.063128,-20.602102,3.874712,5.377982,0.981953,-0.180082,0.024841,0.052171
105,-0.082767,-3.351045,8.703082,-20.255335,9.216906,-18.754019,-21.397835,3.736202,4.628098,0.981049,-0.186691,0.024514,0.045701
106,0.074406,-3.437239,8.831216,-23.931313,5.589195,-17.525879,-22.193493,3.269080,3.977969,0.980123,-0.193243,0.021297,0.039531
107,0.161916,-3.747948,8.981505,-22.223831,1.982784,-15.884243,-23.011400,2.646449,3.420731,0.979070,-0.199999,0.016667,0.033844
108,0.235825,-3.789783,9.377228,-16.567179,-1.686173,-14.477599,-23.641766,1.938253,2.961508,0.978236,-0.205183,0.011257,0.028753
109,0.288979,-3.820977,9.567213,-6.996337,-4.918662,-12.076033,-23.864298,1.189583,2.610518,0.978038,-0.206920,0.005445,0.024431
110,0.174914,-3.789356,9.608330,0.394069,-8.443988,-7.576262,-23.714130,0.497741,2.407315,0.978419,-0.205513,-0.000066,0.021450
111,0.269164,-3.877106,9.583613,4.720404,-11.985978,-1.486428,-23.377018,-0.133716,2.407204,0.979052,-0.202522,-0.005398,0.020333
112,0.417610,-3.871251,9.497965,7.365073,-14.681083,3.753462,-22.996469,-0.788811,2.615986,0.979684,-0.199127,-0.011294,0.020996
113,0.348287,-3.835298,9.097399,3.358104,-17.096886,8.164799,-22.741337,-1.413731,3.003202,0.980025,-0.196756,-0.017257,0.023257
114,0.307289,-4.027235,8.582196,-3.990940,-17.504436,11.848331,-22.908226,-1.920245,3.538232,0.979582,-0.197954,-0.022545,0.026927
115,0.310420,-4.270913,8.391102,-8.868336,-15.574183,13.291859,-23.548187,-2.286954,4.154167,0.978269,-0.203171,-0.026918,0.031405
116,0.326790,-4.239364,8.448443,-9.871465,-12.400238,12.152023,-24.332178,-2.519646,4.747951,0.976658,-0.209624,-0.030201,0.035852
117,0.357271,-4.288500,8.512615,-10.613523,-7.601160,9.130732,-25.038225,-2.632025,5.223859,0.975179,-0.215461,-0.032273,0.039503
118,0.294230,-4.664191,8.821316,-6.942582,-0.777131,5.399908,-25.670580,-2.572257,5.516917,0.973878,-0.220783,-0.032547,0.041931
119,0.186211,-4.432672,9.075727,-1.852361,5.151268,0.791712,-26.018940,-2.307841,5.586385,0.973199,-0.223843,-0.030566,0.042943
120,0.138562,-4.204786,9.243276,2.934568,9.186046,-2.276817,-25.921198,-1.913687,5.456497,0.973463,-0.223221,-0.026929,0.042639
121,-0.077267,-4.058708,9.219738,8.090979,12.265658,-4.493856,-25.497459,-1.398141,5.192579,0.974395,-0.219894,-0.021883,0.041489
122,-0.448945,-3.783865,9.246696,12.985071,13.831737,-5.761682,-24.802677,-0.682200,4.847137,0.975830,-0.214316,-0.014890,0.040022
123,-0.427179,-3.454525,9.149440,16.693682,13.360769,-5.242624,-23.847239,0.101919,4.492229,0.977665,-0.206483,-0.007228,0.038530
124,-0.386761,-3.443592,9.222328,17.249741,12.041250,-4.558829,-22.816616,0.759048,4.178839,0.979522,-0.197900,-0.000723,0.037047
125,-0.345642,-3.410851,9.231915,15.590026,11.031345,-3.661469,-21.905067,1.274977,3.912670,0.981080,-0.190246,0.004431,0.035627
126,-0.393031,-3.372772,9.332911,11.143861,9.363681,-2.469644,-21.179417,1.693913,3.699906,0.982261,-0.184128,0.008590,0.034444
127,-0.261927,-3.205150,9.278023,7.578296,7.340349,-0.769729,-20.479826,1.976363,3.562008,0.983355,-0.178185,0.011439,0.033644
128,-0.126960,-3.236566,9.293318,1.958879,5.611251,0.724087,-19.898478,2.003599,3.499384,0.984259,-0.173194,0.011938,0.033089
129,-0.011326,-3.243825,9.337971,-3.125168,4.596010,1.355649,-19.666100,1.778619,3.481160,0.984656,-0.171143,0.010099,0.032574
130,0.156041,-3.283720,9.265546,-4.426646,3.463257,-0.439020,-19.690542,1.500116,3.453196,0.984674,-0.171284,0.007740,0.031921
131,0.537900,-3.367708,9.158072,-5.212526,0.862505,-1.238811,-19.874054,1.099907,3.402886,0.984469,-0.172762,0.004327,0.030900
132,0.709062,-3.670981,9.327937,-7.896805,-2.035994,-2.613950,-20.224596,0.447721,3.349289,0.984017,-0.175614,-0.001286,0.029455
133,0.620962,-3.511979,9.474668,-5.615689,-4.198941,-5.032804,-20.557222,-0.262804,3.267873,0.983561,-0.178298,-0.007343,0.027647
134,0.648173,-3.482515,9.351215,-1.721526,-6.151180,-5.106263,-20.677488,-0.946939,3.171914,0.983395,-0.179168,-0.013093,0.025744
135,0.485186,-3.643416,9.219937,-1.568995,-8.423697,-3.168492,-20.778433,-1.554533,3.130277,0.983215,-0.179886,-0.018263,0.024418
136,-0.028603,-3.552150,9.043265,-1.627111,-9.247706,-0.766688,-20.929810,-1.861369,3.176306,0.982941,-0.181097,-0.021000,0.024301
137,-0.238606,-3.570842,8.753667,-1.334293,-8.488933,3.715109,-21.104450,-1.805482,3.331335,0.982635,-0.182581,-0.020805,0.025688
138,-0.186762,-3.911458,8.648396,-3.103214,-7.467607,8.056564,-21.467358,-1.592469,3.617960,0.982001,-0.185702,-0.019525,0.028425
139,-0.173253,-4.037521,8.675446,-4.425225,-6.585197,10.423458,-22.022257,-1.348592,4.000389,0.981003,-0.190467,-0.018211,0.032012
140,-0.017980,-4.140742,8.938910,-4.497470,-4.518784,11.104159,-22.574591,-1.128789,4.410032,0.979959,-0.195203,-0.017183,0.035803
141,0.219481,-4.264007,9.055090,-2.404357,-1.875782,9.266994,-23.038252,-1.012767,4.770523,0.979044,-0.199154,-0.016963,0.039015
142,0.326717,-4.203392,9.194026,-0.652942,0.469488,5.636794,-23.354084,-0.996871,5.013158,0.978407,-0.201821,-0.017362,0.041068
143,0.259540,-4.061953,9.148976,1.266447,1.993747,2.749687,-23.514759,-1.017069,5.128469,0.978081,-0.203167,-0.017797,0.041992
144,0.017665,-3.981544,9.125602,3.466724,3.319840,0.314340,-23.516459,-0.862101,5.141524,0.978072,-0.203241,-0.016498,0.042379
145,-0.272225,-3.543524,8.994601,4.912101,4.374774,-1.672194,-23.131580,-0.329660,5.067796,0.978759,-0.200172,-0.011679,0.042736
147,-0.221393,-3.647693,8.953952,4.782894,3.475111,-1.198891,-22.597631,0.286673,4.973194,0.979671,-0.195847,-0.006049,0.043034
148,-0.338115,-3.628303,9.068435,4.378816,2.039727,-1.194097,-22.225985,0.773491,4.904254,0.980272,-0.192847,-0.001629,0.043281
149,-0.290425,-3.591839,9.144167,3.333819,0.668322,-0.931469,-21.901815,1.128931,4.858540,0.980781,-0.190198,0.001612,0.043482
150,0.002637,-3.645086,9.319397,1.037522,-0.625698,-0.682752,-21.664339,1.091592,4.836667,0.981187,-0.188152,0.001418,0.043230
151,0.247258,-3.829867,9.405846,-0.105348,-2.573149,-0.853803,-21.612019,0.734264,4.832835,0.981323,-0.187579,-0.001616,0.042614
152,0.274780,-3.601668,9.427263,-0.282337,-3.159475,-2.402765,-21.605366,0.326782,4.817570,0.981384,-0.187379,-0.005079,0.041818
153,0.473946,-3.561336,9.340165,-1.364098,-3.779413,-2.494483,-21.543179,-0.144086,4.784691,0.981533,-0.186680,-0.009036,0.040772
154,0.372657,-3.735320,9.250284,-1.403749,-3.947656,-4.077022,-21.570974,-0.618766,4.730396,0.981525,-0.186751,-0.013022,0.039530
155,0.018818,-3.499849,9.019783,-1.219118,-3.125297,-5.709806,-21.618450,-0.881386,4.622193,0.981487,-0.187077,-0.015111,0.038167
156,-0.234461,-3.462129,8.980757,-2.972332,-1.789896,-4.975752,-21.630114,-0.849172,4.485976,0.981513,-0.187206,-0.014617,0.037052
157,-0.373328,-3.572693,9.078632,-3.941237,-1.395796,-2.744687,-21.701303,-0.613828,4.385103,0.981427,-0.187908,-0.012459,0.036566
158,-0.385238,-3.647859,9.063409,-1.602019,-0.839679,-1.577083,-21.811893,-0.126386,4.331388,0.981245,-0.189021,-0.008232,0.036898
159,-0.352606,-3.552351,9.119088,-0.761183,0.317756,0.516799,-21.813189,0.491444,4.317760,0.981200,-0.189231,-0.002919,0.037801
160,-0.169150,-3.693891,9.232404,0.697691,0.641665,1.910134,-21.747078,0.855344,4.349730,0.981258,-0.188779,0.000166,0.038674
161,-0.064594,-3.637073,9.216093,3.268894,0.696636,3.249911,-21.665880,0.938158,4.421678,0.981356,-0.188110,0.000785,0.039426
162,0.044435,-3.563314,9.180061,4.366090,1.938609,3.394824,-21.495855,0.914823,4.509027,0.981607,-0.186647,0.000501,0.040135
163,-0.169737,-3.517472,9.079667,4.572155,2.815930,4.221842,-21.297232,0.965352,4.598776,0.981890,-0.184962,0.000859,0.040984
164,-0.215432,-3.319172,9.018365,4.441133,3.015881,6.287970,-20.988234,1.164310,4.729783,0.982309,-0.182382,0.002467,0.042420
165,-0.183219,-3.245207,8.971902,2.810192,2.072901,10.754375,-20.656822,1.380390,4.969225,0.982707,-0.179622,0.004068,0.044803
166,-0.239653,-3.145146,9.040054,1.093740,-0.074078,14.251801,-20.421150,1.557394,5.351484,0.982887,-0.177681,0.005086,0.048346
167,-0.269616,-2.975631,9.014171,0.448576,-2.173744,17.387589,-20.154415,1.712957,5.865187,0.983040,-0.175479,0.005747,0.052978
168,-0.153350,-2.760778,9.234130,-2.154182,-3.469316,18.559490,-19.810978,1.783785,6.470763,0.983252,-0.172594,0.005602,0.058263
169,0.036742,-2.370918,9.211002,-1.720079,-3.527528,15.054381,-19.303677,1.686570,7.053981,0.983719,-0.168218,0.004169,0.063104
170,0.154275,-2.353571,9.223699,-0.229914,-2.749676,9.403776,-18.677963,1.431909,7.490688,0.984429,-0.162721,0.001704,0.066475
171,0.357988,-2.388810,9.016839,1.250968,-1.279182,3.243466,-18.105347,1.044817,7.723507,0.985164,-0.157585,-0.001613,0.067939
172,0.389956,-2.384832,9.015602,1.861931,0.584936,-3.818689,-17.608976,0.589364,7.723740,0.985906,-0.153056,-0.005238,0.067342
173,0.290364,-2.471408,8.921812,3.870500,0.662295,-5.553809,-17.176767,0.198461,7.570371,0.986611,-0.149122,-0.008150,0.065534
174,0.232439,-3.135035,9.164518,2.515370,-1.152471,-1.868835,-17.151104,-0.191584,7.453964,0.986744,-0.148690,-0.011342,0.064027
175,0.366770,-3.273127,9.272717,1.986735,-1.819861,-0.953453,-17.575256,-0.692704,7.426244,0.986229,-0.152062,-0.015855,0.063078
176,0.158819,-3.445654,9.589160,1.445994,-2.290172,0.633412,-17.941204,-1.015149,7.447367,0.985734,-0.155024,-0.018858,0.062769
177,0.299037,-3.916174,9.945512,1.564538,-2.500815,4.620642,-18.251574,-1.113255,7.561392,0.985249,-0.157617,-0.020028,0.063563
178,0.561835,-4.116836,9.940145,2.282600,-0.804185,1.648086,-18.676495,-1.286656,7.687834,0.984588,-0.161145,-0.021931,0.064328
179,0.399695,-4.155776,9.839204,2.277318,0.936674,-3.035037,-19.128378,-1.463010,7.677745,0.983949,-0.164923,-0.023684,0.063898
180,0.048234,-4.297346,9.810142,1.823390,1.533332,-4.318313,-19.603073,-1.443266,7.562031,0.983322,-0.169033,-0.023609,0.062836
181,0.079311,-4.290539,9.630539,1.844010,1.940922,-5.049153,-20.096203,-1.303650,7.408689,0.982669,-0.173375,-0.022450,0.061632
182,-0.070395,-4.169508,9.149146,1.264950,1.565751,-7.499696,-20.590155,-1.152129,7.204129,0.982020,-0.177734,-0.021100,0.060019
183,-0.277424,-4.205760,8.853255,0.872020,0.725309,-6.425299,-21.126143,-0.919608,6.983754,0.981287,-0.182491,-0.019039,0.058405
184,-0.284613,-4.111178,8.783495,-0.071732,0.170285,-5.039587,-21.658104,-0.640052,6.807326,0.980507,-0.187219,-0.016631,0.057264
185,-0.246164,-3.982655,8.699059,-0.993965,-0.676241,-3.742400,-22.105299,-0.408033,6.678028,0.979819,-0.191181,-0.014655,0.056482
186,-0.158652,-4.033353,8.783913,-1.777435,-1.335070,-2.140023,-22.654392,-0.175842,6.601974,0.978911,-0.195999,-0.012812,0.056159
187,-0.167156,-3.948955,8.928886,-2.373173,-1.996938,-0.363684,-23.193632,0.069700,6.584760,0.977962,-0.200726,-0.010950,0.056381
188,-0.125802,-3.939022,9.175077,-5.069687,-2.747466,-0.464298,-23.470680,0.176891,6.602175,0.977454,-0.203141,-0.010203,0.056693
189,0.095317,-3.950657,8.866051,-4.405958,-2.552154,-1.550762,-23.665344,0.077029,6.606318,0.977116,-0.204751,-0.011158,0.056532
190,0.143579,-4.062462,9.058665,-6.217318,-2.114339,-1.837689,-23.907135,-0.119715,6.586170,0.976712,-0.206718,-0.012918,0.055982
191,0.095004,-4.068400,9.057919,-4.454939,-0.898278,-3.031008,-24.132904,-0.281976,6.532907,0.976343,-0.208569,-0.014314,0.055207
192,0.137598,-4.083735,9.062101,-2.494158,0.592479,-5.614432,-24.273323,-0.404384,6.403832,0.976158,-0.209722,-0.015188,0.053865
193,0.101265,-4.017664,9.107321,0.898002,1.724664,-5.483227,-24.277044,-0.488266,6.219232,0.976242,-0.209738,-0.015566,0.052138
194,-0.042923,-4.068365,9.344622,4.020147,1.805580,-3.478141,-24.117592,-0.461302,6.058285,0.976604,-0.208414,-0.014971,0.050838
195,-0.100021,-3.931197,9.175165,9.144421,2.001113,-2.087930,-23.735123,-0.265855,5.947099,0.977330,-0.205255,-0.012935,0.050290
196,-0.139625,-3.803048,9.134865,9.575074,1.572650,-1.196649,-23.166035,0.030788,5.873734,0.978345,-0.200537,-0.010025,0.050246
197,-0.182924,-3.770047,9.146052,10.657271,0.976335,2.119326,-22.591867,0.338772,5.873465,0.979307,-0.195767,-0.007140,0.050819
198,-0.209740,-3.518711,9.061351,11.643375,0.654659,3.793392,-21.952890,0.642109,5.957996,0.980308,-0.190431,-0.004402,0.052084
199,-0.144251,-3.356349,9.168444,9.895201,0.438146,5.862622,-21.190178,0.855946,6.106884,0.981455,-0.183992,-0.002462,0.053729
200,-0.077172,-3.343200,9.218554,8.731437,0.232112,7.377861,-20.488880,0.919885,6.314566,0.982454,-0.178007,-0.001908,0.055623
201,0.011293,-3.301697,9.253802,7.535462,0.138811,8.444405,-19.950424,0.843141,6.562714,0.983168,-0.173348,-0.002680,0.057645
202,0.034753,-3.142303,9.215416,4.859319,0.222418,8.644189,-19.493544,0.690890,6.830589,0.983737,-0.169344,-0.004154,0.059731
203,0.112166,-3.398993,9.159698,1.392458,0.295286,8.877521,-19.354481,0.496671,7.102506,0.983823,-0.168038,-0.006148,0.061787
204,0.054117,-3.366620,9.120732,-0.472518,0.409391,6.840289,-19.558788,0.324874,7.343668,0.983411,-0.169685,-0.008090,0.063591
205,0.007291,-3.339562,9.056194,-2.744885,0.555695,5.218162,-19.810013,0.259824,7.526782,0.982942,-0.171790,-0.009062,0.065047
206,0.015403,-3.460585,9.035657,-4.528902,0.250425,4.156087,-20.087606,0.257840,7.668675,0.982442,-0.174158,-0.009452,0.066238
207,0.012626,-3.617881,9.118517,-4.825155,0.271735,2.584364,-20.411776,0.262259,7.770542,0.981885,-0.176931,-0.009759,0.067091
208,0.010818,-3.637269,9.164321,-3.888470,0.015328,0.712033,-20.731127,0.245054,7.819726,0.981362,-0.179652,-0.010170,0.067458
209,-0.016291,-3.759951,9.169538,-3.971103,-0.108309,-0.348500,-21.037136,0.216054,7.825336,0.980879,-0.182255,-0.010607,0.067433
210,-0.013078,-3.843051,9.075557,-4.554297,-0.395205,-0.939043,-21.396629,0.182315,7.807615,0.980317,-0.185313,-0.011079,0.067193
211,-0.058846,-3.825491,9.133009,-5.612033,-0.625617,-1.483798,-21.768848,0.152791,7.775652,0.979732,-0.188483,-0.011497,0.066835
212,-0.056739,-3.755436,9.159996,-5.801402,-0.823962,-1.537196,-22.075052,0.132455,7.737508,0.979250,-0.191092,-0.011786,0.066444
213,-0.066905,-3.644902,9.234868,-5.403134,-0.569099,-1.277776,-22.261082,0.120085,7.702701,0.978960,-0.192678,-0.011941,0.066107
214,-0.026841,-3.652246,9.206329,-4.933054,-0.410381,-0.633825,-22.360981,0.110950,7.679520,0.978806,-0.193529,-0.012037,0.065883
215,0.049015,-3.533354,9.259124,-4.475101,0.337295,-1.837791,-22.386850,0.071698,7.642148,0.978788,-0.193731,-0.012324,0.065494
216,0.123830,-3.525704,9.165147,-3.737844,1.788358,-3.539235,-22.347595,-0.003906,7.546049,0.978918,-0.193364,-0.012785,0.064550
217,0.136519,-3.650122,9.095294,-4.757010,2.917421,-5.379551,-22.374887,-0.087196,7.378836,0.978974,-0.193569,-0.013230,0.062978
218,0.134008,-3.590649,9.034979,-6.334718,3.835912,-7.953835,-22.485348,-0.161533,7.130550,0.978928,-0.194501,-0.013504,0.060718
219,0.040380,-3.518329,9.065045,-7.234851,4.823127,-9.797178,-22.587137,-0.190300,6.801824,0.978928,-0.195394,-0.013243,0.057849
220,-0.056564,-3.535491,9.207929,-9.427366,4.821635,-10.024529,-22.685404,-0.141394,6.434494,0.978936,-0.196299,-0.012246,0.054784
221,-0.052202,-3.504221,9.224323,-10.569997,3.803916,-10.683698,-22.801405,-0.082072,6.059895,0.978906,-0.197356,-0.011149,0.051674
222,-0.117918,-3.297221,9.248315,-9.588404,3.266884,-11.329124,-22.820610,-0.039777,5.675369,0.979037,-0.197574,-0.010134,0.048460
223,-0.165434,-3.438541,9.257181,-10.523328,2.774146,-11.306179,-22.804516,0.017516,5.288217,0.979218,-0.197492,-0.008970,0.045252
224,-0.063908,-3.322360,9.115233,-10.997456,2.253911,-12.626061,-22.837137,0.024912,4.887998,0.979314,-0.197804,-0.008229,0.041842
225,-0.025232,-3.421142,8.876367,-13.694914,2.737666,-13.334076,-22.965000,-0.036360,4.457111,0.979247,-0.198906,-0.008052,0.038044
226,-0.143984,-3.490059,8.797492,-18.823292,2.986471,-11.507509,-23.313826,-0.046843,4.038715,0.978770,-0.201911,-0.007520,0.034428
227,-0.162180,-3.740715,8.936927,-25.772198,2.684485,-7.935253,-23.936695,0.029244,3.702991,0.977750,-0.207271,-0.006450,0.031660
228,-0.108933,-4.234150,8.876986,-30.826138,1.436401,-2.943899,-24.940386,0.117043,3.507892,0.975944,-0.215861,-0.005612,0.030106
229,-0.201189,-4.417499,9.109273,-29.704792,0.353118,2.326704,-26.105059,0.240600,3.483786,0.973697,-0.225802,-0.004821,0.030086
230,-0.285313,-4.437881,9.272882,-21.104712,-2.066822,8.773823,-26.975824,0.445384,3.659928,0.971887,-0.233240,-0.003671,0.031959
231,-0.318506,-4.603288,9.293271,-8.350931,-3.963349,14.566336,-27.390759,0.699471,4.050778,0.970892,-0.236817,-0.002441,0.035781
232,-0.131223,-4.760735,8.894197,3.307126,-5.853869,18.101955,-27.476105,0.889502,4.608773,0.970503,-0.237587,-0.002014,0.040899
233,-0.154319,-4.415522,8.928159,11.731793,-7.179894,20.801319,-27.190014,0.996706,5.285181,0.970817,-0.235188,-0.002392,0.046854
234,-0.060323,-4.491952,8.756519,14.599105,-7.715543,23.969118,-26.662565,1.072089,6.064058,0.971534,-0.230730,-0.003105,0.053621
235,0.147751,-4.494298,8.632809,12.401707,-6.234062,23.174011,-26.248125,1.052498,6.869299,0.971966,-0.227179,-0.004674,0.060424
236,0.190394,-4.541152,8.639597,6.339012,-3.780679,22.235411,-26.067575,0.979714,7.618426,0.971921,-0.225572,-0.006671,0.066644
237,0.002310,-4.318548,9.021634,3.441198,-1.479819,19.448956,-25.954994,1.008415,8.279551,0.971736,-0.224593,-0.007658,0.072314
238,-0.033213,-4.187316,9.012008,7.024198,0.326739,15.579144,-25.675259,1.131996,8.814764,0.971904,-0.222261,-0.007471,0.077111
239,0.039039,-4.323539,8.989174,12.253631,2.771108,9.966713,-25.282545,1.225646,9.177420,0.972389,-0.218967,-0.007104,0.080392
240,-0.055560,-4.210020,9.089621,12.014131,3.944305,2.553655,-24.821981,1.216965,9.318926,0.973163,-0.215043,-0.007121,0.081605
241,-0.096254,-3.929651,9.118835,15.737585,5.373909,-5.077581,-24.213564,1.185731,9.217727,0.974370,-0.209858,-0.006767,0.080725
242,-0.093540,-3.890871,8.895142,12.536368,5.714091,-11.672673,-23.618078,1.160253,8.889329,0.975681,-0.204793,-0.005978,0.077918
243,-0.266291,-4.058564,8.970845,11.291202,7.853419,-14.932058,-23.239576,1.175706,8.391968,0.976678,-0.201601,-0.004714,0.073726
244,-0.316574,-3.844144,9.049206,13.256551,6.805191,-19.253445,-22.875015,1.243120,7.771530,0.977685,-0.198552,-0.002829,0.068564
245,-0.083320,-3.821852,8.985663,20.007250,2.674504,-23.759504,-22.331804,1.108241,7.049250,0.979054,-0.193858,-0.002435,0.062180
246,-0.407970,-3.635882,9.125027,27.418707,1.377507,-21.549948,-21.526230,0.921293,6.324144,0.980798,-0.186894,-0.002415,0.055688
247,-0.280907,-3.524469,9.115624,36.466003,0.521616,-16.376999,-20.409084,0.850018,5.725464,0.982861,-0.177301,-0.001557,0.050464
248,0.122878,-3.464459,9.239577,34.627277,-1.852789,-14.907553,-19.215231,0.600814,5.243128,0.984888,-0.166959,-0.002470,0.045971
250,-0.155710,-3.478811,9.382051,30.514807,-1.048726,-9.926970,-18.211990,0.342802,4.864027,0.986483,-0.158243,-0.003764,0.042372
251,-0.465296,-3.337967,9.433104,28.465288,2.142191,-1.686908,-17.380703,0.464241,4.673923,0.987664,-0.151131,-0.002160,0.040920
252,-0.324897,-3.357108,9.356646,21.993536,0.595199,2.007451,-16.766840,0.742724,4.666504,0.988435,-0.145934,0.000471,0.041220
253,-0.307439,-3.214751,9.412785,20.508442,-0.608561,4.882350,-16.334665,0.927651,4.775239,0.988918,-0.142270,0.002088,0.042385
254,-0.449783,-3.071382,9.400348,20.630194,-0.728892,7.310157,-15.885818,1.131784,4.974410,0.989366,-0.138474,0.003776,0.044341
255,-0.218291,-2.766578,9.434084,18.231255,-2.602582,9.031440,-15.370774,1.265307,5.250623,0.989849,-0.134086,0.004806,0.046865
256,-0.127932,-2.512979,9.488032,17.973379,-4.078183,10.583298,-14.755186,1.219135,5.595720,0.990417,-0.128762,0.004271,0.049770
257,0.188527,-2.542282,9.475526,16.798439,-3.670990,6.612780,-14.152777,0.988242,5.904782,0.990974,-0.123465,0.002202,0.052173
258,0.040660,-2.750224,9.535507,14.217916,-1.788282,1.864023,-13.771199,0.712625,6.059542,0.991341,-0.120044,-0.000171,0.053217
259,-0.077849,-2.531273,9.328956,14.383963,-0.784342,0.031352,-13.503163,0.586308,6.096491,0.991615,-0.117667,-0.001178,0.053408
260,-0.227643,-2.439475,9.284330,12.438088,0.148104,-1.393840,-13.296729,0.651545,6.074173,0.991829,-0.115910,-0.000494,0.053283
261,-0.459554,-2.556304,9.355950,7.559171,0.761988,-1.654670,-13.364337,1.008736,6.016858,0.991746,-0.116656,0.002624,0.053147
262,-0.625797,-2.584728,9.340226,4.218415,-0.717606,3.736549,-13.546458,1.442963,6.044102,0.991483,-0.118426,0.006269,0.053831
263,-0.450583,-2.422387,9.376286,-0.115545,-2.732936,8.328150,-13.721031,1.754851,6.246903,0.991149,-0.120090,0.008673,0.055918
264,-0.434685,-2.357095,9.484512,-3.492592,-3.532259,10.293601,-13.902880,1.929639,6.569090,0.990761,-0.121770,0.009754,0.058900
265,-0.347941,-2.526437,9.547094,-6.982480,-4.145609,11.193911,-14.137016,1.947158,6.945049,0.990308,-0.123834,0.009379,0.062188
266,-0.175034,-2.682754,9.470462,-8.235481,-4.197556,11.970583,-14.539593,1.855724,7.348346,0.989661,-0.127294,0.007922,0.065604
267,0.040101,-2.605073,9.557331,-7.683295,-2.604732,9.251316,-14.942813,1.647738,7.715398,0.989035,-0.130683,0.005477,0.068566
268,-0.030816,-2.516746,9.567407,-8.455455,-1.475833,6.362662,-15.236083,1.427533,7.984708,0.988577,-0.133096,0.003088,0.070651
269,-0.028058,-2.588241,9.605100,-9.709735,-0.859579,5.057938,-15.511747,1.269556,8.180115,0.988161,-0.135384,0.001325,0.072159
270,0.031597,-2.462258,9.515512,-9.560100,0.125949,3.014666,-15.757668,1.124149,8.315418,0.987808,-0.137416,-0.000246,0.073155
271,0.061973,-2.401827,9.553760,-11.284173,1.027534,1.311671,-15.938287,0.978770,8.383591,0.987571,-0.138882,-0.001697,0.073568
272,-0.125178,-2.467378,9.578955,-14.138918,1.939898,-0.212763,-16.165724,0.922815,8.391635,0.987297,-0.140807,-0.002335,0.073565
273,-0.184609,-2.504120,9.579890,-14.176816,2.618924,-1.116109,-16.450218,0.982828,8.352335,0.986960,-0.143296,-0.001952,0.073295
274,-0.236314,-2.438791,9.593742,-14.332152,3.162195,-2.051484,-16.695337,1.093347,8.278033,0.986680,-0.145476,-0.001063,0.072790
275,-0.230326,-2.515079,9.585594,-14.551538,2.869265,-1.744752,-16.917318,1.210342,8.192966,0.986429,-0.147458,-0.000087,0.072205
276,-0.350200,-2.596993,9.616748,-14.601578,2.535168,-1.358661,-17.167578,1.346460,8.121634,0.986124,-0.149693,0.001020,0.071767
277,-0.245117,-2.565445,9.596890,-14.154145,1.666985,-0.673493,-17.397856,1.457762,8.073784,0.985829,-0.151740,0.001897,0.071503
278,-0.234730,-2.634004,9.583502,-14.445247,0.873498,0.705951,-17.610443,1.496076,8.067967,0.985542,-0.153591,0.002102,0.071507
279,-0.159540,-2.594160,9.532836,-14.142743,-0.058899,1.883957,-17.809921,1.480044,8.112170,0.985248,-0.155298,0.001780,0.071869
280,-0.111763,-2.860758,9.540230,-14.148556,-0.760938,3.103143,-18.060272,1.404739,8.201464,0.984866,-0.157406,0.000852,0.072538
281,-0.044279,-2.805842,9.536506,-12.565941,-0.835868,3.136668,-18.329016,1.287851,8.313479,0.984446,-0.159645,-0.000478,0.073341
282,-0.080442,-2.798456,9.526313,-11.909490,-0.892486,3.457068,-18.508020,1.172001,8.432649,0.984141,-0.161110,-0.001756,0.074202
283,-0.051294,-2.859983,9.518670,-11.030245,-0.778178,3.389889,-18.654104,1.075805,8.555041,0.983874,-0.162302,-0.002850,0.075115
284,-0.048282,-3.029793,9.492128,-10.021381,-0.525008,2.803893,-18.832067,0.983813,8.663488,0.983566,-0.163768,-0.003911,0.075911
285,-0.127780,-2.816532,9.432709,-8.272408,-0.137506,2.591767,-18.938099,0.937667,8.755880,0.983361,-0.164645,-0.004510,0.076635
286,-0.110680,-2.921490,9.404705,-8.090499,-0.152809,2.524617,-18.966492,0.927452,8.842232,0.983264,-0.164879,-0.004741,0.077360
287,-0.056424,-3.010135,9.394810,-7.150289,0.059223,1.546478,-19.039364,0.892280,8.909883,0.983119,-0.165478,-0.005190,0.077887
288,-0.082517,-3.014523,9.370849,-6.483258,0.133913,0.870469,-19.115557,0.845292,8.949378,0.982991,-0.166099,-0.005702,0.078155
289,-0.139685,-3.065430,9.421144,-6.454073,0.037743,0.588164,-19.187197,0.827902,8.973643,0.982873,-0.166701,-0.005935,0.078334
290,-0.070659,-3.110805,9.451302,-6.508835,-0.078264,-0.681416,-19.274475,0.798115,8.974310,0.982751,-0.167430,-0.006252,0.078292
291,-0.117206,-3.128951,9.463513,-5.852526,0.007144,-1.273490,-19.359190,0.752154,8.945733,0.982654,-0.168127,-0.006662,0.077975
292,-0.175319,-3.172720,9.454488,-5.281681,-0.201898,-1.198714,-19.433548,0.743590,8.909469,0.982571,-0.168761,-0.006732,0.077647
293,-0.197598,-3.080105,9.411330,-4.106541,-0.632159,-1.011005,-19.457932,0.759148,8.881069,0.982551,-0.168982,-0.006574,0.077425
294,-0.072335,-3.178575,9.433956,-3.419695,-0.902244,-0.936230,-19.449347,0.727794,8.860735,0.982583,-0.168889,-0.006807,0.077206
295,-0.091745,-3.069483,9.460102,-1.647781,-1.085414,-1.459638,-19.297665,0.636990,8.837025,0.982837,-0.167531,-0.007449,0.076879
296,-0.078905,-3.002728,9.400531,0.936120,-1.396765,-0.292322,-18.927725,0.541125,8.827242,0.983394,-0.164295,-0.008009,0.076682
297,-0.092576,-2.981949,9.379990,4.017441,-1.790483,0.817021,-18.485598,0.471032,8.856027,0.984011,-0.160451,-0.008356,0.076862
298,-0.019334,-3.172258,9.460570,5.717529,-1.520452,0.725449,-18.167982,0.381489,8.899080,0.984436,-0.157660,-0.008971,0.077132
299,-0.084503,-2.963665,9.443959,8.731348,-1.285500,0.522488,-17.840240,0.311921,8.933654,0.984868,-0.154795,-0.009395,0.077360
300,-0.113659,-2.931961,9.362741,11.189813,-0.662850,1.509786,-17.358301,0.348611,8.976872,0.985477,-0.150673,-0.008811,0.077819
301,-0.032297,-3.059797,9.451035,8.107422,-0.665872,0.441649,-17.052574,0.360785,9.014697,0.985848,-0.148049,-0.008547,0.078183
302,-0.105609,-2.997915,9.649715,7.524405,-0.436990,-0.544102,-16.877558,0.337302,9.017868,0.986074,-0.146527,-0.008634,0.078194
303,-0.153852,-2.867215,9.530563,9.798039,-1.056408,1.084092,-16.584887,0.399461,9.033898,0.986426,-0.144049,-0.007919,0.078431
304,-0.182856,-2.850141,9.538553,9.898764,-1.802395,2.263690,-16.245750,0.519694,9.101688,0.986785,-0.141206,-0.006735,0.079186
305,-0.105014,-2.959417,9.560103,10.635617,-2.562188,2.671145,-16.028326,0.564513,9.200426,0.986977,-0.139358,-0.006319,0.080103
306,-0.161544,-2.961613,9.550165,14.460854,-2.446174,3.313570,-15.803304,0.544425,9.317582,0.987169,-0.137400,-0.006475,0.081101
307,-0.034142,-2.917118,9.404758,15.507420,-2.226440,3.455479,-15.467013,0.500774,9.445695,0.987482,-0.134464,-0.006764,0.082172
308,0.036278,-3.095823,9.623357,15.369769,-1.487975,1.857809,-15.188773,0.398768,9.545096,0.987748,-0.131987,-0.007558,0.082928
309,0.106568,-3.085776,9.738122,16.466515,-0.941830,-0.986556,-14.955418,0.257068,9.566934,0.988015,-0.129872,-0.008636,0.082972
310,-0.001271,-3.213069,10.007833,13.678211,-1.164715,-2.250051,-14.780402,0.131384,9.521606,0.988259,-0.128277,-0.009542,0.082454
311,0.008225,-2.522635,10.446471,9.349025,-0.386527,-4.310061,-14.499207,0.052147,9.421629,0.988650,-0.125803,-0.009914,0.081527
312,-0.291459,-2.476911,11.868157,-7.821888,1.688825,-1.085756,-14.229341,0.122754,9.329495,0.989002,-0.123532,-0.009013,0.080831
313,-0.935399,-4.072597,12.746128,-24.971825,7.869242,10.540377,-14.823394,0.641332,9.440247,0.988207,-0.129015,-0.005084,0.082319
314,-0.653574,-4.835466,14.315695,-30.331486,4.892623,9.058818,-16.198086,1.290190,9.687466,0.986294,-0.141314,-0.000789,0.085171
315,-0.488518,-5.919493,14.408462,-16.048130,5.152223,10.712956,-17.586597,1.692773,9.936921,0.984230,-0.153544,0.001305,0.087830
316,-0.409240,-6.671234,13.642727,12.244366,5.919805,6.576151,-18.553480,1.980774,10.128263,0.982676,-0.162056,0.002765,0.089879
317,-0.292112,-6.940639,12.001346,42.636093,6.586582,2.320271,-18.877275,2.171385,10.162107,0.982134,-0.164973,0.004097,0.090445
318,0.081606,-5.227456,11.612860,74.671501,6.781660,-7.749444,-17.976183,2.150498,9.967239,0.983559,-0.157221,0.004896,0.088710
319,-0.276483,-5.089493,10.281117,88.328918,11.740672,-5.913884,-16.127028,2.175127,9.621418,0.986224,-0.141327,0.006965,0.085673
320,-0.439873,-4.163973,9.964617,95.586510,10.439027,-6.728788,-14.004527,2.442711,9.282940,0.988851,-0.123193,0.011224,0.082889
321,-0.556392,-2.448856,9.459743,102.634171,6.773839,-5.384449,-11.154400,2.741593,9.008412,0.991726,-0.098729,0.016106,0.080456
322,-0.509889,-1.591347,9.365801,93.002617,3.961651,-5.094498,-7.843674,2.961738,8.815246,0.994240,-0.070152,0.020452,0.078408
323,-0.454290,-0.580560,8.384768,77.978806,-2.981274,-5.410335,-4.668840,2.987559,8.659479,0.995900,-0.042568,0.022898,0.076467
324,-0.445755,0.658183,7.495378,61.222214,-4.804712,-6.025220,-1.515784,2.882384,8.523170,0.996808,-0.015055,0.024097,0.074612
325,-0.361331,2.359983,6.865003,34.533195,-2.027485,-5.957951,1.922935,2.801971,8.419969,0.996893,0.014935,0.025611,0.072971
326,-0.811883,1.927043,7.219707,-9.810512,2.094341,-0.490433,4.383973,3.029481,8.419621,0.996298,0.036192,0.029150,0.072321
327,-1.045146,2.510030,7.178566,-27.905706,2.064524,1.137804,5.473053,3.618027,8.533987,0.995707,0.045241,0.034995,0.072779
328,-0.304326,1.937278,6.756522,-43.414654,0.668629,2.805737,5.857646,3.894112,8.699343,0.995374,0.048345,0.037707,0.073969
329,-0.241356,1.982066,6.376050,-44.854839,1.004110,5.207686,5.759801,3.731977,8.924584,0.995309,0.047534,0.036329,0.076032
330,-0.603577,0.705480,5.336255,-43.657429,0.822609,3.631471,5.114220,3.806173,9.129629,0.995404,0.041809,0.036620,0.077987
331,0.105584,-0.199283,4.566279,-32.590374,-1.193343,-0.648767,3.482052,3.645348,9.155331,0.995923,0.027732,0.034114,0.078770
332,0.154736,-0.929969,3.679688,-17.746723,-1.557427,-3.606077,1.078118,2.920374,9.001908,0.996567,0.007377,0.026141,0.078208
333,-0.198619,-0.767336,3.061348,-5.850245,-0.233348,-7.613285,-1.343923,2.572981,8.720777,0.996766,-0.013398,0.021494,0.076268
334,-0.323077,-1.299234,2.489028,4.986591,-2.578274,-8.507627,-3.879159,2.824896,8.331223,0.996423,-0.035535,0.022112,0.073408
335,-0.009926,-1.096099,2.742712,12.923947,-5.350727,-6.983400,-6.267948,2.773670,7.948304,0.995720,-0.056198,0.020320,0.070502
336,-0.087550,-0.712337,2.796563,16.562674,-7.514772,-5.915379,-7.385488,2.313773,7.685535,0.995390,-0.065598,0.015787,0.068163
337,0.051394,-0.932590,3.230755,16.277464,-8.751108,0.177537,-7.882874,1.771645,7.581965,0.995263,-0.069598,0.010845,0.067013
338,-0.005440,-1.159752,4.168485,20.945436,-11.183828,-0.191838,-8.281367,1.139355,7.594353,0.995103,-0.072700,0.005113,0.066765
339,-0.097179,-0.690001,5.797809,16.280170,-9.592440,0.900685,-8.044187,0.681385,7.642497,0.995274,-0.070379,0.001244,0.066895
340,0.381312,-0.168268,8.408246,8.213301,-6.392861,-2.956884,-7.112914,0.196671,7.647714,0.995844,-0.062008,-0.002428,0.066667
341,-0.032599,0.350344,10.624844,-4.844250,-4.455207,-6.373461,-6.067132,-0.206674,7.516004,0.996456,-0.052689,-0.005266,0.065355
342,-0.412964,0.585244,12.684373,-15.348777,-0.771454,-10.278287,-5.300855,-0.193179,7.248392,0.996936,-0.046043,-0.004604,0.063066
343,-0.233435,0.592149,14.643247,-30.577682,0.991254,-13.195833,-5.049279,-0.027112,6.856408,0.997242,-0.043956,-0.002870,0.059729
344,-0.494078,0.254520,15.907111,-36.042419,2.708161,-14.352466,-5.313521,0.174063,6.391500,0.997367,-0.046365,-0.001069,0.055758
345,-1.038930,0.037342,15.862666,-34.703232,-0.266948,-8.750751,-5.783754,0.513015,6.003194,0.997335,-0.050616,0.001823,0.052522
347,-0.921695,-1.423029,15.957852,-28.809599,-0.797443,-0.532065,-6.462212,0.875515,5.848619,0.997059,-0.056678,0.004743,0.051364
348,-0.161475,-1.726397,16.017179,-25.295311,-3.142585,-3.492339,-7.302770,0.956536,5.786948,0.996636,-0.064023,0.005105,0.050906
349,-0.718963,-1.936633,15.849817,-25.916309,-1.642492,-0.873835,-8.116799,0.950408,5.725011,0.996184,-0.071096,0.004728,0.050399
350,-0.099236,-2.735904,15.622885,-33.298862,-3.171383,-0.321442,-9.196332,0.932290,5.714352,0.995477,-0.080469,0.004103,0.050336
351,0.039041,-4.043590,15.235726,-41.074070,-2.977726,-3.748702,-10.903478,0.715554,5.659312,0.994214,-0.095196,0.001518,0.049735
352,0.193005,-3.855731,14.591225,-34.055611,-0.565443,-10.497918,-12.754463,0.452047,5.434879,0.992666,-0.111134,-0.001350,0.047554
353,-0.206334,-4.564129,13.335178,-26.844921,0.548398,-8.843839,-14.397665,0.311146,5.119129,0.991109,-0.125308,-0.002905,0.044646
354,0.000199,-4.977230,12.718940,-12.938729,3.388153,-5.419668,-15.879687,0.317062,4.867444,0.989500,-0.138125,-0.003128,0.042438
355,-0.208968,-4.597208,12.019924,14.790914,4.369350,-4.687222,-16.599989,0.412966,4.665977,0.988678,-0.144381,-0.002313,0.040800
356,-0.450743,-3.783705,11.371483,47.442093,7.476323,-0.471038,-15.992099,0.726017,4.526287,0.989451,-0.139241,0.000776,0.039985
357,-0.382318,-3.167500,10.804444,59.411270,6.518279,4.015251,-14.345914,1.152068,4.525653,0.991300,-0.125155,0.005037,0.040427
358,0.037741,-2.046206,10.477346,68.213051,7.433821,3.777211,-12.033804,1.399997,4.605679,0.993562,-0.105218,0.007928,0.041237
359,-0.244689,-0.528293,9.326319,75.163116,6.449494,3.185149,-8.891050,1.570498,4.691582,0.996019,-0.077998,0.010480,0.041865
360,-0.398849,0.409464,8.733043,59.719395,8.141837,4.587534,-5.377726,1.900103,4.824828,0.997844,-0.047561,0.014573,0.042817
361,-0.213448,1.168390,8.032469,37.006554,7.124096,3.928408,-2.200297,2.206619,5.001045,0.998662,-0.020018,0.018396,0.043982
362,-0.563543,1.971496,7.459449,12.170056,8.972129,6.925420,0.515813,2.582057,5.248641,0.998692,0.003464,0.022713,0.045674
363,-0.806678,2.651863,7.272095,-16.843964,6.611987,9.615756,2.688818,3.179471,5.635736,0.998164,0.022061,0.028854,0.048479
364,-0.781682,1.943083,7.724640,-44.565979,5.512298,10.976993,3.586527,3.735442,6.092846,0.997622,0.029501,0.034192,0.052072
365,-0.018459,1.536108,7.230675,-51.459995,2.370334,12.187158,3.244275,3.778650,6.560981,0.997472,0.026360,0.034521,0.056238
366,-0.116823,0.957447,6.622788,-55.409508,2.803176,12.756432,2.325167,3.451279,7.039647,0.997493,0.018394,0.031296,0.060744
367,-0.363808,0.358837,5.862707,-47.925858,0.994735,11.663915,1.012767,3.337168,7.479221,0.997425,0.006916,0.029631,0.064935
368,0.119464,-0.971522,4.926826,-30.975258,-1.711108,11.225929,-0.962191,3.042187,7.827301,0.997266,-0.010186,0.025909,0.068449
369,0.350600,-1.479636,3.559201,-9.500613,-2.586516,8.155611,-3.690127,2.193182,8.065925,0.996781,-0.033457,0.016817,0.070896
370,-0.323677,-1.693920,2.536211,5.492057,-0.172814,1.375752,-6.846669,1.917387,8.118909,0.995501,-0.060737,0.012433,0.071652
371,-0.207276,-1.558829,1.853915,11.615193,-3.874076,-1.731155,-10.298865,2.308383,7.972525,0.993227,-0.090913,0.013775,0.071026
372,0.276475,-1.649049,1.454159,15.683876,-6.888207,-0.820481,-13.998844,1.761957,7.812158,0.989997,-0.122601,0.006925,0.069475
373,-0.378288,-1.499504,1.884656,17.813757,-5.650790,-0.785546,-17.105293,1.443096,7.735333,0.986423,-0.149208,0.002394,0.068565
374,-0.395516,-1.614409,2.586658,18.930616,-8.521489,2.739549,-18.869354,2.054937,7.746814,0.983863,-0.164717,0.006577,0.069560
375,0.283054,-1.344780,4.536983,12.516133,-11.002593,0.349927,-19.104841,1.794523,7.872920,0.983509,-0.166598,0.004015,0.070283
376,-0.414386,-0.903479,6.944072,4.732023,-8.939857,2.316777,-17.942112,1.252804,8.045751,0.985155,-0.156300,-0.000167,0.070993
377,-0.485481,-0.625591,10.095802,-5.971719,-3.728590,-4.478032,-16.347878,1.236977,8.116981,0.987193,-0.142570,0.000596,0.071583
378,-0.484053,-1.396323,12.518880,-30.292959,-1.608892,-4.976906,-15.445133,1.263740,8.026184,0.988337,-0.134804,0.001497,0.070824
379,-0.568508,-0.998397,14.700284,-28.566881,-1.060939,-6.746897,-15.092295,1.290786,7.879841,0.988832,-0.131773,0.002117,0.069587
380,-0.712038,-0.607541,15.308439,-20.742970,-1.549056,-3.408076,-14.406466,1.353711,7.762181,0.989663,-0.125886,0.003206,0.068625
381,-0.342983,-1.263672,15.877362,-22.027451,-1.408577,-5.220806,-13.715441,1.352189,7.668484,0.990460,-0.119912,0.003705,0.067793
382,0.041721,-2.344446,15.494748,-17.707840,-3.905127,-2.118604,-13.447715,1.137011,7.592359,0.990817,-0.117474,0.002081,0.066908
383,-0.007578,-1.682962,14.951015,4.107798,-4.843787,-2.484855,-12.917894,0.815007,7.566280,0.991410,-0.112710,-0.000370,0.066358
384,0.362275,-2.145209,14.721896,-8.011658,-1.984475,-4.454870,-12.257192,0.472023,7.488472,0.992125,-0.106799,-0.002885,0.065368
385,0.135484,-2.965667,15.102651,-27.047096,0.581871,-5.629886,-12.482001,0.213971,7.333413,0.992024,-0.108607,-0.005100,0.063776
386,-0.037175,-3.887296,15.716832,-38.238251,5.663116,-5.393385,-13.587320,0.207463,7.132817,0.991041,-0.118177,-0.005564,0.061982
387,-0.233457,-4.708931,16.213947,-38.464424,6.859483,-3.830829,-15.117689,0.402707,6.931624,0.989463,-0.131514,-0.004475,0.060389
388,-0.255912,-5.431269,15.893603,-22.073465,9.433805,-4.422869,-16.525450,0.692150,6.721641,0.987849,-0.143813,-0.002458,0.058881
389,-0.470936,-5.256564,14.751390,3.502000,9.920696,-4.081033,-17.265335,1.053707,6.487423,0.986967,-0.150367,0.000584,0.057318
390,-0.928144,-5.455819,13.330910,23.088106,8.863525,1.513089,-17.329165,1.569529,6.345313,0.986865,-0.151154,0.005182,0.056768
391,-0.610043,-4.850554,11.411088,45.138367,6.794686,5.277624,-16.857788,2.095565,6.362661,0.987360,-0.147335,0.009927,0.057564
392,-0.528516,-3.609791,10.426614,50.756165,4.382356,7.644362,-15.748829,2.454041,6.505085,0.988582,-0.137954,0.013407,0.059118
393,-0.547093,-3.601175,10.613999,36.204506,4.649477,14.359966,-14.612108,2.757573,6.808981,0.989662,-0.128326,0.016275,0.061940
394,-0.501171,-3.490507,10.484914,37.600163,2.911470,17.778019,-13.781948,3.024073,7.278570,0.990228,-0.121360,0.018530,0.066154
395,-0.636086,-2.505825,10.044554,54.783276,1.071236,19.389387,-12.461843,3.250962,7.855668,0.991148,-0.110169,0.020701,0.071139
396,-0.297948,-1.419794,10.046349,63.133484,-2.597181,18.440262,-10.199542,3.281857,8.494354,0.992710,-0.090722,0.021864,0.076274
397,-0.188339,-0.958610,9.246524,67.707405,-1.164645,17.921429,-7.443646,3.081239,9.126795,0.994229,-0.066818,0.021581,0.081105
398,-0.315079,0.751746,7.571037,69.855820,-0.276792,11.443915,-4.047781,2.932769,9.663917,0.995422,-0.037333,0.022510,0.085054
399,-0.736049,1.638017,7.001719,42.010170,1.838328,8.927805,-0.300703,3.114208,10.100288,0.995740,-0.005005,0.026837,0.088066
400,-0.229665,1.688531,7.033805,2.689610,3.936623,6.703157,2.368387,3.313927,10.473351,0.995252,0.017933,0.030674,0.090617
401,-0.403706,1.789188,6.974017,-24.135557,4.389721,4.060373,3.621894,3.363405,10.746977,0.994766,0.028702,0.032162,0.092637
402,-0.778003,1.908079,6.636049,-41.289528,3.292845,1.499971,4.050562,3.678466,10.936395,0.994423,0.032105,0.035295,0.094056
403,-0.153223,1.454004,6.700622,-53.119850,1.876859,2.987848,3.760792,3.808196,11.095502,0.994336,0.029431,0.036224,0.095485
404,0.050232,0.889208,5.713655,-51.133522,-0.823051,3.824165,2.859611,3.404658,11.267272,0.994494,0.021905,0.032003,0.097356
405,-0.183350,-0.023870,5.186155,-39.203674,-2.682098,0.696059,1.481127,2.990304,11.358043,0.994703,0.010275,0.027241,0.098578
406,-0.102297,-0.718892,4.066285,-19.187798,-3.188947,0.256537,-0.400939,2.711751,11.330641,0.994823,-0.005817,0.023201,0.098772
407,0.202897,-0.987695,2.903456,-4.130891,-3.885424,-2.246102,-2.632364,2.099757,11.222774,0.994737,-0.024647,0.015985,0.098157
408,-0.301039,-1.509437,2.053218,9.354158,-5.431296,-3.808802,-5.647674,1.848383,11.022906,0.993963,-0.050578,0.011304,0.096707
409,-0.062047,-1.364321,2.148918,18.837585,-6.373914,-4.037839,-8.766345,1.924955,10.779106,0.992407,-0.077651,0.009497,0.094917
410,0.047081,-1.066020,2.084769,23.886276,-7.193586,-6.677849,-10.795046,1.465589,10.551930,0.991156,-0.094830,0.004030,0.092736
411,-0.224541,-1.606078,2.848942,21.698133,-6.137669,-5.731861,-12.304482,1.177742,10.330994,0.990051,-0.107650,0.000528,0.090607
412,-0.174383,-1.007600,4.880247,19.639719,-9.003076,-8.957651,-12.720236,1.087588,10.115834,0.989838,-0.111172,-0.000370,0.088663
413,-0.685860,-0.438531,7.258599,8.985000,-7.224957,-8.968224,-11.633571,1.082235,9.894454,0.991018,-0.101776,0.000621,0.086744
414,0.076152,-0.702123,9.676340,-1.936187,-8.248632,-17.261549,-10.482610,0.919429,9.540251,0.992277,-0.091696,0.000366,0.083538
415,-0.760754,-0.510809,11.980259,-10.124540,-4.738911,-14.101319,-9.723462,0.687965,9.081271,0.993217,-0.084957,-0.000746,0.079387
416,-0.231434,0.155995,14.086135,-20.615276,-5.445173,-14.696365,-9.097794,0.628212,8.653534,0.993961,-0.079495,-0.000534,0.075639
417,-0.530256,-0.645755,14.882357,-28.444921,-0.951188,-12.039690,-8.863571,0.558093,8.243137,0.994393,-0.077420,-0.000711,0.072033
418,0.193637,-1.307540,15.217209,-31.895681,-3.206496,-10.318435,-9.213624,0.438718,7.893219,0.994377,-0.080389,-0.001721,0.068911
419,-0.473899,-1.242433,15.319302,-32.592319,0.284824,-4.359689,-9.757253,0.352878,7.664840,0.994127,-0.085060,-0.002623,0.066857
420,0.056408,-1.645920,14.676742,-32.666431,-0.565055,-2.960401,-10.350430,0.374182,7.548529,0.993739,-0.090220,-0.002693,0.065851
421,0.020876,-2.628411,14.217827,-31.915409,0.467912,-4.539747,-11.225320,0.284870,7.427804,0.993097,-0.097757,-0.003866,0.064706
422,-0.147138,-3.222927,14.069876,-29.548847,-0.992411,-2.037232,-12.362617,0.244074,7.322414,0.992140,-0.107590,-0.004763,0.063714
423,-0.031086,-2.983301,14.237474,-25.346544,-0.734515,-6.018369,-13.349682,0.196985,7.197263,0.991249,-0.116112,-0.005592,0.062541
424,-0.303161,-3.515674,14.394650,-24.731585,-1.167809,-6.215198,-14.175308,0.171417,7.006380,0.990492,-0.123248,-0.006058,0.060821
425,0.062054,-3.988263,14.975489,-24.144194,-0.366651,-6.740105,-15.059975,0.128026,6.802765,0.989621,-0.130880,-0.006669,0.058965
426,-0.258335,-3.868025,14.937341,-18.486080,1.136420,-8.829086,-15.783088,0.098316,6.549094,0.988905,-0.137123,-0.006994,0.056697
427,-0.323432,-3.682317,14.571690,-2.550663,3.353748,-7.609828,-16.000669,0.218433,6.264723,0.988771,-0.139074,-0.005720,0.054376
428,-0.379725,-4.035697,13.165832,14.081970,4.521281,-3.897195,-15.774849,0.448535,6.044526,0.989126,-0.137240,-0.003363,0.052761
429,-0.184745,-3.931653,12.032548,18.235258,5.102798,-1.620476,-15.447626,0.687744,5.912116,0.989549,-0.134523,-0.000991,0.051907
430,-0.216592,-3.405100,10.757634,23.241451,3.135946,-0.443973,-15.034489,0.861256,5.840464,0.990040,-0.131031,0.000777,0.051488
431,-0.422488,-3.047865,9.985225,18.599247,1.979446,6.750800,-14.589160,1.087450,5.917650,0.990477,-0.127282,0.002847,0.052402
432,0.050495,-3.168020,10.288233,3.562407,2.273959,9.282309,-14.493986,1.229773,6.154238,0.990452,-0.126529,0.003859,0.054600
433,-0.360983,-3.329953,10.882693,5.977528,2.934625,13.107780,-14.642734,1.360034,6.487090,0.990103,-0.127887,0.004543,0.057625
434,-0.175432,-2.584430,10.449549,29.783342,1.755099,13.139823,-14.146704,1.554513,6.889314,0.990405,-0.123715,0.006040,0.061289
435,-0.072089,-2.013715,10.514682,38.048092,2.652212,15.833057,-12.750397,1.637607,7.347934,0.991571,-0.111709,0.007058,0.065260
436,-0.013116,-1.057242,9.766286,53.079277,3.796431,14.061428,-10.602308,1.673208,7.826728,0.993203,-0.093158,0.008200,0.069295
437,-0.314269,-0.067521,8.422865,55.427540,4.319729,9.230367,-7.744008,1.800081,8.213252,0.994957,-0.068468,0.010797,0.072499
438,-0.118183,1.028762,7.552514,32.900890,4.244920,4.234549,-4.679184,1.940359,8.468665,0.996245,-0.041954,0.013858,0.074453
439,-0.501441,1.386203,7.015119,-0.442580,5.093432,4.957926,-2.200692,2.182043,8.675327,0.996743,-0.020585,0.017531,0.075971
440,-0.601623,1.859171,6.835662,-27.792068,5.218962,4.282063,-0.619279,2.662770,8.906109,0.996688,-0.007190,0.022745,0.077745
441,-0.278466,1.306771,7.418694,-52.996529,3.577252,3.996818,-0.230059,2.951155,9.118693,0.996499,-0.004048,0.025510,0.079517
442,0.170906,0.935600,7.299740,-61.143467,1.481761,6.261362,-0.994451,2.741179,9.344902,0.996337,-0.010595,0.023132,0.081640
443,0.147474,0.961746,6.953171,-59.108051,0.741006,6.601704,-1.966790,2.274758,9.616306,0.996109,-0.018762,0.018339,0.084130
444,0.178141,0.115903,6.380421,-48.707886,0.291735,4.009185,-3.016778,1.814348,9.834596,0.995814,-0.027580,0.013513,0.086093
445,0.406420,-1.162505,5.871553,-29.847874,-1.494391,0.639895,-4.644321,1.204144,9.917841,0.995347,-0.041272,0.006958,0.086790
446,0.007829,-1.225034,3.963783,-9.545625,-2.561588,0.723744,-6.585279,0.704709,9.932033,0.994552,-0.057751,0.001145,0.086772
447,-0.307598,-1.398191,3.236052,3.318570,-3.975868,-1.861179,-8.495574,0.782430,9.900147,0.993467,-0.074380,0.000393,0.086552
448,0.132891,-2.159485,2.750916,16.478996,-4.644094,-6.493931,-10.966139,0.707018,9.742143,0.991760,-0.095726,-0.001994,0.085111
450,0.435638,-1.858243,3.151557,25.435284,-7.371758,-5.793736,-13.226476,-0.175538,9.560625,0.989904,-0.114639,-0.011114,0.082605
451,-0.138420,-1.840346,3.473445,32.921730,-7.834541,-3.900154,-14.350110,-0.788062,9.467767,0.988832,-0.123909,-0.017108,0.081024
452,0.133024,-1.671284,5.723537,29.592316,-10.155337,-5.744961,-14.335056,-1.012331,9.389926,0.988908,-0.123630,-0.018948,0.080110
453,-0.013753,-1.451755,7.725161,22.258863,-11.130354,-5.194091,-13.358759,-1.361380,9.295000,0.989989,-0.114967,-0.021184,0.079092
454,-0.607150,-0.709214,10.171152,11.761580,-12.469637,0.090278,-11.979327,-1.397402,9.285253,0.991307,-0.103017,-0.020533,0.079224
455,-0.384346,-1.091808,12.487684,-4.302006,-11.432885,-0.130867,-10.839865,-1.294171,9.349645,0.992241,-0.093218,-0.018903,0.080068
456,-0.227590,-0.388767,14.027705,-13.357025,-11.592665,1.340183,-10.125369,-1.333285,9.421914,0.992751,-0.086990,-0.018797,0.080780
457,0.437845,-0.487165,14.962092,-24.066046,-7.457248,-0.492457,-9.660591,-1.527698,9.467794,0.993054,-0.082814,-0.020187,0.081109
458,0.262351,-0.571314,15.550048,-26.246803,-4.692250,-0.701538,-9.514099,-1.718545,9.457612,0.993154,-0.081407,-0.021730,0.080907
459,1.080245,-1.401701,14.986485,-24.718378,-1.416236,-2.093234,-9.631632,-1.941790,9.408449,0.993087,-0.082273,-0.023712,0.080293
460,0.686033,-1.267306,14.369517,-19.517298,1.722336,-3.672633,-9.819044,-2.151655,9.296050,0.993010,-0.083770,-0.025579,0.079121
461,0.749594,-1.954997,13.856042,-21.382973,5.268450,-7.351682,-10.095048,-2.175073,9.081327,0.992949,-0.086193,-0.025811,0.077181
462,0.316187,-2.473410,12.820176,-14.467399,4.133151,-5.793716,-10.623501,-2.068476,8.835619,0.992714,-0.090900,-0.025049,0.075020
463,0.468370,-3.290681,12.408990,-15.249093,4.011137,-3.649765,-11.428166,-1.917827,8.665967,0.992174,-0.098008,-0.024126,0.073505
464,0.082180,-3.139440,13.371554,-17.549162,3.071290,-4.212789,-12.345429,-1.732704,8.525559,0.991460,-0.106099,-0.022982,0.072270
465,-0.213517,-3.594021,14.193414,-19.984846,3.860529,-2.787493,-13.195187,-1.386869,8.390380,0.990745,-0.113700,-0.020395,0.071278
466,-0.197787,-4.574995,14.674863,-19.706099,5.635559,-2.900313,-14.227758,-0.962734,8.265718,0.989762,-0.122915,-0.017240,0.070474
467,-0.676795,-4.872773,14.692052,-3.177962,6.643117,-0.855448,-15.121989,-0.431742,8.158511,0.988822,-0.130982,-0.013086,0.070023
468,-0.501350,-4.450977,13.938581,13.228229,6.489470,-0.956029,-15.372994,0.137442,8.074248,0.988544,-0.133504,-0.008231,0.069930
469,-0.338851,-4.611831,12.132681,22.811899,5.024882,-0.855236,-15.273702,0.549151,7.995211,0.988663,-0.132900,-0.004526,0.069731
470,0.002821,-4.598472,10.504234,30.353399,3.100757,-1.519003,-15.248989,0.719452,7.915737,0.988718,-0.132791,-0.002950,0.069242
471,0.035280,-3.483700,9.325036,30.195101,0.669843,-4.448825,-15.089192,0.661770,7.794023,0.988983,-0.131381,-0.003212,0.068130
472,0.156331,-3.252896,8.974947,10.277884,1.513479,-6.702681,-15.045031,0.491381,7.597280,0.989169,-0.130909,-0.004431,0.066240
473,0.125869,-3.413761,9.410868,-4.236000,2.811818,-4.378764,-15.552866,0.336438,7.394945,0.988711,-0.135213,-0.005823,0.064291
474,-0.219824,-3.781088,10.282106,4.825678,5.439430,-2.086839,-16.138857,0.414252,7.250503,0.988079,-0.140317,-0.005304,0.063110
475,-0.454280,-3.756550,10.930316,28.132042,6.924369,-0.435730,-16.056711,0.766284,7.150106,0.988192,-0.139801,-0.002100,0.062676
476,-0.455374,-3.344232,11.352901,54.481457,5.989241,7.335882,-14.877817,1.209192,7.204983,0.989483,-0.129863,0.002308,0.063665
477,-0.357972,-2.439481,11.539095,78.119789,4.573337,12.600373,-12.500259,1.582065,7.495312,0.991738,-0.109523,0.006579,0.066467
478,0.012998,-1.098764,10.509151,95.792313,3.386072,11.312493,-9.002543,1.716599,7.877904,0.994368,-0.079313,0.009508,0.069647
479,-0.080389,-0.115060,9.050578,87.996071,3.932116,11.523061,-5.010746,1.704720,8.257281,0.996294,-0.044665,0.011676,0.072568
480,-0.606897,1.418566,7.816519,61.468262,3.218105,9.615716,-1.055828,1.935931,8.643244,0.996960,-0.010459,0.016150,0.075496
481,-0.146964,1.866876,6.659042,27.166563,1.484822,8.117359,2.401495,2.136465,9.013746,0.996546,0.019422,0.020228,0.078158
482,-0.202147,2.403759,6.053555,-5.779797,2.279758,6.300087,4.976224,2.125283,9.335685,0.995638,0.041753,0.021999,0.080486
483,-0.650904,2.390800,6.566374,-38.137291,2.893438,1.856674,6.356053,2.384241,9.558942,0.994871,0.053503,0.025319,0.082025
484,-0.157666,2.483943,6.825751,-58.792912,-0.941022,3.666500,6.515642,2.542669,9.726398,0.994652,0.054733,0.026888,0.083363
485,0.704714,2.080909,7.051651,-67.885475,-2.020588,9.413302,5.872237,1.906476,10.003286,0.994821,0.049572,0.021016,0.086209
486,0.147512,1.892600,7.516036,-66.852455,0.432201,8.098115,4.763662,1.171143,10.347810,0.995052,0.040467,0.013917,0.089673
487,0.569828,0.562139,6.345516,-52.602650,0.373450,2.929897,3.309461,0.594872,10.562473,0.995340,0.028276,0.007825,0.091856
488,0.350940,-0.236823,5.160677,-28.968067,-1.164050,3.630358,1.599520,-0.093032,10.686957,0.995556,0.013973,0.000492,0.093128
489,0.177753,-0.215803,4.113212,-10.572386,-0.423020,1.381166,0.283735,-0.548769,10.780516,0.995562,0.002915,-0.004535,0.093949
490,0.083110,-0.973066,3.061757,6.658040,-2.831209,-0.626931,-1.169895,-0.811104,10.810620,0.995483,-0.009497,-0.008008,0.094121
491,0.052232,-1.965310,2.187458,22.771803,-5.149202,-1.054133,-4.117653,-1.028583,10.836988,0.994879,-0.034917,-0.012322,0.094044
492,-0.417974,-1.617259,2.336455,36.003689,-7.284771,1.306616,-7.275852,-0.680684,10.914000,0.993480,-0.062599,-0.011935,0.094530
493,-0.288200,-1.614224,2.755139,36.380901,-7.463594,-1.053810,-9.268629,0.013713,10.963368,0.992171,-0.080438,-0.007600,0.095225
494,-0.451588,-1.684632,4.950784,32.897614,-9.537973,-4.081097,-10.102713,0.388483,10.925028,0.991558,-0.087970,-0.005020,0.095121
495,-0.666976,-1.344003,6.543461,26.997475,-8.027993,-9.418641,-9.789843,0.700382,10.751347,0.991903,-0.085522,-0.001931,0.093861
496,-1.359898,-0.524637,8.709469,11.911047,-7.208994,-8.092413,-8.847945,1.242646,10.517808,0.992689,-0.077798,0.003696,0.092211
497,-0.715454,-0.033987,11.382035,-7.865232,-11.196903,-4.631449,-7.854290,1.564655,10.382801,0.993382,-0.069433,0.007369,0.091194
498,-0.464064,0.268998,13.209694,-21.238501,-11.800942,2.607614,-7.238019,1.357134,10.431808,0.993736,-0.063930,0.006032,0.091466
499,-0.328650,-0.019584,14.040796,-33.667347,-11.587278,9.398021,-7.140447,1.024402,10.705877,0.993615,-0.062830,0.003074,0.093660
500,0.380576,-0.003536,15.113445,-41.169132,-10.420153,13.107544,-7.491487,0.554847,11.144101,0.993106,-0.065489,-0.001534,0.097204
501,1.315521,-0.484527,15.022355,-38.490074,-9.543409,10.414215,-8.023033,-0.221838,11.592084,0.992462,-0.069404,-0.008986,0.100605
502,1.351138,-0.969830,14.451265,-36.462833,-2.380069,4.549968,-8.664942,-1.047321,11.876735,0.991822,-0.074192,-0.016880,0.102472
503,1.189356,-1.579899,14.156931,-32.940460,1.005232,-0.912955,-9.420325,-1.611505,11.944360,0.991236,-0.080203,-0.022482,0.102535
504,1.109674,-1.815159,13.085491,-23.398529,5.481730,-8.667805,-10.116219,-1.963704,11.769543,0.990866,-0.085938,-0.026017,0.100611
505,0.580992,-2.410460,12.167855,-21.088242,7.842015,-10.875875,-10.818563,-2.048177,11.412354,0.990623,-0.092018,-0.027076,0.097292
506,0.496839,-2.669214,11.685766,-19.329111,10.219320,-9.996948,-11.674725,-1.886066,11.020808,0.990244,-0.099649,-0.026062,0.093849
507,-0.227589,-2.932647,11.304137,-17.286306,10.111194,-8.098637,-12.581535,-1.451104,10.664323,0.989727,-0.107922,-0.022714,0.090981
508,-0.122422,-3.009301,10.798306,-16.326988,9.514968,-4.402743,-13.502458,-0.862466,10.393436,0.989036,-0.116395,-0.018091,0.089064
509,-0.107522,-3.136603,10.556906,-15.884974,8.024420,-0.639736,-14.414681,-0.380827,10.244951,0.988168,-0.124664,-0.014486,0.088164
510,-0.254326,-3.203453,10.433414,-12.899211,5.496214,2.399975,-15.250319,0.040228,10.216565,0.987216,-0.132196,-0.011468,0.088297
511,-0.247432,-3.065821,10.119911,-9.881287,2.656710,5.055151,-15.895708,0.392696,10.298285,0.986349,-0.138018,-0.009029,0.089358
512,-0.154621,-3.135984,9.898348,-7.160835,0.221474,7.431054,-16.383614,0.606450,10.482690,0.985575,-0.142368,-0.007800,0.091169
513,-0.287327,-3.041536,9.667127,-3.796400,-1.322643,7.299858,-16.736248,0.751068,10.721164,0.984916,-0.145499,-0.007140,0.093376
514,-0.237882,-2.960817,9.573361,-3.483713,-2.618024,7.988087,-16.949520,0.863572,10.982495,0.984408,-0.147406,-0.006683,0.095752
515,-0.166344,-2.734861,9.518701,-2.891614,-2.822442,7.827882,-17.022173,0.898016,11.261427,0.984071,-0.148043,-0.006808,0.098187
516,-0.127141,-2.545543,9.404735,-2.666914,-2.753792,5.636654,-16.819094,0.861729,11.507710,0.984126,-0.146253,-0.007260,0.100268
517,-0.014202,-2.500524,9.409451,-3.847506,-1.723881,4.408265,-16.569489,0.770752,11.694809,0.984294,-0.144018,-0.008059,0.101778
518,0.190825,-2.455789,9.455362,-4.866496,-1.237326,3.292754,-16.466490,0.593334,11.835125,0.984330,-0.142967,-0.009667,0.102771
519,0.172234,-2.432667,9.535226,-4.579275,0.164721,0.178262,-16.363291,0.374754,11.898385,0.984437,-0.141880,-0.011530,0.103054
520,0.138288,-2.370070,9.593269,-5.317436,1.527149,-1.745992,-16.238560,0.221232,11.867410,0.984642,-0.140675,-0.012699,0.102612
521,0.099189,-2.510251,9.744238,-7.206176,2.788933,-2.589872,-16.180294,0.147491,11.779135,0.984803,-0.140119,-0.013173,0.101770
522,-0.024181,-2.447559,9.827651,-6.537488,3.029965,-4.143282,-16.160551,0.159571,11.645085,0.984943,-0.139975,-0.012888,0.100635
523,-0.121171,-2.263471,9.822449,-5.230848,3.141399,-4.819254,-16.021273,0.249439,11.473999,0.985250,-0.138874,-0.011786,0.099288
524,-0.093673,-2.183857,9.713467,-4.516171,3.016338,-3.639692,-15.776464,0.360786,11.311960,0.985668,-0.136880,-0.010422,0.098052
525,-0.132228,-2.227150,9.668523,-3.803051,3.002660,-4.048622,-15.531729,0.466161,11.163712,0.986069,-0.134875,-0.009132,0.096922
526,-0.209140,-1.964514,9.639884,-1.756217,2.509877,-3.903629,-15.200007,0.591844,11.015004,0.986561,-0.132135,-0.007598,0.095812
527,-0.184329,-1.814816,9.643118,-1.687987,1.832502,-2.080101,-14.441133,0.744128,10.908997,0.987479,-0.125730,-0.005534,0.095112
528,-0.063349,-1.881536,9.691259,-2.388581,1.774531,-1.172153,-13.511477,0.803334,10.854436,0.988503,-0.117765,-0.004195,0.094743
529,-0.045103,-1.848828,9.844311,-1.710016,1.615682,-0.187955,-12.789541,0.738140,10.829048,0.989256,-0.111483,-0.004137,0.094486
530,-0.046750,-1.766925,9.793840,0.010608,1.310330,1.411188,-12.138309,0.663530,10.846094,0.989870,-0.105798,-0.004260,0.094587
531,0.062203,-1.876686,9.743052,0.035655,1.485567,1.929957,-11.662395,0.534284,10.895426,0.990276,-0.101578,-0.005028,0.094917
532,0.127918,-2.179631,9.610832,1.079408,2.080303,0.724398,-11.628578,0.313929,10.926328,0.990306,-0.101103,-0.006932,0.094992
533,0.007845,-2.263372,9.461716,2.313391,3.105458,-0.974015,-11.939601,0.193003,10.902787,0.990061,-0.103693,-0.008213,0.094660
534,-0.113554,-2.561260,9.349346,0.345607,3.384722,-2.934829,-12.546028,0.299726,10.813882,0.989559,-0.109025,-0.007708,0.093949
535,0.016120,-2.817701,9.370493,-2.153245,3.244384,-5.783726,-13.261153,0.410155,10.644096,0.988985,-0.115299,-0.007170,0.092544
536,-0.033010,-2.967925,9.375254,-3.930130,2.960514,-8.576185,-13.894743,0.416562,10.384155,0.988538,-0.120787,-0.007352,0.090268
537,-0.179762,-2.996185,9.379887,-4.948598,2.931555,-8.818804,-14.552411,0.466404,10.075333,0.988062,-0.126517,-0.007100,0.087616
538,-0.227855,-3.161558,9.564974,-6.293567,2.626489,-8.505962,-15.214540,0.573024,9.768018,0.987531,-0.132322,-0.006332,0.085048
539,-0.146301,-3.051368,9.673203,-5.027551,3.015689,-8.371663,-15.783099,0.656137,9.467570,0.987070,-0.137296,-0.005678,0.082527
540,-0.314717,-2.957647,9.689329,-2.815249,3.760452,-6.476435,-16.134867,0.782863,9.195838,0.986817,-0.140426,-0.004507,0.080323
541,-0.335934,-2.949145,9.749055,-0.470060,4.409149,-3.619854,-16.310770,1.006004,8.994287,0.986704,-0.142097,-0.002459,0.078855
542,-0.243708,-2.738203,9.687454,1.568562,4.648838,-2.812604,-16.305855,1.213755,8.848835,0.986772,-0.142194,-0.000486,0.077858
543,-0.327504,-2.607857,9.548017,2.992466,4.302591,-1.440753,-16.070780,1.446326,8.742764,0.987088,-0.140320,0.001807,0.077226
544,-0.324465,-2.456869,9.410227,3.925217,3.245306,0.018095,-15.648729,1.704202,8.693755,0.987578,-0.136847,0.004373,0.077099
545,-0.197752,-2.446599,9.536016,4.139297,2.584563,-0.888297,-15.178387,1.782990,8.663678,0.988134,-0.132841,0.005404,0.076911
546,-0.261281,-2.519305,9.429594,6.664949,2.361647,-2.376104,-14.815672,1.748134,8.594693,0.988603,-0.129687,0.005425,0.076260
547,-0.288177,-2.570130,9.475377,7.298185,1.822944,-2.749969,-14.603571,1.754282,8.493483,0.988907,-0.127856,0.005732,0.075383
548,-0.133667,-2.557714,9.497552,8.407395,0.977414,-3.371069,-14.448748,1.643553,8.379585,0.989177,-0.126446,0.005004,0.074272
549,-0.275475,-2.643290,9.412755,8.993066,0.339418,-3.781593,-14.375240,1.509544,8.252063,0.989366,-0.125724,0.004034,0.073023
550,-0.308458,-2.718767,9.157108,7.878755,-0.208364,-2.975909,-14.386608,1.501307,8.134403,0.989429,-0.125813,0.004085,0.071999
551,-0.145799,-2.690939,9.163971,3.842338,-0.039007,-3.091894,-14.452396,1.454330,8.030666,0.989431,-0.126350,0.003752,0.071054
553,-0.265415,-2.602591,9.244500,2.392333,0.350077,-1.921526,-14.632988,1.415347,7.941264,0.989293,-0.127883,0.003403,0.070245
554,-0.270099,-2.586651,9.493577,-1.148127,0.662940,0.133900,-14.847962,1.459806,7.902181,0.989067,-0.129763,0.003700,0.069964
555,-0.102807,-2.695783,9.794870,-4.471739,1.312939,1.382091,-15.051005,1.462746,7.915375,0.988827,-0.131518,0.003586,0.070087
556,-0.256257,-2.708041,9.978652,-7.859350,1.689769,2.238114,-15.297412,1.469136,7.959717,0.988513,-0.133649,0.003438,0.070485
557,-0.369849,-2.653979,10.099980,-11.442185,1.006196,5.366273,-15.588534,1.578456,8.070660,0.988080,-0.136228,0.004070,0.071578
558,-0.120271,-3.257084,9.810684,-15.244976,1.215221,3.164350,-16.167439,1.630969,8.193449,0.987291,-0.141253,0.004010,0.072720
559,-0.207388,-3.685538,9.317730,-17.990797,1.869740,-0.328543,-17.231928,1.609627,8.210600,0.985930,-0.150406,0.003128,0.072874
560,-0.479903,-3.985296,8.896788,-20.292913,2.071233,-2.098624,-18.639160,1.708414,8.130215,0.984037,-0.162559,0.003196,0.072355
561,-0.402760,-4.258755,8.535872,-21.476732,1.387783,-3.171334,-20.258614,1.854529,7.998437,0.981689,-0.176530,0.003628,0.071486
562,-0.234055,-4.727027,8.142005,-23.469538,0.109099,-6.438377,-22.117514,1.839078,7.803565,0.978821,-0.192418,0.002663,0.069845
563,-0.567523,-4.686204,8.184663,-26.145941,-1.547945,-5.423639,-24.041552,1.814632,7.594537,0.975584,-0.208809,0.001663,0.068057
564,-0.605824,-4.854959,8.324626,-26.661325,-3.444395,-3.252169,-25.789045,1.890385,7.465133,0.972343,-0.223700,0.001520,0.067123
565,-0.391780,-4.986331,8.494627,-26.938421,-5.786511,-2.205336,-27.357973,1.847622,7.425591,0.969224,-0.236969,0.000321,0.066715
566,-0.356063,-5.167515,8.719953,-25.828205,-7.207097,-0.639735,-28.729620,1.668526,7.467550,0.966342,-0.248461,-0.002079,0.066683
567,-0.411627,-5.200837,8.868807,-21.359182,-7.922692,1.275321,-29.821529,1.502773,7.589561,0.963903,-0.257567,-0.004384,0.067316
568,-0.141237,-5.218404,8.744696,-17.231773,-8.127169,0.941134,-30.626982,1.284685,7.750838,0.962029,-0.264210,-0.007061,0.068137
569,-0.024452,-5.217998,8.665595,-14.955215,-7.571865,0.167409,-31.250048,0.953799,7.899815,0.960570,-0.269244,-0.010556,0.068573
570,0.075871,-5.243846,8.402249,-12.782390,-6.368089,-0.617027,-31.782385,0.593162,8.014873,0.959320,-0.273486,-0.014169,0.068628
571,0.067472,-5.307817,8.228240,-12.771856,-4.181607,-1.952317,-32.317917,0.272690,8.071923,0.958062,-0.277773,-0.017308,0.068262
572,0.012332,-5.145119,8.465455,-14.813545,-0.501168,-4.204641,-32.778763,0.068559,8.028087,0.957001,-0.281512,-0.019179,0.067325
573,-0.001573,-4.807621,8.655050,-14.221090,2.285143,-6.054080,-32.965752,-0.024321,7.869205,0.956649,-0.283046,-0.019672,0.065738
574,-0.161349,-4.325705,8.706700,-11.734505,3.470851,-5.759535,-32.757336,0.006816,7.651949,0.957280,-0.281360,-0.018759,0.064035
575,-0.362524,-4.034812,8.782867,-9.172787,4.290492,-4.297558,-32.194893,0.220864,7.442107,0.958730,-0.276807,-0.016147,0.062888
576,-0.153915,-3.756624,8.902168,-5.730379,4.167089,-3.984613,-31.361723,0.445322,7.255324,0.960779,-0.269972,-0.013367,0.061965
577,-0.158039,-3.728949,8.724167,1.038554,3.095970,-1.967281,-30.349766,0.573886,7.116059,0.963178,-0.261558,-0.011421,0.061203
578,-0.145600,-3.757426,8.695057,7.915636,1.776097,0.790111,-29.254322,0.686153,7.068143,0.965639,-0.252400,-0.009783,0.061152
579,0.178120,-3.797661,8.697168,16.902861,1.789720,0.626789,-28.052355,0.659278,7.068446,0.968238,-0.242244,-0.009369,0.061198
580,0.356031,-3.718452,8.923502,27.246506,2.834643,-1.598180,-26.625080,0.437551,7.021652,0.971241,-0.230056,-0.010392,0.060469
581,0.181112,-3.625529,8.993739,40.632767,4.004709,-4.052026,-24.864796,0.232213,6.885307,0.974760,-0.215017,-0.010953,0.059077
582,0.090795,-3.011657,8.883421,51.980442,4.976549,-6.858282,-22.648476,0.152581,6.656002,0.978862,-0.196105,-0.010096,0.057183
583,-0.330853,-2.846701,9.096508,53.090740,4.499015,-5.124796,-20.187822,0.292067,6.413974,0.982952,-0.175127,-0.007299,0.055523
584,-0.558484,-3.182765,9.109550,45.936192,2.321896,-2.162827,-18.152971,0.662909,6.271672,0.985934,-0.157826,-0.002926,0.054929
585,0.088307,-3.120732,9.579893,36.005558,0.901403,-3.072221,-16.724171,0.803886,6.179749,0.987851,-0.145587,-0.000908,0.054347
586,-0.639871,-2.609237,10.366830,24.526245,-0.072021,-0.076795,-15.547331,0.893386,6.128631,0.989307,-0.135476,0.000483,0.054017
587,-1.143557,-3.077036,10.758729,12.544861,-1.418808,6.935008,-14.790946,1.371758,6.252604,0.990051,-0.129164,0.004834,0.055618
588,-0.426609,-2.849030,10.308958,10.471040,-2.655864,7.754557,-14.467342,1.733928,6.509138,0.990219,-0.126551,0.007838,0.058216
589,-0.136528,-1.772016,10.199522,14.585263,-0.977354,7.351722,-13.795319,1.732941,6.776509,0.990806,-0.120760,0.007889,0.060480
590,-0.851595,-1.523489,10.095713,18.326124,-0.012807,12.863429,-12.623892,1.922330,7.127810,0.991762,-0.110750,0.009808,0.063617
591,-0.021521,-1.387648,9.519272,20.820276,0.261954,12.961142,-11.361375,2.093896,7.570414,0.992633,-0.099952,0.011609,0.067486
592,0.731687,-0.821551,9.510408,24.172102,0.864016,6.800872,-9.931800,1.657908,7.907138,0.993685,-0.087342,0.008411,0.069931
593,0.347272,-0.690175,10.033820,24.427961,1.482711,2.354201,-8.346128,1.089954,8.059692,0.994789,-0.073253,0.004349,0.070777
594,0.326070,-0.771660,10.208474,24.607330,0.989296,-2.231272,-6.904415,0.722042,8.059257,0.995671,-0.060508,0.002043,0.070522
595,0.415100,-0.587401,9.880689,23.393316,0.268560,-8.495253,-5.636793,0.345965,7.878080,0.996416,-0.049261,-0.000369,0.068760
596,0.463068,-0.762828,9.910769,21.403904,-1.885029,-13.492708,-4.595576,-0.097344,7.511224,0.997052,-0.039952,-0.003473,0.065414
597,0.311685,-0.926147,9.903100,21.800688,-3.536471,-17.656994,-3.842439,-0.520515,6.995844,0.997575,-0.033186,-0.006577,0.060825
598,0.293733,-0.836589,9.674335,21.144384,-3.564180,-21.445887,-3.234569,-0.861130,6.351073,0.998050,-0.027763,-0.009064,0.055160
599,0.073643,-1.016962,9.966836,15.626331,-3.463534,-23.817175,-2.839971,-1.066627,5.605967,0.998465,-0.024295,-0.010506,0.048654
600,-0.124565,-0.850543,10.076486,15.999801,-3.475557,-24.911245,-2.584110,-1.083107,4.805343,0.998831,-0.022132,-0.010386,0.041697
601,-0.339323,-0.724962,9.980232,18.396734,-1.409055,-22.901579,-2.219600,-0.898058,4.018027,0.999173,-0.019081,-0.008510,0.034897
602,-0.416210,-0.605900,9.923611,17.894468,-1.011789,-19.027229,-1.783974,-0.567774,3.326726,0.999447,-0.015417,-0.005404,0.028946
603,-0.347452,-0.640572,10.004711,19.667330,-0.962473,-14.942305,-1.351065,-0.250755,2.767024,0.999637,-0.011734,-0.002472,0.024117
604,-0.368486,-0.513457,9.897871,24.624771,-1.255040,-10.672752,-0.830435,0.012401,2.345190,0.999764,-0.007248,-0.000040,0.020464
605,-0.297956,-0.598665,9.784148,26.624903,-1.799453,-6.383370,-0.244780,0.215856,2.064644,0.999834,-0.002170,0.001845,0.018020
606,-0.160726,-0.406254,9.729072,26.526840,-3.276344,-4.340153,0.339394,0.285173,1.887299,0.999857,0.002920,0.002537,0.016462
607,-0.011057,-0.329876,9.690156,24.562605,-4.092671,-1.802540,0.913364,0.195488,1.783228,0.999846,0.007943,0.001830,0.015547
608,0.045796,-0.194376,9.790526,19.821194,-4.324669,-0.713031,1.381876,0.013485,1.737242,0.999812,0.012056,0.000300,0.015157
609,0.169739,-0.158563,9.712317,14.351913,-4.434659,-0.395635,1.678579,-0.224288,1.714017,0.999779,0.014675,-0.001738,0.014984
610,0.206244,-0.217013,9.877603,9.103575,-4.105304,-0.180472,1.557929,-0.551178,1.701827,0.999785,0.013665,-0.004607,0.014915
611,0.213482,-0.219553,9.928109,7.430201,-3.832439,0.344461,1.113674,-0.890092,1.707777,0.999810,0.009833,-0.007621,0.014977
612,0.264884,-0.117365,9.972064,5.320602,-2.856065,-0.362028,0.749891,-1.165605,1.713817,0.999814,0.006695,-0.010072,0.015021
613,0.241319,-0.146793,9.955437,4.592173,-2.120712,-0.416948,0.492656,-1.355227,1.708121,0.999809,0.004475,-0.011761,0.014955
614,0.176731,-0.219751,9.984441,3.502104,-1.012870,-0.954062,0.209628,-1.392581,1.694333,0.999815,0.002009,-0.012124,0.014806
615,0.189696,-0.117797,9.965880,1.789577,-0.464956,-2.560853,-0.030822,-1.336722,1.643312,0.999829,-0.000102,-0.011667,0.014336
616,0.028794,-0.350744,9.946393,-3.183729,0.235592,-4.483511,-0.286574,-1.229917,1.531100,0.999850,-0.002357,-0.010765,0.013333
617,0.063455,-0.342405,9.979418,-9.022223,0.022131,-7.442273,-0.715163,-1.100135,1.336625,0.999867,-0.006128,-0.009672,0.011603
618,0.090838,-0.417695,9.735711,-17.920179,-0.247839,-10.791671,-1.372250,-1.019947,1.036139,0.999849,-0.011893,-0.009008,0.008934
619,0.141064,-0.384945,9.873557,-30.971634,-1.035152,-13.237725,-2.342542,-1.006334,0.638632,0.999738,-0.020391,-0.008894,0.005392
620,0.051123,-0.549154,9.853510,-33.768803,-1.021343,-11.707216,-3.520828,-1.004953,0.226091,0.999488,-0.030702,-0.008826,0.001703
621,0.191977,-0.571633,9.679702,-35.664059,-0.754258,-9.398489,-4.715898,-1.023677,-0.122977,0.999112,-0.041150,-0.008881,-0.001440
622,0.226463,-0.805667,9.619177,-40.569901,-0.037110,-6.219990,-5.977147,-1.089309,-0.380758,0.998588,-0.052166,-0.009320,-0.003814
623,0.351263,-1.148081,9.997003,-40.893452,0.162684,-3.250548,-7.371923,-1.182816,-0.535573,0.997864,-0.064332,-0.010000,-0.005327
624,0.260868,-1.392778,9.714681,-31.532015,0.307543,-1.185980,-8.662269,-1.263724,-0.606073,0.997065,-0.075573,-0.010597,-0.006106
625,0.353567,-1.334461,9.627898,-34.029957,0.273878,-0.922009,-9.755049,-1.332343,-0.640991,0.996290,-0.085084,-0.011109,-0.006562
626,0.366391,-1.391866,10.078341,-29.601500,0.437025,3.574867,-10.650154,-1.409778,-0.601799,0.995589,-0.092862,-0.011762,-0.006370
627,0.385051,-1.640804,10.297490,0.131448,1.657648,11.921652,-10.929467,-1.417254,-0.358790,0.995370,-0.095264,-0.012013,-0.004294
628,0.227582,-1.562634,9.968130,36.454876,2.408357,18.986668,-10.105370,-1.293565,0.129861,0.996051,-0.088053,-0.011344,0.000135
629,0.197215,-1.399637,9.909358,55.124916,2.699834,23.594961,-8.338100,-1.078638,0.811103,0.997290,-0.072628,-0.009902,0.006375
630,0.241294,-1.476854,10.066268,63.296417,2.646418,24.653950,-6.250142,-0.895716,1.594628,0.998392,-0.054400,-0.008563,0.013468
631,0.206928,-1.288435,9.856977,64.008926,1.828474,19.459694,-4.215281,-0.790344,2.319875,0.999100,-0.036629,-0.007635,0.019976
632,0.034848,-0.868576,9.601026,46.538425,0.075209,10.414012,-2.514366,-0.712197,2.816643,0.999441,-0.021780,-0.006751,0.024435
633,0.070513,-0.551203,9.789398,20.267954,-0.593073,3.101784,-1.507663,-0.658291,3.044735,0.999546,-0.012999,-0.006092,0.026489
634,0.160508,-0.455434,10.028076,6.867036,-0.678543,-1.419530,-1.236617,-0.692424,3.075731,0.999565,-0.010625,-0.006330,0.026770
635,0.110227,-0.269231,9.912855,6.735572,-0.913568,-4.237913,-1.185212,-0.746288,2.984013,0.999588,-0.010169,-0.006779,0.025968
636,0.112291,-0.209856,9.825631,7.879956,-0.962374,-4.849808,-0.984345,-0.761985,2.833711,0.999637,-0.008423,-0.006860,0.024668
637,0.106453,-0.137564,9.878378,6.643981,-1.435371,-5.054281,-0.721556,-0.774837,2.669095,0.999687,-0.006137,-0.006906,0.023247
638,0.093974,-0.068380,9.937639,5.820068,-1.877826,-4.947467,-0.447334,-0.784542,2.502291,0.999731,-0.003753,-0.006930,0.021807
639,0.101740,0.005235,9.908085,6.816631,-2.178362,-4.846756,-0.133861,-0.799306,2.338296,0.999767,-0.001026,-0.006998,0.020395
640,0.139416,0.125856,9.912223,6.418587,-2.301930,-4.338626,0.256293,-0.850067,2.183019,0.999788,0.002377,-0.007374,0.019065
641,0.175561,0.214996,9.929059,5.021148,-2.102063,-3.896113,0.679798,-0.943444,2.041791,0.999789,0.006078,-0.008126,0.017865
642,0.218505,0.270991,9.930430,4.211192,-1.426157,-3.529895,1.069280,-1.060253,1.913161,0.999773,0.009484,-0.009095,0.016780
643,0.229475,0.276195,9.895190,4.032894,-0.651085,-3.117898,1.385456,-1.165530,1.798143,0.999750,0.012248,-0.009979,0.015812
644,0.248224,0.307334,9.920160,3.079343,0.044648,-2.718105,1.620854,-1.239949,1.698084,0.999729,0.014302,-0.010609,0.014969
645,0.214910,0.313747,9.912913,3.019929,0.600040,-2.457173,1.797006,-1.260209,1.610470,0.999715,0.015833,-0.010774,0.014223
646,0.196879,0.328744,9.909901,3.258023,0.923556,-2.364094,1.940212,-1.217051,1.530154,0.999709,0.017070,-0.010392,0.013530
647,0.180603,0.355527,9.906651,2.682785,0.879353,-2.312214,2.068066,-1.147295,1.452774,0.999704,0.018171,-0.009781,0.012855
648,0.158307,0.334242,9.936543,1.864885,0.642903,-2.385461,2.142053,-1.068022,1.375574,0.999708,0.018802,-0.009093,0.012175
649,0.128315,0.267799,9.953866,2.769635,0.266093,-2.437344,2.127910,-0.979312,1.297568,0.999725,0.018663,-0.008334,0.011479
650,0.164658,0.325230,9.911613,3.982605,-0.254187,-2.467862,2.135621,-0.931370,1.217776,0.999735,0.018720,-0.007928,0.010776
651,0.178121,0.336856,9.957019,3.205833,-0.766909,-2.592986,2.201027,-0.953267,1.133777,0.999730,0.019287,-0.008127,0.010052
652,0.179830,0.317687,9.957094,4.247945,-0.969885,-2.918005,2.255404,-1.000351,1.042021,0.999725,0.019759,-0.008549,0.009263
653,0.183417,0.382082,9.918569,5.816526,-1.033998,-3.142314,2.372105,-1.047046,0.940592,0.999709,0.020772,-0.008965,0.008395
654,0.189782,0.464090,9.894996,5.377103,-0.953142,-3.383410,2.593695,-1.088995,0.829815,0.999671,0.022700,-0.009337,0.007454
656,0.183202,0.463613,9.911628,3.968740,-0.702894,-3.438345,2.801356,-1.113608,0.713972,0.999633,0.024503,-0.009563,0.006466
657,0.170347,0.483725,9.893393,4.090828,-0.455668,-3.102643,2.948074,-1.107502,0.603941,0.999607,0.025773,-0.009526,0.005517
658,0.166889,0.507924,9.884838,3.356857,-0.103134,-2.570097,3.072910,-1.078104,0.509109,0.999585,0.026853,-0.009285,0.004693
659,0.193849,0.523064,9.896017,2.609145,0.089150,-2.057386,3.167044,-1.061766,0.432243,0.999567,0.027668,-0.009158,0.004026
660,0.191983,0.595651,9.896055,2.003391,0.263090,-1.559935,3.273808,-1.063791,0.371825,0.999543,0.028594,-0.009187,0.003508
661,0.176111,0.618665,9.901979,1.390065,0.488926,-1.256278,3.403565,-1.048630,0.324336,0.999512,0.029722,-0.009063,0.003101
662,0.156485,0.549156,9.935405,1.345823,0.803300,-1.160146,3.457533,-1.000408,0.285282,0.999503,0.030189,-0.008651,0.002752
663,0.141561,0.591205,9.897319,2.459703,0.940688,-0.984668,3.486650,-0.927983,0.252000,0.999501,0.030439,-0.008027,0.002444
664,0.125739,0.627084,9.912373,1.495334,1.107078,-0.833604,3.564766,-0.843912,0.223721,0.999487,0.031117,-0.007300,0.002180
665,0.114530,0.575869,9.925543,1.028382,1.227690,-0.763416,3.593282,-0.755089,0.199810,0.999485,0.031363,-0.006531,0.001949
666,0.107159,0.550963,9.912091,1.496732,1.215537,-0.795462,3.553655,-0.672766,0.177519,0.999501,0.031015,-0.005820,0.001730
667,0.110193,0.614170,9.871511,1.067880,1.035505,-0.862603,3.546023,-0.612226,0.152909,0.999506,0.030947,-0.005299,0.001499
