seq,ax,ay,az,wroll,wpitch,wyaw,roll,pitch,yaw
1,0.036256,-9.619252,0.215448,0.089685,0.065187,-0.005008,-88.716934,-0.215899,0.211117
2,0.034089,-9.627211,0.206990,-0.054000,0.065435,0.027664,-88.716324,-0.215473,0.208949
3,0.036496,-9.623120,0.216465,0.079131,0.062591,-0.009427,-88.715897,-0.215121,0.206823
4,0.029350,-9.624508,0.210965,-0.013757,0.067186,0.105608,-88.714806,-0.213470,0.204696
5,0.028780,-9.629778,0.212081,-0.007335,0.067338,0.115918,-88.715149,-0.209728,0.202538
6,0.027352,-9.630387,0.211936,-0.027150,0.069129,0.126296,-88.715721,-0.205641,0.200354
8,0.032350,-9.626747,0.219370,0.098226,0.072216,0.043124,-88.714523,-0.202766,0.198062
9,0.030881,-9.628323,0.214647,0.029062,0.069233,0.063963,-88.712402,-0.200928,0.195746
10,0.036766,-9.624343,0.218361,0.097100,0.061236,-0.034464,-88.710289,-0.200388,0.193583
11,0.044021,-9.619324,0.217397,0.082225,0.060230,-0.145602,-88.707291,-0.203343,0.191491
12,0.044320,-9.625936,0.219827,0.117802,0.066497,-0.133057,-88.703949,-0.207938,0.189275
13,0.041463,-9.623689,0.216155,0.035742,0.061379,-0.076173,-88.701370,-0.211376,0.187065
15,0.039841,-9.621838,0.218772,0.065825,0.068338,-0.045090,-88.699669,-0.213348,0.184858
16,0.039669,-9.629272,0.221437,0.092579,0.074743,-0.043251,-88.697021,-0.214765,0.182440
17,0.034136,-9.628673,0.222179,0.103300,0.082814,0.030316,-88.693748,-0.214921,0.179810
18,0.036812,-9.624998,0.224268,0.127434,0.078951,-0.012342,-88.689888,-0.214560,0.177121
19,0.033999,-9.635429,0.221709,0.074627,0.079706,0.027618,-88.686508,-0.214245,0.174484
20,0.033133,-9.634276,0.222414,0.077053,0.066260,0.039639,-88.683975,-0.213069,0.172077
22,0.031732,-9.636287,0.221791,0.057703,0.060510,0.053039,-88.681717,-0.211476,0.170000
23,0.031380,-9.641151,0.226133,0.116405,0.069913,0.056048,-88.678810,-0.209608,0.167869
24,0.028133,-9.635891,0.221604,0.039108,0.072173,0.093265,-88.676208,-0.207066,0.165559
25,0.035528,-9.628969,0.225820,0.105280,0.078851,-0.023337,-88.673790,-0.205842,0.163070
26,0.040644,-9.634461,0.225564,0.082840,0.093768,-0.109742,-88.670647,-0.207993,0.160142
27,0.040258,-9.629139,0.222050,0.027636,0.109063,-0.083703,-88.668793,-0.211138,0.156688
29,0.040307,-9.621937,0.219866,-0.026866,0.084672,-0.066338,-88.668770,-0.213563,0.153401
30,0.038644,-9.624171,0.221046,-0.013167,0.088503,-0.041505,-88.669426,-0.215293,0.150474
31,0.031068,-9.624071,0.222595,0.002376,0.080631,0.063301,-88.669594,-0.214864,0.147664
32,0.025440,-9.623140,0.221286,-0.001092,0.085531,0.161171,-88.669563,-0.211059,0.144983
33,0.024924,-9.623478,0.224170,0.044677,0.073441,0.148669,-88.668831,-0.205835,0.142454
34,0.025670,-9.625095,0.223946,0.051148,0.080491,0.116950,-88.667221,-0.201350,0.139992
36,0.029032,-9.623071,0.221471,0.021704,0.075875,0.060222,-88.666000,-0.198337,0.137455
37,0.032773,-9.624746,0.221422,0.026500,0.071342,0.006278,-88.665184,-0.197172,0.135028
38,0.032080,-9.626738,0.221535,0.008686,0.060833,0.000039,-88.664597,-0.197015,0.132828
39,0.032916,-9.626489,0.221549,-0.009282,0.060530,-0.008219,-88.664604,-0.197105,0.130803
40,0.038837,-9.630446,0.222148,0.005899,0.070721,-0.095813,-88.664650,-0.198787,0.128575
41,0.038935,-9.637659,0.222407,-0.001763,0.058593,-0.091106,-88.664566,-0.201851,0.126348
43,0.038030,-9.642442,0.223365,0.004516,0.069815,-0.066672,-88.664513,-0.204430,0.124147
44,0.042890,-9.646891,0.223222,0.011412,0.069800,-0.129037,-88.664230,-0.207637,0.121745
45,0.044222,-9.644153,0.228061,0.089597,0.081989,-0.139447,-88.662537,-0.212052,0.119111
46,0.037985,-9.642073,0.226256,0.065402,0.078189,-0.040531,-88.659943,-0.214988,0.116372
47,0.032239,-9.636000,0.228066,0.089449,0.078907,0.047242,-88.657356,-0.214815,0.113757
48,0.033281,-9.623997,0.227215,0.074538,0.090674,0.026134,-88.654617,-0.213526,0.110961
50,0.030153,-9.621623,0.225586,0.032057,0.099206,0.063229,-88.652817,-0.211963,0.107832
51,0.031850,-9.629058,0.223223,-0.016242,0.087695,0.039017,-88.652550,-0.210186,0.104758
52,0.029918,-9.628278,0.223427,-0.024297,0.077595,0.072420,-88.653214,-0.208264,0.102047
53,0.030833,-9.626505,0.224766,0.002464,0.092501,0.061556,-88.653557,-0.205965,0.099265
54,0.029045,-9.628624,0.226184,0.023689,0.074758,0.080970,-88.653122,-0.203525,0.096534
55,0.033082,-9.620840,0.229615,0.083971,0.073382,0.015976,-88.651314,-0.201852,0.094104
57,0.031929,-9.620192,0.225736,0.025016,0.074993,0.027393,-88.649490,-0.201071,0.091649
58,0.033515,-9.614337,0.226354,0.033234,0.069830,-0.006093,-88.648506,-0.200659,0.089244
59,0.036101,-9.617558,0.224721,0.008397,0.058123,-0.050025,-88.647804,-0.201544,0.087090
60,0.033333,-9.625586,0.216494,-0.115444,0.066340,0.004483,-88.649582,-0.202254,0.084998
61,0.030600,-9.621605,0.210771,-0.193313,0.076208,0.048244,-88.654716,-0.201319,0.082644
62,0.028065,-9.618985,0.209393,-0.190952,0.078538,0.074358,-88.661118,-0.199216,0.080113
64,0.029378,-9.628494,0.210884,-0.161987,0.084194,0.053042,-88.666985,-0.197030,0.077451
65,0.028891,-9.631797,0.206183,-0.219788,0.088625,0.064121,-88.673340,-0.195011,0.074617
66,0.030374,-9.630228,0.209942,-0.147520,0.091296,0.020171,-88.679451,-0.193537,0.071652
67,0.032173,-9.643260,0.205906,-0.173492,0.079764,0.010226,-88.684792,-0.192965,0.068813
68,0.030016,-9.642261,0.204900,-0.176283,0.080463,0.045350,-88.690613,-0.191978,0.066164
69,0.030126,-9.638208,0.201519,-0.204585,0.078724,0.057846,-88.696953,-0.190198,0.063551
71,0.031458,-9.632813,0.203701,-0.162242,0.078338,0.027244,-88.703056,-0.188721,0.060966
72,0.031337,-9.631775,0.202732,-0.164116,0.069148,0.032929,-88.708481,-0.187663,0.058532
73,0.030810,-9.623610,0.206440,-0.112659,0.058811,0.014839,-88.713089,-0.186819,0.056417
74,0.033952,-9.618765,0.208294,-0.081150,0.059368,-0.038847,-88.716316,-0.187175,0.054439
75,0.032708,-9.615183,0.207902,-0.082349,0.070492,-0.037934,-88.719040,-0.188405,0.052247
76,0.032850,-9.618544,0.209720,-0.049571,0.066047,-0.039853,-88.721230,-0.189651,0.049943
78,0.034839,-9.614552,0.209145,-0.046771,0.065444,-0.068088,-88.722839,-0.191401,0.047712
79,0.035765,-9.622668,0.211108,-0.019263,0.072974,-0.077054,-88.723923,-0.193768,0.045351
80,0.033116,-9.625948,0.215285,0.039943,0.058943,-0.037663,-88.723564,-0.195630,0.043111
81,0.031090,-9.624258,0.212714,-0.006269,0.061111,-0.002956,-88.723000,-0.196262,0.041095
82,0.028445,-9.622686,0.211698,-0.014647,0.068071,0.040954,-88.723328,-0.195581,0.038957
83,0.025282,-9.629024,0.212860,-0.001650,0.072193,0.094188,-88.723602,-0.193277,0.036670
85,0.024066,-9.624008,0.217527,0.079243,0.069655,0.115477,-88.722298,-0.189731,0.034384
86,0.028647,-9.628502,0.211715,-0.002777,0.079847,0.046297,-88.721016,-0.186980,0.031953
87,0.031415,-9.641807,0.215771,0.063642,0.063705,-0.001092,-88.720001,-0.186173,0.029578
88,0.032114,-9.643632,0.219042,0.109046,0.063577,-0.019501,-88.717110,-0.186469,0.027450
89,0.030408,-9.632727,0.218625,0.093215,0.048859,-0.000049,-88.713753,-0.186753,0.025569
90,0.031827,-9.628760,0.215991,0.046955,0.051298,-0.031306,-88.711411,-0.187238,0.023888
92,0.033231,-9.620566,0.218770,0.072991,0.038764,-0.049863,-88.709396,-0.188556,0.022357
93,0.033056,-9.617768,0.219845,0.081857,0.054192,-0.039528,-88.706810,-0.190011,0.020775
94,0.030017,-9.619713,0.216300,0.023505,0.056625,0.007909,-88.705048,-0.190496,0.018916
95,0.035797,-9.624472,0.219187,0.072664,0.062467,-0.079687,-88.703445,-0.191647,0.016905
96,0.030718,-9.628534,0.217899,0.046597,0.061111,0.003511,-88.701447,-0.192870,0.014817
97,0.025779,-9.633876,0.216495,0.023512,0.076491,0.074113,-88.700272,-0.191524,0.012553
99,0.026095,-9.631884,0.217581,0.025186,0.061096,0.062922,-88.699455,-0.189189,0.010313
100,0.032263,-9.630232,0.220582,0.066780,0.060551,-0.030097,-88.697914,-0.188596,0.008298
101,0.028747,-9.632651,0.217269,0.003702,0.070686,0.019272,-88.696732,-0.188727,0.006107
102,0.034123,-9.632887,0.218814,0.023632,0.078097,-0.052659,-88.696266,-0.189226,0.003616
103,0.036630,-9.633412,0.220066,0.051599,0.074283,-0.077957,-88.695007,-0.191345,0.001027
104,0.034192,-9.629508,0.219049,0.037695,0.087375,-0.035110,-88.693512,-0.193168,-0.001710
106,0.031349,-9.628539,0.215620,-0.025860,0.079101,0.011666,-88.693306,-0.193495,-0.004492
107,0.037004,-9.633065,0.218746,0.027732,0.080409,-0.068289,-88.693268,-0.194378,-0.007172
108,0.034757,-9.635203,0.218710,0.017222,0.078167,-0.043255,-88.692505,-0.196176,-0.009856
109,0.034707,-9.632406,0.219426,0.020794,0.078316,-0.047323,-88.691864,-0.197626,-0.012498
110,0.034751,-9.633930,0.217863,0.004618,0.075245,-0.041219,-88.691429,-0.199043,-0.015091
111,0.039270,-9.630706,0.217215,-0.000440,0.076806,-0.114183,-88.691353,-0.201574,-0.017683
113,0.035511,-9.627404,0.216898,-0.008826,0.076681,-0.056736,-88.691498,-0.204364,-0.020306
114,0.035969,-9.626345,0.217386,0.002207,0.072132,-0.047478,-88.691589,-0.206043,-0.022825
115,0.035669,-9.633430,0.220289,0.047799,0.072485,-0.030798,-88.690765,-0.207293,-0.025265
116,0.037525,-9.631052,0.222246,0.071023,0.076601,-0.063025,-88.688774,-0.208799,-0.027784
117,0.030924,-9.633599,0.225386,0.113355,0.082136,0.037457,-88.685684,-0.209165,-0.030439
118,0.033318,-9.632397,0.224462,0.087765,0.078215,-0.001845,-88.682327,-0.208510,-0.033097
120,0.033062,-9.624821,0.226490,0.115199,0.085976,-0.010744,-88.678932,-0.208657,-0.035838
121,0.035476,-9.616518,0.225551,0.089532,0.091179,-0.033005,-88.675507,-0.209317,-0.038807
122,0.034713,-9.621078,0.224704,0.071375,0.085300,-0.015171,-88.672813,-0.210052,-0.041766
123,0.039670,-9.620659,0.221298,0.015612,0.081898,-0.074913,-88.671349,-0.211488,-0.044586
124,0.035992,-9.621788,0.219667,-0.000480,0.080093,-0.007373,-88.671089,-0.212797,-0.047317
125,0.036753,-9.622951,0.217875,-0.035818,0.078278,-0.013833,-88.671684,-0.213089,-0.049964
127,0.035921,-9.629271,0.215223,-0.071292,0.072336,-0.014108,-88.673462,-0.213496,-0.052485
128,0.036776,-9.619263,0.212565,-0.103098,0.076511,-0.015689,-88.676361,-0.213936,-0.054976
129,0.033837,-9.621714,0.219386,0.007891,0.077953,0.041485,-88.677940,-0.213446,-0.057540
130,0.034336,-9.623101,0.219399,0.008506,0.077768,0.029859,-88.677650,-0.212198,-0.060107
131,0.034123,-9.632541,0.218451,-0.011021,0.071612,0.036508,-88.677689,-0.211034,-0.062571
132,0.036309,-9.626444,0.218839,-0.012265,0.075394,0.011451,-88.678062,-0.210179,-0.065002
134,0.037793,-9.632333,0.221530,0.022104,0.068884,-0.027674,-88.677887,-0.210394,-0.067412
135,0.040901,-9.629612,0.219411,-0.011953,0.079920,-0.079605,-88.677719,-0.212124,-0.069933
136,0.041170,-9.632742,0.220508,-0.001732,0.081511,-0.068399,-88.677933,-0.214528,-0.072680
137,0.043489,-9.626186,0.219451,-0.010099,0.094528,-0.094244,-88.678123,-0.217170,-0.075675
138,0.040021,-9.619493,0.220699,0.026478,0.088310,-0.047160,-88.677841,-0.219456,-0.078776
139,0.035628,-9.612718,0.219399,-0.000441,0.095977,0.023558,-88.677391,-0.219778,-0.081856
141,0.033236,-9.616871,0.214665,-0.076488,0.091966,0.058677,-88.678658,-0.218336,-0.084956
142,0.031984,-9.608024,0.218117,-0.020457,0.095576,0.076323,-88.680267,-0.216014,-0.088029
143,0.026246,-9.612300,0.221277,0.030686,0.080818,0.145510,-88.680084,-0.212251,-0.090883
144,0.025722,-9.615353,0.218984,-0.001893,0.089807,0.145555,-88.679596,-0.207335,-0.093614
145,0.027303,-9.623601,0.217103,-0.026267,0.088878,0.110080,-88.680054,-0.203007,-0.096493
146,0.028066,-9.621698,0.220607,0.027653,0.083983,0.078673,-88.680023,-0.199796,-0.099301
147,0.029836,-9.629053,0.212943,-0.079737,0.081268,0.030917,-88.680878,-0.197906,-0.102012
148,0.030242,-9.623692,0.212818,-0.074628,0.096284,0.024485,-88.683441,-0.196915,-0.104950
149,0.025644,-9.630058,0.213712,-0.061599,0.090236,0.087609,-88.685699,-0.194976,-0.108015
150,0.023318,-9.629499,0.216561,-0.005770,0.084978,0.124951,-88.686813,-0.191367,-0.110853
151,0.022082,-9.621932,0.220137,0.049712,0.085383,0.138625,-88.686081,-0.186910,-0.113591
152,0.019888,-9.617155,0.226474,0.133138,0.087708,0.175240,-88.683022,-0.181614,-0.116355
153,0.015104,-9.617251,0.225785,0.119798,0.079830,0.230169,-88.678802,-0.174795,-0.118991
154,0.021679,-9.615731,0.225540,0.101551,0.078671,0.127407,-88.675110,-0.168776,-0.121494
155,0.027897,-9.616530,0.227462,0.119101,0.086922,0.024402,-88.671417,-0.166183,-0.124195
156,0.029807,-9.621867,0.224857,0.072305,0.073764,-0.011793,-88.668213,-0.165910,-0.126867
157,0.030028,-9.618155,0.222443,0.038811,0.076593,-0.018985,-88.666351,-0.166365,-0.129384
158,0.038228,-9.620685,0.221512,0.020972,0.067621,-0.135174,-88.665352,-0.168878,-0.131847
159,0.033079,-9.628010,0.219989,-0.003639,0.072528,-0.065632,-88.665054,-0.172169,-0.134260
160,0.028914,-9.626255,0.216053,-0.069949,0.072454,-0.010813,-88.666283,-0.173387,-0.136706
161,0.027435,-9.628287,0.212415,-0.118619,0.088139,0.017363,-88.669411,-0.173215,-0.139379
162,0.028710,-9.629744,0.217021,-0.048891,0.086393,-0.014166,-88.672195,-0.173095,-0.142286
163,0.029140,-9.631042,0.213296,-0.103829,0.081513,-0.020803,-88.674736,-0.173612,-0.145097
164,0.036128,-9.625899,0.214135,-0.092466,0.077668,-0.126723,-88.678001,-0.176009,-0.147806
165,0.035519,-9.625674,0.214605,-0.072672,0.075011,-0.108636,-88.680740,-0.179872,-0.150441
166,0.035726,-9.626925,0.218227,-0.012354,0.066195,-0.098939,-88.682159,-0.183277,-0.152873
167,0.034831,-9.633044,0.211235,-0.119385,0.060271,-0.064585,-88.684349,-0.185953,-0.155043
168,0.032203,-9.629339,0.215397,-0.050835,0.069165,-0.025127,-88.687172,-0.187398,-0.157234
169,0.029869,-9.626003,0.216070,-0.031112,0.073150,0.019135,-88.688530,-0.187444,-0.159607
170,0.029541,-9.627874,0.215707,-0.038305,0.070205,0.033368,-88.689682,-0.186514,-0.161976
171,0.030145,-9.619369,0.215337,-0.033542,0.082145,0.026245,-88.690872,-0.185463,-0.164492
172,0.030732,-9.613859,0.219192,0.036300,0.086660,0.011567,-88.690819,-0.184769,-0.167290
173,0.028984,-9.615304,0.217115,-0.001359,0.091693,0.052712,-88.690224,-0.183630,-0.170238
174,0.027371,-9.617387,0.223116,0.087313,0.090934,0.073969,-88.688782,-0.181449,-0.173232
175,0.033849,-9.611545,0.225390,0.118089,0.087170,-0.034319,-88.685341,-0.180721,-0.176185
176,0.032881,-9.615664,0.221646,0.049267,0.073520,-0.041350,-88.682541,-0.181920,-0.178891
177,0.033408,-9.616949,0.219609,0.002353,0.064132,-0.053761,-88.681671,-0.183452,-0.181221
178,0.037636,-9.618504,0.218846,-0.010181,0.064254,-0.132619,-88.681801,-0.186508,-0.183432
179,0.039720,-9.625020,0.213595,-0.087139,0.060411,-0.166281,-88.683411,-0.191441,-0.185624
180,0.034586,-9.628825,0.215921,-0.052817,0.057994,-0.078912,-88.685745,-0.195481,-0.187690
181,0.034825,-9.627257,0.222911,0.062047,0.058514,-0.060244,-88.685577,-0.197755,-0.189685
182,0.034346,-9.626804,0.222420,0.057541,0.074042,-0.050513,-88.683586,-0.199550,-0.191936
183,0.035115,-9.623404,0.223993,0.064914,0.073946,-0.048493,-88.681526,-0.201143,-0.194440
184,0.031172,-9.623137,0.222836,0.050303,0.078362,0.018712,-88.679596,-0.201581,-0.196989
185,0.029438,-9.617594,0.221226,0.037161,0.089565,0.049929,-88.678131,-0.200372,-0.199761
186,0.028707,-9.619627,0.215553,-0.047064,0.101646,0.050252,-88.678284,-0.198630,-0.202908
187,0.033789,-9.624640,0.217223,-0.018933,0.086158,-0.023371,-88.679367,-0.198110,-0.206027
188,0.032551,-9.629096,0.216005,-0.025145,0.081922,0.000072,-88.680099,-0.198433,-0.208837
189,0.035641,-9.628447,0.217265,-0.022695,0.077901,-0.040519,-88.680893,-0.199046,-0.211515
190,0.037339,-9.630620,0.218023,-0.014754,0.072823,-0.076317,-88.681503,-0.200935,-0.214071
191,0.037975,-9.631552,0.216350,-0.046026,0.061950,-0.076418,-88.682510,-0.203428,-0.216376
192,0.033221,-9.632933,0.214820,-0.071290,0.056014,0.006651,-88.684464,-0.204545,-0.218368
193,0.031942,-9.630489,0.218046,-0.011549,0.058227,0.022228,-88.685837,-0.204021,-0.220260
194,0.033741,-9.625426,0.221441,0.054775,0.068456,0.003063,-88.685104,-0.203551,-0.222362
195,0.032696,-9.627196,0.220824,0.050805,0.071799,0.026677,-88.683334,-0.203001,-0.224687
196,0.034035,-9.624347,0.225060,0.104266,0.069993,0.000665,-88.680740,-0.202491,-0.227039
197,0.034655,-9.618160,0.225901,0.118548,0.091135,-0.010163,-88.677017,-0.202588,-0.229728
198,0.038195,-9.620954,0.232721,0.197529,0.076516,-0.056342,-88.671738,-0.203631,-0.232547
199,0.037157,-9.621919,0.230776,0.153517,0.067627,-0.047388,-88.665871,-0.205304,-0.234989
200,0.038196,-9.627486,0.230686,0.114172,0.081039,-0.061389,-88.661400,-0.207058,-0.237508
201,0.037409,-9.637643,0.228646,0.072139,0.088894,-0.037084,-88.658287,-0.208633,-0.240378
202,0.034879,-9.632715,0.224612,0.000038,0.072834,-0.011091,-88.657074,-0.209373,-0.243091
203,0.034104,-9.631491,0.218810,-0.076615,0.086555,0.000685,-88.658348,-0.209484,-0.245751
204,0.029982,-9.634957,0.217056,-0.097619,0.084859,0.056288,-88.661247,-0.208468,-0.248585
205,0.033328,-9.631422,0.214216,-0.119204,0.056042,0.008428,-88.664848,-0.207335,-0.250908
206,0.032156,-9.625041,0.214422,-0.108080,0.045747,0.008966,-88.668625,-0.207005,-0.252597
207,0.033324,-9.630435,0.222048,0.014473,0.059499,-0.002851,-88.670181,-0.206863,-0.254348
208,0.031425,-9.629556,0.219842,-0.015654,0.060041,0.015825,-88.670197,-0.206600,-0.256335
209,0.035875,-9.622947,0.220631,-0.012317,0.049376,-0.043726,-88.670654,-0.207023,-0.258169
210,0.033760,-9.625204,0.219875,-0.024708,0.054672,-0.008035,-88.671265,-0.207845,-0.259923
211,0.032689,-9.622163,0.224790,0.052511,0.058412,0.029632,-88.670799,-0.207441,-0.261799
212,0.029411,-9.622496,0.219549,-0.028269,0.057707,0.081989,-88.670387,-0.205537,-0.263690
213,0.030306,-9.620366,0.221971,0.004415,0.057416,0.066864,-88.670784,-0.203012,-0.265551
214,0.023292,-9.624573,0.221973,0.017723,0.068850,0.148297,-88.670403,-0.199378,-0.267572
215,0.023359,-9.617318,0.227020,0.092876,0.081086,0.139480,-88.668556,-0.194525,-0.269959
216,0.029938,-9.622680,0.224861,0.049651,0.086033,0.026615,-88.666168,-0.191693,-0.272679
217,0.034510,-9.620231,0.229760,0.118973,0.081457,-0.053191,-88.663361,-0.192071,-0.275480
218,0.030805,-9.619612,0.228365,0.092915,0.090301,-0.007824,-88.659813,-0.193020,-0.278365
219,0.035209,-9.616740,0.227716,0.078473,0.094866,-0.054360,-88.656944,-0.193984,-0.281475
220,0.035642,-9.627346,0.224614,0.033644,0.088487,-0.065442,-88.655060,-0.195909,-0.284577
221,0.033230,-9.619119,0.225877,0.062809,0.084910,-0.035870,-88.653450,-0.197529,-0.287506
222,0.030408,-9.618737,0.221607,0.002978,0.079656,0.005585,-88.652344,-0.197969,-0.290260
223,0.031840,-9.621887,0.216699,-0.075412,0.083496,-0.008369,-88.653542,-0.197951,-0.292979
224,0.032807,-9.618522,0.212732,-0.142557,0.082963,-0.030602,-88.657158,-0.198536,-0.295768
225,0.031996,-9.615140,0.215844,-0.092146,0.088048,-0.018765,-88.661057,-0.199292,-0.298637
226,0.028800,-9.621868,0.211221,-0.165642,0.098150,0.031011,-88.665344,-0.199015,-0.301734
227,0.032830,-9.623040,0.215635,-0.091159,0.090895,-0.032636,-88.669617,-0.198969,-0.304885
228,0.030027,-9.623648,0.219563,-0.023781,0.082944,0.008976,-88.671516,-0.199296,-0.307791
229,0.027740,-9.618772,0.223849,0.061677,0.083989,0.046656,-88.670883,-0.198304,-0.310551
230,0.028840,-9.616566,0.220128,0.006970,0.075726,0.032287,-88.669724,-0.196927,-0.313181
232,0.030178,-9.617244,0.219430,-0.001944,0.070563,0.015061,-88.669632,-0.196082,-0.315600
233,0.029635,-9.620288,0.218463,-0.022182,0.078281,0.022696,-88.670021,-0.195395,-0.318066
234,0.033211,-9.618823,0.218404,-0.024635,0.069378,-0.026207,-88.670799,-0.195396,-0.320528
235,0.038489,-9.628725,0.219607,-0.026464,0.058469,-0.107221,-88.671638,-0.197570,-0.322709
236,0.038080,-9.629054,0.223457,0.026658,0.066570,-0.094162,-88.671631,-0.200877,-0.324871
237,0.040853,-9.626060,0.227839,0.086728,0.061455,-0.127311,-88.669724,-0.204518,-0.327089
238,0.041079,-9.626049,0.228807,0.079597,0.060098,-0.123099,-88.666946,-0.208643,-0.329212
239,0.040537,-9.627475,0.226149,0.035667,0.055779,-0.103113,-88.665016,-0.212368,-0.331230
240,0.038032,-9.626372,0.224173,-0.001207,0.056737,-0.042886,-88.664444,-0.214757,-0.333162
241,0.035378,-9.630057,0.220517,-0.070497,0.053008,-0.000297,-88.665627,-0.215433,-0.335007
242,0.034431,-9.630775,0.220381,-0.060633,0.065586,0.013985,-88.667809,-0.215159,-0.336978
243,0.034853,-9.628949,0.214118,-0.126327,0.071197,0.013033,-88.670914,-0.214656,-0.339247
244,0.034942,-9.631590,0.218946,-0.050713,0.074488,-0.000088,-88.673859,-0.214384,-0.341669
245,0.032726,-9.627904,0.219380,-0.024969,0.078338,0.022828,-88.675110,-0.213947,-0.344207
246,0.034521,-9.626713,0.218446,-0.024645,0.077655,-0.008072,-88.675926,-0.213641,-0.346800
247,0.032859,-9.620798,0.219849,-0.008883,0.066087,0.014052,-88.676476,-0.213486,-0.349193
248,0.025904,-9.621506,0.220688,-0.010534,0.063942,0.115661,-88.676796,-0.211274,-0.351310
249,0.026211,-9.619278,0.222255,0.008239,0.068377,0.110052,-88.676819,-0.207462,-0.353428
250,0.025260,-9.625370,0.219239,-0.050864,0.065267,0.111865,-88.677528,-0.203713,-0.355569
251,0.025346,-9.625351,0.221651,-0.005583,0.062105,0.098163,-88.678459,-0.200165,-0.357611
252,0.024024,-9.629249,0.217297,-0.063206,0.062133,0.116732,-88.679604,-0.196536,-0.359598
253,0.026272,-9.632026,0.213608,-0.103912,0.071658,0.081985,-88.682381,-0.193174,-0.361751
254,0.032490,-9.627278,0.209974,-0.140286,0.066130,-0.000768,-88.686432,-0.191768,-0.364016
255,0.035833,-9.615360,0.207478,-0.148164,0.078554,-0.050078,-88.691231,-0.192560,-0.366446
256,0.037019,-9.612557,0.205565,-0.169855,0.079668,-0.062868,-88.696533,-0.194382,-0.369125
257,0.042764,-9.617414,0.211103,-0.075736,0.079677,-0.145083,-88.700623,-0.197787,-0.371859
258,0.040144,-9.616256,0.217199,0.027129,0.067374,-0.099169,-88.701424,-0.201801,-0.374402
259,0.033869,-9.623693,0.219150,0.058712,0.075932,-0.006008,-88.699974,-0.203499,-0.376829
260,0.028133,-9.630513,0.224725,0.137207,0.066038,0.077759,-88.696701,-0.202250,-0.379168
261,0.023266,-9.635021,0.225852,0.141161,0.069171,0.139519,-88.692055,-0.198578,-0.381338
262,0.016745,-9.629457,0.223673,0.096040,0.069505,0.214886,-88.688095,-0.192620,-0.383514
263,0.018703,-9.628862,0.220212,0.034889,0.068303,0.158662,-88.685913,-0.186343,-0.385667
264,0.018901,-9.626642,0.220934,0.030225,0.063324,0.132336,-88.684822,-0.181444,-0.387749
265,0.021098,-9.629972,0.221463,0.038801,0.062311,0.095156,-88.683662,-0.177606,-0.389756
266,0.022850,-9.621881,0.225213,0.106695,0.061661,0.072963,-88.681244,-0.174757,-0.391757
267,0.026387,-9.617624,0.225147,0.102647,0.060266,0.013043,-88.677742,-0.173277,-0.393755
268,0.029742,-9.613224,0.229296,0.161808,0.057663,-0.040797,-88.673332,-0.173694,-0.395731
269,0.029315,-9.603490,0.224326,0.095413,0.052999,-0.033838,-88.669037,-0.174895,-0.397604
270,0.031691,-9.603087,0.225453,0.086360,0.056843,-0.072378,-88.666000,-0.176622,-0.399475
271,0.030026,-9.603880,0.216747,-0.057393,0.052519,-0.049307,-88.665512,-0.178607,-0.401345
272,0.031786,-9.609666,0.216792,-0.064465,0.065752,-0.062666,-88.667534,-0.180427,-0.403359
273,0.031517,-9.614456,0.215110,-0.089115,0.068938,-0.038617,-88.670090,-0.182062,-0.405642
274,0.032236,-9.620281,0.212485,-0.131374,0.082412,-0.038842,-88.673759,-0.183295,-0.408194
275,0.036244,-9.623699,0.212204,-0.118354,0.076539,-0.079957,-88.677910,-0.185213,-0.410888
276,0.035512,-9.628560,0.217986,-0.015966,0.083318,-0.062481,-88.680130,-0.187525,-0.413606
277,0.035859,-9.635888,0.217767,-0.011527,0.077237,-0.066035,-88.680588,-0.189605,-0.416331
278,0.033025,-9.631858,0.219153,0.002394,0.081449,-0.014359,-88.680733,-0.190883,-0.419006
279,0.032228,-9.631949,0.224803,0.095857,0.079023,-0.002364,-88.679085,-0.191100,-0.421686
280,0.026940,-9.629499,0.223255,0.055836,0.079232,0.056836,-88.676552,-0.190132,-0.424302
281,0.027748,-9.624384,0.220366,0.003716,0.075687,0.033030,-88.675545,-0.188575,-0.426849
282,0.026057,-9.616143,0.221523,0.019724,0.073179,0.064640,-88.675148,-0.186890,-0.429292
283,0.019865,-9.616628,0.219001,-0.015946,0.078140,0.155682,-88.675072,-0.183161,-0.431728
284,0.019387,-9.618139,0.220442,-0.008915,0.058323,0.150470,-88.675476,-0.178007,-0.433884
285,0.019832,-9.615456,0.220203,-0.001392,0.060918,0.138513,-88.675644,-0.173146,-0.435759
286,0.017910,-9.621213,0.217771,-0.045233,0.059665,0.161244,-88.676414,-0.168105,-0.437653
287,0.018915,-9.624106,0.217434,-0.035550,0.055970,0.129196,-88.677765,-0.163221,-0.439468
288,0.026075,-9.622569,0.218163,-0.023881,0.050222,-0.003314,-88.678741,-0.161083,-0.441189
289,0.025642,-9.625605,0.217921,-0.019941,0.062453,0.000956,-88.679466,-0.161079,-0.443068
290,0.029793,-9.624002,0.219439,0.001933,0.054994,-0.065445,-88.679764,-0.162108,-0.445049
291,0.035469,-9.622006,0.223032,0.044608,0.048682,-0.144362,-88.678986,-0.165564,-0.446857
292,0.032424,-9.623256,0.219123,-0.032706,0.058908,-0.097986,-88.678780,-0.169561,-0.448743
293,0.032232,-9.626982,0.219489,-0.016833,0.063794,-0.084955,-88.679596,-0.172562,-0.450858
294,0.029882,-9.617629,0.215208,-0.078389,0.066111,-0.042940,-88.681175,-0.174643,-0.453072
295,0.026842,-9.623503,0.215648,-0.077486,0.071879,0.003180,-88.683769,-0.175253,-0.455386
296,0.028086,-9.628010,0.217006,-0.038582,0.079197,-0.009030,-88.685699,-0.175292,-0.457906
297,0.029458,-9.626217,0.219919,0.019311,0.069723,-0.017207,-88.686012,-0.175673,-0.460397
298,0.028537,-9.626715,0.217734,-0.012565,0.065383,-0.005589,-88.685890,-0.176001,-0.462657
299,0.029290,-9.638335,0.218497,0.002194,0.059075,-0.016968,-88.686058,-0.176329,-0.464739
300,0.029280,-9.635788,0.216683,-0.028059,0.060541,-0.003906,-88.686485,-0.176631,-0.466740
301,0.026107,-9.639693,0.216032,-0.045603,0.063138,0.044149,-88.687706,-0.175913,-0.468786
302,0.027167,-9.636312,0.213995,-0.077792,0.062653,0.023419,-88.689758,-0.174739,-0.470856
303,0.027061,-9.638865,0.215565,-0.057824,0.058131,0.023692,-88.692001,-0.173908,-0.472851
304,0.030369,-9.632652,0.212719,-0.101585,0.069057,-0.029336,-88.694649,-0.173954,-0.474972
305,0.032170,-9.635393,0.215289,-0.043925,0.073165,-0.063483,-88.697075,-0.175447,-0.477377
306,0.035183,-9.634305,0.213051,-0.070781,0.073674,-0.103054,-88.698975,-0.178166,-0.479887
307,0.036230,-9.640108,0.212601,-0.076138,0.074995,-0.114544,-88.701416,-0.181736,-0.482446
308,0.038357,-9.639821,0.214567,-0.031596,0.083747,-0.118917,-88.703201,-0.185566,-0.485179
309,0.035686,-9.642805,0.211392,-0.073724,0.080146,-0.071039,-88.704948,-0.188669,-0.487982
310,0.032738,-9.636353,0.209998,-0.086439,0.081253,-0.015261,-88.707611,-0.190046,-0.490704
311,0.027348,-9.631888,0.213747,-0.022623,0.074186,0.054338,-88.709419,-0.189337,-0.493279
312,0.022391,-9.629187,0.214013,-0.005625,0.075834,0.124625,-88.709869,-0.186299,-0.495711
313,0.025638,-9.622599,0.215142,0.008397,0.062429,0.057811,-88.709824,-0.183207,-0.497947
314,0.029606,-9.623162,0.223410,0.140251,0.073527,-0.013505,-88.707336,-0.182417,-0.500195
315,0.030856,-9.625360,0.221992,0.113707,0.077553,-0.024813,-88.703110,-0.182999,-0.502727
316,0.031317,-9.619796,0.217649,0.049549,0.097028,-0.022854,-88.700378,-0.183727,-0.505654
317,0.036185,-9.617947,0.219180,0.052414,0.100054,-0.096636,-88.698669,-0.185644,-0.508983
318,0.034625,-9.622774,0.215546,-0.013662,0.109655,-0.079048,-88.698013,-0.188492,-0.512544
319,0.032808,-9.618524,0.212612,-0.066717,0.098072,-0.042062,-88.699348,-0.190431,-0.516051
320,0.039123,-9.612375,0.209218,-0.111927,0.098938,-0.139212,-88.702309,-0.193377,-0.519402
321,0.041807,-9.614313,0.207825,-0.133517,0.073739,-0.183907,-88.706390,-0.198696,-0.522401
322,0.038008,-9.614750,0.205587,-0.152193,0.072181,-0.110966,-88.711136,-0.203554,-0.524943
323,0.036843,-9.617101,0.205571,-0.144362,0.075929,-0.078290,-88.716072,-0.206653,-0.527482
324,0.038910,-9.618925,0.205372,-0.126397,0.076968,-0.098157,-88.720581,-0.209536,-0.530095
325,0.035406,-9.630016,0.209913,-0.052667,0.078580,-0.030562,-88.723557,-0.211623,-0.532735
326,0.033434,-9.631182,0.214941,0.035233,0.087280,0.017765,-88.723839,-0.211774,-0.535504
327,0.034408,-9.637296,0.220034,0.127885,0.100981,0.007042,-88.721107,-0.211291,-0.538631
328,0.033870,-9.631206,0.226639,0.235036,0.102996,0.015033,-88.715050,-0.210847,-0.542022
329,0.033498,-9.629127,0.225422,0.202519,0.106026,0.017822,-88.707741,-0.210221,-0.545492
330,0.035739,-9.627679,0.226544,0.207536,0.103710,-0.021717,-88.700897,-0.210207,-0.548989
331,0.036229,-9.621203,0.219308,0.083491,0.104611,-0.027874,-88.696030,-0.210955,-0.552479
332,0.034498,-9.621155,0.214456,-0.013056,0.085092,-0.000250,-88.694847,-0.211351,-0.555650
333,0.037266,-9.621571,0.214145,-0.026885,0.076518,-0.043475,-88.695496,-0.212018,-0.558359
335,0.035725,-9.617041,0.216879,0.012367,0.071131,-0.017602,-88.695724,-0.212980,-0.560843
336,0.030685,-9.613203,0.213405,-0.043614,0.068126,0.053543,-88.696243,-0.212328,-0.563150
337,0.031062,-9.615108,0.222575,0.087487,0.068472,0.038760,-88.695511,-0.210739,-0.565391
338,0.030058,-9.612100,0.222791,0.092945,0.068727,0.051122,-88.692490,-0.209189,-0.567643
339,0.027318,-9.613839,0.214791,-0.037382,0.072161,0.098816,-88.691559,-0.206637,-0.569933
340,0.028754,-9.621499,0.214111,-0.046276,0.065382,0.085128,-88.692940,-0.203520,-0.572155
341,0.027640,-9.625608,0.212172,-0.083702,0.057863,0.091037,-88.695099,-0.200538,-0.574142
342,0.031933,-9.637078,0.208298,-0.121308,0.053006,0.027927,-88.698517,-0.198513,-0.575944
343,0.036421,-9.635573,0.211510,-0.056941,0.060732,-0.045417,-88.701469,-0.198762,-0.577846
344,0.037644,-9.637643,0.211898,-0.038336,0.051227,-0.062848,-88.703056,-0.200523,-0.579752
345,0.042221,-9.632537,0.213778,-0.013923,0.059051,-0.134397,-88.703918,-0.203768,-0.581664
346,0.046504,-9.631862,0.215421,0.025095,0.062465,-0.189991,-88.703728,-0.209128,-0.583811
347,0.040900,-9.628802,0.218687,0.063501,0.064823,-0.091967,-88.702240,-0.213778,-0.586038
348,0.038020,-9.628738,0.218875,0.042760,0.061474,-0.046683,-88.700462,-0.216040,-0.588195
349,0.035731,-9.632589,0.223542,0.100273,0.071774,-0.008308,-88.698067,-0.216906,-0.590436
350,0.034177,-9.634531,0.216649,-0.002710,0.065836,0.018581,-88.696419,-0.216683,-0.592725
351,0.034092,-9.636053,0.215687,-0.026180,0.062731,0.026996,-88.696899,-0.215875,-0.594850
352,0.034481,-9.635136,0.212679,-0.058703,0.079175,0.009993,-88.698311,-0.215205,-0.597201
353,0.028815,-9.641644,0.212952,-0.039539,0.078026,0.106529,-88.699936,-0.213204,-0.599776
354,0.031190,-9.639853,0.212750,-0.033304,0.078642,0.063125,-88.701134,-0.210317,-0.602322
355,0.031341,-9.639228,0.218416,0.049487,0.092484,0.041430,-88.700859,-0.208511,-0.605134
356,0.029809,-9.634009,0.219823,0.069930,0.103654,0.050272,-88.698860,-0.206909,-0.608368
357,0.032379,-9.636067,0.218187,0.023126,0.093437,0.011231,-88.697296,-0.205809,-0.611628
358,0.032945,-9.630377,0.214810,-0.041262,0.096041,-0.007843,-88.697586,-0.205681,-0.614784
359,0.027028,-9.631160,0.218681,0.015218,0.099769,0.081355,-88.698013,-0.204382,-0.618019
360,0.020124,-9.636053,0.220133,0.023992,0.099054,0.193093,-88.697342,-0.199734,-0.621228
361,0.017552,-9.643877,0.223358,0.078231,0.086083,0.227528,-88.695633,-0.192655,-0.624153
362,0.019785,-9.637110,0.219768,0.022952,0.074053,0.176482,-88.693939,-0.185862,-0.626668
363,0.030145,-9.640408,0.219481,0.034702,0.067083,0.008808,-88.692970,-0.182721,-0.628949
364,0.036041,-9.636147,0.213553,-0.057413,0.052409,-0.082260,-88.693336,-0.183900,-0.630968
365,0.034703,-9.633042,0.211835,-0.068782,0.043693,-0.067232,-88.695427,-0.186354,-0.632626
366,0.029206,-9.626044,0.212081,-0.062175,0.051823,0.012653,-88.697617,-0.187227,-0.634239
367,0.023689,-9.627765,0.214033,-0.025205,0.059951,0.100004,-88.699059,-0.185308,-0.636058
368,0.017263,-9.623572,0.214992,-0.015092,0.059020,0.195227,-88.699722,-0.180344,-0.637929
369,0.016375,-9.620329,0.215210,-0.007577,0.069739,0.191370,-88.700104,-0.173853,-0.639928
370,0.012870,-9.625757,0.214194,-0.011360,0.062883,0.224365,-88.700417,-0.166876,-0.641981
371,0.018017,-9.627159,0.216098,0.029487,0.056264,0.128886,-88.700104,-0.160945,-0.643833
372,0.020711,-9.626151,0.219640,0.095463,0.061272,0.077018,-88.698013,-0.157470,-0.645713
373,0.023386,-9.626236,0.217037,0.051497,0.061578,0.025500,-88.695557,-0.155715,-0.647721
374,0.027277,-9.627809,0.214701,0.010096,0.067682,-0.039740,-88.694527,-0.155903,-0.649880
375,0.035396,-9.627986,0.217139,0.031498,0.065033,-0.158462,-88.693825,-0.159155,-0.652167
376,0.041557,-9.629281,0.215084,-0.016512,0.069139,-0.234233,-88.693565,-0.165647,-0.654552
377,0.042561,-9.629978,0.212573,-0.073033,0.061422,-0.245097,-88.695053,-0.173585,-0.656909
378,0.041501,-9.633244,0.214489,-0.057164,0.066900,-0.210815,-88.697212,-0.181133,-0.659220
379,0.039121,-9.627227,0.215758,-0.030888,0.063629,-0.163047,-88.698685,-0.187313,-0.661537
380,0.039731,-9.626065,0.213839,-0.059963,0.072845,-0.141486,-88.700188,-0.192335,-0.663926
381,0.032808,-9.624477,0.210094,-0.105274,0.073762,-0.026050,-88.702942,-0.195071,-0.666432
382,0.031400,-9.625152,0.217180,0.017454,0.068665,0.015500,-88.704391,-0.195193,-0.668809
383,0.030983,-9.624437,0.220546,0.082075,0.075098,0.021973,-88.702721,-0.194515,-0.671191
384,0.032521,-9.634050,0.223126,0.117559,0.065503,0.003985,-88.699387,-0.194029,-0.673524
385,0.027953,-9.632628,0.222557,0.102778,0.066959,0.059910,-88.695709,-0.192914,-0.675707
386,0.030108,-9.632817,0.222959,0.087278,0.064633,0.031208,-88.692528,-0.191346,-0.677865
387,0.027837,-9.632401,0.222073,0.057163,0.078977,0.059497,-88.690109,-0.189780,-0.680223
388,0.031171,-9.626664,0.217903,0.006329,0.066850,-0.000348,-88.689049,-0.188739,-0.682630
389,0.025883,-9.625716,0.217925,-0.001797,0.082316,0.086334,-88.688957,-0.187249,-0.685083
390,0.029272,-9.623875,0.222321,0.070105,0.082818,0.035175,-88.687813,-0.185162,-0.687788
391,0.025107,-9.627090,0.223337,0.098025,0.081104,0.092039,-88.684998,-0.182979,-0.690471
392,0.022784,-9.627748,0.218717,0.028188,0.076954,0.125733,-88.682884,-0.179290,-0.693021
393,0.018348,-9.629104,0.220085,0.035145,0.073734,0.190143,-88.681824,-0.173969,-0.695411
394,0.017248,-9.631832,0.215853,-0.031331,0.058350,0.185644,-88.681755,-0.167657,-0.697468
395,0.018333,-9.640311,0.215410,-0.045476,0.060655,0.163135,-88.683037,-0.161800,-0.699317
396,0.019956,-9.642162,0.212671,-0.089692,0.071873,0.124451,-88.685280,-0.156958,-0.701415
397,0.022540,-9.643243,0.217541,-0.013634,0.061779,0.061810,-88.686996,-0.153803,-0.703571
398,0.024626,-9.645655,0.216500,-0.037814,0.079171,0.018470,-88.687851,-0.152412,-0.705889
399,0.026331,-9.641068,0.218570,-0.000378,0.084704,-0.012026,-88.688477,-0.152242,-0.708617
400,0.026096,-9.633618,0.219272,0.004978,0.089384,-0.015365,-88.688393,-0.152632,-0.711528
401,0.026535,-9.625670,0.222637,0.045299,0.078707,-0.025817,-88.687538,-0.153254,-0.714344
402,0.027897,-9.626360,0.220253,0.016652,0.085809,-0.038386,-88.686501,-0.154261,-0.717110
403,0.030134,-9.626298,0.223065,0.057414,0.069949,-0.058459,-88.685272,-0.155815,-0.719743
404,0.032469,-9.628363,0.221063,0.025361,0.063048,-0.083094,-88.683884,-0.158122,-0.722013
405,0.031634,-9.628959,0.221411,0.042134,0.054313,-0.067932,-88.682755,-0.160594,-0.724026
406,0.033944,-9.629278,0.219405,0.032269,0.058150,-0.108291,-88.681511,-0.163487,-0.725968
407,0.036644,-9.625731,0.219928,0.038128,0.061979,-0.147506,-88.680321,-0.167703,-0.728067
408,0.037960,-9.625243,0.219589,0.037926,0.058691,-0.164200,-88.679047,-0.172851,-0.730198
409,0.038664,-9.625915,0.221411,0.060085,0.061864,-0.161764,-88.677406,-0.178235,-0.732332
410,0.038650,-9.627240,0.215147,-0.043719,0.058821,-0.151072,-88.677124,-0.183402,-0.734463
411,0.043001,-9.629719,0.215111,-0.054945,0.059138,-0.199645,-88.678757,-0.189200,-0.736563
412,0.035430,-9.634189,0.212453,-0.091840,0.052790,-0.072353,-88.681198,-0.193689,-0.738533
413,0.031981,-9.636579,0.212878,-0.083265,0.061891,-0.006711,-88.684113,-0.194963,-0.740474
414,0.026853,-9.630965,0.213857,-0.053465,0.063786,0.070897,-88.686386,-0.193845,-0.742543
415,0.025774,-9.629136,0.212025,-0.069850,0.070120,0.068811,-88.688431,-0.191466,-0.744721
416,0.023679,-9.629494,0.216447,-0.000649,0.064831,0.110810,-88.689606,-0.188422,-0.746901
417,0.029031,-9.628216,0.218229,0.013950,0.062935,0.020522,-88.689377,-0.186185,-0.748980
418,0.030000,-9.624851,0.214142,-0.047804,0.057701,-0.011840,-88.689926,-0.185994,-0.750987
419,0.034356,-9.629066,0.215435,-0.025538,0.062380,-0.082991,-88.691147,-0.187528,-0.753024
420,0.033565,-9.627658,0.219154,0.045479,0.061400,-0.058312,-88.690811,-0.189836,-0.755140
421,0.032778,-9.629433,0.217215,0.027415,0.072383,-0.039228,-88.689583,-0.191410,-0.757406
422,0.032747,-9.623639,0.213586,-0.012428,0.073817,-0.022917,-88.689316,-0.192390,-0.759866
423,0.031856,-9.624091,0.217789,0.058461,0.080485,0.008068,-88.688545,-0.192578,-0.762443
424,0.032670,-9.624525,0.219974,0.084301,0.081848,0.001030,-88.686157,-0.192365,-0.765144
425,0.030787,-9.619432,0.220892,0.072363,0.080978,0.032842,-88.683548,-0.191738,-0.767844
426,0.030765,-9.619537,0.222580,0.066485,0.074908,0.017874,-88.681221,-0.190833,-0.770422
427,0.030285,-9.621511,0.224624,0.082786,0.075103,0.016745,-88.678726,-0.190199,-0.772908
428,0.026989,-9.622182,0.220950,0.014019,0.063789,0.052024,-88.677101,-0.188999,-0.775196
429,0.025620,-9.625016,0.218883,-0.015645,0.057973,0.067982,-88.677124,-0.186953,-0.777179
430,0.031153,-9.633881,0.217918,-0.020717,0.058962,-0.002220,-88.677719,-0.185812,-0.779102
