seq,ax,ay,az,wroll,wpitch,wyaw,roll,pitch,yaw,q0,q1,q2,q3
60,0.254314,-2.315526,9.470533,-10.423427,1.691298,-0.961830,-13.739161,-1.494210,0.365285,0.992737,-0.119558,-0.013327,0.001605
61,-0.424076,-2.447859,9.085090,-18.802536,16.666842,-6.974038,-14.221450,-1.229261,0.162965,0.992253,-0.123765,-0.010821,0.000083
62,-0.570100,-2.795593,9.154468,-27.438871,18.510994,-5.484753,-14.986208,-0.714074,-0.185527,0.991439,-0.130414,-0.005967,-0.002418
63,-0.726386,-2.996271,9.413952,-28.315184,19.097681,-2.854377,-15.913193,-0.147270,-0.486643,0.990363,-0.138427,-0.000685,-0.004384
64,-0.660456,-3.298846,9.402598,-29.900620,17.122133,0.896305,-16.883968,0.422377,-0.688295,0.989144,-0.146782,0.004528,-0.005400
65,-0.431056,-3.514937,8.837650,-32.510639,12.293614,4.457350,-17.924931,0.916503,-0.749910,0.987746,-0.155727,0.008920,-0.005218
66,-0.193124,-3.813147,8.712279,-34.943569,6.812070,6.508665,-19.047829,1.276019,-0.677888,0.986149,-0.165381,0.011960,-0.003991
68,-0.106683,-4.032370,8.308990,-35.389259,2.329744,6.570954,-20.216311,1.492437,-0.524160,0.984395,-0.175432,0.013624,-0.002217
69,0.063429,-4.261569,7.813489,-38.126163,-2.090437,3.978597,-21.437168,1.558528,-0.361567,0.982465,-0.185925,0.013950,-0.000570
70,0.335749,-4.597709,7.949236,-38.558041,-5.193641,-0.441176,-22.712492,1.468291,-0.261754,0.980345,-0.196863,0.013012,0.000284
71,0.276501,-4.785312,8.097419,-35.715851,-3.619955,-3.749990,-23.950432,1.306033,-0.268145,0.978177,-0.207448,0.011634,0.000076
72,0.074292,-4.887943,7.883592,-33.442017,-0.410427,-4.707853,-25.105146,1.186748,-0.368544,0.976047,-0.217290,0.010807,-0.000888
73,-0.124989,-5.044184,8.462487,-26.446655,2.842317,-4.317552,-26.106354,1.158499,-0.521540,0.974111,-0.225797,0.010876,-0.002150
74,-0.220323,-5.379333,8.494798,-21.691648,3.558594,-3.455823,-26.912001,1.196294,-0.684905,0.972493,-0.232621,0.011543,-0.003383
75,-0.437930,-5.484023,8.278287,-21.994013,4.645749,-0.950497,-27.642834,1.284198,-0.812795,0.970979,-0.238798,0.012576,-0.004210
76,-0.443595,-5.751525,8.353278,-13.033895,2.282555,0.493884,-28.228052,1.382552,-0.873517,0.969736,-0.243738,0.013559,-0.004450
77,-0.416345,-5.859216,8.373546,-7.672388,1.358307,2.364590,-28.572838,1.458526,-0.860462,0.968992,-0.246650,0.014187,-0.004135
78,-0.360744,-5.910119,8.212839,-5.911619,0.072653,2.921072,-28.797529,1.521676,-0.794573,0.968503,-0.248552,0.014585,-0.003414
79,-0.399155,-5.720330,8.247488,-2.937181,-0.043571,3.859709,-28.942350,1.576639,-0.695810,0.968185,-0.249784,0.014839,-0.002441
80,-0.309631,-5.718213,8.289597,-2.219229,-1.085660,3.989025,-29.024839,1.623530,-0.572198,0.968002,-0.250493,0.014966,-0.001283
81,-0.200235,-5.446212,8.309625,-2.199219,-3.277736,2.548398,-29.094801,1.612875,-0.441584,0.967851,-0.251102,0.014591,-0.000194
82,-0.150788,-5.300577,8.415019,-0.028000,-4.422578,1.033858,-29.128807,1.529797,-0.326955,0.967785,-0.251408,0.013638,0.000596
83,-0.032043,-5.140632,8.479583,2.356712,-5.467159,-1.773347,-29.088249,1.379774,-0.257535,0.967889,-0.251080,0.012219,0.000848
84,0.061825,-5.091972,8.643490,3.980655,-5.585529,-5.595452,-28.983059,1.159090,-0.275529,0.968138,-0.250200,0.010395,0.000203
85,0.076729,-4.917746,8.670225,6.454185,-3.790444,-8.629781,-28.811583,0.907690,-0.407614,0.968529,-0.248751,0.008557,-0.001475
86,0.254120,-4.900817,9.081546,7.068592,-4.370548,-9.778631,-28.589020,0.641028,-0.611471,0.969018,-0.246870,0.006738,-0.003790
87,0.244488,-4.590360,8.695401,8.343996,-3.308310,-11.286083,-28.334309,0.361203,-0.859125,0.969559,-0.244721,0.004891,-0.006498
88,0.021929,-4.447396,8.829848,8.923707,0.149914,-9.634796,-28.047825,0.150078,-1.141605,0.970149,-0.242302,0.003685,-0.009348
89,-0.077679,-4.302599,8.973752,10.843584,0.728216,-6.424422,-27.718851,0.037851,-1.385113,0.970816,-0.239519,0.003216,-0.011656
90,-0.108561,-4.156518,9.079616,15.171374,1.958366,-4.505811,-27.285341,-0.006459,-1.567435,0.971695,-0.235845,0.003171,-0.013305
91,-0.295000,-4.014651,8.734519,14.300276,4.583858,-3.355294,-26.794214,0.031191,-1.733772,0.972677,-0.231668,0.003770,-0.014655
92,-0.382722,-4.088427,9.199444,11.525596,3.892063,-1.563217,-26.364006,0.120831,-1.870392,0.973524,-0.227998,0.004749,-0.015651
93,-0.112597,-4.025194,9.012960,12.879633,0.316844,-0.959154,-25.957441,0.165290,-1.939076,0.974319,-0.224533,0.005206,-0.016165
94,-0.087001,-3.960194,8.832158,10.579267,0.406476,-0.863584,-25.566551,0.163013,-1.971583,0.975074,-0.221207,0.005194,-0.016463
95,-0.184389,-3.699396,8.897626,12.639914,1.147748,1.568776,-25.179569,0.191449,-1.972066,0.975816,-0.217909,0.005381,-0.016431
96,-0.196505,-3.732626,8.837835,9.871494,1.386202,3.275148,-24.804173,0.263888,-1.916780,0.976534,-0.214703,0.005841,-0.015841
97,-0.124196,-3.764146,8.910438,8.197939,-0.323731,3.549839,-24.502523,0.327480,-1.820825,0.977109,-0.212127,0.006164,-0.014921
98,-0.195059,-3.826101,9.033775,6.751209,0.520530,4.103711,-24.252680,0.383150,-1.705967,0.977583,-0.209995,0.006396,-0.013852
99,-0.068048,-3.801754,9.107119,6.296002,-1.645571,2.773643,-24.034437,0.412938,-1.593723,0.977995,-0.208135,0.006420,-0.012852
100,0.156818,-4.070271,9.054225,0.718194,-4.880076,0.191032,-23.916969,0.333638,-1.504340,0.978217,-0.207147,0.005568,-0.012239
101,0.092950,-4.029647,9.131057,1.178590,-3.246341,-1.388181,-23.885220,0.201755,-1.467640,0.978278,-0.206892,0.004373,-0.012166
102,-0.043480,-3.974559,9.008311,0.805129,0.114772,-1.665471,-23.852249,0.133427,-1.493068,0.978334,-0.206618,0.003832,-0.012507
103,0.235428,-3.967509,9.072281,0.654507,-2.838556,-2.584509,-23.828020,0.063269,-1.539515,0.978372,-0.206418,0.003314,-0.013031
104,-0.035420,-4.065157,9.012043,-1.498523,2.318234,-1.007453,-23.842113,0.031145,-1.590764,0.978340,-0.206540,0.003133,-0.013526
105,-0.318767,-3.884574,8.947314,0.875741,7.037860,1.803640,-23.852606,0.179124,-1.641661,0.978317,-0.206610,0.004490,-0.013693
106,-0.305770,-3.749453,9.046770,3.706942,6.157216,2.683219,-23.776363,0.410520,-1.662016,0.978453,-0.205929,0.006493,-0.013454
107,-0.190777,-3.758843,9.087921,4.321649,2.953210,2.567052,-23.642410,0.584740,-1.642901,0.978693,-0.204763,0.007931,-0.012987
108,-0.603770,-3.734655,9.014215,4.278164,8.318783,4.109394,-23.498774,0.801438,-1.615996,0.978946,-0.203509,0.009718,-0.012382
109,-0.372402,-3.613920,9.156590,7.470879,3.356203,2.676059,-23.302515,1.024922,-1.589542,0.979287,-0.201805,0.011560,-0.011778
110,-0.318479,-3.663565,9.267702,7.295604,1.217877,2.606778,-23.055471,1.129661,-1.538475,0.979719,-0.199685,0.012341,-0.011184
111,-0.232880,-3.711936,9.273104,8.684017,-0.642983,3.861488,-22.787231,1.180487,-1.442861,0.980189,-0.197395,0.012585,-0.010307
112,-0.214157,-3.694942,9.356791,10.641487,-1.367371,4.596898,-22.462179,1.203817,-1.299788,0.980756,-0.194626,0.012512,-0.009079
113,-0.000878,-3.919359,9.469997,9.390306,-4.685462,3.833596,-22.124846,1.163781,-1.131467,0.981340,-0.191761,0.011861,-0.007741
114,-0.066359,-4.174942,9.447595,7.310877,-5.277352,4.202290,-21.842918,1.059974,-0.944997,0.981827,-0.189374,0.010644,-0.006344
115,0.077403,-4.352664,9.436278,5.966699,-8.405272,2.505864,-21.618427,0.889571,-0.756659,0.982216,-0.187479,0.008863,-0.005030
116,0.162327,-4.400432,9.480588,5.897969,-9.596580,-0.387404,-21.418844,0.623418,-0.613675,0.982559,-0.185794,0.006341,-0.004251
117,0.187497,-4.595693,9.617548,4.873860,-9.172547,-4.243011,-21.239044,0.303927,-0.571751,0.982859,-0.184270,0.003526,-0.004415
118,0.082304,-4.392855,9.315598,8.193953,-6.777881,-9.031494,-21.021608,-0.023837,-0.682246,0.983203,-0.182419,0.000882,-0.005892
119,0.143199,-4.062345,9.059984,11.031209,-5.180177,-14.885105,-20.700331,-0.352071,-0.983838,0.983682,-0.179682,-0.001480,-0.008998
120,-0.086182,-3.825350,8.586998,9.124198,1.452780,-17.559031,-20.360523,-0.599958,-1.468499,0.984150,-0.176795,-0.002888,-0.013538
121,-0.252390,-3.753850,8.766979,6.113858,7.666727,-16.321600,-20.100466,-0.652789,-2.051010,0.984464,-0.174581,-0.002485,-0.018617
122,-0.189700,-3.316835,8.694675,7.606778,8.476475,-13.691867,-19.866058,-0.571030,-2.613183,0.984722,-0.172562,-0.000974,-0.023320
123,-0.231431,-2.997944,8.929601,8.539974,9.481078,-7.965611,-19.593254,-0.411066,-3.054008,0.985045,-0.170184,0.001001,-0.026869
124,-0.108630,-2.886385,9.257648,11.782879,8.375542,-2.925633,-19.253283,-0.190632,-3.324208,0.985494,-0.167204,0.003211,-0.028875
125,0.128299,-2.701511,9.707615,15.550079,3.204742,-0.072009,-18.797626,-0.024271,-3.434316,0.986131,-0.163238,0.004685,-0.029598
126,0.103808,-2.496924,9.384953,23.215794,-0.847104,1.175449,-18.151567,0.018997,-3.429146,0.987039,-0.157665,0.004883,-0.029520
127,0.157659,-2.550595,9.283386,20.946566,-3.665805,2.549077,-17.415575,-0.033552,-3.346880,0.988050,-0.151339,0.004132,-0.028911
128,0.265296,-2.546809,9.348594,20.933832,-6.697357,2.871207,-16.717852,-0.172019,-3.209704,0.988982,-0.145358,0.002587,-0.027927
129,0.127015,-2.456866,9.459027,21.102198,-5.828974,6.041867,-16.018179,-0.330400,-3.008204,0.989890,-0.139357,0.000803,-0.026394
130,-0.069090,-2.321939,9.536012,21.972210,-4.034476,8.915829,-15.302112,-0.421251,-2.723886,0.990799,-0.133188,-0.000478,-0.024046
131,-0.209809,-2.218036,9.652392,22.690298,-1.738437,12.602577,-14.560440,-0.421706,-2.352711,0.991713,-0.126770,-0.001048,-0.020830
132,-0.203288,-2.202789,9.718993,21.005135,-1.574167,14.895272,-13.835267,-0.362682,-1.895059,0.992573,-0.120477,-0.001150,-0.016797
133,-0.223724,-2.397007,9.474696,14.449606,-1.883238,15.917768,-13.247332,-0.298288,-1.382358,0.993246,-0.115370,-0.001194,-0.012283
134,-0.217268,-2.681708,9.147832,4.120996,-2.556360,14.548319,-12.940310,-0.255036,-0.871071,0.993598,-0.112699,-0.001355,-0.007804
135,0.107294,-2.839080,9.122516,-5.321132,-7.059352,11.981030,-12.962656,-0.311764,-0.404259,0.993598,-0.112888,-0.002305,-0.003812
136,0.292705,-3.022906,9.241630,-14.664031,-9.025340,7.844633,-13.298616,-0.497444,-0.021539,0.993264,-0.115792,-0.004290,-0.000689
137,-0.065031,-3.079323,9.292027,-21.340630,-4.156456,6.608898,-13.901678,-0.653983,0.264317,0.992633,-0.121002,-0.005944,0.001599
138,-0.272085,-2.834373,9.320957,-21.322693,-0.361682,8.123272,-14.615602,-0.666245,0.521106,0.991854,-0.127170,-0.006345,0.003771
139,0.190823,-2.799311,9.562085,-21.089579,-4.430975,8.547232,-15.325738,-0.671663,0.810365,0.991034,-0.133297,-0.006752,0.006227
140,0.287962,-2.618141,9.726827,-17.626938,-4.610869,6.461919,-15.974551,-0.749369,1.091708,0.990242,-0.138882,-0.007799,0.008526
141,0.092421,-2.446610,9.675641,-12.820022,-2.880191,4.562530,-16.484900,-0.817869,1.302978,0.989593,-0.143269,-0.008693,0.010230
142,0.440792,-2.318871,9.648406,-6.871562,-5.673740,1.823621,-16.815250,-0.923947,1.445831,0.989157,-0.146098,-0.009820,0.011302
143,0.708758,-2.523415,9.859322,-3.978480,-6.406173,-2.140557,-16.997082,-1.118131,1.499205,0.988907,-0.147638,-0.011583,0.011497
144,0.266588,-2.288458,9.833037,3.885940,-0.389153,-4.802896,-16.997074,-1.260232,1.421561,0.988904,-0.147629,-0.012709,0.010643
145,-0.065299,-2.590343,9.775060,4.253374,4.095618,-1.583728,-16.858877,-1.232082,1.301634,0.989094,-0.146453,-0.012300,0.009659
146,0.207357,-2.823487,9.740664,4.601434,2.670077,1.594214,-16.710682,-1.124054,1.269181,0.989293,-0.145189,-0.011314,0.009532
147,0.184536,-2.888801,9.749802,5.649768,2.808837,3.813165,-16.540981,-1.010733,1.329427,0.989510,-0.143730,-0.010397,0.010211
148,0.045110,-2.916476,9.582249,4.938128,2.314878,5.065357,-16.366476,-0.886901,1.447170,0.989723,-0.142227,-0.009458,0.011398
149,0.162190,-2.952685,9.339717,2.230005,-0.454208,6.860644,-16.249702,-0.801301,1.629245,0.989852,-0.141214,-0.008931,0.013086
150,0.296477,-2.774984,9.201594,2.908494,-3.179641,6.646510,-16.167353,-0.796561,1.862345,0.989925,-0.140485,-0.009166,0.015112
151,0.198912,-2.604042,9.114110,2.211150,-2.117517,5.482452,-16.085173,-0.825234,2.081100,0.989994,-0.139753,-0.009670,0.016974
152,0.162028,-2.603725,9.042826,0.447016,-1.777596,5.239136,-16.043615,-0.838167,2.270797,0.990014,-0.139375,-0.010006,0.018600
153,0.071059,-2.393753,9.112144,3.222926,-0.054408,6.687604,-15.985318,-0.812653,2.470306,0.990052,-0.138859,-0.010018,0.020360
154,-0.012809,-2.651334,9.171835,0.688795,0.799203,9.188801,-15.923469,-0.728022,2.721325,0.990082,-0.138320,-0.009579,0.022637
155,-0.167738,-2.782547,9.273324,-0.154967,3.092119,11.213455,-15.918066,-0.572323,3.030524,0.990027,-0.138284,-0.008606,0.025497
156,-0.111619,-2.765888,9.238274,3.116194,0.015131,13.508208,-15.871939,-0.409653,3.412613,0.989992,-0.137899,-0.007650,0.028998
157,-0.065824,-3.008454,9.174839,-1.053454,-1.744627,14.667402,-15.840548,-0.309158,3.872263,0.989904,-0.137626,-0.007326,0.033091
158,0.024816,-3.015051,9.368098,-1.652577,-3.102234,14.708408,-15.888122,-0.252883,4.365263,0.989694,-0.138022,-0.007448,0.037415
159,0.063998,-2.509924,9.432943,4.050812,-3.559067,11.022903,-15.850116,-0.242387,4.808121,0.989588,-0.137668,-0.007877,0.041254
160,0.156720,-2.735899,9.485402,-1.056106,-5.280384,6.609001,-15.801786,-0.304179,5.131033,0.989527,-0.137204,-0.008780,0.043972
161,0.331700,-2.730363,9.499530,-1.269316,-6.988444,0.063379,-15.841728,-0.470485,5.293812,0.989420,-0.137469,-0.010426,0.045175
162,0.259642,-2.379744,9.693944,5.299429,-2.425482,-6.105708,-15.774138,-0.648864,5.239647,0.989525,-0.136819,-0.011875,0.044499
163,0.157158,-2.524223,9.548542,3.554803,0.150132,-11.004919,-15.623415,-0.762544,4.975251,0.989804,-0.135501,-0.012486,0.042096
164,0.125663,-2.926042,9.592047,-1.868689,2.339127,-13.365757,-15.589782,-0.831951,4.572855,0.989984,-0.135229,-0.012598,0.038542
165,0.131979,-2.324493,9.638116,6.818788,4.335623,-13.659613,-15.500549,-0.845651,4.109076,0.990237,-0.134503,-0.012142,0.034528
166,-0.081326,-2.551898,9.571632,2.176360,7.259313,-12.012797,-15.344142,-0.772859,3.645163,0.990553,-0.133220,-0.010927,0.030619
167,-0.048176,-2.818788,9.323537,-3.017682,6.150332,-10.396902,-15.353047,-0.656346,3.225747,0.990651,-0.133365,-0.009434,0.027129
168,0.038751,-2.616139,9.306085,-1.637487,4.288305,-8.631392,-15.426855,-0.572933,2.873750,0.990645,-0.134050,-0.008319,0.024178
169,0.058139,-2.495941,9.417862,-2.289827,3.422649,-5.771636,-15.489770,-0.513026,2.608120,0.990625,-0.134625,-0.007502,0.021947
171,0.039985,-2.677059,9.125978,-6.234050,2.940558,-4.410832,-15.630223,-0.456410,2.416175,0.990495,-0.135862,-0.006812,0.020346
172,0.240617,-2.686511,9.360041,-6.473941,0.229393,-2.629705,-15.841036,-0.437451,2.288882,0.990266,-0.137695,-0.006533,0.019256
173,0.050957,-2.638951,9.407341,-5.802985,1.601148,-0.706226,-16.045168,-0.423427,2.227007,0.990029,-0.139465,-0.006370,0.018727
174,0.299758,-2.812101,9.261390,-8.833307,-1.559972,-1.016799,-16.288908,-0.430783,2.199262,0.989735,-0.141571,-0.006439,0.018465
175,0.184104,-2.840456,8.878570,-8.784621,-0.215118,-1.573770,-16.582272,-0.471391,2.166166,0.989374,-0.144099,-0.006796,0.018111
176,0.349687,-3.096206,8.663820,-15.757765,-3.710004,-2.469107,-16.990908,-0.553462,2.120573,0.988860,-0.147616,-0.007510,0.017588
177,0.373715,-2.989997,7.981483,-18.716398,-4.246197,-5.256462,-17.564522,-0.718348,2.036938,0.988117,-0.152543,-0.008908,0.016609
178,0.471197,-3.285895,7.398420,-30.978048,-3.904406,-4.156411,-18.391239,-0.895885,1.929618,0.986999,-0.159648,-0.010407,0.015372
179,0.184089,-3.483863,7.231236,-37.659687,0.625486,-4.443152,-19.533163,-0.994280,1.812023,0.985370,-0.169472,-0.011232,0.014111
180,0.096461,-3.325311,7.378940,-43.694649,1.958976,-3.625817,-20.886497,-1.000216,1.671334,0.983316,-0.181110,-0.011226,0.012761
181,-0.003368,-3.559415,7.714961,-49.839996,3.129289,-2.462741,-22.443018,-0.958958,1.545882,0.980781,-0.194467,-0.010833,0.011603
182,-0.152537,-3.700151,8.158442,-52.271183,5.595143,0.794334,-24.143213,-0.836551,1.463013,0.977801,-0.209020,-0.009808,0.010958
183,0.051777,-3.588596,8.631607,-46.883339,1.531338,-1.217722,-25.794661,-0.732140,1.406914,0.974696,-0.223107,-0.008968,0.010541
184,0.179169,-3.701151,8.969177,-46.918163,0.798222,-3.753959,-27.356489,-0.734463,1.314948,0.971572,-0.236377,-0.008941,0.009634
185,-0.053682,-4.138540,8.952235,-44.549747,4.684809,-2.185704,-28.879000,-0.700312,1.184379,0.968357,-0.249278,-0.008495,0.008485
186,0.147671,-4.364970,8.704687,-41.651325,3.861040,-1.371556,-30.314072,-0.605684,1.062965,0.965171,-0.261403,-0.007527,0.007571
187,0.275473,-4.781917,8.559760,-40.000244,2.304084,-3.940370,-31.673401,-0.563289,0.934167,0.962011,-0.272846,-0.006954,0.006501
188,-0.234841,-5.125877,8.616254,-36.950317,8.196015,1.038005,-32.954510,-0.441116,0.799494,0.958910,-0.283600,-0.005670,0.005598
189,-0.208266,-5.580578,8.069269,-33.979900,5.757267,4.464280,-34.136333,-0.196709,0.748166,0.955938,-0.293492,-0.003557,0.005738
190,0.337781,-6.059108,8.062820,-27.725079,-0.476407,-0.520814,-35.164715,-0.087299,0.752238,0.953264,-0.302065,-0.002709,0.006028
191,0.050672,-5.621935,7.581089,-14.767759,3.857329,-1.170996,-35.872803,-0.057786,0.696009,0.951382,-0.307952,-0.002350,0.005623
192,-0.368996,-5.827843,7.710605,-15.467728,8.995745,1.489966,-36.376785,0.118585,0.574204,0.950021,-0.312143,-0.000581,0.005083
193,0.121102,-5.936772,7.466576,-18.293985,3.316786,-6.290226,-36.940075,0.235463,0.387709,0.948480,-0.316813,0.000877,0.003860
194,-0.170658,-5.834265,7.985469,-17.869524,7.352910,-6.276370,-37.543800,0.250353,0.112962,0.946804,-0.321802,0.001751,0.001636
195,-0.550529,-5.704921,7.828973,-20.985586,10.001730,-2.847119,-38.193073,0.385458,-0.184480,0.944964,-0.327153,0.003705,-0.000421
196,-0.427414,-6.494495,8.580283,-29.187214,5.776995,-4.131749,-39.031357,0.518237,-0.439301,0.942539,-0.334043,0.005543,-0.002103
197,0.009016,-6.294972,8.322149,-23.226589,0.025524,-6.767192,-39.906563,0.477172,-0.641319,0.939956,-0.341224,0.005824,-0.003840
198,-0.180269,-6.570353,8.590849,-18.938669,1.693833,-3.701914,-40.610325,0.386266,-0.793393,0.937838,-0.346988,0.005564,-0.005324
199,-0.006355,-6.444311,8.192678,-12.455817,0.647445,-3.743769,-41.134323,0.334553,-0.912623,0.936236,-0.351271,0.005531,-0.006431
200,0.219254,-6.881127,8.051380,-14.053636,-1.558512,-5.059658,-41.576618,0.226244,-1.012780,0.934866,-0.354885,0.004983,-0.007562
201,0.290922,-6.459501,7.696697,-7.751496,-1.032415,-6.235870,-41.940296,0.068629,-1.124521,0.933724,-0.357859,0.004071,-0.008949
202,0.082055,-6.871243,7.653378,-10.478240,1.684319,-2.920841,-42.244183,-0.025524,-1.245134,0.932759,-0.360337,0.003708,-0.010216
203,0.057806,-6.566432,7.400378,-7.948682,1.449654,-2.481298,-42.551258,-0.047697,-1.346729,0.931779,-0.362834,0.003876,-0.011102
204,0.246638,-6.986848,7.309106,-12.807277,-1.763725,-3.256442,-42.897099,-0.116415,-1.413430,0.930670,-0.365649,0.003565,-0.011851
205,0.214267,-6.706927,7.300997,-7.576902,-1.100785,-3.586508,-43.236645,-0.229235,-1.464196,0.929572,-0.368415,0.002848,-0.012615
206,0.132513,-7.120097,7.204557,-10.143079,-0.096887,-3.460247,-43.531643,-0.324377,-1.535878,0.928606,-0.370814,0.002341,-0.013497
207,0.285094,-6.980035,7.380763,-5.544104,-0.976528,-6.867169,-43.792339,-0.456153,-1.648011,0.927737,-0.372937,0.001670,-0.014828
208,0.147853,-7.056454,7.328563,-4.520870,1.389966,-6.147774,-43.958588,-0.601455,-1.809257,0.927160,-0.374297,0.001042,-0.016605
209,0.191484,-6.754963,7.554594,1.351382,1.693213,-5.677509,-44.009438,-0.701324,-1.986749,0.926957,-0.374718,0.000822,-0.018366
210,0.293810,-6.844831,7.588593,0.847867,-0.317838,-4.426041,-43.970989,-0.801711,-2.123873,0.927048,-0.374419,0.000452,-0.019804
211,0.146939,-6.629084,7.620852,3.129832,-0.547026,0.720620,-43.904179,-0.854941,-2.158340,0.927254,-0.373885,0.000122,-0.020256
212,0.101758,-6.634747,7.583052,3.480333,-1.945351,5.314994,-43.795486,-0.815185,-2.057034,0.927630,-0.373000,0.000095,-0.019307
213,0.530134,-6.809792,7.677753,3.430634,-7.426330,5.493039,-43.683651,-0.803461,-1.818892,0.928033,-0.372093,-0.000602,-0.017341
214,0.256157,-6.790236,7.508974,3.733989,-5.736702,8.695329,-43.568821,-0.799075,-1.496294,0.928451,-0.371159,-0.001629,-0.014712
215,0.220403,-6.712811,7.629611,6.657763,-5.712538,10.649914,-43.400379,-0.715648,-1.131046,0.929045,-0.369782,-0.002153,-0.011479
216,0.333891,-7.022964,7.602629,4.865156,-8.036262,9.897945,-43.213142,-0.647559,-0.724642,0.929688,-0.368251,-0.002925,-0.007960
217,0.347795,-7.200864,7.841409,6.102696,-8.255200,8.677652,-43.035019,-0.634039,-0.313028,0.930282,-0.366793,-0.004145,-0.004571
218,0.037213,-7.592546,7.782221,2.385367,-5.703741,10.265498,-42.897739,-0.589143,0.076597,0.930733,-0.365663,-0.005030,-0.001258
219,0.052098,-7.735388,8.444984,-1.713974,-6.734717,9.261065,-42.890141,-0.519411,0.456094,0.930758,-0.365586,-0.005674,0.002047
220,0.177216,-7.929687,9.137584,-5.698275,-9.504560,7.104408,-43.017239,-0.531532,0.840145,0.930340,-0.366596,-0.007003,0.005120
221,-0.101520,-8.073177,9.608243,-5.686930,-6.516867,7.340415,-43.210495,-0.561811,1.198370,0.929700,-0.368137,-0.008409,0.007918
222,-0.060426,-8.242331,10.061628,-5.220698,-3.590864,4.702979,-43.394760,-0.546716,1.460025,0.929086,-0.369614,-0.009143,0.010074
223,-0.161065,-8.339556,10.300551,0.115505,1.430903,2.457090,-43.480854,-0.490763,1.571437,0.928797,-0.370309,-0.009057,0.011151
224,-0.406330,-8.637446,9.584868,-0.976515,7.183625,3.958706,-43.495014,-0.313019,1.550242,0.928751,-0.370447,-0.007549,0.011553
225,-0.399729,-8.609974,8.908062,5.348144,13.572792,5.361868,-43.421841,0.044939,1.425046,0.928988,-0.369900,-0.004236,0.011698
226,-0.203101,-8.042263,8.582058,22.980722,14.226800,5.935750,-42.950523,0.511656,1.245388,0.930494,-0.366119,0.000176,0.011748
227,-0.523669,-7.852934,7.659379,29.939795,13.506208,10.149538,-42.070114,1.033722,1.131250,0.933246,-0.358990,0.004876,0.012451
228,-0.283499,-6.953563,6.938022,38.500481,9.163558,9.172167,-40.929905,1.530305,1.122198,0.936712,-0.349709,0.009087,0.013843
229,0.143895,-6.234900,6.766841,48.632172,2.931764,2.619239,-39.477386,1.811241,1.142811,0.941025,-0.337820,0.011508,0.014723
230,0.039768,-6.101838,6.672578,45.469181,0.349493,0.069325,-37.909256,1.881765,1.144750,0.945548,-0.324914,0.012285,0.014780
231,0.078425,-5.857066,6.669696,40.101959,-1.267458,-6.643908,-36.485840,1.803285,1.067082,0.949533,-0.313133,0.012030,0.013769
232,0.461081,-5.024334,6.675661,39.657379,-1.757621,-12.459595,-35.163452,1.575588,0.838949,0.953141,-0.302125,0.010895,0.011132
233,0.351099,-4.680905,6.590321,28.166677,0.079766,-12.375196,-34.041412,1.317113,0.514443,0.956111,-0.292744,0.009676,0.007657
234,0.104744,-4.521844,6.576322,22.159376,3.287579,-9.196913,-33.209942,1.164410,0.184026,0.958242,-0.285772,0.009279,0.004443
235,0.167379,-3.891188,6.569118,28.514282,3.481221,-12.492398,-32.372620,1.063389,-0.181205,0.960322,-0.278735,0.009353,0.001068
236,-0.053617,-4.001826,6.258568,15.833634,4.894240,-8.497352,-31.640184,0.996345,-0.551820,0.962086,-0.272564,0.009678,-0.002263
237,-0.465306,-4.087977,6.450490,13.762481,7.206751,-5.876726,-31.152527,1.043494,-0.861532,0.963225,-0.268436,0.010790,-0.004797
238,-0.314333,-3.432211,6.802723,30.985657,2.685231,-5.682600,-30.411469,1.086528,-1.111581,0.964926,-0.262173,0.011693,-0.006873
239,-0.701916,-3.677528,7.153914,31.736332,4.913376,3.752788,-29.367910,1.180736,-1.202319,0.967262,-0.253355,0.012626,-0.007537
240,-0.534079,-4.060781,7.768921,31.033957,-0.499871,5.459495,-28.319780,1.319773,-1.103789,0.969535,-0.244494,0.013523,-0.006522
241,-0.383205,-4.053934,8.260401,41.155655,-3.973295,8.351103,-27.111223,1.361133,-0.865010,0.972068,-0.234279,0.013316,-0.004554
242,-0.373174,-3.795843,8.310712,49.410503,-5.218216,12.238129,-25.593081,1.376363,-0.489288,0.975095,-0.221422,0.012658,-0.001503
243,-0.332232,-4.565107,8.960467,37.164085,-6.637113,12.514985,-24.139492,1.370789,-0.031921,0.977825,-0.209084,0.011756,0.002229
244,0.045492,-4.161635,9.075193,41.461529,-9.633278,7.095010,-22.819971,1.252798,0.376061,0.980166,-0.197850,0.010067,0.005379
245,-0.315877,-3.922562,8.813940,36.979256,-5.557387,10.771081,-21.505280,1.130182,0.747774,0.982361,-0.186619,0.008472,0.008251
246,-0.243136,-3.568276,8.834678,27.970709,-4.871794,8.552005,-20.415775,1.083382,1.110258,0.984065,-0.177294,0.007587,0.011210
247,-0.088612,-3.847482,9.098056,15.225804,-5.949455,7.303943,-19.690256,1.004639,1.420413,0.985141,-0.171073,0.006518,0.013711
248,-0.521758,-3.779514,9.049549,13.417952,0.149277,9.000656,-19.207857,1.004212,1.709022,0.985815,-0.166940,0.006151,0.016166
249,-0.424376,-3.546115,8.888455,12.692049,-0.719715,7.267711,-18.767847,1.083465,1.968319,0.986402,-0.163178,0.006527,0.018487
250,-0.532042,-3.441448,9.091715,9.288523,1.675404,6.736173,-18.397268,1.172909,2.184549,0.986878,-0.160013,0.007055,0.020452
251,-0.685102,-3.304790,9.063795,7.976624,5.861847,8.998896,-18.104816,1.374360,2.394236,0.987219,-0.157540,0.008554,0.022517
252,-0.759899,-3.170389,9.167203,5.796512,6.103024,11.016973,-17.868423,1.667076,2.649921,0.987446,-0.155575,0.010777,0.025099
253,-0.413542,-2.769286,8.957214,7.533502,-2.475799,7.643353,-17.637831,1.819551,2.927746,0.987669,-0.153644,0.011769,0.027675
254,-0.478787,-2.976159,9.568786,-0.670649,-1.722376,6.237437,-17.515945,1.822666,3.169710,0.987770,-0.152618,0.011503,0.029752
255,-0.205884,-2.901287,9.070345,0.675897,-6.701887,4.592310,-17.509176,1.743214,3.384188,0.987736,-0.152562,0.010534,0.031495
256,-0.083801,-2.960721,9.024137,-4.046419,-7.117652,1.171220,-17.560801,1.552512,3.545235,0.987653,-0.152975,0.008661,0.032635
257,0.139936,-2.815657,9.002552,-6.335815,-8.528003,-4.605087,-17.733290,1.286742,3.569815,0.987454,-0.154396,0.006289,0.032503
258,0.018969,-3.303419,8.999206,-17.450874,-4.791534,-5.953702,-18.131830,1.021423,3.470721,0.986973,-0.157759,0.004027,0.031307
259,0.205142,-3.441459,8.514509,-20.490883,-5.490954,-6.750118,-18.766565,0.791851,3.324398,0.986148,-0.163163,0.002086,0.029744
260,0.004757,-3.671643,8.836766,-29.466398,-1.605984,-4.701553,-19.600885,0.617424,3.183009,0.984987,-0.170296,0.000580,0.028284
261,-0.037330,-3.516116,8.638377,-27.325550,-1.329771,-5.431557,-20.548784,0.513380,3.041562,0.983587,-0.178415,-0.000327,0.026912
262,-0.187514,-3.299896,8.342810,-27.190722,2.391895,-3.501163,-21.458584,0.476625,2.896221,0.982176,-0.186211,-0.000619,0.025604
263,-0.332968,-3.157407,8.177159,-32.128136,5.336423,-0.160751,-22.448166,0.573242,2.791741,0.980546,-0.194706,0.000164,0.024867
264,-0.482464,-3.267977,8.033235,-44.910744,6.190625,1.076812,-23.732771,0.755759,2.730699,0.978298,-0.205721,0.001553,0.024674
265,-0.359151,-3.419200,7.684560,-48.220325,5.938488,-2.718924,-25.286308,0.928174,2.621896,0.975424,-0.218995,0.002894,0.024095
266,-0.419286,-3.514699,7.402198,-57.294617,6.990304,2.151975,-27.046301,1.117702,2.518153,0.971944,-0.233979,0.004343,0.023643
267,-0.177611,-4.611264,7.540367,-70.725395,1.406731,-0.583010,-29.180286,1.252847,2.475564,0.967409,-0.252058,0.005137,0.023657
268,-0.233413,-4.643396,7.406275,-61.665676,3.544822,-1.398928,-31.387480,1.307316,2.404348,0.962382,-0.270649,0.005306,0.023282
269,-0.063471,-4.960224,7.301163,-53.831257,1.776464,-1.225399,-33.313683,1.359143,2.320210,0.957706,-0.286790,0.005558,0.022794
270,-0.106036,-5.325511,7.711915,-44.710472,2.449736,-0.204885,-34.957016,1.403947,2.260788,0.953500,-0.300498,0.005759,0.022495
271,0.180443,-5.636640,8.043435,-28.378183,0.890780,-6.649208,-36.177975,1.382776,2.135633,0.950271,-0.310631,0.005682,0.021459
272,-0.364120,-5.583539,7.902807,-15.865457,7.879036,-0.601163,-36.919788,1.428760,1.950998,0.948267,-0.316772,0.006434,0.020095
274,-0.027787,-5.937285,8.346435,-10.695078,2.551818,-2.837636,-37.366455,1.532863,1.800830,0.947035,-0.320467,0.007636,0.019170
275,-0.089132,-5.790729,8.555256,-1.667883,3.326177,-3.897279,-37.576450,1.542337,1.651951,0.946469,-0.322192,0.008098,0.017980
276,-0.275424,-5.787809,8.228561,-4.629395,3.629398,-1.277095,-37.685196,1.581608,1.512825,0.946178,-0.323083,0.008798,0.016950
277,-0.077786,-6.134039,8.306220,-12.117911,0.302844,-3.323566,-37.967125,1.586306,1.412035,0.945394,-0.325402,0.009081,0.016153
278,-0.082267,-5.862645,8.249834,-10.552988,-0.430161,-4.517521,-38.347679,1.503834,1.310470,0.944334,-0.328527,0.008639,0.015110
279,-0.311769,-6.099657,8.151387,-13.686877,2.079917,-2.624789,-38.754513,1.451177,1.200160,0.943183,-0.331867,0.008471,0.014080
280,-0.004329,-6.341448,8.235132,-14.476944,-1.333538,-4.736083,-39.226467,1.383634,1.097053,0.941829,-0.335738,0.008160,0.013070
281,-0.021768,-6.332854,8.179365,-11.511964,-0.637884,-4.915427,-39.661968,1.256042,0.993549,0.940573,-0.339303,0.007369,0.011874
282,-0.609987,-6.310329,8.147793,-9.620865,4.765105,2.372320,-40.015884,1.281747,0.916905,0.939526,-0.342202,0.007772,0.011345
283,-0.346468,-6.771862,8.131719,-13.998965,0.113410,4.550735,-40.408752,1.418289,0.952764,0.938327,-0.345428,0.008743,0.012076
284,0.127957,-6.499425,7.928571,-11.357467,-6.495778,0.243739,-40.828213,1.389445,1.082602,0.937045,-0.348869,0.008068,0.013082
285,-0.561847,-6.590126,7.707437,-12.474015,-0.071155,6.932214,-41.221554,1.385319,1.244471,0.935824,-0.352094,0.007492,0.014419
286,-0.315935,-6.555946,7.763394,-11.285050,-2.623812,5.284812,-41.612846,1.486325,1.427202,0.934577,-0.355305,0.007700,0.016248
287,-0.006273,-7.190098,7.750850,-16.666752,-5.957627,2.317348,-42.073864,1.464271,1.616984,0.933115,-0.359073,0.006860,0.017755
288,0.164426,-6.822980,7.808401,-8.256848,-6.038531,-2.626939,-42.486141,1.312949,1.747566,0.931819,-0.362422,0.005153,0.018363
289,-0.285019,-7.215615,7.489061,-12.031152,0.049787,0.006043,-42.823563,1.209974,1.782884,0.930756,-0.365157,0.004149,0.018338
290,0.184645,-7.379733,7.534960,-12.818898,-2.667863,-5.866744,-43.238567,1.111488,1.741432,0.929447,-0.368515,0.003417,0.017700
291,0.121233,-7.294891,7.372741,-10.697931,-1.050452,-6.914233,-43.632507,0.920104,1.629168,0.928214,-0.371688,0.002170,0.016182
292,0.078517,-6.799762,7.159209,-5.861802,0.636787,-6.025263,-43.910748,0.766009,1.478179,0.927345,-0.373925,0.001377,0.014462
293,-0.281165,-6.901352,7.009521,-11.102468,4.294467,-1.240728,-44.195400,0.740937,1.333969,0.926433,-0.376223,0.001611,0.013218
294,-0.128835,-6.971196,7.227063,-10.883532,2.430783,0.354522,-44.563095,0.810645,1.245143,0.925225,-0.379197,0.002426,0.012736
295,-0.380540,-6.863696,7.193445,-7.817260,3.009371,3.944463,-44.874973,0.925422,1.232252,0.924180,-0.381721,0.003360,0.013021
296,-0.359565,-6.936643,7.104945,-7.570247,1.508240,4.541343,-45.130638,1.078624,1.279109,0.923304,-0.383793,0.004408,0.013919
297,-0.465544,-7.169363,7.134895,-7.773733,1.140780,3.803744,-45.385071,1.208463,1.345658,0.922426,-0.385852,0.005199,0.014901
298,-0.283166,-7.242098,7.136325,-4.433093,-1.101578,0.089955,-45.587532,1.255201,1.390682,0.921731,-0.387486,0.005396,0.015431
299,-0.201504,-7.195937,7.241572,0.014502,-2.887523,-2.322186,-45.660732,1.182116,1.412138,0.921489,-0.388071,0.004726,0.015359
300,-0.106885,-7.158143,7.414194,4.151779,-4.007112,-3.241635,-45.590977,1.035467,1.429388,0.921741,-0.387501,0.003497,0.014999
301,-0.061601,-7.332592,7.813562,8.248955,-4.284961,-3.212704,-45.383911,0.861866,1.452490,0.922455,-0.385823,0.002049,0.014595
302,0.092477,-7.432431,8.047715,10.469023,-5.927277,-3.969938,-45.071476,0.657008,1.488963,0.923519,-0.383290,0.000315,0.014198
303,0.079462,-7.419804,9.123655,13.286297,-7.304812,-3.271045,-44.674889,0.415587,1.559042,0.924851,-0.380069,-0.001816,0.013962
304,-0.024124,-7.278563,9.793368,18.929642,-8.381539,-0.429731,-44.137211,0.185689,1.697880,0.926623,-0.375697,-0.004065,0.014339
305,0.031843,-7.544011,10.266167,18.642708,-9.776621,2.434163,-43.510609,-0.009460,1.931390,0.928644,-0.370589,-0.006323,0.015623
306,-0.215422,-7.642404,10.302880,18.720764,-7.453719,6.568287,-42.888180,-0.115944,2.237295,0.930604,-0.365505,-0.008079,0.017802
307,-0.533911,-7.875428,10.117855,12.902773,-2.247601,11.203614,-42.361465,-0.034268,2.564516,0.932214,-0.361214,-0.008364,0.020758
308,-0.526623,-8.154257,9.120034,10.461653,1.208767,12.709011,-41.971401,0.220566,2.871229,0.933358,-0.358067,-0.007176,0.024081
309,-0.456004,-8.152465,8.152954,13.838102,3.818040,10.662673,-41.564751,0.542538,3.105802,0.934536,-0.354805,-0.005191,0.027016
310,-0.278975,-7.986112,7.245022,19.775570,4.737491,5.790101,-41.003109,0.830449,3.217842,0.936198,-0.350276,-0.003048,0.028835
311,0.006002,-7.569894,6.712865,28.926481,1.834174,-1.710403,-40.191677,0.957628,3.198419,0.938641,-0.343665,-0.001744,0.029078
312,0.351962,-7.024600,6.249478,41.193436,-3.268744,-6.552282,-39.024483,0.851199,3.108062,0.942130,-0.334066,-0.002059,0.028042
313,0.298962,-6.492121,5.894203,42.813511,-3.794768,-5.384404,-37.625591,0.635535,3.025501,0.946186,-0.322498,-0.003265,0.026777
314,0.167613,-5.998726,6.334239,44.718830,-2.752636,-2.469254,-36.167332,0.469851,2.986290,0.950240,-0.310399,-0.004192,0.026042
315,0.179312,-5.776349,6.771115,40.342522,-3.730480,-0.589846,-34.749725,0.352479,3.007149,0.954014,-0.298595,-0.004901,0.025960
316,0.178143,-5.608999,6.993151,29.052990,-3.290045,1.344239,-33.592884,0.262973,3.083275,0.956971,-0.288926,-0.005578,0.026418
317,0.173585,-5.220928,8.045234,30.178551,-2.337552,-0.760730,-32.605530,0.189895,3.142591,0.959417,-0.280651,-0.006107,0.026783
318,0.167522,-5.008534,8.399749,29.803349,-1.927367,-2.545280,-31.605955,0.100238,3.133713,0.961837,-0.272251,-0.006605,0.026548
319,0.341243,-5.065248,8.250357,12.629919,-1.504373,-7.584339,-30.898861,-0.036364,3.019109,0.963534,-0.266287,-0.007323,0.025307
320,0.278432,-4.774870,8.239622,6.733479,1.796914,-8.673181,-30.575743,-0.171035,2.784011,0.964337,-0.263556,-0.007845,0.023040
321,0.063480,-4.170225,7.726515,9.612400,4.802817,-10.879869,-30.302164,-0.241462,2.447324,0.965029,-0.261262,-0.007615,0.020062
322,0.090205,-4.211814,6.429046,-5.184926,5.655185,-13.456124,-30.226383,-0.295332,2.009116,0.965273,-0.260642,-0.007059,0.016254
323,0.138936,-3.995628,5.643870,-7.368061,6.709518,-15.962839,-30.432550,-0.365538,1.481906,0.964867,-0.262400,-0.006472,0.011641
324,-0.231451,-3.585114,5.493759,8.760043,11.518951,-10.067919,-30.406176,-0.323262,0.953968,0.964971,-0.262208,-0.004905,0.007294
325,-0.049687,-3.137155,5.953801,23.373312,6.389975,-14.908079,-29.868259,-0.273501,0.444161,0.966215,-0.257697,-0.003305,0.003130
326,-0.185764,-3.707724,6.981391,22.054680,7.478116,-9.883284,-29.108633,-0.275224,-0.028925,0.967907,-0.251298,-0.002261,-0.000848
327,-0.139669,-3.532030,8.233838,35.124729,4.743371,-6.847678,-28.154316,-0.229894,-0.371439,0.969961,-0.243233,-0.001158,-0.003632
328,-0.236004,-3.614701,9.645173,40.627796,3.918948,-3.440610,-26.891106,-0.180504,-0.590070,0.972575,-0.232526,-0.000335,-0.005374
329,-0.160395,-3.841973,10.080883,39.318722,3.363204,-7.775672,-25.558237,-0.153839,-0.811410,0.975203,-0.221197,0.000257,-0.007202
330,-0.776725,-4.259612,9.753994,33.444698,10.097030,1.221337,-24.345387,0.003078,-1.004831,0.977479,-0.210851,0.001875,-0.008566
331,-0.522132,-3.815964,9.334736,36.361660,5.930842,2.091811,-23.182423,0.270178,-1.062865,0.979566,-0.200897,0.004173,-0.008612
332,-0.572371,-3.642154,9.143628,30.676550,3.765411,4.974526,-22.064983,0.464844,-1.015968,0.981479,-0.191321,0.005678,-0.007926
333,-0.364965,-3.556811,8.928119,22.764917,-1.769637,6.283266,-21.172966,0.565186,-0.853802,0.982946,-0.183676,0.006217,-0.006418
334,-0.282329,-3.135786,9.013591,22.925718,-4.610053,11.387486,-20.408474,0.570620,-0.540480,0.984164,-0.177130,0.005736,-0.003760
335,-0.052963,-2.770875,9.027265,23.648006,-7.983522,8.929009,-19.628698,0.489642,-0.150436,0.985356,-0.170449,0.004434,-0.000565
336,-0.020929,-2.968386,9.224002,17.013454,-8.362402,8.418962,-18.948580,0.327932,0.212666,0.986353,-0.164609,0.002517,0.002302
337,-0.090570,-2.908345,9.043653,17.163214,-4.753853,6.429719,-18.377609,0.200178,0.517179,0.987155,-0.159694,0.001004,0.004734
338,-0.076046,-3.051179,9.015328,12.886828,-3.190327,5.771626,-17.876070,0.137489,0.751510,0.987834,-0.155370,0.000166,0.006665
339,-0.050609,-3.282417,8.828105,6.823669,-2.140302,4.019153,-17.547167,0.102533,0.933953,0.988265,-0.152532,-0.000359,0.008191
340,0.083648,-3.432720,9.056231,-0.136655,-3.605561,1.192381,-17.435579,0.037337,1.045583,0.988405,-0.151564,-0.001061,0.009068
341,0.074687,-3.365971,9.174727,-0.710649,-1.634775,-0.604511,-17.449732,-0.043011,1.081161,0.988385,-0.151680,-0.001802,0.009269
342,-0.094612,-3.330834,9.406553,0.676264,1.784471,0.214462,-17.450314,-0.042576,1.074216,0.988384,-0.151685,-0.001789,0.009209
343,-0.106415,-3.085812,9.377330,2.886864,2.701052,-1.285645,-17.390917,0.023409,1.034800,0.988465,-0.151178,-0.001163,0.008957
344,-0.199774,-3.279939,9.297882,-4.931716,4.339911,-2.256663,-17.425106,0.117720,0.943367,0.988425,-0.151481,-0.000232,0.008293
345,-0.014534,-3.198204,9.025464,-7.198085,1.523170,-3.339674,-17.627579,0.182764,0.824947,0.988163,-0.153231,0.000473,0.007358
346,-0.233720,-2.994913,9.021254,-6.991305,4.432734,-3.276846,-17.864548,0.243677,0.689608,0.987851,-0.155276,0.001166,0.006275
347,-0.215850,-3.095258,9.002049,-13.653165,3.406076,-3.409772,-18.209375,0.333413,0.543237,0.987383,-0.158250,0.002123,0.005141
348,-0.175346,-3.019648,8.850173,-15.101998,2.386233,-4.156487,-18.689554,0.385004,0.392994,0.986716,-0.162384,0.002758,0.003930
349,-0.152583,-2.963608,8.914201,-17.388414,1.011377,-3.044909,-19.231939,0.399557,0.261037,0.985940,-0.167050,0.003057,0.002828
350,-0.409866,-3.075459,8.815681,-21.233412,2.644238,0.263547,-19.876081,0.441373,0.196925,0.984985,-0.172588,0.003497,0.002357
351,0.013839,-3.043206,8.351647,-25.880743,-3.641527,1.151738,-20.661091,0.433814,0.224925,0.983779,-0.179332,0.003372,0.002610
352,0.064198,-3.457432,7.751979,-40.513176,-4.526826,4.013481,-21.766722,0.337892,0.354119,0.982003,-0.188817,0.002312,0.003591
353,0.014577,-4.017323,7.486917,-52.931721,-3.673672,5.845423,-23.322803,0.274571,0.558369,0.979342,-0.202136,0.001362,0.005256
354,0.550863,-3.917131,6.774003,-55.324951,-10.550976,1.670276,-25.125916,0.109842,0.770043,0.976034,-0.217514,-0.000526,0.006767
355,0.175262,-4.274264,6.487129,-61.804905,-2.620930,4.699604,-27.077539,-0.040397,0.960878,0.972178,-0.234092,-0.002306,0.008070
356,0.407730,-4.284630,6.094196,-65.864357,-5.315534,3.995001,-29.204737,-0.088438,1.152230,0.967651,-0.252089,-0.003282,0.009536
357,0.387251,-4.581310,6.553390,-65.990822,-1.706007,3.696384,-31.401825,-0.124819,1.321469,0.962626,-0.270586,-0.004169,0.010807
358,0.261360,-4.441825,7.114490,-58.074131,1.903897,3.930330,-33.468895,-0.053539,1.427395,0.957577,-0.287908,-0.004034,0.011794
359,-0.123727,-5.219110,7.934155,-55.807495,7.319042,8.191995,-35.366173,0.187605,1.507660,0.952661,-0.303746,-0.002437,0.013032
360,0.298168,-5.349022,8.009594,-45.685802,2.391907,1.430436,-37.057030,0.412814,1.542415,0.948058,-0.317792,-0.000862,0.013907
361,-0.063494,-5.785029,8.601861,-35.040916,7.374256,0.092916,-38.402851,0.557329,1.462080,0.944260,-0.328918,0.000396,0.013648
362,-0.177346,-5.727177,8.277075,-26.182587,6.527108,-1.753598,-39.424953,0.720663,1.295426,0.941294,-0.337339,0.002107,0.012763
363,-0.285832,-6.110937,7.860871,-28.872185,6.138874,-1.698927,-40.344883,0.845912,1.115870,0.938564,-0.344888,0.003571,0.011686
364,-0.186142,-6.119507,7.505772,-31.053583,2.377542,-4.638505,-41.346172,0.884146,0.943090,0.935528,-0.353072,0.004313,0.010424
365,-0.262552,-6.336204,7.718783,-33.574772,1.640265,-2.291669,-42.425144,0.856836,0.812041,0.932176,-0.361859,0.004406,0.009311
366,-0.355806,-6.692565,7.419558,-38.243374,1.105215,-2.438338,-43.623310,0.836302,0.723278,0.928350,-0.371582,0.004430,0.008571
367,-0.253943,-6.990672,7.636233,-34.632122,0.922202,-4.141787,-44.839191,0.783968,0.621096,0.924366,-0.381406,0.004257,0.007619
368,-0.082018,-7.113519,7.775084,-26.704504,0.843099,-7.888480,-45.863388,0.662134,0.459132,0.920938,-0.389645,0.003760,0.005941
369,-0.057938,-7.128039,7.526235,-24.699364,4.110821,-6.563827,-46.722431,0.545353,0.232741,0.918007,-0.396530,0.003564,0.003752
370,-0.057034,-7.298742,7.189846,-25.093632,6.552342,-8.037999,-47.554993,0.487985,-0.062881,0.915111,-0.403180,0.004118,0.001215
371,0.039412,-7.610421,7.174247,-22.695488,7.662220,-8.314466,-48.354378,0.444419,-0.421292,0.912276,-0.409541,0.005044,-0.001766
372,0.044040,-7.809029,6.848353,-21.196556,8.373414,-8.819732,-49.088776,0.406250,-0.810501,0.909622,-0.415362,0.006163,-0.004961
373,0.198802,-7.881479,6.511272,-19.884863,8.241614,-10.025331,-49.776157,0.347843,-1.225105,0.907089,-0.420792,0.007253,-0.008421
374,0.015829,-8.105800,6.842508,-12.826641,10.079674,-10.114643,-50.323792,0.286669,-1.674770,0.905026,-0.425098,0.008478,-0.012164
375,0.124768,-8.189529,7.056644,-6.814157,8.458609,-9.949373,-50.653187,0.225549,-2.125874,0.903742,-0.427670,0.009714,-0.015926
377,-0.009372,-7.857034,7.174540,1.068219,7.213647,-4.333422,-50.750244,0.206936,-2.478823,0.903325,-0.428407,0.010901,-0.018770
378,-0.013770,-7.820311,7.314157,4.479532,4.226399,1.460933,-50.658646,0.290810,-2.656684,0.903643,-0.427651,0.012211,-0.019868
379,0.095205,-7.808129,7.378044,7.003864,-0.073018,5.631077,-50.467190,0.426155,-2.635058,0.904368,-0.426117,0.013165,-0.019214
380,0.124533,-8.029602,7.330650,8.538615,-3.904162,9.253703,-50.206375,0.574898,-2.425663,0.905376,-0.424053,0.013522,-0.017039
381,-0.033623,-8.228098,7.388254,11.937565,-5.038952,11.845702,-49.861225,0.748748,-2.085516,0.906699,-0.421334,0.013595,-0.013749
382,-0.066456,-8.726021,7.811421,10.707417,-6.486332,9.779768,-49.478363,0.899167,-1.705778,0.908143,-0.418323,0.013355,-0.010235
383,0.278189,-7.754368,8.813409,26.348091,-11.701157,0.469864,-48.855709,0.830246,-1.364649,0.910430,-0.413428,0.011521,-0.007846
384,-0.319990,-7.790384,9.908249,41.017654,-9.516563,4.328367,-47.729168,0.654194,-1.047057,0.914472,-0.404505,0.008917,-0.006046
385,-0.459006,-7.590155,10.352685,49.436802,-9.245319,8.704881,-46.217583,0.599384,-0.670839,0.919745,-0.392438,0.007108,-0.003331
386,-0.253680,-7.321640,10.766577,55.459743,-9.773002,12.133369,-44.464581,0.623713,-0.201762,0.925646,-0.378347,0.005704,0.000430
387,-0.612422,-7.044769,10.561919,60.042770,-4.464003,20.736116,-42.532925,0.828781,0.358563,0.931866,-0.362716,0.005605,0.005539
388,-0.993467,-7.878252,9.563046,53.957180,-1.037820,32.177883,-40.619560,1.345463,1.077699,0.937685,-0.347160,0.007747,0.012894
389,-0.652898,-7.913964,8.028324,39.034969,-5.483758,33.421894,-39.043697,1.963336,1.985370,0.942135,-0.334347,0.010357,0.022051
390,-0.547432,-7.726520,7.525739,35.520233,-9.125658,33.010834,-37.762413,2.461613,3.004439,0.945466,-0.323954,0.011836,0.031748
391,-0.993135,-7.355247,6.905478,32.469337,-8.209992,36.458450,-36.578117,2.931257,4.102726,0.948279,-0.314377,0.013040,0.041997
392,-0.502479,-6.892630,6.456477,28.345518,-17.634169,30.647726,-35.502174,3.241354,5.261613,0.950610,-0.305676,0.012919,0.052311
393,-0.402847,-6.130186,6.251532,26.547588,-20.105284,27.746063,-34.522331,3.284972,6.421977,0.952595,-0.297673,0.010715,0.061960
394,-0.254476,-6.032991,6.907120,22.490141,-20.176155,22.232166,-33.645096,3.195828,7.489849,0.954263,-0.290422,0.007740,0.070548
395,-0.151867,-5.580008,7.014932,24.181545,-18.257137,13.226238,-32.821957,2.983989,8.336544,0.955863,-0.283498,0.004382,0.077038
396,-0.098216,-5.281329,6.923024,21.991074,-16.775131,5.872228,-32.024132,2.661239,8.919076,0.957537,-0.276666,0.000811,0.081104
397,-0.068254,-4.927639,7.736857,30.869724,-13.221611,-3.068679,-31.130497,2.259519,9.221123,0.959596,-0.268942,-0.002633,0.082693
398,-0.094171,-5.084682,7.768566,28.662958,-10.410307,-10.208044,-30.138323,1.807115,9.231259,0.962032,-0.260335,-0.005741,0.081780
399,-0.078062,-4.147634,7.394442,39.790600,-8.408073,-16.378790,-29.004065,1.315162,9.000731,0.964865,-0.250498,-0.008571,0.078826
400,-0.146878,-3.956848,7.066548,32.524178,-4.570918,-16.688354,-27.806459,0.862459,8.618563,0.967795,-0.240146,-0.010769,0.074740
401,0.159946,-4.217694,7.460861,28.323368,-6.338429,-21.911020,-26.798019,0.405489,8.130293,0.970268,-0.231391,-0.012994,0.069779
402,0.052404,-4.159367,6.933866,23.340837,-4.769749,-19.710241,-25.938608,-0.068860,7.591495,0.972362,-0.223898,-0.015441,0.064377
403,0.127373,-4.010081,7.684884,25.613340,-2.522285,-20.718500,-25.120220,-0.469002,7.035921,0.974276,-0.216807,-0.017331,0.059004
404,-0.158379,-4.547420,8.274548,16.123886,2.342723,-16.348898,-24.418913,-0.730547,6.476083,0.975877,-0.210792,-0.018166,0.053860
405,-0.068963,-4.662499,9.517492,13.928249,0.732152,-18.500654,-23.910345,-0.921834,5.925013,0.977057,-0.206456,-0.018565,0.048896
406,-0.126015,-4.040344,10.213799,19.553543,3.024850,-17.064981,-23.342228,-1.102153,5.356900,0.978301,-0.201623,-0.018862,0.043819
407,-0.140286,-4.000597,10.549769,13.625337,4.759215,-15.972637,-22.778187,-1.198210,4.799195,0.979482,-0.196858,-0.018509,0.038979
408,-0.262071,-3.745143,9.737550,7.669641,6.078355,-14.014359,-22.412144,-1.223698,4.268239,0.980276,-0.193802,-0.017704,0.034453
409,0.058229,-3.139681,8.753347,12.084249,3.684350,-16.224470,-22.071531,-1.264053,3.740020,0.980994,-0.190955,-0.017067,0.029916
410,0.153527,-2.658725,7.433370,17.326483,3.837730,-13.370962,-21.569822,-1.330868,3.235455,0.981940,-0.186713,-0.016686,0.025558
411,0.166794,-2.724564,6.640497,9.370044,3.534913,-12.272543,-21.114483,-1.371675,2.792483,0.982764,-0.182864,-0.016228,0.021760
412,-0.004141,-2.558301,6.617848,16.464239,5.305760,-11.273342,-20.673878,-1.374197,2.373219,0.983532,-0.179141,-0.015510,0.018220
413,0.033378,-2.597647,7.408514,21.517067,4.798023,-12.085344,-20.030859,-1.351487,1.949480,0.984585,-0.173679,-0.014571,0.014700
414,0.039178,-2.434739,8.521440,28.784874,4.730391,-9.388916,-19.183401,-1.321863,1.559003,0.985889,-0.166445,-0.013640,0.011491
415,-0.274805,-2.659587,9.748405,27.347034,8.270471,-7.617280,-18.240507,-1.207211,1.220953,0.987265,-0.158378,-0.012090,0.008850
416,-0.325665,-2.560477,10.018019,28.505693,8.307379,-7.635658,-17.303448,-1.021703,0.894226,0.988562,-0.150349,-0.009988,0.006373
417,-0.288884,-2.663451,10.037725,21.882326,7.927981,-6.345627,-16.458841,-0.830430,0.592672,0.989669,-0.143094,-0.007912,0.004081
418,-0.557479,-2.485261,9.804205,21.056833,10.381926,-1.387544,-15.740695,-0.573052,0.384121,0.990565,-0.136913,-0.005413,0.002636
419,-0.541803,-2.862652,9.562798,10.638492,8.050875,-0.655132,-15.211733,-0.285874,0.269130,0.991197,-0.132351,-0.002784,0.001998
420,-0.438132,-2.615603,9.017022,9.074961,5.656648,-1.785838,-14.882882,-0.075850,0.170393,0.991577,-0.129512,-0.000849,0.001389
421,-0.130658,-2.552657,9.141751,5.860753,0.555350,-1.396152,-14.633889,0.010734,0.092775,0.991857,-0.127358,-0.000010,0.000815
422,-0.120977,-2.556845,9.250389,3.529943,0.879263,-1.371062,-14.477375,0.022298,0.042193,0.992030,-0.126003,0.000147,0.000390
423,0.362835,-2.671626,9.340292,-0.404454,-6.826155,-4.871964,-14.425233,-0.099657,-0.033836,0.992087,-0.125552,-0.000826,-0.000402
424,0.269935,-2.560563,9.535609,0.845348,-3.174090,-5.313460,-14.417421,-0.303381,-0.156668,0.992091,-0.125487,-0.002455,-0.001689
425,0.371969,-2.578692,9.526778,0.184380,-3.992219,-3.948824,-14.399514,-0.457464,-0.276486,0.992103,-0.125337,-0.003658,-0.002894
426,0.140388,-2.650139,9.478037,-2.540242,1.012187,-1.571456,-14.438098,-0.528481,-0.353220,0.992056,-0.125675,-0.004188,-0.003637
427,0.196335,-2.624675,9.437781,-3.676140,0.154230,-0.032018,-14.541451,-0.516364,-0.383931,0.991942,-0.126571,-0.004046,-0.003894
428,0.211944,-2.564048,9.511550,-4.133567,-0.292384,2.037415,-14.671907,-0.510178,-0.351010,0.991798,-0.127699,-0.004025,-0.003607
429,0.113381,-2.533143,9.422566,-5.388370,0.999827,3.987180,-14.831410,-0.473228,-0.256908,0.991624,-0.129075,-0.003806,-0.002756
430,0.173266,-2.651090,9.502254,-10.581381,-0.137106,4.960773,-15.098661,-0.420836,-0.116526,0.991324,-0.131383,-0.003507,-0.001491
431,0.185198,-2.738107,9.491346,-14.246873,-0.857272,4.401785,-15.513580,-0.395601,0.038322,0.990844,-0.134966,-0.003466,-0.000135
432,0.283807,-2.709219,9.542475,-16.483240,-2.855957,3.138967,-16.026728,-0.420950,0.176058,0.990229,-0.139397,-0.003852,0.001009
433,0.220395,-2.796769,9.528031,-18.741180,-2.451052,2.122798,-16.614666,-0.481144,0.284995,0.989497,-0.144471,-0.004514,0.001854
434,0.415094,-2.854991,9.405775,-19.676725,-5.181933,0.212767,-17.255648,-0.591437,0.359304,0.988668,-0.149997,-0.005573,0.002326
435,0.119787,-2.902301,9.337866,-22.273619,-2.204377,0.249409,-17.955322,-0.706389,0.403740,0.987728,-0.156024,-0.006639,0.002518
436,0.216151,-2.954620,9.297681,-23.241571,-3.758279,0.280851,-18.714397,-0.797883,0.443558,0.986667,-0.162557,-0.007499,0.002687
437,0.151317,-3.129892,9.088685,-27.555470,-3.012992,1.821790,-19.562004,-0.893031,0.513593,0.985430,-0.169841,-0.008441,0.003093
438,0.124187,-3.287029,8.805740,-30.167841,-3.392916,2.925605,-20.525787,-0.966257,0.624628,0.983959,-0.178111,-0.009268,0.003861
439,0.184715,-3.250466,8.522127,-34.057072,-5.126049,3.531629,-21.598783,-1.060127,0.776110,0.982236,-0.187297,-0.010356,0.004919
440,0.286032,-3.390964,8.439941,-35.334778,-7.100938,4.545039,-22.759172,-1.198052,0.977624,0.980270,-0.197203,-0.011932,0.006300
441,-0.061294,-3.413302,7.663802,-40.245674,-4.035832,9.417830,-24.024900,-1.276129,1.264825,0.978008,-0.207978,-0.013189,0.008478
442,0.406993,-4.185145,7.412005,-49.400879,-11.280194,5.621894,-25.526495,-1.403022,1.599885,0.975161,-0.220718,-0.015024,0.010911
443,0.552203,-4.108361,6.717355,-46.194801,-10.865671,1.487328,-27.126867,-1.680974,1.868993,0.971933,-0.234233,-0.018082,0.012413
444,-0.063679,-5.099540,7.114705,-47.868774,0.548472,6.845376,-28.700472,-1.767499,2.072007,0.968594,-0.247508,-0.019421,0.013692
445,0.294553,-5.339334,6.806409,-38.901550,-2.120536,1.650987,-30.150364,-1.720634,2.209689,0.965372,-0.259729,-0.019510,0.014712
446,0.695675,-5.093036,6.898428,-23.693563,-3.861482,-7.189848,-31.192593,-1.853215,2.180645,0.962962,-0.268477,-0.020689,0.013978
447,-0.255020,-4.458502,7.444253,-11.451036,11.171313,1.158640,-31.773556,-1.801282,2.030619,0.961611,-0.273393,-0.019966,0.012739
448,-0.179618,-5.068758,8.476254,-19.964413,8.871244,3.061664,-32.293980,-1.480633,1.913796,0.960397,-0.277833,-0.017053,0.012447
449,0.326816,-4.575245,8.042048,-19.406181,2.357723,-2.980934,-32.947746,-1.322468,1.813783,0.958817,-0.283349,-0.015553,0.011905
450,-0.161713,-4.525982,8.473266,-28.484331,8.622996,3.206556,-33.743679,-1.167452,1.715895,0.956844,-0.290038,-0.014094,0.011372
451,-0.102422,-5.638578,8.648531,-48.783806,6.382703,6.928723,-35.031425,-0.865851,1.714446,0.953535,-0.300817,-0.011707,0.011993
452,0.820886,-6.043115,8.216633,-53.101791,-3.172446,-3.560196,-36.729496,-0.790037,1.728163,0.948972,-0.314923,-0.011294,0.012140
453,0.109133,-6.082762,7.526829,-53.091614,4.874752,0.468267,-38.498108,-0.798697,1.668290,0.944005,-0.329536,-0.011379,0.011446
454,0.371138,-6.448232,7.521831,-55.204075,2.846552,-1.662202,-40.301342,-0.711671,1.572379,0.938713,-0.344371,-0.010556,0.010742
455,0.150198,-6.872321,7.138506,-56.536362,5.499432,-2.315487,-42.161461,-0.650745,1.430475,0.933012,-0.359583,-0.009788,0.009605
456,0.079940,-6.761571,7.360746,-45.911774,7.634765,-3.499528,-43.866127,-0.556536,1.210531,0.927577,-0.373450,-0.008451,0.007985
457,-0.258443,-6.695890,7.139477,-39.479042,10.878208,0.924381,-45.287014,-0.366451,0.963603,0.922891,-0.384956,-0.006189,0.006530
458,-0.010787,-7.079254,7.499864,-33.501221,8.657377,-0.188406,-46.502304,-0.131039,0.739028,0.918767,-0.394747,-0.003597,0.005474
459,-0.341863,-6.904986,7.664684,-16.802658,10.158563,2.592945,-47.340542,0.112422,0.537259,0.915859,-0.401472,-0.000984,0.004688
460,0.135176,-6.797184,7.765393,-0.828655,4.035329,-0.598788,-47.634991,0.296971,0.385825,0.914825,-0.403829,0.001011,0.004127
461,-0.014871,-6.471673,7.572000,9.694982,3.813255,-1.641921,-47.487877,0.357806,0.264161,0.915344,-0.402653,0.001930,0.003367
462,0.136311,-6.547985,7.681445,12.549989,3.180430,-3.654724,-47.118050,0.372056,0.118686,0.916642,-0.399694,0.002562,0.002247
463,0.221860,-6.476645,7.629689,23.575996,1.781843,-7.355090,-46.517014,0.294858,-0.067136,0.918730,-0.394878,0.002595,0.000478
464,0.161226,-6.558510,7.266671,19.945152,3.875203,-7.088725,-45.792641,0.186639,-0.301783,0.921208,-0.389059,0.002525,-0.001792
465,0.146804,-6.639464,6.992334,9.073872,6.071105,-7.133762,-45.309841,0.133376,-0.586165,0.922831,-0.385169,0.003044,-0.004272
466,0.244621,-7.147460,7.144958,5.144116,6.841901,-5.846588,-45.073624,0.131281,-0.891325,0.923608,-0.383257,0.004039,-0.006745
467,-0.312732,-7.486210,7.378808,8.488078,10.124383,1.808079,-44.847355,0.283725,-1.138787,0.924349,-0.381410,0.006079,-0.008242
468,-0.035556,-7.315501,7.316199,11.554324,5.131312,1.811417,-44.514423,0.507040,-1.274771,0.925445,-0.378692,0.008308,-0.008619
469,-0.125669,-7.366730,7.732345,11.193254,4.291363,4.134326,-44.135723,0.688741,-1.313475,0.926688,-0.375609,0.009876,-0.008364
470,-0.184934,-7.642970,8.073297,10.352901,4.252554,4.870161,-43.776543,0.895475,-1.304312,0.927857,-0.372680,0.011494,-0.007648
471,-0.179154,-7.542772,8.073048,9.765073,3.439646,2.195137,-43.441303,1.069535,-1.307501,0.928938,-0.369942,0.012892,-0.007145
472,-0.024083,-7.979877,7.696816,0.100578,3.207781,-3.249793,-43.278572,1.137982,-1.396312,0.929454,-0.368604,0.013723,-0.007664
473,-0.410734,-8.119811,7.935470,-5.209400,6.672850,-3.235866,-43.367554,1.183511,-1.587977,0.929151,-0.369295,0.014716,-0.009060
474,-0.335239,-8.031874,8.429129,-5.756866,3.862844,-5.944401,-43.555187,1.205659,-1.819870,0.928524,-0.370782,0.015661,-0.010844
475,-0.555112,-7.754226,9.405984,-2.251191,2.090062,-2.860094,-43.692223,1.176231,-1.994634,0.928064,-0.371873,0.016002,-0.012336
476,-0.495663,-7.830657,10.260036,5.398160,-1.045534,2.746356,-43.640049,1.187526,-2.008027,0.928231,-0.371447,0.016132,-0.012415
477,-0.222880,-7.470490,11.036325,16.677935,-5.222950,6.081908,-43.268379,1.212914,-1.829323,0.929448,-0.368455,0.015723,-0.010936
478,-0.465718,-7.599479,11.147058,26.319111,-3.944587,12.526391,-42.544502,1.312134,-1.498026,0.931781,-0.362606,0.015412,-0.008027
480,-0.210854,-8.068702,9.851833,31.391619,-6.006652,16.235031,-41.571121,1.510061,-1.031121,0.934838,-0.354715,0.015512,-0.003736
481,-0.249429,-8.161660,8.441592,36.231983,-6.350300,19.685196,-40.427513,1.747475,-0.444011,0.938314,-0.345425,0.015648,0.001633
482,-0.121370,-7.833423,7.195951,35.447449,-8.770714,15.973203,-39.213131,1.934490,0.173973,0.941875,-0.335535,0.015393,0.007094
483,-0.473836,-7.409586,6.260096,32.254864,-4.875061,18.788227,-38.064045,2.118489,0.769149,0.945113,-0.326151,0.015287,0.012372
484,0.038499,-6.670467,5.764691,29.795609,-12.021029,12.359291,-37.007755,2.211576,1.352267,0.947987,-0.317504,0.014555,0.017313
485,-0.517001,-5.567503,6.379134,35.424641,-5.318868,17.802511,-35.898655,2.277841,1.929393,0.950904,-0.308390,0.013719,0.022138
486,-0.126340,-5.463180,7.025847,28.151663,-10.631952,12.094477,-34.816227,2.349162,2.489329,0.953639,-0.299467,0.013058,0.026854
487,-0.985653,-5.076021,7.613070,28.583656,-1.183489,19.231878,-33.848141,2.481167,3.032509,0.955966,-0.291482,0.013005,0.031609
488,-0.710510,-4.815147,8.261539,26.593254,-6.860579,13.616552,-32.904301,2.670404,3.563116,0.958128,-0.283695,0.013534,0.036404
489,-0.564295,-5.022054,8.872971,21.217678,-8.658749,7.439685,-32.087597,2.640753,3.998989,0.959988,-0.276903,0.012492,0.039887
490,-0.491624,-4.982608,8.771649,22.478603,-9.521341,1.919574,-31.346502,2.464939,4.291536,0.961703,-0.270674,0.010582,0.041848
491,-0.412466,-4.356265,8.582437,29.875341,-9.053681,-3.138750,-30.468357,2.188643,4.433398,0.963768,-0.263233,0.008252,0.042328
492,0.237915,-4.068759,8.186388,28.364939,-14.147928,-11.931896,-29.498709,1.727848,4.409057,0.966076,-0.254935,0.004778,0.041031
493,0.132432,-3.735591,7.663007,29.116241,-10.888838,-11.934166,-28.544596,1.169682,4.264308,0.968320,-0.246715,0.000714,0.038569
494,-0.290407,-3.242597,6.419156,20.754955,-2.634385,-6.978947,-27.716566,0.822236,4.092350,0.970186,-0.239611,-0.001590,0.036382
495,-0.123570,-3.288560,6.143086,4.318850,-2.428530,-9.491891,-27.301378,0.620538,3.887470,0.971136,-0.236041,-0.002745,0.034237
496,-0.385276,-3.759745,6.132086,-5.737884,3.236454,-7.299681,-27.327547,0.503768,3.632896,0.971168,-0.236238,-0.003218,0.031838
497,-0.536681,-3.909801,6.411303,-5.773229,5.057926,-7.492460,-27.522024,0.512737,3.350484,0.970840,-0.237896,-0.002610,0.029459
498,-0.357183,-3.949903,6.917751,-2.880416,1.804184,-6.780107,-27.668625,0.503919,3.086704,0.970601,-0.239141,-0.002172,0.027203
499,-0.257146,-4.136950,8.057303,6.320712,-0.024957,-5.682515,-27.612852,0.433860,2.888907,0.970769,-0.238658,-0.002340,0.025383
500,-0.243024,-4.230309,8.792842,16.997910,-1.177947,-4.674088,-27.225157,0.336718,2.744876,0.971610,-0.235355,-0.002782,0.023970
501,0.014067,-3.807115,9.368424,29.274893,-3.356840,-4.293040,-26.454418,0.201961,2.645593,0.973200,-0.228791,-0.003567,0.022876
502,-0.001178,-3.949738,9.436563,28.767527,-1.323799,-0.363815,-25.487173,0.098012,2.609963,0.975109,-0.220550,-0.004190,0.022402
503,-0.168873,-4.121171,9.326795,30.694616,1.831506,1.298388,-24.496181,0.112451,2.620263,0.976977,-0.212111,-0.003892,0.022552
504,-0.137410,-3.763152,9.176023,37.462158,2.013612,-0.248977,-23.360361,0.178132,2.610005,0.979031,-0.202430,-0.003089,0.022618
505,0.064090,-3.520741,9.291182,39.811993,0.200034,-0.881480,-22.072710,0.204765,2.578450,0.981248,-0.191423,-0.002554,0.022425
506,-0.274529,-3.475013,8.961743,34.167351,4.382402,2.682300,-20.839886,0.286827,2.578631,0.983246,-0.180871,-0.001608,0.022582
507,-0.237046,-3.184147,9.098516,33.183193,3.228366,3.561495,-19.717178,0.442026,2.631780,0.984951,-0.171258,-0.000132,0.023286
508,-0.205599,-2.871748,9.421425,29.856804,2.106683,2.845535,-18.666012,0.561196,2.703450,0.986457,-0.162239,0.001006,0.024071
509,-0.171165,-2.955592,9.623122,24.576200,1.011995,5.241253,-17.757690,0.652677,2.815301,0.987681,-0.154435,0.001834,0.025150
510,-0.302704,-2.901441,9.468897,21.134796,2.209593,6.800320,-16.993736,0.764063,2.990789,0.988639,-0.147874,0.002736,0.026794
511,-0.151950,-2.708756,9.534447,20.366104,0.394993,4.977390,-16.299583,0.861988,3.166315,0.989465,-0.141909,0.003527,0.028414
512,-0.079405,-2.607233,9.524681,17.696991,-1.074083,3.734464,-15.663062,0.891029,3.309136,0.990200,-0.136422,0.003766,0.029663
513,-0.052501,-2.518512,9.252505,15.433719,-0.754645,1.350468,-15.109527,0.884119,3.399017,0.990824,-0.131639,0.003746,0.030413
514,0.004405,-2.339456,9.424716,13.719010,-1.888952,-0.578271,-14.623302,0.844756,3.422775,0.991371,-0.127424,0.003508,0.030559
515,-0.041129,-2.451069,9.330881,8.050301,-0.799203,-2.051966,-14.260940,0.790384,3.391555,0.991783,-0.124274,0.003168,0.030219
516,0.046033,-2.217843,9.274560,6.370409,-1.132561,-3.776102,-14.021755,0.735375,3.305227,0.992067,-0.122188,0.002847,0.029406
517,-0.073173,-2.185330,9.527063,4.265467,0.610436,-4.294178,-13.846094,0.694501,3.176786,0.992289,-0.120654,0.002673,0.028247
518,-0.059140,-2.189508,9.675788,0.821864,0.204622,-4.816961,-13.763119,0.671428,3.026054,0.992414,-0.119927,0.002651,0.026915
519,-0.056536,-2.282620,9.481681,-2.385122,0.431658,-7.543413,-13.791474,0.632627,2.823446,0.992433,-0.120160,0.002521,0.025121
520,0.067706,-2.134913,9.815817,-2.883419,-0.486817,-10.135723,-13.882265,0.561224,2.537558,0.992403,-0.120926,0.002185,0.022572
521,-0.165897,-2.546479,9.613107,-8.089873,2.461872,-9.268769,-14.068151,0.515068,2.215755,0.992267,-0.122522,0.002092,0.019740
522,0.005290,-2.478704,9.177546,-8.876525,0.261574,-10.192985,-14.353819,0.479318,1.890226,0.992013,-0.124984,0.002089,0.016888
523,0.075091,-2.527268,9.249539,-10.570243,-0.697037,-9.362766,-14.680257,0.390582,1.576473,0.991700,-0.127793,0.001623,0.014079
524,0.012080,-2.464624,9.209087,-10.266674,0.306166,-7.731286,-15.029185,0.311184,1.302758,0.991340,-0.130800,0.001205,0.011626
525,0.055712,-2.566622,9.030207,-13.298135,-0.333082,-6.470108,-15.423062,0.248563,1.074530,0.990908,-0.134200,0.000891,0.009583
526,0.232230,-2.532434,9.127924,-15.390075,-2.162701,-8.167396,-15.901945,0.142562,0.850870,0.990358,-0.138331,0.000205,0.007526
527,0.142991,-2.572752,9.368487,-18.882145,-1.176949,-8.721138,-16.473448,0.010646,0.596018,0.989671,-0.143262,-0.000653,0.005161
528,-0.159841,-2.758130,9.062049,-23.289721,2.995328,-7.665283,-17.176239,-0.039423,0.325909,0.988783,-0.149329,-0.000765,0.002761
529,-0.122267,-3.110669,8.346202,-31.715712,1.298340,-5.781927,-18.092875,-0.039194,0.090894,0.987561,-0.157235,-0.000462,0.000730
530,-0.127556,-3.096759,7.710303,-36.402168,0.387930,-4.824164,-19.227882,-0.069420,-0.085619,0.985955,-0.167009,-0.000473,-0.000838
531,-0.089784,-3.082467,7.703604,-40.085106,-0.672249,-3.858369,-20.502289,-0.123203,-0.220118,0.984034,-0.177965,-0.000716,-0.002082
532,-0.183140,-3.687411,7.422792,-48.953075,0.180868,-1.605215,-21.985821,-0.163977,-0.302050,0.981646,-0.190690,-0.000902,-0.002860
533,0.163025,-3.939856,7.491238,-48.510555,-3.579458,-5.429156,-23.609570,-0.261844,-0.387957,0.978841,-0.204584,-0.001544,-0.003781
534,0.198316,-3.780756,8.104383,-38.361053,-1.872307,-7.665534,-25.056126,-0.434287,-0.549935,0.976168,-0.216931,-0.002659,-0.005507
535,0.193252,-4.330035,9.375788,-34.322102,0.258601,-8.640834,-26.265314,-0.575791,-0.783299,0.973804,-0.227232,-0.003340,-0.007798
536,-0.112537,-4.504586,9.635993,-19.296362,4.514759,-4.890071,-27.156452,-0.605856,-1.020408,0.971987,-0.234806,-0.003049,-0.009897
537,0.060099,-4.289996,10.033391,-5.022989,3.285189,-5.448602,-27.559660,-0.569415,-1.232868,0.971137,-0.238227,-0.002263,-0.011632
538,-0.028021,-4.305878,10.067257,3.702500,2.570192,-1.446941,-27.580231,-0.535879,-1.379919,0.971081,-0.238401,-0.001671,-0.012809
539,0.006166,-4.426212,9.939220,8.025847,1.611971,-1.037685,-27.384169,-0.493065,-1.448802,0.971482,-0.236736,-0.001188,-0.013302
540,-0.283277,-4.077747,8.919249,13.452513,4.341806,4.307753,-27.026217,-0.379864,-1.445673,0.972224,-0.233689,-0.000275,-0.013041
541,0.058781,-4.326715,8.303761,1.717206,-0.963839,2.293530,-26.773836,-0.279790,-1.373109,0.972749,-0.231537,0.000399,-0.012222
542,0.165585,-4.483590,7.890090,-5.504856,-0.981879,1.322441,-26.837330,-0.281483,-1.304675,0.972628,-0.232076,0.000253,-0.011644
543,0.220987,-4.413466,7.254920,-13.397581,-0.792119,0.734523,-27.152597,-0.292227,-1.260708,0.971990,-0.234752,0.000104,-0.011293
544,-0.005017,-4.570217,6.954629,-25.519098,2.277726,4.006650,-27.801466,-0.233763,-1.202024,0.970653,-0.240248,0.000540,-0.010672
545,0.084609,-4.854938,6.766043,-39.421539,1.555018,3.565273,-28.883984,-0.117654,-1.121137,0.968351,-0.249397,0.001446,-0.009730
546,0.032333,-5.202796,6.928945,-49.527561,0.457547,5.213624,-30.366404,-0.016103,-1.010732,0.965055,-0.261897,0.002174,-0.008549
547,0.140260,-4.782294,6.682291,-46.131775,-2.860799,4.914408,-31.960390,0.036824,-0.845687,0.961331,-0.275295,0.002341,-0.007006
548,-0.026546,-5.205362,7.615710,-50.399544,-2.268763,7.868630,-33.568722,0.080004,-0.620645,0.957385,-0.288763,0.002232,-0.004984
549,0.146451,-5.540807,7.840874,-47.910431,-5.001041,4.948445,-35.206436,0.100477,-0.375753,0.953169,-0.302419,0.001827,-0.002860
550,0.255962,-5.434475,8.207132,-37.519108,-6.117189,1.105096,-36.629848,0.009661,-0.185848,0.949342,-0.314239,0.000590,-0.001513
551,0.051867,-5.306935,8.433654,-27.702822,-0.270502,2.754110,-37.716812,-0.036195,-0.070688,0.946320,-0.323231,-0.000100,-0.000686
552,0.008973,-5.844427,8.614401,-32.824318,1.367507,4.277481,-38.725460,0.050768,0.010475,0.943438,-0.331548,0.000388,0.000233
553,-0.089704,-6.326689,8.418281,-30.128321,4.433258,4.310863,-39.774452,0.216205,0.060276,0.940362,-0.340170,0.001595,0.001136
554,-0.003238,-6.389922,8.240328,-24.088997,4.519769,3.716120,-40.677937,0.416651,0.066266,0.937646,-0.347573,0.003208,0.001806
555,-0.012726,-6.474416,8.232760,-18.571814,4.636648,4.902719,-41.388817,0.626090,0.074503,0.935463,-0.353382,0.004881,0.002539
556,0.049469,-6.675571,8.120724,-15.054029,3.410494,2.906219,-41.949139,0.812751,0.082687,0.933714,-0.357949,0.006364,0.003213
557,-0.063754,-6.903020,8.294169,-6.292851,4.097492,2.535222,-42.305164,0.966412,0.065967,0.932588,-0.360844,0.007657,0.003580
558,0.103479,-6.295569,8.023933,4.489242,0.610297,0.977697,-42.335384,1.063876,0.056533,0.932486,-0.361087,0.008479,0.003812
559,-0.076180,-6.187020,8.450012,9.413229,0.874243,4.566933,-42.102680,1.144301,0.108423,0.933209,-0.359195,0.008979,0.004470
560,-0.022973,-6.701239,8.447959,7.421126,-1.443971,5.041144,-41.819492,1.244332,0.233859,0.934079,-0.356896,0.009415,0.005782
561,-0.007315,-6.627758,8.360226,11.068037,-3.500378,4.147547,-41.507641,1.284631,0.403101,0.935033,-0.354366,0.009236,0.007262
562,-0.067502,-6.624221,8.246455,10.085077,-3.623780,3.993247,-41.151077,1.285040,0.583500,0.936119,-0.351469,0.008709,0.008708
563,-0.139678,-6.802909,8.085656,6.447412,-1.919868,0.054318,-40.873062,1.259603,0.695065,0.936962,-0.349205,0.008182,0.009521
564,-0.195517,-6.983037,7.906840,2.748796,0.606577,-2.306273,-40.720116,1.218457,0.680982,0.937433,-0.347952,0.007901,0.009270
565,-0.052925,-7.261639,8.020577,0.651618,-0.396840,-4.139620,-40.665188,1.151020,0.597235,0.937613,-0.347496,0.007608,0.008377
566,-0.061886,-7.519820,7.987999,-2.422995,-1.855559,-2.825581,-40.695919,1.046866,0.533677,0.937534,-0.347742,0.006946,0.007543
567,-0.115214,-6.936218,9.379642,5.430270,-4.860897,-0.018218,-40.645145,0.931055,0.570709,0.937696,-0.347327,0.005889,0.007492
568,-0.070056,-6.790448,10.361975,11.376439,-9.801038,6.017336,-40.361435,0.810181,0.805409,0.938545,-0.345012,0.004211,0.009036
569,0.171989,-6.969866,11.505412,19.972353,-13.245407,8.757451,-39.833241,0.675023,1.241145,0.940096,-0.340686,0.001849,0.012189
570,-0.372288,-6.447586,12.587757,37.323158,-7.047314,11.712516,-38.872906,0.629728,1.719356,0.942863,-0.332796,0.000189,0.015977
571,-0.627525,-6.005206,12.588240,48.994549,-2.716768,12.057059,-37.429295,0.745756,2.130845,0.946906,-0.320907,0.000197,0.019698
572,-0.450953,-7.079364,10.887033,41.691456,-1.767031,10.101812,-35.913128,0.905754,2.471349,0.950987,-0.308377,0.000869,0.022950
573,-0.215794,-7.526620,9.760584,38.089520,-0.902309,5.724553,-34.579609,1.021567,2.712379,0.954446,-0.297311,0.001476,0.025246
574,-0.425733,-7.140235,8.060526,34.119907,3.577742,3.738011,-33.374275,1.146330,2.818379,0.957479,-0.287280,0.002518,0.026427
575,-0.087251,-7.005713,6.341000,14.163173,-1.814184,0.890723,-32.568592,1.212635,2.866837,0.959454,-0.280554,0.003140,0.026977
576,0.290644,-6.866278,6.273904,8.694825,-6.058559,-4.300420,-32.187218,1.071494,2.889371,0.960397,-0.277334,0.001993,0.026814
577,-0.369676,-5.665870,6.034388,23.175833,2.870209,1.269654,-31.656343,0.999632,2.874825,0.961685,-0.272868,0.001548,0.026511
578,0.055497,-5.096492,6.009323,17.457870,-3.055391,-6.751830,-30.980453,0.949523,2.797882,0.963302,-0.267180,0.001463,0.025738
579,0.014384,-5.183969,6.873627,12.896569,-1.887729,-8.878170,-30.477213,0.745382,2.616514,0.964529,-0.262909,0.000273,0.023737
580,-0.334093,-4.745075,7.302740,25.291656,1.606384,-7.760053,-29.843578,0.601858,2.379168,0.966029,-0.257547,-0.000272,0.021412
581,-0.260886,-4.774100,7.701433,18.822971,0.992185,-9.339787,-29.111034,0.499506,2.109460,0.967711,-0.251351,-0.000408,0.018912
583,0.020164,-4.689856,8.508159,12.483175,-2.087178,-13.031484,-28.591494,0.303428,1.791816,0.968902,-0.246936,-0.001295,0.015805
584,-0.567813,-4.775828,9.046458,11.503183,3.555350,-2.967657,-28.192728,0.197949,1.545867,0.969792,-0.243554,-0.001610,0.013504
585,-0.418397,-4.194276,8.867301,14.555328,-2.321739,0.375156,-27.758724,0.196001,1.497789,0.970713,-0.239879,-0.001475,0.013099
586,-0.132598,-4.282209,8.707001,1.512244,-6.261124,3.320601,-27.490612,0.098013,1.618805,0.971261,-0.237594,-0.002526,0.013925
587,-0.047882,-4.021587,8.123012,2.188701,-8.226033,6.457676,-27.428793,-0.040885,1.874889,0.971361,-0.237045,-0.004225,0.015810
588,0.065055,-4.383135,7.461575,-4.094657,-8.337640,6.015271,-27.461149,-0.190059,2.186603,0.971252,-0.237282,-0.006140,0.018142
589,0.538500,-3.602656,6.962234,13.774727,-10.363030,-1.760722,-27.300949,-0.434063,2.392979,0.971553,-0.235868,-0.008608,0.019397
590,0.517181,-3.405980,6.225481,15.883273,-7.235200,-8.655660,-26.806618,-0.774564,2.371514,0.972564,-0.231613,-0.011371,0.018563
591,0.689418,-3.651672,6.320640,12.698703,-8.085103,-10.248877,-26.327641,-1.144113,2.203846,0.973538,-0.227496,-0.014099,0.016451
592,0.195871,-3.240483,6.830332,22.617308,1.869372,-8.977228,-25.733740,-1.377890,1.961464,0.974723,-0.222437,-0.015532,0.014008
593,0.273891,-3.028836,8.009768,29.026014,0.183332,-9.051705,-24.866137,-1.475323,1.674536,0.976404,-0.215074,-0.015717,0.011497
594,-0.369479,-3.485743,8.461165,16.857824,7.139342,-2.433770,-24.095695,-1.443398,1.449745,0.977851,-0.208539,-0.014958,0.009743
595,-0.268607,-3.935580,9.327685,8.899191,4.309563,6.054310,-23.666056,-1.244517,1.427137,0.978644,-0.204900,-0.013182,0.009962
596,-0.567615,-3.496013,9.818669,15.879385,8.761784,9.131327,-23.255987,-0.943646,1.572458,0.979374,-0.201420,-0.010831,0.011780
597,-0.058224,-4.031770,9.867963,12.423461,1.005885,10.076870,-22.787498,-0.668669,1.803442,0.980173,-0.197433,-0.008828,0.014274
598,-0.172913,-4.294385,8.926697,10.789412,3.495313,10.246678,-22.403643,-0.469075,2.087513,0.980793,-0.194159,-0.007553,0.017074
599,0.082792,-4.338786,8.816841,12.407812,-0.142097,7.081724,-22.018637,-0.308152,2.333673,0.981399,-0.190875,-0.006528,0.019475
600,-0.113565,-3.928128,8.779424,22.030844,3.825470,2.887714,-21.445309,-0.189680,2.465434,0.982317,-0.185977,-0.005629,0.020830
601,0.267852,-4.092596,8.613687,20.052366,-1.215762,-3.574230,-20.743801,-0.153537,2.439096,0.983441,-0.179968,-0.005149,0.020695
602,0.050014,-3.512253,8.449920,24.427221,3.438437,-4.798871,-20.002077,-0.167613,2.295733,0.984611,-0.173602,-0.004919,0.019474
603,0.236760,-3.050418,8.933879,23.936945,0.867043,-4.893714,-19.195597,-0.154303,2.119270,0.985837,-0.166678,-0.004411,0.018010
604,0.158625,-2.689925,9.243842,20.679075,2.683033,-4.090381,-18.451584,-0.146574,1.958605,0.986923,-0.160280,-0.004003,0.016665
605,0.267485,-2.795383,8.939264,7.599862,1.608621,-3.333483,-17.979992,-0.117338,1.818612,0.987593,-0.156226,-0.003491,0.015515
606,0.181376,-2.411509,8.948496,-1.184007,4.151829,-3.516006,-17.872841,-0.061226,1.680445,0.987756,-0.155314,-0.002806,0.014403
607,0.056715,-2.775826,9.254605,-22.271055,5.735018,-1.350854,-18.263788,0.070174,1.552171,0.987234,-0.158701,-0.001545,0.013470
608,-0.335922,-2.892316,9.196057,-31.809542,12.817072,0.671609,-19.165545,0.359139,1.442108,0.985957,-0.166497,0.000995,0.012930
609,-0.416421,-3.140306,9.202525,-38.843296,13.893307,-0.371914,-20.344482,0.779703,1.296634,0.984182,-0.176668,0.004698,0.012338
610,-0.611651,-3.288715,9.758220,-40.216194,14.876510,-1.669797,-21.665468,1.215106,1.092835,0.982061,-0.188023,0.008622,0.011359
611,-0.726861,-3.870866,9.721578,-38.519730,15.000901,-1.567038,-22.983469,1.655296,0.853749,0.979803,-0.199306,0.012671,0.010178
612,-0.767102,-4.091860,9.463367,-25.290659,15.600136,-5.156808,-24.056805,2.078178,0.547415,0.977854,-0.208445,0.016741,0.008451
613,-0.728106,-4.271050,9.495944,-11.928579,13.181674,-10.673200,-24.694088,2.406769,0.109156,0.976650,-0.213805,0.020312,0.005421
614,-0.902050,-4.124568,9.127204,6.828537,14.110000,-9.287153,-24.800716,2.681192,-0.383731,0.976415,-0.214605,0.023569,0.001754
615,-0.483793,-4.648070,8.927303,5.559074,7.530811,-11.713638,-24.617008,2.863203,-0.852619,0.976722,-0.212921,0.025994,-0.001941
616,-0.509251,-4.490231,8.950934,15.193669,6.381731,-15.266546,-24.296282,2.888072,-1.358475,0.977291,-0.210066,0.027128,-0.006283
617,-0.425158,-4.116704,8.878082,20.752441,3.221596,-15.923373,-23.724030,2.823046,-1.899017,0.978298,-0.205065,0.027509,-0.011150
618,-0.170192,-4.011992,8.892707,14.683980,-2.368016,-13.229888,-23.154869,2.643077,-2.350841,0.979283,-0.200133,0.026705,-0.015463
619,0.099118,-4.199176,9.237967,3.076291,-7.368030,-12.704947,-22.873173,2.324745,-2.685291,0.979768,-0.197722,0.024523,-0.018940
620,0.063862,-3.550999,8.953840,10.343628,-8.509558,-10.822306,-22.658960,1.928773,-2.944270,0.980136,-0.195934,0.021544,-0.021881
621,0.024980,-3.390589,8.897933,7.157154,-7.887679,-5.270062,-22.371603,1.573793,-3.087649,0.980627,-0.193540,0.018694,-0.023764
622,0.325594,-3.409713,9.021765,-0.084717,-12.978056,-3.695348,-22.253778,1.195415,-3.093828,0.980846,-0.192625,0.015441,-0.024474
623,0.268252,-4.028642,9.314507,-12.758234,-11.394217,-5.257727,-22.467445,0.763019,-3.077055,0.980500,-0.194562,0.011759,-0.025037
624,0.232826,-4.301735,9.184117,-15.460327,-9.998817,-11.072751,-22.938890,0.329110,-3.190118,0.979663,-0.198689,0.008349,-0.026709
625,-0.060497,-4.592927,9.169111,-19.283297,-5.863784,-12.191678,-23.518686,-0.066564,-3.442095,0.978567,-0.203727,0.005552,-0.029521
626,-0.079533,-4.865589,8.869953,-26.686508,-7.574252,-11.559378,-24.283775,-0.431642,-3.712992,0.977084,-0.210341,0.003133,-0.032463
627,-0.377389,-5.070676,8.425435,-30.302156,-4.092514,-6.729166,-25.231466,-0.736051,-3.908221,0.975221,-0.218493,0.001183,-0.034677
628,-0.091921,-4.743816,7.709248,-28.464710,-8.654950,-1.303732,-26.210423,-0.985783,-3.936188,0.973278,-0.226885,-0.000587,-0.035397
629,0.057959,-4.713034,7.453779,-35.653679,-12.001946,6.277702,-27.283323,-1.256377,-3.707341,0.971139,-0.236056,-0.003020,-0.034017
630,0.312724,-4.885154,7.863570,-39.637070,-14.742849,8.885908,-28.548378,-1.532417,-3.275082,0.968550,-0.246810,-0.005909,-0.030988
631,0.729354,-5.146579,8.207098,-41.649731,-16.702000,5.146801,-29.916595,-1.875679,-2.814959,0.965589,-0.258392,-0.009469,-0.027951
632,0.704132,-5.377857,8.340816,-41.442997,-13.297082,2.207768,-31.314344,-2.243181,-2.454988,0.962375,-0.270171,-0.013063,-0.025905
633,0.429771,-5.500334,8.504466,-37.145428,-7.206393,0.072358,-32.632866,-2.512461,-2.241532,0.959190,-0.281232,-0.015543,-0.024926
634,0.317689,-5.682724,8.474539,-32.442005,-2.302065,-1.125203,-33.795799,-2.654213,-2.169056,0.956269,-0.290957,-0.016656,-0.024836
635,0.202445,-5.792531,8.024918,-28.769005,1.461278,-0.651537,-34.815132,-2.682181,-2.185401,0.953632,-0.299456,-0.016625,-0.025192
636,0.019430,-5.954853,7.810373,-23.077024,5.824439,1.919679,-35.676769,-2.570686,-2.238026,0.951369,-0.306615,-0.015368,-0.025456
637,0.311280,-6.061070,7.766751,-15.284286,5.507750,1.775365,-36.313473,-2.381641,-2.298894,0.949681,-0.311884,-0.013494,-0.025532
638,0.430557,-6.060834,7.706615,-7.770391,6.185682,1.362738,-36.694759,-2.193845,-2.372756,0.948663,-0.315029,-0.011650,-0.025673
639,0.319579,-5.828995,7.795884,1.164816,7.370162,2.647108,-36.801876,-1.972768,-2.454323,0.948396,-0.315895,-0.009571,-0.025751
640,0.091074,-5.582377,7.788512,7.610577,9.566511,5.611372,-36.653778,-1.664167,-2.512683,0.948850,-0.314632,-0.006889,-0.025376
641,0.105251,-5.513589,7.631714,5.588277,5.927151,6.829989,-36.434177,-1.333205,-2.499741,0.949509,-0.312764,-0.004230,-0.024354
642,-0.109325,-5.427903,7.690644,3.231758,4.525224,8.748324,-36.289448,-1.038934,-2.393932,0.949968,-0.311518,-0.002108,-0.022673
643,-0.271030,-5.165061,7.724573,5.235879,3.620096,11.005848,-36.151245,-0.734830,-2.208568,0.950413,-0.310325,-0.000115,-0.020310
644,-0.081102,-5.063563,7.909259,7.997523,-0.009420,10.678370,-35.933445,-0.473534,-1.951702,0.951068,-0.308484,0.001323,-0.017475
645,0.028803,-5.179570,8.368710,8.691528,-3.385808,10.837153,-35.657604,-0.309718,-1.627642,0.951864,-0.306178,0.001776,-0.014349
646,-0.118507,-4.923203,8.672961,16.140833,-2.432867,12.020363,-35.245354,-0.167733,-1.261006,0.953007,-0.302744,0.001936,-0.010931
647,0.195667,-4.660502,8.802407,24.007622,-5.160287,10.444867,-34.576950,-0.057420,-0.881523,0.954791,-0.297178,0.001808,-0.007494
648,0.305873,-4.625981,9.217047,24.904997,-6.731180,10.013115,-33.762173,-0.030106,-0.487915,0.956901,-0.290385,0.000985,-0.004151
649,-0.021684,-4.160430,9.538146,29.580097,-3.837502,11.172555,-32.854237,0.016584,-0.096035,0.959180,-0.282795,0.000376,-0.000763
650,0.118604,-3.616546,9.440852,35.623074,-5.434426,9.744206,-31.767231,0.072139,0.280969,0.961816,-0.273685,-0.000066,0.002531
651,0.153606,-3.371516,9.604076,35.171162,-7.192510,10.496212,-30.587038,0.066525,0.678667,0.964569,-0.263763,-0.001002,0.005866
652,-0.046550,-3.411368,10.034225,30.667828,-6.666708,13.722812,-29.489334,0.068764,1.143765,0.967020,-0.254505,-0.001960,0.009805
653,0.004685,-3.412437,10.108665,27.783556,-7.672151,15.013872,-28.514427,0.092315,1.678296,0.969093,-0.246260,-0.002826,0.014393
654,0.347637,-3.705424,9.960242,21.591860,-11.262184,14.562842,-27.690889,0.046380,2.261736,0.970754,-0.239265,-0.004330,0.019259
655,0.295090,-3.926651,10.040663,17.865339,-9.473216,14.765115,-27.033398,-0.035543,2.854865,0.972002,-0.233649,-0.006124,0.024148
656,0.161708,-4.009813,10.198463,17.595387,-6.127877,13.099414,-26.442787,-0.058683,3.386511,0.973072,-0.228600,-0.007256,0.028648
657,0.033888,-3.959353,10.005030,21.175062,-2.849279,9.662482,-25.796862,-0.026125,3.792883,0.974235,-0.223094,-0.007609,0.032207
658,0.112488,-3.894531,9.532851,25.952011,-1.759102,3.918204,-25.011444,0.001278,4.030213,0.975671,-0.216404,-0.007603,0.034331
659,0.180255,-3.952411,9.153187,26.526251,-1.313337,-2.606024,-24.136885,-0.036601,4.071480,0.977284,-0.208937,-0.007739,0.034671
660,0.189770,-4.017803,8.959744,26.526627,-0.785753,-8.093604,-23.252522,-0.140686,3.922393,0.978917,-0.201368,-0.008099,0.033273
661,0.324324,-3.980676,8.670965,28.680838,-2.265544,-13.555529,-22.331203,-0.327670,3.609574,0.980598,-0.193460,-0.008903,0.030345
662,0.424934,-3.939788,8.431087,28.552013,-4.016736,-18.016823,-21.373663,-0.620940,3.160378,0.982295,-0.185221,-0.010436,0.026093
663,0.381409,-3.926380,8.606080,27.692093,-4.164283,-19.822214,-20.428797,-0.973522,2.620105,0.983893,-0.177088,-0.012413,0.020993
664,0.300873,-3.938193,8.804318,28.127678,-3.158681,-18.931118,-19.487309,-1.308814,2.054694,0.985387,-0.169000,-0.014289,0.015737
665,0.344958,-3.786736,8.705231,29.886206,-3.372204,-19.231043,-18.506081,-1.618685,1.488518,0.986836,-0.160584,-0.016029,0.010548
666,0.412269,-3.579795,8.757182,30.435587,-3.814637,-19.975637,-17.482689,-1.934376,0.903816,0.988233,-0.151816,-0.017882,0.005229
667,0.429985,-3.374782,8.988029,29.920349,-3.363003,-19.876064,-16.454966,-2.242622,0.303168,0.989522,-0.143025,-0.019746,-0.000183
668,0.281485,-3.131224,9.142384,29.841480,-0.298604,-17.983856,-15.434764,-2.474639,-0.287234,0.990701,-0.134309,-0.021061,-0.005383
669,0.070061,-2.819337,9.338216,30.859667,4.033844,-15.304862,-14.399049,-2.557218,-0.840086,0.991822,-0.125453,-0.021219,-0.010068
670,0.191590,-2.531442,9.570873,31.159321,3.659788,-13.322883,-13.343661,-2.546962,-1.334833,0.992885,-0.116403,-0.020720,-0.014149
671,0.157499,-2.269728,9.729070,32.822182,4.355966,-11.337027,-12.258423,-2.507590,-1.765587,0.993892,-0.107068,-0.020109,-0.017651
672,0.216243,-2.181456,9.810545,31.866747,3.847296,-8.146329,-11.165492,-2.439448,-2.111658,0.994824,-0.097635,-0.019390,-0.020406
673,0.265874,-2.040596,9.796657,32.816372,2.928902,-5.035892,-10.077627,-2.368721,-2.348604,0.995676,-0.088215,-0.018786,-0.022225
674,0.575197,-1.825128,9.806949,34.521870,-1.494646,-4.105642,-8.949069,-2.370059,-2.502894,0.996466,-0.078431,-0.018910,-0.023382
675,0.469872,-1.637355,9.751458,35.662121,-1.158085,-1.351272,-7.775930,-2.426875,-2.586160,0.997188,-0.068250,-0.019593,-0.023945
676,0.563137,-1.422094,9.739513,35.771210,-2.444308,1.323761,-6.585804,-2.486259,-2.579164,0.997833,-0.057900,-0.020361,-0.023709
677,0.572782,-1.068410,9.729705,40.025379,-3.138414,1.207939,-5.324953,-2.574170,-2.527413,0.998403,-0.046924,-0.021408,-0.023068
678,0.756578,-0.847340,9.735658,40.113464,-5.637747,-0.617799,-3.990499,-2.719157,-2.505675,0.998855,-0.035317,-0.022946,-0.022671
679,0.626782,-0.638580,9.702931,39.426598,-4.658264,-1.502222,-2.663821,-2.892652,-2.530764,0.999155,-0.023788,-0.024714,-0.022657
680,0.571060,-0.413608,9.790930,38.741787,-3.924436,-2.569486,-1.357959,-3.038056,-2.593723,0.999315,-0.012443,-0.026232,-0.022937
681,0.494672,-0.224266,9.764640,36.706596,-3.005373,-2.888359,-0.095831,-3.154784,-2.683393,0.999346,-0.001480,-0.027500,-0.023429
682,0.399778,-0.038893,9.771162,33.414112,-1.218878,-1.833676,1.077114,-3.224542,-2.762873,0.999276,0.008715,-0.028353,-0.023833
683,0.262574,0.151859,9.797390,31.239887,1.241289,-0.040521,2.156327,-3.223212,-2.794265,0.999143,0.018118,-0.028569,-0.023839
684,0.283034,0.289239,9.798525,27.429785,1.898229,1.815970,3.132285,-3.172168,-2.762431,0.998971,0.026646,-0.028319,-0.023330
686,0.273123,0.394676,9.740861,22.253340,2.769353,3.926896,3.954777,-3.100300,-2.662000,0.998791,0.033855,-0.027830,-0.022273
687,0.264633,0.395607,9.798184,16.709738,3.754673,5.991142,4.594906,-3.004027,-2.488887,0.998640,0.039495,-0.027055,-0.020642
688,0.289552,0.461861,9.852105,13.725822,3.860098,7.259797,5.090257,-2.896043,-2.257890,0.998523,0.043886,-0.026115,-0.018555
689,0.410531,0.544362,9.835550,11.438626,2.232357,7.798391,5.496706,-2.817994,-1.998329,0.998417,0.047499,-0.025393,-0.016234
690,0.417140,0.632962,9.822088,10.654240,1.797635,7.603628,5.852074,-2.776484,-1.735899,0.998307,0.050659,-0.024966,-0.013887
691,0.460247,0.684548,9.841909,9.854192,0.907602,6.750553,6.182143,-2.756715,-1.492967,0.998188,0.053590,-0.024720,-0.011709
692,0.517220,0.786233,9.831137,8.479619,-0.469477,5.706842,6.477686,-2.772358,-1.285547,0.998063,0.056207,-0.024784,-0.009830
693,0.567603,0.844153,9.770339,6.916041,-1.825541,5.082825,6.725730,-2.831034,-1.111073,0.997941,0.058400,-0.025228,-0.008227
694,0.511362,0.878007,9.822984,4.601824,-1.155949,5.187323,6.909459,-2.900688,-0.946778,0.997842,0.060030,-0.025761,-0.006719
695,0.547682,0.899738,9.886615,1.930464,-1.916227,5.384298,7.009685,-2.972833,-0.777864,0.997782,0.060935,-0.026306,-0.005187
696,0.553198,0.963822,9.915848,2.049198,-1.575673,4.992157,7.067346,-3.051751,-0.613110,0.997739,0.061470,-0.026907,-0.003697
697,0.509768,1.055479,9.809165,0.762080,-0.671215,5.054490,7.105509,-3.109572,-0.451334,0.997710,0.061838,-0.027324,-0.002248
698,0.442083,1.008060,9.904932,-3.099610,1.142812,5.221874,7.057255,-3.122871,-0.280144,0.997735,0.061458,-0.027347,-0.000762
699,0.405053,1.005731,9.872332,-3.597703,2.224597,5.574456,6.935593,-3.089036,-0.094427,0.997807,0.060443,-0.026954,0.000808
700,0.431174,0.999062,9.811606,-3.371041,2.365422,6.428568,6.808342,-3.037019,0.113643,0.997883,0.059384,-0.026394,0.002563
701,0.495334,1.003795,9.847585,-3.027097,1.719416,7.492290,6.689140,-2.996687,0.352381,0.997946,0.058401,-0.025924,0.004594
702,0.562713,0.969647,9.940951,-3.719675,0.740853,7.550699,6.563419,-2.984900,0.606494,0.998000,0.057363,-0.025699,0.006773
703,0.626837,1.046806,9.881082,-0.246817,-0.484741,6.567421,6.485033,-3.007382,0.841067,0.998017,0.056734,-0.025784,0.008810
704,0.702652,1.126935,9.881908,1.834357,-1.867763,4.586215,6.501907,-3.067415,1.021577,0.997980,0.056925,-0.026216,0.010415
705,0.689706,1.187258,9.889486,3.182697,-2.087555,2.281739,6.579736,-3.145978,1.127937,0.997912,0.057633,-0.026839,0.011398
706,0.714789,1.243086,9.882461,4.834494,-3.025717,0.265869,6.711542,-3.235565,1.160292,0.997820,0.058795,-0.027590,0.011756
707,0.682447,1.291354,9.866337,6.951202,-2.840801,-1.436678,6.909731,-3.330361,1.129266,0.997695,0.060520,-0.028411,0.011584
708,0.663360,1.347063,9.829227,7.942452,-2.519077,-2.172363,7.162107,-3.411669,1.058483,0.997545,0.062705,-0.029132,0.011074
709,0.645531,1.345614,9.871083,7.309477,-1.909035,-2.183150,7.421196,-3.475669,0.976952,0.997392,0.064943,-0.029710,0.010466
710,0.597928,1.401873,9.841047,8.173683,-0.773772,-2.298128,7.684122,-3.510179,0.896878,0.997238,0.067212,-0.030033,0.009858
711,0.521777,1.348942,9.751341,6.262027,0.841642,-2.525017,7.929578,-3.498134,0.817219,0.997102,0.069327,-0.029956,0.009221
712,0.535003,1.298372,9.739649,3.135286,1.058426,-2.614402,8.091076,-3.454850,0.736633,0.997021,0.070709,-0.029616,0.008536
713,0.553691,1.250417,9.754680,-0.221756,0.810850,-3.401153,8.145324,-3.409868,0.641595,0.997006,0.071155,-0.029279,0.007695
714,0.508802,1.258896,9.741554,-0.678088,1.466956,-4.651266,8.137864,-3.353307,0.513884,0.997033,0.071056,-0.028867,0.006547
715,0.505189,1.148740,9.776812,-3.690133,1.383154,-6.751917,8.075572,-3.279483,0.332124,0.997099,0.070468,-0.028340,0.004905
716,0.556781,1.235699,9.839603,-3.414881,1.220236,-10.696476,7.973111,-3.195951,0.049758,0.997191,0.069507,-0.027789,0.002372
717,0.498158,1.373878,9.922811,-4.445403,1.545583,-14.134348,7.864294,-3.093241,-0.354391,0.997283,0.068466,-0.027139,-0.001233
718,0.397426,1.333143,9.864079,-8.268658,2.709523,-14.641833,7.677009,-2.958128,-0.820643,0.997411,0.066736,-0.026232,-0.005415
719,0.308473,1.310352,9.691164,-12.691621,4.338457,-15.548267,7.351852,-2.775996,-1.304739,0.997603,0.063815,-0.024901,-0.009806
720,0.276215,1.318302,9.752257,-16.542816,5.221065,-14.984403,6.887161,-2.554974,-1.790465,0.997845,0.059696,-0.023190,-0.014253
721,0.201306,1.175742,9.775331,-20.831699,5.576759,-11.891182,6.282319,-2.325003,-2.215194,0.998127,0.054383,-0.021313,-0.018185
722,0.177982,1.140597,9.755831,-17.552151,5.308958,-7.636745,5.654376,-2.111003,-2.520310,0.998392,0.048899,-0.019479,-0.021053
723,0.209767,1.355615,9.845439,-4.587057,3.690640,-2.705512,5.290923,-1.945383,-2.677663,0.998536,0.045740,-0.018031,-0.022553
724,0.415837,1.462120,10.036551,11.696599,-1.272797,6.290830,5.407249,-1.910811,-2.614275,0.998506,0.046771,-0.017727,-0.021997
725,0.453794,1.245661,9.898927,26.013546,-4.839105,15.163031,6.023747,-2.047779,-2.268342,0.998282,0.052171,-0.018881,-0.018825
726,0.333361,1.135740,9.853015,31.235140,-3.935656,19.049475,6.957133,-2.257501,-1.717916,0.997870,0.060362,-0.020570,-0.013765
727,0.373898,1.190132,9.848081,31.195425,-3.783845,19.702593,7.971881,-2.468882,-1.093895,0.997318,0.069287,-0.022154,-0.008023
728,0.387584,1.113401,9.855618,23.975803,-2.776157,17.521608,8.864506,-2.667786,-0.495663,0.996738,0.077158,-0.023543,-0.002512
729,0.339851,1.081524,9.786862,12.059499,-0.324673,11.672851,9.442543,-2.796021,-0.022992,0.996311,0.082279,-0.024331,0.001808
730,0.303131,1.424146,9.820463,3.817492,2.470135,5.090870,9.693445,-2.807026,0.258753,0.996118,0.084520,-0.024215,0.004319
731,0.423967,1.592366,9.813226,1.222982,1.442638,3.485163,9.770135,-2.766860,0.410765,0.996063,0.085218,-0.023750,0.005626
732,0.409083,1.517649,9.753240,0.032585,1.644876,3.514427,9.785112,-2.735943,0.534609,0.996052,0.085373,-0.023388,0.006683
733,0.449856,1.491364,9.693188,-1.248338,1.215487,3.195467,9.759228,-2.707932,0.653040,0.996070,0.085171,-0.023058,0.007686
734,0.413386,1.498315,9.705283,-1.678165,1.880968,2.808615,9.705403,-2.673971,0.760507,0.996109,0.084724,-0.022687,0.008585
735,0.465407,1.511039,9.735479,-1.830391,1.057955,3.274179,9.641914,-2.642718,0.868794,0.996154,0.084192,-0.022341,0.009491
736,0.505532,1.594579,9.756136,-0.640515,0.529569,3.562413,9.595343,-2.635670,0.985676,0.996179,0.083809,-0.022198,0.010493
737,0.540135,1.617045,9.779125,-1.025721,0.032302,3.953035,9.561797,-2.647290,1.110877,0.996189,0.083543,-0.022211,0.011583
738,0.551114,1.629299,9.787369,-1.170117,-0.218984,4.186274,9.519002,-2.672839,1.244283,0.996201,0.083198,-0.022340,0.012753
739,0.539196,1.618061,9.827909,-1.100433,-0.301249,4.014234,9.474895,-2.703940,1.377800,0.996211,0.082844,-0.022519,0.013927
740,0.527462,1.621589,9.831906,-0.347658,-0.589266,3.644623,9.444889,-2.739560,1.501412,0.996209,0.082610,-0.022743,0.015022
741,0.511400,1.643187,9.818670,0.477357,-0.831094,2.854575,9.442084,-2.780690,1.604497,0.996188,0.082611,-0.023027,0.015947
742,0.497102,1.642006,9.822149,0.764100,-0.764324,2.116875,9.458987,-2.820531,1.681954,0.996156,0.082778,-0.023315,0.016652
743,0.419831,1.633003,9.810766,0.962067,0.567240,1.645674,9.484728,-2.834093,1.743341,0.996125,0.083015,-0.023385,0.017201
744,0.414115,1.601954,9.779525,0.884567,0.564610,1.961470,9.512427,-2.825410,1.805822,0.996098,0.083268,-0.023260,0.017743
745,0.402726,1.571683,9.741792,1.056450,0.409276,2.715302,9.540853,-2.822302,1.885476,0.996065,0.083531,-0.023170,0.018439
746,0.412940,1.569379,9.733788,1.377845,0.058395,4.109508,9.575819,-2.833503,1.999078,0.996018,0.083859,-0.023179,0.019442
747,0.442827,1.587153,9.764415,2.695097,-0.584190,5.557838,9.635856,-2.869029,2.156675,0.995938,0.084418,-0.023361,0.020849
748,0.538358,1.644689,9.843739,4.742038,-2.398675,6.583416,9.750086,-2.952112,2.348017,0.995798,0.085463,-0.023920,0.022597
749,0.584470,1.721525,9.837527,6.740889,-2.922752,7.078137,9.930427,-3.078432,2.557497,0.995588,0.087095,-0.024823,0.024549
750,0.576437,1.772289,9.829189,6.879829,-2.056192,7.336519,10.145247,-3.202042,2.779922,0.995342,0.089033,-0.025678,0.026622
751,0.600460,1.731800,9.781158,4.828952,-2.137725,7.196739,10.327549,-3.313868,3.006214,0.995114,0.090690,-0.026428,0.028715
752,0.610853,1.653295,9.709107,0.893413,-2.017541,6.630165,10.410307,-3.423437,3.220821,0.994963,0.091482,-0.027187,0.030684
753,0.659455,1.549754,9.664439,-2.046931,-2.461463,6.352787,10.378955,-3.535844,3.420581,0.994900,0.091283,-0.028013,0.032499
754,0.728540,1.637266,9.505462,0.193503,-3.649133,4.879643,10.337614,-3.669645,3.586777,0.994845,0.090998,-0.029054,0.034035
755,0.845066,1.701378,9.602503,-2.635327,-5.229753,2.909446,10.290251,-3.838501,3.688197,0.994800,0.090655,-0.030455,0.035034
756,0.846119,1.686280,9.773189,-4.591169,-4.721809,1.711448,10.166589,-4.015372,3.734675,0.994826,0.089640,-0.031992,0.035540
757,0.796912,1.789348,9.818689,-2.643326,-3.741218,0.291876,10.045420,-4.160076,3.742848,0.994869,0.088627,-0.033280,0.035686
