seq,ax,ay,az,wroll,wpitch,wyaw,roll,pitch,yaw,q0,q1,q2,q3
60,0.180597,-2.403692,9.437921,-7.602461,-2.820457,36.220203,-14.288579,-1.062330,0.270542,0.992193,-0.124341,-0.009492,0.001190
61,-1.265555,-4.147624,8.291725,7.186323,-11.512774,-39.365669,-14.295684,-1.306765,0.278714,0.992164,-0.124394,-0.011617,0.000994
62,-1.097404,-4.162551,8.479782,3.716387,-15.575629,-35.969936,-14.082798,-2.052198,-0.828590,0.992257,-0.122692,-0.016886,-0.009370
63,-0.557579,-4.483622,9.013908,0.420647,-20.755384,-33.587902,-13.970920,-2.920762,-1.807100,0.992082,-0.121962,-0.023376,-0.018746
64,0.077788,-4.603978,9.141158,-0.587844,-24.514877,-32.347141,-13.920326,-3.917965,-2.692997,0.991679,-0.121872,-0.031077,-0.027453
65,0.564292,-4.471563,8.970008,-0.135748,-25.685600,-30.287619,-13.868812,-4.980767,-3.507696,0.991122,-0.121883,-0.039422,-0.035597
66,0.938027,-4.432431,9.052493,-1.419259,-24.624039,-30.102093,-13.819623,-6.035579,-4.287827,0.990429,-0.122011,-0.047733,-0.043416
67,1.371721,-4.525325,9.197951,-0.822960,-21.850817,-32.384342,-13.762355,-7.036039,-5.119781,0.989609,-0.122187,-0.055519,-0.051603
68,1.407576,-4.140461,8.758715,2.001483,-16.410025,-32.507240,-13.625012,-7.911477,-6.027223,0.988774,-0.121776,-0.062183,-0.060249
69,1.363495,-3.728147,8.674409,2.984755,-9.943469,-30.920326,-13.408216,-8.585363,-6.962153,0.988018,-0.120713,-0.067134,-0.068857
70,1.380739,-3.675595,9.109251,0.585343,-4.594551,-28.928896,-13.207229,-9.050653,-7.888022,0.987300,-0.119761,-0.070305,-0.077164
71,1.324536,-3.572235,9.131970,-0.576586,-0.721016,-22.923647,-13.074523,-9.333536,-8.720022,0.986635,-0.119289,-0.071971,-0.084514
72,1.205084,-3.355564,8.901066,-1.405254,2.379254,-13.598153,-13.008686,-9.444033,-9.327337,0.986154,-0.119170,-0.072342,-0.089803
74,1.060657,-3.399519,8.969283,-2.423792,8.616133,-2.469696,-13.022717,-9.325854,-9.633600,0.985990,-0.119408,-0.070993,-0.092338
75,0.543092,-3.994108,9.324714,-4.516742,16.057381,10.856298,-13.145570,-8.893732,-9.589965,0.986229,-0.120160,-0.067216,-0.091635
76,0.289939,-4.240532,8.871343,-6.105486,21.993513,21.609951,-13.380054,-8.152436,-9.204522,0.986820,-0.121493,-0.061048,-0.087745
77,0.157238,-4.047025,8.676643,-6.671096,25.787153,28.450941,-13.677381,-7.183150,-8.574014,0.987605,-0.123158,-0.053140,-0.081513
78,-0.214294,-4.342411,9.301060,-12.872663,27.161966,33.962032,-14.096004,-6.076997,-7.770700,0.988330,-0.125811,-0.044183,-0.073643
79,-0.527743,-4.535485,9.664320,-15.932425,23.158039,32.978516,-14.660732,-4.987486,-6.894755,0.988761,-0.129834,-0.035412,-0.065125
80,-0.166589,-3.799230,9.121954,-12.417690,15.906054,25.241440,-15.194635,-4.108385,-6.122981,0.988918,-0.133834,-0.028423,-0.057637
81,-0.300809,-3.423296,9.193233,-8.720548,7.198625,18.173687,-15.586879,-3.545141,-5.526366,0.988936,-0.136857,-0.024077,-0.051929
82,-0.434119,-3.612954,9.282356,-4.878957,-2.449212,12.083984,-15.841658,-3.332417,-5.061656,0.988898,-0.138884,-0.022689,-0.047720
83,-0.351968,-3.706429,9.237190,4.602454,-10.516704,3.686607,-15.865112,-3.468570,-4.749354,0.988954,-0.139068,-0.024233,-0.045192
84,0.117240,-3.932251,9.010648,6.429782,-17.993336,-0.798260,-15.692846,-3.912949,-4.573554,0.989086,-0.137680,-0.028350,-0.044162
85,0.194642,-4.020236,8.914048,7.049583,-22.581999,-0.563048,-15.480235,-4.570467,-4.413216,0.989160,-0.135994,-0.034300,-0.043488
86,0.616474,-4.249696,9.051416,5.668765,-23.319435,-5.343854,-15.277607,-5.334154,-4.304815,0.989121,-0.134422,-0.041100,-0.043365
87,0.946151,-4.415681,8.994883,2.662526,-18.879143,-12.335834,-15.129038,-6.090140,-4.405111,0.988898,-0.133383,-0.047568,-0.045032
88,0.815185,-3.959447,8.600171,0.093893,-11.533159,-16.708023,-15.045956,-6.705612,-4.742500,0.988531,-0.132987,-0.052523,-0.048598
89,0.450867,-3.632805,8.844769,-0.432057,-4.492952,-17.964287,-14.992778,-7.113411,-5.234875,0.988142,-0.132885,-0.055496,-0.053275
90,0.441420,-3.765373,9.309323,-4.012601,-0.171336,-16.488546,-14.999409,-7.337091,-5.773662,0.987738,-0.133283,-0.056797,-0.058171
91,0.372751,-3.623305,9.190618,-3.382633,2.140145,-8.049151,-15.070623,-7.411626,-6.180407,0.987396,-0.134127,-0.056928,-0.061794
92,0.404697,-3.336184,9.153653,-5.617511,4.586163,3.727397,-15.207947,-7.322276,-6.279999,0.987236,-0.135324,-0.055965,-0.062620
93,1.014706,-3.485676,8.990462,-4.599793,0.349855,12.159214,-15.408067,-7.173157,-6.044410,0.987215,-0.136876,-0.054852,-0.060519
94,1.275552,-3.634476,8.696455,-5.169347,1.830058,16.250942,-15.626569,-7.011607,-5.594460,0.987278,-0.138486,-0.053888,-0.056561
95,0.959260,-3.880357,8.649596,-6.411433,6.831496,15.119217,-15.875460,-6.730770,-5.127077,0.987359,-0.140321,-0.051917,-0.052321
96,0.641993,-3.935622,8.907146,-7.792824,12.221836,13.311810,-16.153984,-6.294744,-4.756809,0.987415,-0.142427,-0.048491,-0.048733
97,0.301041,-4.130944,9.020350,-7.989316,16.320337,14.822775,-16.450062,-5.706470,-4.438514,0.987470,-0.144685,-0.043696,-0.045394
98,-0.121205,-4.140720,9.110439,-7.414300,18.625130,17.224909,-16.739067,-4.995791,-4.091404,0.987553,-0.146865,-0.037900,-0.041623
99,-0.301369,-3.992933,9.405069,-5.825786,18.928171,17.484480,-16.989756,-4.229083,-3.718100,0.987659,-0.148727,-0.031684,-0.037511
100,-0.050538,-3.601328,9.331586,-3.702056,15.946653,14.161872,-17.171129,-3.518644,-3.383810,0.987762,-0.150047,-0.025938,-0.033762
101,0.163273,-3.492642,9.310749,-2.735970,12.482988,8.050939,-17.290468,-2.956467,-3.170175,0.987824,-0.150914,-0.021338,-0.031214
102,0.015573,-3.389907,9.276740,-1.674568,9.834916,-2.853064,-17.362501,-2.575567,-3.198286,0.987814,-0.151460,-0.017997,-0.030971
103,0.051171,-3.297586,8.979409,-0.687271,4.600926,-14.317775,-17.386501,-2.431353,-3.543583,0.987718,-0.151687,-0.016290,-0.033762
104,-0.009314,-3.459250,9.044483,-3.891371,-0.887971,-18.380722,-17.439146,-2.535341,-4.082613,0.987454,-0.152244,-0.016455,-0.038551
105,-0.231052,-3.894782,9.215963,-5.215957,-3.692513,-14.284281,-17.567694,-2.771997,-4.579392,0.987046,-0.153496,-0.017786,-0.043163
106,-0.348074,-4.163260,9.035521,-6.869483,-5.045871,-9.547280,-17.752033,-3.031363,-4.914096,0.986596,-0.155221,-0.019497,-0.046420
107,-0.098616,-4.055190,9.029191,-7.628226,-6.371929,-4.237448,-17.984735,-3.283083,-5.074579,0.986138,-0.157338,-0.021350,-0.048181
108,-0.224151,-4.157466,9.347326,-8.586035,-3.808686,1.955689,-18.255857,-3.456275,-5.057900,0.985715,-0.159727,-0.022750,-0.048325
109,-0.037421,-4.180346,8.903462,-8.150987,-1.768231,3.422812,-18.541712,-3.516276,-4.943194,0.985342,-0.162182,-0.023307,-0.047479
110,0.193875,-4.011159,8.831469,-8.537166,-1.171423,0.830572,-18.824928,-3.539998,-4.860141,0.984965,-0.164608,-0.023513,-0.046856
111,0.337760,-3.873942,9.091996,-4.775787,-1.408474,-1.797046,-19.046738,-3.585840,-4.861431,0.984629,-0.166529,-0.023815,-0.046978
112,0.491308,-4.092778,9.116621,-2.999102,-1.625760,-4.104641,-19.171482,-3.665784,-4.938000,0.984389,-0.167642,-0.024339,-0.047777
113,0.522498,-4.175189,9.129670,-2.254369,-1.304716,-6.563020,-19.249182,-3.770378,-5.090164,0.984175,-0.168377,-0.024982,-0.049251
114,0.484380,-4.050200,9.302452,1.551240,-1.395973,-7.987848,-19.246572,-3.892795,-5.304771,0.984041,-0.168444,-0.025719,-0.051271
115,0.625599,-3.909472,8.998248,5.543318,-2.248542,-9.098092,-19.111057,-4.043656,-5.554409,0.984070,-0.167391,-0.026712,-0.053600
116,0.575570,-3.973234,8.834931,2.845676,-2.418514,-8.903348,-18.952583,-4.214957,-5.813370,0.984111,-0.166156,-0.027883,-0.056030
117,0.367284,-3.982403,9.027954,0.803406,-2.008540,-7.128261,-18.874586,-4.371414,-6.042829,0.984048,-0.165604,-0.028934,-0.058203
118,0.469900,-3.903074,8.973476,1.457972,-2.268080,-5.415062,-18.823326,-4.506435,-6.218153,0.983977,-0.165264,-0.029867,-0.059885
119,0.527670,-3.816849,8.844784,-1.556502,-1.502752,-3.363488,-18.815525,-4.613106,-6.336747,0.983880,-0.165272,-0.030617,-0.061051
120,0.386457,-3.896846,9.027740,-3.668914,-0.224397,-1.204235,-18.897522,-4.664977,-6.399668,0.983706,-0.166015,-0.030928,-0.061687
121,0.399518,-3.933179,9.039028,-2.859390,0.470960,0.142769,-19.004858,-4.666856,-6.417775,0.983539,-0.166942,-0.030860,-0.061874
122,0.548512,-3.969715,8.880223,-1.821619,0.475292,-0.017601,-19.082617,-4.651276,-6.420952,0.983431,-0.167603,-0.030679,-0.061900
123,0.514508,-4.035460,8.823967,-3.317050,1.815022,-0.640460,-19.166412,-4.618803,-6.443895,0.983310,-0.168315,-0.030321,-0.062072
124,0.423059,-4.179255,8.916394,-4.687778,3.313436,-1.212873,-19.295225,-4.548267,-6.501392,0.983119,-0.169405,-0.029561,-0.062498
125,0.460940,-4.250895,8.920140,-3.556327,4.290730,-1.659153,-19.425774,-4.444562,-6.588832,0.982921,-0.170502,-0.028469,-0.063132
126,0.452640,-4.227345,8.881374,-2.190549,4.861686,-1.574307,-19.513765,-4.318693,-6.690766,0.982785,-0.171226,-0.027188,-0.063844
127,0.343841,-4.141638,8.971024,-0.723080,5.598995,-0.865421,-19.555161,-4.167970,-6.787633,0.982730,-0.171535,-0.025727,-0.064465
128,0.355298,-4.021522,9.092779,1.792789,4.973985,-0.326890,-19.531794,-4.008545,-6.865487,0.982784,-0.171279,-0.024255,-0.064895
129,0.339166,-3.791429,9.053991,3.919861,4.269450,0.314218,-19.433039,-3.863363,-6.917157,0.982957,-0.170375,-0.022988,-0.065106
130,0.317329,-3.590884,9.032884,4.614799,2.131721,0.610943,-19.289419,-3.757585,-6.938000,0.983198,-0.169097,-0.022131,-0.065104
131,0.284178,-3.557145,9.140173,2.715695,1.111385,1.586711,-19.168341,-3.694475,-6.921155,0.983409,-0.168025,-0.021682,-0.064845
132,0.315360,-3.516274,9.191856,2.320067,0.390111,2.228378,-19.087744,-3.649982,-6.869176,0.983572,-0.167303,-0.021421,-0.064321
133,0.307906,-3.502774,9.060342,1.789906,0.064290,4.086921,-19.025406,-3.608452,-6.771967,0.983732,-0.166730,-0.021241,-0.063415
134,0.429834,-3.499891,9.039290,-0.486745,0.076081,6.037024,-19.013620,-3.551238,-6.612900,0.983856,-0.166573,-0.020987,-0.061966
135,0.501438,-3.460410,8.996756,-2.343513,-0.067974,6.771910,-19.073193,-3.481426,-6.410778,0.983901,-0.167017,-0.020650,-0.060142
136,0.517285,-3.330433,8.932632,-4.189541,-0.366739,7.138988,-19.195412,-3.412251,-6.188972,0.983861,-0.167997,-0.020317,-0.058160
137,0.596181,-3.351832,8.918690,-9.543164,-0.556555,6.949274,-19.437683,-3.349077,-5.961913,0.983637,-0.170011,-0.019988,-0.056162
138,0.665612,-3.307866,9.043483,-14.899323,-0.454302,5.394671,-19.856632,-3.295682,-5.762191,0.983123,-0.173551,-0.019627,-0.054442
139,0.638562,-3.350410,9.142987,-18.975985,-0.052043,4.029162,-20.429804,-3.249396,-5.611620,0.982328,-0.178423,-0.019192,-0.053178
140,0.565005,-3.509833,9.214808,-20.537281,0.303895,2.928803,-21.094360,-3.204261,-5.504525,0.981341,-0.184082,-0.018669,-0.052300
141,0.579756,-3.658318,9.227111,-19.854445,1.366006,2.121366,-21.771307,-3.147533,-5.436254,0.980285,-0.189845,-0.017987,-0.051732
142,0.462698,-3.824651,9.159822,-19.008583,2.418225,2.921433,-22.421930,-3.057430,-5.381992,0.979244,-0.195367,-0.017015,-0.051218
143,0.345352,-4.081987,9.161908,-17.923683,2.852325,4.505899,-23.041639,-2.928600,-5.301589,0.978248,-0.200603,-0.015778,-0.050400
144,0.349794,-4.250556,9.092009,-15.138420,2.673854,5.069517,-23.598162,-2.780914,-5.191309,0.977354,-0.205286,-0.014471,-0.049274
145,0.433605,-4.339717,8.992636,-11.784875,2.299755,5.007877,-24.052563,-2.637287,-5.070986,0.976624,-0.209097,-0.013270,-0.048046
146,0.414411,-4.383605,8.807419,-9.532698,1.741194,4.632709,-24.413197,-2.509958,-4.951969,0.976045,-0.212114,-0.012255,-0.046840
147,0.369741,-4.266521,8.729214,-9.079953,1.272496,3.013989,-24.727491,-2.411303,-4.856860,0.975524,-0.214749,-0.011464,-0.045881
148,0.264456,-4.273874,8.781787,-10.969660,1.367660,1.250471,-25.063555,-2.341444,-4.810895,0.974926,-0.217582,-0.010822,-0.045392
149,0.203895,-4.354939,8.805339,-12.904690,1.578757,-0.069275,-25.461319,-2.288587,-4.814077,0.974177,-0.220948,-0.010209,-0.045355
150,0.077353,-4.412559,8.766184,-13.974834,1.699249,-0.651038,-25.907936,-2.244519,-4.848621,0.973306,-0.224732,-0.009590,-0.045602
151,0.026434,-4.532006,8.935567,-13.839752,1.506763,-0.722987,-26.369791,-2.206625,-4.892761,0.972384,-0.228644,-0.008996,-0.045940
152,0.095177,-4.825828,8.920027,-11.171037,1.148966,-0.580805,-26.785124,-2.176762,-4.932032,0.971540,-0.232160,-0.008497,-0.046245
153,0.243189,-4.904512,8.608987,-5.392195,0.826844,-1.255347,-27.059574,-2.161259,-4.974260,0.970968,-0.234485,-0.008168,-0.046591
154,0.167081,-4.848413,8.398043,-3.547036,1.555638,-0.466791,-27.206923,-2.138984,-5.017949,0.970654,-0.235729,-0.007830,-0.046926
155,0.135250,-4.848814,8.377462,-4.390064,1.865392,0.438134,-27.338234,-2.088522,-5.044504,0.970385,-0.236826,-0.007294,-0.047056
156,0.178623,-4.851342,8.227868,-5.210781,1.715500,-0.153159,-27.497410,-2.033365,-5.067781,0.970059,-0.238156,-0.006713,-0.047150
157,0.131891,-4.681055,8.174686,-8.314792,2.481177,-0.292588,-27.721468,-1.974825,-5.106811,0.969589,-0.240035,-0.006043,-0.047371
158,0.066106,-4.668894,8.382536,-13.243629,3.143852,0.717985,-28.079504,-1.888656,-5.144438,0.968839,-0.243035,-0.005087,-0.047526
159,0.100204,-4.735596,8.505499,-15.723733,3.401668,0.273496,-28.561096,-1.784812,-5.181666,0.967818,-0.247070,-0.003929,-0.047639
160,0.162101,-4.805178,8.555468,-15.902961,3.361619,-0.635524,-29.086391,-1.688957,-5.241343,0.966672,-0.251472,-0.002771,-0.047951
161,0.135087,-4.855601,8.609200,-15.769816,3.104684,-0.906821,-29.612087,-1.607591,-5.316621,0.965495,-0.255877,-0.001697,-0.048416
162,0.096487,-4.881824,8.558794,-15.525036,2.671738,-0.679134,-30.131704,-1.537270,-5.387528,0.964310,-0.260227,-0.000724,-0.048861
163,0.073337,-4.958666,8.466489,-15.784471,1.910249,-0.167619,-30.652185,-1.478553,-5.438362,0.963109,-0.264583,0.000109,-0.049156
164,0.049389,-5.083281,8.385127,-17.434317,1.324413,0.809084,-31.205351,-1.426847,-5.456921,0.961824,-0.269210,0.000824,-0.049190
165,0.019212,-5.121037,8.292845,-19.496351,0.823391,1.759449,-31.821280,-1.374003,-5.439137,0.960382,-0.274356,0.001488,-0.048910
166,0.058115,-5.213260,8.346908,-20.724506,0.042059,2.831939,-32.492958,-1.321110,-5.382021,0.958793,-0.279963,0.002078,-0.048294
167,0.163092,-5.368738,8.394725,-19.637602,-1.381394,3.545019,-33.167938,-1.282307,-5.280598,0.957178,-0.285593,0.002434,-0.047337
168,0.246904,-5.457383,8.252090,-17.869711,-3.125738,2.799372,-33.795948,-1.286702,-5.150970,0.955650,-0.290839,0.002328,-0.046253
169,0.268838,-5.591625,8.267864,-17.161064,-4.313379,2.256826,-34.382992,-1.342182,-5.011744,0.954192,-0.295753,0.001743,-0.045224
170,0.245461,-5.834861,8.282226,-14.886304,-4.859604,2.617623,-34.920822,-1.421769,-4.858003,0.952836,-0.300256,0.000891,-0.044145
171,0.246132,-5.980885,8.082664,-10.820616,-4.755040,2.684188,-35.353451,-1.502003,-4.693487,0.951741,-0.303877,-0.000045,-0.042987
172,0.209833,-6.033783,7.920897,-8.340244,-3.621009,2.178062,-35.676743,-1.568605,-4.546399,0.950920,-0.306580,-0.000871,-0.041944
173,0.249089,-6.053118,7.961903,-6.075974,-2.278783,2.121850,-35.920208,-1.606440,-4.430710,0.950300,-0.308609,-0.001407,-0.041088
174,0.280040,-6.015730,7.914055,-2.603910,-1.551950,2.250485,-36.067585,-1.615273,-4.334179,0.949935,-0.309833,-0.001688,-0.040313
175,0.362319,-5.988416,7.866320,0.532630,-1.290225,1.999613,-36.104492,-1.611853,-4.248995,0.949865,-0.310136,-0.001877,-0.039598
177,0.360721,-5.948892,7.931752,2.264805,-0.772923,0.961285,-36.059563,-1.610598,-4.188837,0.950008,-0.309762,-0.002045,-0.039096
178,0.406081,-5.952034,8.042480,3.414945,-0.855472,-0.534269,-35.965519,-1.628379,-4.167113,0.950265,-0.308987,-0.002283,-0.038961
179,0.404364,-5.842354,8.054364,5.101379,-0.349132,-2.526821,-35.822731,-1.674564,-4.196680,0.950629,-0.307815,-0.002636,-0.039328
180,0.352032,-5.707497,8.077081,5.500210,0.676538,-3.858615,-35.643379,-1.732303,-4.286294,0.951066,-0.306345,-0.002937,-0.040221
181,0.249874,-5.498475,8.073414,6.228097,1.361469,-4.324052,-35.443909,-1.783964,-4.417070,0.951539,-0.304707,-0.003089,-0.041439
182,0.238795,-5.283261,8.073915,7.078752,1.316793,-4.044706,-35.217735,-1.828212,-4.556751,0.952077,-0.302844,-0.003169,-0.042709
183,0.111878,-5.183557,8.150671,6.914652,1.728588,-1.929651,-34.980961,-1.843926,-4.667461,0.952656,-0.300884,-0.003097,-0.043664
184,-0.002959,-5.297154,8.315989,5.605908,1.029296,2.326328,-34.771629,-1.802413,-4.688357,0.953206,-0.299131,-0.002777,-0.043725
185,0.061871,-5.319716,8.442661,6.284074,-0.725499,5.120430,-34.576538,-1.727583,-4.589153,0.953768,-0.297484,-0.002486,-0.042701
186,0.110018,-5.190531,8.529032,7.495774,-2.394305,7.231484,-34.352768,-1.653912,-4.389910,0.954437,-0.295595,-0.002469,-0.040847
187,0.076783,-5.249341,8.615930,4.500037,-4.707564,9.538590,-34.161293,-1.594383,-4.092142,0.955045,-0.293977,-0.002805,-0.038209
188,0.236645,-5.182768,8.578186,4.368893,-6.641107,10.590128,-34.024090,-1.562862,-3.708162,0.955525,-0.292814,-0.003569,-0.034924
189,0.408613,-4.894218,8.393975,5.173573,-7.716997,9.337447,-33.876289,-1.575860,-3.298854,0.956018,-0.291570,-0.004764,-0.031537
190,0.486976,-4.819314,8.423540,3.549053,-6.894650,7.666617,-33.741314,-1.620544,-2.927716,0.956450,-0.290434,-0.006115,-0.028547
191,0.503316,-4.926847,8.716787,6.279537,-2.846378,4.486382,-33.584885,-1.643371,-2.669029,0.956903,-0.289117,-0.006998,-0.026436
192,0.632700,-4.810619,8.622704,11.612973,2.067870,-1.014897,-33.288235,-1.622427,-2.613599,0.957665,-0.286632,-0.007030,-0.025902
193,0.550751,-4.751121,8.414536,11.521691,7.647388,-5.363495,-32.897739,-1.544996,-2.791153,0.958608,-0.283365,-0.006031,-0.027173
194,0.318749,-4.660021,8.496757,12.028070,13.125081,-8.172606,-32.495628,-1.375707,-3.168205,0.959532,-0.279984,-0.003787,-0.029896
195,0.099614,-4.632174,8.281354,11.687330,17.453716,-7.089187,-32.089947,-1.080926,-3.655681,0.960430,-0.276528,-0.000245,-0.033258
196,-0.053211,-4.702995,8.189455,7.640324,18.508066,-3.357364,-31.760876,-0.664362,-4.120569,0.961140,-0.273650,0.004264,-0.036164
197,-0.267294,-5.123818,8.210773,1.178818,18.052155,1.772585,-31.611599,-0.159819,-4.463294,0.961445,-0.272223,0.009265,-0.037847
198,-0.303290,-5.431373,8.215295,-1.953728,18.136562,4.800399,-31.625235,0.411099,-4.686464,0.961387,-0.272121,0.014590,-0.038362
199,-0.230752,-5.774467,8.064494,-5.341386,17.507927,4.922632,-31.749098,1.001665,-4.860763,0.961062,-0.272919,0.019999,-0.038398
200,-0.209221,-5.879509,8.079590,-7.053116,15.754254,2.208397,-31.959930,1.535202,-5.052578,0.960500,-0.274441,0.025000,-0.038686
201,-0.135594,-5.857167,7.739611,-7.933239,13.487455,-2.699787,-32.217670,1.943742,-5.318644,0.959782,-0.276368,0.029150,-0.039868
202,-0.158916,-5.622653,7.585241,-9.701322,11.969138,-8.166152,-32.525181,2.205152,-5.699108,0.958892,-0.278724,0.032369,-0.042334
203,-0.206335,-5.458284,7.604001,-11.249276,10.411056,-12.265267,-32.893513,2.335022,-6.187688,0.957798,-0.281598,0.034791,-0.045992
204,-0.233315,-5.467800,7.733676,-10.579967,9.294536,-14.357279,-33.279808,2.367977,-6.739287,0.956611,-0.284636,0.036591,-0.050397
205,-0.273055,-5.602726,7.686033,-8.361089,8.729411,-17.003281,-33.620083,2.330575,-7.341512,0.955484,-0.287300,0.037939,-0.055405
206,-0.321980,-5.675951,7.649889,-5.432990,8.391153,-18.829185,-33.876019,2.236202,-7.997149,0.954507,-0.289271,0.038933,-0.061023
207,-0.219770,-5.691728,7.728539,-2.018167,7.815396,-18.948736,-34.025684,2.108790,-8.670790,0.953749,-0.290369,0.039660,-0.066906
208,-0.265225,-5.810704,7.849820,1.297763,7.569688,-17.526829,-34.060776,1.981102,-9.318500,0.953259,-0.290525,0.040262,-0.072610
209,-0.240819,-5.903678,7.733472,4.743180,7.012223,-16.020693,-33.980259,1.869869,-9.918245,0.953061,-0.289725,0.040803,-0.077911
210,-0.186759,-5.902425,7.647086,6.832600,6.772348,-14.470423,-33.804844,1.777356,-10.468486,0.953108,-0.288142,0.041298,-0.082786
211,-0.251534,-5.932528,7.680444,7.454436,6.974154,-13.141321,-33.582283,1.712789,-10.978720,0.953280,-0.286158,0.041875,-0.087274
212,-0.350598,-5.985238,7.788065,7.339700,6.949337,-10.588690,-33.349346,1.688322,-11.436826,0.953500,-0.284072,0.042630,-0.091233
213,-0.239131,-6.015828,7.751719,6.833341,5.873687,-8.553512,-33.124504,1.692247,-11.820994,0.953745,-0.282053,0.043430,-0.094505
214,-0.227631,-6.048083,7.801770,5.768915,4.228884,-7.023975,-32.923622,1.691954,-12.130572,0.953979,-0.280263,0.044019,-0.097159
215,-0.261987,-5.924724,7.930279,3.436735,2.341791,-4.854990,-32.776821,1.676568,-12.356386,0.954141,-0.278968,0.044316,-0.099133
216,-0.183785,-5.792121,7.990073,3.657310,0.096239,-1.949595,-32.661980,1.649446,-12.473805,0.954314,-0.277992,0.044276,-0.100222
217,-0.107670,-5.687628,7.979160,3.843632,-1.729851,0.276937,-32.537205,1.611523,-12.482622,0.954603,-0.276985,0.043872,-0.100437
218,-0.150275,-5.573109,8.046686,4.995088,-3.083328,3.403578,-32.387249,1.576789,-12.387770,0.955042,-0.275804,0.043223,-0.099788
219,-0.215950,-5.316479,8.128765,7.323726,-4.247721,6.514150,-32.176311,1.561801,-12.182702,0.955724,-0.274136,0.042424,-0.098193
220,-0.191949,-5.292795,8.256637,8.925687,-5.366371,9.191920,-31.897099,1.564840,-11.875701,0.956649,-0.271916,0.041482,-0.095726
221,-0.084282,-5.275496,8.357362,11.008898,-6.741327,9.601260,-31.554693,1.557928,-11.503047,0.957763,-0.269195,0.040263,-0.092752
222,-0.192770,-5.109137,8.446105,13.434137,-6.481975,8.367609,-31.137371,1.525469,-11.132483,0.959029,-0.265860,0.038794,-0.089873
223,-0.171217,-5.039997,8.455132,14.459824,-5.268326,6.042381,-30.664446,1.480668,-10.825729,0.960351,-0.262039,0.037346,-0.087566
224,-0.148138,-5.106743,8.500774,13.566923,-3.559322,3.495824,-30.191971,1.434207,-10.614078,0.961578,-0.258182,0.036118,-0.086049
225,-0.115798,-5.014862,8.469936,12.698325,-2.043608,0.744379,-29.751577,1.388529,-10.506184,0.962640,-0.254555,0.035164,-0.085383
226,-0.209322,-4.904554,8.608006,11.893339,-0.251199,-0.902629,-29.341333,1.353862,-10.489608,0.963554,-0.251140,0.034531,-0.085445
227,-0.143069,-4.924897,8.562862,10.747338,-0.207499,-1.978689,-28.964895,1.323725,-10.527853,0.964342,-0.247986,0.034079,-0.085946
228,-0.174104,-4.796487,8.688768,10.526947,0.071035,-2.754768,-28.611874,1.283710,-10.595899,0.965046,-0.245026,0.033623,-0.086710
229,-0.334995,-4.709833,8.705409,10.070664,0.615240,-1.652468,-28.270142,1.258763,-10.665948,0.965716,-0.242147,0.033302,-0.087453
230,-0.230825,-4.758884,8.763328,8.341102,-1.682211,-0.614777,-27.963827,1.225286,-10.690926,0.966338,-0.239584,0.032838,-0.087823
231,-0.352243,-4.931977,8.774302,6.156323,-3.591392,1.598439,-27.721043,1.155266,-10.635328,0.966878,-0.237609,0.031946,-0.087570
232,-0.345986,-5.052362,8.919298,4.770489,-7.676932,4.172662,-27.535629,1.033539,-10.462966,0.967379,-0.236188,0.030422,-0.086419
233,-0.320537,-4.918339,8.824612,5.501935,-12.341442,5.572674,-27.359615,0.812397,-10.164960,0.967937,-0.234950,0.027812,-0.084404
234,-0.051962,-4.946215,8.780385,7.087158,-15.840517,3.896353,-27.145853,0.467135,-9.809532,0.968586,-0.233483,0.024013,-0.082158
235,-0.202400,-4.834766,8.599654,9.495296,-15.809604,2.611325,-26.868071,0.046379,-9.473345,0.969324,-0.231500,0.019577,-0.080223
236,-0.162698,-4.543441,8.492689,12.052448,-14.621643,0.582756,-26.509808,-0.382930,-9.198053,0.970159,-0.228805,0.015142,-0.078809
237,-0.032831,-4.421779,8.307501,11.626272,-10.417413,-1.618848,-26.116940,-0.764760,-9.028626,0.970978,-0.225751,0.011302,-0.078174
238,0.090636,-4.694695,8.522583,7.588465,-6.200889,-2.032639,-25.797825,-1.040527,-8.962179,0.971587,-0.223232,0.008616,-0.078176
239,-0.071987,-4.319359,8.619617,5.440937,-1.836591,-0.084270,-25.581203,-1.176568,-8.935901,0.971994,-0.221484,0.007263,-0.078231
240,-0.220375,-4.210090,9.097354,4.318645,-0.219149,3.022598,-25.419752,-1.186407,-8.876990,0.972343,-0.220124,0.006957,-0.077760
241,-0.016905,-4.109671,9.155399,6.210592,0.092903,8.291583,-25.247683,-1.107592,-8.705654,0.972806,-0.218625,0.007182,-0.076166
242,0.106348,-3.982381,9.315920,8.921361,-2.597750,11.253944,-25.001245,-1.007042,-8.392960,0.973499,-0.216489,0.007282,-0.073336
243,-0.011152,-3.687021,9.233809,14.950180,-4.466453,12.333963,-24.610388,-0.948973,-7.986613,0.974498,-0.213158,0.006770,-0.069798
244,0.306228,-3.752409,9.234658,19.293524,-6.650942,13.323832,-24.047403,-0.941764,-7.520515,0.975811,-0.208388,0.005641,-0.065849
245,0.696095,-3.741574,8.999376,21.743437,-8.791336,11.951877,-23.371870,-1.008092,-7.031213,0.977283,-0.202686,0.003821,-0.061826
246,0.598329,-3.785591,8.929019,21.221817,-8.484022,8.317776,-22.663858,-1.141095,-6.607543,0.978715,-0.196719,0.001576,-0.058457
247,0.677380,-3.776604,8.933204,19.268177,-7.435467,6.200859,-21.996027,-1.294743,-6.282787,0.979978,-0.191084,-0.000621,-0.055943
248,0.504984,-3.848349,8.998086,15.402962,-4.745165,6.131656,-21.424500,-1.407386,-6.016655,0.981025,-0.186240,-0.002297,-0.053842
249,0.389246,-3.805725,9.019144,10.363104,-4.207642,4.408725,-21.000525,-1.482892,-5.798904,0.981794,-0.182635,-0.003490,-0.052087
250,0.376855,-3.767727,9.180304,7.206472,-4.118930,2.189239,-20.711779,-1.573400,-5.646654,0.982302,-0.180192,-0.004636,-0.050915
251,0.237161,-3.561191,9.342375,6.684578,-4.039757,-0.169709,-20.482544,-1.688854,-5.567242,0.982673,-0.178269,-0.005852,-0.050402
252,-0.005984,-3.484694,9.447442,6.642486,-2.482599,-1.029998,-20.261034,-1.797756,-5.548119,0.983002,-0.176411,-0.006913,-0.050393
253,0.113830,-3.176823,9.594345,8.173862,-1.176629,-0.792317,-20.013863,-1.865492,-5.555660,0.983362,-0.174317,-0.007592,-0.050545
254,0.159690,-3.077787,9.686167,10.450060,-0.872945,1.256020,-19.704088,-1.894998,-5.536809,0.983832,-0.171668,-0.008010,-0.050406
255,-0.114549,-2.983377,9.588786,12.733825,-0.246437,1.394342,-19.319271,-1.897791,-5.488942,0.984423,-0.168361,-0.008274,-0.049972
256,0.325705,-2.899354,9.464749,14.827450,-0.490619,3.050408,-18.862364,-1.885181,-5.414899,0.985121,-0.164424,-0.008471,-0.049284
257,0.467551,-2.837323,9.476698,13.993122,-1.745829,3.737361,-18.385944,-1.884330,-5.295735,0.985847,-0.160318,-0.008835,-0.048222
258,0.384139,-2.982945,9.399848,11.081708,-3.262699,3.458341,-17.972712,-1.926179,-5.155643,0.986469,-0.156766,-0.009561,-0.047041
259,0.494730,-3.065663,9.384454,7.966863,-3.475886,2.518740,-17.659689,-2.002586,-5.026309,0.986930,-0.154087,-0.010521,-0.046002
260,0.728194,-3.113394,9.410492,4.864516,-2.324131,2.084380,-17.449482,-2.071601,-4.923914,0.987237,-0.152290,-0.011337,-0.045192
261,0.343303,-3.197056,9.433105,0.555883,-0.003312,0.921967,-17.361300,-2.093616,-4.864459,0.987372,-0.151532,-0.011640,-0.044699
262,0.453347,-3.264508,9.202329,-3.356766,0.700974,-0.211801,-17.408262,-2.078977,-4.856639,0.987317,-0.151931,-0.011506,-0.044618
263,0.391137,-3.338176,9.037127,-7.188176,2.500697,-2.399617,-17.581938,-2.041161,-4.914230,0.987071,-0.153420,-0.011035,-0.045081
264,0.079231,-3.324117,8.817664,-12.553692,3.178892,-5.022288,-17.905806,-1.988686,-5.060980,0.986585,-0.156204,-0.010256,-0.046305
265,-0.078653,-3.181409,8.819890,-16.830315,3.288938,-3.736655,-18.389626,-1.931714,-5.233398,0.985858,-0.160362,-0.009329,-0.047752
266,-0.024593,-3.233374,8.897993,-19.918451,2.285462,-1.680616,-18.998270,-1.872745,-5.348759,0.984957,-0.165583,-0.008401,-0.048708
267,-0.251574,-3.132398,9.082226,-20.591135,1.500097,-0.409896,-19.671679,-1.824876,-5.402575,0.983953,-0.171354,-0.007623,-0.049148
268,-0.043543,-3.053389,9.229695,-18.525389,-0.075228,3.210480,-20.324726,-1.786673,-5.366834,0.982984,-0.176942,-0.007070,-0.048825
269,0.055611,-2.835585,9.401859,-14.668202,-1.209362,6.537413,-20.882875,-1.749735,-5.207160,0.982185,-0.181704,-0.006769,-0.047432
270,0.073400,-2.943462,9.387491,-11.350127,-1.838043,8.113180,-21.323944,-1.709389,-4.960950,0.981586,-0.185455,-0.006639,-0.045284
271,0.243609,-2.889956,9.215123,-7.501102,-3.271556,8.456409,-21.646673,-1.687598,-4.672658,0.981175,-0.188195,-0.006798,-0.042799
272,0.357296,-2.849283,9.025854,-4.076319,-4.442739,7.891315,-21.848562,-1.706166,-4.371843,0.980948,-0.189910,-0.007381,-0.040266
273,0.531395,-2.907261,9.029991,-1.434959,-4.673435,6.118259,-21.948713,-1.760128,-4.098431,0.980864,-0.190765,-0.008262,-0.038022
274,0.509718,-3.215371,9.167809,2.200760,-3.615806,3.567472,-21.942286,-1.827983,-3.896987,0.980928,-0.190713,-0.009181,-0.036409
275,0.532394,-3.144840,9.257589,5.578542,-2.673229,0.855154,-21.816135,-1.897838,-3.789487,0.981157,-0.189642,-0.009997,-0.035594
276,0.445017,-3.337051,9.270913,6.050370,-1.221429,-1.056997,-21.623043,-1.959439,-3.768596,0.981470,-0.188002,-0.010619,-0.035498
277,0.294445,-3.612224,9.377756,5.197242,0.168407,-0.728089,-21.434860,-1.986716,-3.789855,0.981765,-0.186399,-0.010876,-0.035707
278,0.132327,-3.604936,9.331177,6.428840,0.900485,-1.653195,-21.239586,-1.984567,-3.833347,0.982068,-0.184729,-0.010849,-0.036058
280,0.224378,-3.664917,9.170548,5.239472,-0.379257,-1.193477,-21.043467,-1.993588,-3.880765,0.982366,-0.183055,-0.010912,-0.036460
281,0.308059,-3.816556,9.006730,3.662877,-0.967724,-1.659215,-20.893816,-2.031557,-3.917135,0.982585,-0.181786,-0.011228,-0.036818
282,0.369478,-3.760382,9.151955,4.730265,-0.022448,-2.478710,-20.751831,-2.071504,-3.975754,0.982782,-0.180585,-0.011524,-0.037369
283,0.387720,-3.604113,9.198074,5.959136,0.945536,-4.559734,-20.569485,-2.098505,-4.091031,0.983024,-0.179040,-0.011635,-0.038381
284,0.410486,-3.535187,9.240381,6.264262,1.384835,-5.599001,-20.359421,-2.121332,-4.263357,0.983287,-0.177261,-0.011634,-0.039874
285,0.296082,-3.446600,9.256778,6.882413,2.257997,-7.061676,-20.132174,-2.137402,-4.482493,0.983555,-0.175338,-0.011516,-0.041756
286,0.221818,-3.310258,9.217876,6.954699,2.636858,-7.388731,-19.892065,-2.143184,-4.736891,0.983824,-0.173304,-0.011268,-0.043925
287,0.139819,-3.259443,9.320745,5.676783,2.240647,-6.236471,-19.672518,-2.143552,-4.978260,0.984059,-0.171442,-0.010995,-0.045976
288,0.140272,-3.138344,9.294684,6.148628,2.405872,-5.324635,-19.467678,-2.135129,-5.185897,0.984281,-0.169700,-0.010697,-0.047728
289,0.256422,-3.168099,9.248419,4.469355,1.831849,-3.804949,-19.284515,-2.118964,-5.352991,0.984484,-0.168136,-0.010389,-0.049123
290,0.268981,-2.997462,9.368872,4.266912,1.622559,-1.841068,-19.134949,-2.095557,-5.460869,0.984662,-0.166852,-0.010095,-0.050002
291,0.376793,-3.043290,9.394673,3.719344,0.392847,0.241382,-19.000532,-2.072501,-5.497069,0.984846,-0.165691,-0.009903,-0.050269
292,0.402575,-2.944679,9.243681,2.388349,0.112010,0.751566,-18.899210,-2.059148,-5.484138,0.985001,-0.164814,-0.009851,-0.050130
293,0.424355,-2.981698,9.266456,0.002560,0.497953,1.388018,-18.860449,-2.037984,-5.453667,0.985074,-0.164470,-0.009730,-0.049834
294,0.277179,-2.778010,9.204505,1.062423,1.316736,2.484425,-18.844501,-1.988500,-5.402335,0.985130,-0.164309,-0.009385,-0.049322
295,0.254843,-3.014915,9.121386,-1.246892,1.450551,2.199550,-18.849588,-1.919635,-5.343318,0.985163,-0.164322,-0.008875,-0.048717
296,0.210401,-2.931916,9.078330,-1.977603,1.438738,2.355708,-18.905178,-1.849497,-5.287041,0.985122,-0.164770,-0.008329,-0.048137
297,0.313513,-2.929615,9.194071,-1.633985,1.325014,6.235119,-18.969170,-1.759459,-5.166503,0.985098,-0.165278,-0.007702,-0.046977
298,0.187390,-3.087525,9.208900,-2.817925,1.356123,7.767573,-19.049501,-1.641213,-4.960310,0.985087,-0.165913,-0.006951,-0.045040
299,0.348718,-3.286906,9.214823,-5.866158,0.268482,7.691787,-19.200733,-1.531205,-4.725665,0.984977,-0.167162,-0.006288,-0.042873
300,0.463560,-3.009054,9.122869,-7.022701,-0.213693,8.227369,-19.422056,-1.442553,-4.475529,0.984758,-0.169022,-0.005813,-0.040606
301,0.410892,-3.285299,9.241735,-13.022157,-0.241107,8.435401,-19.762594,-1.356561,-4.211290,0.984357,-0.171908,-0.005350,-0.038225
302,0.482860,-3.407880,9.003527,-15.947487,-0.767975,3.276401,-20.249811,-1.305474,-4.022109,0.983686,-0.176069,-0.005039,-0.036545
303,0.562384,-3.194886,8.700565,-19.250877,-0.096261,2.617532,-20.838640,-1.284287,-3.925140,0.982803,-0.181111,-0.004823,-0.035705
304,0.587643,-3.340680,8.499763,-25.829613,-0.996228,1.280505,-21.591452,-1.277692,-3.857962,0.981613,-0.187559,-0.004642,-0.035150
305,0.697178,-3.818884,8.095448,-33.486088,-1.131026,-2.213192,-22.579971,-1.316306,-3.859113,0.979953,-0.196030,-0.004667,-0.035265
306,0.699554,-3.733562,7.516157,-37.043232,-0.510392,-3.290020,-23.753628,-1.377307,-3.932774,0.977861,-0.206076,-0.004693,-0.036048
307,0.468382,-3.863981,7.386703,-44.877609,1.475065,-3.648961,-25.116083,-1.410416,-4.044708,0.975300,-0.217701,-0.004334,-0.037117
308,0.609590,-4.326379,7.246222,-52.123127,0.092539,-4.472568,-26.729179,-1.446029,-4.177699,0.972089,-0.231422,-0.003844,-0.038374
309,0.520547,-4.458466,7.240818,-54.925285,1.775673,-6.385481,-28.508377,-1.502376,-4.352660,0.968308,-0.246508,-0.003348,-0.040028
310,0.372239,-4.662775,7.593122,-53.605152,2.448139,-2.076169,-30.312616,-1.510013,-4.510003,0.964249,-0.261728,-0.002422,-0.041418
311,0.294727,-4.851672,7.976077,-50.281361,2.237970,-4.365809,-32.040161,-1.499200,-4.641936,0.960148,-0.276233,-0.001389,-0.042529
312,0.219923,-5.358323,8.076280,-44.593037,0.896734,-1.673259,-33.618046,-1.509599,-4.755016,0.956209,-0.289432,-0.000604,-0.043514
313,0.297555,-5.195580,8.086587,-36.029087,0.727377,-2.872515,-34.959427,-1.530211,-4.832833,0.952721,-0.300611,-0.000062,-0.044219
314,0.204110,-5.573802,7.993590,-30.282555,0.470650,0.302633,-36.063236,-1.538701,-4.879399,0.949761,-0.309777,0.000419,-0.044626
315,0.031683,-5.491923,7.940262,-27.215298,1.087221,-1.921832,-37.020454,-1.534107,-4.916420,0.947127,-0.317698,0.000932,-0.044914
316,0.166566,-5.962785,7.686775,-26.606436,1.055291,1.200685,-37.916576,-1.512920,-4.947747,0.944606,-0.325088,0.001547,-0.045104
317,0.295277,-5.730087,7.455155,-24.000214,1.858806,-0.909082,-38.759296,-1.471974,-4.973945,0.942189,-0.332012,0.002292,-0.045189
318,0.033964,-6.210689,7.630480,-25.584192,3.167414,0.731412,-39.584259,-1.408767,-5.029203,0.939768,-0.338765,0.003299,-0.045438
319,0.247535,-6.257536,7.552764,-23.976269,2.570894,-0.466525,-40.408836,-1.332699,-5.087189,0.937300,-0.345491,0.004423,-0.045658
320,-0.033829,-6.336609,7.599539,-23.333355,3.300428,-0.347829,-41.195595,-1.267460,-5.161486,0.934891,-0.351894,0.005497,-0.046033
321,0.201386,-6.326081,7.698376,-22.066059,2.930311,-2.072438,-41.950073,-1.216517,-5.260551,0.932526,-0.358019,0.006524,-0.046644
322,0.168442,-6.785310,7.774766,-22.704367,1.898958,-2.302061,-42.693909,-1.206030,-5.368743,0.930140,-0.364054,0.007256,-0.047445
323,0.107322,-6.838277,7.536753,-21.212439,2.011673,-3.783504,-43.423294,-1.227689,-5.487421,0.927749,-0.369967,0.007765,-0.048429
324,-0.289615,-6.915380,7.531297,-21.911976,3.770393,-4.347371,-44.138428,-1.251800,-5.652020,0.925346,-0.375746,0.008412,-0.049787
325,0.336988,-7.187273,7.444970,-22.289822,3.339624,-4.746621,-44.870895,-1.273452,-5.843172,0.922836,-0.381646,0.009193,-0.051344
326,-0.036754,-7.500357,7.211893,-23.255314,4.389166,-4.755183,-45.625381,-1.295231,-6.046215,0.920205,-0.387705,0.010042,-0.052986
327,-0.072090,-7.575283,7.584019,-21.636662,5.933137,-4.338481,-46.368408,-1.284708,-6.275256,0.917567,-0.393638,0.011257,-0.054718
328,0.292029,-7.592843,7.674175,-18.803291,5.230607,-4.401535,-47.037159,-1.263055,-6.510538,0.915146,-0.398952,0.012568,-0.056456
329,0.277144,-7.858787,7.815151,-15.750542,5.055118,-4.333909,-47.608093,-1.253859,-6.735328,0.913037,-0.403477,0.013714,-0.058151
330,0.097312,-7.967737,7.584875,-10.909916,4.849819,-2.742340,-48.048046,-1.230395,-6.936896,0.911385,-0.406944,0.014840,-0.059618
331,0.077306,-7.723000,7.858325,-6.667202,4.522382,-1.103582,-48.337681,-1.174014,-7.096052,0.910287,-0.409199,0.016007,-0.060644
332,0.113583,-7.650894,7.259918,-2.891093,2.850180,0.791004,-48.495113,-1.096336,-7.191399,0.909697,-0.410400,0.017049,-0.061102
333,0.008915,-7.682515,7.352687,-2.096394,1.644379,2.271096,-48.577839,-1.008494,-7.213720,0.909414,-0.411012,0.017871,-0.060952
334,0.149715,-7.673589,7.142655,-0.127383,0.016248,4.003501,-48.615723,-0.911759,-7.165303,0.909332,-0.411275,0.018485,-0.060216
335,0.255863,-7.574450,7.149652,0.632442,-1.496806,3.563120,-48.608871,-0.833473,-7.063385,0.909432,-0.411201,0.018737,-0.059127
336,0.294721,-8.045102,7.007334,-0.899968,-1.060180,3.772858,-48.614925,-0.769924,-6.950559,0.909486,-0.411238,0.018840,-0.058003
337,0.321726,-8.110942,7.190659,-7.227368,0.370035,2.580475,-48.751373,-0.697975,-6.872010,0.909054,-0.412301,0.019197,-0.057099
338,0.412018,-8.242868,7.995633,-16.254305,0.868913,1.534864,-49.143066,-0.632637,-6.842567,0.907671,-0.415381,0.019803,-0.056564
339,0.664139,-8.577895,8.484444,-28.484640,1.272802,0.013694,-49.888588,-0.589784,-6.853017,0.904956,-0.421256,0.020548,-0.056359
340,0.419153,-9.082552,9.228412,-37.994194,3.438466,0.299913,-50.995918,-0.535693,-6.910312,0.900829,-0.429946,0.021732,-0.056405
341,0.424767,-9.015204,9.494907,-41.728558,4.145633,0.080706,-52.323654,-0.452237,-7.005420,0.895762,-0.440297,0.023402,-0.056573
342,0.308023,-9.708153,9.090119,-42.579166,4.338187,2.451918,-53.727974,-0.333450,-7.092980,0.890288,-0.451167,0.025361,-0.056495
343,0.039313,-10.040517,8.047048,-34.313202,6.370314,9.066480,-55.009205,-0.073616,-7.125994,0.885241,-0.460963,0.028132,-0.055418
344,-0.121012,-9.756383,7.585809,-18.730478,8.807104,14.634221,-55.893162,0.394961,-7.109555,0.881780,-0.467555,0.032096,-0.053160
345,-0.240158,-9.711334,6.379241,-5.302901,7.780860,17.505548,-56.292885,0.993639,-7.039273,0.880300,-0.470350,0.036590,-0.050046
346,-0.643904,-9.445653,5.924955,11.052979,5.132981,21.543776,-56.192902,1.654168,-6.855891,0.880892,-0.469304,0.040868,-0.045955
347,-0.272657,-8.837141,5.901954,38.305664,3.097903,19.892532,-55.360950,2.302114,-6.579997,0.884450,-0.462660,0.044414,-0.041495
348,-0.111825,-8.438053,5.136341,55.423771,4.064540,14.095239,-53.788681,2.832273,-6.347316,0.890821,-0.450295,0.047042,-0.038197
349,-0.632000,-7.745835,4.903685,65.278709,-0.065800,13.142846,-51.765629,3.233136,-6.124427,0.898704,-0.434379,0.048655,-0.035745
350,-0.442163,-6.565744,4.965712,79.850601,-2.352040,9.172319,-49.332138,3.494781,-5.855890,0.907797,-0.415175,0.048982,-0.033689
351,0.289297,-6.040823,5.189603,83.003746,-1.500240,1.324730,-46.609215,3.581210,-5.689815,0.917448,-0.393514,0.048288,-0.033214
352,-0.111850,-5.494884,4.797371,66.018532,0.284476,2.433464,-44.123287,3.610273,-5.630315,0.925784,-0.373531,0.047597,-0.033678
353,-0.437998,-4.678467,5.330846,55.738567,-2.185152,-0.144133,-42.091789,3.613203,-5.581158,0.932274,-0.357079,0.046863,-0.034107
354,-0.064304,-4.193166,5.052712,50.852684,-2.890101,-6.053525,-40.317154,3.481551,-5.602666,0.937700,-0.342655,0.045317,-0.035402
355,-0.167995,-4.215932,5.178014,41.495705,-2.784913,-6.247027,-38.784153,3.277591,-5.700054,0.942189,-0.330143,0.043445,-0.037398
356,-0.177510,-4.051920,4.819929,33.964493,-3.823677,-6.227873,-37.531986,3.062470,-5.795479,0.945727,-0.319899,0.041526,-0.039263
357,-0.095543,-3.816833,6.181219,40.932079,-6.394802,-9.036543,-36.288994,2.773553,-5.896541,0.949126,-0.309728,0.038980,-0.041336
358,-0.077720,-4.398968,6.453790,40.312580,-5.458241,-11.235375,-34.942326,2.416245,-6.056107,0.952659,-0.298678,0.035939,-0.044056
359,0.110777,-4.639354,7.562174,37.074806,-3.987748,-12.069188,-33.661877,2.067126,-6.288315,0.955853,-0.288119,0.033118,-0.047275
360,-0.166420,-4.751186,8.147385,32.006523,-1.731822,-11.901465,-32.520195,1.768990,-6.571089,0.958556,-0.278655,0.030840,-0.050698
361,-0.369445,-4.718549,8.802773,26.490166,-2.017664,-7.322373,-31.552324,1.545891,-6.809675,0.960763,-0.270604,0.029105,-0.053487
362,-0.527207,-4.956332,8.308575,14.863275,-0.131932,-4.305258,-30.866928,1.415034,-6.956960,0.962290,-0.264886,0.028026,-0.055201
363,-0.270043,-4.607100,8.757080,12.299986,-2.658675,1.972070,-30.414478,1.355157,-6.966763,0.963322,-0.261115,0.027327,-0.055531
364,-0.448152,-4.826420,8.617590,8.214820,-2.373115,4.827708,-30.069250,1.340005,-6.826603,0.964171,-0.258252,0.026716,-0.054468
365,-0.180825,-4.985870,8.043557,8.725497,-4.154928,5.695593,-29.782084,1.333307,-6.620304,0.964911,-0.255886,0.026063,-0.052813
366,-0.278860,-4.910707,7.957853,8.807801,-4.033162,3.236090,-29.485376,1.288320,-6.423364,0.965659,-0.253454,0.025112,-0.051321
367,-0.207531,-4.824193,8.442282,9.365004,-4.813623,1.523915,-29.179451,1.198593,-6.281916,0.966392,-0.250949,0.023908,-0.050392
368,-0.257567,-4.805932,8.444464,10.017714,-3.741184,0.333981,-28.854509,1.088901,-6.185629,0.967138,-0.248280,0.022631,-0.049886
369,-0.393157,-4.809324,8.192692,8.206534,-2.907139,0.133546,-28.549696,0.995413,-6.125585,0.967818,-0.245762,0.021580,-0.049640
370,-0.112921,-4.670274,8.797434,0.955535,-3.626659,-0.398204,-28.396198,0.897581,-6.077541,0.968162,-0.244520,0.020585,-0.049472
371,-0.312155,-4.960717,8.748465,-2.012708,-1.818609,1.210752,-28.412996,0.824219,-6.022390,0.968147,-0.244706,0.019855,-0.049160
372,-0.173009,-4.737023,8.363294,-4.422842,-1.577420,1.040645,-28.519392,0.792357,-5.962401,0.967943,-0.245630,0.019503,-0.048704
373,-0.261040,-4.813820,8.136415,-9.439209,-2.281244,2.333109,-28.749336,0.762871,-5.882216,0.967480,-0.247598,0.019178,-0.048051
374,-0.156741,-4.435273,7.874489,-13.977182,-4.011759,3.117089,-29.137924,0.715053,-5.751947,0.966687,-0.250920,0.018653,-0.046992
375,0.093750,-4.515830,7.429747,-17.116070,-5.262774,3.107503,-29.654184,0.631302,-5.585696,0.965608,-0.255336,0.017788,-0.045694
376,0.414847,-3.958585,6.539664,-20.248756,-5.141765,-0.558658,-30.275707,0.502310,-5.462303,0.964249,-0.260642,0.016670,-0.044852
377,0.198611,-4.477290,6.684686,-26.853977,-4.060103,0.752881,-31.060150,0.372227,-5.381346,0.962464,-0.267301,0.015695,-0.044361
378,0.421374,-4.178470,6.279167,-27.182871,-2.234571,-3.428519,-31.960602,0.259494,-5.364379,0.960330,-0.274903,0.015058,-0.044365
379,0.652503,-4.796690,6.567380,-35.041729,0.030785,-7.702608,-32.998104,0.129194,-5.501191,0.957735,-0.283620,0.014708,-0.045693
380,0.330424,-5.279397,7.315802,-41.663887,2.846734,-9.431540,-34.276760,0.011238,-5.765438,0.954388,-0.294303,0.014914,-0.048030
381,-0.241109,-5.865431,8.150798,-42.505733,3.122671,-7.961265,-35.679264,-0.073248,-6.059757,0.950576,-0.305958,0.015585,-0.050511
383,0.386158,-5.453703,7.909851,-37.312962,3.711311,-11.771349,-37.008652,-0.176511,-6.391984,0.946796,-0.316964,0.016236,-0.053357
384,-0.212452,-5.988298,7.889873,-40.695759,5.028330,-10.110641,-38.307068,-0.283535,-6.769855,0.942944,-0.327665,0.017039,-0.056586
385,-0.275108,-5.803597,7.641637,-35.892620,3.783445,-7.493937,-39.581615,-0.353864,-7.090096,0.939066,-0.338117,0.018036,-0.059224
386,-0.148656,-5.769969,6.917706,-30.980675,2.854426,-5.622542,-40.694435,-0.410348,-7.328465,0.935600,-0.347210,0.018871,-0.061164
387,0.145655,-5.747304,6.620411,-30.139902,1.571769,-3.968043,-41.711735,-0.460211,-7.497285,0.932379,-0.355499,0.019531,-0.062522
388,-0.487856,-6.347878,6.343766,-33.755550,-0.450730,1.522565,-42.776203,-0.473923,-7.540004,0.929009,-0.364144,0.020136,-0.062728
389,0.392941,-6.594324,6.543365,-32.738438,-4.926203,4.038817,-43.885406,-0.475933,-7.410914,0.925511,-0.373144,0.020305,-0.061494
390,0.333681,-6.695065,6.579398,-30.478184,-4.561417,6.103366,-44.940834,-0.470994,-7.179638,0.922158,-0.381691,0.020140,-0.059427
391,0.078996,-6.913414,6.573720,-31.505663,-4.870420,8.859143,-45.975971,-0.403653,-6.892565,0.918834,-0.390024,0.020239,-0.056712
392,0.360522,-7.101920,6.929688,-30.829550,-6.321548,9.555214,-47.016926,-0.309601,-6.545896,0.915441,-0.398374,0.020300,-0.053430
393,0.463691,-7.079944,6.944765,-29.139696,-7.188310,10.107302,-48.018131,-0.220132,-6.158586,0.912119,-0.406387,0.020104,-0.049851
394,0.000335,-7.350168,7.117139,-26.873941,-5.822173,10.430968,-48.952724,-0.107675,-5.769372,0.908959,-0.413836,0.019997,-0.046192
395,-0.218218,-7.694952,7.021793,-23.980421,-6.280816,12.192613,-49.800411,0.047159,-5.370708,0.906055,-0.420559,0.020099,-0.042323
396,-0.275403,-7.901659,7.144752,-20.480263,-6.054639,11.628020,-50.540401,0.220176,-4.958467,0.903492,-0.426412,0.020202,-0.038298
397,-0.353503,-8.313520,6.974628,-16.683952,-5.147100,11.574726,-51.157661,0.402106,-4.569520,0.901330,-0.431280,0.020375,-0.034445
398,-0.354197,-8.973136,7.252345,-10.814013,-4.134182,9.044868,-51.613052,0.574011,-4.234108,0.899724,-0.434864,0.020588,-0.031077
399,-0.267442,-8.863423,6.837207,-2.634573,-3.559877,6.413690,-51.834309,0.696767,-3.973803,0.898962,-0.436611,0.020619,-0.028528
400,-0.100089,-9.146564,6.865366,-1.208215,-2.104191,2.400660,-51.896286,0.753902,-3.808778,0.898770,-0.437110,0.020453,-0.027004
401,-0.254755,-9.028872,6.808782,3.097971,0.323230,-1.069310,-51.864307,0.753036,-3.771730,0.898901,-0.436866,0.020297,-0.026722
402,0.107995,-9.004084,6.680705,4.205327,2.738803,-7.353098,-51.744164,0.674252,-3.898644,0.899322,-0.435923,0.020134,-0.028040
403,-0.099410,-8.506362,6.557086,3.483479,7.330603,-10.585649,-51.619400,0.543694,-4.215683,0.899702,-0.434927,0.020282,-0.031047
404,0.094469,-8.428869,7.030865,0.405826,9.631248,-11.715024,-51.558472,0.428029,-4.668127,0.899789,-0.434404,0.021072,-0.035049
405,0.081606,-8.474467,6.985428,1.525943,9.799456,-10.456664,-51.529549,0.339948,-5.151517,0.899730,-0.434116,0.022203,-0.039184
406,0.123930,-8.483653,7.190349,2.687380,9.075431,-9.139166,-51.461796,0.280259,-5.601034,0.899816,-0.433517,0.023412,-0.042953
407,-0.058614,-8.630222,7.301856,0.634252,6.527685,-4.191153,-51.408089,0.268704,-5.942879,0.899885,-0.433029,0.024593,-0.045693
408,0.476167,-8.504910,8.027654,-5.916989,2.323037,-3.874362,-51.497093,0.255465,-6.142023,0.899465,-0.433690,0.025279,-0.047287
409,0.123903,-8.955919,8.375628,-14.155363,0.559134,-5.051216,-51.832077,0.168457,-6.271981,0.898123,-0.436326,0.025230,-0.048563
410,0.275665,-8.653096,9.120572,-18.147190,0.485272,-6.953040,-52.370651,0.021183,-6.408607,0.895973,-0.440577,0.024831,-0.050078
411,0.533568,-8.820324,9.353271,-15.393774,1.854758,-4.745680,-52.929535,-0.110145,-6.557913,0.893718,-0.444967,0.024631,-0.051631
412,0.156546,-8.964608,9.491128,-7.838416,3.938434,0.389020,-53.316517,-0.110266,-6.678640,0.892156,-0.447956,0.025276,-0.052488
413,-0.199873,-9.011644,8.499664,3.262285,3.784686,10.223722,-53.392834,0.108504,-6.676194,0.891908,-0.448451,0.027004,-0.051596
414,-0.007710,-9.460585,7.653812,8.850188,-0.620457,20.758562,-53.189510,0.553955,-6.409591,0.892907,-0.446730,0.029343,-0.047829
415,-0.347887,-9.290161,6.490540,26.249447,-3.076215,28.506804,-52.596531,1.171620,-5.864961,0.895511,-0.441972,0.031818,-0.041338
416,-0.713479,-9.350366,5.183947,29.323681,-8.037327,35.410191,-51.649052,1.898257,-5.063947,0.899449,-0.434473,0.034137,-0.032551
417,-0.464325,-8.845779,4.604180,33.011562,-6.867278,34.593880,-50.573811,2.650686,-4.137564,0.903706,-0.426004,0.036315,-0.022758
418,-0.341294,-8.957873,4.970109,33.025822,-5.518300,32.556915,-49.427113,3.374837,-3.258843,0.907998,-0.416971,0.038622,-0.013513
419,-0.697762,-8.007072,4.804529,54.472755,-3.701073,26.251890,-47.919777,4.009079,-2.494774,0.913364,-0.405056,0.040792,-0.005680
420,-0.250143,-7.657479,4.793640,58.800926,-5.396518,16.598040,-45.988159,4.425535,-1.893762,0.919982,-0.389704,0.041988,-0.000120
421,0.096040,-6.278584,5.541049,60.852596,-5.461859,7.385435,-43.962368,4.578995,-1.480765,0.926682,-0.373493,0.041874,0.002979
422,-0.293671,-5.917718,5.502287,52.256847,-8.667984,4.129344,-42.053902,4.536655,-1.178020,0.932777,-0.358127,0.040628,0.004613
423,-0.280692,-5.122967,4.922379,52.013977,-11.072010,-2.276134,-40.298035,4.309554,-0.936880,0.938211,-0.343919,0.038111,0.005281
424,-0.020330,-4.502735,5.066885,41.701328,-12.497618,-7.700411,-38.727879,3.900378,-0.814190,0.942941,-0.331139,0.034459,0.004584
425,-0.006593,-4.177962,5.562847,32.745331,-11.552919,-10.306838,-37.486702,3.399554,-0.802135,0.946594,-0.320984,0.030337,0.002905
426,0.130177,-5.105076,5.941289,32.193085,-10.987539,-13.826013,-36.409832,2.857392,-0.897493,0.949682,-0.312124,0.026130,0.000352
427,0.165751,-4.791187,6.148105,43.718109,-7.779948,-17.495815,-35.155735,2.298233,-1.138152,0.953129,-0.301736,0.022116,-0.003410
428,0.039007,-4.647354,7.072736,48.335430,-5.563049,-19.458595,-33.635582,1.766687,-1.521420,0.957091,-0.289073,0.018597,-0.008247
429,-0.081406,-4.712297,8.285849,50.064335,-1.994712,-22.036787,-32.009769,1.285916,-2.034630,0.961081,-0.275467,0.015680,-0.013972
430,-0.497805,-4.845821,8.997280,57.927494,-0.029965,-20.431612,-30.221762,0.890965,-2.623344,0.965187,-0.260440,0.013471,-0.020072
431,-0.831483,-4.575096,9.267388,60.765423,2.115371,-21.400574,-28.252312,0.581285,-3.249062,0.969393,-0.243817,0.011836,-0.026254
432,-0.533064,-4.044555,9.480999,60.674820,-1.456184,-15.128901,-26.233402,0.312337,-3.795424,0.973393,-0.226722,0.010168,-0.031633
433,-0.455210,-4.349658,9.288994,56.480579,-5.014896,-7.388284,-24.282295,0.055824,-4.088603,0.977014,-0.210170,0.007979,-0.034772
434,-0.147398,-4.038584,8.499984,46.740074,-9.038692,4.495285,-22.562359,-0.177073,-4.039629,0.980058,-0.195556,0.005380,-0.034866
435,0.219984,-3.522262,8.366989,30.241453,-10.595288,13.025075,-21.281273,-0.369986,-3.646559,0.982283,-0.184655,0.002703,-0.031865
436,0.668402,-2.866610,8.400949,17.449869,-12.067249,18.748806,-20.491306,-0.532797,-3.017091,0.983681,-0.177926,0.000109,-0.026733
437,0.659360,-3.048326,8.723915,4.564797,-10.035564,12.524139,-20.130941,-0.696415,-2.400296,0.984352,-0.174857,-0.002322,-0.021684
438,0.677480,-2.058007,9.100311,3.526054,-4.499172,5.842133,-20.001089,-0.818524,-2.029474,0.984605,-0.173750,-0.003958,-0.018680
439,0.539907,-1.731502,9.067531,7.508777,1.812586,-2.915843,-19.818058,-0.844067,-1.968383,0.984888,-0.172179,-0.004299,-0.018187
440,0.205996,-1.665694,8.886229,14.451591,5.033554,-9.955918,-19.448595,-0.808837,-2.208850,0.985401,-0.169006,-0.003700,-0.020189
441,-0.248430,-1.579311,8.917548,23.103165,6.907667,-12.143014,-18.817095,-0.741615,-2.622076,0.986245,-0.163573,-0.002643,-0.023629
442,-0.299148,-1.665736,9.082038,29.325768,7.109178,-11.130421,-17.938011,-0.642077,-3.063842,0.987381,-0.155990,-0.001365,-0.027280
443,-0.389841,-2.279120,9.072424,31.043846,5.847936,-10.316437,-16.927765,-0.542884,-3.469532,0.988623,-0.147259,-0.000228,-0.030640
444,-0.578334,-2.365337,9.700397,29.520531,4.138834,-5.900986,-15.915754,-0.459516,-3.775741,0.989806,-0.138500,0.000592,-0.033181
445,-0.218072,-2.666895,9.932614,22.078806,2.246996,-3.590189,-15.054502,-0.398877,-3.956563,0.990770,-0.131038,0.001073,-0.034679
446,-0.257298,-2.769410,9.807301,11.824181,1.180298,-1.748985,-14.488807,-0.366261,-4.057125,0.991376,-0.126135,0.001295,-0.035518
447,-0.114242,-2.711933,9.729146,2.994488,-0.369340,-0.688578,-14.241563,-0.363238,-4.099834,0.991633,-0.123994,0.001291,-0.035887
448,-0.140702,-2.323330,9.583398,-3.804882,-0.957497,0.656839,-14.255099,-0.384804,-4.094884,0.991618,-0.124118,0.001103,-0.035867
449,0.311732,-2.500118,9.358124,-9.687846,-2.036114,1.743117,-14.480337,-0.423211,-4.043744,0.991386,-0.126079,0.000785,-0.035465
450,-0.054333,-2.331044,9.271194,-11.721403,-1.329350,1.763910,-14.837702,-0.462683,-3.972995,0.991007,-0.129182,0.000474,-0.034895
451,0.412973,-2.247174,9.303699,-11.718161,-1.979568,2.396794,-15.229033,-0.497943,-3.891693,0.990582,-0.132576,0.000195,-0.034231
452,0.102232,-2.326678,9.470926,-12.122587,-0.526616,2.454455,-15.627167,-0.516720,-3.802653,0.990140,-0.136022,0.000046,-0.033483
453,0.438321,-2.607348,9.423212,-11.760136,-1.226555,1.441636,-16.025841,-0.527109,-3.732167,0.989680,-0.139469,-0.000013,-0.032886
454,-0.054835,-2.364092,9.425507,-11.099155,0.018250,0.171409,-16.407120,-0.538918,-3.700756,0.989219,-0.142765,-0.000045,-0.032630
455,0.219973,-2.681223,9.407735,-12.892373,-0.946739,2.414388,-16.807409,-0.541388,-3.655010,0.988727,-0.146220,-0.000011,-0.032238
456,0.059662,-2.613002,9.179688,-13.332457,-0.232248,0.203961,-17.244934,-0.547463,-3.607537,0.988174,-0.149996,-0.000002,-0.031836
457,-0.093641,-2.650316,9.036850,-14.800018,-0.050066,2.633638,-17.714239,-0.537670,-3.561011,0.987565,-0.154039,0.000150,-0.031422
458,0.479086,-2.936738,8.815339,-15.831941,-1.901914,4.102448,-18.225859,-0.534052,-3.444150,0.986899,-0.158446,0.000160,-0.030410
459,0.674591,-3.223068,8.301876,-18.411310,0.157223,0.824399,-18.797390,-0.535619,-3.357100,0.986119,-0.163367,0.000174,-0.029661
460,-0.050124,-3.101719,8.347249,-23.260378,2.257097,0.617387,-19.491978,-0.489554,-3.347560,0.985117,-0.169330,0.000736,-0.029510
461,0.073479,-3.284662,8.428004,-26.963278,0.165562,-2.949841,-20.328571,-0.464781,-3.397780,0.983844,-0.176511,0.001241,-0.029897
462,0.792102,-3.322643,8.100953,-30.728647,-1.354900,-7.870594,-21.288599,-0.547225,-3.559513,0.982280,-0.184766,0.001046,-0.031405
463,-0.199454,-3.437749,8.418348,-36.220360,2.058155,-7.591218,-22.401798,-0.631990,-3.803258,0.980361,-0.194319,0.001039,-0.033622
464,-0.423464,-3.262379,8.631984,-38.115841,-0.451055,-4.914331,-23.638323,-0.688847,-4.005247,0.978140,-0.204900,0.001277,-0.035434
465,0.394355,-3.897016,8.440074,-39.474926,-2.781093,-6.712585,-24.929268,-0.817964,-4.159817,0.975705,-0.215942,0.000868,-0.036977
466,0.162137,-3.984022,8.110948,-38.618214,0.166818,-1.863929,-26.228931,-0.918919,-4.270185,0.973144,-0.227023,0.000649,-0.038101
467,-0.270684,-4.387974,8.164167,-38.945553,1.270031,1.791745,-27.521315,-0.898382,-4.281631,0.970520,-0.237978,0.001276,-0.038146
468,0.019575,-4.620391,7.797503,-37.743679,-0.536236,2.521139,-28.800184,-0.853935,-4.223778,0.967830,-0.248782,0.001951,-0.037544
469,0.394708,-5.398600,7.860230,-35.866463,-1.470610,1.040800,-30.027887,-0.854061,-4.155749,0.965131,-0.259138,0.002199,-0.036949
470,0.057092,-5.369217,7.723290,-27.979300,0.827132,3.546962,-31.092909,-0.824359,-4.084593,0.962708,-0.268089,0.002625,-0.036259
471,-0.144183,-5.537169,7.756061,-21.239466,2.498430,2.889496,-31.913986,-0.721169,-4.021823,0.960796,-0.274953,0.003599,-0.035466
472,-0.060444,-5.859647,8.033077,-14.979950,3.245027,2.037010,-32.517815,-0.596358,-4.003273,0.959357,-0.279978,0.004786,-0.034987
473,-0.054190,-5.461992,7.691362,-8.087324,3.659831,-2.316798,-32.901623,-0.502007,-4.069322,0.958405,-0.283160,0.005856,-0.035290
474,-0.536267,-5.349864,7.600051,-9.166917,5.686038,-1.788205,-33.188015,-0.408605,-4.211621,0.957662,-0.285519,0.007079,-0.036232
475,-0.329522,-5.244616,7.488357,-14.636244,5.088519,-5.559188,-33.583462,-0.326045,-4.412654,0.956616,-0.288783,0.008400,-0.037678
476,-0.134530,-5.495176,7.692272,-25.259455,3.989256,-6.744248,-34.246895,-0.314904,-4.667345,0.954843,-0.294293,0.009365,-0.039722
477,-0.231697,-5.394357,7.493373,-32.011116,3.800160,-7.548715,-35.199772,-0.344070,-4.937156,0.952263,-0.302209,0.010164,-0.041962
478,-0.236218,-5.832164,7.965477,-39.623329,5.186455,-6.003606,-36.391903,-0.354791,-5.207964,0.948965,-0.312077,0.011249,-0.044126
480,-0.087539,-6.028755,7.887655,-37.746170,5.835226,-4.505620,-37.679806,-0.313842,-5.458202,0.945306,-0.322681,0.012787,-0.045946
481,0.198083,-6.083833,7.783670,-34.031246,5.605643,-2.670741,-38.874943,-0.238294,-5.670045,0.941815,-0.332467,0.014501,-0.047332
482,0.131982,-6.339723,7.515552,-30.021238,5.642447,-0.675237,-39.941872,-0.128942,-5.832020,0.938629,-0.341155,0.016319,-0.048197
483,0.204146,-6.500002,7.531695,-26.150614,5.749120,0.238660,-40.877872,0.010824,-5.960489,0.935779,-0.348732,0.018244,-0.048686
484,0.239346,-6.557718,7.029612,-21.009426,4.020260,1.145215,-41.663960,0.148400,-6.050463,0.933348,-0.355069,0.019977,-0.048866
485,0.284813,-6.748839,7.424202,-21.618509,3.354089,-0.049688,-42.374641,0.251855,-6.119153,0.931115,-0.360793,0.021337,-0.048973
486,-0.115339,-6.957498,7.387423,-20.057396,4.500472,0.793930,-43.069630,0.356458,-6.198925,0.928891,-0.366371,0.022736,-0.049155
487,-0.217374,-7.251669,7.710529,-18.005718,4.348136,1.230615,-43.704559,0.486824,-6.275624,0.926833,-0.371438,0.024311,-0.049225
488,-0.246415,-7.249088,7.641913,-13.855830,2.673357,1.336889,-44.236050,0.600745,-6.326047,0.925095,-0.375669,0.025624,-0.049145
489,-0.353780,-7.581351,8.160829,-11.554957,2.222368,1.383478,-44.659832,0.690709,-6.350828,0.923701,-0.379040,0.026613,-0.048952
490,-0.307368,-7.455494,7.785289,-5.462086,1.419279,1.255507,-44.943600,0.764760,-6.362383,0.922765,-0.381289,0.027368,-0.048732
491,-0.364534,-7.775357,8.140239,-4.092613,0.976836,-0.368231,-45.103085,0.803443,-6.380163,0.922231,-0.382550,0.027807,-0.048707
492,0.050727,-7.513780,7.927126,-0.228729,0.718121,-1.383073,-45.175674,0.802692,-6.420792,0.921971,-0.383125,0.027967,-0.049019
493,0.050532,-7.546349,7.845739,0.894575,1.454046,-1.910422,-45.165466,0.789299,-6.485177,0.921975,-0.383033,0.028070,-0.049585
494,0.031693,-7.240288,7.590424,2.991606,2.138481,-0.771940,-45.101727,0.799858,-6.559160,0.922158,-0.382497,0.028375,-0.050160
495,-0.008397,-7.339795,7.583301,2.068258,0.789687,1.231256,-45.017815,0.839762,-6.588305,0.922430,-0.381795,0.028756,-0.050282
496,0.077637,-7.287528,7.413747,3.174151,-1.560024,3.352813,-44.929504,0.884691,-6.525181,0.922757,-0.381078,0.028869,-0.049647
497,0.002108,-7.945907,7.402463,2.079036,-3.730168,4.097512,-44.839607,0.909861,-6.374958,0.923123,-0.380380,0.028534,-0.048375
498,0.373737,-7.877573,7.844422,-5.103904,-6.261477,2.585672,-44.886993,0.870427,-6.178510,0.923043,-0.380828,0.027584,-0.046913
499,0.426252,-7.868700,9.072188,-22.395163,-7.923991,0.344579,-45.342506,0.738288,-5.976506,0.921587,-0.384601,0.026030,-0.045622
500,0.351026,-8.131047,9.835662,-34.761669,-6.886241,-0.521178,-46.293133,0.564424,-5.801473,0.918411,-0.392347,0.024415,-0.044598
501,0.432851,-8.403698,10.847352,-36.085621,-5.146183,-2.157811,-47.472855,0.395038,-5.685457,0.914344,-0.401876,0.023115,-0.044013
502,-0.080448,-7.962354,10.889548,-30.036594,-4.702271,0.611492,-48.574173,0.266332,-5.580668,0.910459,-0.410717,0.022139,-0.043418
503,-0.374052,-8.438179,10.056274,-25.362650,-3.887491,9.118523,-49.496338,0.294764,-5.366132,0.907208,-0.418061,0.021930,-0.041436
504,-0.354710,-8.888051,9.148966,-2.695349,-1.541989,17.293085,-49.961159,0.571720,-5.012072,0.905665,-0.421704,0.022983,-0.037529
505,-0.313885,-8.853339,8.025459,21.385345,-4.386384,21.673264,-49.642731,1.003289,-4.516683,0.907026,-0.419135,0.024482,-0.032091
506,-0.607278,-8.887198,6.203400,27.046352,-5.701332,28.787037,-48.820698,1.529644,-3.839349,0.910202,-0.412593,0.025991,-0.024988
507,-0.172842,-8.538484,5.425155,31.630564,-5.560182,25.122543,-47.819641,2.075873,-3.101494,0.913899,-0.404635,0.027520,-0.017397
508,-0.520832,-8.352470,5.297423,38.404503,-1.936821,22.922508,-46.626747,2.578254,-2.465182,0.918101,-0.395124,0.029167,-0.010848
509,-0.397473,-7.944341,4.664385,34.271114,-2.148103,17.628225,-45.390152,3.016447,-1.946113,0.922291,-0.385225,0.030829,-0.005508
510,-0.449585,-7.217015,4.766701,31.919241,0.035360,11.491507,-44.266682,3.333414,-1.576368,0.925981,-0.376198,0.032120,-0.001780
511,-0.262139,-6.141552,5.274788,46.266071,-0.273414,2.985584,-42.953091,3.496526,-1.398482,0.930201,-0.365576,0.032854,-0.000182
512,-0.397020,-5.739799,5.751245,48.234001,-0.239631,1.295212,-41.374725,3.537303,-1.339033,0.935140,-0.352739,0.032998,-0.000024
513,-0.222901,-4.959117,5.977079,49.587616,-2.192798,-5.667088,-39.746471,3.458974,-1.367955,0.940074,-0.339422,0.032437,-0.000962
514,-0.419492,-4.380802,5.983973,50.301479,-2.835959,-9.462995,-38.090389,3.234911,-1.511019,0.944924,-0.325804,0.030980,-0.003249
515,-0.462949,-4.255598,6.084355,44.638458,-1.539942,-8.999126,-36.519321,2.990164,-1.711490,0.949339,-0.312812,0.029452,-0.006004
516,-0.366964,-4.211525,5.880297,30.141493,-2.393352,-9.937052,-35.284153,2.751911,-1.928979,0.952681,-0.302554,0.027980,-0.008760
517,-0.308916,-4.326741,5.550357,23.891666,-3.176551,-13.424550,-34.395775,2.453058,-2.195400,0.955016,-0.295159,0.026108,-0.011969
518,-0.549474,-4.079731,5.717977,18.794720,-5.108098,-12.692307,-33.695621,2.094695,-2.478663,0.956809,-0.289336,0.023758,-0.015400
519,-0.393140,-4.276167,6.571415,16.151669,-6.576198,-11.699314,-33.120842,1.708300,-2.710716,0.958246,-0.284577,0.021026,-0.018422
520,-0.177845,-4.263972,6.849195,15.012615,-7.154366,-14.527106,-32.607731,1.278928,-2.953654,0.959489,-0.280345,0.017943,-0.021603
521,-0.370703,-4.559808,7.503847,15.801492,-6.335089,-12.546349,-32.099052,0.847457,-3.214441,0.960676,-0.276152,0.014858,-0.024910
522,-0.173199,-4.489842,8.716991,17.119411,-5.935102,-11.710161,-31.553074,0.460587,-3.450185,0.961918,-0.271644,0.012051,-0.027877
523,0.116245,-4.923306,9.088495,27.080011,-2.794471,-10.802981,-30.817739,0.141888,-3.695904,0.963563,-0.265528,0.009761,-0.030759
524,-0.091883,-4.795858,8.467209,33.322269,-0.081004,-10.524990,-29.811331,-0.078747,-3.978950,0.965762,-0.257096,0.008266,-0.033724
525,-0.092378,-4.914441,8.672934,32.947273,0.442095,-7.091015,-28.706345,-0.216925,-4.238283,0.968104,-0.247796,0.007334,-0.036292
526,0.110035,-4.507158,8.830381,29.186649,1.113803,-4.513657,-27.670095,-0.285205,-4.421148,0.970240,-0.239042,0.006809,-0.038048
527,-0.114449,-4.374547,8.463648,25.672758,3.050632,-1.293272,-26.755297,-0.267638,-4.539063,0.972079,-0.231276,0.006892,-0.039066
528,-0.029714,-4.018300,8.533162,17.127918,2.786184,-0.351014,-26.041750,-0.192587,-4.607073,0.973484,-0.225189,0.007420,-0.039538
529,-0.078324,-3.954778,9.036796,14.242914,2.704808,1.563506,-25.518877,-0.101384,-4.628735,0.974502,-0.220713,0.008057,-0.039580
530,-0.149808,-3.670783,9.069661,14.338871,2.206591,2.513218,-25.042557,0.001709,-4.602302,0.975428,-0.216627,0.008720,-0.039194
531,-0.132709,-3.785516,8.923588,12.560027,2.258512,1.678386,-24.594231,0.098613,-4.570128,0.976286,-0.212778,0.009332,-0.038773
532,-0.205441,-3.694902,8.932541,8.038614,1.623324,3.136836,-24.250801,0.190680,-4.523809,0.976941,-0.209824,0.009916,-0.038238
533,-0.275218,-3.798113,8.943204,5.265871,0.004032,4.620760,-24.028643,0.268361,-4.416944,0.977385,-0.207913,0.010310,-0.037204
534,-0.072028,-3.916498,8.865828,1.165739,-1.889407,5.603143,-23.920620,0.308942,-4.248478,0.977636,-0.206993,0.010317,-0.035703
535,0.200458,-3.969423,8.739066,-1.018791,-3.542713,3.920972,-23.917246,0.290603,-4.066669,0.977697,-0.206986,0.009831,-0.034186
536,0.191888,-3.972332,8.746147,-3.204788,-3.158309,3.050152,-23.986971,0.235734,-3.915144,0.977613,-0.207610,0.009109,-0.032986
537,0.229417,-3.981676,8.806137,-4.130898,-2.342611,2.356507,-24.108788,0.188759,-3.795483,0.977423,-0.208672,0.008526,-0.032042
538,0.317788,-3.738848,8.585811,-5.361653,-2.042292,1.610084,-24.266733,0.149197,-3.705227,0.977158,-0.210037,0.008067,-0.031333
539,0.069908,-3.601533,8.121999,-8.549629,-1.448757,0.018539,-24.498484,0.107425,-3.656482,0.976742,-0.212027,0.007684,-0.030978
540,-0.065829,-3.790908,7.717862,-17.946444,-2.047693,1.830699,-24.940006,0.067420,-3.604109,0.975930,-0.215804,0.007364,-0.030578
541,-0.007459,-4.126579,7.467371,-25.099903,-2.936671,0.285215,-25.657379,0.007362,-3.536694,0.974574,-0.221929,0.006914,-0.030074
542,-0.028069,-4.233746,7.071035,-28.693562,-2.605464,0.653307,-26.553930,-0.068609,-3.482053,0.972818,-0.229570,0.006395,-0.029707
543,-0.243775,-4.687456,7.053238,-34.449486,-2.396826,1.423389,-27.606340,-0.127076,-3.413238,0.970682,-0.238513,0.006029,-0.029186
544,0.358237,-4.908394,7.505715,-35.559246,-2.304075,-2.309696,-28.773100,-0.203115,-3.389185,0.968203,-0.248404,0.005631,-0.029085
545,0.298956,-5.261054,8.394046,-28.947094,1.845653,-2.963038,-29.847824,-0.252508,-3.462208,0.965808,-0.257482,0.005652,-0.029757
546,0.101018,-4.795392,8.405275,-22.264086,3.895796,-0.191158,-30.700935,-0.196132,-3.555613,0.963845,-0.264646,0.006563,-0.030370
547,0.333659,-5.362800,8.952960,-24.435198,4.249822,-1.967291,-31.478981,-0.098491,-3.656295,0.962007,-0.271152,0.007827,-0.030939
548,0.487639,-5.139942,8.946317,-19.001022,6.668435,-3.975342,-32.202721,0.003920,-3.836477,0.960235,-0.277181,0.009316,-0.032151
549,-0.250497,-5.233810,8.618994,-19.023800,7.906150,2.310602,-32.836700,0.194048,-3.990361,0.958657,-0.282420,0.011464,-0.032917
550,-0.241651,-4.982731,7.924475,-23.812855,5.085244,2.753727,-33.550987,0.421227,-4.038062,0.956880,-0.288317,0.013686,-0.032672
551,-0.119321,-5.278950,7.851348,-28.243736,3.479660,1.557630,-34.418751,0.579630,-4.058459,0.954672,-0.295504,0.015305,-0.032328
552,-0.468555,-4.957620,7.164026,-28.053726,1.603491,5.302942,-35.356464,0.714508,-4.013299,0.952240,-0.303271,0.016570,-0.031469
553,-0.284011,-5.331862,6.691540,-32.551563,-1.917027,5.028393,-36.364616,0.810851,-3.870641,0.949577,-0.311629,0.017257,-0.029877
554,0.160633,-5.393920,6.197137,-31.615620,-2.104589,1.391091,-37.432224,0.821392,-3.745088,0.946665,-0.320478,0.017270,-0.028649
555,0.016621,-5.412003,6.252528,-32.895409,-1.617934,1.486475,-38.506252,0.802195,-3.669294,0.943638,-0.329353,0.017162,-0.027917
556,-0.039645,-5.772292,6.362124,-36.400597,-1.721171,0.902319,-39.660156,0.784123,-3.603271,0.940289,-0.338854,0.017099,-0.027254
557,0.050244,-6.195622,6.883023,-35.784000,-0.674016,-0.876070,-40.862747,0.753995,-3.577173,0.936686,-0.348715,0.017058,-0.026952
558,-0.180686,-6.275542,7.393806,-30.895027,2.581359,-0.937530,-41.974514,0.758014,-3.620906,0.933248,-0.357779,0.017488,-0.027129
559,-0.503546,-6.562088,8.000527,-29.854923,4.499115,-0.111501,-42.988209,0.833426,-3.713305,0.930028,-0.365984,0.018634,-0.027482
560,-0.354353,-6.823716,7.755248,-24.327196,6.949483,-2.505556,-43.893703,0.942029,-3.876034,0.927073,-0.373262,0.020260,-0.028296
561,-0.401833,-7.156348,7.817462,-19.391159,8.628763,-1.854514,-44.626381,1.077543,-4.109255,0.924615,-0.379096,0.022305,-0.029599
562,-0.275108,-7.334586,7.389622,-16.181171,8.998994,-3.271948,-45.224628,1.225336,-4.377131,0.922558,-0.383814,0.024546,-0.031142
563,-0.493036,-7.618637,7.171595,-17.322718,8.825517,-0.839967,-45.788906,1.384760,-4.637130,0.920592,-0.388238,0.026860,-0.032569
564,-0.162277,-7.644739,7.127769,-17.534330,6.506993,-0.961995,-46.375118,1.540276,-4.842042,0.918541,-0.392833,0.028975,-0.033539
565,-0.507681,-8.104941,7.389127,-18.591822,4.899264,2.122956,-46.980705,1.684707,-4.967186,0.916421,-0.397593,0.030741,-0.033883
566,-0.349104,-7.942984,7.466337,-15.224563,3.504652,1.870789,-47.546116,1.828490,-5.024875,0.914435,-0.402036,0.032257,-0.033686
567,-0.433933,-8.164561,7.754521,-14.352921,2.597687,3.958267,-48.039394,1.968755,-5.034958,0.912697,-0.405909,0.033554,-0.033128
568,-0.271676,-7.976153,7.978388,-9.371167,1.035837,1.898111,-48.434113,2.081819,-5.015063,0.911301,-0.409009,0.034495,-0.032449
569,-0.661865,-8.417417,8.072234,-5.816651,0.201234,3.706363,-48.685516,2.165485,-4.968699,0.910415,-0.410987,0.035064,-0.031704
570,-0.235677,-8.151346,8.126463,-0.515772,-1.546296,2.364041,-48.787865,2.226706,-4.885026,0.910070,-0.411801,0.035278,-0.030787
571,-0.265874,-8.057499,7.980009,2.174484,-1.530383,1.375533,-48.757126,2.239751,-4.805315,0.910202,-0.411576,0.035087,-0.030117
572,-0.328965,-7.944316,7.774951,4.390088,-0.196598,0.420745,-48.646103,2.243229,-4.763897,0.910611,-0.410705,0.034937,-0.029809
573,-0.210693,-8.387184,7.745714,3.550931,0.296384,0.177647,-48.513538,2.251789,-4.758543,0.911087,-0.409649,0.034951,-0.029776
574,0.145845,-8.331717,7.662039,1.168494,-0.404370,-2.261875,-48.435734,2.224585,-4.780243,0.911359,-0.409035,0.034792,-0.030070
575,0.099681,-7.837976,8.676728,-7.218138,-1.741602,-4.282283,-48.538277,2.119197,-4.825766,0.910981,-0.409879,0.034144,-0.030779
576,-0.229685,-8.046294,9.676469,-12.538448,-4.013415,-1.840236,-48.867378,1.979208,-4.820998,0.909800,-0.412551,0.033105,-0.031149
577,-0.264515,-8.115549,10.211632,-7.914494,-5.572322,3.162091,-49.203659,1.891029,-4.685778,0.908620,-0.415292,0.032007,-0.030300
578,-0.302770,-8.250623,10.476599,1.096916,-8.583502,9.326712,-49.306828,1.894581,-4.370967,0.908325,-0.416195,0.030920,-0.027763
579,-0.994548,-8.049825,10.171000,21.440434,-8.892505,18.719973,-48.912994,2.057027,-3.844458,0.909866,-0.413155,0.030215,-0.023101
580,-1.346614,-9.210029,8.325317,42.829811,-9.365184,28.073072,-47.812439,2.437074,-3.098327,0.913902,-0.404476,0.030387,-0.016095
581,-0.383527,-9.185770,7.079388,64.783485,-9.153913,26.075752,-45.979939,2.884319,-2.255561,0.920297,-0.389915,0.030849,-0.008285
583,-0.361739,-8.412391,6.312067,66.047607,-8.717756,21.555326,-43.758980,3.231548,-1.481240,0.927659,-0.372138,0.030979,-0.001483
584,0.112735,-7.731936,5.413393,60.070518,-6.399066,8.441696,-41.626842,3.384628,-0.941874,0.934389,-0.354932,0.030523,0.002814
585,0.337377,-7.452046,5.481887,42.788921,-2.127336,-0.380921,-39.901752,3.363205,-0.746104,0.939626,-0.340881,0.029804,0.003895
586,0.306442,-6.006166,6.152888,38.740833,-0.570082,-10.128216,-38.549393,3.216694,-0.853214,0.943618,-0.329761,0.028950,0.002239
587,-0.761775,-5.252549,6.403000,31.085306,1.952139,-9.082708,-37.400372,3.036981,-1.119627,0.946914,-0.320243,0.028231,-0.000756
588,-0.299856,-4.651339,6.622907,32.705261,-0.992128,-8.004068,-36.349640,2.878700,-1.357455,0.949836,-0.311514,0.027558,-0.003417
589,-0.959960,-4.255550,6.947052,29.913895,-0.625567,3.062722,-35.308563,2.808873,-1.408381,0.952637,-0.302872,0.027080,-0.004275
590,-0.633928,-4.148998,7.268435,31.317959,-6.631385,6.969342,-34.278008,2.805617,-1.202315,0.955329,-0.294341,0.026484,-0.002809
591,-0.319724,-3.778292,7.415103,30.538311,-8.057034,8.225156,-33.230396,2.743263,-0.855158,0.957997,-0.285681,0.025070,-0.000304
592,0.023358,-3.812970,7.697360,26.180828,-9.137682,8.741490,-32.266655,2.655369,-0.461862,0.960378,-0.277707,0.023377,0.002568
593,-0.139815,-4.214652,7.872715,23.729654,-7.240265,3.664154,-31.420397,2.532776,-0.141830,0.962415,-0.270679,0.021610,0.004793
594,-0.292070,-4.224650,8.668906,31.307245,-8.200053,-0.808002,-30.495876,2.336333,0.031594,0.964595,-0.262947,0.019597,0.005628
595,-0.123100,-3.306231,8.866732,42.018478,-5.724066,-10.028254,-29.275547,2.044847,-0.009295,0.967389,-0.252666,0.017285,0.004431
596,-0.312011,-3.593358,8.898799,41.487606,-3.971748,-9.271513,-27.890968,1.748315,-0.214546,0.970418,-0.240942,0.015258,0.001860
597,-0.161369,-3.502332,9.074601,44.345688,-3.375679,-10.002502,-26.467190,1.492678,-0.444608,0.973366,-0.228851,0.013568,-0.000795
598,-0.561001,-3.087688,9.030955,47.545471,-0.817879,-9.427762,-24.942322,1.289243,-0.706180,0.976339,-0.215863,0.012316,-0.003587
599,-0.155029,-2.705024,8.546623,45.939487,-1.112361,-9.528811,-23.390430,1.130590,-0.981591,0.979173,-0.202605,0.011397,-0.006388
600,-0.704753,-3.078847,8.110580,38.350266,-0.284130,-3.763506,-21.989544,1.023657,-1.176941,0.981571,-0.190612,0.010727,-0.008378
601,-0.516830,-3.224545,8.097822,35.541840,-1.595485,-3.198389,-20.759869,0.952615,-1.273809,0.983557,-0.180066,0.010179,-0.009436
602,-0.883501,-2.869787,8.020812,30.836363,-0.614760,-4.070904,-19.655293,0.876275,-1.374673,0.985242,-0.170577,0.009582,-0.010515
603,-0.729496,-2.918561,8.217367,26.404816,-3.661261,0.185657,-18.701920,0.787572,-1.412444,0.986627,-0.162382,0.008784,-0.011045
604,-1.007044,-3.110305,8.336173,20.685350,-2.822948,0.288479,-17.916567,0.687797,-1.370856,0.987725,-0.155630,0.007791,-0.010882
605,-0.395093,-2.842319,9.116782,15.585738,-5.478924,-2.856609,-17.312061,0.542981,-1.369787,0.988537,-0.150434,0.006483,-0.011104
606,-0.545032,-2.526994,9.489173,14.709788,-4.096348,-1.983081,-16.807409,0.366659,-1.399875,0.989190,-0.146097,0.004950,-0.011617
607,-0.307970,-2.700134,9.444954,11.287364,-5.048583,-2.359236,-16.374260,0.199941,-1.425760,0.989733,-0.142374,0.003499,-0.012067
608,-0.069137,-2.795428,9.529161,7.345832,-4.538649,-4.853499,-16.063843,0.012930,-1.496484,0.990106,-0.139711,0.001936,-0.012915
609,0.191173,-2.492757,9.595720,8.238823,-5.084616,-3.519788,-15.804006,-0.179683,-1.586587,0.990406,-0.137487,0.000350,-0.013929
610,-0.066251,-2.329388,9.426664,10.241322,-2.306808,-0.619942,-15.495836,-0.316884,-1.619802,0.990763,-0.134840,-0.000834,-0.014379
611,-0.021423,-2.511867,9.286313,5.914390,-2.308855,-0.144368,-15.226615,-0.394386,-1.611804,0.991074,-0.132521,-0.001548,-0.014397
612,0.125392,-2.295165,9.335107,5.659644,-2.323451,2.349798,-15.034129,-0.459309,-1.556146,0.991299,-0.130862,-0.002197,-0.013987
613,-0.178560,-2.075826,9.682755,5.032848,0.079974,5.280650,-14.856975,-0.462602,-1.423634,0.991516,-0.129327,-0.002397,-0.012841
614,-0.181671,-2.044838,9.915677,3.158613,-0.858578,6.467112,-14.721912,-0.425134,-1.231047,0.991690,-0.128151,-0.002303,-0.011129
615,-0.132265,-2.385338,10.222841,3.054701,-1.517814,8.076849,-14.620133,-0.402017,-0.986514,0.991825,-0.127263,-0.002384,-0.008985
616,-0.142787,-1.907570,10.559545,8.611847,-3.215547,7.090837,-14.427584,-0.414973,-0.722007,0.992055,-0.125591,-0.002801,-0.006705
617,-0.076886,-2.165003,10.393963,10.884816,-4.511246,6.695976,-14.104675,-0.483272,-0.467552,0.992415,-0.122791,-0.003684,-0.004567
618,0.051410,-2.291533,10.237403,11.238155,-4.504004,4.617085,-13.738031,-0.583791,-0.248364,0.992806,-0.119609,-0.004799,-0.002761
619,0.075676,-2.248236,9.882983,9.135873,-4.271853,3.539763,-13.400349,-0.694135,-0.081877,0.993151,-0.116676,-0.005933,-0.001416
620,0.191694,-2.000041,9.148360,4.726262,-3.644740,0.375546,-13.170553,-0.807552,0.011977,0.993378,-0.114678,-0.007013,-0.000704
621,0.370775,-2.209457,8.796616,-7.397098,-1.661056,-2.374064,-13.214911,-0.901274,-0.000234,0.993327,-0.115063,-0.007813,-0.000907
622,-0.025773,-1.735725,8.840855,-12.665252,1.607682,-5.283327,-13.547326,-0.931675,-0.124115,0.992985,-0.117952,-0.007946,-0.002034
623,0.094013,-1.738745,8.542984,-15.903503,0.854761,-6.073220,-14.020338,-0.936873,-0.317668,0.992485,-0.122063,-0.007776,-0.003749
624,0.168345,-1.984500,8.934610,-17.601793,1.973861,-8.689499,-14.574611,-0.951976,-0.567792,0.991871,-0.126880,-0.007612,-0.005968
625,-0.099068,-1.946448,9.338173,-15.141144,3.180312,-8.413532,-15.115404,-0.941889,-0.865348,0.991243,-0.131578,-0.007155,-0.008567
626,-0.194765,-2.080467,9.543893,-12.207087,3.525932,-6.599541,-15.566871,-0.900246,-1.136197,0.990697,-0.135495,-0.006441,-0.010887
627,-0.076740,-2.608050,9.719825,-12.542420,2.979282,-4.356827,-15.976248,-0.845538,-1.341381,0.990190,-0.139040,-0.005680,-0.012617
628,0.026036,-2.551963,9.788317,-13.271845,2.813398,-2.959299,-16.404442,-0.786897,-1.485410,0.989652,-0.142740,-0.004947,-0.013809
629,-0.164837,-2.549684,9.651814,-14.994248,2.876625,0.469326,-16.874666,-0.707970,-1.552327,0.989055,-0.146794,-0.004123,-0.014306
630,0.121808,-2.753384,9.206328,-18.739672,0.717949,2.531038,-17.437267,-0.636097,-1.522189,0.988331,-0.151639,-0.003473,-0.013971
631,0.336293,-2.887599,8.776001,-23.786665,0.315895,1.035601,-18.146585,-0.601628,-1.470930,0.987382,-0.157749,-0.003160,-0.013503
632,0.403891,-2.961700,8.373477,-27.988243,0.706833,1.141451,-19.009762,-0.573827,-1.442024,0.986171,-0.165179,-0.002860,-0.013238
633,0.310827,-3.245767,7.552794,-31.859591,0.490115,-0.007815,-20.007261,-0.548705,-1.430861,0.984698,-0.173754,-0.002546,-0.013128
634,0.505667,-3.408811,6.894428,-37.894226,0.098768,-3.325703,-21.169178,-0.558978,-1.486371,0.982879,-0.183732,-0.002412,-0.013646
635,0.828928,-3.455055,7.225396,-42.507854,1.293262,-8.802427,-22.507036,-0.612403,-1.682745,0.980638,-0.195204,-0.002375,-0.015444
636,0.333542,-3.567631,7.462736,-45.709446,3.694467,-8.267227,-23.973854,-0.647800,-1.977002,0.978014,-0.207750,-0.001946,-0.018049
637,0.250871,-3.983448,8.134007,-46.530178,2.856652,-9.829825,-25.507254,-0.674875,-2.296317,0.975090,-0.220826,-0.001319,-0.020843
638,-0.045246,-3.645141,9.630388,-41.473156,5.763007,-11.254004,-26.969107,-0.701265,-2.675122,0.972116,-0.233254,-0.000506,-0.024125
639,-0.156630,-3.965279,10.670737,-36.088333,5.700107,-9.840131,-28.256769,-0.694509,-3.074960,0.969345,-0.244161,0.000674,-0.027498
640,-0.527308,-4.614929,10.481278,-23.123837,7.232138,-7.522724,-29.239344,-0.644686,-3.432255,0.967131,-0.252447,0.002117,-0.030397
641,-0.276207,-4.485113,9.943632,-11.541853,6.335781,-8.712794,-29.813421,-0.581034,-3.778923,0.965765,-0.257264,0.003584,-0.033165
642,-0.282177,-4.280620,9.437539,-9.202055,7.439566,-9.994324,-30.155354,-0.537675,-4.163734,0.964882,-0.260118,0.004922,-0.036296
643,-0.082143,-5.107660,8.505589,-11.553500,5.103899,-9.790701,-30.497660,-0.523617,-4.553914,0.963973,-0.262976,0.006044,-0.039532
644,0.077368,-4.915713,7.120812,-9.300068,4.490970,-11.098987,-30.841545,-0.563764,-4.935005,0.963037,-0.265860,0.006710,-0.042809
645,0.425838,-4.610811,6.370633,-18.863644,1.933297,-12.053899,-31.306746,-0.671144,-5.320825,0.961784,-0.269783,0.006890,-0.046273
646,0.206314,-4.966235,6.372178,-28.400980,3.110374,-11.232949,-32.089554,-0.803834,-5.695238,0.959739,-0.276375,0.006997,-0.049680
647,0.285336,-5.329988,5.789060,-32.706055,1.134281,-9.223915,-33.103058,-0.928158,-6.020421,0.957089,-0.284883,0.007206,-0.052641
648,0.327508,-5.250941,5.489348,-38.182606,2.001546,-10.326783,-34.279148,-1.065711,-6.320534,0.953944,-0.294729,0.007372,-0.055415
649,0.044251,-5.231428,6.117886,-47.163727,1.488374,-9.378664,-35.695419,-1.206349,-6.622899,0.950046,-0.306538,0.007699,-0.058202
650,-0.440319,-5.800406,6.974543,-54.363659,1.763476,-6.810175,-37.381695,-1.323717,-6.871836,0.945274,-0.320520,0.008282,-0.060463
651,0.071617,-6.180463,7.385871,-56.297398,-2.203998,-6.238217,-39.221554,-1.464583,-7.037656,0.939878,-0.335708,0.008582,-0.062093
652,-0.084528,-6.238379,7.926879,-55.559647,-0.937969,-6.567822,-41.081707,-1.642594,-7.167363,0.934181,-0.350992,0.008533,-0.063546
653,0.194863,-6.669729,8.312176,-53.856159,-1.655758,-5.538672,-42.901165,-1.809509,-7.288333,0.928369,-0.365848,0.008574,-0.064913
654,0.278404,-7.357110,8.244921,-49.112923,0.962862,-6.024417,-44.612537,-1.951239,-7.419574,0.922678,-0.379726,0.008835,-0.066301
655,0.291717,-7.373471,7.876825,-41.220177,1.850425,-5.719540,-46.111813,-2.057223,-7.590389,0.917492,-0.391801,0.009436,-0.067908
656,0.141263,-7.370790,7.601873,-33.118683,3.735054,-3.921346,-47.344124,-2.110249,-7.768370,0.913099,-0.401653,0.010367,-0.069406
657,0.335087,-7.314181,7.358108,-26.530327,2.336734,-0.797468,-48.333508,-2.100501,-7.896041,0.909523,-0.409505,0.011499,-0.070293
658,0.361080,-7.305315,7.103094,-21.593172,2.175136,2.175053,-49.134026,-2.033812,-7.937336,0.906641,-0.415812,0.012668,-0.070297
659,0.106221,-7.512311,7.158119,-16.507050,1.733391,6.282287,-49.770470,-1.884469,-7.895030,0.904402,-0.420774,0.014083,-0.069346
660,0.447625,-7.630146,7.182663,-10.304077,0.440637,7.047932,-50.220928,-1.691153,-7.779724,0.902882,-0.424248,0.015453,-0.067669
661,0.334429,-7.657073,7.135484,-5.584985,0.270383,7.892781,-50.489925,-1.491951,-7.629838,0.902043,-0.426292,0.016624,-0.065714
662,0.619413,-7.690863,7.251716,-2.681380,1.430027,4.712909,-50.630444,-1.311758,-7.518145,0.901644,-0.427328,0.017707,-0.064146
663,0.344815,-7.896401,7.336626,1.053312,1.834592,4.366996,-50.658710,-1.160236,-7.464220,0.901618,-0.427488,0.018714,-0.063153
664,0.648401,-7.591076,7.144401,4.461365,0.333435,2.535609,-50.567661,-1.048406,-7.419096,0.902018,-0.426725,0.019377,-0.062398
665,0.495869,-7.525918,7.210529,4.926291,0.417237,2.482154,-50.411983,-0.975937,-7.375493,0.902643,-0.425472,0.019701,-0.061812
666,0.549097,-7.642982,7.251172,5.176634,0.793983,1.890572,-50.244106,-0.906957,-7.344499,0.903303,-0.424122,0.020040,-0.061342
667,0.123194,-7.826077,7.161569,6.722036,1.643626,3.100021,-50.046127,-0.817078,-7.322378,0.904073,-0.422522,0.020562,-0.060871
668,0.179022,-7.536556,7.051888,8.039633,2.003215,3.819135,-49.800465,-0.689708,-7.294651,0.905028,-0.420526,0.021336,-0.060229
669,0.349660,-7.602405,7.122619,8.104594,2.045857,3.663006,-49.531712,-0.550970,-7.265381,0.906065,-0.418341,0.022185,-0.059542
670,0.533713,-7.420009,7.021178,10.591246,2.269752,3.358333,-49.220299,-0.415324,-7.243776,0.907245,-0.415816,0.023019,-0.058939
671,0.427430,-7.324963,6.871172,11.280044,2.036000,4.019314,-48.855946,-0.275441,-7.217336,0.908611,-0.412866,0.023845,-0.058299
672,0.700324,-7.209829,6.879108,11.955648,-0.977106,2.920266,-48.468941,-0.176930,-7.154195,0.910056,-0.409759,0.024205,-0.057526
673,0.526884,-7.164121,6.865973,12.129635,-1.946345,3.111043,-48.067822,-0.134307,-7.050838,0.911546,-0.406572,0.023976,-0.056637
674,0.258032,-7.109410,7.005330,13.322104,-1.816686,4.077208,-47.643887,-0.087538,-6.923934,0.913117,-0.403201,0.023692,-0.055549
675,-0.195130,-7.093436,6.915129,12.433786,-1.923629,5.482123,-47.214752,-0.012373,-6.770267,0.914710,-0.399774,0.023548,-0.054149
676,-0.010982,-7.164268,7.019013,10.630191,-4.553191,3.676757,-46.830341,0.025761,-6.587268,0.916139,-0.396723,0.023037,-0.052633
677,-0.192961,-7.085882,6.992031,10.670627,-4.635980,3.182532,-46.475323,0.003813,-6.397342,0.917445,-0.393930,0.022046,-0.051259
678,-0.429380,-7.251419,7.151890,9.103991,-4.787966,2.868968,-46.145794,-0.031758,-6.214091,0.918649,-0.391340,0.020987,-0.049974
679,0.084701,-7.770226,7.063615,7.082799,-6.021410,0.897973,-45.876244,-0.111691,-6.040861,0.919627,-0.389242,0.019640,-0.048905
680,0.270044,-7.744792,8.282787,-3.203749,-7.418851,-0.963090,-45.812149,-0.268496,-5.880849,0.919882,-0.388819,0.017811,-0.048163
681,0.124729,-7.672954,9.637563,-17.597910,-10.147871,-3.595148,-46.159973,-0.526444,-5.722948,0.918712,-0.391734,0.015349,-0.047724
682,0.132404,-8.403515,10.389292,-26.901268,-11.036123,-4.700312,-46.903610,-0.869501,-5.561644,0.916142,-0.397835,0.012355,-0.047523
683,0.464335,-8.640099,10.789548,-26.152906,-9.056608,-5.566642,-47.790199,-1.222106,-5.431128,0.913005,-0.405047,0.009450,-0.047630
684,-0.056029,-8.610560,10.844386,-22.156744,-4.706116,-3.412827,-48.597031,-1.486421,-5.359875,0.910091,-0.411559,0.007429,-0.047943
686,-0.127047,-8.514701,9.497224,-0.227571,0.648614,1.246671,-48.970814,-1.558045,-5.332599,0.908735,-0.414550,0.006919,-0.047960
687,0.114210,-8.794976,7.538307,16.489084,5.952690,7.912166,-48.700241,-1.370728,-5.314868,0.909770,-0.412344,0.008229,-0.047163
688,0.069337,-8.267929,6.405108,23.688913,9.800251,13.072707,-48.031342,-0.934923,-5.278669,0.912282,-0.406884,0.011296,-0.045378
689,-0.288753,-7.429737,5.845357,29.848198,11.068554,17.120716,-47.140018,-0.328843,-5.196122,0.915574,-0.399576,0.015498,-0.042694
690,-0.322297,-6.923843,5.411809,23.124584,9.264159,22.312361,-46.257183,0.381865,-4.991999,0.918805,-0.392288,0.020168,-0.038741
691,-0.334884,-7.044309,5.174593,5.680019,11.048332,22.585451,-45.773670,1.155734,-4.716434,0.920609,-0.388181,0.025285,-0.033987
692,-0.818465,-5.828067,6.119289,6.342746,13.427526,26.095377,-45.565605,2.021430,-4.442214,0.921408,-0.386257,0.031256,-0.028901
693,-1.006590,-6.715270,5.572551,1.706097,11.979885,26.488487,-45.417892,2.943212,-4.129590,0.921932,-0.384819,0.037580,-0.023318
694,-0.695509,-6.790394,4.717381,23.415964,-1.803648,0.659786,-44.988369,3.383873,-3.931150,0.923360,-0.381262,0.040380,-0.020386
695,0.156197,-5.747027,5.972057,25.821081,-21.031111,-6.562183,-44.156757,3.043152,-3.732285,0.926178,-0.374741,0.036829,-0.020191
696,-0.221237,-6.747250,6.675975,11.046638,-17.882010,-10.105405,-43.530556,2.383466,-3.482069,0.928315,-0.369967,0.030570,-0.020502
697,0.071365,-7.336855,5.810584,15.803324,-19.880470,-17.677544,-43.079990,1.607962,-3.386588,0.929816,-0.366568,0.023894,-0.022333
698,0.116040,-5.175580,6.677225,31.659107,-19.859060,-20.791960,-42.289719,0.686327,-3.408923,0.932306,-0.360395,0.016313,-0.025581
699,-0.039833,-5.242815,7.165600,5.654688,-8.628364,5.808352,-41.667080,0.166317,-3.277956,0.934249,-0.355469,0.011528,-0.026216
700,-0.474751,-5.985079,5.822466,17.167652,7.892489,4.717313,-41.285469,0.274121,-3.138595,0.935466,-0.352345,0.011892,-0.024785
701,-0.070679,-4.107531,5.625265,56.074547,-2.293069,8.136511,-40.063938,0.484074,-3.037185,0.939202,-0.342316,0.013045,-0.023451
702,-0.139904,-4.152241,6.220479,49.030338,-2.403924,6.785099,-38.310459,0.581018,-2.793916,0.944381,-0.327910,0.012788,-0.021366
703,0.094926,-4.695444,7.082899,51.022011,-4.799858,5.986745,-36.640800,0.615224,-2.551915,0.949102,-0.314135,0.012095,-0.019452
704,-0.065942,-4.454552,7.932696,54.625206,-4.111118,-0.622780,-34.878868,0.547023,-2.392325,0.953845,-0.299534,0.010809,-0.018485
705,-0.265076,-4.640956,8.761827,46.270695,-4.164576,0.034370,-33.197174,0.426478,-2.322882,0.958148,-0.285532,0.009356,-0.018362
706,-0.419237,-4.944735,9.118836,44.954697,-1.146447,-4.224699,-31.677145,0.314448,-2.334318,0.961847,-0.272817,0.008199,-0.018847
707,-0.419553,-4.212194,9.496705,71.602905,-2.398241,-3.042084,-29.735317,0.201262,-2.408298,0.966316,-0.256495,0.007089,-0.019861
708,-0.594031,-4.027802,8.837697,70.980553,-0.637746,-4.016084,-27.360052,0.101028,-2.487560,0.971407,-0.236425,0.005990,-0.020882
709,-0.165902,-3.714024,8.936074,71.457565,-3.970793,-3.232569,-24.987261,-0.021420,-2.562249,0.976075,-0.216281,0.004654,-0.021869
710,-0.463601,-2.667311,9.218040,76.381386,-2.070475,-4.296468,-22.524286,-0.163685,-2.636036,0.980477,-0.195279,0.003092,-0.022838
711,-0.364581,-2.560352,9.400341,64.309601,-3.466171,-5.120721,-20.180183,-0.306975,-2.748850,0.984235,-0.175209,0.001566,-0.024084
712,-0.246253,-2.670697,9.373945,44.552429,-4.082060,-6.517827,-18.365551,-0.489833,-2.889986,0.986844,-0.159639,-0.000194,-0.025576
713,-0.124686,-2.539312,9.846647,34.706066,-4.549440,-6.376408,-17.043213,-0.692548,-3.050544,0.988568,-0.148286,-0.002031,-0.027219
714,-0.244724,-2.306889,9.487963,30.837664,-3.006784,-6.174904,-15.948701,-0.872768,-3.215176,0.989882,-0.138883,-0.003648,-0.028838
715,-0.124742,-2.696074,9.069651,17.094006,-2.021511,-6.391206,-15.146990,-1.009696,-3.394564,0.990769,-0.131994,-0.004827,-0.030520
716,-0.102408,-2.701356,8.679762,-3.263253,-2.374557,-8.992471,-14.912204,-1.147148,-3.623138,0.990958,-0.130009,-0.005819,-0.032642
717,-0.197095,-2.613252,9.264323,-16.790335,-1.563001,-9.536341,-15.240458,-1.291216,-3.904092,0.990480,-0.132901,-0.006645,-0.035253
718,-0.064211,-2.887416,9.356424,-26.173098,-3.385196,-14.711610,-15.947643,-1.479540,-4.271111,0.989495,-0.139089,-0.007609,-0.038690
719,-0.102748,-2.916541,9.577518,-27.668484,-2.601360,-14.778360,-16.832565,-1.713948,-4.714653,0.988193,-0.146832,-0.008763,-0.042871
720,0.229304,-2.767584,9.871436,-17.500719,-5.623394,-11.280844,-17.573305,-1.973356,-5.089087,0.987026,-0.153338,-0.010220,-0.046496
721,0.302849,-2.804704,9.938531,-1.721268,-4.233552,-6.090514,-17.885254,-2.217947,-5.315264,0.986458,-0.156136,-0.011892,-0.048801
722,0.530685,-2.930684,9.044373,5.402060,-5.502487,-1.941481,-17.820726,-2.413286,-5.393214,0.986466,-0.155662,-0.013496,-0.049727
723,0.423245,-2.485227,8.709520,12.826361,-2.868113,5.636398,-17.521212,-2.527459,-5.292197,0.986884,-0.153113,-0.014744,-0.048972
724,0.698262,-2.637165,8.681365,6.172742,-4.611957,6.260150,-17.214581,-2.587168,-5.065692,0.987370,-0.150463,-0.015687,-0.047059
725,0.554975,-2.631549,8.593075,-2.447297,-2.958497,2.927109,-17.160927,-2.662323,-4.881869,0.987496,-0.150001,-0.016598,-0.045564
726,0.788032,-2.271157,8.971467,-6.343695,-3.776706,1.520145,-17.312374,-2.747473,-4.777655,0.987316,-0.151319,-0.017409,-0.044799
727,0.690108,-2.340372,9.569230,-10.888286,-0.974781,-1.584718,-17.600697,-2.823299,-4.754888,0.986921,-0.153824,-0.017980,-0.044747
728,0.911458,-2.596035,9.719530,-12.917700,-1.601369,-5.408020,-17.992588,-2.899712,-4.852793,0.986329,-0.157238,-0.018350,-0.045755
729,0.933382,-2.830084,9.725534,-12.811335,1.039511,-9.002522,-18.409834,-2.983542,-5.078361,0.985635,-0.160893,-0.018588,-0.047878
730,0.833477,-2.861149,9.615222,-10.639504,2.531791,-9.711485,-18.784208,-3.026461,-5.393342,0.984956,-0.164178,-0.018350,-0.050706
731,0.590814,-3.180502,9.341759,-13.311117,3.952399,-11.430516,-19.163897,-3.038749,-5.762183,0.984234,-0.167503,-0.017748,-0.053953
732,0.649882,-3.261509,9.075504,-15.212982,4.450841,-12.814772,-19.616600,-3.040807,-6.190413,0.983355,-0.171456,-0.016912,-0.057701
733,0.465760,-3.333272,8.899892,-17.086321,6.860530,-15.805989,-20.127743,-3.025666,-6.703802,0.982317,-0.175906,-0.015737,-0.062154
734,0.403524,-3.098932,8.896047,-17.443865,8.634695,-16.952171,-20.671736,-2.973847,-7.306296,0.981147,-0.180620,-0.014048,-0.067307
735,0.652755,-3.305329,8.923584,-20.629797,9.100226,-18.594151,-21.272448,-2.909834,-7.966054,0.979803,-0.185801,-0.012077,-0.072921
736,0.729049,-3.306275,8.946300,-19.818069,9.778389,-22.733725,-21.908344,-2.870800,-8.723228,0.978267,-0.191284,-0.010075,-0.079388
737,0.650138,-3.379824,8.979985,-20.508444,9.732273,-24.839027,-22.537380,-2.869406,-9.581235,0.976581,-0.196717,-0.008155,-0.086754
738,0.676901,-3.660722,9.132357,-23.802946,8.058688,-24.372257,-23.231791,-2.915126,-10.453233,0.974665,-0.202717,-0.006476,-0.094301
739,0.520004,-3.818592,9.221581,-24.964424,6.243906,-24.120005,-24.001066,-3.020747,-11.290324,0.972525,-0.209377,-0.005211,-0.101638
740,0.261893,-3.858438,9.340023,-24.242559,5.162286,-21.525673,-24.779346,-3.161880,-12.062806,0.970313,-0.216122,-0.004262,-0.108474
741,0.202897,-3.959408,9.494034,-24.003906,3.854973,-17.079441,-25.546883,-3.299548,-12.710023,0.968153,-0.222755,-0.003442,-0.114231
742,0.175387,-4.142013,9.485645,-21.571714,3.334005,-14.285164,-26.275738,-3.420451,-13.233385,0.966127,-0.229029,-0.002691,-0.118899
743,0.238089,-4.043162,9.351470,-16.585289,3.723909,-13.504615,-26.883339,-3.522541,-13.701037,0.964355,-0.234252,-0.001966,-0.123051
744,0.137691,-4.221609,9.202690,-13.733814,5.296827,-11.687943,-27.361208,-3.579998,-14.144116,0.962857,-0.238332,-0.001015,-0.126898
745,0.451126,-4.443711,9.019103,-10.640929,5.166025,-13.358493,-27.739159,-3.618406,-14.595681,0.961538,-0.241546,0.000032,-0.130769
746,0.349208,-4.555569,8.860259,-6.974927,6.719543,-14.820912,-28.000418,-3.662694,-15.104514,0.960371,-0.243780,0.001041,-0.135125
747,0.475599,-4.469215,8.864159,-2.174781,6.417993,-15.408889,-28.117676,-3.706284,-15.653237,0.959438,-0.244801,0.001985,-0.139810
748,0.373395,-4.420719,8.939916,0.928020,6.566497,-13.545679,-28.104094,-3.742589,-16.181984,0.958791,-0.244717,0.002793,-0.144311
749,0.492816,-4.545031,9.011902,3.185721,4.981965,-10.550611,-28.006382,-3.761497,-16.627872,0.958420,-0.243908,0.003461,-0.148082
750,0.396013,-4.455171,9.079707,5.625526,4.503222,-6.077555,-27.838587,-3.751501,-16.947456,0.958365,-0.242483,0.004004,-0.150740
751,0.443132,-4.405512,8.909695,8.700470,3.744015,-1.460194,-27.588480,-3.688139,-17.122984,0.958697,-0.240309,0.004575,-0.152089
752,0.432384,-4.503189,8.731986,6.074707,2.231105,2.454229,-27.340281,-3.592021,-17.154285,0.959229,-0.238116,0.005117,-0.152169
753,0.529329,-4.760150,8.514910,1.458649,1.040731,6.170536,-27.221104,-3.477602,-17.051353,0.959676,-0.236986,0.005706,-0.151084
754,0.673923,-4.839489,8.456383,-2.775413,-1.906538,7.592729,-27.255695,-3.385372,-16.840460,0.959932,-0.237177,0.006089,-0.149132
755,0.582414,-4.910836,8.625278,-6.819587,-3.021580,7.319890,-27.430857,-3.344109,-16.581549,0.959925,-0.238609,0.006124,-0.146871
756,0.922436,-5.056399,8.801696,-10.019815,-5.531692,6.636195,-27.727476,-3.362703,-16.308939,0.959641,-0.241129,0.005775,-0.144610
757,0.791081,-4.940824,8.913881,-10.967325,-5.510909,6.348254,-28.093750,-3.423986,-16.031118,0.959180,-0.244278,0.005131,-0.142392
758,0.728246,-4.787115,8.948534,-11.289914,-5.860256,6.240335,-28.481289,-3.491418,-15.756055,0.958650,-0.247607,0.004453,-0.140214
759,0.687737,-4.518404,8.771480,-10.262431,-5.366496,2.295692,-28.853771,-3.587340,-15.541066,0.958049,-0.250834,0.003634,-0.138605
760,0.731318,-4.427189,8.342105,-10.118830,-5.306044,-1.281357,-29.199972,-3.734587,-15.439818,0.957326,-0.253888,0.002596,-0.138063
761,0.301729,-4.505605,7.982868,-13.763603,-4.161522,-2.465123,-29.599588,-3.902632,-15.416751,0.956366,-0.257403,0.001620,-0.138225
762,0.606909,-4.745846,7.790739,-18.536791,-6.434035,-5.347112,-30.136192,-4.120554,-15.441724,0.954989,-0.262107,0.000503,-0.138905
763,0.782140,-4.843591,7.779927,-21.784666,-8.066668,-7.996442,-30.803024,-4.441569,-15.511101,0.953163,-0.267996,-0.001204,-0.140200
764,0.871798,-5.218291,7.927030,-26.428572,-8.278236,-5.225044,-31.602732,-4.788662,-15.558661,0.950984,-0.275003,-0.003002,-0.141401
765,1.001902,-5.560984,8.012855,-28.896204,-9.205128,-0.876601,-32.530628,-5.089717,-15.489693,0.948604,-0.283001,-0.004528,-0.141563
766,1.274708,-5.773787,8.092409,-29.964588,-9.580027,1.594069,-33.527981,-5.345929,-15.308121,0.946146,-0.291497,-0.005881,-0.140723
767,1.103717,-5.932545,7.905790,-29.973675,-9.255163,6.794086,-34.554565,-5.527919,-15.015159,0.943720,-0.300124,-0.006891,-0.138816
768,1.045848,-6.181030,7.726855,-29.264973,-9.031998,12.866900,-35.584831,-5.589383,-14.569555,0.941472,-0.308629,-0.007350,-0.135371
769,0.949312,-6.175692,7.502283,-26.141315,-9.937428,18.487053,-36.567341,-5.537563,-13.957942,0.939538,-0.316607,-0.007453,-0.130278
770,0.887079,-6.212416,7.361336,-23.480589,-10.465832,22.900473,-37.466518,-5.394280,-13.198880,0.937970,-0.323803,-0.007399,-0.123731
771,0.948397,-6.311570,7.140835,-19.974590,-11.687470,26.493675,-38.271744,-5.180790,-12.318536,0.936741,-0.330165,-0.007316,-0.115990
772,0.934904,-6.463569,7.042495,-16.590418,-11.340923,27.463223,-38.964348,-4.919837,-11.372674,0.935823,-0.335576,-0.007249,-0.107568
773,0.878340,-6.678390,6.796627,-12.823245,-10.742482,28.141521,-39.533794,-4.618796,-10.418828,0.935191,-0.339967,-0.007083,-0.098948
774,0.923976,-6.916095,6.577489,-9.522181,-9.628071,26.369249,-39.977535,-4.299085,-9.500458,0.934811,-0.343341,-0.006839,-0.090546
775,0.663593,-6.928138,6.582192,-5.534601,-8.513145,24.280386,-40.289288,-3.986310,-8.657969,0.934677,-0.345666,-0.006579,-0.082766
776,0.445152,-6.864796,7.007070,-1.397448,-8.773108,22.629545,-40.457344,-3.699572,-7.873920,0.934852,-0.346852,-0.006489,-0.075525
777,0.643229,-6.868687,7.007780,1.930058,-10.945602,21.243761,-40.496769,-3.475129,-7.102824,0.935319,-0.347029,-0.006965,-0.068563
778,0.822018,-6.771797,7.213483,2.953143,-11.339542,16.030476,-40.458122,-3.354570,-6.387878,0.935895,-0.346619,-0.008165,-0.062362
779,0.713527,-6.704655,7.496226,1.988860,-10.010055,11.142969,-40.409531,-3.331754,-5.811389,0.936353,-0.346169,-0.009746,-0.057580
780,0.882632,-6.684037,7.418389,-1.195950,-8.102795,5.458254,-40.420242,-3.382204,-5.404315,0.936500,-0.346235,-0.011384,-0.054406
781,1.003990,-6.741075,7.062953,-7.613408,-4.790164,-0.341188,-40.579422,-3.490125,-5.199529,0.936072,-0.347545,-0.012812,-0.053074
782,0.862198,-6.782023,7.239301,-13.858628,0.218343,-6.008915,-40.935467,-3.616771,-5.229973,0.934924,-0.350491,-0.013588,-0.053746
783,0.657909,-6.528929,7.344782,-16.972036,4.742451,-9.309646,-41.433559,-3.722478,-5.477003,0.933230,-0.354610,-0.013452,-0.056141
784,0.577675,-6.284520,7.332031,-18.115135,7.988739,-11.053019,-41.992496,-3.789753,-5.872300,0.931262,-0.359222,-0.012486,-0.059628
785,0.593421,-6.198981,7.541671,-16.978962,10.668455,-10.644691,-42.545803,-3.802771,-6.350022,0.929254,-0.363767,-0.010788,-0.063603
786,0.532173,-6.005428,7.696280,-14.009768,13.450377,-9.936102,-43.027748,-3.740659,-6.875827,0.927442,-0.367692,-0.008329,-0.067707
787,0.383819,-5.720980,7.568686,-10.165113,16.066132,-9.350018,-43.394100,-3.602035,-7.447970,0.925977,-0.370633,-0.005140,-0.071913
789,0.397490,-5.808720,7.955229,-7.950969,14.930333,-7.628797,-43.661690,-3.422170,-8.009861,0.924831,-0.372730,-0.001690,-0.075881
790,0.459423,-5.832640,8.332134,-3.119900,12.687221,-6.074847,-43.818077,-3.247482,-8.493880,0.924075,-0.373907,0.001404,-0.079223
791,0.299313,-5.666124,8.434763,2.892229,10.296700,-3.588065,-43.800789,-3.082400,-8.875800,0.923941,-0.373672,0.003971,-0.081770
792,0.359646,-5.411729,8.619994,10.142953,5.795188,-0.512213,-43.571259,-2.935494,-9.110714,0.924587,-0.371730,0.005757,-0.083202
793,0.359813,-5.411309,9.170934,14.993812,1.075007,3.280860,-43.150089,-2.820357,-9.155739,0.925967,-0.368262,0.006528,-0.083220
794,0.519483,-5.394416,9.017620,19.520666,-1.453758,5.369055,-42.580238,-2.726716,-9.045584,0.927908,-0.363606,0.006524,-0.082065
795,0.777152,-5.453097,8.603084,20.830248,-1.927932,4.103437,-41.915058,-2.662196,-8.890609,0.930141,-0.358185,0.006087,-0.080644
796,0.609246,-5.504115,8.353005,18.226343,0.863709,-0.797307,-41.266598,-2.638932,-8.837503,0.932201,-0.352905,0.005657,-0.080174
797,0.628203,-5.693220,8.251845,14.754610,4.255659,-8.107040,-40.709141,-2.672116,-9.005618,0.933773,-0.348377,0.005507,-0.081671
798,0.937662,-5.739991,7.918957,15.341885,6.063445,-18.437441,-40.186016,-2.828598,-9.454275,0.934958,-0.344182,0.005203,-0.085822
799,1.013006,-5.761953,7.714678,16.665417,8.866135,-30.480862,-39.611446,-3.160965,-10.240210,0.935902,-0.339667,0.004381,-0.093241
800,0.926156,-5.866732,7.764681,16.718412,9.660836,-39.694798,-38.989433,-3.663139,-11.342509,0.936525,-0.334894,0.002980,-0.103722
801,1.489580,-6.044394,7.814361,16.891296,7.362339,-47.794186,-38.337029,-4.352789,-12.661113,0.936745,-0.330065,0.000527,-0.116469
802,1.704483,-5.936800,7.665694,18.114157,7.959699,-55.212868,-37.627026,-5.208076,-14.176079,0.936561,-0.325001,-0.002925,-0.131221
803,1.565390,-5.840654,7.614384,17.284668,12.703365,-58.692207,-36.867157,-6.082888,-15.903460,0.935925,-0.319687,-0.006170,-0.147672
804,1.696772,-5.722961,7.845929,16.397930,17.752340,-57.237827,-36.096676,-6.823711,-17.770000,0.934873,-0.314299,-0.008138,-0.164809
805,1.400898,-5.475292,8.127623,19.992554,26.239925,-52.428566,-35.254326,-7.294103,-19.696436,0.933807,-0.308124,-0.008041,-0.181657
806,1.343866,-5.118983,8.193841,26.615311,35.575668,-46.655914,-34.228634,-7.388092,-21.656479,0.933190,-0.300007,-0.005309,-0.197796
807,1.084933,-5.102724,8.485060,28.525593,44.448620,-39.948051,-33.065144,-7.076692,-23.612516,0.932996,-0.290115,0.000197,-0.212961
808,1.017291,-5.022478,8.867445,30.592020,50.687229,-35.669830,-31.855257,-6.415093,-25.540154,0.932961,-0.279109,0.008089,-0.227195
809,0.582535,-4.856897,8.869534,34.077198,54.901356,-34.193745,-30.579531,-5.513563,-27.457962,0.932950,-0.266881,0.017443,-0.240985
810,0.621296,-4.716271,8.716630,33.412689,55.327644,-34.508331,-29.288578,-4.492846,-29.373430,0.932670,-0.253984,0.027363,-0.254695
811,0.173909,-4.665622,8.846008,31.284327,55.275852,-34.812901,-28.079252,-3.430782,-31.275406,0.931843,-0.241337,0.037397,-0.268377
812,-0.058961,-4.358891,8.977959,33.574703,53.395828,-36.774143,-26.902567,-2.375596,-33.171482,0.930526,-0.228647,0.047065,-0.282181
813,-0.496248,-4.068113,8.948981,35.946606,49.970650,-38.553955,-25.681883,-1.387333,-35.059837,0.928833,-0.215464,0.055681,-0.296215
814,-0.695308,-3.743417,8.874722,37.509769,45.929688,-41.616035,-24.426374,-0.505286,-36.945930,0.926702,-0.202013,0.062943,-0.310568
815,-0.714024,-3.699494,8.882835,36.163910,40.451271,-46.241024,-23.193413,0.220523,-38.865295,0.923910,-0.188943,0.068657,-0.325542
816,-0.576686,-3.583702,8.973866,33.889156,33.261612,-52.373005,-22.041573,0.721912,-40.853500,0.920239,-0.176983,0.072512,-0.341438
817,-0.569267,-3.450516,8.909101,32.182068,25.813425,-57.891491,-20.969803,0.963543,-42.922825,0.915652,-0.166328,0.074273,-0.358329
818,-0.550090,-3.117538,8.992542,31.389841,18.827486,-61.637562,-19.945004,0.963865,-45.047993,0.910288,-0.156786,0.073988,-0.375924
819,-0.543508,-2.942035,9.380030,30.522905,12.167642,-62.812382,-18.944277,0.760335,-47.174446,0.904374,-0.148197,0.071847,-0.393680
820,-0.550303,-2.768033,9.603394,30.758682,6.208717,-61.938946,-17.943041,0.393129,-49.242340,0.898178,-0.140353,0.068049,-0.411031
821,-0.390871,-2.596482,9.550335,31.568659,0.895992,-59.215755,-16.908770,-0.098214,-51.203075,0.891966,-0.132954,0.062765,-0.427528
822,-0.305866,-2.348150,9.564072,30.862436,-2.639568,-54.508347,-15.855859,-0.660078,-53.012291,0.885964,-0.125973,0.056450,-0.442732
823,0.072503,-2.383533,9.494018,28.187435,-4.742898,-49.772449,-14.844261,-1.238320,-54.655128,0.880261,-0.119674,0.049780,-0.456444
824,0.411040,-2.325572,9.315415,25.284830,-5.873531,-44.880680,-13.913600,-1.801291,-56.139191,0.874876,-0.114203,0.043218,-0.468702
825,0.530216,-1.977879,9.382320,24.343204,-5.223343,-40.756485,-13.038141,-2.313635,-57.484482,0.869843,-0.109171,0.036997,-0.479673
826,0.650847,-1.792902,9.662920,23.594303,-4.166748,-37.305271,-12.184707,-2.750205,-58.720940,0.865132,-0.104172,0.031224,-0.489613
827,0.866563,-1.755601,9.731939,24.124260,-3.563554,-35.629391,-11.329869,-3.123858,-59.886143,0.860627,-0.099042,0.025748,-0.498848
828,0.806198,-1.581655,9.723931,24.887470,-2.773924,-34.151817,-10.448744,-3.447106,-61.009975,0.856227,-0.093621,0.020394,-0.507636
829,0.819245,-1.467022,9.738000,22.832451,-1.898606,-32.996197,-9.585422,-3.718278,-62.100525,0.851872,-0.088217,0.015375,-0.516038
830,0.822602,-1.345070,9.743320,22.210949,-0.917063,-31.831982,-8.763998,-3.936958,-63.161903,0.847535,-0.082988,0.010813,-0.524100
831,0.632920,-1.198969,9.650486,20.810438,0.115663,-30.090527,-7.975536,-4.100370,-64.183426,0.843285,-0.077840,0.006688,-0.531758
832,0.549014,-1.133231,9.694841,17.767773,1.181979,-26.391010,-7.264770,-4.203772,-65.121742,0.839311,-0.073060,0.003225,-0.538711
833,0.622778,-1.136300,9.703538,13.848434,1.529993,-22.352755,-6.677900,-4.257546,-65.935806,0.835796,-0.069010,0.000561,-0.544686
834,0.557373,-1.115138,9.730138,11.095339,2.260475,-18.897068,-6.210756,-4.272012,-66.627922,0.832758,-0.065680,-0.001369,-0.549726
835,0.598671,-1.120568,9.722705,7.852235,2.348695,-15.722427,-5.851643,-4.256279,-67.211418,0.830158,-0.063009,-0.002656,-0.553950
836,0.643956,-1.139519,9.718148,4.796946,2.668721,-13.083404,-5.604827,-4.221056,-67.698792,0.827946,-0.061066,-0.003334,-0.557464
837,0.687402,-1.127912,9.711318,1.518835,2.619385,-11.035229,-5.469611,-4.172190,-68.108513,0.826043,-0.059865,-0.003424,-0.560408
838,0.736128,-1.095165,9.785271,-1.097426,2.458735,-9.991957,-5.436723,-4.121324,-68.466362,0.824331,-0.059390,-0.003032,-0.562976
839,0.735577,-1.121379,9.799662,-4.037059,1.642969,-9.449313,-5.498695,-4.084215,-68.796272,0.822693,-0.059662,-0.002288,-0.565342
840,0.786234,-1.133859,9.807238,-10.030862,0.400386,-10.704199,-5.709037,-4.083196,-69.134750,0.820909,-0.061170,-0.001062,-0.567772
841,0.783213,-1.189906,9.839728,-15.089018,-0.593551,-12.046055,-6.100622,-4.125534,-69.512566,0.818797,-0.064181,0.000786,-0.570484
842,0.722293,-1.288316,9.880667,-18.879374,-1.197200,-13.463515,-6.636199,-4.202453,-69.932907,0.816348,-0.068377,0.003152,-0.573490
843,0.725620,-1.366437,9.850422,-23.020370,-2.201188,-14.673851,-7.300331,-4.315623,-70.392776,0.813564,-0.073646,0.005963,-0.576762
844,0.856961,-1.396927,9.807206,-24.851210,-3.027911,-14.957065,-8.061420,-4.468071,-70.871925,0.810542,-0.079772,0.009041,-0.580151
845,0.830756,-1.488531,9.810679,-25.602108,-2.860649,-14.016804,-8.865344,-4.636258,-71.336578,0.807491,-0.086252,0.012267,-0.583412
846,0.895274,-1.565747,9.792630,-23.909994,-2.286939,-11.636872,-9.656839,-4.789812,-71.746094,0.804675,-0.092546,0.015541,-0.586252
847,0.992051,-1.697898,9.769268,-22.856754,-2.370235,-9.347520,-10.408120,-4.927245,-72.078087,0.802245,-0.098462,0.018699,-0.588522
848,1.003739,-1.788676,9.736794,-17.956381,-1.772090,-6.467713,-11.066819,-5.044279,-72.325104,0.800302,-0.103620,0.021482,-0.590185
849,0.897400,-1.874728,9.653365,-11.443297,-0.964233,-2.994526,-11.543837,-5.119959,-72.471352,0.799047,-0.107305,0.023544,-0.591147
850,0.952498,-1.816907,9.632540,-0.756364,0.100203,1.780288,-11.745644,-5.138195,-72.488335,0.798754,-0.108801,0.024473,-0.591232
851,1.160444,-1.747869,9.599759,12.001088,-0.011463,6.680760,-11.570583,-5.108303,-72.349953,0.799657,-0.107457,0.023650,-0.590289
852,1.140665,-1.654039,9.607738,26.077223,1.346693,12.237285,-10.962987,-5.024940,-72.043877,0.801857,-0.102847,0.020831,-0.588230
853,1.063129,-1.528436,9.539520,38.785263,1.945995,17.731451,-9.923690,-4.880518,-71.560883,0.805337,-0.094905,0.016112,-0.584949
854,0.831863,-1.544340,10.001345,45.802940,3.625764,21.653332,-8.567028,-4.683461,-70.925812,0.809767,-0.084425,0.010111,-0.580558
855,0.807697,-1.430446,10.028357,46.385468,2.382909,20.521688,-7.085557,-4.488531,-70.241196,0.814362,-0.072991,0.003553,-0.575739
856,0.547085,-1.285468,10.070647,39.845844,1.569715,17.050720,-5.696288,-4.353531,-69.624367,0.818344,-0.062424,-0.002800,-0.571321
857,0.529672,-1.064779,10.055717,30.891455,1.099139,12.877637,-4.554692,-4.264744,-69.130180,0.821423,-0.053793,-0.008087,-0.567719
858,0.612773,-0.935598,10.162725,20.920036,0.296172,7.804006,-3.716632,-4.216729,-68.787140,0.823511,-0.047511,-0.012037,-0.565180
859,0.888152,-0.589422,9.795405,14.188894,-1.576171,2.728067,-3.144558,-4.227587,-68.610146,0.824605,-0.043430,-0.015003,-0.563840
860,0.876251,-0.493113,9.820391,11.010446,-1.548774,1.021638,-2.729457,-4.276523,-68.544792,0.825060,-0.040673,-0.017421,-0.563311
861,0.900298,-0.444372,9.868673,9.467549,-1.183238,-0.442317,-2.389046,-4.321616,-68.533066,0.825218,-0.038441,-0.019424,-0.563170
862,0.890426,-0.368193,9.871811,8.947869,-0.749990,-1.699265,-2.079519,-4.355239,-68.567581,0.825137,-0.036383,-0.021176,-0.563363
863,0.874028,-0.295347,9.899180,8.558435,-0.303760,-2.432769,-1.782544,-4.375142,-68.636009,0.824885,-0.034356,-0.022759,-0.563797
864,0.819037,-0.225258,9.937423,8.383488,0.177986,-2.457577,-1.493951,-4.379585,-68.717674,0.824565,-0.032317,-0.024188,-0.564325
865,0.780732,-0.170299,9.912379,8.273997,0.465735,-2.136562,-1.210454,-4.370668,-68.794701,0.824266,-0.030250,-0.025499,-0.564819
866,0.751168,-0.102050,9.900236,8.508022,0.507836,-1.240743,-0.926440,-4.355489,-68.851456,0.824063,-0.028146,-0.026776,-0.565164
867,0.758850,-0.078502,9.901404,7.954473,0.305147,-0.173097,-0.650262,-4.342245,-68.875275,0.824015,-0.026100,-0.028037,-0.565271
868,0.744798,-0.048531,9.881679,7.554803,0.159430,0.717548,-0.392460,-4.334400,-68.866241,0.824119,-0.024205,-0.029255,-0.565143
869,0.762673,-0.035542,9.876188,6.798737,0.017908,1.206173,-0.155664,-4.331275,-68.834106,0.824326,-0.022478,-0.030406,-0.564851
870,0.796484,-0.007624,9.881798,6.555635,-0.086086,1.565957,0.063407,-4.332363,-68.787758,0.824596,-0.020895,-0.031502,-0.564458
871,0.854553,0.007786,9.862692,5.909869,-0.193694,1.422012,0.267391,-4.337162,-68.737831,0.824876,-0.019437,-0.032550,-0.564041
872,0.853137,0.029307,9.882137,5.322636,-0.208693,1.014055,0.451520,-4.344123,-68.697151,0.825105,-0.018134,-0.033513,-0.563693
873,0.879198,0.041742,9.874748,4.862631,-0.253474,0.749739,0.619044,-4.352104,-68.667747,0.825273,-0.016958,-0.034399,-0.563430
874,0.862066,0.077648,9.863509,3.953723,-0.259845,0.776214,0.764053,-4.360968,-68.642342,0.825417,-0.015949,-0.035179,-0.563201
875,0.860937,0.025405,9.868430,2.569755,-0.618680,1.041205,0.870480,-4.376039,-68.612175,0.825576,-0.015247,-0.035815,-0.562947
876,0.786417,0.060147,9.830485,2.618043,-0.215326,1.662114,0.953506,-4.390649,-68.567207,0.825804,-0.014707,-0.036333,-0.562593
877,0.812263,0.057826,9.793483,1.350522,-0.521844,2.867093,1.013863,-4.404226,-68.491722,0.826179,-0.014314,-0.036737,-0.562027
878,0.704304,0.065927,9.816088,-0.050135,-0.144198,4.435062,1.026164,-4.417479,-68.369881,0.826775,-0.014251,-0.036908,-0.561140
