seq,ax,ay,az,wroll,wpitch,wyaw,roll,pitch,yaw,q0,q1,q2,q3
2874,0.047173,-0.089431,9.914555,0.009777,-0.131702,-0.076029,-0.516804,-0.272596,0.002459,0.999987,-0.004510,-0.002379,0.000011
2876,0.031015,-0.139438,9.917021,-0.160119,-0.025398,-0.084773,-0.519297,-0.275239,-0.000197,0.999987,-0.004532,-0.002402,-0.000013
2877,0.030694,-0.126632,9.918430,-0.106826,-0.027617,-0.075769,-0.523733,-0.276147,-0.002865,0.999987,-0.004570,-0.002410,-0.000036
2878,0.035469,-0.132600,9.917326,-0.128215,-0.028674,-0.086493,-0.527637,-0.277109,-0.005561,0.999987,-0.004605,-0.002418,-0.000060
2879,0.039186,-0.134495,9.919206,-0.119700,-0.034267,-0.081987,-0.531756,-0.278184,-0.008359,0.999986,-0.004641,-0.002427,-0.000084
2880,0.034431,-0.134720,9.916589,-0.124746,-0.010805,-0.074225,-0.535817,-0.278960,-0.010955,0.999986,-0.004676,-0.002434,-0.000107
2881,0.033081,-0.126697,9.919317,-0.087455,0.001223,-0.063621,-0.539343,-0.279141,-0.013251,0.999986,-0.004707,-0.002435,-0.000127
2882,0.024376,-0.132432,9.921824,-0.126781,0.028107,-0.072462,-0.542902,-0.278674,-0.015524,0.999986,-0.004738,-0.002431,-0.000147
2883,0.027583,-0.122359,9.922340,-0.093048,0.011119,-0.066593,-0.546555,-0.278042,-0.017847,0.999986,-0.004770,-0.002426,-0.000167
2884,0.028655,-0.121641,9.922117,-0.099998,0.015452,-0.068165,-0.549761,-0.277621,-0.020098,0.999986,-0.004798,-0.002422,-0.000187
2885,0.025082,-0.127731,9.926526,-0.102249,0.008926,-0.077142,-0.553120,-0.277238,-0.022523,0.999985,-0.004827,-0.002418,-0.000208
2886,0.030965,-0.126468,9.924581,-0.100231,-0.009669,-0.084958,-0.556482,-0.277276,-0.025225,0.999985,-0.004857,-0.002419,-0.000232
2887,0.033434,-0.128536,9.921618,-0.088025,-0.016713,-0.068216,-0.559607,-0.277741,-0.027773,0.999985,-0.004884,-0.002423,-0.000254
2888,0.030230,-0.138381,9.920619,-0.104455,-0.007147,-0.064936,-0.562804,-0.278160,-0.029988,0.999985,-0.004912,-0.002426,-0.000274
2889,0.030304,-0.141535,9.918579,-0.115345,-0.016222,-0.072524,-0.566457,-0.278572,-0.032276,0.999985,-0.004944,-0.002430,-0.000294
2890,0.034246,-0.140067,9.918044,-0.109551,-0.018157,-0.071131,-0.570193,-0.279169,-0.034664,0.999985,-0.004977,-0.002435,-0.000315
2891,0.027684,-0.146910,9.922762,-0.132081,-0.001822,-0.072372,-0.574209,-0.279526,-0.037052,0.999984,-0.005012,-0.002438,-0.000336
2892,0.028920,-0.142686,9.924341,-0.121130,-0.005082,-0.072468,-0.578417,-0.279665,-0.039465,0.999984,-0.005048,-0.002439,-0.000357
2893,0.026944,-0.139459,9.925261,-0.120596,-0.003761,-0.073985,-0.582434,-0.279837,-0.041904,0.999984,-0.005084,-0.002440,-0.000378
2894,0.023867,-0.139074,9.922071,-0.122407,0.006842,-0.064747,-0.586473,-0.279809,-0.044217,0.999984,-0.005119,-0.002440,-0.000398
2895,0.020936,-0.134133,9.920922,-0.097218,0.013907,-0.061680,-0.590123,-0.279485,-0.046328,0.999984,-0.005151,-0.002437,-0.000417
2896,0.023756,-0.135613,9.917964,-0.089291,0.002681,-0.066324,-0.593221,-0.279231,-0.048464,0.999984,-0.005178,-0.002435,-0.000436
2897,0.019980,-0.137563,9.915611,-0.095193,0.021229,-0.081446,-0.596284,-0.278858,-0.050931,0.999983,-0.005205,-0.002431,-0.000457
2898,0.022950,-0.144487,9.915922,-0.090979,0.015671,-0.082966,-0.599373,-0.278271,-0.053677,0.999983,-0.005232,-0.002426,-0.000481
2899,0.027673,-0.147195,9.915291,-0.092950,0.001862,-0.083076,-0.602425,-0.278008,-0.056447,0.999983,-0.005258,-0.002423,-0.000505
2900,0.026936,-0.148587,9.917932,-0.094059,-0.003630,-0.090668,-0.605528,-0.278068,-0.059343,0.999983,-0.005285,-0.002424,-0.000531
2901,0.027515,-0.150243,9.912523,-0.114571,-0.002142,-0.083033,-0.608991,-0.278195,-0.062237,0.999983,-0.005316,-0.002425,-0.000556
2902,0.035294,-0.145985,9.917715,-0.099038,-0.035088,-0.072652,-0.612539,-0.278843,-0.064825,0.999983,-0.005347,-0.002430,-0.000579
2903,0.037506,-0.141288,9.917624,-0.097656,-0.041085,-0.072786,-0.615805,-0.280139,-0.067235,0.999982,-0.005375,-0.002441,-0.000600
2904,0.032968,-0.132135,9.924268,-0.063405,-0.027191,-0.066668,-0.618478,-0.281302,-0.069547,0.999982,-0.005399,-0.002452,-0.000620
2905,0.035304,-0.135817,9.923837,-0.091180,-0.021065,-0.052949,-0.621045,-0.282127,-0.071532,0.999982,-0.005421,-0.002459,-0.000638
2906,0.035511,-0.131116,9.929976,-0.065564,-0.007375,-0.051494,-0.623649,-0.282620,-0.073267,0.999982,-0.005444,-0.002463,-0.000653
2907,0.026456,-0.132586,9.927526,-0.067209,0.025179,-0.055766,-0.625853,-0.282343,-0.075058,0.999982,-0.005463,-0.002460,-0.000668
2908,0.026062,-0.129456,9.926787,-0.063340,0.032407,-0.060379,-0.628019,-0.281405,-0.077004,0.999982,-0.005482,-0.002452,-0.000685
2909,0.028944,-0.132583,9.921063,-0.067051,0.023697,-0.071113,-0.630182,-0.280494,-0.079206,0.999982,-0.005501,-0.002444,-0.000705
2910,0.027291,-0.126674,9.921864,-0.044423,0.023561,-0.084886,-0.632027,-0.279735,-0.081814,0.999982,-0.005517,-0.002437,-0.000727
2911,0.024856,-0.124737,9.922538,-0.030348,0.015087,-0.097048,-0.633258,-0.279124,-0.084853,0.999982,-0.005528,-0.002432,-0.000754
2912,0.028028,-0.129674,9.923571,-0.036417,-0.000344,-0.101661,-0.634355,-0.278915,-0.088168,0.999981,-0.005538,-0.002430,-0.000783
2913,0.023857,-0.138954,9.922673,-0.055202,0.004083,-0.095295,-0.635866,-0.278889,-0.091451,0.999981,-0.005551,-0.002429,-0.000812
2914,0.019521,-0.139835,9.925007,-0.073849,0.025909,-0.101247,-0.638001,-0.278426,-0.094732,0.999981,-0.005570,-0.002425,-0.000840
2915,0.029047,-0.141184,9.922411,-0.078481,0.007458,-0.090855,-0.640524,-0.277905,-0.097940,0.999981,-0.005592,-0.002420,-0.000868
2916,0.027581,-0.144262,9.918897,-0.106274,0.023723,-0.084666,-0.643589,-0.277418,-0.100871,0.999981,-0.005618,-0.002416,-0.000894
2917,0.028199,-0.150039,9.923381,-0.127539,0.024900,-0.080034,-0.647473,-0.276639,-0.103625,0.999981,-0.005652,-0.002409,-0.000918
2918,0.033535,-0.143667,9.921173,-0.107501,0.013764,-0.077253,-0.651377,-0.276024,-0.106253,0.999981,-0.005687,-0.002403,-0.000941
2919,0.031358,-0.142544,9.921372,-0.096371,0.012203,-0.069577,-0.654763,-0.275620,-0.108705,0.999980,-0.005716,-0.002400,-0.000962
2920,0.023190,-0.143153,9.923154,-0.090430,0.026557,-0.064728,-0.657866,-0.274999,-0.110951,0.999980,-0.005743,-0.002394,-0.000982
2921,0.027332,-0.146111,9.921428,-0.070202,0.005251,-0.069407,-0.660532,-0.274495,-0.113193,0.999980,-0.005767,-0.002390,-0.001002
2922,0.028470,-0.142073,9.913125,-0.072988,-0.002820,-0.066454,-0.662908,-0.274480,-0.115457,0.999980,-0.005787,-0.002389,-0.001021
2923,0.023357,-0.132596,9.917709,-0.041321,0.012103,-0.067941,-0.664802,-0.274352,-0.117699,0.999980,-0.005804,-0.002388,-0.001041
2924,0.025995,-0.140118,9.916690,-0.063789,0.001492,-0.074030,-0.666543,-0.274153,-0.120068,0.999980,-0.005819,-0.002386,-0.001062
2925,0.029365,-0.142372,9.917961,-0.069526,-0.005165,-0.086322,-0.668752,-0.274245,-0.122739,0.999980,-0.005838,-0.002387,-0.001085
2926,0.028632,-0.140992,9.917583,-0.072232,-0.001372,-0.081739,-0.671101,-0.274387,-0.125539,0.999979,-0.005859,-0.002388,-0.001110
2927,0.027874,-0.139717,9.919013,-0.059828,0.013218,-0.084784,-0.673289,-0.274222,-0.128316,0.999979,-0.005878,-0.002386,-0.001134
2928,0.030586,-0.153052,9.918612,-0.091326,0.000828,-0.096900,-0.675794,-0.274023,-0.131347,0.999979,-0.005900,-0.002385,-0.001160
2929,0.030562,-0.150382,9.917641,-0.088713,0.008516,-0.090837,-0.678779,-0.273905,-0.134478,0.999979,-0.005926,-0.002383,-0.001188
2930,0.029047,-0.151010,9.915204,-0.106119,0.008337,-0.072468,-0.682014,-0.273656,-0.137203,0.999979,-0.005954,-0.002381,-0.001212
2931,0.031106,-0.147340,9.918487,-0.104624,-0.006762,-0.075646,-0.685514,-0.273659,-0.139671,0.999978,-0.005985,-0.002381,-0.001233
2932,0.032359,-0.144626,9.920431,-0.101217,-0.016373,-0.071152,-0.688933,-0.274074,-0.142113,0.999978,-0.006015,-0.002384,-0.001255
2933,0.031685,-0.132754,9.922319,-0.085109,-0.017165,-0.057561,-0.692028,-0.274659,-0.144252,0.999978,-0.006042,-0.002389,-0.001273
2934,0.035379,-0.132674,9.923832,-0.065036,-0.021336,-0.059216,-0.694521,-0.275324,-0.146190,0.999978,-0.006064,-0.002395,-0.001290
2935,0.035794,-0.136854,9.924090,-0.078981,-0.020603,-0.079009,-0.696911,-0.276051,-0.148485,0.999978,-0.006085,-0.002401,-0.001310
2936,0.037168,-0.137663,9.920984,-0.071186,-0.025699,-0.066837,-0.699402,-0.276852,-0.150906,0.999978,-0.006107,-0.002408,-0.001332
2937,0.037300,-0.145354,9.919317,-0.092334,-0.024111,-0.078939,-0.702115,-0.277712,-0.153326,0.999977,-0.006130,-0.002415,-0.001353
2938,0.038449,-0.149989,9.918987,-0.093845,-0.034574,-0.078912,-0.705206,-0.278723,-0.155944,0.999977,-0.006157,-0.002424,-0.001376
2939,0.035669,-0.148412,9.919053,-0.097058,-0.030555,-0.074254,-0.708375,-0.279839,-0.158483,0.999977,-0.006185,-0.002433,-0.001398
2940,0.032631,-0.149143,9.922736,-0.092998,-0.022633,-0.066502,-0.711531,-0.280755,-0.160818,0.999977,-0.006213,-0.002441,-0.001419
2941,0.025153,-0.150188,9.927062,-0.085246,0.019394,-0.069268,-0.714491,-0.280837,-0.163080,0.999977,-0.006239,-0.002442,-0.001438
2942,0.023868,-0.149246,9.932219,-0.071821,0.014162,-0.067709,-0.717097,-0.280306,-0.165370,0.999976,-0.006261,-0.002437,-0.001458
2943,0.022113,-0.144850,9.933261,-0.060982,0.028268,-0.076869,-0.719299,-0.279629,-0.167788,0.999976,-0.006281,-0.002431,-0.001480
2944,0.022611,-0.142017,9.937601,-0.054693,0.026674,-0.072354,-0.721215,-0.278745,-0.170287,0.999976,-0.006297,-0.002423,-0.001501
2945,0.022572,-0.135873,9.934212,-0.031664,0.034100,-0.073971,-0.722642,-0.277763,-0.172738,0.999976,-0.006310,-0.002414,-0.001523
2946,0.025476,-0.128144,9.933042,-0.010276,0.020790,-0.080295,-0.723329,-0.276881,-0.175321,0.999976,-0.006316,-0.002407,-0.001545
2947,0.029517,-0.125739,9.933108,-0.013685,0.016446,-0.080480,-0.723715,-0.276294,-0.178008,0.999976,-0.006319,-0.002401,-0.001569
2948,0.029944,-0.135531,9.929645,-0.041894,0.008892,-0.075784,-0.724629,-0.275905,-0.180617,0.999976,-0.006327,-0.002398,-0.001591
2949,0.030028,-0.139616,9.927728,-0.106775,0.000912,-0.092518,-0.727093,-0.275777,-0.183424,0.999976,-0.006349,-0.002396,-0.001616
2950,0.033354,-0.145144,9.926958,-0.196389,-0.013241,-0.089514,-0.732131,-0.276021,-0.186455,0.999975,-0.006393,-0.002398,-0.001642
2951,0.031856,-0.156702,9.925753,-0.254879,-0.014825,-0.090830,-0.739638,-0.276527,-0.189455,0.999975,-0.006458,-0.002402,-0.001669
2952,0.025595,-0.147446,9.918386,-0.157736,0.002026,-0.086152,-0.746500,-0.276779,-0.192402,0.999974,-0.006518,-0.002404,-0.001695
2953,0.026675,-0.138699,9.918025,-0.106255,0.005261,-0.090898,-0.750886,-0.276696,-0.195354,0.999974,-0.006557,-0.002403,-0.001721
2954,0.024869,-0.134221,9.914125,-0.031810,0.012061,-0.064955,-0.753174,-0.276441,-0.197955,0.999974,-0.006577,-0.002401,-0.001743
2955,0.025383,-0.135962,9.913415,0.022231,0.013626,-0.068005,-0.753323,-0.276042,-0.200176,0.999974,-0.006578,-0.002397,-0.001763
2956,0.031918,-0.135810,9.917390,-0.039692,-0.003781,-0.059101,-0.753604,-0.275906,-0.202297,0.999974,-0.006581,-0.002396,-0.001781
2957,0.034545,-0.150261,9.924099,-0.171095,-0.009759,-0.054423,-0.757108,-0.276157,-0.204186,0.999974,-0.006611,-0.002398,-0.001798
2958,0.031422,-0.149739,9.924041,-0.109964,0.008620,-0.061943,-0.761783,-0.276201,-0.206125,0.999973,-0.006652,-0.002398,-0.001815
2959,0.034310,-0.152117,9.925665,-0.141997,0.001936,-0.084915,-0.765971,-0.276058,-0.208575,0.999973,-0.006689,-0.002397,-0.001836
2960,0.033763,-0.147934,9.926248,-0.170636,-0.002576,-0.081907,-0.771168,-0.276106,-0.211355,0.999973,-0.006734,-0.002397,-0.001861
2961,0.029042,-0.149157,9.930744,-0.189772,0.006626,-0.095447,-0.777160,-0.276079,-0.214311,0.999972,-0.006786,-0.002396,-0.001887
2962,0.029259,-0.138219,9.929879,-0.054607,0.003036,-0.098666,-0.781218,-0.275962,-0.217548,0.999972,-0.006822,-0.002395,-0.001915
2963,0.031849,-0.137800,9.932817,-0.078736,-0.011996,-0.092676,-0.783425,-0.276154,-0.220735,0.999972,-0.006841,-0.002397,-0.001943
2964,0.032096,-0.137567,9.932098,-0.121253,-0.015579,-0.092689,-0.786743,-0.276656,-0.223818,0.999972,-0.006870,-0.002401,-0.001970
2965,0.031883,-0.140821,9.933428,-0.109104,-0.008506,-0.104844,-0.790567,-0.277103,-0.227104,0.999971,-0.006904,-0.002404,-0.001998
2966,0.031322,-0.138076,9.927989,-0.180385,-0.002041,-0.100283,-0.795375,-0.277326,-0.230520,0.999971,-0.006946,-0.002406,-0.002028
2967,0.034402,-0.138058,9.922019,-0.295670,-0.006210,-0.095834,-0.803293,-0.277509,-0.233787,0.999970,-0.007015,-0.002407,-0.002057
2968,0.036613,-0.146769,9.918465,-0.388749,-0.018570,-0.103442,-0.814684,-0.277969,-0.237102,0.999970,-0.007114,-0.002411,-0.002086
2969,0.036554,-0.142003,9.917850,-0.288468,-0.018110,-0.098945,-0.825955,-0.278629,-0.240466,0.999969,-0.007213,-0.002416,-0.002116
2970,0.036658,-0.153553,9.913541,-0.278265,-0.013482,-0.095750,-0.835385,-0.279202,-0.243703,0.999968,-0.007295,-0.002421,-0.002144
2971,0.037371,-0.143653,9.912566,-0.151936,-0.010622,-0.092880,-0.842539,-0.279650,-0.246841,0.999968,-0.007358,-0.002424,-0.002172
2973,0.038085,-0.154676,9.915497,-0.201461,-0.038309,-0.103446,-0.848413,-0.280514,-0.250100,0.999967,-0.007409,-0.002432,-0.002201
2974,0.043439,-0.169118,9.915869,-0.138073,-0.047188,-0.098896,-0.854056,-0.281988,-0.253451,0.999967,-0.007458,-0.002444,-0.002230
2975,0.042075,-0.179121,9.920568,-0.205252,-0.037843,-0.098694,-0.859762,-0.283455,-0.256723,0.999966,-0.007508,-0.002457,-0.002259
2976,0.040365,-0.163880,9.924598,-0.365868,-0.050391,-0.078998,-0.869266,-0.284970,-0.259662,0.999966,-0.007591,-0.002470,-0.002285
2977,0.041474,-0.183870,9.925508,-0.605053,-0.106183,-0.042143,-0.885438,-0.287610,-0.261641,0.999964,-0.007733,-0.002492,-0.002303
2978,0.038153,-0.183142,9.922193,-0.647106,-0.090682,-0.005391,-0.906303,-0.290903,-0.262382,0.999963,-0.007915,-0.002520,-0.002310
2979,0.028467,-0.175766,9.921638,-0.780353,-0.073193,0.028507,-0.930097,-0.293628,-0.261953,0.999961,-0.008122,-0.002544,-0.002307
2980,0.030985,-0.174678,9.920476,-0.815825,-0.095773,0.029891,-0.956705,-0.296428,-0.260933,0.999959,-0.008355,-0.002568,-0.002299
2981,0.037327,-0.191081,9.920750,-0.743154,-0.132419,0.002348,-0.982691,-0.300221,-0.260331,0.999957,-0.008581,-0.002600,-0.002294
2982,0.033936,-0.179628,9.920180,-0.227247,-0.027564,-0.052600,-0.998860,-0.302902,-0.261123,0.999956,-0.008723,-0.002623,-0.002302
2983,0.038894,-0.180711,9.918223,0.011026,0.009888,-0.089456,-1.002452,-0.303237,-0.263485,0.999956,-0.008754,-0.002626,-0.002322
2984,0.041716,-0.181209,9.922614,0.144325,0.029499,-0.127743,-0.999843,-0.302644,-0.267116,0.999956,-0.008731,-0.002621,-0.002354
2985,0.039413,-0.178350,9.921601,0.496043,0.095417,-0.142928,-0.989146,-0.300641,-0.271663,0.999956,-0.008638,-0.002603,-0.002393
2986,0.032947,-0.154492,9.922634,0.976219,0.174221,-0.142962,-0.964584,-0.296229,-0.276503,0.999958,-0.008424,-0.002565,-0.002435
2987,0.035671,-0.155176,9.917141,0.961799,0.136729,-0.127818,-0.932260,-0.291122,-0.281102,0.999961,-0.008142,-0.002520,-0.002474
2988,0.030337,-0.155363,9.921624,0.931618,0.131410,-0.110760,-0.900682,-0.286717,-0.285149,0.999963,-0.007866,-0.002482,-0.002508
2989,0.027400,-0.147993,9.918421,0.950741,0.124050,-0.092405,-0.869293,-0.282512,-0.288600,0.999965,-0.007592,-0.002446,-0.002537
2990,0.030761,-0.146198,9.916308,0.740279,0.069613,-0.075779,-0.841095,-0.279326,-0.291451,0.999967,-0.007346,-0.002419,-0.002561
2991,0.035305,-0.153099,9.915564,0.408650,0.041244,-0.057542,-0.821935,-0.277511,-0.293700,0.999968,-0.007179,-0.002403,-0.002580
2992,0.032125,-0.145557,9.921031,0.317293,0.038976,-0.065125,-0.809826,-0.276203,-0.295763,0.999969,-0.007073,-0.002392,-0.002598
2993,0.030378,-0.132323,9.921089,0.321993,0.040411,-0.086589,-0.799159,-0.274916,-0.298310,0.999969,-0.006980,-0.002381,-0.002620
2994,0.031138,-0.124641,9.919036,0.331197,0.039179,-0.105029,-0.788257,-0.273634,-0.301522,0.999970,-0.006885,-0.002370,-0.002648
2995,0.027176,-0.123673,9.918480,0.264509,0.047028,-0.120133,-0.778311,-0.272248,-0.305294,0.999971,-0.006798,-0.002358,-0.002680
2996,0.025100,-0.128838,9.917852,0.247702,0.044817,-0.156597,-0.769752,-0.270780,-0.309926,0.999971,-0.006724,-0.002345,-0.002720
2997,0.030804,-0.131191,9.915190,0.309793,0.030748,-0.208665,-0.760432,-0.269602,-0.316030,0.999971,-0.006642,-0.002334,-0.002773
2998,0.033290,-0.128470,9.914746,0.337406,0.010851,-0.239307,-0.749610,-0.269007,-0.323505,0.999972,-0.006548,-0.002329,-0.002838
2999,0.033215,-0.128551,9.920168,0.162600,0.020056,-0.257600,-0.741238,-0.268600,-0.331793,0.999972,-0.006475,-0.002325,-0.002911
3000,0.038226,-0.120757,9.922530,0.147456,0.016154,-0.292977,-0.736027,-0.268115,-0.340976,0.999972,-0.006430,-0.002321,-0.002991
3001,0.034314,-0.097677,9.921803,0.098645,0.022678,-0.320603,-0.731878,-0.267599,-0.351210,0.999972,-0.006394,-0.002316,-0.003080
3002,0.033856,-0.102089,9.924697,-0.495775,-0.009728,-0.349515,-0.738444,-0.267526,-0.362381,0.999971,-0.006451,-0.002314,-0.003177
3003,0.059246,-0.270124,9.924706,-1.404917,-0.044883,-1.887864,-0.769948,-0.268928,-0.399656,0.999969,-0.006727,-0.002323,-0.003503
3004,0.047451,-0.214554,9.914843,-0.364149,0.234478,-8.395043,-0.798629,-0.268113,-0.571067,0.999960,-0.006981,-0.002305,-0.005000
3005,0.040952,-0.234835,9.911519,-0.680173,0.318424,-10.900267,-0.814544,-0.263399,-0.892754,0.999942,-0.007126,-0.002243,-0.007807
3006,0.044376,-0.254915,9.909821,-0.675529,0.353487,-12.551286,-0.835361,-0.257833,-1.283734,0.999908,-0.007315,-0.002168,-0.011219
3007,0.041101,-0.256519,9.905667,-0.160737,0.419509,-13.912379,-0.847337,-0.251425,-1.724935,0.999857,-0.007427,-0.002082,-0.015068
3008,0.014695,-0.100497,9.904704,0.426029,0.512589,-14.872902,-0.840846,-0.242942,-2.204863,0.999785,-0.007377,-0.001978,-0.019255
3009,0.030026,-0.158688,9.912951,-0.552195,0.335912,-11.912589,-0.841087,-0.235334,-2.651443,0.999703,-0.007385,-0.001883,-0.023151
3010,0.037329,-0.154441,9.917893,-0.542783,0.366137,-13.631098,-0.857605,-0.229977,-3.077294,0.999609,-0.007535,-0.001805,-0.026865
3011,0.039478,-0.174970,9.922077,-0.805277,0.469386,-17.043011,-0.878047,-0.223794,-3.588677,0.999478,-0.007720,-0.001712,-0.031326
3012,0.043959,-0.169994,9.922388,-0.973088,0.640471,-22.049833,-0.905188,-0.215441,-4.240422,0.999282,-0.007963,-0.001586,-0.037010
3013,0.040332,-0.169933,9.924491,-1.010070,0.794732,-26.046209,-0.935303,-0.204396,-5.042275,0.998997,-0.008233,-0.001423,-0.044001
3014,0.032930,-0.194304,9.921280,-1.230288,0.914928,-29.337294,-0.969455,-0.191241,-5.965629,0.998607,-0.008535,-0.001226,-0.052049
3015,0.033514,-0.183940,9.920423,-0.932725,1.007916,-32.055202,-1.002217,-0.176810,-6.989165,0.998100,-0.008824,-0.001007,-0.060965
3016,0.030060,-0.168297,9.920203,-0.364735,1.063391,-32.952564,-1.020642,-0.161390,-8.072974,0.997478,-0.008984,-0.000778,-0.070401
3017,0.021813,-0.172395,9.922594,-0.062929,1.060233,-32.360275,-1.024856,-0.145387,-9.161878,0.996764,-0.009016,-0.000550,-0.079875
3018,0.027337,-0.156690,9.923140,0.598351,0.949205,-30.183191,-1.013424,-0.130419,-10.204602,0.995997,-0.008910,-0.000347,-0.088941
3019,0.034851,-0.108849,9.920393,1.434776,0.770104,-25.718937,-0.977517,-0.117905,-11.136583,0.995244,-0.008590,-0.000196,-0.097037
3020,0.030928,-0.134658,9.918454,1.077185,0.641087,-21.877928,-0.934089,-0.107554,-11.930095,0.994551,-0.008205,-0.000086,-0.103926
3021,0.032213,-0.122885,9.917485,0.462428,0.587059,-21.113535,-0.907139,-0.098609,-12.646825,0.993884,-0.007963,0.000017,-0.110144
3022,0.040317,-0.113519,9.920021,-0.024601,0.527945,-20.575209,-0.898690,-0.091008,-13.341815,0.993198,-0.007882,0.000122,-0.116169
3023,0.040843,-0.135377,9.921647,-0.912650,0.549808,-21.127556,-0.913246,-0.084062,-14.037032,0.992474,-0.007999,0.000246,-0.122192
3024,0.035680,-0.173384,9.926342,-1.913999,0.645299,-23.971640,-0.959303,-0.076472,-14.788879,0.991648,-0.008388,0.000416,-0.128700
3025,0.037690,-0.168363,9.923234,-1.858549,0.712750,-25.921976,-1.021128,-0.068258,-15.620667,0.990683,-0.008909,0.000621,-0.135894
3026,0.043761,-0.182444,9.923377,-1.395869,0.691834,-25.662909,-1.074400,-0.060561,-16.480644,0.989631,-0.009355,0.000821,-0.143324
3027,0.040593,-0.194039,9.921659,-1.326320,0.698711,-25.827696,-1.118910,-0.053787,-17.339060,0.988526,-0.009723,0.001008,-0.150732
3028,0.041759,-0.206022,9.918937,-1.421186,0.727060,-26.343603,-1.163932,-0.047345,-18.208824,0.987350,-0.010094,0.001199,-0.158230
3029,0.048250,-0.212323,9.915455,-1.116023,0.750073,-26.531693,-1.205539,-0.040957,-19.090349,0.986100,-0.010434,0.001392,-0.165820
3030,0.048073,-0.208138,9.915321,-0.844185,0.758568,-26.946875,-1.237619,-0.034801,-19.981934,0.984777,-0.010689,0.001575,-0.173486
3031,0.045792,-0.201649,9.917555,-1.104847,0.812928,-27.728157,-1.269598,-0.028533,-20.893475,0.983363,-0.010941,0.001764,-0.181313
3032,0.051707,-0.204908,9.917911,-1.006756,0.847945,-27.514919,-1.304389,-0.021554,-21.814522,0.981871,-0.011213,0.001969,-0.189210
3033,0.048769,-0.200658,9.917968,-0.345054,0.834707,-27.015923,-1.326636,-0.014377,-22.723713,0.980337,-0.011375,0.002158,-0.196993
3034,0.046459,-0.176123,9.921242,0.424745,0.781922,-26.246855,-1.325134,-0.007939,-23.611750,0.978781,-0.011333,0.002298,-0.204584
3035,0.046764,-0.175051,9.924016,0.548917,0.751216,-25.555668,-1.308829,-0.002187,-24.475431,0.977213,-0.011166,0.002402,-0.211955
3036,0.046584,-0.219412,9.921706,0.176733,0.756865,-25.927996,-1.296744,0.003441,-25.333790,0.975599,-0.011034,0.002511,-0.219268
3037,0.046759,-0.210823,9.917714,0.460742,0.715982,-26.275948,-1.286209,0.008348,-26.204136,0.973907,-0.010915,0.002615,-0.226671
3038,0.051282,-0.184772,9.919422,0.810942,0.667522,-25.214140,-1.265167,0.012313,-27.062550,0.972183,-0.010709,0.002688,-0.233961
3039,0.051913,-0.206333,9.913218,0.470850,0.614017,-23.169434,-1.244003,0.016034,-27.869167,0.970515,-0.010503,0.002750,-0.240798
3040,0.049113,-0.217231,9.910180,-0.020121,0.595538,-23.527895,-1.236731,0.019324,-28.647667,0.968857,-0.010415,0.002833,-0.247386
3041,0.042155,-0.211813,9.905101,-0.432497,0.708308,-25.511284,-1.244577,0.023325,-29.465221,0.967067,-0.010452,0.002959,-0.254291
3042,0.035572,-0.232286,9.907921,-0.688987,0.736182,-26.217548,-1.263662,0.028501,-30.327644,0.965124,-0.010578,0.003125,-0.261561
3043,0.032129,-0.253058,9.909353,-1.254850,0.787330,-28.498735,-1.296552,0.033498,-31.239859,0.963008,-0.010818,0.003328,-0.269234
3044,0.041771,-0.222673,9.917771,-0.836053,0.846850,-30.949898,-1.332016,0.037969,-32.230961,0.960640,-0.011075,0.003545,-0.277552
3045,0.045468,-0.211150,9.924560,0.711696,0.797345,-27.199440,-1.334771,0.042849,-33.200405,0.958258,-0.011056,0.003686,-0.285668
3046,0.053512,-0.162918,9.926400,2.042683,0.478794,-19.940989,-1.289482,0.046230,-33.986309,0.956280,-0.010643,0.003674,-0.292235
3047,0.056345,-0.153769,9.928841,1.781892,0.324663,-15.450248,-1.226213,0.046770,-34.576283,0.954769,-0.010096,0.003570,-0.297156
3048,0.082113,-0.147383,9.922786,0.371277,0.222497,-15.059142,-1.190733,0.045172,-35.084843,0.953444,-0.009789,0.003508,-0.301392
3049,0.075522,-0.176984,9.918276,-2.051420,0.348311,-16.085739,-1.219134,0.043717,-35.604000,0.952066,-0.010013,0.003616,-0.305707
3050,0.065163,-0.292109,9.926672,-4.285501,0.444357,-18.449183,-1.325193,0.044057,-36.179722,0.950509,-0.010873,0.003956,-0.310483
3051,0.067339,-0.338255,9.929109,-5.642772,0.463685,-22.836676,-1.491181,0.042201,-36.867950,0.948610,-0.012229,0.004464,-0.316180
3052,0.071936,-0.355757,9.926702,-5.820407,0.527336,-26.102848,-1.682782,0.036107,-37.683720,0.946313,-0.013796,0.005041,-0.322918
3053,0.055652,-0.372142,9.924758,-4.583618,0.625556,-25.124165,-1.856659,0.028981,-38.537632,0.943858,-0.015211,0.005585,-0.329953
3054,0.056508,-0.376064,9.927554,-2.886588,0.572750,-23.926649,-1.981526,0.021629,-39.355309,0.941462,-0.016218,0.006000,-0.336675
3055,0.069516,-0.290486,9.913854,-1.856051,0.600262,-25.043186,-2.060808,0.012473,-40.171616,0.939028,-0.016852,0.006278,-0.343370
3056,0.068570,-0.249186,9.914102,-0.866747,0.783957,-24.678514,-2.106315,0.005467,-41.000549,0.936513,-0.017199,0.006482,-0.350152
3057,0.065965,-0.218505,9.915067,-0.372166,0.897221,-24.432692,-2.127037,0.003294,-41.819496,0.933983,-0.017328,0.006651,-0.356835
3058,0.068121,-0.238460,9.918164,-0.309193,1.010627,-26.471546,-2.138450,0.003526,-42.668453,0.931312,-0.017371,0.006817,-0.363744
3059,0.074041,-0.254437,9.913851,-0.261387,1.073653,-28.437462,-2.148022,0.004020,-43.584209,0.928374,-0.017391,0.006991,-0.371174
3060,0.077843,-0.250650,9.912466,-0.182019,1.107607,-29.202301,-2.155480,0.004284,-44.545486,0.925227,-0.017392,0.007164,-0.378948
3061,0.078150,-0.272638,9.912764,-0.128689,1.065318,-28.263924,-2.160732,0.004413,-45.503860,0.922024,-0.017373,0.007327,-0.386673
3062,0.082586,-0.281744,9.913348,-0.112417,1.023286,-27.505932,-2.164819,0.004124,-46.433949,0.918855,-0.017347,0.007480,-0.394143
3063,0.084293,-0.250978,9.914513,-0.068141,0.952201,-26.036627,-2.167885,0.003293,-47.326870,0.915755,-0.017315,0.007619,-0.401291
3064,0.081571,-0.253243,9.914227,-0.312475,0.982453,-26.236315,-2.174271,0.002512,-48.198616,0.912675,-0.017310,0.007767,-0.408246
3065,0.055942,-0.253972,9.913281,-0.361533,1.149309,-28.530750,-2.185552,0.003281,-49.112030,0.909390,-0.017335,0.007952,-0.415507
3066,0.063550,-0.281885,9.911798,-0.351756,1.226886,-30.403732,-2.197518,0.005292,-50.095001,0.905791,-0.017353,0.008160,-0.423291
3067,0.060443,-0.315354,9.910614,-0.379808,1.205121,-30.087675,-2.209819,0.007031,-51.103920,0.902027,-0.017371,0.008373,-0.431248
3068,0.056298,-0.344413,9.910606,-0.390596,1.139954,-28.570625,-2.222788,0.008277,-52.082260,0.898311,-0.017395,0.008580,-0.438932
3069,0.054980,-0.343108,9.917809,-0.093794,0.997218,-25.479040,-2.230995,0.008864,-52.983723,0.894829,-0.017389,0.008753,-0.445985
3070,0.081464,-0.339075,9.922860,-0.101263,0.756380,-21.611555,-2.234357,0.007510,-53.769062,0.891751,-0.017360,0.008875,-0.452107
3071,0.077300,-0.332986,9.923012,-0.301758,0.756386,-21.446411,-2.241145,0.004682,-54.487103,0.888899,-0.017368,0.008989,-0.457686
3072,0.077792,-0.323100,9.920708,-0.305202,0.862813,-23.605637,-2.251306,0.002208,-55.238415,0.885877,-0.017398,0.009124,-0.463503
3073,0.081129,-0.321062,9.920041,-0.206710,0.862268,-23.958422,-2.259853,-0.000261,-56.031628,0.882646,-0.017410,0.009261,-0.469624
3074,0.083720,-0.330007,9.915289,-0.142044,0.846471,-23.906775,-2.265640,-0.003296,-56.829842,0.879353,-0.017402,0.009382,-0.475761
3076,0.082052,-0.317560,9.919086,0.064632,0.809722,-23.140610,-2.266860,-0.006717,-57.614395,0.876074,-0.017361,0.009480,-0.481770
3077,0.083645,-0.302173,9.918235,0.397768,0.675949,-19.937809,-2.259047,-0.010313,-58.332752,0.873038,-0.017257,0.009528,-0.487254
3078,0.085690,-0.289076,9.921616,1.006716,0.588642,-15.683657,-2.235519,-0.012513,-58.926785,0.870503,-0.017038,0.009500,-0.491776
3079,0.077715,-0.258103,9.929111,1.638057,0.583591,-12.527293,-2.191346,-0.011117,-59.397366,0.868483,-0.016658,0.009389,-0.495350
3080,0.075725,-0.229613,9.931177,2.037822,0.497035,-9.188313,-2.130030,-0.006733,-59.759708,0.866922,-0.016145,0.009209,-0.498098
3081,0.074017,-0.221540,9.925223,2.288999,0.353697,-5.992768,-2.057900,-0.001783,-60.013077,0.865829,-0.015558,0.008967,-0.500018
3082,0.071294,-0.206697,9.924898,2.573804,0.168839,-3.619913,-1.976853,0.001302,-60.173485,0.865139,-0.014921,0.008658,-0.501236
3083,0.068539,-0.183691,9.927204,2.315325,-0.017401,-1.979023,-1.895369,0.000689,-60.266838,0.864741,-0.014301,0.008308,-0.501947
3084,0.072145,-0.191719,9.917528,1.752767,-0.180702,-0.968937,-1.827565,-0.004198,-60.315842,0.864534,-0.013808,0.007980,-0.502322
3085,0.071530,-0.196982,9.915359,1.598999,-0.271554,-0.410112,-1.771698,-0.012451,-60.338566,0.864440,-0.013421,0.007676,-0.502498
3086,0.071873,-0.196736,9.916329,1.487044,-0.285596,-0.312213,-1.720260,-0.022097,-60.350311,0.864394,-0.013074,0.007379,-0.502591
3087,0.076848,-0.184071,9.916389,1.507702,-0.303187,-0.248300,-1.670343,-0.032182,-60.359356,0.864359,-0.012741,0.007085,-0.502663
3088,0.086111,-0.208243,9.912758,1.781034,-0.314735,-0.231984,-1.615526,-0.042706,-60.367065,0.864331,-0.012374,0.006766,-0.502726
3089,0.084634,-0.223567,9.922407,2.117810,-0.287115,-0.258956,-1.550539,-0.052959,-60.374977,0.864302,-0.011928,0.006404,-0.502791
3090,0.084820,-0.207240,9.926831,2.183395,-0.252356,-0.260158,-1.478843,-0.062175,-60.383381,0.864272,-0.011427,0.006021,-0.502859
3091,0.085562,-0.184292,9.927755,2.168402,-0.232005,-0.229375,-1.406305,-0.070451,-60.391346,0.864244,-0.010916,0.005641,-0.502923
3092,0.081571,-0.183542,9.929488,1.855529,-0.209112,-0.221087,-1.339230,-0.077981,-60.398670,0.864218,-0.010443,0.005290,-0.502982
3093,0.072572,-0.158221,9.930230,1.259133,-0.193500,-0.198881,-1.287309,-0.084850,-60.405506,0.864192,-0.010081,0.005011,-0.503037
3094,0.076643,-0.114334,9.920561,0.925067,-0.219170,-0.150272,-1.250897,-0.091855,-60.411179,0.864170,-0.009837,0.004799,-0.503082
3095,0.078182,-0.117822,9.916862,0.325042,-0.249548,-0.119664,-1.230054,-0.099762,-60.415512,0.864152,-0.009714,0.004648,-0.503116
3096,0.081197,-0.133955,9.914785,-0.003155,-0.269972,-0.102864,-1.224683,-0.108499,-60.419029,0.864136,-0.009712,0.004559,-0.503143
3097,0.080647,-0.137457,9.914783,-0.004833,-0.265905,-0.090532,-1.224810,-0.117497,-60.422073,0.864123,-0.009752,0.004492,-0.503167
3098,0.084462,-0.143096,9.913420,0.096794,-0.266718,-0.081525,-1.223272,-0.126433,-60.424747,0.864111,-0.009780,0.004418,-0.503188
3099,0.080906,-0.150465,9.917952,0.111933,-0.253751,-0.093402,-1.219787,-0.135168,-60.427471,0.864098,-0.009792,0.004337,-0.503209
3100,0.080117,-0.133513,9.914403,0.272326,-0.249054,-0.081190,-1.213376,-0.143608,-60.430210,0.864086,-0.009781,0.004246,-0.503231
3101,0.075424,-0.127409,9.918038,0.386537,-0.207096,-0.082397,-1.202389,-0.151266,-60.432781,0.864076,-0.009731,0.004140,-0.503251
3102,0.074744,-0.120101,9.916443,0.388852,-0.197049,-0.085381,-1.189458,-0.158059,-60.435421,0.864065,-0.009664,0.004032,-0.503272
3103,0.075304,-0.127989,9.918641,0.282343,-0.200078,-0.066957,-1.178265,-0.164729,-60.437828,0.864055,-0.009608,0.003933,-0.503291
3104,0.071811,-0.115622,9.915897,0.331158,-0.179352,-0.057618,-1.168034,-0.171094,-60.439781,0.864047,-0.009559,0.003840,-0.503306
3105,0.072807,-0.122671,9.920390,0.411616,-0.162415,-0.072807,-1.155648,-0.176833,-60.441837,0.864038,-0.009491,0.003743,-0.503323
3106,0.074250,-0.127212,9.916089,0.377335,-0.170160,-0.083459,-1.142491,-0.182427,-60.444332,0.864028,-0.009416,0.003643,-0.503342
3107,0.070448,-0.128572,9.915059,0.351941,-0.150539,-0.084674,-1.130328,-0.187826,-60.447033,0.864017,-0.009348,0.003549,-0.503363
3108,0.067817,-0.128857,9.914892,0.284386,-0.140458,-0.085975,-1.119713,-0.192731,-60.449783,0.864006,-0.009289,0.003466,-0.503385
3109,0.071362,-0.143097,9.915833,0.168129,-0.166747,-0.090551,-1.112162,-0.197908,-60.452625,0.863993,-0.009255,0.003394,-0.503407
3110,0.069929,-0.146017,9.918344,0.162412,-0.169337,-0.084278,-1.106643,-0.203564,-60.455433,0.863981,-0.009238,0.003327,-0.503429
3111,0.070011,-0.138195,9.921702,0.229966,-0.168409,-0.065995,-1.100095,-0.209241,-60.457829,0.863971,-0.009214,0.003256,-0.503447
3112,0.073879,-0.135767,9.925502,0.270785,-0.178389,-0.060072,-1.091741,-0.215060,-60.459805,0.863962,-0.009176,0.003175,-0.503463
3113,0.074898,-0.129939,9.923940,0.353889,-0.178673,-0.073860,-1.081322,-0.221052,-60.461933,0.863954,-0.009124,0.003084,-0.503479
3114,0.076472,-0.139222,9.923629,0.415267,-0.171289,-0.073770,-1.068494,-0.226930,-60.464283,0.863944,-0.009053,0.002984,-0.503498
3115,0.073535,-0.154565,9.917706,0.306547,-0.158683,-0.071826,-1.056454,-0.232473,-60.466610,0.863934,-0.008987,0.002889,-0.503516
3116,0.073553,-0.153533,9.915415,0.282215,-0.159261,-0.083963,-1.046631,-0.237819,-60.469112,0.863924,-0.008936,0.002806,-0.503535
3117,0.071681,-0.143939,9.911020,0.230253,-0.154511,-0.077802,-1.038079,-0.243097,-60.471706,0.863913,-0.008895,0.002729,-0.503555
3118,0.070296,-0.144049,9.915816,0.068900,-0.150994,-0.071559,-1.033083,-0.248233,-60.474113,0.863902,-0.008880,0.002668,-0.503574
3119,0.068732,-0.135696,9.916370,-0.246450,-0.150159,-0.070005,-1.036032,-0.253294,-60.476379,0.863892,-0.008924,0.002643,-0.503591
3120,0.070660,-0.118788,9.915764,-0.449166,-0.162519,-0.065724,-1.047616,-0.258546,-60.478554,0.863881,-0.009034,0.002655,-0.503608
3121,0.070984,-0.131190,9.922185,-0.930307,-0.200522,-0.047281,-1.070599,-0.264630,-60.480320,0.863871,-0.009234,0.002710,-0.503621
3122,0.079021,-0.178663,9.918344,-1.347330,-0.256024,-0.027291,-1.108555,-0.272262,-60.481415,0.863863,-0.009554,0.002820,-0.503629
3123,0.079229,-0.188931,9.913914,-0.772260,-0.219526,-0.044033,-1.143876,-0.280209,-60.482445,0.863855,-0.009855,0.002915,-0.503636
3124,0.076877,-0.166169,9.913336,-0.046363,-0.179954,-0.053444,-1.157513,-0.286899,-60.483932,0.863847,-0.009987,0.002925,-0.503647
3125,0.081753,-0.169641,9.919578,-0.317650,-0.225816,-0.049101,-1.163572,-0.293695,-60.485508,0.863839,-0.010063,0.002900,-0.503660
3126,0.068421,-0.179648,9.922975,-1.089357,-0.119916,-0.042037,-1.187015,-0.299487,-60.486916,0.863830,-0.010265,0.002960,-0.503670
3127,0.055163,-0.267481,9.931133,-2.423117,0.028128,-0.062838,-1.245547,-0.301053,-60.488628,0.863817,-0.010713,0.003205,-0.503681
3128,0.056161,-0.260835,9.930171,-3.037328,-0.031985,-0.003630,-1.336548,-0.301143,-60.489738,0.863803,-0.011399,0.003605,-0.503687
3129,0.060591,-0.304383,9.931678,-3.544818,-0.114904,1.002062,-1.446339,-0.303187,-60.473045,0.863865,-0.012236,0.004070,-0.503558
3130,0.054287,-0.324292,9.931129,-3.085411,-0.111003,1.931811,-1.557103,-0.305676,-60.424061,0.864068,-0.013084,0.004532,-0.503184
3131,0.069929,-0.334427,9.920109,-2.290109,-0.271076,2.482865,-1.647091,-0.309994,-60.350346,0.864381,-0.013785,0.004886,-0.502625
3132,0.080973,-0.260710,9.913148,-0.884058,-0.429258,2.634666,-1.700464,-0.319178,-60.264740,0.864749,-0.014232,0.005040,-0.501978
3133,0.077667,-0.275073,9.915411,-0.365992,-0.326701,2.587776,-1.721793,-0.329182,-60.177376,0.865128,-0.014440,0.005047,-0.501319
3134,0.074520,-0.279800,9.913799,-0.146212,-0.230364,1.623794,-1.730738,-0.336351,-60.106926,0.865434,-0.014542,0.005023,-0.500787
3135,0.077490,-0.282793,9.910245,0.111886,-0.145510,0.676049,-1.731538,-0.341455,-60.068428,0.865601,-0.014572,0.004983,-0.500497
3136,0.070357,-0.270704,9.910931,0.727240,-0.001886,0.089049,-1.717630,-0.343527,-60.055611,0.865659,-0.014477,0.004905,-0.500401
3137,0.069911,-0.245183,9.917009,1.044923,0.058481,-0.062346,-1.688096,-0.342572,-60.055191,0.865665,-0.014250,0.004784,-0.500399
3138,0.074917,-0.250565,9.915908,0.659269,-0.025215,-0.064117,-1.659680,-0.342080,-60.057316,0.865659,-0.014033,0.004663,-0.500416
3139,0.078069,-0.243298,9.914622,0.478510,-0.065211,-0.101032,-1.640701,-0.343666,-60.060024,0.865649,-0.013896,0.004569,-0.500437
3140,0.080958,-0.238105,9.917072,0.313541,-0.107918,-0.089064,-1.627482,-0.346641,-60.063114,0.865637,-0.013809,0.004489,-0.500461
3141,0.087330,-0.241923,9.919607,0.036928,-0.158471,-0.071124,-1.621625,-0.351155,-60.065655,0.865626,-0.013784,0.004430,-0.500481
3142,0.085389,-0.241487,9.920775,-0.077348,-0.176676,-0.058690,-1.622286,-0.356799,-60.067657,0.865617,-0.013814,0.004390,-0.500497
3143,0.088068,-0.258101,9.917489,-0.050258,-0.172656,-0.034135,-1.624404,-0.362663,-60.069042,0.865610,-0.013856,0.004355,-0.500508
3144,0.084116,-0.271182,9.921785,0.327005,-0.133934,-0.062502,-1.619782,-0.367816,-60.070496,0.865604,-0.013843,0.004296,-0.500519
3145,0.080658,-0.256229,9.922531,1.005827,-0.151996,-0.092929,-1.597553,-0.372653,-60.072971,0.865596,-0.013696,0.004163,-0.500539
3146,0.075305,-0.235603,9.924435,1.297166,-0.149437,-0.080529,-1.559151,-0.377754,-60.075718,0.865588,-0.013428,0.003957,-0.500562
3147,0.076887,-0.214663,9.918751,1.040744,-0.125706,-0.074746,-1.520170,-0.382408,-60.078178,0.865581,-0.013154,0.003752,-0.500582
3148,0.066757,-0.184310,9.926691,0.349784,-0.080292,-0.085038,-1.496977,-0.385910,-60.080750,0.865572,-0.012994,0.003624,-0.500603
3149,0.070583,-0.188336,9.922914,-0.605540,-0.223950,0.030829,-1.501235,-0.391003,-60.081524,0.865568,-0.013049,0.003605,-0.500609
3150,0.069031,-0.210966,9.919564,-1.571921,-0.235318,0.107719,-1.537543,-0.398594,-60.079010,0.865574,-0.013356,0.003706,-0.500589
3151,0.076708,-0.249372,9.915215,-1.821916,-0.247695,0.362676,-1.594163,-0.406427,-60.070961,0.865602,-0.013818,0.003893,-0.500527
3152,0.074200,-0.285257,9.916457,-1.121914,-0.151086,0.390959,-1.643318,-0.412716,-60.058220,0.865651,-0.014217,0.004058,-0.500430
3153,0.079452,-0.281217,9.914013,0.092121,-0.085366,0.350671,-1.660571,-0.416300,-60.045750,0.865703,-0.014364,0.004105,-0.500335
3154,0.077623,-0.264245,9.916230,0.561996,0.028533,0.283307,-1.649746,-0.416943,-60.035156,0.865750,-0.014285,0.004052,-0.500256
3155,0.081577,-0.267520,9.919683,0.761148,0.047997,0.305986,-1.627765,-0.415387,-60.025383,0.865796,-0.014113,0.003966,-0.500183
3156,0.076994,-0.246210,9.917260,0.915401,0.095442,0.040471,-1.599863,-0.412835,-60.019669,0.865824,-0.013891,0.003863,-0.500140
3157,0.077990,-0.233263,9.918694,0.543939,0.004309,-0.001004,-1.575546,-0.411156,-60.019062,0.865830,-0.013700,0.003770,-0.500136
3158,0.077962,-0.252958,9.914884,-0.022616,-0.097288,0.029997,-1.566861,-0.412692,-60.018539,0.865833,-0.013641,0.003720,-0.500133
3159,0.081544,-0.261264,9.915690,0.074335,-0.103840,0.008576,-1.566004,-0.416025,-60.017792,0.865836,-0.013649,0.003691,-0.500127
3160,0.081468,-0.246837,9.915174,0.243797,-0.062350,-0.074076,-1.560694,-0.418823,-60.018822,0.865832,-0.013621,0.003647,-0.500136
3161,0.077466,-0.247815,9.919441,0.099902,-0.073758,-0.091995,-1.554946,-0.421166,-60.021523,0.865821,-0.013588,0.003604,-0.500156
3162,0.076453,-0.244110,9.919536,0.065140,-0.081893,-0.108731,-1.552171,-0.423850,-60.024792,0.865807,-0.013579,0.003572,-0.500181
3163,0.076482,-0.237824,9.919641,0.104952,-0.073023,-0.114928,-1.549309,-0.426532,-60.028454,0.865791,-0.013569,0.003540,-0.500209
3164,0.073451,-0.233126,9.917406,0.121698,-0.064517,-0.096440,-1.545506,-0.428919,-60.031914,0.865776,-0.013550,0.003506,-0.500236
3165,0.072327,-0.239772,9.918727,0.016959,-0.082934,-0.099220,-1.543171,-0.431463,-60.035110,0.865762,-0.013543,0.003477,-0.500260
3166,0.079790,-0.239299,9.916090,-0.045429,-0.127687,-0.095195,-1.543622,-0.435060,-60.038246,0.865748,-0.013562,0.003452,-0.500284
3167,0.080259,-0.248012,9.917083,-0.006063,-0.110464,-0.088897,-1.544457,-0.439110,-60.041214,0.865735,-0.013586,0.003425,-0.500307
3168,0.082281,-0.251838,9.913513,0.106749,-0.100660,-0.085873,-1.542758,-0.442706,-60.044029,0.865722,-0.013589,0.003391,-0.500329
3169,0.081166,-0.250917,9.915177,0.297985,-0.088005,-0.134585,-1.535984,-0.445948,-60.047619,0.865707,-0.013552,0.003337,-0.500356
3170,0.079530,-0.236404,9.914632,0.554805,-0.072540,-0.136244,-1.521736,-0.448743,-60.052063,0.865689,-0.013456,0.003255,-0.500390
3171,0.073523,-0.237090,9.916211,0.471201,-0.023241,-0.123470,-1.504603,-0.450453,-60.056355,0.865672,-0.013334,0.003167,-0.500423
3172,0.074943,-0.235320,9.915751,0.274069,-0.029529,-0.093016,-1.492153,-0.451427,-60.059933,0.865658,-0.013244,0.003106,-0.500451
3173,0.078286,-0.236175,9.917622,0.184767,-0.050852,-0.087087,-1.484483,-0.452844,-60.062901,0.865646,-0.013193,0.003062,-0.500474
3174,0.077664,-0.234095,9.917123,-0.022019,-0.055988,-0.059575,-1.481751,-0.454687,-60.065300,0.865636,-0.013180,0.003037,-0.500492
3175,0.079218,-0.248396,9.914775,-0.261594,-0.062658,-0.048649,-1.486464,-0.456711,-60.067047,0.865627,-0.013224,0.003042,-0.500505
3176,0.080578,-0.251396,9.914806,0.192971,-0.062526,-0.063936,-1.487593,-0.458845,-60.068871,0.865619,-0.013242,0.003031,-0.500519
3177,0.077290,-0.278829,9.911919,0.753416,-0.073392,-0.085921,-1.471801,-0.461174,-60.071312,0.865610,-0.013133,0.002945,-0.500538
3179,0.078379,-0.262283,9.911659,0.939689,-0.086051,-0.098498,-1.443558,-0.463909,-60.074310,0.865600,-0.012932,0.002801,-0.500562
3180,0.079902,-0.249349,9.909728,1.151979,-0.105912,-0.101816,-1.408670,-0.467190,-60.077579,0.865589,-0.012682,0.002624,-0.500588
3181,0.080791,-0.236064,9.909834,1.328590,-0.117521,-0.115745,-1.367298,-0.471001,-60.081116,0.865578,-0.012386,0.002415,-0.500615
3182,0.084793,-0.214106,9.910096,1.093730,-0.133289,-0.105647,-1.326897,-0.475267,-60.084705,0.865566,-0.012100,0.002207,-0.500644
3183,0.090597,-0.161253,9.913091,0.720044,-0.131101,-0.105560,-1.296638,-0.479752,-60.088127,0.865554,-0.011891,0.002041,-0.500670
3184,0.080266,-0.165021,9.918455,0.101074,-0.065340,-0.101570,-1.282925,-0.483103,-60.091507,0.865540,-0.011802,0.001956,-0.500696
3185,0.076518,-0.180566,9.919268,-0.736181,-0.014651,-0.074926,-1.293485,-0.484503,-60.094414,0.865526,-0.011887,0.001992,-0.500718
3186,0.076254,-0.191656,9.915071,-1.193248,0.014227,-0.056356,-1.325624,-0.484560,-60.096607,0.865514,-0.012130,0.002132,-0.500734
3187,0.073788,-0.210569,9.913383,-1.303475,0.022919,-0.057378,-1.367220,-0.483985,-60.098507,0.865501,-0.012442,0.002319,-0.500748
3188,0.067230,-0.228511,9.911860,-1.342152,0.050778,-0.058174,-1.411297,-0.482804,-60.100464,0.865487,-0.012770,0.002520,-0.500762
3189,0.076177,-0.230343,9.908291,-1.073805,0.016707,-0.051298,-1.451548,-0.481725,-60.102318,0.865475,-0.013069,0.002705,-0.500775
3190,0.080402,-0.232127,9.908010,-0.604035,-0.021953,-0.042576,-1.479498,-0.481853,-60.103874,0.865465,-0.013281,0.002826,-0.500786
3191,0.080303,-0.228267,9.911132,-0.285587,-0.035244,-0.048879,-1.494313,-0.482845,-60.105370,0.865456,-0.013397,0.002883,-0.500797
3192,0.079860,-0.230142,9.910406,-0.236179,-0.039568,-0.039693,-1.502997,-0.484130,-60.106815,0.865449,-0.013468,0.002912,-0.500807
3193,0.076559,-0.243120,9.910978,-0.119616,-0.032396,-0.055932,-1.508913,-0.485371,-60.108379,0.865441,-0.013518,0.002929,-0.500819
3194,0.072569,-0.249132,9.910920,0.494736,-0.067502,-0.064644,-1.502645,-0.487088,-60.110344,0.865433,-0.013478,0.002888,-0.500834
3195,0.070329,-0.218330,9.911410,1.401715,-0.090607,-0.097229,-1.471015,-0.489792,-60.112976,0.865425,-0.013251,0.002730,-0.500855
3196,0.071492,-0.210835,9.914909,1.803230,-0.113827,-0.111093,-1.417570,-0.493286,-60.116352,0.865416,-0.012863,0.002470,-0.500882
3197,0.075168,-0.204331,9.919781,1.867545,-0.124052,-0.126547,-1.356357,-0.497345,-60.120224,0.865406,-0.012418,0.002173,-0.500913
3198,0.081843,-0.188697,9.923842,1.935952,-0.150311,-0.116440,-1.292931,-0.502010,-60.124161,0.865395,-0.011959,0.001861,-0.500944
3199,0.085794,-0.173708,9.926168,1.723577,-0.115059,-0.121350,-1.231905,-0.506519,-60.128021,0.865384,-0.011518,0.001560,-0.500974
3200,0.090217,-0.192690,9.929065,0.948955,-0.098030,-0.113210,-1.187329,-0.510153,-60.131863,0.865371,-0.011197,0.001338,-0.501004
3201,0.088979,-0.191539,9.930726,0.579219,-0.077355,-0.109877,-1.161826,-0.513152,-60.135521,0.865358,-0.011018,0.001204,-0.501032
3202,0.085720,-0.177430,9.926658,0.668091,-0.057399,-0.114486,-1.141005,-0.515472,-60.139217,0.865343,-0.010871,0.001096,-0.501061
3203,0.084562,-0.170594,9.925415,0.520318,-0.055959,-0.106858,-1.121165,-0.517434,-60.142872,0.865329,-0.010729,0.000995,-0.501089
3204,0.078931,-0.175153,9.921227,0.323210,-0.047941,-0.092586,-1.107077,-0.519230,-60.146156,0.865316,-0.010631,0.000920,-0.501114
3205,0.076907,-0.173234,9.918294,0.327769,-0.038148,-0.093977,-1.096199,-0.520725,-60.149246,0.865303,-0.010555,0.000862,-0.501137
3206,0.075882,-0.173395,9.914660,0.227174,-0.022237,-0.095387,-1.086921,-0.521791,-60.152378,0.865290,-0.010490,0.000813,-0.501161
3207,0.072543,-0.174507,9.914482,0.117165,-0.018075,-0.084448,-1.081155,-0.522519,-60.155361,0.865278,-0.010449,0.000783,-0.501183
3208,0.074121,-0.172522,9.911132,0.315246,0.005224,-0.098290,-1.073921,-0.522791,-60.158401,0.865265,-0.010396,0.000749,-0.501206
3209,0.075499,-0.159925,9.911247,0.494639,0.007575,-0.097141,-1.060393,-0.522638,-60.161648,0.865252,-0.010293,0.000692,-0.501231
3210,0.074768,-0.156466,9.908575,0.452123,0.006588,-0.087987,-1.044585,-0.522459,-60.164749,0.865240,-0.010173,0.000624,-0.501254
3211,0.077380,-0.154092,9.908014,0.355077,-0.017767,-0.075921,-1.031107,-0.522695,-60.167480,0.865229,-0.010072,0.000564,-0.501275
3212,0.079776,-0.165894,9.911459,0.273305,-0.029005,-0.078732,-1.020611,-0.523520,-60.170040,0.865219,-0.009997,0.000512,-0.501295
3213,0.076407,-0.153814,9.917274,0.400983,-0.020183,-0.072724,-1.009350,-0.524385,-60.172546,0.865209,-0.009915,0.000456,-0.501314
3214,0.078670,-0.153418,9.917917,0.207438,-0.036877,-0.078903,-0.999186,-0.525380,-60.175053,0.865199,-0.009843,0.000404,-0.501333
3215,0.076775,-0.160169,9.923081,0.036713,-0.038347,-0.066373,-0.995095,-0.526676,-60.177460,0.865188,-0.009818,0.000377,-0.501351
3216,0.078164,-0.155957,9.922374,0.161320,-0.037067,-0.075683,-0.991773,-0.527973,-60.179802,0.865178,-0.009798,0.000353,-0.501369
3217,0.082080,-0.150547,9.919781,0.083714,-0.050770,-0.066844,-0.987668,-0.529478,-60.182144,0.865168,-0.009774,0.000324,-0.501386
3218,0.083083,-0.159044,9.916686,-0.206903,-0.071248,-0.057483,-0.989702,-0.531547,-60.184185,0.865159,-0.009798,0.000317,-0.501402
3219,0.081900,-0.171269,9.919343,-0.277645,-0.075836,-0.060140,-0.997760,-0.534032,-60.186100,0.865150,-0.009870,0.000334,-0.501416
3220,0.084512,-0.168202,9.918057,-0.086278,-0.062277,-0.083254,-1.003803,-0.536376,-60.188450,0.865139,-0.009926,0.000343,-0.501434
3221,0.080456,-0.167364,9.915813,-0.024455,-0.037179,-0.076973,-1.005624,-0.538080,-60.191093,0.865127,-0.009947,0.000338,-0.501454
3222,0.078158,-0.165433,9.915285,0.029354,-0.021994,-0.072322,-1.005519,-0.539109,-60.193565,0.865116,-0.009951,0.000330,-0.501473
3223,0.077280,-0.175834,9.911438,-0.031435,-0.017416,-0.065881,-1.005533,-0.539807,-60.195862,0.865106,-0.009954,0.000325,-0.501490
3224,0.074141,-0.164729,9.910391,0.035725,0.002765,-0.062965,-1.005441,-0.540088,-60.198002,0.865097,-0.009954,0.000323,-0.501507
3225,0.072625,-0.171134,9.913873,-0.217613,-0.006258,-0.039820,-1.008456,-0.540177,-60.199715,0.865089,-0.009978,0.000335,-0.501520
3226,0.073656,-0.192013,9.921170,-0.381338,-0.007394,-0.040839,-1.018426,-0.540428,-60.201057,0.865082,-0.010054,0.000377,-0.501530
3227,0.076388,-0.180333,9.919747,-0.181029,-0.004395,-0.056588,-1.027784,-0.540654,-60.202679,0.865074,-0.010126,0.000417,-0.501542
3228,0.075722,-0.161357,9.922462,-0.026796,0.005433,-0.079992,-1.031226,-0.540677,-60.204952,0.865064,-0.010152,0.000432,-0.501559
3229,0.078455,-0.175280,9.921098,0.020181,0.002198,-0.082819,-1.031311,-0.540599,-60.207668,0.865052,-0.010152,0.000433,-0.501579
3230,0.079070,-0.166549,9.919764,0.544382,0.015699,-0.096821,-1.021873,-0.540354,-60.210667,0.865040,-0.010080,0.000394,-0.501602
3231,0.073148,-0.143174,9.916710,1.031361,0.047970,-0.094065,-0.995580,-0.539349,-60.213860,0.865028,-0.009877,0.000286,-0.501626
3232,0.071996,-0.149460,9.919716,0.946948,0.044872,-0.095272,-0.962579,-0.537856,-60.217049,0.865017,-0.009621,0.000153,-0.501650
3233,0.074376,-0.156861,9.919896,0.791687,0.026690,-0.072188,-0.933575,-0.536709,-60.219868,0.865007,-0.009397,0.000035,-0.501672
3234,0.073482,-0.143964,9.919368,0.567278,0.022692,-0.063239,-0.910904,-0.535923,-60.222126,0.864999,-0.009222,-0.000058,-0.501689
3235,0.074158,-0.148611,9.918548,0.049695,0.003653,-0.053909,-0.900603,-0.535515,-60.224083,0.864991,-0.009143,-0.000100,-0.501703
3236,0.078569,-0.154353,9.917556,-0.269605,-0.022951,-0.041711,-0.904254,-0.535861,-60.225674,0.864984,-0.009172,-0.000086,-0.501715
3237,0.074749,-0.147903,9.918436,-0.262820,-0.013160,-0.041721,-0.913114,-0.536485,-60.227051,0.864977,-0.009242,-0.000052,-0.501726
3238,0.074109,-0.159974,9.924959,-0.227306,-0.009227,-0.038341,-0.921271,-0.536880,-60.228382,0.864971,-0.009305,-0.000019,-0.501736
3239,0.074287,-0.161327,9.930751,0.212597,0.007475,-0.044443,-0.921503,-0.536931,-60.229763,0.864965,-0.009307,-0.000018,-0.501746
3240,0.071890,-0.142417,9.928735,0.779919,0.031274,-0.055523,-0.904945,-0.536312,-60.231445,0.864959,-0.009179,-0.000086,-0.501759
3241,0.075161,-0.135841,9.928177,0.786120,0.010947,-0.063423,-0.878826,-0.535639,-60.233433,0.864952,-0.008979,-0.000195,-0.501774
3242,0.076330,-0.142912,9.928937,0.678012,0.008878,-0.038774,-0.854408,-0.535335,-60.235146,0.864947,-0.008793,-0.000300,-0.501787
3243,0.074450,-0.123779,9.924038,0.591212,0.006514,-0.040643,-0.833242,-0.535098,-60.236473,0.864942,-0.008633,-0.000390,-0.501797
3244,0.074649,-0.128668,9.923329,0.020328,-0.020032,-0.032811,-0.823038,-0.535340,-60.237694,0.864938,-0.008557,-0.000437,-0.501806
3245,0.075570,-0.150652,9.922555,-0.402249,-0.042323,-0.035267,-0.829393,-0.536396,-60.238819,0.864932,-0.008609,-0.000417,-0.501814
3246,0.071704,-0.149439,9.923446,-0.299440,-0.028981,-0.044308,-0.841076,-0.537604,-60.240128,0.864926,-0.008703,-0.000375,-0.501824
3247,0.072930,-0.150932,9.922989,-0.204879,-0.030280,-0.059610,-0.849465,-0.538617,-60.241833,0.864917,-0.008771,-0.000346,-0.501837
3248,0.074186,-0.154981,9.923021,0.037845,-0.018024,-0.067205,-0.852229,-0.539453,-60.243950,0.864908,-0.008795,-0.000340,-0.501853
3249,0.072853,-0.156214,9.916735,0.300845,0.001481,-0.077796,-0.846561,-0.539765,-60.246361,0.864898,-0.008754,-0.000367,-0.501872
3250,0.070732,-0.143441,9.918353,0.431084,0.010974,-0.081080,-0.834337,-0.539596,-60.249012,0.864887,-0.008661,-0.000419,-0.501891
3251,0.068522,-0.141608,9.920237,0.380006,0.023550,-0.084045,-0.820793,-0.539060,-60.251770,0.864876,-0.008556,-0.000474,-0.501912
3252,0.062735,-0.135576,9.916502,0.286766,0.043133,-0.088502,-0.809653,-0.537990,-60.254665,0.864864,-0.008467,-0.000514,-0.501934
3253,0.060130,-0.137607,9.916219,0.069345,0.041144,-0.092887,-0.803690,-0.536628,-60.257702,0.864852,-0.008416,-0.000530,-0.501957
3254,0.059437,-0.134454,9.919693,-0.040344,0.036613,-0.085305,-0.803178,-0.535374,-60.260693,0.864839,-0.008407,-0.000522,-0.501979
3255,0.058145,-0.134722,9.918104,-0.265720,0.026153,-0.077619,-0.808254,-0.534366,-60.263428,0.864826,-0.008441,-0.000492,-0.502000
3256,0.062446,-0.139431,9.915301,-0.340970,0.010312,-0.074634,-0.818342,-0.533795,-60.265980,0.864814,-0.008515,-0.000444,-0.502019
3257,0.065493,-0.138067,9.918968,-0.243323,-0.000066,-0.067201,-0.828058,-0.533658,-60.268341,0.864803,-0.008587,-0.000400,-0.502037
3258,0.073883,-0.138254,9.919242,-0.255756,-0.025749,-0.041637,-0.836359,-0.534114,-60.270157,0.864795,-0.008652,-0.000367,-0.502051
3259,0.077731,-0.131309,9.919898,-0.164332,-0.038045,-0.023702,-0.843350,-0.535194,-60.271225,0.864789,-0.008709,-0.000344,-0.502059
3260,0.081660,-0.133071,9.923589,-0.052786,-0.042583,0.006678,-0.846967,-0.536541,-60.271488,0.864788,-0.008743,-0.000339,-0.502061
3261,0.084890,-0.143121,9.925599,-0.200400,-0.061808,0.076998,-0.851200,-0.538260,-60.270065,0.864794,-0.008782,-0.000333,-0.502050
3262,0.087793,-0.154117,9.926280,-0.205575,-0.070795,0.154990,-0.858003,-0.540412,-60.266163,0.864810,-0.008843,-0.000320,-0.502021
3263,0.082676,-0.152961,9.922448,0.125981,-0.041266,0.223833,-0.859389,-0.542185,-60.259823,0.864838,-0.008861,-0.000328,-0.501973
3264,0.083958,-0.156444,9.920070,0.456761,-0.018137,0.326119,-0.849764,-0.543039,-60.250645,0.864879,-0.008792,-0.000377,-0.501904
3265,0.085438,-0.145398,9.914527,0.804030,-0.000704,0.435669,-0.828871,-0.543167,-60.237949,0.864936,-0.008635,-0.000470,-0.501808
3266,0.080394,-0.136300,9.914535,1.009107,0.024674,0.626462,-0.798820,-0.542516,-60.220261,0.865016,-0.008405,-0.000598,-0.501674
3267,0.078830,-0.133437,9.912089,0.936677,0.013633,1.117913,-0.766665,-0.541481,-60.191193,0.865145,-0.008158,-0.000733,-0.501455
3268,0.074662,-0.128848,9.914052,0.836300,-0.017428,2.201478,-0.737638,-0.540816,-60.135872,0.865389,-0.007935,-0.000859,-0.501037
3269,0.072713,-0.117022,9.912904,0.692682,-0.085283,4.101111,-0.713147,-0.541195,-60.030800,0.865850,-0.007751,-0.000976,-0.500243
3270,0.066149,-0.105833,9.916615,0.601570,-0.149842,6.757771,-0.693289,-0.542888,-59.849781,0.866640,-0.007607,-0.001088,-0.498874
3271,0.066269,-0.106177,9.916980,0.808958,-0.231577,9.416014,-0.672342,-0.546027,-59.580143,0.867813,-0.007459,-0.001220,-0.496834
3272,0.060230,-0.076044,9.915475,1.236453,-0.310432,11.827952,-0.641643,-0.550999,-59.225975,0.869346,-0.007244,-0.001413,-0.494149
3273,0.063048,-0.071108,9.914671,1.240375,-0.366421,13.581154,-0.604462,-0.557679,-58.802395,0.871169,-0.006985,-0.001650,-0.490932
3274,0.060203,-0.075223,9.916557,1.326039,-0.357579,13.860657,-0.566171,-0.565068,-58.344910,0.873123,-0.006718,-0.001897,-0.487449
3276,0.063597,-0.074252,9.912881,1.170403,-0.369691,14.281827,-0.529222,-0.572707,-57.875767,0.875113,-0.006460,-0.002139,-0.483870
3277,0.062099,-0.069050,9.911878,0.850514,-0.369543,14.701485,-0.500403,-0.580680,-57.392605,0.877147,-0.006264,-0.002348,-0.480176
3278,0.067825,-0.076730,9.913084,0.765167,-0.387952,15.136521,-0.478553,-0.589044,-56.895195,0.879224,-0.006120,-0.002530,-0.476363
3279,0.067578,-0.070084,9.915474,0.457121,-0.367315,15.714786,-0.463506,-0.597400,-56.380901,0.881353,-0.006028,-0.002684,-0.472412
3280,0.068045,-0.070994,9.917292,-0.125690,-0.413845,17.806904,-0.463849,-0.605885,-55.822102,0.883646,-0.006052,-0.002777,-0.468109
3281,0.063893,-0.075602,9.918794,0.009475,-0.454890,19.941875,-0.472491,-0.615198,-55.192841,0.886202,-0.006141,-0.002848,-0.463250
3282,0.063853,-0.080380,9.917960,0.199209,-0.478609,21.339741,-0.476461,-0.625064,-54.504696,0.888967,-0.006194,-0.002945,-0.457920
3283,0.053643,-0.079119,9.926689,0.108984,-0.463161,21.799219,-0.479230,-0.634773,-53.785595,0.891823,-0.006235,-0.003049,-0.452332
3284,0.052916,-0.081902,9.930057,0.734277,-0.489711,22.014481,-0.473329,-0.644578,-53.055237,0.894687,-0.006208,-0.003188,-0.446639
3285,0.050213,-0.078223,9.930964,1.539633,-0.455505,20.950912,-0.443552,-0.654634,-52.339031,0.897462,-0.005993,-0.003420,-0.441038
3286,0.054701,-0.067645,9.933671,1.633819,-0.392483,18.579376,-0.398245,-0.663972,-51.680103,0.899985,-0.005653,-0.003700,-0.435868
3287,0.056943,-0.045565,9.939565,1.675393,-0.350778,16.978210,-0.350004,-0.672503,-51.087379,0.902229,-0.005286,-0.003978,-0.431206
3288,0.062702,-0.039795,9.933390,1.761374,-0.318669,16.425722,-0.299300,-0.680514,-50.530571,0.904316,-0.004897,-0.004256,-0.426815
3289,0.062337,-0.027258,9.929739,1.845850,-0.285695,16.312618,-0.245697,-0.687997,-49.984863,0.906340,-0.004480,-0.004536,-0.422502
3290,0.068880,-0.020580,9.918033,1.612884,-0.292416,16.545984,-0.194664,-0.695531,-49.437157,0.908350,-0.004081,-0.004803,-0.418163
3291,0.064947,-0.016099,9.920482,0.926038,-0.248763,16.768818,-0.159125,-0.702826,-48.881851,0.910367,-0.003802,-0.005009,-0.413754
3292,0.060869,-0.003288,9.916281,0.163847,-0.215636,17.003586,-0.147895,-0.709029,-48.318939,0.912388,-0.003710,-0.005117,-0.409277
3293,0.064157,-0.019086,9.911436,-0.388781,-0.224822,17.712048,-0.158832,-0.714790,-47.740299,0.914443,-0.003792,-0.005143,-0.404665
3294,0.060026,-0.026940,9.914753,-1.095966,-0.233236,18.640024,-0.191166,-0.720551,-47.134377,0.916568,-0.004043,-0.005096,-0.399825
3295,0.049531,-0.029419,9.921920,-1.034224,-0.235422,20.054634,-0.234810,-0.725935,-46.489407,0.918802,-0.004383,-0.005012,-0.394662
3296,0.057682,-0.047989,9.923556,-0.856637,-0.311760,22.014286,-0.275244,-0.731940,-45.788200,0.921198,-0.004698,-0.004950,-0.389034
3297,0.060466,-0.074072,9.930778,-0.701054,-0.363980,23.343983,-0.310914,-0.739348,-45.032150,0.923743,-0.004977,-0.004921,-0.382949
3298,0.060148,-0.065197,9.935933,-0.709688,-0.410510,24.048658,-0.344679,-0.747748,-44.242188,0.926359,-0.005244,-0.004912,-0.376574
3299,0.065026,-0.065723,9.930600,-0.573151,-0.436007,24.155371,-0.376611,-0.756800,-43.438683,0.928974,-0.005497,-0.004919,-0.370070
3300,0.065587,-0.074189,9.933281,-0.909082,-0.435033,23.371225,-0.411842,-0.765875,-42.646465,0.931508,-0.005778,-0.004919,-0.363641
3301,0.052391,-0.074377,9.925692,-0.705687,-0.402861,21.904963,-0.448897,-0.774150,-41.891750,0.933881,-0.006073,-0.004909,-0.357500
3302,0.049416,-0.077161,9.918414,-0.400389,-0.388462,21.029165,-0.477047,-0.781564,-41.176067,0.936093,-0.006295,-0.004921,-0.351661
3303,0.039172,-0.077676,9.922809,-0.076523,-0.370694,20.835546,-0.494556,-0.788315,-40.478203,0.938216,-0.006429,-0.004962,-0.345955
3304,0.042121,-0.075516,9.924062,0.551245,-0.430581,21.602962,-0.496421,-0.795569,-39.770760,0.940333,-0.006435,-0.005055,-0.340156
3305,0.042725,-0.064699,9.921396,1.230014,-0.456249,22.386974,-0.476973,-0.804152,-39.037449,0.942491,-0.006268,-0.005223,-0.334131
3306,0.055643,-0.070047,9.920197,1.403462,-0.434853,22.025312,-0.443532,-0.813092,-38.297108,0.944631,-0.005984,-0.005433,-0.328034
3307,0.053977,-0.059624,9.917372,1.218202,-0.369571,20.795221,-0.410018,-0.821193,-37.583324,0.946658,-0.005696,-0.005632,-0.322142
3308,0.061548,-0.080238,9.911170,0.602405,-0.297206,18.783138,-0.389166,-0.827699,-36.923580,0.948497,-0.005509,-0.005776,-0.316685
3309,0.056340,-0.105914,9.915233,-0.344585,-0.173203,15.863470,-0.393230,-0.831571,-36.346054,0.950081,-0.005524,-0.005825,-0.311901
3310,0.057698,-0.120760,9.918787,-0.804112,-0.110187,13.420920,-0.419461,-0.832794,-35.857922,0.951399,-0.005720,-0.005788,-0.307853
3311,0.045646,-0.108763,9.919866,-0.576197,-0.098472,12.738600,-0.448802,-0.832948,-35.421875,0.952562,-0.005942,-0.005733,-0.304232
3312,0.042521,-0.106390,9.918117,-0.119245,-0.126324,13.289392,-0.466701,-0.833235,-34.988022,0.953706,-0.006070,-0.005711,-0.300624
3313,0.044856,-0.100074,9.916216,0.544941,-0.152219,14.213841,-0.466277,-0.834160,-34.529572,0.954901,-0.006046,-0.005744,-0.296806
3314,0.037276,-0.086739,9.913276,0.922996,-0.157913,15.484659,-0.449025,-0.835397,-34.034527,0.956176,-0.005880,-0.005824,-0.292677
3315,0.041437,-0.083985,9.912983,0.676789,-0.201110,17.347689,-0.430350,-0.837193,-33.487240,0.957563,-0.005701,-0.005914,-0.288106
3316,0.046267,-0.073969,9.917506,0.264292,-0.253145,19.308146,-0.423610,-0.840197,-32.876225,0.959086,-0.005620,-0.005986,-0.282996
3317,0.057463,-0.074993,9.923616,0.155881,-0.320043,20.775963,-0.426433,-0.844774,-32.208057,0.960719,-0.005620,-0.006050,-0.277399
3318,0.058063,-0.079259,9.927855,-0.035346,-0.340554,21.299488,-0.434803,-0.850507,-31.506687,0.962398,-0.005667,-0.006113,-0.271514
3319,0.066940,-0.081289,9.929467,0.059537,-0.360276,21.256683,-0.444969,-0.856732,-30.797298,0.964060,-0.005729,-0.006177,-0.265552
3320,0.064843,-0.085172,9.929076,0.222761,-0.348478,20.643421,-0.450747,-0.863090,-30.098845,0.965660,-0.005754,-0.006252,-0.259671
3321,0.053166,-0.106293,9.919634,0.334581,-0.282405,19.475460,-0.451563,-0.868348,-29.430080,0.967158,-0.005736,-0.006328,-0.254031
3322,0.046893,-0.104428,9.920601,0.099260,-0.238939,18.747665,-0.454007,-0.872009,-28.792931,0.968555,-0.005729,-0.006386,-0.248650
3323,0.041303,-0.091493,9.921554,0.009096,-0.214307,18.175127,-0.461580,-0.874635,-28.177458,0.969876,-0.005765,-0.006422,-0.243445
3324,0.039233,-0.086200,9.918490,-0.211696,-0.202281,18.042234,-0.474182,-0.876645,-27.573746,0.971145,-0.005842,-0.006444,-0.238333
3325,0.037296,-0.077963,9.920124,-0.326441,-0.192248,17.906181,-0.492326,-0.878157,-26.974518,0.972377,-0.005965,-0.006450,-0.233252
3326,0.047145,-0.074145,9.923427,-0.299076,-0.215552,17.853971,-0.511895,-0.879725,-26.378426,0.973576,-0.006101,-0.006455,-0.228192
3327,0.049703,-0.079838,9.917703,-0.108800,-0.220115,17.498545,-0.527752,-0.881641,-25.789125,0.974735,-0.006206,-0.006472,-0.223183
3328,0.051885,-0.077727,9.913881,0.029878,-0.235933,17.785282,-0.538129,-0.883780,-25.200964,0.975867,-0.006265,-0.006502,-0.218178
3329,0.043968,-0.086256,9.914240,-0.006024,-0.232778,17.988668,-0.546941,-0.885952,-24.604628,0.976989,-0.006310,-0.006537,-0.213097
3330,0.043405,-0.094895,9.911839,0.057874,-0.247079,18.584078,-0.555514,-0.888083,-23.994976,0.978108,-0.006353,-0.006573,-0.207897
3331,0.040792,-0.099233,9.914454,0.179915,-0.279786,19.669209,-0.561449,-0.890652,-23.357311,0.979249,-0.006371,-0.006620,-0.202451
3332,0.034743,-0.094929,9.914092,0.302849,-0.300310,20.989124,-0.563957,-0.893670,-22.679552,0.980429,-0.006359,-0.006679,-0.196656
3333,0.034904,-0.089571,9.914324,0.323055,-0.332577,22.028105,-0.564732,-0.897161,-21.962469,0.981640,-0.006329,-0.006747,-0.190517
3334,0.040357,-0.084005,9.913084,0.463607,-0.351740,22.760262,-0.563339,-0.901218,-21.215864,0.982861,-0.006280,-0.006825,-0.184117
3335,0.040890,-0.065816,9.916547,0.574367,-0.340160,22.645203,-0.557973,-0.905351,-20.458971,0.984055,-0.006195,-0.006910,-0.177621
3336,0.043795,-0.054562,9.920308,0.482494,-0.327587,22.243458,-0.552208,-0.909238,-19.710695,0.985194,-0.006106,-0.006993,-0.171192
3337,0.044952,-0.079775,9.923039,0.261108,-0.309812,22.085625,-0.551563,-0.912739,-18.971748,0.986277,-0.006060,-0.007063,-0.164835
3338,0.042957,-0.095785,9.919065,0.252100,-0.302202,22.353270,-0.554829,-0.915776,-18.230974,0.987322,-0.006047,-0.007124,-0.158456
3339,0.043794,-0.097964,9.921374,0.274591,-0.299305,22.437265,-0.558002,-0.918551,-17.484341,0.988333,-0.006031,-0.007182,-0.152020
3340,0.039634,-0.124935,9.920398,0.122688,-0.284190,22.334538,-0.563361,-0.920974,-16.738024,0.989302,-0.006033,-0.007236,-0.145581
3341,0.037173,-0.143041,9.917503,0.025734,-0.289665,22.754862,-0.572981,-0.923078,-15.986414,0.990234,-0.006072,-0.007282,-0.139089
3342,0.036141,-0.129559,9.917693,0.108736,-0.299835,23.006197,-0.583043,-0.925203,-15.223605,0.991138,-0.006112,-0.007329,-0.132495
3343,0.031622,-0.136135,9.921723,0.079933,-0.279524,22.832577,-0.592250,-0.927027,-14.459502,0.991998,-0.006145,-0.007375,-0.125884
3344,0.025812,-0.126336,9.924367,0.177789,-0.282457,23.021582,-0.600330,-0.928438,-13.695146,0.992816,-0.006167,-0.007420,-0.119265
3345,0.026851,-0.101849,9.928185,0.220122,-0.303402,23.620392,-0.606307,-0.930022,-12.917656,0.993602,-0.006170,-0.007469,-0.112527
3346,0.028220,-0.095548,9.926749,0.231413,-0.305199,23.353107,-0.611505,-0.931847,-12.134639,0.994347,-0.006166,-0.007522,-0.105735
3347,0.026144,-0.089559,9.923444,0.345500,-0.282674,22.521324,-0.614337,-0.933466,-11.369942,0.995030,-0.006141,-0.007575,-0.099097
3348,0.021478,-0.063240,9.921972,0.652370,-0.250008,21.217371,-0.609591,-0.934564,-10.640846,0.995640,-0.006053,-0.007627,-0.092764
3349,0.025514,-0.062162,9.915174,0.898693,-0.227255,19.973619,-0.594944,-0.935320,-9.954223,0.996179,-0.005880,-0.007681,-0.086796
3350,0.021093,-0.066588,9.910043,1.051561,-0.184773,18.739422,-0.572976,-0.935626,-9.308908,0.996653,-0.005646,-0.007732,-0.081183
3351,0.017464,-0.065600,9.911421,1.111252,-0.148703,18.477028,-0.547055,-0.935131,-8.688545,0.997079,-0.005378,-0.007775,-0.075785
3352,0.018493,-0.068099,9.917471,0.698071,-0.148945,18.548834,-0.526967,-0.934311,-8.071366,0.997474,-0.005161,-0.007809,-0.070412
3353,0.028833,-0.079303,9.918046,0.159756,-0.171050,18.762669,-0.522810,-0.933929,-7.449423,0.997842,-0.005082,-0.007836,-0.064997
3354,0.029938,-0.091605,9.920023,-0.495539,-0.182159,19.049963,-0.538681,-0.933953,-6.819119,0.998183,-0.005177,-0.007856,-0.059509
3355,0.035076,-0.088841,9.918422,-0.883419,-0.220195,19.701321,-0.572195,-0.934368,-6.173166,0.998501,-0.005425,-0.007873,-0.053883
3356,0.036555,-0.093109,9.919785,-1.279838,-0.265413,20.125608,-0.619084,-0.935543,-5.509271,0.998795,-0.005788,-0.007895,-0.048101
3357,0.033579,-0.117507,9.917256,-1.177831,-0.286996,20.468292,-0.671104,-0.937114,-4.832581,0.999058,-0.006196,-0.007923,-0.042205
3358,0.029652,-0.143777,9.916041,-0.861328,-0.291087,20.505896,-0.716269,-0.938486,-4.149545,0.999290,-0.006543,-0.007958,-0.036253
3359,0.027753,-0.137060,9.916473,-0.370617,-0.270614,19.967020,-0.747856,-0.939245,-3.474867,0.999484,-0.006772,-0.007995,-0.030371
3360,0.028662,-0.150543,9.916521,-0.150005,-0.238151,18.626165,-0.767078,-0.939243,-2.831528,0.999637,-0.006894,-0.008028,-0.024761
3361,0.029470,-0.159123,9.918845,0.165145,-0.161490,16.229204,-0.776343,-0.938088,-2.250510,0.999750,-0.006934,-0.008051,-0.019692
3362,0.034528,-0.152970,9.919525,0.516046,-0.074643,12.983187,-0.772949,-0.935455,-1.763575,0.999825,-0.006870,-0.008058,-0.015444
3363,0.033067,-0.126344,9.919919,0.818920,0.096016,9.829366,-0.756887,-0.930038,-1.383360,0.999872,-0.006702,-0.008036,-0.012125
3364,0.033769,-0.115630,9.918943,0.791501,0.150001,6.697639,-0.734494,-0.922367,-1.107953,0.999900,-0.006487,-0.007987,-0.009720
3365,0.031324,-0.105309,9.920442,0.579846,0.222648,4.008570,-0.714495,-0.913906,-0.929588,0.999915,-0.006299,-0.007924,-0.008161
3366,0.029007,-0.093024,9.919407,0.284994,0.265521,1.975550,-0.701660,-0.904540,-0.829948,0.999924,-0.006180,-0.007849,-0.007291
3367,0.028700,-0.080051,9.911177,-0.057799,0.274610,0.659605,-0.698559,-0.895001,-0.786137,0.999927,-0.006149,-0.007768,-0.006908
3368,0.031905,-0.083674,9.917027,-0.566900,0.268987,-0.014834,-0.709136,-0.885809,-0.775502,0.999928,-0.006240,-0.007688,-0.006815
3369,0.031650,-0.109389,9.918408,-0.902728,0.268891,-0.225831,-0.733566,-0.876895,-0.779626,0.999927,-0.006453,-0.007608,-0.006852
3370,0.030174,-0.123501,9.918174,-0.615357,0.270918,-0.261854,-0.758741,-0.868005,-0.787872,0.999925,-0.006673,-0.007529,-0.006925
3371,0.034226,-0.120870,9.917276,-0.091609,0.263080,-0.237794,-0.770397,-0.859216,-0.796318,0.999925,-0.006775,-0.007451,-0.006999
3372,0.033365,-0.128851,9.926800,0.373763,0.274139,-0.248167,-0.765571,-0.850372,-0.804538,0.999925,-0.006733,-0.007374,-0.007070
3373,0.028071,-0.123163,9.922472,1.251321,0.262747,-0.301652,-0.738350,-0.841545,-0.813819,0.999927,-0.006495,-0.007298,-0.007149
3374,0.028163,-0.087893,9.923115,2.096536,0.235881,-0.380984,-0.682384,-0.833375,-0.825299,0.999930,-0.006007,-0.007229,-0.007245
3375,0.029094,-0.066535,9.929227,2.209938,0.206949,-0.468843,-0.610403,-0.826155,-0.839546,0.999933,-0.005379,-0.007170,-0.007364
3376,0.022363,-0.049431,9.930390,2.067976,0.220395,-0.551663,-0.538859,-0.819203,-0.856626,0.999935,-0.004756,-0.007113,-0.007509
3377,0.024549,-0.044144,9.931623,1.431306,0.225044,-0.553401,-0.480275,-0.811944,-0.875111,0.999937,-0.004245,-0.007053,-0.007666
3379,0.027912,-0.051596,9.938691,0.375279,0.253635,-0.489030,-0.449919,-0.804108,-0.892551,0.999937,-0.003981,-0.006986,-0.007816
3380,0.028415,-0.091013,9.942527,-0.469001,0.290135,-0.400444,-0.451273,-0.795164,-0.907449,0.999937,-0.003993,-0.006908,-0.007946
3381,0.031200,-0.086467,9.935940,-0.438668,0.305676,-0.345791,-0.466229,-0.785334,-0.919967,0.999936,-0.004123,-0.006820,-0.008056
3382,0.035861,-0.108044,9.933062,-0.484428,0.286360,-0.300855,-0.481466,-0.775556,-0.930827,0.999935,-0.004256,-0.006734,-0.008151
3383,0.035303,-0.090044,9.929033,0.148638,0.259205,-0.269573,-0.486933,-0.766544,-0.940411,0.999935,-0.004304,-0.006654,-0.008235
3384,0.035755,-0.084127,9.925051,0.345333,0.247817,-0.242390,-0.478586,-0.758166,-0.949015,0.999935,-0.004231,-0.006581,-0.008309
3385,0.030849,-0.059951,9.917193,0.371186,0.249137,-0.232529,-0.466539,-0.749949,-0.956999,0.999935,-0.004126,-0.006510,-0.008378
3386,0.029674,-0.064146,9.919713,0.135001,0.247496,-0.181991,-0.458012,-0.741727,-0.963975,0.999935,-0.004051,-0.006439,-0.008438
3387,0.031166,-0.042355,9.919569,0.074792,0.254909,-0.138599,-0.454446,-0.733397,-0.969385,0.999936,-0.004020,-0.006366,-0.008485
3388,0.025999,-0.049440,9.919009,-0.475236,0.287595,-0.127548,-0.461062,-0.724391,-0.973894,0.999936,-0.004077,-0.006287,-0.008524
3389,0.024703,-0.030635,9.915567,-0.556285,0.278240,-0.105345,-0.478205,-0.714993,-0.977853,0.999935,-0.004226,-0.006204,-0.008559
3390,0.031409,-0.045473,9.922472,-0.790134,0.260890,-0.068385,-0.500608,-0.706032,-0.980825,0.999935,-0.004421,-0.006124,-0.008586
3391,0.033578,-0.061851,9.921103,-0.903882,0.239975,-0.052650,-0.528816,-0.697703,-0.982918,0.999934,-0.004667,-0.006049,-0.008605
3392,0.032081,-0.083177,9.921126,-0.850544,0.217753,-0.048880,-0.558035,-0.690091,-0.984682,0.999933,-0.004921,-0.005980,-0.008622
3393,0.031255,-0.095972,9.924516,-0.456177,0.201612,-0.028650,-0.579798,-0.683114,-0.986044,0.999932,-0.005111,-0.005917,-0.008635
3394,0.030957,-0.140971,9.931243,-0.614674,0.214797,-0.031734,-0.597632,-0.676185,-0.987122,0.999932,-0.005266,-0.005856,-0.008645
3395,0.029832,-0.135537,9.929041,-0.411849,0.222695,-0.047213,-0.614725,-0.668908,-0.988515,0.999931,-0.005415,-0.005791,-0.008657
3396,0.026363,-0.134798,9.927771,-0.357144,0.234142,-0.057880,-0.627520,-0.661313,-0.990349,0.999931,-0.005526,-0.005723,-0.008674
3397,0.025921,-0.142221,9.932600,-0.466747,0.255058,-0.059207,-0.641228,-0.653182,-0.992390,0.999930,-0.005645,-0.005651,-0.008692
3398,0.032214,-0.122481,9.925559,-0.552894,0.251587,-0.066230,-0.658197,-0.644762,-0.994577,0.999930,-0.005792,-0.005576,-0.008711
3399,0.031815,-0.105767,9.920090,-0.214060,0.251999,-0.071410,-0.670953,-0.636396,-0.996968,0.999929,-0.005903,-0.005502,-0.008732
3400,0.028991,-0.107580,9.918114,-0.075597,0.251841,-0.063687,-0.675755,-0.628026,-0.999318,0.999929,-0.005945,-0.005429,-0.008753
3401,0.028413,-0.112918,9.921972,-0.050301,0.262030,-0.062021,-0.677829,-0.619487,-1.001514,0.999929,-0.005962,-0.005354,-0.008771
3402,0.029731,-0.104340,9.913421,0.033274,0.242132,-0.062378,-0.678090,-0.611109,-1.003687,0.999930,-0.005964,-0.005281,-0.008790
3403,0.027389,-0.117356,9.922566,-0.025216,0.246756,-0.075672,-0.677930,-0.602989,-1.006084,0.999930,-0.005962,-0.005210,-0.008810
3404,0.032218,-0.118553,9.921331,-0.047108,0.223077,-0.081947,-0.679107,-0.595190,-1.008804,0.999930,-0.005972,-0.005142,-0.008834
3405,0.033253,-0.119783,9.925691,-0.069764,0.216642,-0.089620,-0.681024,-0.587896,-1.011751,0.999930,-0.005988,-0.005078,-0.008859
3406,0.032133,-0.120305,9.920610,-0.072029,0.207426,-0.101814,-0.683354,-0.580866,-1.015025,0.999930,-0.006008,-0.005016,-0.008888
3407,0.030303,-0.121017,9.923593,-0.071303,0.206574,-0.100247,-0.685708,-0.574007,-1.018475,0.999930,-0.006028,-0.004956,-0.008917
3408,0.028787,-0.122569,9.922122,-0.050262,0.195707,-0.083404,-0.687703,-0.567340,-1.021616,0.999930,-0.006045,-0.004897,-0.008945
3409,0.024439,-0.122520,9.924453,-0.038379,0.203833,-0.074139,-0.689154,-0.560713,-1.024322,0.999930,-0.006057,-0.004839,-0.008968
3410,0.022388,-0.119895,9.922723,-0.027099,0.196175,-0.077231,-0.690220,-0.554077,-1.026925,0.999930,-0.006066,-0.004781,-0.008990
3411,0.025928,-0.118760,9.925556,-0.030821,0.183079,-0.066741,-0.691161,-0.547785,-1.029401,0.999930,-0.006074,-0.004726,-0.009012
3412,0.026517,-0.119091,9.926652,-0.026684,0.186272,-0.060683,-0.692099,-0.541656,-1.031599,0.999930,-0.006082,-0.004672,-0.009031
3413,0.026248,-0.122607,9.923763,-0.053255,0.185879,-0.063662,-0.693411,-0.535479,-1.033746,0.999930,-0.006093,-0.004618,-0.009049
3414,0.028984,-0.120580,9.923206,-0.043726,0.173743,-0.066898,-0.695006,-0.529512,-1.035995,0.999930,-0.006106,-0.004566,-0.009068
3415,0.031634,-0.121808,9.923498,-0.035786,0.166522,-0.060890,-0.696311,-0.523867,-1.038193,0.999930,-0.006118,-0.004516,-0.009087
3416,0.028250,-0.119547,9.923190,-0.017938,0.173819,-0.048655,-0.697190,-0.518217,-1.040088,0.999930,-0.006125,-0.004467,-0.009104
3417,0.029521,-0.116032,9.923084,-0.004289,0.166154,-0.061031,-0.697543,-0.512574,-1.041985,0.999930,-0.006128,-0.004417,-0.009120
3418,0.032852,-0.115494,9.924348,0.017349,0.147961,-0.055087,-0.697308,-0.507362,-1.043984,0.999930,-0.006125,-0.004372,-0.009137
3419,0.031394,-0.114472,9.924681,0.024804,0.154469,-0.058141,-0.696588,-0.502345,-1.045932,0.999930,-0.006119,-0.004328,-0.009154
3420,0.031481,-0.118558,9.922643,0.009554,0.161170,-0.050435,-0.695999,-0.497107,-1.047805,0.999930,-0.006113,-0.004282,-0.009170
3421,0.033635,-0.119093,9.923407,0.009278,0.151126,-0.070361,-0.695667,-0.491927,-1.049882,0.999930,-0.006110,-0.004237,-0.009188
3422,0.033508,-0.127704,9.924026,-0.014210,0.137000,-0.080851,-0.695727,-0.487156,-1.052460,0.999930,-0.006110,-0.004195,-0.009210
3423,0.032323,-0.129235,9.924611,-0.030831,0.142918,-0.094532,-0.696453,-0.482526,-1.055440,0.999930,-0.006116,-0.004155,-0.009236
3424,0.033590,-0.133521,9.924042,-0.047498,0.126554,-0.100603,-0.697730,-0.478075,-1.058747,0.999930,-0.006127,-0.004115,-0.009264
3425,0.031610,-0.127634,9.922546,-0.029981,0.128796,-0.115962,-0.698991,-0.473863,-1.062408,0.999930,-0.006138,-0.004078,-0.009296
3426,0.029110,-0.119194,9.921397,-0.005042,0.135726,-0.103894,-0.699544,-0.469500,-1.066126,0.999930,-0.006142,-0.004040,-0.009328
3427,0.030730,-0.114742,9.921055,0.012676,0.132215,-0.093398,-0.699390,-0.465074,-1.069468,0.999929,-0.006141,-0.004001,-0.009357
3428,0.031186,-0.112296,9.920214,0.028834,0.127441,-0.093493,-0.698673,-0.460785,-1.072636,0.999929,-0.006134,-0.003964,-0.009385
3429,0.029890,-0.110366,9.916692,0.038568,0.136925,-0.091986,-0.697524,-0.456417,-1.075781,0.999929,-0.006124,-0.003926,-0.009412
3430,0.032466,-0.115547,9.917714,0.010901,0.121484,-0.085874,-0.696676,-0.452147,-1.078797,0.999929,-0.006116,-0.003888,-0.009438
3431,0.039994,-0.117357,9.921229,0.009972,0.099419,-0.093748,-0.696304,-0.448502,-1.081836,0.999929,-0.006113,-0.003856,-0.009464
3432,0.035332,-0.114678,9.917644,0.015903,0.118882,-0.092136,-0.695848,-0.444901,-1.084978,0.999929,-0.006109,-0.003825,-0.009491
3433,0.031437,-0.111024,9.918167,0.029340,0.134695,-0.093626,-0.695070,-0.440713,-1.088125,0.999929,-0.006102,-0.003788,-0.009519
3434,0.034141,-0.106035,9.925435,0.039075,0.135799,-0.090800,-0.693906,-0.436242,-1.091253,0.999929,-0.006091,-0.003749,-0.009546
3435,0.026740,-0.101047,9.926735,0.062178,0.153670,-0.081515,-0.692196,-0.431453,-1.094183,0.999929,-0.006076,-0.003707,-0.009571
3436,0.019899,-0.106663,9.924455,0.054297,0.178930,-0.084225,-0.690233,-0.425943,-1.097013,0.999929,-0.006059,-0.003659,-0.009595
3437,0.025266,-0.111749,9.931553,0.040454,0.170191,-0.079750,-0.688634,-0.420158,-1.099815,0.999929,-0.006044,-0.003609,-0.009619
3438,0.025432,-0.112809,9.929269,0.013674,0.162501,-0.079760,-0.687712,-0.414645,-1.102540,0.999929,-0.006036,-0.003560,-0.009643
3439,0.022190,-0.116162,9.924518,0.012564,0.164769,-0.071974,-0.687256,-0.409221,-1.105134,0.999929,-0.006032,-0.003513,-0.009665
3440,0.031139,-0.119845,9.922641,0.009277,0.156306,-0.078340,-0.686873,-0.403901,-1.107704,0.999929,-0.006028,-0.003467,-0.009687
3441,0.033916,-0.120611,9.921969,-0.014519,0.141264,-0.079975,-0.686942,-0.398973,-1.110402,0.999929,-0.006028,-0.003423,-0.009711
3442,0.027857,-0.121792,9.919332,-0.013424,0.139708,-0.082821,-0.687388,-0.394323,-1.113171,0.999929,-0.006032,-0.003383,-0.009735
3443,0.031199,-0.128253,9.918323,-0.022774,0.131001,-0.073678,-0.687973,-0.389843,-1.115833,0.999929,-0.006036,-0.003343,-0.009758
3444,0.034044,-0.130379,9.922717,-0.014779,0.113162,-0.079867,-0.688582,-0.385804,-1.118441,0.999928,-0.006042,-0.003308,-0.009780
3445,0.028184,-0.127896,9.927787,0.000452,0.113050,-0.082789,-0.688802,-0.382067,-1.121197,0.999928,-0.006043,-0.003275,-0.009804
3446,0.025915,-0.125863,9.925090,0.026122,0.111831,-0.070562,-0.688342,-0.378350,-1.123798,0.999928,-0.006039,-0.003243,-0.009826
3447,0.031841,-0.114910,9.927462,0.062153,0.096160,-0.064894,-0.686855,-0.374911,-1.126097,0.999928,-0.006026,-0.003213,-0.009846
3448,0.028017,-0.115335,9.927032,0.063244,0.101096,-0.067821,-0.684751,-0.371650,-1.128348,0.999928,-0.006007,-0.003184,-0.009866
3449,0.025701,-0.107501,9.921910,0.072471,0.104803,-0.061797,-0.682475,-0.368244,-1.130549,0.999928,-0.005987,-0.003155,-0.009885
3450,0.032895,-0.105862,9.920109,0.074550,0.080990,-0.062088,-0.680011,-0.365173,-1.132651,0.999928,-0.005965,-0.003128,-0.009903
3451,0.033271,-0.104880,9.926500,0.084052,0.074029,-0.077389,-0.677353,-0.362617,-1.135006,0.999928,-0.005942,-0.003106,-0.009923
3452,0.028893,-0.112678,9.921740,0.066220,0.088579,-0.084734,-0.674831,-0.359939,-1.137740,0.999928,-0.005920,-0.003082,-0.009947
3453,0.033781,-0.109914,9.920858,0.075994,0.071775,-0.078856,-0.672443,-0.357298,-1.140498,0.999928,-0.005899,-0.003059,-0.009971
3454,0.032561,-0.111083,9.923491,0.054761,0.077220,-0.084907,-0.670247,-0.354847,-1.143256,0.999928,-0.005880,-0.003038,-0.009995
3455,0.029201,-0.123282,9.918999,0.012182,0.087357,-0.073900,-0.669115,-0.352135,-1.145935,0.999928,-0.005870,-0.003014,-0.010018
3456,0.036069,-0.121088,9.914298,0.010119,0.067810,-0.074183,-0.668728,-0.349578,-1.148433,0.999928,-0.005866,-0.002992,-0.010039
3457,0.037706,-0.120112,9.916253,0.014312,0.057384,-0.065114,-0.668306,-0.347519,-1.150779,0.999928,-0.005862,-0.002974,-0.010060
3458,0.036136,-0.120945,9.917913,0.005622,0.064094,-0.068109,-0.667960,-0.345520,-1.153023,0.999928,-0.005859,-0.002956,-0.010079
3459,0.040338,-0.126128,9.914145,-0.002073,0.067825,-0.065118,-0.667888,-0.343348,-1.155269,0.999928,-0.005858,-0.002937,-0.010099
3460,0.034572,-0.117274,9.914623,0.012770,0.074376,-0.089503,-0.667694,-0.341008,-1.157873,0.999927,-0.005856,-0.002917,-0.010121
3461,0.022412,-0.124588,9.917192,-0.016024,0.120737,-0.078298,-0.667731,-0.337789,-1.160707,0.999927,-0.005857,-0.002889,-0.010146
3462,0.024443,-0.123621,9.916744,-0.039219,0.122619,-0.078400,-0.668636,-0.333764,-1.163366,0.999927,-0.005864,-0.002853,-0.010169
3463,0.027063,-0.120558,9.914856,-0.020867,0.113211,-0.080090,-0.669622,-0.329864,-1.166053,0.999927,-0.005872,-0.002819,-0.010192
3464,0.027385,-0.127989,9.916446,-0.032676,0.089155,-0.075422,-0.670500,-0.326522,-1.168684,0.999927,-0.005880,-0.002790,-0.010215
3465,0.035921,-0.134543,9.921315,-0.038857,0.073705,-0.063417,-0.671678,-0.323835,-1.171030,0.999927,-0.005890,-0.002766,-0.010235
3466,0.044211,-0.130927,9.916276,-0.026590,0.040828,-0.062249,-0.672757,-0.321951,-1.173147,0.999926,-0.005899,-0.002749,-0.010254
3467,0.045975,-0.138968,9.926810,-0.044380,0.031942,-0.068296,-0.673928,-0.320764,-1.175337,0.999926,-0.005909,-0.002739,-0.010273
3468,0.043596,-0.135843,9.930857,-0.036264,0.047483,-0.077431,-0.675258,-0.319468,-1.177781,0.999926,-0.005921,-0.002727,-0.010294
3469,0.042623,-0.126665,9.931179,-0.016828,0.066503,-0.079082,-0.676129,-0.317600,-1.180412,0.999926,-0.005929,-0.002711,-0.010317
3470,0.035132,-0.119613,9.928255,0.002284,0.088765,-0.086582,-0.676355,-0.315045,-1.183203,0.999925,-0.005930,-0.002688,-0.010341
3471,0.031371,-0.124344,9.927716,-0.012825,0.093879,-0.090971,-0.676515,-0.312036,-1.186198,0.999925,-0.005932,-0.002662,-0.010367
3472,0.025361,-0.118498,9.914459,0.018898,0.100611,-0.089348,-0.676397,-0.308830,-1.189242,0.999925,-0.005930,-0.002634,-0.010394
3473,0.026359,-0.119076,9.912310,0.004878,0.087114,-0.072605,-0.675986,-0.305733,-1.191978,0.999925,-0.005926,-0.002606,-0.010417
3474,0.022534,-0.121927,9.914416,-0.003511,0.075436,-0.078550,-0.675950,-0.303054,-1.194529,0.999925,-0.005926,-0.002583,-0.010439
3475,0.026617,-0.118849,9.910748,0.015897,0.054804,-0.065017,-0.675731,-0.300912,-1.196947,0.999924,-0.005924,-0.002564,-0.010460
3476,0.026828,-0.118368,9.912316,0.018748,0.056335,-0.061990,-0.675142,-0.299084,-1.199086,0.999924,-0.005919,-0.002548,-0.010479
3477,0.023768,-0.119205,9.917685,0.010107,0.079714,-0.063408,-0.674650,-0.296842,-1.201202,0.999924,-0.005914,-0.002529,-0.010497
3478,0.025535,-0.127883,9.920026,0.006209,0.082818,-0.057246,-0.674368,-0.294157,-1.203245,0.999924,-0.005912,-0.002505,-0.010515
3479,0.029861,-0.125726,9.917088,0.016708,0.076723,-0.054388,-0.673976,-0.291520,-1.205137,0.999924,-0.005908,-0.002482,-0.010531
3480,0.030502,-0.130473,9.918918,-0.018557,0.076740,-0.075717,-0.673996,-0.288988,-1.207335,0.999924,-0.005908,-0.002460,-0.010550
3482,0.029081,-0.129006,9.916238,-0.016014,0.084251,-0.063498,-0.674560,-0.286332,-1.209687,0.999924,-0.005913,-0.002436,-0.010571
3483,0.034703,-0.130280,9.918391,-0.017878,0.051550,-0.065213,-0.675114,-0.284094,-1.211858,0.999924,-0.005917,-0.002417,-0.010590
3484,0.030299,-0.124657,9.919022,-0.002928,0.051045,-0.086521,-0.675448,-0.282414,-1.214407,0.999923,-0.005920,-0.002402,-0.010612
3485,0.028949,-0.126517,9.923099,-0.009558,0.061880,-0.081881,-0.675642,-0.280565,-1.217236,0.999923,-0.005922,-0.002386,-0.010636
3486,0.026475,-0.123059,9.925094,0.008178,0.071286,-0.065070,-0.675653,-0.278375,-1.219711,0.999923,-0.005922,-0.002366,-0.010658
3487,0.029837,-0.117507,9.927672,0.030379,0.063680,-0.075956,-0.674999,-0.276153,-1.222088,0.999923,-0.005916,-0.002347,-0.010679
3488,0.030496,-0.113998,9.928399,0.044785,0.074511,-0.068408,-0.673735,-0.273879,-1.224521,0.999923,-0.005905,-0.002327,-0.010700
3489,0.030013,-0.111463,9.926095,0.036156,0.082477,-0.073015,-0.672374,-0.271290,-1.226909,0.999923,-0.005893,-0.002304,-0.010720
3490,0.029070,-0.110680,9.924148,0.037705,0.070257,-0.083687,-0.671131,-0.268775,-1.229550,0.999922,-0.005882,-0.002282,-0.010743
3491,0.032177,-0.113159,9.927343,0.039214,0.063206,-0.083770,-0.669836,-0.266584,-1.232367,0.999922,-0.005870,-0.002263,-0.010768
3492,0.030309,-0.116802,9.927438,0.025014,0.056907,-0.076037,-0.668753,-0.264613,-1.235054,0.999922,-0.005860,-0.002246,-0.010791
3493,0.024560,-0.113561,9.923832,0.029132,0.064961,-0.088103,-0.667838,-0.262614,-1.237813,0.999922,-0.005852,-0.002229,-0.010815
3494,0.028872,-0.113477,9.924030,0.039618,0.047049,-0.082155,-0.666679,-0.260780,-1.240672,0.999922,-0.005842,-0.002213,-0.010840
3495,0.028119,-0.114053,9.927031,0.039012,0.060635,-0.072974,-0.665357,-0.259016,-1.243278,0.999922,-0.005830,-0.002197,-0.010862
3496,0.027113,-0.115032,9.922797,0.030811,0.062723,-0.077512,-0.664182,-0.256989,-1.245810,0.999922,-0.005820,-0.002179,-0.010884
3497,0.033595,-0.118034,9.925211,0.021632,0.046156,-0.083803,-0.663295,-0.255206,-1.248520,0.999921,-0.005812,-0.002164,-0.010908
3498,0.039422,-0.118999,9.920981,0.019762,0.028445,-0.071786,-0.662594,-0.253992,-1.251127,0.999921,-0.005806,-0.002153,-0.010931
3499,0.035798,-0.119864,9.923810,0.015462,0.041420,-0.071659,-0.661996,-0.252856,-1.253531,0.999921,-0.005801,-0.002143,-0.010951
3500,0.037771,-0.117079,9.917091,0.030579,0.024443,-0.065662,-0.661219,-0.251784,-1.255832,0.999921,-0.005794,-0.002134,-0.010971
3501,0.035798,-0.114316,9.918254,0.042781,0.026606,-0.070214,-0.659986,-0.250960,-1.258107,0.999921,-0.005783,-0.002127,-0.010991
3502,0.029898,-0.113606,9.919351,0.050358,0.058564,-0.074606,-0.658423,-0.249568,-1.260536,0.999921,-0.005769,-0.002115,-0.011012
3503,0.031721,-0.117398,9.921441,0.035638,0.054220,-0.080727,-0.656979,-0.247718,-1.263147,0.999920,-0.005757,-0.002098,-0.011035
3504,0.031791,-0.121996,9.912536,0.013661,0.046973,-0.083732,-0.656145,-0.246063,-1.265907,0.999920,-0.005749,-0.002084,-0.011059
3505,0.032113,-0.119544,9.912777,0.018771,0.063590,-0.089885,-0.655592,-0.244254,-1.268821,0.999920,-0.005744,-0.002068,-0.011084
3506,0.033071,-0.121722,9.914968,0.000030,0.056943,-0.085321,-0.655266,-0.242278,-1.271764,0.999920,-0.005741,-0.002051,-0.011110
3507,0.032904,-0.119275,9.915923,0.009980,0.044292,-0.077726,-0.655088,-0.240622,-1.274501,0.999919,-0.005740,-0.002036,-0.011134
3508,0.027447,-0.121834,9.914384,-0.002175,0.063860,-0.075998,-0.654947,-0.238849,-1.277084,0.999919,-0.005738,-0.002020,-0.011156
3509,0.030868,-0.121510,9.918060,0.009455,0.060824,-0.080702,-0.654815,-0.236801,-1.279719,0.999919,-0.005737,-0.002003,-0.011179
3510,0.026685,-0.131363,9.918489,-0.023703,0.068903,-0.083510,-0.655041,-0.234670,-1.282480,0.999919,-0.005739,-0.001984,-0.011203
3511,0.026463,-0.130683,9.916556,-0.023328,0.080755,-0.088101,-0.655813,-0.232209,-1.285369,0.999919,-0.005745,-0.001962,-0.011228
3512,0.028817,-0.132640,9.913109,-0.037989,0.077346,-0.100379,-0.656822,-0.229610,-1.288540,0.999918,-0.005754,-0.001939,-0.011256
3513,0.032272,-0.132796,9.914739,-0.044086,0.064609,-0.109666,-0.658176,-0.227284,-1.292068,0.999918,-0.005766,-0.001919,-0.011286
3514,0.029668,-0.122805,9.919368,-0.017513,0.077162,-0.089873,-0.659189,-0.224960,-1.295420,0.999918,-0.005774,-0.001898,-0.011316
3515,0.034443,-0.121086,9.919088,-0.021254,0.062250,-0.099222,-0.659823,-0.222673,-1.298599,0.999917,-0.005780,-0.001878,-0.011343
3516,0.037359,-0.124517,9.919752,-0.024767,0.051183,-0.085563,-0.660578,-0.220818,-1.301700,0.999917,-0.005786,-0.001861,-0.011370
3517,0.036686,-0.120102,9.920573,-0.013184,0.050690,-0.071868,-0.661200,-0.219150,-1.304343,0.999917,-0.005791,-0.001847,-0.011393
3518,0.032948,-0.118197,9.920259,-0.002833,0.051510,-0.061094,-0.661459,-0.217473,-1.306579,0.999916,-0.005794,-0.001832,-0.011413
3519,0.033576,-0.128198,9.919692,-0.027074,0.041248,-0.071696,-0.661949,-0.215953,-1.308810,0.999916,-0.005798,-0.001818,-0.011432
3520,0.033369,-0.126772,9.924505,-0.022608,0.039630,-0.065612,-0.662768,-0.214631,-1.311113,0.999916,-0.005805,-0.001807,-0.011452
3521,0.034634,-0.123948,9.925486,-0.018652,0.035347,-0.067221,-0.663448,-0.213407,-1.313342,0.999916,-0.005811,-0.001796,-0.011471
3522,0.034000,-0.124117,9.919569,-0.019066,0.038048,-0.076361,-0.664067,-0.212212,-1.315749,0.999916,-0.005816,-0.001785,-0.011492
3523,0.035722,-0.125262,9.917555,-0.009986,0.044676,-0.087096,-0.664541,-0.210865,-1.318489,0.999915,-0.005820,-0.001773,-0.011516
3524,0.034914,-0.125639,9.915733,-0.000284,0.038696,-0.090125,-0.664702,-0.209510,-1.321458,0.999915,-0.005821,-0.001761,-0.011542
3525,0.032911,-0.125579,9.913166,0.005918,0.042268,-0.087016,-0.664597,-0.208194,-1.324426,0.999915,-0.005820,-0.001750,-0.011568
3526,0.029136,-0.127529,9.910812,0.009234,0.047950,-0.083825,-0.664334,-0.206724,-1.327291,0.999914,-0.005818,-0.001737,-0.011593
3527,0.030141,-0.130017,9.918549,0.003650,0.047466,-0.076211,-0.664110,-0.205165,-1.329977,0.999914,-0.005816,-0.001723,-0.011616
3528,0.031855,-0.126014,9.920499,0.016620,0.031100,-0.071741,-0.663763,-0.203884,-1.332457,0.999914,-0.005813,-0.001712,-0.011638
3529,0.031909,-0.122282,9.921454,0.008893,0.044067,-0.062633,-0.663330,-0.202657,-1.334711,0.999914,-0.005809,-0.001701,-0.011657
3530,0.033875,-0.127122,9.922948,-0.002245,0.036280,-0.058078,-0.663212,-0.201341,-1.336739,0.999914,-0.005808,-0.001689,-0.011675
3531,0.031408,-0.125517,9.926273,0.020695,0.048891,-0.071753,-0.662897,-0.199947,-1.338919,0.999913,-0.005805,-0.001677,-0.011694
3532,0.035325,-0.129065,9.924063,0.031507,0.027720,-0.085590,-0.662017,-0.198701,-1.341556,0.999913,-0.005797,-0.001666,-0.011717
3533,0.030923,-0.135060,9.927732,0.035173,0.042895,-0.073181,-0.660897,-0.197554,-1.344216,0.999913,-0.005787,-0.001656,-0.011740
3534,0.028274,-0.138861,9.923838,0.037093,0.042330,-0.077638,-0.659684,-0.196163,-1.346745,0.999913,-0.005777,-0.001644,-0.011762
3535,0.027530,-0.136320,9.923096,0.008561,0.045338,-0.080698,-0.658914,-0.194732,-1.349401,0.999913,-0.005770,-0.001632,-0.011785
3536,0.028931,-0.135872,9.916733,-0.019902,0.025298,-0.073127,-0.659094,-0.193585,-1.351978,0.999912,-0.005771,-0.001621,-0.011807
3537,0.025086,-0.134438,9.915937,-0.064652,0.038915,-0.073021,-0.660495,-0.192543,-1.354426,0.999912,-0.005783,-0.001612,-0.011829
3538,0.028382,-0.125793,9.911518,-0.046864,0.022771,-0.083903,-0.662345,-0.191545,-1.357053,0.999912,-0.005799,-0.001603,-0.011852
3539,0.031199,-0.115943,9.914439,-0.015886,0.017230,-0.091731,-0.663381,-0.190912,-1.359988,0.999911,-0.005808,-0.001597,-0.011877
3540,0.029054,-0.108419,9.914503,-0.019555,0.017024,-0.093262,-0.663961,-0.190377,-1.363078,0.999911,-0.005813,-0.001592,-0.011904
3541,0.028489,-0.106192,9.918344,-0.079810,0.029127,-0.087165,-0.665607,-0.189643,-1.366093,0.999911,-0.005828,-0.001586,-0.011931
3542,0.027847,-0.098901,9.914097,-0.202943,0.032133,-0.062804,-0.670312,-0.188651,-1.368605,0.999910,-0.005869,-0.001576,-0.011952
3543,0.029066,-0.095940,9.918209,-0.324571,0.038856,-0.032366,-0.679098,-0.187486,-1.370205,0.999910,-0.005945,-0.001565,-0.011966
3544,0.026338,-0.088782,9.917420,-0.302436,0.055331,0.008841,-0.689547,-0.185921,-1.370615,0.999909,-0.006036,-0.001550,-0.011970
3545,0.028769,-0.102218,9.920026,-0.323602,0.053680,0.036328,-0.699983,-0.184096,-1.369884,0.999909,-0.006127,-0.001533,-0.011964
3546,0.026188,-0.105530,9.919384,-0.060835,0.058716,-0.000198,-0.706392,-0.182215,-1.369305,0.999908,-0.006183,-0.001516,-0.011959
3547,0.025369,-0.112490,9.924929,0.392511,0.054111,-0.055056,-0.700861,-0.180346,-1.370249,0.999909,-0.006135,-0.001501,-0.011967
3548,0.025667,-0.117483,9.925790,0.721790,0.030994,-0.119113,-0.682281,-0.178963,-1.373169,0.999909,-0.005972,-0.001490,-0.011992
3549,0.028033,-0.127884,9.929955,0.816906,0.006748,-0.207589,-0.656619,-0.178397,-1.378621,0.999910,-0.005748,-0.001488,-0.012039
3550,0.027150,-0.119557,9.924737,0.998773,0.008990,-0.309838,-0.626331,-0.178232,-1.387247,0.999911,-0.005484,-0.001489,-0.012114
3551,0.028496,-0.104172,9.924364,0.971556,-0.007171,-0.380170,-0.593456,-0.178324,-1.398747,0.999911,-0.005197,-0.001493,-0.012214
3552,0.029473,-0.095435,9.922795,0.475246,-0.017576,-0.462630,-0.569299,-0.178879,-1.412788,0.999910,-0.004987,-0.001500,-0.012336
3553,0.026390,-0.101694,9.918175,-0.105885,0.005315,-0.576891,-0.563089,-0.179255,-1.430111,0.999909,-0.004933,-0.001503,-0.012487
3554,0.028074,-0.116345,9.915467,-0.479532,0.011320,-0.776692,-0.572775,-0.179202,-1.452672,0.999906,-0.005018,-0.001500,-0.012684
3555,0.027486,-0.109599,9.916405,-0.700930,-0.000714,-1.088039,-0.592352,-0.179342,-1.483752,0.999902,-0.005189,-0.001498,-0.012956
3556,0.036334,-0.138318,9.912776,-1.360330,0.037844,-2.859668,-0.626500,-0.179423,-1.549550,0.999892,-0.005488,-0.001492,-0.013530
3557,0.040471,-0.150811,9.912398,-1.382491,0.205131,-7.719841,-0.671665,-0.177370,-1.725910,0.999868,-0.005884,-0.001459,-0.015070
3558,0.040977,-0.138908,9.915633,-0.878973,0.319223,-10.954978,-0.708406,-0.172364,-2.037240,0.999822,-0.006208,-0.001394,-0.017786
3559,0.041851,-0.107236,9.915455,-0.616538,0.431372,-14.525955,-0.732081,-0.165173,-2.462043,0.999748,-0.006418,-0.001304,-0.021492
3560,0.042016,-0.147133,9.918202,-0.729117,0.557994,-18.201735,-0.752980,-0.155740,-3.007664,0.999633,-0.006604,-0.001186,-0.026252
3561,0.038205,-0.137970,9.924257,-0.092469,0.593226,-19.070017,-0.765044,-0.144782,-3.629045,0.999475,-0.006713,-0.001051,-0.031672
3562,0.036207,-0.125659,9.926121,0.512501,0.500327,-16.031981,-0.756619,-0.134297,-4.214250,0.999301,-0.006641,-0.000928,-0.036775
3563,0.036804,-0.137553,9.921218,0.497187,0.447707,-14.673904,-0.738632,-0.125148,-4.726165,0.999128,-0.006485,-0.000825,-0.041238
3564,0.035533,-0.171121,9.917418,0.536537,0.384378,-13.242416,-0.720419,-0.117204,-5.191568,0.998953,-0.006327,-0.000737,-0.045295
3565,0.035394,-0.141812,9.914936,0.885958,0.309899,-11.455709,-0.695891,-0.110718,-5.603310,0.998786,-0.006113,-0.000668,-0.048884
3566,0.034887,-0.132851,9.916352,0.572656,0.305457,-12.098152,-0.670841,-0.105131,-5.995964,0.998614,-0.005894,-0.000610,-0.052305
3567,0.033051,-0.132520,9.918729,0.109259,0.345438,-13.849865,-0.658703,-0.099311,-6.428523,0.998410,-0.005788,-0.000543,-0.056074
3568,0.032839,-0.126238,9.918951,-0.017549,0.351280,-14.777659,-0.656373,-0.093192,-6.905744,0.998168,-0.005766,-0.000467,-0.060231
3569,0.034954,-0.111959,9.924740,0.008043,0.356580,-15.374427,-0.655740,-0.087154,-7.408372,0.997894,-0.005760,-0.000389,-0.064608
3570,0.034369,-0.100650,9.929403,-0.014883,0.396734,-16.297659,-0.655080,-0.080637,-7.936337,0.997586,-0.005752,-0.000306,-0.069205
3571,0.031771,-0.119559,9.928556,0.200307,0.421189,-16.585962,-0.651255,-0.073254,-8.484507,0.997244,-0.005715,-0.000217,-0.073976
3572,0.034393,-0.122681,9.924273,0.733672,0.397371,-16.673025,-0.635016,-0.065826,-9.038927,0.996875,-0.005570,-0.000136,-0.078800
3573,0.036626,-0.109035,9.922234,1.152268,0.414047,-17.634460,-0.602963,-0.058459,-9.610816,0.996471,-0.005286,-0.000068,-0.083773
3574,0.030455,-0.102421,9.919696,1.267437,0.439790,-18.334723,-0.562066,-0.050309,-10.210400,0.996021,-0.004925,-0.000001,-0.088986
3575,0.034721,-0.089312,9.918538,1.698594,0.398391,-18.565237,-0.512138,-0.042102,-10.825485,0.995531,-0.004484,0.000056,-0.094330
3576,0.040225,-0.033720,9.914532,2.104055,0.342026,-18.074051,-0.448349,-0.034862,-11.436202,0.995016,-0.003923,0.000087,-0.099635
3577,0.039393,-0.029174,9.918000,1.690440,0.313533,-17.631437,-0.384779,-0.028243,-12.031340,0.994488,-0.003365,0.000107,-0.104801
3578,0.043094,-0.034182,9.924105,1.176833,0.293780,-17.513903,-0.336735,-0.021825,-12.617128,0.993940,-0.002942,0.000134,-0.109883
3579,0.050779,-0.025778,9.923260,0.936052,0.285222,-18.456959,-0.301325,-0.015535,-13.216670,0.993353,-0.002628,0.000168,-0.115082
3580,0.049874,-0.027439,9.921079,0.313495,0.331899,-19.683731,-0.280366,-0.008490,-13.852375,0.992699,-0.002438,0.000221,-0.120590
3581,0.046821,-0.060644,9.924355,-0.367418,0.384533,-21.333185,-0.281215,0.000070,-14.536016,0.991962,-0.002434,0.000311,-0.126510
3582,0.043684,-0.043702,9.925824,-0.331949,0.432187,-23.039156,-0.292937,0.009942,-15.275583,0.991125,-0.002522,0.000426,-0.132909
3583,0.037787,-0.036694,9.928954,-0.438969,0.454827,-24.099644,-0.305996,0.020622,-16.061256,0.990190,-0.002619,0.000551,-0.139701
3585,0.036041,-0.029297,9.926375,-0.953600,0.507816,-25.582850,-0.329586,0.032068,-16.889328,0.989154,-0.002804,0.000699,-0.146853
3586,0.034519,-0.043965,9.929996,-1.141188,0.544823,-26.805164,-0.365081,0.044289,-17.762506,0.988006,-0.003088,0.000874,-0.154385
3587,0.034388,-0.051186,9.929528,-0.987808,0.540342,-26.689268,-0.401347,0.056403,-18.654127,0.986773,-0.003376,0.001053,-0.162067
3588,0.038744,-0.086147,9.927641,-1.266580,0.541425,-26.971775,-0.439888,0.067875,-19.548525,0.985477,-0.003682,0.001235,-0.169763
3589,0.044146,-0.091539,9.924015,-1.151018,0.570951,-28.363623,-0.481361,0.078982,-20.470840,0.984078,-0.004011,0.001425,-0.177689
3590,0.044753,-0.111990,9.926966,-0.732665,0.574411,-28.792585,-0.514158,0.089806,-21.423508,0.982565,-0.004263,0.001604,-0.185863
3591,0.047764,-0.111477,9.925452,-0.315034,0.552877,-28.817163,-0.533207,0.099847,-22.383732,0.980973,-0.004395,0.001758,-0.194089
3592,0.049528,-0.089119,9.922420,0.068478,0.543450,-29.447403,-0.539085,0.109061,-23.354862,0.979292,-0.004414,0.001884,-0.202395
3593,0.055471,-0.069794,9.923688,0.336913,0.526836,-29.296421,-0.534265,0.117754,-24.333977,0.977527,-0.004341,0.001987,-0.210755
3594,0.053292,-0.069363,9.924732,0.726792,0.491362,-27.837605,-0.518562,0.125993,-25.286255,0.975743,-0.004175,0.002063,-0.218871
3595,0.058394,-0.030750,9.923771,1.143419,0.396006,-25.225130,-0.489392,0.133032,-26.170668,0.974026,-0.003897,0.002098,-0.226395
3596,0.058199,-0.017598,9.924459,1.019319,0.347669,-23.285555,-0.455262,0.138793,-26.979202,0.972405,-0.003581,0.002105,-0.233262
3597,0.062920,-0.018340,9.921896,0.848009,0.301318,-21.509396,-0.425982,0.143866,-27.725809,0.970865,-0.003308,0.002110,-0.239593
3598,0.055555,-0.018974,9.917788,0.524601,0.273750,-20.381556,-0.404885,0.148382,-28.424019,0.969388,-0.003107,0.002123,-0.245504
3599,0.055776,-0.016187,9.916339,-0.351397,0.272735,-20.062586,-0.403770,0.152719,-29.098114,0.967927,-0.003076,0.002175,-0.251202
3600,0.046795,-0.040462,9.914425,-1.382365,0.337517,-20.959837,-0.434518,0.157845,-29.781849,0.966410,-0.003311,0.002306,-0.256973
3601,0.047504,-0.076796,9.909100,-2.446029,0.426767,-22.949938,-0.500385,0.164562,-30.513737,0.964747,-0.003835,0.002535,-0.263138
3602,0.031098,-0.104684,9.910313,-4.277822,0.668590,-30.796253,-0.615096,0.174050,-31.409603,0.962656,-0.004756,0.002915,-0.270669
3603,0.031517,-0.149495,9.908497,-7.174932,1.109428,-40.130814,-0.809717,0.188927,-32.591892,0.959803,-0.006320,0.003565,-0.280580
3604,0.042410,-0.211468,9.903658,-8.527691,1.076864,-44.096268,-1.076214,0.202138,-33.995903,0.956276,-0.008466,0.004432,-0.292308
3605,0.045946,-0.267953,9.905058,-8.062179,1.158558,-44.808468,-1.357967,0.207850,-35.477856,0.952393,-0.010734,0.005338,-0.304638
3606,0.046269,-0.285036,9.907755,-7.087271,1.254594,-45.141819,-1.615889,0.209218,-36.977291,0.948299,-0.012794,0.006203,-0.317060
3607,0.064260,-0.320763,9.908888,-5.465852,1.243749,-40.895500,-1.830308,0.207833,-38.411587,0.944231,-0.014486,0.006967,-0.328892
3608,0.065384,-0.318972,9.912399,-2.349402,1.041565,-34.853420,-1.965097,0.204199,-39.674446,0.940531,-0.015526,0.007495,-0.339270
3609,0.055866,-0.304912,9.918701,-0.299478,1.168484,-32.747120,-2.013235,0.202132,-40.801590,0.937142,-0.015851,0.007777,-0.348502
3610,0.061403,-0.297131,9.917819,0.283350,1.030208,-32.089905,-2.017321,0.200915,-41.882729,0.933812,-0.015814,0.007929,-0.357328
3611,0.064270,-0.279502,9.917830,0.488103,0.938575,-31.012693,-2.008106,0.196817,-42.934853,0.930493,-0.015679,0.008011,-0.365887
3612,0.070525,-0.264945,9.918754,0.374630,0.831531,-28.963696,-1.997111,0.191386,-43.934795,0.927266,-0.015537,0.008068,-0.373995
3613,0.079451,-0.270523,9.928929,-0.069409,0.913146,-27.165262,-1.995118,0.187856,-44.870644,0.924180,-0.015467,0.008159,-0.381556
3614,0.084388,-0.269746,9.926607,-0.220878,0.973451,-26.500301,-2.002902,0.188051,-45.765575,0.921171,-0.015464,0.008308,-0.388761
3615,0.082369,-0.273955,9.929473,-0.370006,1.116155,-26.263702,-2.015674,0.192013,-46.645599,0.918157,-0.015489,0.008502,-0.395822
3616,0.083381,-0.271591,9.931895,-0.538168,1.112026,-25.836599,-2.033780,0.198437,-47.514656,0.915127,-0.015546,0.008734,-0.402772
3617,0.079250,-0.275169,9.930864,-0.560201,1.087515,-25.322212,-2.055089,0.204644,-48.368019,0.912099,-0.015628,0.008975,-0.409573
3618,0.076110,-0.256666,9.922450,-0.104876,0.862449,-24.395741,-2.069154,0.207303,-49.197247,0.909110,-0.015664,0.009160,-0.416161
3619,0.067907,-0.266795,9.927748,-0.152841,0.800994,-23.215714,-2.076303,0.206335,-49.991207,0.906204,-0.015660,0.009288,-0.422449
3620,0.073616,-0.241293,9.930924,-0.314120,0.747390,-22.936741,-2.086841,0.204182,-50.760811,0.903345,-0.015689,0.009415,-0.428525
3621,0.073264,-0.255637,9.927698,-0.311880,0.728607,-22.056391,-2.099927,0.201365,-51.511063,0.900518,-0.015740,0.009545,-0.434430
3622,0.070876,-0.257189,9.928622,-0.120602,0.711490,-21.256655,-2.109658,0.198837,-52.233315,0.897760,-0.015766,0.009661,-0.440096
3623,0.070691,-0.284325,9.926393,-0.080753,0.697106,-20.883009,-2.115438,0.196418,-52.936005,0.895044,-0.015761,0.009762,-0.445593
3624,0.078598,-0.260593,9.919974,0.033816,0.692529,-21.358036,-2.118618,0.193557,-53.640385,0.892287,-0.015737,0.009848,-0.451086
3625,0.075477,-0.280705,9.914903,0.038892,0.716589,-21.812662,-2.119817,0.190426,-54.360241,0.889436,-0.015696,0.009928,-0.456683
3626,0.077535,-0.279404,9.912166,0.074411,0.741779,-22.597132,-2.120370,0.187334,-55.100765,0.886465,-0.015649,0.010007,-0.462422
3627,0.078844,-0.271919,9.913859,0.126423,0.756433,-23.126663,-2.119494,0.184099,-55.863201,0.883369,-0.015588,0.010083,-0.468310
3628,0.082411,-0.252071,9.913034,0.131335,0.740251,-22.853651,-2.117639,0.180700,-56.629898,0.880216,-0.015520,0.010153,-0.474211
3629,0.081492,-0.267713,9.908836,-0.029672,0.706337,-21.935059,-2.118277,0.177206,-57.376736,0.877106,-0.015473,0.010230,-0.479938
3630,0.084310,-0.296760,9.908112,-0.102725,0.681220,-21.398340,-2.122696,0.173585,-58.099300,0.874062,-0.015457,0.010318,-0.485459
3631,0.085949,-0.311505,9.908658,-0.111339,0.719750,-22.207296,-2.128443,0.169959,-58.826393,0.870963,-0.015451,0.010413,-0.490995
3632,0.082334,-0.326475,9.908025,-0.219265,0.832208,-24.457838,-2.136240,0.166869,-59.604549,0.867608,-0.015452,0.010528,-0.496898
3633,0.081664,-0.343619,9.904678,-0.310039,0.956365,-27.134369,-2.147552,0.164515,-60.464874,0.863851,-0.015468,0.010676,-0.503397
3634,0.083491,-0.351920,9.910996,-0.265212,1.070427,-29.789701,-2.159851,0.162613,-61.414150,0.859649,-0.015480,0.010844,-0.510535
3635,0.082443,-0.314331,9.913661,-0.180378,1.195020,-32.243099,-2.170202,0.161291,-62.448639,0.855004,-0.015465,0.011020,-0.518274
3636,0.076068,-0.270922,9.914167,-0.059229,1.277496,-33.133484,-2.177266,0.161149,-63.538933,0.850033,-0.015412,0.011198,-0.526385
3637,0.080913,-0.260798,9.917485,-0.125547,1.211721,-32.366314,-2.183421,0.161084,-64.631279,0.844976,-0.015350,0.011373,-0.534463
3638,0.081639,-0.252754,9.917480,0.001512,1.154764,-30.983871,-2.188448,0.160219,-65.687752,0.840012,-0.015286,0.011532,-0.542230
3639,0.078331,-0.230011,9.916764,0.565902,1.172437,-28.909750,-2.181791,0.160926,-66.686653,0.835254,-0.015133,0.011638,-0.549532
3640,0.071811,-0.211040,9.918048,0.744086,1.115655,-26.759068,-2.162598,0.163909,-67.615173,0.830777,-0.014884,0.011688,-0.556284
3641,0.076342,-0.231806,9.915046,0.668034,0.977596,-24.583590,-2.141536,0.166654,-68.471542,0.826600,-0.014631,0.011716,-0.562478
3642,0.072578,-0.223995,9.910621,0.930767,0.967406,-23.142744,-2.117222,0.169492,-69.267593,0.822676,-0.014361,0.011717,-0.568209
3643,0.074368,-0.215115,9.910753,1.147541,0.960491,-22.396624,-2.084863,0.173794,-70.027222,0.818895,-0.014030,0.011680,-0.573653
3644,0.066575,-0.208616,9.912887,1.119726,0.912784,-22.130411,-2.049360,0.178240,-70.769936,0.815165,-0.013679,0.011623,-0.578951
3645,0.071592,-0.226833,9.906874,1.245794,0.780711,-21.280947,-2.012203,0.180807,-71.493973,0.811495,-0.013329,0.011538,-0.584094
3646,0.068834,-0.230122,9.910206,1.721358,0.702934,-20.479584,-1.964947,0.181377,-72.190399,0.807936,-0.012923,0.011380,-0.589019
3647,0.070054,-0.222538,9.909608,2.082197,0.595861,-19.982061,-1.903683,0.180276,-72.865074,0.804460,-0.012431,0.011131,-0.593772
3648,0.062404,-0.186225,9.914205,2.250062,0.507177,-19.625565,-1.833536,0.177145,-73.525429,0.801032,-0.011893,0.010814,-0.598405
3649,0.070084,-0.184349,9.911689,1.895668,0.379861,-18.841587,-1.766391,0.171794,-74.166672,0.797678,-0.011393,0.010490,-0.602885
3650,0.066980,-0.184241,9.919224,0.916352,0.421838,-19.375242,-1.721396,0.165754,-74.803719,0.794318,-0.011054,0.010273,-0.607315
3651,0.070543,-0.183925,9.921336,0.104227,0.466351,-20.292408,-1.706273,0.160730,-75.464973,0.790801,-0.010917,0.010221,-0.611891
3652,0.073519,-0.183743,9.922595,-0.330822,0.519364,-20.484800,-1.711934,0.156842,-76.144760,0.787156,-0.010916,0.010290,-0.616571
3653,0.077575,-0.204867,9.919704,-0.593841,0.540552,-20.318865,-1.729193,0.154059,-76.825020,0.783481,-0.010988,0.010429,-0.621232
3654,0.082745,-0.213041,9.918251,-0.708511,0.545182,-20.859470,-1.752730,0.151283,-77.511528,0.779742,-0.011101,0.010604,-0.625912
3655,0.083561,-0.216656,9.915020,-0.252566,0.531719,-20.847403,-1.770562,0.147849,-78.206848,0.775928,-0.011176,0.010746,-0.630631
3656,0.083216,-0.208636,9.914392,0.386811,0.534793,-20.710045,-1.770090,0.144241,-78.899673,0.772101,-0.011128,0.010786,-0.635311
3657,0.087190,-0.184123,9.914046,1.209259,0.496525,-20.841393,-1.745208,0.140213,-79.592361,0.768248,-0.010918,0.010688,-0.639969
3658,0.086994,-0.156175,9.916990,2.042429,0.482759,-20.462702,-1.692672,0.135918,-80.280930,0.764394,-0.010527,0.010429,-0.644580
3659,0.086112,-0.123690,9.921477,2.928571,0.435512,-18.829554,-1.611358,0.132381,-80.935944,0.760704,-0.009948,0.010005,-0.648946
3660,0.090681,-0.106965,9.920798,3.635415,0.357775,-16.490232,-1.503307,0.129651,-81.524734,0.757368,-0.009198,0.009422,-0.652855
3661,0.092574,-0.081314,9.922339,3.457435,0.271821,-14.977654,-1.386268,0.126966,-82.049278,0.754381,-0.008399,0.008776,-0.656325
3662,0.078013,-0.097514,9.925608,2.428601,0.229156,-13.157658,-1.289196,0.124372,-82.518265,0.751695,-0.007741,0.008235,-0.659414
3663,0.077374,-0.111147,9.925025,1.403429,0.134934,-11.741344,-1.226219,0.121308,-82.933273,0.749306,-0.007317,0.007879,-0.662137
3664,0.077301,-0.115217,9.925756,0.498648,0.096149,-11.313912,-1.195315,0.117015,-83.317520,0.747083,-0.007114,0.007696,-0.664648
3665,0.074250,-0.120739,9.926678,-0.412556,0.071913,-11.403726,-1.194635,0.111895,-83.696106,0.744883,-0.007114,0.007682,-0.667113
3666,0.071451,-0.148051,9.922956,-1.190430,0.027556,-11.760766,-1.222083,0.105386,-84.082130,0.742629,-0.007304,0.007825,-0.669617
3667,0.081070,-0.164181,9.920034,-1.404143,0.017877,-12.969855,-1.266053,0.097173,-84.494232,0.740213,-0.007608,0.008056,-0.672281
3668,0.078849,-0.161649,9.922037,-1.233859,0.109304,-14.016616,-1.310750,0.089177,-84.943932,0.737566,-0.007911,0.008297,-0.675178
3669,0.080140,-0.172245,9.917626,-1.264374,0.133439,-14.941518,-1.353111,0.082012,-85.426514,0.734712,-0.008190,0.008535,-0.678276
3670,0.087729,-0.164202,9.915456,-0.873812,0.158898,-15.822434,-1.389448,0.074614,-85.939201,0.731667,-0.008428,0.008741,-0.681554
3671,0.088938,-0.146209,9.922184,-0.057678,0.238087,-15.460885,-1.405624,0.068529,-86.460587,0.728557,-0.008528,0.008837,-0.684875
3672,0.081425,-0.148277,9.930005,0.312324,0.283814,-14.488503,-1.401965,0.065027,-86.959801,0.725566,-0.008487,0.008830,-0.688043
3673,0.093196,-0.163901,9.927002,0.220966,0.208832,-13.890981,-1.393603,0.061711,-87.432846,0.722720,-0.008418,0.008794,-0.691034
3674,0.093364,-0.168660,9.928342,0.702311,0.226074,-13.276015,-1.378685,0.058002,-87.885651,0.719985,-0.008311,0.008713,-0.693886
3675,0.085891,-0.155952,9.935527,1.045236,0.217384,-12.071573,-1.349979,0.055349,-88.308159,0.717423,-0.008116,0.008553,-0.696538
3676,0.090913,-0.147528,9.928007,0.955149,0.142857,-10.956264,-1.317001,0.052433,-88.692001,0.715088,-0.007899,0.008361,-0.698940
3677,0.100206,-0.120392,9.921846,0.980388,0.083575,-10.317196,-1.285052,0.048155,-89.046539,0.712924,-0.007701,0.008163,-0.701151
3678,0.097029,-0.100773,9.923430,1.040408,0.056520,-9.619527,-1.251636,0.043137,-89.378792,0.710890,-0.007500,0.007949,-0.703218
3679,0.093513,-0.133301,9.924889,0.323170,0.025926,-9.202702,-1.229130,0.037723,-89.692451,0.708964,-0.007373,0.007797,-0.705163
3680,0.096416,-0.151059,9.923778,-0.497068,0.025791,-11.159001,-1.232232,0.031281,-90.031754,0.706872,-0.007408,0.007799,-0.707260
3682,0.091866,-0.152189,9.924541,-0.543837,0.052895,-11.361722,-1.249763,0.024443,-90.407043,0.704550,-0.007533,0.007889,-0.709570
3683,0.092922,-0.160884,9.926388,-0.339083,0.023802,-10.150225,-1.264611,0.017853,-90.765495,0.702326,-0.007640,0.007965,-0.711770
3684,0.087723,-0.157378,9.926044,-0.011345,0.017270,-8.744618,-1.270532,0.011575,-91.080360,0.700367,-0.007694,0.007984,-0.713697
3685,0.089290,-0.129670,9.923116,0.179260,-0.005588,-7.938984,-1.267775,0.005618,-91.358360,0.698633,-0.007695,0.007949,-0.715395
3686,0.087119,-0.117163,9.920035,0.587120,-0.011314,-6.220658,-1.255013,0.000145,-91.594276,0.697159,-0.007635,0.007852,-0.716833
3687,0.087596,-0.110737,9.922318,0.782921,-0.045730,-5.428666,-1.232171,-0.005010,-91.788368,0.695945,-0.007515,0.007690,-0.718014
3688,0.085844,-0.103800,9.920584,0.876595,-0.121639,-4.729425,-1.204488,-0.011395,-91.957573,0.694886,-0.007376,0.007489,-0.719044
3689,0.085860,-0.096814,9.920929,0.610432,-0.144916,-4.228784,-1.179663,-0.018940,-92.106758,0.693950,-0.007263,0.007297,-0.719950
3690,0.086256,-0.081914,9.920419,0.434176,-0.187039,-3.149858,-1.162204,-0.026986,-92.229591,0.693178,-0.007200,0.007146,-0.720695
3691,0.083701,-0.126734,9.925538,-0.231169,-0.250745,-1.870821,-1.158774,-0.035976,-92.313103,0.692653,-0.007231,0.007076,-0.721200
3692,0.079699,-0.257055,9.957461,-0.662892,-0.156530,-2.962836,-1.173617,-0.044406,-92.393501,0.692145,-0.007369,0.007123,-0.721686
3693,0.076713,-0.219897,9.953465,-0.105048,-0.086261,-3.928614,-1.186322,-0.050818,-92.508263,0.691421,-0.007479,0.007172,-0.722378
3694,0.074471,-0.234809,9.957436,-0.359658,-0.084531,-4.222931,-1.193941,-0.056480,-92.644028,0.690563,-0.007552,0.007195,-0.723197
3695,0.073904,-0.229692,9.958498,-0.069596,-0.089578,-3.998570,-1.200953,-0.062247,-92.780945,0.689698,-0.007622,0.007214,-0.724021
3696,0.072736,-0.146217,9.949123,1.127373,-0.059510,-3.191517,-1.183188,-0.067222,-92.900719,0.688942,-0.007539,0.007079,-0.724743
3697,0.080413,-0.029041,9.924769,0.832202,-0.199108,-1.040733,-1.150443,-0.072956,-92.971146,0.688498,-0.007374,0.006842,-0.725169
3698,0.099204,-0.143566,9.922606,-1.500860,-0.583604,0.187100,-1.161566,-0.086282,-92.985115,0.688408,-0.007524,0.006833,-0.725253
3699,0.066961,-0.046101,9.935289,0.767477,-0.220071,0.554821,-1.173808,-0.099426,-92.972473,0.688486,-0.007682,0.006831,-0.725177
3700,0.053604,-0.018935,9.945708,0.886527,-0.155250,0.424229,-1.146270,-0.105352,-92.956032,0.688591,-0.007555,0.006620,-0.725080
3701,0.058739,0.048270,9.939259,0.599163,-0.162829,0.284789,-1.121531,-0.110419,-92.944115,0.688668,-0.007439,0.006432,-0.725010
3702,0.057115,0.058847,9.924744,0.968401,-0.136247,0.202471,-1.095421,-0.115245,-92.935905,0.688721,-0.007313,0.006238,-0.724962
3703,0.039564,0.133381,9.930036,2.491770,0.182225,0.006219,-1.037758,-0.114415,-92.932449,0.688747,-0.006961,0.005878,-0.724945
3704,0.072162,0.039855,9.913734,0.360838,-0.164549,-0.016202,-0.990214,-0.114124,-92.932602,0.688749,-0.006674,0.005579,-0.724948
3705,0.086950,-0.003694,9.903258,0.200150,-0.217189,-0.045522,-0.980863,-0.120503,-92.933525,0.688743,-0.006658,0.005481,-0.724954
3706,0.087221,-0.109293,9.913391,0.057355,-0.214901,-0.061640,-0.976567,-0.127734,-92.935188,0.688732,-0.006678,0.005411,-0.724965
3707,0.082607,-0.121777,9.921651,0.167758,-0.201173,-0.065856,-0.972811,-0.134704,-92.937195,0.688720,-0.006699,0.005345,-0.724977
3708,0.080711,-0.123442,9.921741,0.167446,-0.200183,-0.064173,-0.967219,-0.141429,-92.939247,0.688707,-0.006708,0.005269,-0.724990
3709,0.078677,-0.124754,9.922791,0.158104,-0.203456,-0.073162,-0.961788,-0.148194,-92.941422,0.688693,-0.006718,0.005195,-0.725004
3710,0.078771,-0.115782,9.924097,0.201437,-0.200627,-0.076227,-0.955789,-0.154969,-92.943787,0.688678,-0.006725,0.005116,-0.725019
3711,0.078922,-0.116025,9.922173,0.202540,-0.191919,-0.088383,-0.949049,-0.161556,-92.946426,0.688661,-0.006726,0.005034,-0.725035
3712,0.078601,-0.108132,9.919979,0.229821,-0.174315,-0.085321,-0.941835,-0.167707,-92.949219,0.688643,-0.006721,0.004951,-0.725052
3713,0.084378,-0.099422,9.918136,0.271491,-0.179116,-0.081035,-0.933472,-0.173642,-92.951897,0.688626,-0.006708,0.004863,-0.725069
3714,0.087097,-0.103340,9.916266,0.254765,-0.181320,-0.073441,-0.924693,-0.179691,-92.954369,0.688611,-0.006694,0.004771,-0.725084
3715,0.086163,-0.107531,9.918669,0.229510,-0.183491,-0.071769,-0.916615,-0.185809,-92.956696,0.688596,-0.006684,0.004684,-0.725099
3716,0.087383,-0.106189,9.924352,0.234403,-0.190233,-0.065670,-0.908876,-0.192073,-92.958885,0.688583,-0.006677,0.004597,-0.725113
3717,0.091483,-0.110977,9.927450,0.201842,-0.212911,-0.071853,-0.901597,-0.198828,-92.961067,0.688569,-0.006676,0.004511,-0.725126
3718,0.086133,-0.115493,9.928809,0.171737,-0.202013,-0.073024,-0.895363,-0.205780,-92.963387,0.688554,-0.006682,0.004429,-0.725141
3719,0.088685,-0.115808,9.926688,0.178551,-0.209307,-0.066971,-0.889517,-0.212671,-92.965614,0.688540,-0.006691,0.004351,-0.725155
3720,0.092229,-0.110283,9.924811,0.193276,-0.207295,-0.068655,-0.883312,-0.219648,-92.967758,0.688526,-0.006698,0.004270,-0.725168
3721,0.090646,-0.107180,9.923450,0.176457,-0.201113,-0.056350,-0.877141,-0.226486,-92.969734,0.688514,-0.006704,0.004190,-0.725180
3722,0.086283,-0.101577,9.921188,0.200436,-0.182396,-0.065318,-0.870852,-0.232908,-92.971672,0.688501,-0.006706,0.004112,-0.725192
3723,0.090544,-0.097308,9.920774,0.208378,-0.182624,-0.073130,-0.864029,-0.239026,-92.973877,0.688487,-0.006704,0.004032,-0.725206
3724,0.093094,-0.100743,9.921912,0.187749,-0.185664,-0.076196,-0.857417,-0.245201,-92.976273,0.688472,-0.006703,0.003953,-0.725221
3725,0.090020,-0.103827,9.921985,0.172761,-0.173988,-0.074443,-0.851398,-0.251232,-92.978699,0.688457,-0.006705,0.003879,-0.725236
3726,0.089847,-0.105828,9.919214,0.185502,-0.170817,-0.072831,-0.845417,-0.257015,-92.981071,0.688442,-0.006706,0.003807,-0.725250
3727,0.096285,-0.110832,9.918259,0.162149,-0.180720,-0.059254,-0.839613,-0.262905,-92.983177,0.688429,-0.006708,0.003735,-0.725264
3728,0.092777,-0.112039,9.921692,0.166754,-0.170891,-0.051404,-0.834123,-0.268792,-92.984940,0.688417,-0.006712,0.003665,-0.725274
3729,0.089175,-0.102684,9.921244,0.204954,-0.157823,-0.062006,-0.827919,-0.274297,-92.986755,0.688406,-0.006710,0.003592,-0.725286
3730,0.091269,-0.099146,9.922236,0.213868,-0.147605,-0.066668,-0.820929,-0.279418,-92.988823,0.688393,-0.006700,0.003517,-0.725298
3731,0.091772,-0.101806,9.923216,0.190760,-0.140619,-0.077279,-0.814174,-0.284256,-92.991150,0.688378,-0.006690,0.003446,-0.725313
3732,0.088835,-0.099868,9.925569,0.191755,-0.137532,-0.080187,-0.807786,-0.288928,-92.993713,0.688362,-0.006681,0.003377,-0.725329
3733,0.091176,-0.105287,9.926467,0.159436,-0.146738,-0.087785,-0.801919,-0.293705,-92.996445,0.688345,-0.006676,0.003312,-0.725345
3734,0.092460,-0.111199,9.926384,0.124362,-0.142191,-0.092280,-0.797174,-0.298562,-92.999374,0.688326,-0.006678,0.003253,-0.725363
3735,0.092565,-0.109456,9.925659,0.130211,-0.155584,-0.081583,-0.792916,-0.303564,-93.002197,0.688308,-0.006684,0.003196,-0.725380
3736,0.094798,-0.116270,9.927161,0.110139,-0.159723,-0.086102,-0.788895,-0.308857,-93.004913,0.688291,-0.006694,0.003139,-0.725397
3737,0.092523,-0.119378,9.921584,0.096027,-0.147846,-0.085918,-0.785444,-0.314022,-93.007713,0.688273,-0.006706,0.003086,-0.725414
3738,0.090095,-0.117675,9.922018,0.105438,-0.135407,-0.082754,-0.782071,-0.318781,-93.010460,0.688256,-0.006715,0.003036,-0.725431
3739,0.089095,-0.108369,9.924148,0.130814,-0.134867,-0.073667,-0.778119,-0.323321,-93.012993,0.688240,-0.006720,0.002984,-0.725446
3740,0.087526,-0.115271,9.923292,0.110550,-0.128279,-0.067351,-0.774084,-0.327738,-93.015289,0.688225,-0.006724,0.002932,-0.725460
3741,0.083179,-0.111871,9.922121,0.126058,-0.118297,-0.061093,-0.770128,-0.331876,-93.017380,0.688212,-0.006726,0.002882,-0.725473
3742,0.085670,-0.106320,9.926973,0.141923,-0.129560,-0.065823,-0.765650,-0.336035,-93.019440,0.688199,-0.006726,0.002829,-0.725485
3743,0.086994,-0.109361,9.921100,0.121712,-0.137718,-0.056629,-0.761244,-0.340517,-93.021423,0.688186,-0.006728,0.002774,-0.725497
3744,0.085550,-0.116032,9.919642,0.101840,-0.129978,-0.064048,-0.757507,-0.345005,-93.023369,0.688174,-0.006734,0.002724,-0.725509
3745,0.083678,-0.110715,9.919597,0.110849,-0.120951,-0.071659,-0.753949,-0.349216,-93.025581,0.688160,-0.006739,0.002676,-0.725523
3746,0.084509,-0.099541,9.917417,0.135317,-0.121438,-0.068800,-0.749832,-0.353286,-93.027878,0.688146,-0.006740,0.002626,-0.725537
3747,0.088528,-0.104813,9.918223,0.122796,-0.126560,-0.071875,-0.745516,-0.357450,-93.030167,0.688131,-0.006740,0.002574,-0.725551
3748,0.087365,-0.101326,9.920726,0.147720,-0.115106,-0.088641,-0.740991,-0.361512,-93.032791,0.688114,-0.006739,0.002521,-0.725567
3749,0.089240,-0.097455,9.919907,0.164409,-0.117134,-0.082640,-0.735771,-0.365419,-93.035591,0.688097,-0.006732,0.002464,-0.725584
3750,0.090890,-0.102554,9.918503,0.151772,-0.123191,-0.088672,-0.730483,-0.369461,-93.038399,0.688079,-0.006726,0.002407,-0.725601
3751,0.086628,-0.108902,9.921091,0.141682,-0.113519,-0.089879,-0.725573,-0.373443,-93.041321,0.688061,-0.006722,0.002352,-0.725618
3752,0.083664,-0.099207,9.917521,0.164192,-0.095550,-0.088387,-0.720456,-0.376965,-93.044258,0.688042,-0.006713,0.002299,-0.725636
3753,0.089030,-0.095509,9.915802,0.172426,-0.117084,-0.082512,-0.714827,-0.380544,-93.047058,0.688024,-0.006702,0.002242,-0.725653
3754,0.088204,-0.097958,9.917358,0.167318,-0.109951,-0.083921,-0.709147,-0.384363,-93.049789,0.688007,-0.006692,0.002183,-0.725670
3755,0.091087,-0.094380,9.921862,0.181196,-0.110281,-0.087104,-0.703319,-0.388068,-93.052597,0.687990,-0.006680,0.002124,-0.725687
3756,0.096818,-0.093336,9.922445,0.167742,-0.123587,-0.088812,-0.697484,-0.392001,-93.055466,0.687971,-0.006670,0.002064,-0.725704
3757,0.095832,-0.102184,9.924737,0.136436,-0.121928,-0.088558,-0.692394,-0.396129,-93.058388,0.687953,-0.006666,0.002007,-0.725722
3758,0.090702,-0.106801,9.927668,0.114646,-0.099022,-0.085191,-0.688190,-0.399846,-93.061226,0.687935,-0.006664,0.001958,-0.725739
3759,0.090566,-0.107143,9.929112,0.099468,-0.106014,-0.083616,-0.684602,-0.403297,-93.063995,0.687918,-0.006664,0.001915,-0.725756
3760,0.088283,-0.106952,9.929311,0.099825,-0.105442,-0.065197,-0.681263,-0.406850,-93.066429,0.687902,-0.006667,0.001872,-0.725770
3761,0.088922,-0.102740,9.930758,0.121109,-0.105578,-0.063747,-0.677566,-0.410392,-93.068542,0.687889,-0.006667,0.001828,-0.725783
3762,0.084722,-0.102587,9.930923,0.124372,-0.097886,-0.065100,-0.673459,-0.413809,-93.070641,0.687876,-0.006664,0.001781,-0.725796
3763,0.082693,-0.098699,9.926418,0.130446,-0.090505,-0.065079,-0.669197,-0.416974,-93.072784,0.687862,-0.006658,0.001736,-0.725809
3764,0.079524,-0.097058,9.919971,0.140605,-0.079981,-0.066501,-0.664663,-0.419840,-93.074936,0.687848,-0.006649,0.001690,-0.725822
3765,0.079874,-0.098088,9.921666,0.132464,-0.074983,-0.081719,-0.660094,-0.422451,-93.077377,0.687833,-0.006638,0.001645,-0.725837
3766,0.079214,-0.107434,9.918302,0.094006,-0.081044,-0.090624,-0.656299,-0.425085,-93.080223,0.687815,-0.006632,0.001606,-0.725854
3767,0.080889,-0.104627,9.915675,0.089499,-0.084665,-0.089185,-0.653218,-0.427881,-93.083183,0.687796,-0.006631,0.001569,-0.725872
3768,0.082580,-0.108877,9.919090,0.081933,-0.089642,-0.096751,-0.650338,-0.430821,-93.086250,0.687777,-0.006632,0.001534,-0.725890
3769,0.085175,-0.111812,9.925049,0.058492,-0.090994,-0.096745,-0.647974,-0.433868,-93.089447,0.687757,-0.006638,0.001501,-0.725909
3770,0.079744,-0.110685,9.917958,0.058814,-0.066376,-0.091988,-0.645995,-0.436526,-93.092560,0.687737,-0.006642,0.001472,-0.725928
3771,0.078766,-0.109769,9.918421,0.058971,-0.050028,-0.085851,-0.644009,-0.438499,-93.095505,0.687718,-0.006643,0.001448,-0.725946
3772,0.078013,-0.115489,9.918059,0.047545,-0.051467,-0.087207,-0.642212,-0.440223,-93.098366,0.687700,-0.006643,0.001427,-0.725963
3773,0.080418,-0.114638,9.916655,0.052087,-0.056076,-0.081183,-0.640530,-0.442047,-93.101151,0.687683,-0.006645,0.001405,-0.725980
3774,0.078954,-0.115405,9.910725,0.056438,-0.049566,-0.082627,-0.638700,-0.443838,-93.103867,0.687665,-0.006645,0.001383,-0.725996
3775,0.082617,-0.115194,9.914285,0.045544,-0.060721,-0.084258,-0.636979,-0.445707,-93.106636,0.687648,-0.006646,0.001361,-0.726013
3776,0.079090,-0.110845,9.913487,0.077043,-0.055742,-0.073544,-0.634916,-0.447677,-93.109238,0.687631,-0.006646,0.001336,-0.726028
3777,0.081912,-0.108799,9.915341,0.100294,-0.062885,-0.076712,-0.631941,-0.449682,-93.111725,0.687616,-0.006641,0.001305,-0.726043
3778,0.083162,-0.114464,9.917426,0.084026,-0.071575,-0.082704,-0.628848,-0.451952,-93.114357,0.687599,-0.006637,0.001272,-0.726059
3779,0.083552,-0.112679,9.922008,0.086234,-0.079116,-0.082732,-0.625989,-0.454493,-93.117088,0.687582,-0.006636,0.001239,-0.726076
3780,0.085957,-0.114256,9.923019,0.092465,-0.086324,-0.075116,-0.622990,-0.457279,-93.119690,0.687565,-0.006636,0.001204,-0.726091
3781,0.088140,-0.119081,9.926083,0.063363,-0.089675,-0.084200,-0.620372,-0.460241,-93.122314,0.687549,-0.006639,0.001169,-0.726107
3782,0.087780,-0.114637,9.930162,0.073435,-0.074892,-0.078158,-0.618070,-0.463013,-93.124985,0.687532,-0.006642,0.001138,-0.726123
3783,0.086995,-0.108494,9.928688,0.096036,-0.062167,-0.085881,-0.615224,-0.465327,-93.127701,0.687514,-0.006640,0.001107,-0.726140
3785,0.085294,-0.115740,9.929036,0.070639,-0.054602,-0.081056,-0.612423,-0.467302,-93.130463,0.687497,-0.006636,0.001077,-0.726156
3786,0.080537,-0.116888,9.927506,0.062766,-0.038413,-0.090014,-0.610177,-0.468883,-93.133301,0.687479,-0.006632,0.001054,-0.726173
3787,0.084216,-0.116338,9.929621,0.060187,-0.045141,-0.085543,-0.608104,-0.470307,-93.136208,0.687461,-0.006629,0.001032,-0.726191
3788,0.082726,-0.117787,9.926223,0.042581,-0.041751,-0.079341,-0.606368,-0.471784,-93.138931,0.687443,-0.006628,0.001012,-0.726207
3789,0.080551,-0.116779,9.926422,0.036930,-0.037784,-0.070127,-0.605023,-0.473136,-93.141418,0.687428,-0.006628,0.000996,-0.726222
3790,0.081982,-0.116633,9.926809,0.036624,-0.032069,-0.071685,-0.603777,-0.474325,-93.143761,0.687413,-0.006628,0.000981,-0.726236
3791,0.081903,-0.113534,9.920775,0.044684,-0.048175,-0.062589,-0.602404,-0.475686,-93.145981,0.687399,-0.006628,0.000964,-0.726249
3792,0.084606,-0.115132,9.917695,0.046852,-0.050803,-0.051937,-0.600863,-0.477355,-93.147873,0.687387,-0.006630,0.000945,-0.726261
3793,0.087879,-0.120751,9.920780,0.037513,-0.057837,-0.056463,-0.599441,-0.479185,-93.149658,0.687375,-0.006633,0.000925,-0.726272
3794,0.091653,-0.117645,9.922047,0.028940,-0.072402,-0.056634,-0.598318,-0.481375,-93.151520,0.687364,-0.006640,0.000905,-0.726283
3795,0.095824,-0.109058,9.923668,0.059265,-0.084889,-0.061528,-0.596832,-0.484017,-93.153465,0.687351,-0.006648,0.000879,-0.726294
3796,0.096116,-0.110984,9.930427,0.053144,-0.072086,-0.056890,-0.594942,-0.486654,-93.155411,0.687339,-0.006653,0.000852,-0.726306
3797,0.090614,-0.109592,9.928154,0.051524,-0.064167,-0.081151,-0.593178,-0.488948,-93.157692,0.687324,-0.006657,0.000827,-0.726320
3798,0.091123,-0.108095,9.924545,0.053287,-0.073777,-0.079656,-0.591408,-0.491275,-93.160355,0.687307,-0.006661,0.000802,-0.726336
