seq,ax,ay,az,wroll,wpitch,wyaw,roll,pitch,yaw,q0,q1,q2,q3
7291,-0.064698,6.984442,7.044069,0.053068,-0.083756,-0.001082,44.756474,0.373685,0.370514,0.924685,0.380705,0.004246,0.001748
7293,-0.069122,6.980890,7.043426,-0.026290,-0.108761,0.028556,44.756508,0.371940,0.368578,0.924685,0.380706,0.004226,0.001738
7294,-0.070288,6.982646,7.047860,-0.017148,-0.107218,0.023960,44.754612,0.370756,0.366657,0.924691,0.380691,0.004210,0.001727
7295,-0.067680,6.979182,7.044902,-0.009539,-0.108728,0.030048,44.752625,0.369375,0.364753,0.924698,0.380675,0.004192,0.001716
7296,-0.069621,6.976845,7.048850,-0.014145,-0.105660,0.023928,44.749889,0.367974,0.362861,0.924707,0.380653,0.004175,0.001706
7297,-0.068121,6.977767,7.043572,-0.008069,-0.102591,0.020859,44.747318,0.366933,0.360933,0.924716,0.380632,0.004160,0.001694
7298,-0.068504,6.972973,7.041527,-0.009614,-0.097997,0.019317,44.745468,0.365915,0.359045,0.924722,0.380617,0.004145,0.001682
7300,-0.069683,6.966408,7.038145,-0.008132,-0.096440,0.031494,44.741646,0.366471,0.357343,0.924735,0.380586,0.004144,0.001667
7301,-0.075494,6.970026,7.038634,-0.008183,-0.094851,0.023801,44.737282,0.370720,0.355727,0.924749,0.380551,0.004173,0.001640
7302,-0.077360,6.973608,7.039797,-0.012785,-0.096290,0.017611,44.734913,0.377756,0.353961,0.924757,0.380532,0.004224,0.001602
7303,-0.079264,6.973912,7.038557,-0.002110,-0.091620,0.011415,44.734180,0.385668,0.352097,0.924759,0.380526,0.004282,0.001561
7304,-0.078623,6.976390,7.041576,0.013149,-0.085428,0.011327,44.734360,0.393263,0.350290,0.924758,0.380527,0.004337,0.001521
7305,-0.078073,6.983359,7.038076,0.014710,-0.089931,-0.002480,44.737572,0.399528,0.348357,0.924748,0.380553,0.004381,0.001484
7307,-0.072927,6.981034,7.041067,0.011707,-0.085305,0.002051,44.741943,0.402777,0.346324,0.924733,0.380588,0.004401,0.001457
7308,-0.069319,6.981674,7.039564,0.016317,-0.086819,0.024929,44.744972,0.401736,0.344642,0.924723,0.380613,0.004387,0.001447
7309,-0.063407,6.981826,7.045215,0.007177,-0.091420,0.031054,44.746532,0.396458,0.343221,0.924718,0.380625,0.004339,0.001453
7310,-0.059354,6.979426,7.040714,-0.009611,-0.100627,0.044840,44.746422,0.387368,0.341866,0.924719,0.380625,0.004262,0.001472
7311,-0.058089,6.978437,7.045560,-0.014202,-0.096112,0.038798,44.744843,0.377045,0.340540,0.924724,0.380613,0.004174,0.001496
7312,-0.061927,6.974607,7.041039,-0.020337,-0.099206,0.038840,44.741791,0.369104,0.339151,0.924734,0.380588,0.004105,0.001511
7314,-0.059895,6.975920,7.040109,-0.023405,-0.099230,0.019027,44.739681,0.363283,0.337500,0.924742,0.380571,0.004053,0.001517
7315,-0.066288,6.975528,7.034812,-0.020342,-0.097706,0.020555,44.739838,0.360303,0.335663,0.924741,0.380573,0.004022,0.001512
7316,-0.067548,6.975304,7.039369,-0.012699,-0.091573,0.008318,44.740353,0.361077,0.333791,0.924739,0.380577,0.004022,0.001494
7317,-0.067166,6.975300,7.037809,-0.017275,-0.091539,0.015913,44.739994,0.362460,0.331931,0.924740,0.380574,0.004027,0.001475
7318,-0.062757,6.981120,7.042336,-0.011160,-0.099152,0.015897,44.740444,0.361658,0.330076,0.924739,0.380578,0.004015,0.001463
7319,-0.065963,6.972893,7.039886,-0.011164,-0.102192,0.015886,44.739761,0.360229,0.328089,0.924741,0.380573,0.003997,0.001451
7321,-0.065596,6.968043,7.044241,-0.023426,-0.094539,0.028071,44.734791,0.359974,0.326274,0.924758,0.380533,0.003989,0.001438
7322,-0.071222,6.971399,7.040276,-0.018904,-0.097550,0.031081,44.729565,0.361736,0.324692,0.924775,0.380490,0.003997,0.001419
7323,-0.075209,6.972380,7.041527,-0.017402,-0.095950,0.020326,44.727036,0.367175,0.323019,0.924784,0.380470,0.004036,0.001388
7324,-0.077906,6.973801,7.035810,-0.021974,-0.072968,0.029390,44.726845,0.375026,0.321629,0.924784,0.380468,0.004094,0.001350
7325,-0.077959,6.982440,7.039405,-0.026502,-0.069823,0.041504,44.730003,0.383095,0.320820,0.924773,0.380493,0.004157,0.001317
7326,-0.074570,6.985607,7.033916,-0.009624,-0.077378,0.026173,44.736935,0.388782,0.319945,0.924750,0.380549,0.004200,0.001291
7328,-0.071148,6.980669,7.034230,-0.017155,-0.081914,0.032236,44.744259,0.390907,0.318821,0.924726,0.380608,0.004213,0.001274
7329,-0.066055,6.981952,7.037333,-0.010990,-0.081906,0.033754,44.748680,0.389088,0.317714,0.924711,0.380644,0.004195,0.001271
7330,-0.064935,6.982244,7.042655,-0.000281,-0.092600,0.024612,44.750744,0.384800,0.316372,0.924705,0.380661,0.004156,0.001275
7331,-0.066513,6.983033,7.043228,0.007356,-0.088032,0.020043,44.751381,0.381171,0.314785,0.924703,0.380666,0.004122,0.001274
7332,-0.068547,6.988948,7.045588,0.007373,-0.077342,0.029190,44.753006,0.379570,0.313436,0.924697,0.380679,0.004104,0.001268
7333,-0.069249,6.997654,7.044110,-0.000195,-0.071217,0.020015,44.758102,0.379541,0.312308,0.924680,0.380720,0.004100,0.001259
7335,-0.073851,6.999148,7.037395,-0.010756,-0.072703,0.030658,44.767464,0.381696,0.311283,0.924649,0.380796,0.004114,0.001243
7336,-0.074779,6.989925,7.035952,-0.015226,-0.071120,0.033654,44.775715,0.385710,0.310414,0.924622,0.380862,0.004144,0.001223
7337,-0.070989,6.988456,7.032167,-0.034988,-0.075652,0.047343,44.780880,0.388012,0.309690,0.924604,0.380904,0.004160,0.001209
7338,-0.069309,6.983865,7.036667,-0.048680,-0.086312,0.041217,44.782749,0.387529,0.308859,0.924598,0.380919,0.004154,0.001204
7339,-0.065779,6.979859,7.036860,-0.038009,-0.087835,0.041214,44.780472,0.384851,0.307784,0.924606,0.380901,0.004128,0.001204
7340,-0.061823,6.980396,7.036329,-0.033452,-0.086330,0.038184,44.777615,0.379542,0.306667,0.924616,0.380878,0.004082,0.001213
7342,-0.061614,6.984922,7.033912,-0.031916,-0.089412,0.029057,44.777386,0.373281,0.305405,0.924616,0.380877,0.004027,0.001224
7343,-0.063525,6.990490,7.036396,-0.018134,-0.089429,0.019919,44.780361,0.368607,0.303910,0.924607,0.380901,0.003984,0.001227
7344,-0.066715,6.991331,7.032239,-0.027217,-0.084845,0.029069,44.785423,0.366673,0.302481,0.924590,0.380942,0.003964,0.001222
7345,-0.071195,6.992656,7.034083,-0.033240,-0.080230,0.036663,44.790936,0.368046,0.301363,0.924571,0.380986,0.003972,0.001208
7346,-0.076561,6.989420,7.035318,-0.030132,-0.075582,0.024386,44.794338,0.373410,0.300284,0.924560,0.381013,0.004011,0.001181
7347,-0.074906,6.986574,7.039814,-0.043857,-0.083132,0.030411,44.793747,0.379795,0.299073,0.924562,0.381009,0.004059,0.001150
7349,-0.074242,6.982972,7.038869,-0.037781,-0.081542,0.031873,44.790112,0.384350,0.297861,0.924574,0.380979,0.004091,0.001125
7350,-0.073600,6.981575,7.037197,-0.022555,-0.093697,0.015035,44.786461,0.387744,0.296340,0.924586,0.380950,0.004114,0.001102
7351,-0.070528,6.978590,7.034849,-0.018005,-0.087557,0.007369,44.783516,0.389411,0.294461,0.924596,0.380926,0.004121,0.001081
7352,-0.067019,6.976444,7.034676,-0.008881,-0.093649,0.019566,44.780510,0.388165,0.292635,0.924606,0.380902,0.004105,0.001071
7353,-0.066296,6.974315,7.028066,-0.005847,-0.092127,0.021096,44.778782,0.385065,0.290925,0.924612,0.380888,0.004074,0.001067
7354,-0.064589,6.970171,7.030155,-0.016550,-0.099767,0.018053,44.776749,0.381282,0.289125,0.924619,0.380872,0.004037,0.001066
7356,-0.063506,6.968688,7.031383,-0.025753,-0.093678,0.027223,44.772182,0.376796,0.287364,0.924634,0.380835,0.003995,0.001066
7357,-0.063778,6.969161,7.033185,-0.021232,-0.104373,0.028761,44.766899,0.372364,0.285672,0.924651,0.380793,0.003954,0.001068
7358,-0.061691,6.975477,7.031883,-0.031939,-0.104386,0.025723,44.763882,0.367705,0.283853,0.924662,0.380768,0.003910,0.001069
7359,-0.061648,6.983436,7.037891,-0.027349,-0.105928,0.034894,44.763947,0.362707,0.282108,0.924661,0.380769,0.003864,0.001071
7360,-0.068226,6.986425,7.033789,-0.018146,-0.104390,0.031830,44.766914,0.360778,0.280453,0.924652,0.380793,0.003843,0.001064
7361,-0.067610,6.988915,7.038615,-0.007404,-0.102828,0.036373,44.771320,0.361615,0.278859,0.924637,0.380829,0.003845,0.001048
7363,-0.073580,7.000007,7.042821,-0.019542,-0.101246,0.034793,44.776463,0.364545,0.277341,0.924620,0.380870,0.003863,0.001026
7364,-0.076483,6.998925,7.045784,-0.027099,-0.098112,0.048444,44.781441,0.370518,0.276023,0.924603,0.380910,0.003907,0.000995
7365,-0.080083,7.000939,7.044027,-0.017880,-0.084279,0.043769,44.785690,0.378491,0.275005,0.924589,0.380944,0.003968,0.000961
7366,-0.075944,7.001855,7.047113,-0.025450,-0.081137,0.032998,44.789795,0.385699,0.274003,0.924575,0.380977,0.004023,0.000928
7367,-0.075681,7.011155,7.044687,-0.032992,-0.074968,0.022253,44.795704,0.390543,0.272870,0.924555,0.381025,0.004058,0.000903
7368,-0.068691,7.004041,7.040611,-0.032885,-0.077986,0.029850,44.803173,0.391877,0.271749,0.924531,0.381085,0.004065,0.000889
7370,-0.066980,6.999897,7.042459,-0.020613,-0.081037,0.014590,44.807487,0.389499,0.270443,0.924516,0.381120,0.004042,0.000886
7371,-0.067740,7.001868,7.043405,-0.041937,-0.076462,0.003912,44.809521,0.387146,0.268832,0.924510,0.381137,0.004018,0.000881
7372,-0.063160,7.001424,7.050599,-0.046505,-0.078000,0.017658,44.808907,0.383622,0.267279,0.924512,0.381132,0.003984,0.000880
7373,-0.063234,6.991632,7.048691,-0.052651,-0.087181,0.014630,44.803791,0.378513,0.265698,0.924529,0.381091,0.003937,0.000885
7374,-0.062710,6.998729,7.046877,-0.049634,-0.100935,0.010073,44.799263,0.373635,0.263762,0.924544,0.381054,0.003892,0.000886
7375,-0.064909,7.002291,7.046227,-0.058772,-0.096367,0.014660,44.798874,0.369944,0.261747,0.924545,0.381052,0.003855,0.000882
7377,-0.062171,6.997553,7.043877,-0.023648,-0.110107,0.019244,44.799736,0.366407,0.259738,0.924543,0.381059,0.003820,0.000877
7378,-0.064521,6.998756,7.039252,-0.015979,-0.108584,0.005515,44.802189,0.363185,0.257482,0.924534,0.381079,0.003786,0.000870
7379,-0.064419,6.991657,7.039149,-0.012895,-0.108575,0.002454,44.804287,0.361513,0.255042,0.924528,0.381096,0.003765,0.000855
7380,-0.065664,6.991657,7.042381,-0.005272,-0.096351,0.003964,44.803471,0.360776,0.252708,0.924530,0.381089,0.003751,0.000839
7381,-0.065594,6.990698,7.038407,-0.002228,-0.108538,0.005470,44.802685,0.360621,0.250409,0.924533,0.381083,0.003742,0.000821
7382,-0.064265,6.992451,7.035896,-0.017469,-0.102417,-0.008280,44.803776,0.360069,0.247908,0.924529,0.381092,0.003730,0.000803
7384,-0.065053,6.989752,7.034924,-0.020494,-0.105453,0.008490,44.805241,0.359364,0.245482,0.924525,0.381104,0.003716,0.000785
7385,-0.065335,6.997919,7.038275,-0.021986,-0.110012,0.017625,44.807293,0.358747,0.243277,0.924518,0.381120,0.003703,0.000770
7386,-0.064272,6.988410,7.040484,-0.031133,-0.099312,0.008452,44.807064,0.357984,0.241131,0.924519,0.381119,0.003690,0.000755
7387,-0.061679,6.986170,7.045839,-0.034243,-0.094727,0.013023,44.801250,0.356147,0.239077,0.924538,0.381072,0.003668,0.000745
7388,-0.062428,6.991663,7.050996,-0.038900,-0.096253,0.031332,44.793751,0.353517,0.237320,0.924563,0.381011,0.003641,0.000739
7389,-0.065148,6.995176,7.044792,-0.032830,-0.084030,0.022161,44.789909,0.352525,0.235819,0.924576,0.380980,0.003628,0.000731
7391,-0.065197,6.993637,7.041300,-0.029760,-0.077899,0.017556,44.790142,0.353232,0.234395,0.924575,0.380982,0.003629,0.000717
7392,-0.062667,6.999979,7.042537,-0.020562,-0.093138,0.032796,44.792744,0.352767,0.233004,0.924566,0.381003,0.003621,0.000707
7393,-0.068976,6.996371,7.043033,-0.020518,-0.091580,0.037343,44.795586,0.353337,0.231686,0.924557,0.381026,0.003621,0.000694
7394,-0.071031,6.989231,7.042891,-0.028145,-0.096098,0.035757,44.794910,0.357069,0.230348,0.924559,0.381021,0.003647,0.000671
7395,-0.066777,6.987317,7.040683,-0.025117,-0.105203,0.035707,44.792175,0.359546,0.228817,0.924568,0.380999,0.003662,0.000651
7396,-0.068194,6.985083,7.041385,-0.012939,-0.103640,0.032617,44.789196,0.360475,0.227158,0.924578,0.380975,0.003664,0.000634
7398,-0.073761,6.980784,7.040932,-0.012986,-0.088322,0.018825,44.784946,0.364277,0.225489,0.924592,0.380940,0.003689,0.000608
7399,-0.068552,6.984498,7.041862,-0.016083,-0.076057,0.015716,44.780838,0.368427,0.223944,0.924606,0.380907,0.003717,0.000582
7400,-0.070070,6.984449,7.039062,-0.011524,-0.074491,0.009572,44.778816,0.370893,0.222466,0.924612,0.380891,0.003732,0.000562
7401,-0.070744,6.981816,7.047010,-0.019196,-0.077499,0.012580,44.775024,0.373777,0.220922,0.924625,0.380860,0.003750,0.000540
7402,-0.068117,6.983720,7.045848,-0.029938,-0.074413,0.020176,44.769276,0.375417,0.219494,0.924644,0.380814,0.003759,0.000523
7403,-0.067464,6.983936,7.041762,-0.037596,-0.071342,0.021682,44.765862,0.375464,0.218264,0.924655,0.380786,0.003755,0.000514
7404,-0.067782,6.981367,7.041400,-0.033032,-0.082005,0.010982,44.763561,0.375301,0.216843,0.924663,0.380768,0.003749,0.000503
7405,-0.068313,6.983463,7.042953,-0.034573,-0.092666,0.021643,44.761242,0.375219,0.215171,0.924671,0.380749,0.003743,0.000490
7406,-0.068732,6.989610,7.041003,-0.034554,-0.091116,0.026198,44.761570,0.375218,0.213590,0.924670,0.380752,0.003737,0.000477
7407,-0.069966,6.992840,7.040251,-0.034493,-0.097189,0.024642,44.765324,0.375758,0.212014,0.924657,0.380782,0.003737,0.000462
7408,-0.068019,6.997314,7.042204,-0.029834,-0.110896,0.029194,44.770660,0.375701,0.210251,0.924639,0.380825,0.003730,0.000448
7409,-0.067821,7.000807,7.041718,-0.041948,-0.109350,0.027649,44.777035,0.374591,0.208388,0.924618,0.380877,0.003715,0.000436
7411,-0.063483,7.000761,7.040110,-0.044896,-0.094085,0.029171,44.783905,0.372010,0.206727,0.924595,0.380932,0.003689,0.000431
7412,-0.064808,7.000508,7.040810,-0.041748,-0.087986,0.015441,44.790058,0.368914,0.205166,0.924575,0.380982,0.003659,0.000429
7413,-0.066883,6.999217,7.044752,-0.044737,-0.089500,0.026113,44.793655,0.367590,0.203606,0.924563,0.381011,0.003643,0.000421
7414,-0.069199,6.993122,7.045084,-0.052351,-0.083367,0.018454,44.793262,0.368274,0.202111,0.924564,0.381008,0.003643,0.000406
7415,-0.070295,6.993919,7.045545,-0.038626,-0.075696,0.029095,44.791088,0.370450,0.200802,0.924572,0.380991,0.003657,0.000388
7416,-0.072460,6.994807,7.045142,-0.029470,-0.080224,0.027519,44.789917,0.373618,0.199640,0.924575,0.380981,0.003678,0.000369
7417,-0.071477,6.994813,7.043473,-0.026407,-0.080173,0.036623,44.789978,0.376745,0.198522,0.924575,0.380982,0.003700,0.000349
7418,-0.070926,6.998662,7.042993,-0.024847,-0.077078,0.033530,44.791828,0.378826,0.197523,0.924569,0.380996,0.003713,0.000334
7419,-0.071506,6.998641,7.041656,-0.026322,-0.080091,0.041121,44.795086,0.380515,0.196588,0.924558,0.381023,0.003724,0.000321
7420,-0.072345,6.995791,7.035983,-0.024735,-0.090729,0.039553,44.799122,0.382286,0.195569,0.924545,0.381055,0.003735,0.000307
7421,-0.074316,6.991675,7.035354,-0.027733,-0.081524,0.037978,44.802460,0.384954,0.194491,0.924534,0.381082,0.003753,0.000289
7422,-0.077306,6.992309,7.034214,-0.032270,-0.084512,0.037914,44.804707,0.389340,0.193461,0.924526,0.381100,0.003785,0.000266
7423,-0.075036,6.984551,7.034031,-0.029202,-0.081397,0.027171,44.804974,0.393679,0.192290,0.924525,0.381102,0.003816,0.000242
7424,-0.071096,6.984518,7.035187,-0.012433,-0.070680,0.019505,44.803001,0.395438,0.191048,0.924532,0.381086,0.003826,0.000226
7425,-0.074149,6.984142,7.039592,-0.023149,-0.064546,0.027105,44.799629,0.396638,0.189991,0.924543,0.381059,0.003832,0.000214
7426,-0.065468,6.984341,7.044329,-0.024737,-0.073693,0.025571,44.793880,0.395349,0.188957,0.924562,0.381013,0.003818,0.000210
7427,-0.066704,6.977111,7.045768,-0.027887,-0.072184,0.039320,44.785061,0.390966,0.187957,0.924591,0.380942,0.003779,0.000217
7428,-0.066246,6.980251,7.044083,-0.031039,-0.075248,0.054589,44.776051,0.386910,0.187282,0.924621,0.380869,0.003744,0.000225
7429,-0.066785,6.982467,7.046116,-0.040264,-0.084409,0.074431,44.769409,0.382880,0.186897,0.924643,0.380816,0.003711,0.000236
7430,-0.070069,6.986474,7.045445,-0.021991,-0.088974,0.057634,44.765293,0.380648,0.186404,0.924657,0.380783,0.003691,0.000239
7431,-0.075550,6.988780,7.040761,-0.017403,-0.087404,0.046908,44.765442,0.382495,0.185576,0.924657,0.380784,0.003703,0.000226
7432,-0.078216,6.987011,7.044573,-0.011280,-0.094959,0.037678,44.766411,0.387668,0.184447,0.924653,0.380792,0.003741,0.000200
7433,-0.080914,6.988609,7.047292,-0.015864,-0.090294,0.034539,44.765526,0.394535,0.183124,0.924656,0.380784,0.003792,0.000167
7434,-0.084261,6.989697,7.045542,-0.017390,-0.088666,0.016128,44.764999,0.403245,0.181623,0.924658,0.380780,0.003857,0.000126
7435,-0.079575,6.992785,7.041643,-0.021933,-0.087052,0.012989,44.767132,0.410696,0.179925,0.924650,0.380797,0.003912,0.000087
7436,-0.081874,6.997721,7.038216,-0.029476,-0.083930,0.009868,44.773136,0.416279,0.178238,0.924630,0.380845,0.003951,0.000055
7437,-0.073449,7.003702,7.038356,-0.038504,-0.080836,0.009828,44.782192,0.418731,0.176612,0.924600,0.380919,0.003966,0.000033
7438,-0.071535,7.002469,7.039839,-0.039905,-0.080835,-0.002379,44.790928,0.416837,0.174875,0.924571,0.380989,0.003945,0.000025
7439,-0.075806,6.997512,7.041701,-0.039826,-0.079300,-0.002388,44.795856,0.415979,0.172984,0.924555,0.381029,0.003931,0.000012
7440,-0.069449,6.990982,7.039421,-0.041323,-0.062511,0.000661,44.796825,0.414707,0.171315,0.924552,0.381037,0.003916,0.000003
7441,-0.066024,6.985002,7.040581,-0.035234,-0.059488,0.006792,44.794373,0.409964,0.169962,0.924560,0.381017,0.003873,0.000008
7442,-0.070933,6.985369,7.039768,-0.036793,-0.064086,-0.005395,44.790462,0.406256,0.168509,0.924573,0.380986,0.003838,0.000009
7443,-0.075163,6.989005,7.038599,-0.029171,-0.067121,-0.002359,44.788712,0.406644,0.166872,0.924579,0.380972,0.003836,-0.000006
7444,-0.071060,6.992998,7.032639,-0.019970,-0.070153,0.000674,44.791634,0.407158,0.165266,0.924569,0.380995,0.003835,-0.000020
7445,-0.074234,6.994123,7.035591,-0.018370,-0.088450,0.000660,44.796879,0.406963,0.163462,0.924552,0.381038,0.003827,-0.000034
7446,-0.073889,6.990438,7.040306,-0.021390,-0.089951,0.000636,44.798763,0.407592,0.161400,0.924545,0.381053,0.003825,-0.000053
7447,-0.075715,6.990418,7.042321,-0.021399,-0.089922,0.000607,44.797291,0.408739,0.159297,0.924550,0.381041,0.003828,-0.000074
7448,-0.073185,6.989651,7.042248,-0.016840,-0.092948,0.006685,44.795109,0.409388,0.157225,0.924557,0.381024,0.003826,-0.000093
7449,-0.071504,6.991530,7.040105,-0.021422,-0.082256,0.011252,44.794094,0.408264,0.155377,0.924561,0.381016,0.003811,-0.000104
7450,-0.069553,6.995656,7.042181,-0.015300,-0.080732,0.023462,44.794975,0.405709,0.153884,0.924558,0.381023,0.003785,-0.000107
7451,-0.070305,6.996930,7.043249,-0.022903,-0.071580,0.032621,44.796471,0.402797,0.152774,0.924553,0.381035,0.003758,-0.000107
7452,-0.065292,6.995356,7.037799,-0.021339,-0.057862,0.037214,44.798809,0.398728,0.152102,0.924545,0.381054,0.003723,-0.000099
7453,-0.064513,6.984879,7.035547,-0.025897,-0.065522,0.032668,44.799648,0.393001,0.151490,0.924543,0.381061,0.003675,-0.000085
7454,-0.065178,6.981025,7.035543,-0.027445,-0.077755,0.047951,44.796860,0.387552,0.150748,0.924552,0.381038,0.003628,-0.000072
7455,-0.067839,6.975264,7.034544,-0.027497,-0.076236,0.037275,44.791813,0.383969,0.149920,0.924569,0.380998,0.003596,-0.000067
7456,-0.069392,6.983497,7.034377,-0.001589,-0.089956,0.037262,44.788719,0.382590,0.148833,0.924579,0.380973,0.003582,-0.000071
7457,-0.075621,6.982453,7.035110,0.006038,-0.102122,0.047902,44.788544,0.384095,0.147583,0.924580,0.380971,0.003590,-0.000086
7458,-0.074677,6.986061,7.032588,-0.003103,-0.092905,0.052420,44.789742,0.387414,0.146488,0.924576,0.380981,0.003613,-0.000106
7459,-0.073313,6.986471,7.037432,-0.001558,-0.085227,0.031008,44.791210,0.389908,0.145393,0.924571,0.380993,0.003629,-0.000123
7460,-0.072418,6.988023,7.040458,-0.010716,-0.072980,0.041652,44.790779,0.391486,0.144394,0.924572,0.380989,0.003639,-0.000137
7461,-0.067624,6.979039,7.041047,-0.027542,-0.069912,0.043161,44.786831,0.390646,0.143696,0.924585,0.380958,0.003630,-0.000139
7462,-0.062354,6.979718,7.040659,-0.030660,-0.054672,0.029445,44.780518,0.386257,0.143056,0.924606,0.380907,0.003592,-0.000130
7463,-0.062669,6.982871,7.042816,-0.018505,-0.051652,0.020322,44.775612,0.380781,0.142369,0.924623,0.380867,0.003546,-0.000117
7464,-0.061437,6.981721,7.041636,-0.015491,-0.059312,0.012721,44.771988,0.375746,0.141438,0.924635,0.380838,0.003502,-0.000108
7465,-0.060142,6.978577,7.037930,-0.018572,-0.068500,-0.000980,44.769077,0.370504,0.140061,0.924645,0.380815,0.003455,-0.000101
7466,-0.064607,6.982321,7.036274,-0.018576,-0.070040,0.002086,44.768169,0.367175,0.138446,0.924648,0.380808,0.003423,-0.000103
7467,-0.063652,6.980839,7.038103,-0.013990,-0.082246,0.003610,44.768162,0.365549,0.136730,0.924648,0.380808,0.003404,-0.000112
7468,-0.061751,6.974582,7.037066,-0.030796,-0.088355,0.003615,44.765678,0.362929,0.134802,0.924656,0.380788,0.003376,-0.000118
7469,-0.067900,6.976795,7.037311,-0.036931,-0.079186,0.017335,44.762085,0.362114,0.133068,0.924668,0.380759,0.003364,-0.000129
7470,-0.068305,6.979238,7.038142,-0.036944,-0.077623,0.023403,44.759785,0.363939,0.131703,0.924676,0.380740,0.003374,-0.000146
7471,-0.070465,6.980354,7.037136,-0.032362,-0.071475,0.008098,44.758968,0.366877,0.130328,0.924678,0.380734,0.003393,-0.000167
7472,-0.078236,6.984649,7.039878,-0.041499,-0.068347,0.018705,44.759304,0.373475,0.129014,0.924677,0.380736,0.003442,-0.000200
7473,-0.083781,6.991324,7.043860,-0.023153,-0.068231,0.029272,44.760986,0.384317,0.127997,0.924671,0.380750,0.003526,-0.000244
7474,-0.079981,6.991761,7.045977,-0.020065,-0.068120,0.029162,44.763199,0.394520,0.127108,0.924664,0.380767,0.003606,-0.000285
7475,-0.083912,6.992021,7.043976,-0.024607,-0.063443,0.013804,44.765278,0.403607,0.126092,0.924657,0.380784,0.003676,-0.000324
7476,-0.079791,6.988724,7.044058,-0.033734,-0.075563,0.025926,44.766533,0.411295,0.124947,0.924652,0.380794,0.003734,-0.000359
7477,-0.076605,6.984473,7.043403,-0.026104,-0.069408,0.012140,44.765633,0.415019,0.123696,0.924655,0.380787,0.003760,-0.000381
7478,-0.072028,6.985357,7.040953,-0.033733,-0.058707,0.013647,44.764629,0.415350,0.122498,0.924659,0.380779,0.003759,-0.000392
7479,-0.075094,6.983078,7.039697,-0.035249,-0.064799,0.015162,44.764225,0.414859,0.121394,0.924660,0.380775,0.003751,-0.000399
7480,-0.072641,6.986855,7.040456,-0.035232,-0.072414,0.041089,44.764439,0.414128,0.120460,0.924659,0.380777,0.003742,-0.000404
7481,-0.075929,6.984794,7.037630,-0.035202,-0.063242,0.042598,44.765694,0.413498,0.119876,0.924655,0.380787,0.003735,-0.000407
7482,-0.072444,6.985202,7.036608,-0.038217,-0.055594,0.044107,44.767395,0.413057,0.119528,0.924649,0.380801,0.003730,-0.000408
7483,-0.073356,6.985507,7.032975,-0.035112,-0.054058,0.041046,44.770363,0.411831,0.119279,0.924640,0.380825,0.003719,-0.000406
7484,-0.068612,6.988165,7.033899,-0.033519,-0.063216,0.041049,44.774639,0.409185,0.118913,0.924625,0.380860,0.003697,-0.000401
7485,-0.068970,6.982087,7.031374,-0.033463,-0.055601,0.038012,44.777966,0.405135,0.118485,0.924614,0.380887,0.003663,-0.000391
7486,-0.067341,6.987574,7.029343,-0.022719,-0.054091,0.034976,44.782036,0.401230,0.118096,0.924601,0.380920,0.003630,-0.000381
7487,-0.067671,6.985126,7.029704,-0.031803,-0.064788,0.042621,44.786922,0.397189,0.117659,0.924585,0.380959,0.003596,-0.000371
7488,-0.066534,6.983615,7.027077,-0.040898,-0.072429,0.036531,44.790447,0.393144,0.117017,0.924573,0.380988,0.003561,-0.000363
7489,-0.067700,6.980456,7.027906,-0.043908,-0.066334,0.041117,44.792419,0.389660,0.116329,0.924567,0.381004,0.003531,-0.000357
7490,-0.069788,6.984664,7.035813,-0.030164,-0.077008,0.036532,44.792114,0.387859,0.115571,0.924568,0.381001,0.003514,-0.000357
7491,-0.067474,6.981107,7.036827,-0.036285,-0.083103,0.048731,44.789581,0.386018,0.114690,0.924576,0.380981,0.003496,-0.000358
7492,-0.064590,6.982659,7.034707,-0.022570,-0.080057,0.041107,44.787113,0.382333,0.113827,0.924585,0.380961,0.003463,-0.000353
7493,-0.066797,6.984145,7.036712,-0.019522,-0.081589,0.042638,44.786114,0.378840,0.112917,0.924588,0.380953,0.003432,-0.000348
7494,-0.062615,6.986773,7.035095,-0.017984,-0.083122,0.044172,44.786457,0.374984,0.112017,0.924587,0.380956,0.003398,-0.000343
7495,-0.060596,6.984911,7.029713,-0.030151,-0.078569,0.044196,44.788773,0.369257,0.111184,0.924579,0.380975,0.003349,-0.000331
7496,-0.061755,6.988397,7.031974,-0.025522,-0.086220,0.021330,44.792068,0.364071,0.110051,0.924569,0.381001,0.003303,-0.000323
7497,-0.061847,6.986648,7.031734,-0.031579,-0.096912,0.012185,44.794895,0.360248,0.108321,0.924559,0.381024,0.003267,-0.000324
7498,-0.065343,6.985321,7.034446,-0.030029,-0.104536,0.012178,44.795723,0.358300,0.106256,0.924556,0.381031,0.003244,-0.000334
7499,-0.068883,6.989100,7.035217,-0.037641,-0.095346,0.002990,44.795929,0.359563,0.104096,0.924556,0.381033,0.003247,-0.000356
7500,-0.069648,6.990264,7.037250,-0.043722,-0.095297,0.001416,44.796429,0.362751,0.101921,0.924554,0.381037,0.003266,-0.000384
7501,-0.071071,6.980924,7.037003,-0.040681,-0.090666,-0.001690,44.794109,0.366608,0.099729,0.924562,0.381018,0.003290,-0.000414
7502,-0.076770,6.984200,7.038339,-0.030033,-0.089066,0.007393,44.790188,0.372752,0.097668,0.924575,0.380986,0.003332,-0.000451
7503,-0.075835,6.984115,7.040164,-0.027010,-0.078301,0.008835,44.786930,0.380074,0.095879,0.924585,0.380960,0.003385,-0.000490
7504,-0.075515,6.979573,7.038974,-0.028576,-0.082807,-0.001919,44.782730,0.386206,0.094047,0.924599,0.380926,0.003429,-0.000525
7505,-0.074069,6.972486,7.037088,-0.027114,-0.085801,0.002601,44.776680,0.390775,0.092041,0.924619,0.380877,0.003459,-0.000556
7506,-0.074954,6.984572,7.036684,-0.034774,-0.078121,0.014758,44.773201,0.394269,0.090305,0.924630,0.380849,0.003481,-0.000582
7507,-0.071536,6.986053,7.039394,-0.051544,-0.070455,0.002516,44.773037,0.396400,0.088774,0.924631,0.380848,0.003494,-0.000601
7508,-0.066998,6.988111,7.038508,-0.053044,-0.065872,0.000984,44.773281,0.395387,0.087229,0.924630,0.380850,0.003480,-0.000610
7509,-0.070166,6.992816,7.037476,-0.042309,-0.061293,0.020821,44.776051,0.393657,0.086025,0.924621,0.380872,0.003462,-0.000614
7510,-0.070748,6.998405,7.039140,-0.033068,-0.062804,0.017755,44.781586,0.393372,0.085071,0.924603,0.380917,0.003457,-0.000621
7511,-0.069384,6.990950,7.034842,-0.040617,-0.064317,0.014690,44.786804,0.392965,0.084007,0.924585,0.380959,0.003450,-0.000629
7512,-0.072699,6.993640,7.029233,-0.025269,-0.068873,0.043663,44.792828,0.393009,0.083182,0.924565,0.381008,0.003448,-0.000636
7514,-0.075855,6.999957,7.025666,-0.026653,-0.073407,0.049726,44.803288,0.395050,0.082694,0.924530,0.381092,0.003462,-0.000647
7515,-0.074271,6.992809,7.031013,-0.034162,-0.074886,0.031369,44.811787,0.397630,0.081978,0.924502,0.381161,0.003481,-0.000661
7516,-0.074842,6.991166,7.030645,-0.040210,-0.073319,0.026751,44.815044,0.399790,0.080955,0.924491,0.381187,0.003495,-0.000677
7517,-0.073614,7.003430,7.033292,-0.035557,-0.073283,0.032819,44.819771,0.401357,0.079979,0.924475,0.381225,0.003504,-0.000690
7518,-0.070971,7.001050,7.035274,-0.046153,-0.077841,0.020593,44.825306,0.401175,0.078884,0.924457,0.381270,0.003499,-0.000698
7519,-0.072097,6.992787,7.038405,-0.035447,-0.083931,0.016001,44.825863,0.400399,0.077429,0.924455,0.381274,0.003488,-0.000708
7520,-0.066318,6.999701,7.029697,-0.041518,-0.079354,0.029737,44.827244,0.397784,0.076070,0.924451,0.381286,0.003462,-0.000710
7521,-0.065559,6.995304,7.031287,-0.046030,-0.087005,0.034336,44.830936,0.392635,0.074909,0.924438,0.381316,0.003417,-0.000702
7522,-0.067358,6.980995,7.037191,-0.043008,-0.088545,0.028245,44.827122,0.388333,0.073570,0.924451,0.381285,0.003378,-0.000699
7523,-0.066172,6.982989,7.036124,-0.029361,-0.088551,0.028250,44.818901,0.384964,0.072109,0.924479,0.381219,0.003346,-0.000699
7524,-0.067747,6.983083,7.037179,-0.038588,-0.087025,0.029776,44.812149,0.382253,0.070695,0.924501,0.381164,0.003319,-0.000701
7525,-0.075511,6.975527,7.042840,-0.029537,-0.091566,0.031265,44.802525,0.383475,0.069262,0.924533,0.381087,0.003324,-0.000716
7526,-0.075413,6.983112,7.045235,-0.028131,-0.083875,0.029676,44.791985,0.387771,0.067858,0.924568,0.381002,0.003354,-0.000742
7527,-0.072312,6.984103,7.045410,-0.025162,-0.074671,0.037257,44.784519,0.390574,0.066743,0.924593,0.380941,0.003373,-0.000760
7528,-0.075330,6.979026,7.043437,-0.031341,-0.071575,0.044843,44.777565,0.392851,0.065955,0.924616,0.380885,0.003389,-0.000774
7529,-0.068597,6.978334,7.042718,-0.017681,-0.068495,0.046339,44.770855,0.393342,0.065349,0.924638,0.380831,0.003391,-0.000780
7530,-0.066192,6.981958,7.038536,-0.020768,-0.074603,0.041766,44.767365,0.390131,0.064692,0.924650,0.380803,0.003363,-0.000774
7531,-0.064644,6.978233,7.034475,-0.010086,-0.065463,0.038730,44.766888,0.385720,0.064001,0.924652,0.380799,0.003325,-0.000765
7532,-0.066052,6.984955,7.034073,-0.013109,-0.082261,0.038742,44.768829,0.381710,0.063200,0.924645,0.380815,0.003290,-0.000759
7533,-0.067341,6.987057,7.038383,-0.020693,-0.077681,0.020430,44.771847,0.379348,0.062047,0.924635,0.380839,0.003267,-0.000760
7534,-0.073367,6.987537,7.040201,-0.026768,-0.074598,0.024977,44.773354,0.380463,0.060812,0.924630,0.380852,0.003272,-0.000774
7535,-0.073806,6.987454,7.045978,-0.016086,-0.062338,0.029501,44.772690,0.384211,0.059849,0.924632,0.380846,0.003299,-0.000794
7536,-0.073193,6.991735,7.040677,-0.025230,-0.074495,0.035556,44.773006,0.387435,0.059019,0.924631,0.380849,0.003322,-0.000811
7537,-0.076114,6.986210,7.040877,-0.028254,-0.068338,0.024822,44.774189,0.391080,0.058071,0.924627,0.380858,0.003349,-0.000831
7538,-0.072466,6.984981,7.038415,-0.017565,-0.065239,0.036982,44.774162,0.394098,0.057240,0.924627,0.380858,0.003370,-0.000848
7539,-0.067974,6.990182,7.037642,-0.020583,-0.075904,0.024760,44.776154,0.393447,0.056331,0.924620,0.380874,0.003362,-0.000853
7540,-0.065434,6.984495,7.033241,-0.029691,-0.089647,0.020192,44.779079,0.389848,0.054946,0.924611,0.380898,0.003328,-0.000853
7541,-0.068931,6.987560,7.031604,-0.020482,-0.091177,0.017144,44.782593,0.386826,0.053294,0.924599,0.380926,0.003298,-0.000856
7542,-0.063929,6.983796,7.029172,-0.028050,-0.095759,0.021727,44.786629,0.383584,0.051592,0.924586,0.380959,0.003266,-0.000859
7543,-0.064869,6.986080,7.025535,-0.043240,-0.092722,0.023269,44.791023,0.379118,0.049949,0.924571,0.380994,0.003225,-0.000857
7544,-0.061780,6.980775,7.024277,-0.052326,-0.082059,0.029391,44.794960,0.374423,0.048556,0.924558,0.381026,0.003182,-0.000853
7545,-0.066149,6.984303,7.024551,-0.047690,-0.082066,0.023295,44.798050,0.370963,0.047283,0.924548,0.381051,0.003150,-0.000852
7546,-0.065712,6.978494,7.024934,-0.055275,-0.082056,0.029389,44.799816,0.369566,0.046001,0.924542,0.381066,0.003135,-0.000858
7547,-0.070413,6.987840,7.025912,-0.039969,-0.083554,0.040042,44.801987,0.369913,0.044902,0.924535,0.381083,0.003134,-0.000868
7548,-0.070749,6.989847,7.030723,-0.027698,-0.089612,0.039998,44.805882,0.372026,0.043847,0.924522,0.381115,0.003147,-0.000884
7549,-0.072008,6.993437,7.031415,-0.027640,-0.086511,0.029267,44.809608,0.374660,0.042628,0.924510,0.381145,0.003165,-0.000902
7550,-0.068933,7.000626,7.035673,-0.042828,-0.077315,0.033806,44.814182,0.376466,0.041487,0.924494,0.381182,0.003175,-0.000918
7551,-0.070863,7.006204,7.039482,-0.041221,-0.062023,0.024619,44.819271,0.377839,0.040584,0.924477,0.381223,0.003183,-0.000930
7552,-0.069482,7.000304,7.040967,-0.042693,-0.057412,0.012379,44.822193,0.379688,0.039647,0.924468,0.381246,0.003195,-0.000943
7553,-0.064537,6.997262,7.041906,-0.044211,-0.063505,0.004741,44.821430,0.379118,0.038433,0.924470,0.381240,0.003186,-0.000951
7554,-0.065816,6.994559,7.041769,-0.032018,-0.069613,0.015425,44.818920,0.376881,0.037100,0.924479,0.381220,0.003164,-0.000954
7555,-0.066997,6.994066,7.041025,-0.019831,-0.080289,0.018471,44.816395,0.375425,0.035729,0.924487,0.381200,0.003148,-0.000961
7556,-0.062325,6.992653,7.042680,-0.021382,-0.090974,0.018474,44.813614,0.372585,0.034140,0.924496,0.381177,0.003119,-0.000964
7557,-0.061545,6.994316,7.045221,-0.022944,-0.090993,0.021545,44.810062,0.367763,0.032457,0.924508,0.381149,0.003075,-0.000961
7558,-0.068652,6.999400,7.042550,-0.013795,-0.081832,0.035272,44.808945,0.365785,0.031096,0.924512,0.381140,0.003055,-0.000966
7559,-0.071030,7.003913,7.045148,-0.018342,-0.081789,0.035229,44.810856,0.367839,0.030023,0.924505,0.381155,0.003068,-0.000981
7560,-0.069039,7.001718,7.042176,-0.015251,-0.064959,0.041290,44.813423,0.370163,0.029225,0.924497,0.381176,0.003084,-0.000996
7561,-0.070786,6.994841,7.045413,-0.003040,-0.063393,0.048879,44.813400,0.372175,0.028785,0.924497,0.381176,0.003098,-0.001006
7562,-0.074491,6.995921,7.043536,-0.007640,-0.064862,0.038141,44.811386,0.376041,0.028295,0.924504,0.381159,0.003128,-0.001023
7563,-0.069876,6.990200,7.045079,-0.025987,-0.070915,0.031987,44.807949,0.379285,0.027510,0.924515,0.381132,0.003152,-0.001040
7564,-0.065595,6.988734,7.040460,-0.039767,-0.075477,0.035023,44.803204,0.378562,0.026559,0.924531,0.381093,0.003143,-0.001045
7565,-0.066702,6.976241,7.037937,-0.041356,-0.090733,0.030442,44.796867,0.376271,0.025348,0.924552,0.381042,0.003120,-0.001047
7566,-0.067344,6.981566,7.035623,-0.047519,-0.098351,0.028903,44.790493,0.374678,0.023798,0.924573,0.380991,0.003102,-0.001054
7567,-0.064965,6.985318,7.033127,-0.033789,-0.096817,0.036524,44.788883,0.372524,0.022278,0.924578,0.380978,0.003080,-0.001059
7568,-0.067068,6.988086,7.035011,-0.027657,-0.096807,0.031937,44.790073,0.370484,0.020829,0.924574,0.380988,0.003058,-0.001064
7569,-0.070935,6.990917,7.034332,-0.010830,-0.089145,0.039535,44.792889,0.371067,0.019513,0.924565,0.381010,0.003059,-0.001076
7570,-0.070039,7.000619,7.037581,-0.013808,-0.079947,0.036441,44.798397,0.373009,0.018465,0.924547,0.381055,0.003071,-0.001091
7571,-0.072290,6.995070,7.032732,-0.015247,-0.079901,0.039448,44.804840,0.375410,0.017531,0.924525,0.381107,0.003087,-0.001107
7572,-0.069220,6.996655,7.034472,-0.015173,-0.076807,0.036356,44.810226,0.377258,0.016625,0.924507,0.381150,0.003099,-0.001121
7573,-0.068695,6.992481,7.035454,-0.009023,-0.081359,0.040908,44.813488,0.377404,0.015705,0.924496,0.381177,0.003097,-0.001129
7574,-0.066790,6.992524,7.036333,-0.010531,-0.084395,0.031736,44.814610,0.376450,0.014627,0.924493,0.381186,0.003086,-0.001134
7575,-0.067093,6.989022,7.035852,-0.005953,-0.096590,0.037828,44.814438,0.374795,0.013324,0.924493,0.381184,0.003068,-0.001139
7576,-0.064053,6.997269,7.041553,-0.004428,-0.088957,0.033248,44.814182,0.372171,0.011984,0.924494,0.381182,0.003042,-0.001141
7577,-0.065483,6.989665,7.040098,-0.019699,-0.095060,0.042402,44.812756,0.369167,0.010711,0.924499,0.381171,0.003014,-0.001142
7578,-0.067637,6.991587,7.037886,-0.016666,-0.093518,0.036282,44.810673,0.367845,0.009416,0.924506,0.381154,0.002999,-0.001148
7579,-0.067946,6.987049,7.038854,-0.016686,-0.091965,0.031677,44.808502,0.367930,0.008031,0.924513,0.381137,0.002995,-0.001159
7580,-0.068533,6.990443,7.043054,-0.016724,-0.088882,0.025543,44.804893,0.368616,0.006563,0.924525,0.381108,0.002996,-0.001173
7581,-0.068738,6.991346,7.039674,-0.006064,-0.099531,0.030087,44.802803,0.369474,0.004997,0.924532,0.381091,0.002998,-0.001188
7582,-0.070750,6.990486,7.038675,-0.009117,-0.099491,0.023944,44.802418,0.370985,0.003298,0.924533,0.381088,0.003004,-0.001207
7583,-0.064329,6.991789,7.041079,-0.003016,-0.107096,0.025447,44.801987,0.370602,0.001454,0.924535,0.381084,0.002995,-0.001221
7584,-0.065140,6.996212,7.043224,-0.006066,-0.113197,0.023917,44.801987,0.367804,-0.000548,0.924535,0.381084,0.002966,-0.001228
7585,-0.070985,6.996665,7.040706,-0.009097,-0.107066,0.025416,44.803349,0.367772,-0.002541,0.924530,0.381095,0.002959,-0.001244
7586,-0.069135,6.990087,7.043647,-0.009100,-0.091763,0.013165,44.802784,0.369856,-0.004422,0.924532,0.381091,0.002969,-0.001266
7587,-0.069004,6.995461,7.045927,-0.003021,-0.079520,0.017707,44.800522,0.371450,-0.006081,0.924539,0.381073,0.002977,-0.001284
7588,-0.074903,6.993453,7.041245,-0.030492,-0.068787,0.013077,44.799664,0.375289,-0.007461,0.924542,0.381066,0.003003,-0.001308
7589,-0.074533,6.980389,7.036580,-0.027460,-0.062614,0.017586,44.797024,0.381145,-0.008653,0.924551,0.381045,0.003046,-0.001337
7590,-0.069806,6.972994,7.031741,-0.024465,-0.073249,0.025170,44.791710,0.384255,-0.009772,0.924568,0.381002,0.003068,-0.001356
7591,-0.077161,6.976923,7.030876,-0.035187,-0.085407,0.031223,44.787392,0.387369,-0.010991,0.924583,0.380967,0.003089,-0.001377
7592,-0.077050,6.971899,7.027996,-0.038264,-0.085336,0.020471,44.784203,0.392785,-0.012398,0.924593,0.380941,0.003128,-0.001406
7593,-0.073460,6.975728,7.033114,-0.035242,-0.088333,0.034151,44.780575,0.396134,-0.013807,0.924605,0.380912,0.003150,-0.001428
7594,-0.079636,6.985412,7.036355,-0.035248,-0.095906,0.040198,44.778885,0.399492,-0.015094,0.924610,0.380898,0.003173,-0.001450
7595,-0.077384,6.994774,7.037340,-0.036725,-0.088210,0.024873,44.781578,0.403977,-0.016459,0.924601,0.380920,0.003205,-0.001476
7596,-0.071609,6.990249,7.040347,-0.048882,-0.085125,0.027892,44.784218,0.405101,-0.017841,0.924593,0.380941,0.003209,-0.001491
7597,-0.072137,6.993384,7.040692,-0.045799,-0.094268,0.026354,44.785065,0.403739,-0.019288,0.924590,0.380948,0.003193,-0.001498
7598,-0.071157,6.993739,7.038781,-0.035073,-0.097308,0.015662,44.787285,0.402214,-0.021015,0.924582,0.380966,0.003175,-0.001507
7599,-0.068404,6.990788,7.042092,-0.036571,-0.085100,0.014137,44.788353,0.399699,-0.022788,0.924579,0.380975,0.003149,-0.001513
7600,-0.076037,6.991725,7.046892,-0.044210,-0.077453,0.020222,44.786320,0.399501,-0.024295,0.924586,0.380958,0.003143,-0.001524
7601,-0.079720,6.991870,7.044415,-0.032014,-0.078920,0.011007,44.784084,0.403941,-0.025769,0.924593,0.380940,0.003174,-0.001551
7602,-0.077420,6.986701,7.047963,-0.035094,-0.074280,0.021628,44.780624,0.408660,-0.027198,0.924604,0.380912,0.003207,-0.001578
7603,-0.079243,6.988067,7.048409,-0.041250,-0.071174,0.033781,44.775272,0.412409,-0.028279,0.924622,0.380869,0.003234,-0.001599
7604,-0.077363,6.990317,7.048799,-0.035179,-0.072652,0.039836,44.771271,0.415367,-0.029117,0.924635,0.380837,0.003255,-0.001615
7605,-0.069780,6.990906,7.046043,-0.038240,-0.090950,0.039823,44.769352,0.413931,-0.030100,0.924642,0.380821,0.003240,-0.001618
7606,-0.069534,6.990792,7.045687,-0.045860,-0.084862,0.048993,44.768627,0.409134,-0.031107,0.924644,0.380816,0.003198,-0.001611
7607,-0.071621,6.990024,7.041432,-0.039734,-0.089443,0.039843,44.769062,0.405490,-0.032089,0.924643,0.380819,0.003165,-0.001606
7608,-0.077225,6.989788,7.039524,-0.041219,-0.083314,0.033713,44.770988,0.405580,-0.033223,0.924636,0.380835,0.003162,-0.001616
7609,-0.075950,6.986191,7.037746,-0.050336,-0.087847,0.021463,44.772537,0.407825,-0.034557,0.924631,0.380847,0.003176,-0.001634
7610,-0.076921,6.980917,7.035330,-0.041161,-0.077124,0.019896,44.772564,0.410060,-0.035993,0.924631,0.380848,0.003189,-0.001653
7611,-0.076833,6.981628,7.036897,-0.036577,-0.081660,0.016802,44.771694,0.412475,-0.037420,0.924634,0.380841,0.003204,-0.001673
7612,-0.077547,6.986989,7.039644,-0.041143,-0.081619,0.024391,44.771378,0.414694,-0.038842,0.924635,0.380838,0.003217,-0.001692
7613,-0.067775,6.979167,7.043093,-0.045736,-0.089241,0.024384,44.768627,0.412928,-0.040280,0.924644,0.380816,0.003198,-0.001697
7614,-0.066271,6.984654,7.041421,-0.048816,-0.078591,0.024415,44.764839,0.406826,-0.041688,0.924657,0.380785,0.003144,-0.001688
7615,-0.066380,6.981411,7.043957,-0.038153,-0.081675,0.019868,44.761986,0.400848,-0.043055,0.924666,0.380763,0.003091,-0.001679
7617,-0.065979,6.985042,7.045885,-0.025970,-0.067967,0.025997,44.758858,0.395661,-0.044282,0.924677,0.380737,0.003046,-0.001672
7618,-0.064297,6.984493,7.046157,-0.022937,-0.058838,0.027548,44.756630,0.390586,-0.045146,0.924684,0.380719,0.003002,-0.001662
7619,-0.068828,6.992315,7.045093,-0.016818,-0.055796,0.032136,44.757118,0.387353,-0.045777,0.924683,0.380723,0.002974,-0.001656
7620,-0.071509,6.987488,7.044573,-0.018313,-0.071036,0.036695,44.759041,0.387195,-0.046434,0.924676,0.380739,0.002970,-0.001661
7621,-0.070007,6.989971,7.046041,-0.024398,-0.071011,0.048878,44.759785,0.387344,-0.047079,0.924674,0.380745,0.002969,-0.001667
7622,-0.066677,6.988715,7.040681,-0.036572,-0.080158,0.045817,44.761436,0.385423,-0.047714,0.924668,0.380758,0.002952,-0.001666
7623,-0.067205,6.987514,7.036818,-0.030415,-0.077105,0.033610,44.764660,0.382670,-0.048590,0.924658,0.380784,0.002926,-0.001664
7624,-0.067107,6.978275,7.030573,-0.030366,-0.070996,0.013769,44.767544,0.380917,-0.049742,0.924648,0.380808,0.002908,-0.001667
7625,-0.067501,6.974758,7.028043,-0.010498,-0.075565,0.015286,44.769245,0.379852,-0.051102,0.924643,0.380821,0.002895,-0.001675
7626,-0.069503,6.975626,7.024630,-0.011987,-0.070968,0.006111,44.771832,0.380005,-0.052549,0.924634,0.380842,0.002892,-0.001687
7627,-0.069812,6.975363,7.021251,-0.018032,-0.072466,-0.000019,44.776024,0.381339,-0.054130,0.924620,0.380876,0.002897,-0.001704
7628,-0.069904,6.973036,7.021616,-0.021029,-0.073964,0.007583,44.779724,0.382686,-0.055730,0.924608,0.380906,0.002903,-0.001722
7629,-0.070357,6.980994,7.028821,-0.020988,-0.072410,0.010607,44.782322,0.383916,-0.057211,0.924599,0.380927,0.002908,-0.001738
7630,-0.069926,6.980680,7.032565,-0.031644,-0.069331,0.010581,44.783455,0.384966,-0.058611,0.924595,0.380936,0.002911,-0.001753
7631,-0.070339,6.981971,7.035086,-0.028587,-0.063203,0.024290,44.782772,0.385791,-0.059752,0.924597,0.380931,0.002914,-0.001765
7632,-0.068523,6.983906,7.040417,-0.027073,-0.058607,0.022745,44.780899,0.385914,-0.060632,0.924604,0.380916,0.002912,-0.001772
7633,-0.070041,6.987616,7.042310,-0.042348,-0.058590,0.027305,44.778542,0.385853,-0.061424,0.924611,0.380897,0.002909,-0.001778
7634,-0.068480,6.986488,7.043305,-0.031679,-0.060099,0.036445,44.776314,0.385583,-0.062070,0.924619,0.380879,0.002905,-0.001782
7635,-0.069261,6.992167,7.041953,-0.028618,-0.055507,0.034905,44.775963,0.384973,-0.062579,0.924620,0.380876,0.002898,-0.001784
7636,-0.070682,6.988087,7.044828,-0.024031,-0.064640,0.027254,44.775936,0.385319,-0.063248,0.924620,0.380876,0.002899,-0.001791
7637,-0.070940,6.989594,7.044579,-0.013356,-0.066138,0.037907,44.774769,0.386166,-0.064016,0.924624,0.380866,0.002903,-0.001800
7638,-0.068613,6.991291,7.047872,-0.007257,-0.073748,0.045517,44.774014,0.385804,-0.064674,0.924626,0.380860,0.002898,-0.001804
7639,-0.070263,6.996276,7.049397,-0.017936,-0.076782,0.040922,44.773834,0.384966,-0.065416,0.924627,0.380859,0.002889,-0.001807
7640,-0.070280,6.995476,7.051447,-0.028611,-0.073706,0.042424,44.773525,0.384871,-0.066194,0.924628,0.380856,0.002885,-0.001813
7641,-0.069837,7.003075,7.054934,-0.039282,-0.066054,0.037824,44.773254,0.384814,-0.066879,0.924629,0.380854,0.002883,-0.001819
7642,-0.068717,7.000995,7.054115,-0.039261,-0.061460,0.027125,44.773628,0.384475,-0.067596,0.924628,0.380857,0.002878,-0.001823
7643,-0.063936,7.003403,7.052629,-0.030075,-0.059936,0.017973,44.774860,0.382204,-0.068471,0.924624,0.380867,0.002856,-0.001823
7644,-0.066895,6.990841,7.045493,-0.020897,-0.061469,0.019506,44.775860,0.379531,-0.069441,0.924620,0.380875,0.002832,-0.001822
7645,-0.062325,6.985774,7.041008,-0.020897,-0.067582,0.028671,44.775196,0.376402,-0.070385,0.924623,0.380870,0.002803,-0.001819
7646,-0.061374,6.984118,7.034762,-0.013254,-0.075235,0.033272,44.775715,0.371240,-0.071322,0.924621,0.380874,0.002758,-0.001809
7647,-0.066906,6.984138,7.035987,-0.022384,-0.079817,0.030224,44.777122,0.368244,-0.072378,0.924616,0.380886,0.002731,-0.001808
7648,-0.070150,6.980899,7.031235,-0.016256,-0.079786,0.033245,44.778439,0.369133,-0.073488,0.924612,0.380896,0.002734,-0.001820
7649,-0.067972,6.984458,7.034762,-0.019280,-0.072119,0.040839,44.780041,0.370542,-0.074380,0.924607,0.380909,0.002743,-0.001832
7650,-0.069688,6.990977,7.039416,-0.007041,-0.064457,0.025548,44.782139,0.371856,-0.075182,0.924600,0.380926,0.002750,-0.001843
7651,-0.072879,6.993035,7.042608,-0.013114,-0.064409,0.030078,44.784306,0.375064,-0.076020,0.924592,0.380944,0.002774,-0.001860
7652,-0.071026,6.989228,7.042529,-0.014629,-0.065886,0.048339,44.784740,0.378198,-0.076617,0.924591,0.380947,0.002797,-0.001875
7653,-0.071882,6.988181,7.044806,-0.020748,-0.067368,0.060505,44.782955,0.380139,-0.076901,0.924597,0.380933,0.002812,-0.001884
7654,-0.073963,6.988163,7.047902,-0.020783,-0.070371,0.046723,44.779419,0.382829,-0.077269,0.924608,0.380904,0.002832,-0.001896
7655,-0.074084,6.980936,7.046710,-0.026948,-0.073369,0.045142,44.773628,0.386178,-0.077903,0.924627,0.380857,0.002857,-0.001912
7656,-0.072904,6.979404,7.041071,-0.028536,-0.065692,0.034413,44.767784,0.388948,-0.078628,0.924647,0.380810,0.002877,-0.001927
7657,-0.073676,6.982883,7.041290,-0.025511,-0.061072,0.025216,44.764744,0.391539,-0.079425,0.924657,0.380786,0.002895,-0.001942
7658,-0.072253,6.987079,7.038173,-0.020917,-0.061035,0.005342,44.765305,0.393909,-0.080487,0.924655,0.380790,0.002911,-0.001958
7659,-0.067543,6.988883,7.033916,-0.030008,-0.064073,0.006855,44.769596,0.393769,-0.081776,0.924641,0.380825,0.002906,-0.001968
7660,-0.066682,6.997963,7.031743,-0.023786,-0.064079,0.014493,44.778233,0.391183,-0.082962,0.924612,0.380895,0.002881,-0.001970
7661,-0.064306,6.998019,7.033232,-0.020591,-0.064095,0.014510,44.788849,0.387427,-0.084047,0.924577,0.380980,0.002847,-0.001966
7662,-0.065295,6.994141,7.030692,-0.011319,-0.068691,0.016054,44.797630,0.383496,-0.085181,0.924548,0.381051,0.002811,-0.001962
7663,-0.064530,6.985002,7.036631,-0.018904,-0.067177,0.014541,44.800671,0.380144,-0.086391,0.924538,0.381076,0.002780,-0.001961
7664,-0.065730,6.988855,7.041421,-0.012821,-0.070235,0.025228,44.798534,0.377309,-0.087545,0.924545,0.381059,0.002753,-0.001961
7665,-0.068343,6.994864,7.042204,-0.014352,-0.073278,0.013011,44.797600,0.376273,-0.088782,0.924548,0.381051,0.002741,-0.001968
7666,-0.066723,6.991280,7.041398,-0.006717,-0.077840,0.016048,44.797646,0.375890,-0.090210,0.924548,0.381052,0.002733,-0.001978
7667,-0.063399,6.997545,7.045903,-0.017397,-0.076315,0.008418,44.797417,0.373706,-0.091730,0.924549,0.381050,0.002710,-0.001983
7668,-0.064808,7.004498,7.045381,-0.018888,-0.077847,0.014528,44.799534,0.370944,-0.093251,0.924542,0.381067,0.002683,-0.001986
7669,-0.065737,7.008626,7.039088,-0.015744,-0.071737,0.012998,44.806419,0.369403,-0.094634,0.924519,0.381122,0.002666,-0.001992
7670,-0.062827,6.994504,7.042426,-0.014155,-0.070210,0.026731,44.810852,0.367357,-0.095799,0.924504,0.381158,0.002645,-0.001995
7671,-0.066100,6.994114,7.045380,-0.024855,-0.077836,0.029778,44.808723,0.365436,-0.096879,0.924511,0.381141,0.002626,-0.001997
7672,-0.067791,6.989636,7.042226,-0.021840,-0.070182,0.038910,44.805035,0.365555,-0.097824,0.924523,0.381111,0.002624,-0.002005
7673,-0.068481,6.992613,7.037145,-0.021848,-0.073201,0.025144,44.803616,0.366839,-0.098755,0.924528,0.381100,0.002631,-0.002017
7674,-0.071060,6.989184,7.036503,-0.021835,-0.074684,0.018997,44.803955,0.369480,-0.099963,0.924527,0.381103,0.002649,-0.002035
7675,-0.069494,6.998746,7.034823,-0.020266,-0.076165,0.015901,44.806709,0.372315,-0.101300,0.924517,0.381125,0.002667,-0.002056
7676,-0.066866,7.001806,7.032454,-0.020168,-0.068507,0.006720,44.813816,0.373372,-0.102681,0.924494,0.381182,0.002671,-0.002070
7677,-0.070011,7.001183,7.035049,-0.030752,-0.079163,-0.002462,44.820698,0.374544,-0.104315,0.924471,0.381238,0.002675,-0.002088
7678,-0.071672,6.999063,7.035988,-0.032215,-0.069965,0.015808,44.824741,0.377292,-0.105876,0.924457,0.381271,0.002692,-0.002109
7679,-0.070289,6.994549,7.035903,-0.035238,-0.066873,0.029502,44.825932,0.379666,-0.106932,0.924453,0.381280,0.002707,-0.002126
7680,-0.079815,6.988906,7.037067,-0.036778,-0.071386,0.029437,44.823647,0.384676,-0.107867,0.924461,0.381262,0.002744,-0.002150
7681,-0.080649,6.990968,7.034637,-0.039850,-0.062135,0.035445,44.820717,0.393178,-0.108680,0.924470,0.381238,0.002810,-0.002185
7682,-0.080007,6.988762,7.033810,-0.030700,-0.063571,0.047564,44.819084,0.400741,-0.109179,0.924475,0.381225,0.002870,-0.002214
7683,-0.081865,6.984537,7.033786,-0.020039,-0.063487,0.056637,44.816555,0.407453,-0.109452,0.924483,0.381205,0.002923,-0.002238
7684,-0.078311,6.985896,7.035414,-0.024649,-0.071048,0.045886,44.813198,0.412493,-0.109839,0.924494,0.381177,0.002963,-0.002258
7685,-0.076682,6.988780,7.027483,-0.027694,-0.052692,0.042790,44.812965,0.415047,-0.110240,0.924495,0.381176,0.002982,-0.002270
7686,-0.076103,6.984349,7.024852,-0.023075,-0.060289,0.044283,44.815445,0.416417,-0.110513,0.924487,0.381196,0.002992,-0.002277
7687,-0.068184,6.991721,7.025462,-0.012336,-0.061813,0.041230,44.819386,0.414158,-0.110904,0.924474,0.381227,0.002972,-0.002273
7688,-0.066674,6.995009,7.025603,-0.015303,-0.078628,0.027527,44.825737,0.408282,-0.111692,0.924453,0.381279,0.002922,-0.002260
