seq,ax,ay,az,wroll,wpitch,wyaw,roll,pitch,yaw
1,0.013735,9.853128,0.028678,0.478796,0.217779,0.124696,89.833244,-0.079868,-0.079636
2,0.002306,9.830111,0.054733,0.006536,0.089090,-0.087181,89.841324,-0.080479,-0.074520
3,-0.000609,9.825680,0.053385,-0.147124,-0.020164,-0.156695,89.838982,-0.076411,-0.073383
4,-0.006449,9.840379,0.048978,-0.505275,-0.145319,-0.251964,89.828110,-0.069608,-0.076161
5,-0.019446,9.843149,0.088235,-1.653255,-0.258950,-0.390627,89.792145,-0.058921,-0.082934
6,-0.022873,9.832653,0.078193,-1.017397,-0.582475,-0.078620,89.747635,-0.051157,-0.096990
8,-0.018379,9.835943,0.070675,-0.767495,-0.565971,0.036686,89.717911,-0.050545,-0.116134
9,-0.016340,9.835173,0.071437,-0.680089,-0.514097,0.073840,89.693802,-0.052480,-0.134126
10,-0.005267,9.823509,0.071423,-0.308153,-0.395800,0.233112,89.677353,-0.057678,-0.149262
11,0.008512,9.814856,0.029391,1.001643,-0.258572,0.369204,89.688919,-0.067777,-0.160113
12,0.013206,9.817598,0.042365,0.302997,0.020625,0.050764,89.710670,-0.074796,-0.164043
13,0.010667,9.815189,0.037745,0.242706,0.016295,-0.044990,89.719757,-0.074889,-0.163428
15,0.010002,9.818963,0.030132,0.535802,-0.008192,-0.018375,89.732742,-0.073832,-0.163298
16,0.008044,9.814957,0.028418,0.513037,-0.040110,-0.041218,89.750221,-0.072843,-0.164107
17,0.012014,9.815372,0.027043,0.269779,-0.025101,-0.006770,89.763275,-0.072048,-0.165197
18,0.011292,9.817494,0.016540,0.387552,-0.020637,-0.021462,89.774231,-0.071580,-0.165961
19,0.007409,9.847504,0.023876,0.512176,0.034682,-0.081872,89.789223,-0.069857,-0.165734
20,0.008317,9.845643,0.037876,0.010053,0.080677,-0.126920,89.797928,-0.066370,-0.163824
22,0.007797,9.846116,0.040276,-0.092384,0.111249,-0.148684,89.796539,-0.061765,-0.160642
23,0.009871,9.847870,0.035971,0.170602,0.111024,-0.085675,89.797852,-0.057846,-0.156951
24,0.010626,9.843767,0.046117,-0.070555,0.132465,-0.086195,89.799515,-0.054968,-0.152903
25,0.012741,9.813076,0.045862,-0.283748,0.098754,-0.058313,89.793594,-0.052545,-0.149058
26,0.019438,9.816847,0.034647,0.131413,0.084471,0.066789,89.791054,-0.052675,-0.146004
27,0.039789,9.734171,0.008806,0.501592,0.038760,0.432546,89.801605,-0.060990,-0.143920
29,0.040212,9.732408,-0.010947,0.789007,0.030925,0.438106,89.823112,-0.075498,-0.142711
30,0.039782,9.736188,-0.018315,0.920142,0.009620,0.407658,89.851593,-0.089592,-0.141996
31,0.048690,9.740613,-0.025394,0.901315,-0.004391,0.510955,89.881958,-0.104902,-0.141873
32,0.045270,9.730751,-0.028086,0.671925,0.000495,0.404933,89.908173,-0.120167,-0.141910
33,0.026234,9.813454,-0.001980,0.292235,0.037046,0.029999,89.924248,-0.127415,-0.141274
34,0.025585,9.815730,0.024878,-0.145964,0.025827,-0.011387,89.926682,-0.127723,-0.140225
36,0.025250,9.812767,0.034641,-0.297828,0.039902,-0.006234,89.919281,-0.127428,-0.139130
37,0.021600,9.813189,0.038068,-0.337095,0.038512,-0.052676,89.908699,-0.126444,-0.137825
38,0.020972,9.819261,0.042502,-0.370543,0.020291,-0.051945,89.896912,-0.124699,-0.136848
39,0.017069,9.821648,0.044837,-0.381225,0.026489,-0.087807,89.884377,-0.122368,-0.136073
40,0.018417,9.822583,0.041846,-0.310941,0.053743,-0.060841,89.872841,-0.119888,-0.134741
41,0.017963,9.823024,0.039547,-0.242554,0.045977,-0.062814,89.863602,-0.117823,-0.133083
43,0.020433,9.824944,0.041034,-0.224370,0.047399,-0.020174,89.855827,-0.116436,-0.131531
44,0.023598,9.822206,0.040374,-0.194017,0.062468,0.031069,89.848846,-0.116613,-0.129699
45,0.027648,9.820962,0.034907,-0.100054,0.062110,0.079091,89.843941,-0.118444,-0.127618
46,0.024382,9.818257,0.039674,-0.142279,0.054736,0.030064,89.839905,-0.120258,-0.125665
47,0.025486,9.820000,0.036195,-0.079862,0.051526,0.032440,89.836197,-0.121294,-0.123891
48,0.023705,9.816489,0.038461,-0.108485,0.051656,-0.003613,89.833061,-0.121770,-0.122170
50,0.021204,9.821349,0.040935,-0.133440,0.051824,-0.033809,89.829025,-0.121141,-0.120447
51,0.019953,9.823317,0.042716,-0.141650,0.053431,-0.052068,89.824432,-0.119704,-0.118698
52,0.023108,9.826130,0.037103,-0.043667,0.056132,0.006592,89.821342,-0.118941,-0.116874
53,0.021202,9.829154,0.041762,-0.102184,0.063964,-0.013265,89.818901,-0.118823,-0.114873
54,0.019019,9.832593,0.040148,-0.083112,0.059423,-0.049459,89.815804,-0.117771,-0.112819
55,0.019438,9.826908,0.041614,-0.094085,0.057896,-0.055828,89.812851,-0.116010,-0.110870
57,0.016982,9.825736,0.046995,-0.175949,0.055087,-0.097886,89.808342,-0.113442,-0.108995
58,0.013714,9.828232,0.046690,-0.175412,0.058240,-0.154441,89.802483,-0.109230,-0.107121
59,0.014833,9.824304,0.047803,-0.172773,0.042885,-0.129071,89.796677,-0.104499,-0.105452
60,0.011440,9.820499,0.045701,-0.123358,0.044452,-0.157523,89.791733,-0.099717,-0.104013
61,0.010975,9.823256,0.041830,-0.046805,0.033626,-0.141751,89.788902,-0.094725,-0.102730
62,0.011962,9.819040,0.035590,0.055611,0.036414,-0.114834,89.789047,-0.090444,-0.101579
64,0.011409,9.812304,0.039090,0.005321,0.030383,-0.102954,89.790070,-0.086810,-0.100479
65,0.012774,9.809417,0.038639,0.018342,0.037896,-0.067803,89.790459,-0.083960,-0.099351
66,0.019402,9.803745,0.041906,-0.030718,0.040637,0.025595,89.790253,-0.083252,-0.098045
67,0.015162,9.812301,0.044943,-0.089312,0.051601,-0.042388,89.788254,-0.082966,-0.096509
68,0.020031,9.821144,0.047905,-0.126965,0.062072,0.029158,89.784645,-0.082739,-0.094615
69,0.022123,9.822488,0.051193,-0.164355,0.068109,0.054130,89.779785,-0.084119,-0.092440
71,0.026086,9.823714,0.049455,-0.134471,0.078521,0.106954,89.774803,-0.086794,-0.089986
72,0.022939,9.828639,0.046615,-0.094051,0.080166,0.066478,89.770981,-0.089674,-0.087329
73,0.029945,9.814932,0.048098,-0.108684,0.067595,0.165106,89.767593,-0.093524,-0.084851
74,0.026390,9.806231,0.045401,-0.063017,0.063184,0.116224,89.764725,-0.098204,-0.082653
75,0.025564,9.799330,0.042871,-0.020894,0.060153,0.097355,89.763329,-0.101755,-0.080582
76,0.019546,9.798535,0.045415,-0.060742,0.048405,-0.007062,89.761971,-0.103252,-0.078767
78,0.022900,9.797906,0.046200,-0.055152,0.040602,0.041319,89.760017,-0.103817,-0.077281
79,0.021975,9.802494,0.039183,0.064750,0.060305,0.027788,89.760178,-0.104962,-0.075594
80,0.021489,9.813643,0.036980,0.106338,0.046555,0.012913,89.763023,-0.105633,-0.073811
81,0.022905,9.820676,0.040004,0.049411,0.043521,0.036266,89.765617,-0.106446,-0.072306
82,0.023580,9.824640,0.039164,0.058458,0.045008,0.053123,89.767410,-0.107930,-0.070824
83,0.028652,9.825988,0.035155,0.126234,0.050726,0.120295,89.770485,-0.110814,-0.069217
85,0.026846,9.825264,0.036450,0.099657,0.049391,0.080738,89.774246,-0.114158,-0.067535
86,0.027744,9.818548,0.039012,0.050997,0.043366,0.084267,89.776756,-0.116902,-0.065978
87,0.029851,9.820810,0.040370,0.026566,0.047909,0.088259,89.778046,-0.119771,-0.064446
88,0.030371,9.815076,0.034728,0.106856,0.056902,0.078305,89.780273,-0.122540,-0.062689
89,0.024782,9.810270,0.044881,-0.045662,0.046892,-0.014542,89.781296,-0.123597,-0.060955
90,0.022494,9.810696,0.045200,-0.063559,0.042470,-0.044485,89.779465,-0.122607,-0.059469
92,0.024354,9.811161,0.040292,0.008073,0.057449,-0.014858,89.778534,-0.121612,-0.057807
93,0.024359,9.809711,0.032823,0.122431,0.049573,-0.001542,89.780708,-0.121331,-0.056025
94,0.026459,9.812730,0.042496,-0.025576,0.049765,0.032782,89.782318,-0.121846,-0.054367
95,0.025845,9.812202,0.035496,0.054236,0.058753,0.018007,89.782791,-0.122685,-0.052555
96,0.027692,9.813776,0.039021,0.013893,0.054194,0.041313,89.783928,-0.123667,-0.050669
97,0.030388,9.812008,0.045100,-0.076289,0.049678,0.076809,89.782883,-0.125629,-0.048931
99,0.027368,9.813234,0.045524,-0.085936,0.045295,0.018655,89.780167,-0.127214,-0.047342
100,0.026321,9.816896,0.039592,0.006086,0.037531,0.002350,89.778839,-0.127559,-0.045960
101,0.027912,9.821824,0.040815,-0.005100,0.029845,0.027580,89.778854,-0.128053,-0.044835
102,0.028736,9.823235,0.040466,-0.010657,0.038949,0.033760,89.778595,-0.129071,-0.043684
103,0.021208,9.821810,0.040211,-0.003324,0.045477,-0.083070,89.778358,-0.128244,-0.042281
104,0.021259,9.823811,0.043100,-0.038661,0.060818,-0.074222,89.777657,-0.125616,-0.040519
106,0.017108,9.819433,0.044360,-0.044925,0.056483,-0.126552,89.776260,-0.122262,-0.038577
107,0.014410,9.813921,0.045649,-0.048444,0.067315,-0.155912,89.774696,-0.117546,-0.036532
108,0.015329,9.819621,0.042761,0.004033,0.054907,-0.136976,89.773964,-0.112656,-0.034514
109,0.018015,9.820517,0.046905,-0.053003,0.044135,-0.074933,89.773140,-0.109118,-0.032878
110,0.020321,9.820314,0.045140,-0.022217,0.033225,-0.021765,89.771881,-0.107501,-0.031595
111,0.022738,9.817924,0.046153,-0.049319,0.031561,0.014577,89.770683,-0.107377,-0.030516
113,0.022267,9.821723,0.041677,0.016133,0.031458,0.004862,89.770142,-0.107697,-0.029464
114,0.019194,9.814132,0.046217,-0.050779,0.031762,-0.026790,89.769562,-0.107327,-0.028412
115,0.018608,9.818274,0.041136,0.020491,0.040806,-0.043686,89.769051,-0.106148,-0.027207
116,0.015101,9.814003,0.039033,0.055227,0.045519,-0.108598,89.770309,-0.103604,-0.025778
117,0.016009,9.817513,0.039162,0.062609,0.057656,-0.076876,89.772270,-0.100506,-0.024071
118,0.017695,9.819220,0.045456,-0.046219,0.047015,-0.044581,89.772537,-0.098475,-0.022335
120,0.021345,9.822035,0.038767,0.050824,0.057295,0.006037,89.772614,-0.097826,-0.020599
121,0.020880,9.820516,0.039244,0.039019,0.049698,0.002477,89.774117,-0.097960,-0.018815
122,0.018324,9.817945,0.044626,-0.041896,0.053040,-0.030476,89.774063,-0.097487,-0.017105
123,0.018095,9.819206,0.042571,-0.007154,0.042316,-0.029608,89.773247,-0.096479,-0.015519
124,0.014734,9.820879,0.041181,0.012203,0.050091,-0.068525,89.773315,-0.094838,-0.013986
125,0.015089,9.815919,0.046501,-0.064435,0.045604,-0.053037,89.772446,-0.092805,-0.012399
127,0.015667,9.816750,0.047232,-0.069859,0.056242,-0.033442,89.770210,-0.091357,-0.010707
128,0.017971,9.814931,0.047158,-0.067918,0.051502,0.008429,89.767914,-0.090933,-0.008913
129,0.019146,9.810166,0.045141,-0.051426,0.048318,0.016109,89.765923,-0.091335,-0.007248
130,0.020103,9.814115,0.041293,0.016071,0.052743,0.025930,89.765327,-0.092029,-0.005561
131,0.013151,9.820746,0.043080,-0.011166,0.060835,-0.085023,89.765404,-0.091036,-0.003672
132,0.014742,9.818795,0.042752,-0.009769,0.059196,-0.068459,89.765060,-0.088470,-0.001682
134,0.014184,9.822638,0.044421,-0.036057,0.057711,-0.068744,89.764290,-0.086176,0.000257
135,0.016258,9.830462,0.042513,0.004825,0.071249,-0.032951,89.763771,-0.084472,0.002400
136,0.018777,9.821433,0.042940,0.000857,0.063458,0.014384,89.763863,-0.084153,0.004644
137,0.023118,9.816587,0.037486,0.082946,0.047816,0.087850,89.765251,-0.085849,0.006505
138,0.025539,9.820496,0.040413,0.043094,0.041657,0.124947,89.767357,-0.089390,0.008011
139,0.027604,9.824798,0.034174,0.133653,0.039917,0.144581,89.770302,-0.093876,0.009388
141,0.025800,9.815923,0.035005,0.103057,0.029419,0.108993,89.774246,-0.098098,0.010561
142,0.022607,9.825323,0.039506,0.025031,0.020624,0.040895,89.776375,-0.100593,0.011405
143,0.022881,9.830572,0.040343,0.010859,0.035926,0.029352,89.776970,-0.101760,0.012352
144,0.017675,9.826394,0.039655,0.009974,0.028590,-0.037086,89.777321,-0.101627,0.013426
145,0.014712,9.829270,0.042849,-0.037289,0.036470,-0.084592,89.776863,-0.099595,0.014503
146,0.014257,9.832200,0.046691,-0.076716,0.044199,-0.081642,89.774963,-0.096819,0.015836
147,0.015316,9.829165,0.042619,-0.008282,0.053153,-0.063796,89.773544,-0.094389,0.017449
148,0.016711,9.819214,0.047246,-0.075949,0.042471,-0.020362,89.772133,-0.092980,0.019038
149,0.013128,9.822029,0.043439,-0.007592,0.050195,-0.073745,89.770737,-0.091405,0.020576
150,0.013209,9.821935,0.046333,-0.050931,0.042607,-0.062538,89.769768,-0.089127,0.022113
151,0.012964,9.825169,0.043429,-0.019700,0.039473,-0.069648,89.768585,-0.086919,0.023473
152,0.014555,9.821599,0.044671,-0.035116,0.037853,-0.024078,89.767677,-0.085352,0.024755
153,0.014606,9.821342,0.041298,0.001059,0.031651,-0.028566,89.767097,-0.084469,0.025910
154,0.019673,9.822115,0.038254,0.046940,0.035852,0.035322,89.767899,-0.084578,0.027035
155,0.020001,9.815836,0.038274,0.045819,0.048046,0.032424,89.769440,-0.085701,0.028438
156,0.020376,9.812369,0.040699,0.012462,0.040465,0.033699,89.770416,-0.086797,0.029918
157,0.020814,9.808062,0.039391,0.028876,0.041953,0.029890,89.771103,-0.087851,0.031296
158,0.019488,9.816191,0.040313,0.037071,0.049695,0.003106,89.772202,-0.088395,0.032825
159,0.020322,9.813897,0.042984,-0.003284,0.039036,0.017065,89.772758,-0.088726,0.034305
160,0.025008,9.817331,0.038723,0.065330,0.026468,0.084549,89.773788,-0.090415,0.035404
161,0.024504,9.820685,0.037140,0.089085,0.028009,0.083587,89.776367,-0.093213,0.036323
162,0.024559,9.826729,0.035682,0.096617,0.037170,0.074172,89.779457,-0.095839,0.037419
163,0.027366,9.825485,0.033325,0.117098,0.043102,0.119313,89.783020,-0.099058,0.038769
164,0.025999,9.826061,0.036191,0.055796,0.055508,0.103579,89.785896,-0.102767,0.040427
165,0.025638,9.822242,0.040170,-0.027947,0.061789,0.099922,89.786354,-0.106151,0.042395
166,0.025860,9.824567,0.039084,-0.003987,0.077044,0.096181,89.785812,-0.109411,0.044721
167,0.024326,9.821059,0.040872,-0.025884,0.066525,0.067358,89.785309,-0.112128,0.047124
168,0.020646,9.814615,0.044797,-0.088441,0.063811,-0.005095,89.783394,-0.113157,0.049300
169,0.019670,9.817264,0.043327,-0.055985,0.060772,-0.028088,89.780983,-0.112596,0.051374
170,0.017677,9.827664,0.038206,0.023800,0.066823,-0.065197,89.780441,-0.111033,0.053495
171,0.015847,9.829727,0.038409,0.004003,0.053179,-0.089550,89.780907,-0.108447,0.055485
172,0.018791,9.831889,0.040025,-0.026672,0.048459,-0.046356,89.780525,-0.106175,0.057170
173,0.020842,9.835965,0.034991,0.049343,0.046658,-0.001760,89.780899,-0.105367,0.058752
174,0.021481,9.828215,0.039961,-0.018327,0.043698,0.008304,89.781410,-0.105470,0.060259
175,0.023754,9.820225,0.039779,-0.006759,0.031362,0.041480,89.780991,-0.106295,0.061513
176,0.021360,9.812203,0.047587,-0.120190,0.034765,0.009358,89.778870,-0.107138,0.062618
177,0.019606,9.810415,0.046233,-0.086140,0.048558,-0.004556,89.775436,-0.107213,0.064007
178,0.020165,9.808366,0.051189,-0.150108,0.044069,0.001963,89.771492,-0.107164,0.065551
179,0.021333,9.814991,0.046737,-0.080941,0.056065,0.023525,89.767632,-0.107582,0.067221
180,0.018664,9.814610,0.049340,-0.106314,0.056279,-0.008821,89.764511,-0.107819,0.069095
181,0.021791,9.820327,0.042877,0.003760,0.062006,0.028417,89.762794,-0.108138,0.071068
182,0.021110,9.826365,0.042610,0.015372,0.062034,0.019042,89.763107,-0.108920,0.073138
183,0.020192,9.833090,0.041494,0.038888,0.068172,0.003515,89.764008,-0.109287,0.075310
184,0.017152,9.835712,0.041915,0.016936,0.065323,-0.047857,89.764931,-0.108539,0.077532
185,0.015710,9.838114,0.039714,0.042231,0.059240,-0.071632,89.765915,-0.106539,0.079600
186,0.012569,9.840725,0.038808,0.054645,0.056334,-0.107860,89.767525,-0.103540,0.081514
187,0.012207,9.830720,0.040511,0.017617,0.059429,-0.110060,89.768723,-0.099900,0.083428
188,0.007723,9.827133,0.039111,0.031747,0.051994,-0.172400,89.769547,-0.095185,0.085266
189,0.012051,9.822409,0.034380,0.118269,0.043951,-0.095959,89.772041,-0.090706,0.086847
190,0.014668,9.822583,0.035632,0.098383,0.051426,-0.037462,89.775650,-0.088476,0.088428
191,0.019788,9.823391,0.037290,0.068297,0.046587,0.033607,89.778427,-0.088405,0.090062
192,0.021214,9.837584,0.032464,0.138528,0.034205,0.055687,89.781868,-0.089888,0.091414
193,0.023507,9.837042,0.031904,0.139613,0.041724,0.086952,89.786499,-0.092261,0.092688
194,0.021745,9.835779,0.039106,0.015468,0.038983,0.050867,89.789085,-0.094553,0.094042
195,0.019167,9.831425,0.039309,-0.001837,0.040689,0.007744,89.789307,-0.095525,0.095373
196,0.018997,9.819884,0.037404,0.012486,0.049819,0.013861,89.789482,-0.095879,0.096883
197,0.018269,9.807680,0.041756,-0.062885,0.054545,0.001173,89.788643,-0.096123,0.098624
198,0.020999,9.801791,0.041095,-0.054558,0.049804,0.043688,89.786674,-0.096865,0.100365
199,0.018914,9.801600,0.036117,0.024572,0.060472,0.020548,89.786171,-0.097928,0.102207
200,0.020256,9.798840,0.037232,0.017000,0.061960,0.028445,89.786873,-0.098737,0.104251
201,0.018456,9.804761,0.039958,-0.015079,0.052983,-0.012245,89.786896,-0.099000,0.106168
202,0.020379,9.812598,0.040216,-0.006256,0.048310,0.013442,89.786545,-0.099014,0.107856
203,0.019385,9.817859,0.045972,-0.089057,0.046981,-0.001237,89.784950,-0.099211,0.109445
204,0.022760,9.819822,0.051211,-0.150758,0.034715,0.050518,89.780945,-0.100027,0.110810
205,0.024328,9.825917,0.052913,-0.165190,0.034659,0.077270,89.775673,-0.102153,0.111974
206,0.027919,9.826680,0.052494,-0.148990,0.039017,0.112116,89.770447,-0.105304,0.113214
207,0.027708,9.820245,0.048407,-0.078386,0.049606,0.090803,89.766655,-0.108680,0.114705
208,0.028950,9.819553,0.046021,-0.038781,0.049481,0.095989,89.764694,-0.111787,0.116369
209,0.030133,9.815016,0.043160,-0.001617,0.056980,0.105745,89.764023,-0.115142,0.118157
210,0.030250,9.812416,0.037504,0.073301,0.062942,0.091615,89.765221,-0.118423,0.120170
211,0.024372,9.812885,0.037276,0.069122,0.063327,0.005265,89.767586,-0.120029,0.122281
212,0.023660,9.815241,0.042922,-0.028224,0.058994,0.003002,89.768265,-0.120158,0.124320
213,0.021639,9.816349,0.040593,-0.001978,0.062099,-0.023787,89.767754,-0.119804,0.126337
214,0.018726,9.818393,0.041138,-0.000908,0.062282,-0.074620,89.767708,-0.118155,0.128403
215,0.018688,9.821648,0.040527,0.006802,0.062248,-0.068102,89.767799,-0.115768,0.130469
216,0.021683,9.824132,0.038166,0.051801,0.068081,-0.015483,89.768776,-0.114366,0.132635
217,0.021106,9.823647,0.037072,0.072944,0.058919,-0.020366,89.770851,-0.113760,0.134750
218,0.022580,9.821461,0.036742,0.086188,0.069511,0.007305,89.773499,-0.113534,0.136889
219,0.023265,9.824150,0.036508,0.064826,0.072529,0.014736,89.776016,-0.113892,0.139258
220,0.023545,9.822808,0.043506,-0.032894,0.068157,0.014941,89.776543,-0.114378,0.141605
221,0.019390,9.820168,0.043315,-0.033171,0.063818,-0.048299,89.775436,-0.113813,0.143802
222,0.019926,9.818531,0.040918,0.009020,0.065232,-0.040547,89.775024,-0.112324,0.145947
223,0.021341,9.818223,0.042873,-0.016996,0.065189,-0.019216,89.774895,-0.111319,0.148117
224,0.023008,9.817566,0.044351,-0.019979,0.059020,0.018336,89.774277,-0.111296,0.150187
226,0.020568,9.816325,0.040091,0.040580,0.060562,-0.003418,89.774612,-0.111537,0.152181
227,0.022339,9.815563,0.042776,-0.007150,0.060540,0.029490,89.775162,-0.111964,0.154201
228,0.023117,9.819770,0.042902,-0.019266,0.069663,0.038127,89.774719,-0.113082,0.156375
229,0.019697,9.824360,0.042830,-0.027530,0.071393,-0.022306,89.773941,-0.113337,0.158727
230,0.018658,9.824782,0.039556,0.009951,0.074408,-0.042681,89.773643,-0.112244,0.161153
231,0.020777,9.828194,0.038864,0.014868,0.078832,-0.022893,89.774055,-0.111141,0.163703
232,0.021434,9.832629,0.038866,0.011025,0.071157,-0.007638,89.774483,-0.110622,0.166201
233,0.022704,9.835914,0.039002,0.015790,0.071085,0.015118,89.774925,-0.110738,0.168572
234,0.025903,9.835816,0.033276,0.099590,0.063114,0.064503,89.776848,-0.112056,0.170814
235,0.026407,9.831423,0.035946,0.060289,0.054029,0.067233,89.779510,-0.114244,0.172775
236,0.025336,9.830705,0.036049,0.056687,0.029715,0.038594,89.781456,-0.116002,0.174177
237,0.027553,9.825285,0.037306,0.045418,0.037287,0.065235,89.783150,-0.117729,0.175300
238,0.022689,9.819159,0.039883,0.004763,0.036135,-0.005175,89.783981,-0.118725,0.176528
239,0.017925,9.821078,0.044251,-0.060940,0.041122,-0.074160,89.783035,-0.117398,0.177810
240,0.018821,9.819564,0.041740,-0.023625,0.050133,-0.057743,89.781631,-0.115194,0.179323
241,0.018920,9.810155,0.044172,-0.053160,0.073058,-0.038323,89.780342,-0.113585,0.181370
242,0.017669,9.813972,0.044021,-0.053637,0.082255,-0.055725,89.778564,-0.112007,0.183952
243,0.023607,9.811855,0.041602,-0.015553,0.080299,0.024284,89.777405,-0.111473,0.186660
244,0.027073,9.809498,0.044683,-0.059353,0.069497,0.080927,89.776154,-0.113217,0.189163
245,0.023806,9.818295,0.046533,-0.079621,0.069747,0.025537,89.773834,-0.114982,0.191491
246,0.024261,9.821090,0.045451,-0.050268,0.071222,0.033791,89.771660,-0.115961,0.193844
247,0.023012,9.818142,0.043506,-0.013646,0.052924,0.016301,89.770592,-0.116788,0.195917
248,0.020190,9.822166,0.044049,-0.032383,0.063789,-0.022469,89.769821,-0.116677,0.197861
249,0.020118,9.822834,0.039948,0.044628,0.075874,-0.023262,89.770020,-0.115906,0.200186
250,0.020234,9.824919,0.038138,0.078284,0.077333,-0.022754,89.772064,-0.115129,0.202736
251,0.020396,9.825308,0.043322,-0.000871,0.065271,-0.029140,89.773346,-0.114254,0.205110
252,0.022741,9.828499,0.043840,-0.009919,0.069725,0.005609,89.773170,-0.113853,0.207358
253,0.023678,9.825232,0.040128,0.042899,0.063455,0.018878,89.773705,-0.114253,0.209579
254,0.023835,9.826894,0.044345,-0.029015,0.055946,0.010979,89.773933,-0.114742,0.211571
255,0.026361,9.818440,0.043687,-0.028184,0.049684,0.062195,89.772980,-0.115955,0.213337
256,0.025081,9.827933,0.039906,0.017710,0.048128,0.037119,89.772804,-0.117604,0.214973
257,0.024825,9.828168,0.040865,0.007230,0.046661,0.026235,89.773216,-0.118653,0.216557
258,0.025152,9.828422,0.042920,-0.008500,0.045192,0.025342,89.773193,-0.119507,0.218092
259,0.022741,9.832082,0.040216,0.038803,0.037628,0.000176,89.773682,-0.119927,0.219474
260,0.020649,9.834149,0.041982,0.008893,0.036283,-0.040563,89.774475,-0.119249,0.220703
261,0.020013,9.829820,0.040413,0.032546,0.043899,-0.051056,89.775169,-0.117717,0.222033
262,0.019851,9.825385,0.039335,0.055438,0.053019,-0.055561,89.776627,-0.115933,0.223641
263,0.018612,9.828965,0.038582,0.055317,0.050006,-0.063166,89.778465,-0.113948,0.225351
264,0.015583,9.818172,0.034694,0.094610,0.048527,-0.106687,89.780960,-0.111111,0.226982
265,0.016325,9.821702,0.038074,0.043873,0.059247,-0.085822,89.783264,-0.107895,0.228766
266,0.017674,9.818938,0.038707,0.031748,0.060695,-0.048892,89.784531,-0.105643,0.230757
267,0.021774,9.818656,0.037216,0.036609,0.060413,0.018093,89.785660,-0.105122,0.232773
268,0.019660,9.814896,0.037909,0.024967,0.063600,-0.005216,89.786682,-0.105329,0.234841
269,0.025226,9.817347,0.040294,-0.016839,0.067947,0.073905,89.786819,-0.106465,0.237038
270,0.026417,9.816911,0.041281,-0.030100,0.064869,0.086976,89.786026,-0.109138,0.239261
271,0.027673,9.814709,0.039380,0.004043,0.069348,0.101812,89.785591,-0.112277,0.241510
272,0.028179,9.818580,0.042153,-0.029019,0.063325,0.110397,89.785179,-0.115805,0.243734
273,0.027085,9.820993,0.040802,-0.005087,0.061854,0.077937,89.784592,-0.118936,0.245832
274,0.025968,9.821685,0.042829,-0.019481,0.060479,0.050777,89.784187,-0.121074,0.247879
275,0.023346,9.812901,0.042077,-0.011109,0.066724,0.007523,89.783676,-0.122037,0.250003
276,0.020810,9.814133,0.042149,-0.013883,0.059243,-0.033460,89.783257,-0.121597,0.252101
277,0.014931,9.814140,0.042524,-0.025958,0.071780,-0.125811,89.782593,-0.118934,0.254275
278,0.017991,9.816307,0.044383,-0.058955,0.071635,-0.071524,89.781174,-0.115636,0.256652
279,0.018440,9.817834,0.044990,-0.062669,0.080740,-0.049150,89.779144,-0.113615,0.259184
280,0.023945,9.826208,0.045795,-0.073396,0.078896,0.028298,89.776863,-0.113258,0.261843
281,0.026380,9.824039,0.045242,-0.065951,0.080249,0.057177,89.774536,-0.114672,0.264501
282,0.027715,9.818102,0.041543,-0.017266,0.067858,0.079497,89.773148,-0.116940,0.266979
283,0.027262,9.815884,0.041901,-0.011539,0.072486,0.062775,89.772667,-0.119302,0.269327
284,0.029818,9.811174,0.043886,-0.045742,0.069369,0.086796,89.771706,-0.121785,0.271701
285,0.026749,9.802941,0.040233,0.006422,0.066402,0.036155,89.771034,-0.123825,0.273972
286,0.024766,9.806289,0.041515,-0.010448,0.063523,0.011139,89.770966,-0.124605,0.276141
287,0.022245,9.806705,0.041348,-0.007823,0.063673,-0.041367,89.770660,-0.124093,0.278259
288,0.024830,9.808051,0.043682,-0.038025,0.068166,-0.003892,89.769890,-0.123330,0.280453
289,0.020689,9.807368,0.040475,0.007621,0.069821,-0.065481,89.769386,-0.122164,0.282748
290,0.020398,9.812820,0.038650,0.051123,0.066714,-0.060882,89.770355,-0.120049,0.285015
291,0.023997,9.817339,0.042441,-0.006359,0.068130,-0.009317,89.771095,-0.118870,0.287258
292,0.027626,9.821149,0.044789,-0.034619,0.074084,0.058661,89.770401,-0.119683,0.289632
293,0.023845,9.818507,0.043521,-0.016116,0.066642,-0.001443,89.769554,-0.120627,0.291981
294,0.025482,9.825377,0.039558,0.038103,0.055748,0.021368,89.769913,-0.120951,0.294022
295,0.025519,9.820159,0.042221,-0.006524,0.051255,0.018271,89.770439,-0.121605,0.295808
296,0.020885,9.813981,0.036969,0.066899,0.045270,-0.044645,89.771439,-0.121159,0.297415
297,0.019423,9.816046,0.036576,0.067209,0.036188,-0.063405,89.773674,-0.119352,0.298766
298,0.024168,9.815175,0.032446,0.121879,0.032732,0.007336,89.776825,-0.118413,0.299911
299,0.024106,9.817170,0.034851,0.086681,0.043501,0.011781,89.780281,-0.118727,0.301182
300,0.026424,9.827424,0.030170,0.136109,0.047832,0.036815,89.783997,-0.119531,0.302708
301,0.025319,9.827416,0.032078,0.105169,0.055611,0.015679,89.788017,-0.120400,0.304435
302,0.023381,9.820742,0.031696,0.109564,0.058788,-0.014485,89.791588,-0.120413,0.306342
303,0.020618,9.816764,0.036114,0.025308,0.069774,-0.053160,89.793831,-0.119277,0.308480
304,0.020990,9.812026,0.039988,-0.024913,0.071399,-0.041693,89.793839,-0.117688,0.310827
305,0.018179,9.806046,0.041276,-0.041071,0.073095,-0.077072,89.792732,-0.115700,0.313229
306,0.021849,9.809374,0.041214,-0.035711,0.063718,-0.020127,89.791451,-0.114072,0.315503
307,0.020823,9.813664,0.041668,-0.040430,0.057657,-0.037265,89.790169,-0.113108,0.317522
308,0.021609,9.820409,0.038655,0.007098,0.037674,-0.022064,89.789619,-0.112113,0.319107
309,0.020208,9.817937,0.038514,-0.003327,0.036207,-0.046032,89.789673,-0.110974,0.320335
310,0.020800,9.817142,0.039853,-0.036821,0.031624,-0.029936,89.789001,-0.109703,0.321460
311,0.018251,9.811387,0.039337,-0.035608,0.037834,-0.059214,89.787788,-0.108213,0.322613
312,0.021943,9.806555,0.037366,-0.016300,0.051293,0.001629,89.786926,-0.107248,0.324094
313,0.018047,9.811019,0.037165,-0.006385,0.053011,-0.052975,89.786552,-0.106386,0.325830
314,0.018544,9.808593,0.038384,-0.027952,0.046904,-0.032815,89.785988,-0.104950,0.327490
315,0.018880,9.810575,0.038024,-0.005904,0.045333,-0.021318,89.785416,-0.104042,0.329024
316,0.018121,9.814164,0.037280,0.009618,0.045343,-0.033275,89.785477,-0.103126,0.330531
317,0.017860,9.812667,0.040291,-0.014731,0.039324,-0.027124,89.785378,-0.102114,0.331939
318,0.016063,9.802055,0.042331,-0.049567,0.039465,-0.035316,89.784302,-0.101069,0.333248
319,0.017291,9.800908,0.041391,-0.027139,0.042410,-0.031517,89.783028,-0.099950,0.334608
320,0.017282,9.799757,0.043202,-0.052047,0.045491,-0.022718,89.781715,-0.099040,0.336070
321,0.014246,9.800066,0.045677,-0.080357,0.045707,-0.073988,89.779503,-0.097423,0.337584
322,0.013285,9.809933,0.044432,-0.068243,0.041125,-0.099462,89.777023,-0.094526,0.339020
323,0.018802,9.811422,0.042721,-0.032415,0.049885,-0.020866,89.775345,-0.092515,0.340529
324,0.013890,9.815950,0.037922,0.035985,0.048497,-0.075433,89.775398,-0.090904,0.342162
325,0.014491,9.815730,0.038054,0.035429,0.046924,-0.070268,89.776588,-0.088469,0.343743
326,0.016701,9.817478,0.032547,0.108370,0.051233,-0.021293,89.778976,-0.086937,0.345373
327,0.018463,9.816953,0.035713,0.054656,0.052727,0.011327,89.781685,-0.086764,0.347105
329,0.016225,9.817876,0.040491,-0.021803,0.056020,-0.016325,89.782227,-0.086674,0.348917
330,0.020873,9.825318,0.043451,-0.053685,0.052777,0.048450,89.780975,-0.087202,0.350732
331,0.021894,9.829181,0.043703,-0.053989,0.049673,0.068030,89.779175,-0.089137,0.352447
332,0.024804,9.829395,0.049660,-0.143985,0.052708,0.101061,89.775879,-0.091949,0.354164
333,0.023518,9.829007,0.047710,-0.108929,0.057328,0.076882,89.771660,-0.094907,0.356010
334,0.022799,9.831652,0.045039,-0.063906,0.051212,0.057435,89.768776,-0.097138,0.357828
335,0.021462,9.825450,0.044064,-0.053617,0.060431,0.032608,89.766823,-0.098632,0.359695
336,0.019635,9.824099,0.038972,0.026963,0.066522,-0.005328,89.766373,-0.099078,0.361813
337,0.020718,9.827814,0.034886,0.100070,0.063304,0.009252,89.768486,-0.099134,0.363977
338,0.021442,9.827248,0.035142,0.091052,0.069384,0.021231,89.771675,-0.099633,0.366190
339,0.026578,9.823595,0.031628,0.147906,0.062914,0.095027,89.775658,-0.101562,0.368403
340,0.024365,9.827511,0.031579,0.152633,0.067659,0.062422,89.780647,-0.104178,0.370589
341,0.020601,9.826425,0.036093,0.065145,0.064989,0.001083,89.784279,-0.105228,0.372804
342,0.020983,9.828908,0.040553,-0.013371,0.065116,0.010070,89.785141,-0.105406,0.374973
343,0.017409,9.827328,0.040612,-0.013454,0.051585,-0.040885,89.784691,-0.104885,0.376916
344,0.016825,9.830143,0.045175,-0.089361,0.060888,-0.048170,89.782974,-0.103394,0.378785
345,0.017451,9.827021,0.046398,-0.109261,0.047128,-0.041348,89.779671,-0.101895,0.380580
346,0.016941,9.826795,0.048800,-0.125377,0.041082,-0.035875,89.775749,-0.100602,0.382045
347,0.016449,9.819913,0.048083,-0.099596,0.034956,-0.045755,89.771996,-0.099236,0.383307
348,0.021849,9.822670,0.044921,-0.045473,0.033004,0.036347,89.769577,-0.099075,0.384439
349,0.017781,9.822936,0.044124,-0.030855,0.025578,-0.022561,89.768295,-0.099301,0.385416
350,0.019543,9.818883,0.042236,0.005673,0.033052,-0.000357,89.767876,-0.098915,0.386392
351,0.025861,9.815145,0.039949,0.038331,0.038719,0.086847,89.768616,-0.100352,0.387593
352,0.025722,9.823473,0.032938,0.128559,0.043145,0.079434,89.771393,-0.103118,0.388969
353,0.023290,9.816103,0.034236,0.099282,0.052517,0.034303,89.775192,-0.105007,0.390571
354,0.023620,9.812827,0.031116,0.136734,0.064661,0.026914,89.779114,-0.106019,0.392528
355,0.025596,9.807288,0.032610,0.100295,0.061569,0.053475,89.783066,-0.107351,0.394637
356,0.022852,9.812607,0.034838,0.055152,0.060293,0.005345,89.785652,-0.108324,0.396671
357,0.023239,9.804049,0.041493,-0.045960,0.057427,0.014989,89.785797,-0.108655,0.398635
358,0.024905,9.810965,0.043918,-0.066075,0.063511,0.041328,89.783928,-0.109586,0.400654
359,0.023456,9.816435,0.047736,-0.110703,0.054540,0.017686,89.780983,-0.110563,0.402625
360,0.020809,9.827083,0.046218,-0.080510,0.050062,-0.025213,89.777794,-0.110430,0.404368
361,0.020190,9.818700,0.047551,-0.089557,0.050117,-0.029067,89.774956,-0.109519,0.406034
362,0.017955,9.811063,0.043671,-0.032500,0.056214,-0.063766,89.772926,-0.107965,0.407800
363,0.017363,9.804169,0.041506,-0.000835,0.040903,-0.071403,89.772362,-0.105706,0.409410
364,0.020540,9.800847,0.040607,0.018050,0.048297,-0.016182,89.772652,-0.104240,0.410891
365,0.023403,9.801371,0.041019,0.017450,0.054233,0.040010,89.773239,-0.104631,0.412601
366,0.023216,9.808104,0.039073,0.044798,0.054199,0.039152,89.774269,-0.105943,0.414413
367,0.024944,9.809559,0.042596,-0.004572,0.052688,0.051933,89.774933,-0.107454,0.416201
368,0.026710,9.813306,0.041053,0.008874,0.061721,0.073838,89.775002,-0.109542,0.418116
369,0.025771,9.813510,0.039469,0.033355,0.060227,0.054947,89.775703,-0.111681,0.420157
370,0.026552,9.812684,0.035869,0.079528,0.052476,0.058023,89.777588,-0.113556,0.422042
371,0.029787,9.815289,0.033392,0.121816,0.052251,0.103545,89.780937,-0.116242,0.423798
372,0.028949,9.821111,0.036015,0.093793,0.052423,0.092036,89.784531,-0.119495,0.425555
373,0.026611,9.819304,0.033566,0.134197,0.057111,0.056024,89.788322,-0.121956,0.427390
374,0.029727,9.820518,0.032415,0.143106,0.050850,0.093790,89.792938,-0.124447,0.429198
375,0.028952,9.821110,0.035774,0.082615,0.051053,0.082387,89.796700,-0.127377,0.430907
376,0.028027,9.820381,0.034071,0.088867,0.054151,0.052486,89.799553,-0.129618,0.432669
377,0.030987,9.815657,0.032930,0.075270,0.052476,0.085739,89.802277,-0.131916,0.434454
378,0.030944,9.815101,0.036546,0.009541,0.046537,0.082495,89.803696,-0.134714,0.436114
379,0.027080,9.811922,0.041786,-0.081379,0.042370,0.014696,89.802490,-0.136329,0.437601
380,0.028417,9.810320,0.042055,-0.088549,0.049950,0.013486,89.799660,-0.136793,0.439141
381,0.026818,9.805225,0.050111,-0.196486,0.041142,-0.004689,89.794907,-0.136935,0.440660
382,0.021660,9.809582,0.054467,-0.234266,0.035429,-0.066794,89.787720,-0.135739,0.441932
383,0.022332,9.806322,0.052559,-0.185744,0.038323,-0.067624,89.780716,-0.133494,0.443153
384,0.020843,9.811405,0.051074,-0.144740,0.044389,-0.082401,89.775208,-0.130988,0.444521
385,0.019552,9.811366,0.049123,-0.094910,0.044336,-0.076687,89.771202,-0.128331,0.445990
386,0.020411,9.814377,0.044673,-0.025901,0.063925,-0.053029,89.769196,-0.126161,0.447785
387,0.022237,9.814914,0.033617,0.134437,0.069531,-0.019452,89.770996,-0.124945,0.450005
388,0.022588,9.823653,0.033966,0.116142,0.067995,0.002158,89.775169,-0.124647,0.452296
389,0.025799,9.818350,0.032589,0.133198,0.067789,0.057570,89.779312,-0.125634,0.454563
390,0.025734,9.820693,0.034873,0.088121,0.077056,0.051039,89.782997,-0.127435,0.456984
391,0.026488,9.819418,0.033684,0.109945,0.064809,0.053032,89.786301,-0.129160,0.459355
392,0.026655,9.819921,0.038386,0.027033,0.066517,0.038954,89.788574,-0.130685,0.461549
393,0.026418,9.818413,0.039711,0.000378,0.063553,0.025664,89.789032,-0.131754,0.463721
394,0.022993,9.816705,0.037724,0.028127,0.068262,-0.029954,89.789505,-0.131675,0.465918
395,0.019549,9.811885,0.040324,-0.005189,0.062432,-0.089030,89.789879,-0.129684,0.468089
396,0.020008,9.813869,0.039725,-0.015611,0.059317,-0.077426,89.789528,-0.126902,0.470107
397,0.019249,9.810231,0.037671,0.027241,0.062313,-0.072304,89.789719,-0.124399,0.472125
398,0.020865,9.807343,0.036501,0.058953,0.065219,-0.042371,89.791145,-0.122480,0.474244
399,0.022438,9.812741,0.038566,0.025528,0.063663,-0.004095,89.792557,-0.121698,0.476389
400,0.025815,9.815568,0.034283,0.077039,0.058774,0.060799,89.794250,-0.122636,0.478433
401,0.024041,9.811940,0.036187,0.049375,0.052842,0.043401,89.796356,-0.124366,0.480300
402,0.023044,9.815061,0.035801,0.037705,0.042229,0.021377,89.797798,-0.125440,0.481888
403,0.025370,9.817452,0.038489,-0.015703,0.040688,0.058666,89.798157,-0.126769,0.483275
404,0.024006,9.821379,0.037732,-0.006884,0.042275,0.020061,89.797783,-0.128076,0.484662
405,0.024851,9.819889,0.038836,-0.031306,0.045329,0.018505,89.797142,-0.128714,0.486124
406,0.024914,9.818125,0.036069,0.010560,0.052867,0.002653,89.796783,-0.129060,0.487762
407,0.027299,9.815172,0.039975,-0.048800,0.060502,0.039776,89.796143,-0.129761,0.489654
408,0.024342,9.816714,0.035579,0.010914,0.051357,-0.002110,89.795517,-0.130382,0.491521
409,0.023984,9.810983,0.032693,0.042118,0.046705,-0.007145,89.796394,-0.130222,0.493154
410,0.021417,9.806854,0.031812,0.055652,0.042235,-0.051718,89.798027,-0.129236,0.494633
411,0.019541,9.811250,0.032973,0.045537,0.056104,-0.076791,89.799706,-0.127088,0.496265
412,0.023459,9.815849,0.030986,0.076676,0.054305,-0.014385,89.801743,-0.125562,0.498100
413,0.020330,9.813717,0.034067,0.032637,0.065242,-0.068371,89.803558,-0.124176,0.500087
414,0.019772,9.817098,0.036219,0.007542,0.066862,-0.074683,89.804222,-0.121784,0.502281
415,0.023060,9.819159,0.039046,-0.035267,0.071345,-0.010118,89.803757,-0.120363,0.504579
416,0.026486,9.820520,0.041274,-0.071130,0.068173,0.049486,89.801979,-0.121011,0.506907
417,0.024368,9.816184,0.042812,-0.092494,0.066796,0.006476,89.799240,-0.121936,0.509160
418,0.028773,9.815243,0.045907,-0.123304,0.052926,0.083775,89.795639,-0.123433,0.511160
419,0.034842,9.809772,0.046029,-0.119570,0.048028,0.173521,89.791588,-0.127715,0.512858
420,0.031924,9.812395,0.046332,-0.107653,0.040577,0.123206,89.787796,-0.132655,0.514353
421,0.031947,9.805505,0.043094,-0.059030,0.022182,0.105473,89.785019,-0.136463,0.515413
422,0.028003,9.809877,0.046387,-0.086215,0.019480,0.051933,89.782593,-0.139084,0.516118
423,0.025341,9.807929,0.041522,-0.010808,0.030151,0.002026,89.780975,-0.139980,0.516948
424,0.025781,9.815877,0.044887,-0.050829,0.040926,0.016599,89.779945,-0.140286,0.518134
425,0.021896,9.815884,0.039875,0.020286,0.036384,-0.048489,89.779434,-0.139749,0.519421
426,0.022120,9.816474,0.040360,0.009935,0.051639,-0.046961,89.779945,-0.138153,0.520882
427,0.024894,9.813683,0.033427,0.108169,0.054278,-0.000866,89.781914,-0.137349,0.522644
428,0.023643,9.812531,0.038348,0.022223,0.054526,-0.027753,89.784081,-0.136865,0.524455
429,0.020479,9.803244,0.033972,0.078685,0.048452,-0.083136,89.785759,-0.135010,0.526165
430,0.022182,9.799796,0.035698,0.052159,0.052988,-0.044358,89.787933,-0.132879,0.527848
