seq,ax,ay,az,wroll,wpitch,wyaw,roll,pitch,yaw,q0,q1,q2,q3
61,-0.116691,-1.932035,9.720602,12.269623,9.631213,-35.447678,-11.241419,0.674578,-0.134074,0.995175,-0.097934,0.005973,-0.000588
62,-0.105364,-1.989696,9.565307,13.401690,12.501459,-38.510212,-11.099378,0.780794,-0.827761,0.995268,-0.096655,0.007480,-0.006531
63,-0.309290,-1.800108,9.725891,14.631620,13.507358,-40.022346,-10.646605,1.023417,-2.194457,0.995481,-0.092585,0.010667,-0.018237
64,-0.444758,-1.612274,10.118002,19.814396,12.375927,-39.764294,-9.955053,1.375344,-3.576054,0.995705,-0.086343,0.014658,-0.030041
65,-0.724622,-1.559147,10.582036,22.003628,11.139698,-35.261036,-9.083633,1.820020,-4.866476,0.995889,-0.078433,0.019179,-0.041060
66,-0.855216,-1.418848,10.598138,20.913597,9.844383,-28.459667,-8.207331,2.356569,-5.958828,0.995954,-0.070383,0.024202,-0.050363
67,-0.791670,-1.353313,10.761696,15.244088,8.356582,-23.135452,-7.479293,2.844553,-6.842289,0.995882,-0.063608,0.028615,-0.057913
68,-0.738335,-1.432978,10.740074,11.884307,6.889588,-18.691816,-7.003973,3.199924,-7.562028,0.995684,-0.059089,0.031835,-0.064093
69,-0.711840,-1.430583,10.524127,7.620587,5.529023,-14.423747,-6.769177,3.451519,-8.138109,0.995414,-0.056729,0.034175,-0.069029
70,-0.627730,-1.312937,10.186888,2.680730,4.654896,-11.954798,-6.713081,3.613660,-8.600416,0.995118,-0.055995,0.035775,-0.072976
71,-0.680348,-1.293101,9.782445,-2.140130,3.336624,-10.300707,-6.821419,3.727208,-8.991027,0.994783,-0.056734,0.037023,-0.076272
72,-0.755642,-1.338343,9.607059,-6.146323,0.564373,-7.949255,-7.108343,3.825248,-9.310005,0.994398,-0.059050,0.038230,-0.078892
73,-0.705413,-1.176292,9.102567,-7.900063,-1.742393,-7.697454,-7.450563,3.859028,-9.573256,0.994025,-0.061906,0.038900,-0.081042
74,-0.471030,-1.324735,8.917013,-12.202064,-4.188546,-6.014401,-7.883345,3.710713,-9.792855,0.993663,-0.065697,0.038046,-0.082891
75,-0.090987,-1.526239,8.903411,-10.294076,-7.235605,-2.445504,-8.454641,3.235458,-9.916419,0.993331,-0.070975,0.034417,-0.084086
76,0.231222,-1.516809,9.125296,-4.224885,-9.977203,-0.768942,-8.885280,2.424099,-9.934194,0.993171,-0.075327,0.027715,-0.084672
77,0.289270,-1.404640,9.129823,2.020446,-11.045222,-0.941832,-8.977170,1.481826,-9.909277,0.993212,-0.076848,0.019602,-0.085087
78,0.250578,-1.479230,9.424767,3.863830,-12.518584,0.913323,-8.864934,0.613882,-9.849096,0.993350,-0.076539,0.011956,-0.085173
79,0.079044,-1.374638,9.523958,5.808095,-13.485835,2.867826,-8.655726,-0.076117,-9.721258,0.993558,-0.075248,0.005734,-0.084541
80,-0.050541,-1.317621,9.611731,3.447989,-13.690545,4.772146,-8.402233,-0.552474,-9.528461,0.993826,-0.073403,0.001293,-0.083184
81,-0.048328,-1.279517,9.646266,-1.768583,-13.471938,9.894734,-8.264860,-0.884138,-9.221433,0.994098,-0.072445,-0.001878,-0.080728
82,0.131828,-1.289215,9.563278,-6.454223,-13.602856,17.527452,-8.315567,-1.202040,-8.704978,0.994379,-0.073084,-0.004930,-0.076447
83,0.310110,-1.470027,9.700450,-9.444942,-12.661528,24.809141,-8.579813,-1.564965,-7.942513,0.994640,-0.075560,-0.008405,-0.070075
84,0.432547,-1.554067,9.747574,-10.670519,-11.528277,30.519087,-8.996578,-1.925749,-6.967221,0.994857,-0.079291,-0.011957,-0.061883
85,0.345853,-1.565529,9.692645,-14.134589,-11.389761,36.077988,-9.495200,-2.193453,-5.807608,0.995027,-0.083611,-0.014858,-0.052058
86,0.162453,-1.623680,9.801761,-17.957062,-12.585703,41.214317,-10.087803,-2.290456,-4.469376,0.995103,-0.088611,-0.016467,-0.040590
87,-0.097008,-1.939502,9.969626,-20.263012,-14.133177,45.996815,-10.838658,-2.191491,-2.958510,0.994970,-0.094887,-0.016594,-0.027500
88,-0.120451,-2.024655,9.752857,-21.704088,-15.715216,48.612617,-11.717917,-1.989273,-1.314627,0.994541,-0.102256,-0.016096,-0.013182
89,-0.088902,-2.211907,9.632400,-23.226135,-17.060852,50.383068,-12.664226,-1.815763,0.412968,0.993774,-0.110220,-0.016146,0.001834
90,0.018012,-2.377252,9.492533,-21.466087,-16.476582,49.762337,-13.636884,-1.699254,2.166119,0.992674,-0.118411,-0.016965,0.017006
91,0.127648,-2.576341,9.312304,-21.508362,-14.432515,46.202583,-14.616811,-1.631783,3.845990,0.991277,-0.126652,-0.018384,0.031470
92,0.372529,-2.560997,9.221636,-21.968575,-11.534676,40.692516,-15.566771,-1.649084,5.361053,0.989692,-0.134599,-0.020575,0.044385
93,0.415154,-2.595179,9.344919,-22.756239,-8.857128,34.672626,-16.408054,-1.723035,6.665059,0.988105,-0.141576,-0.023151,0.055387
94,0.211519,-2.578586,9.564959,-22.821400,-6.495090,26.827808,-17.107973,-1.692579,7.718753,0.986674,-0.147405,-0.024583,0.064360
95,-0.058215,-2.613634,9.567256,-21.440912,-4.522779,19.801136,-17.657192,-1.467243,8.508286,0.985494,-0.152105,-0.024001,0.071336
96,-0.292026,-2.532925,9.396172,-18.877419,-2.116253,13.310333,-18.047770,-1.056021,9.057401,0.984612,-0.155631,-0.021457,0.076537
97,-0.540967,-2.631063,9.406825,-16.644855,1.076817,6.215503,-18.311180,-0.477447,9.362369,0.984012,-0.158248,-0.017085,0.079910
98,-0.800140,-2.825948,9.424027,-10.574906,4.951054,-1.239216,-18.495804,0.266851,9.403340,0.983648,-0.160354,-0.010882,0.081275
99,-0.798880,-2.868787,9.317625,-7.207716,9.640185,-7.702035,-18.594898,1.085611,9.182808,0.983529,-0.161783,-0.003613,0.080520
100,-0.866812,-3.143507,9.497546,-7.407062,14.782118,-14.389283,-18.739983,1.905218,8.703291,0.983472,-0.163562,0.004004,0.077554
101,-0.867412,-3.411859,9.485869,-5.657077,17.874292,-19.724722,-19.036617,2.694314,7.984580,0.983297,-0.166530,0.011620,0.072523
102,-0.770953,-3.383665,9.323791,-7.061577,18.628082,-22.020750,-19.423397,3.356881,7.118654,0.983039,-0.170085,0.018347,0.066098
103,-0.607209,-3.252044,8.952777,-12.895670,17.450722,-21.802343,-19.907963,3.813305,6.220372,0.982640,-0.174285,0.023349,0.059153
104,-0.454170,-3.463772,8.895555,-17.756374,14.085819,-20.058338,-20.602818,4.011306,5.373630,0.981904,-0.180135,0.026018,0.052344
105,-0.082767,-3.351045,8.703082,-20.254921,9.231956,-18.749670,-21.408318,3.835607,4.623194,0.980999,-0.186809,0.025369,0.045821
106,0.074406,-3.437239,8.831216,-23.930979,5.602413,-17.522238,-22.205357,3.321721,3.973514,0.980088,-0.193357,0.021751,0.039583
107,0.161916,-3.747948,8.981505,-22.223570,1.994007,-15.881405,-23.023378,2.654303,3.416893,0.979048,-0.200102,0.016737,0.033826
108,0.235825,-3.789783,9.377228,-16.566774,-1.676862,-14.475554,-23.649740,1.908204,2.958308,0.978229,-0.205245,0.011004,0.028673
109,0.288979,-3.820977,9.567213,-6.995206,-4.911082,-12.074703,-23.858660,1.129971,2.607856,0.978056,-0.206861,0.004942,0.024301
110,0.174914,-3.789356,9.608330,0.396253,-8.437696,-7.575468,-23.690498,0.420634,2.404635,0.978468,-0.205298,-0.000715,0.021289
111,0.269164,-3.877106,9.583613,4.723584,-11.980599,-1.486022,-23.338465,-0.218802,2.404052,0.979122,-0.202177,-0.006113,0.020158
112,0.417610,-3.871251,9.497965,7.368954,-14.676614,3.753474,-22.950230,-0.880526,2.612182,0.979763,-0.198713,-0.012063,0.020809
113,0.348287,-3.835298,9.097399,3.362292,-17.093151,8.164495,-22.695652,-1.508133,2.998890,0.980098,-0.196343,-0.018047,0.023065
114,0.307289,-4.027235,8.582196,-3.987347,-17.501038,11.847905,-22.878788,-2.009464,3.534260,0.979626,-0.197676,-0.023294,0.026744
115,0.310420,-4.270913,8.391102,-8.866381,-15.570843,13.291464,-23.551472,-2.365701,4.151703,0.978256,-0.203172,-0.027586,0.031242
116,0.326790,-4.239364,8.448443,-9.871306,-12.396799,12.151747,-24.367752,-2.585502,4.747240,0.976585,-0.209902,-0.030772,0.035715
117,0.357271,-4.288500,8.512615,-10.614725,-7.597547,9.130596,-25.094652,-2.684949,5.224363,0.975067,-0.215918,-0.032743,0.039390
118,0.294230,-4.664191,8.821316,-6.945060,-0.773209,5.399981,-25.742973,-2.611358,5.518289,0.973734,-0.221380,-0.032909,0.041846
119,0.186211,-4.432672,9.075727,-1.855592,5.155757,0.792095,-26.096142,-2.330346,5.587818,0.973046,-0.224488,-0.030789,0.042890
120,0.138562,-4.204786,9.243276,2.931686,9.191243,-2.276105,-25.983484,-1.919424,5.456992,0.973341,-0.223747,-0.027002,0.042617
121,-0.077267,-4.058708,9.219738,8.089073,12.271750,-4.492746,-25.535036,-1.385893,5.192007,0.974324,-0.220218,-0.021792,0.041500
122,-0.448945,-3.783865,9.246696,12.984547,13.839266,-5.759923,-24.811310,-0.643983,4.845997,0.975814,-0.214404,-0.014566,0.040083
123,-0.427179,-3.454525,9.149440,16.695009,13.369913,-5.240139,-23.822502,0.166881,4.491395,0.977704,-0.206293,-0.006664,0.038641
124,-0.386761,-3.443592,9.222328,17.252934,12.051579,-4.555815,-22.762119,0.839889,4.179010,0.979606,-0.197459,-0.000014,0.037188
125,-0.345642,-3.410851,9.231915,15.594668,11.042405,-3.658125,-21.831484,1.360931,3.913985,0.981188,-0.189640,0.005188,0.035777
126,-0.393031,-3.372772,9.332911,11.149603,9.375200,-2.466088,-21.095428,1.778790,3.702202,0.982380,-0.183430,0.009340,0.034592
127,-0.261927,-3.205150,9.278023,7.585525,7.351928,-0.766101,-20.385738,2.047584,3.565424,0.983486,-0.177395,0.012073,0.033774
128,-0.126960,-3.236566,9.293318,1.967689,5.622057,0.727482,-19.799576,2.042834,3.503551,0.984399,-0.172355,0.012298,0.033173
129,-0.011326,-3.243825,9.337971,-3.115478,4.605245,1.358506,-19.575785,1.777058,3.485322,0.984789,-0.170367,0.010105,0.032599
130,0.156041,-3.283720,9.265546,-4.416643,3.470919,-0.436714,-19.612276,1.466425,3.457223,0.984795,-0.170604,0.007467,0.031901
131,0.537900,-3.367708,9.158072,-5.202666,0.868451,-1.237119,-19.808094,1.038290,3.406794,0.984575,-0.172181,0.003809,0.030839
132,0.709062,-3.670981,9.327937,-7.887517,-2.032319,-2.613082,-20.176594,0.351869,3.353207,0.984097,-0.175178,-0.002103,0.029343
133,0.620962,-3.511979,9.474668,-5.606869,-4.197352,-5.032701,-20.523499,-0.385950,3.271959,0.983615,-0.177977,-0.008399,0.027493
134,0.648173,-3.482515,9.351215,-1.712728,-6.151260,-5.106779,-20.648617,-1.086319,3.175979,0.983434,-0.178884,-0.014289,0.025564
135,0.485186,-3.643416,9.219937,-1.560407,-8.424940,-3.169440,-20.756475,-1.698549,3.134483,0.983237,-0.179660,-0.019501,0.024231
136,-0.028603,-3.552150,9.043265,-1.618927,-9.248896,-0.767603,-20.917536,-1.987117,3.180888,0.982947,-0.180957,-0.022083,0.024143
137,-0.238606,-3.570842,8.753667,-1.326602,-8.488869,3.714688,-21.102509,-1.892364,3.336354,0.982629,-0.182540,-0.021557,0.025592
138,-0.186762,-3.911458,8.648396,-3.096651,-7.466037,8.056764,-21.485178,-1.639172,3.623834,0.981967,-0.185840,-0.019939,0.028396
139,-0.173253,-4.037521,8.675446,-4.420334,-6.582310,10.424226,-22.067030,-1.362976,4.007156,0.980926,-0.190844,-0.018358,0.032038
140,-0.017980,-4.140742,8.938910,-4.494137,-4.514946,11.105350,-22.641418,-1.121605,4.417246,0.979843,-0.195775,-0.017155,0.035867
141,0.219481,-4.264007,9.055090,-2.402354,-1.871647,9.268337,-23.120296,-0.998989,4.777886,0.978899,-0.199859,-0.016886,0.039090
142,0.326717,-4.203392,9.194026,-0.651932,0.473387,5.638056,-23.443502,-0.988016,5.020504,0.978247,-0.202587,-0.017332,0.041133
143,0.259540,-4.061953,9.148976,1.266868,1.997216,2.750775,-23.598017,-1.017579,5.135552,0.977931,-0.203876,-0.017844,0.042039
144,0.017665,-3.981544,9.125602,3.466939,3.323498,0.315515,-23.582048,-0.860030,5.148154,0.977953,-0.203801,-0.016516,0.042430
145,-0.272225,-3.543524,8.994601,4.913393,4.379991,-1.670355,-23.161032,-0.299465,5.074024,0.978703,-0.200434,-0.011444,0.042839
147,-0.221393,-3.647693,8.953952,4.785738,3.482202,-1.196259,-22.589609,0.347049,4.979699,0.979676,-0.195800,-0.005541,0.043193
148,-0.338115,-3.628303,9.068435,4.382553,2.048300,-1.190840,-22.200434,0.849894,4.911247,0.980303,-0.192655,-0.000977,0.043469
149,-0.290425,-3.591839,9.144167,3.338319,0.678016,-0.927740,-21.867563,1.209245,4.865985,0.980822,-0.189933,0.002300,0.043678
150,0.002637,-3.645086,9.319397,1.042643,-0.616210,-0.679092,-21.626909,1.149503,4.844337,0.981237,-0.187851,0.001916,0.043390
151,0.247258,-3.829867,9.405846,-0.100115,-2.564838,-0.850609,-21.579033,0.758043,4.840373,0.981372,-0.187305,-0.001413,0.042717
152,0.274780,-3.601668,9.427263,-0.277075,-3.152299,-2.400021,-21.576017,0.325495,4.824983,0.981429,-0.187127,-0.005091,0.041881
153,0.473946,-3.561336,9.340165,-1.358498,-3.773486,-2.492228,-21.511814,-0.168839,4.792034,0.981583,-0.186401,-0.009248,0.040797
154,0.372657,-3.735320,9.250284,-1.398097,-3.942892,-4.075224,-21.542238,-0.662542,4.737675,0.981570,-0.186489,-0.013399,0.039524
155,0.018818,-3.499849,9.019783,-1.213507,-3.120858,-5.708138,-21.593794,-0.926579,4.629431,0.981525,-0.186848,-0.015502,0.038159
156,-0.234461,-3.462129,8.980757,-2.966514,-1.784781,-4.973819,-21.604986,-0.876607,4.493093,0.981552,-0.186980,-0.014855,0.037071
157,-0.373328,-3.572693,9.078632,-3.935265,-1.389422,-2.742259,-21.676420,-0.614030,4.392130,0.981465,-0.187694,-0.012464,0.036628
158,-0.385238,-3.647859,9.063409,-1.596145,-0.831257,-1.573841,-21.793064,-0.087868,4.338363,0.981272,-0.188872,-0.007907,0.037023
159,-0.352606,-3.552351,9.119088,-0.755185,0.328505,0.520968,-21.797455,0.567365,4.324719,0.981216,-0.189120,-0.002276,0.037986
160,-0.169150,-3.693891,9.232404,0.703933,0.653585,1.914771,-21.731247,0.938676,4.356740,0.981271,-0.188669,0.000874,0.038871
161,-0.064594,-3.637073,9.216093,3.275176,0.708594,3.254565,-21.651970,1.008239,4.428680,0.981367,-0.188013,0.001378,0.039600
162,0.044435,-3.563314,9.180061,4.372528,1.950130,3.399306,-21.480860,0.968083,4.516077,0.981622,-0.186536,0.000951,0.040282
163,-0.169737,-3.517472,9.079667,4.578775,2.827152,4.226209,-21.280661,1.006135,4.605882,0.981909,-0.184834,0.001203,0.041111
164,-0.215432,-3.319172,9.018365,4.448362,3.027225,6.292397,-20.964119,1.199471,4.737156,0.982339,-0.182188,0.002765,0.042538
165,-0.183219,-3.245207,8.971902,2.818224,2.084338,10.758855,-20.622448,1.410444,4.976998,0.982752,-0.179338,0.004327,0.044915
166,-0.239653,-3.145146,9.040054,1.102396,-0.062669,14.256285,-20.379467,1.583223,5.359607,0.982943,-0.177334,0.005313,0.048454
167,-0.269616,-2.975631,9.014171,0.458112,-2.162332,17.392097,-20.102169,1.735570,5.873806,0.983111,-0.175041,0.005952,0.053084
168,-0.153350,-2.760778,9.234130,-2.143263,-3.458104,18.563972,-19.740856,1.799894,6.480149,0.983350,-0.172000,0.005762,0.058364
169,0.036742,-2.370918,9.211002,-1.706983,-3.517008,15.058684,-19.204218,1.687967,7.064428,0.983859,-0.167365,0.004220,0.063192
170,0.154275,-2.353571,9.223699,-0.214288,-2.740274,9.407767,-18.546238,1.412400,7.501958,0.984612,-0.161579,0.001597,0.066542
171,0.357988,-2.388810,9.016839,1.268721,-1.271268,3.247013,-17.951847,1.000261,7.734925,0.985375,-0.156240,-0.001921,0.067979
172,0.389956,-2.384832,9.015602,1.881368,0.591183,-3.815653,-17.444181,0.519895,7.734796,0.986128,-0.151598,-0.005754,0.067353
173,0.290364,-2.471408,8.921812,3.891183,0.667186,-5.551188,-17.009754,0.112966,7.580898,0.986830,-0.147634,-0.008804,0.065526
174,0.232439,-3.135035,9.164518,2.535565,-1.148825,-1.866596,-17.021841,-0.283653,7.464549,0.986911,-0.147524,-0.012077,0.064012
175,0.366770,-3.273127,9.272717,2.004733,-1.817785,-0.951687,-17.518080,-0.790296,7.438140,0.986301,-0.151513,-0.016679,0.063058
176,0.158819,-3.445654,9.589160,1.462196,-2.288989,0.634920,-17.932713,-1.110952,7.460734,0.985739,-0.154894,-0.019696,0.062755
177,0.299037,-3.916174,9.945512,1.579284,-2.499767,4.622134,-18.271034,-1.199414,7.575872,0.985215,-0.157732,-0.020800,0.063564
178,0.561835,-4.116836,9.940145,2.295404,-0.803678,1.649443,-18.727406,-1.370879,7.703800,0.984507,-0.161529,-0.022706,0.064336
179,0.399695,-4.155776,9.839204,2.288034,0.936571,-3.033833,-19.209438,-1.547291,7.695327,0.983821,-0.165565,-0.024478,0.063909
180,0.048234,-4.297346,9.810142,1.831966,1.533343,-4.317008,-19.711296,-1.515082,7.581125,0.983151,-0.169916,-0.024312,0.062870
181,0.079311,-4.290539,9.630539,1.850417,1.941482,-5.047592,-20.228632,-1.356171,7.429023,0.982457,-0.174477,-0.023002,0.061700
182,-0.070395,-4.169508,9.149146,1.269237,1.566968,-7.497836,-20.742949,-1.185545,7.225439,0.981771,-0.179021,-0.021500,0.060120
183,-0.277424,-4.205760,8.853255,0.874099,0.727582,-6.422991,-21.298172,-0.929223,7.005807,0.981001,-0.183955,-0.019245,0.058549
184,-0.284613,-4.111178,8.783495,-0.071736,0.173809,-5.036755,-21.845037,-0.624874,6.829758,0.980188,-0.188823,-0.016631,0.057454
185,-0.246164,-3.982655,8.699059,-0.995572,-0.671632,-3.739114,-22.297155,-0.373853,6.700547,0.979484,-0.192835,-0.014495,0.056707
186,-0.158652,-4.033353,8.783913,-1.780865,-1.329379,-2.136281,-22.841938,-0.127229,6.624362,0.978574,-0.197622,-0.012527,0.056413
187,-0.167156,-3.948955,8.928886,-2.378230,-1.990145,-0.359474,-23.362125,0.128350,6.606967,0.977649,-0.202190,-0.010572,0.056658
188,-0.125802,-3.939022,9.175077,-5.075175,-2.740039,-0.459818,-23.613310,0.237837,6.624566,0.977182,-0.204385,-0.009794,0.056980
189,0.095317,-3.950657,8.866051,-4.411489,-2.544783,-1.546307,-23.789862,0.129936,6.629026,0.976876,-0.205837,-0.010809,0.056809
190,0.143579,-4.062462,9.058665,-6.223019,-2.107379,-1.833416,-24.018358,-0.081018,6.609114,0.976496,-0.207683,-0.012684,0.056235
191,0.095004,-4.068400,9.057919,-4.460754,-0.891650,-3.026883,-24.231846,-0.254778,6.556028,0.976150,-0.209422,-0.014172,0.055441
192,0.137598,-4.083735,9.062101,-2.500005,0.598872,-5.610412,-24.360189,-0.385451,6.427052,0.975986,-0.210468,-0.015110,0.054086
193,0.101265,-4.017664,9.107321,0.892303,1.730886,-5.479284,-24.350340,-0.475297,6.242465,0.976097,-0.210366,-0.015532,0.052350
194,-0.042923,-4.068365,9.344622,4.014807,1.811920,-3.474149,-24.175354,-0.448101,6.081461,0.976488,-0.208909,-0.014926,0.051052
195,-0.100021,-3.931197,9.175165,9.139793,2.008081,-2.083661,-23.769678,-0.243441,5.970223,0.977256,-0.205557,-0.012801,0.050523
196,-0.139625,-3.803048,9.134865,9.571536,1.580562,-1.191967,-23.171335,0.066298,5.897019,0.978323,-0.200596,-0.009765,0.050506
197,-0.182924,-3.770047,9.146052,10.654707,0.985177,2.124410,-22.576149,0.384402,5.897089,0.979318,-0.195651,-0.006783,0.051099
198,-0.209740,-3.518711,9.061351,11.641870,0.664336,3.798835,-21.920780,0.693290,5.982103,0.980343,-0.190178,-0.003989,0.052376
199,-0.144251,-3.356349,9.168444,9.895272,0.448267,5.868265,-21.137545,0.903669,6.131701,0.981521,-0.183562,-0.002068,0.054019
200,-0.077172,-3.343200,9.218554,8.733003,0.242071,7.383464,-20.421522,0.952915,6.339934,0.982541,-0.177445,-0.001631,0.055892
201,0.011293,-3.301697,9.253802,7.538003,0.148063,8.449759,-19.881330,0.853894,6.588256,0.983258,-0.172760,-0.002592,0.057882
202,0.034753,-3.142303,9.215416,4.862755,0.230683,8.649197,-19.426088,0.678883,6.856182,0.983824,-0.168758,-0.004259,0.059935
203,0.112166,-3.398993,9.159698,1.395932,0.302423,8.882130,-19.303078,0.464875,7.128070,0.983889,-0.167579,-0.006430,0.061962
204,0.054117,-3.366620,9.120732,-0.470009,0.415538,6.844539,-19.538048,0.281010,7.369297,0.983433,-0.169481,-0.008493,0.063748
205,0.007291,-3.339562,9.056194,-2.743219,0.561332,5.222228,-19.812189,0.216387,7.552566,0.982929,-0.171783,-0.009474,0.065203
206,0.015403,-3.460585,9.035657,-4.527876,0.255848,4.160073,-20.102924,0.218856,7.694584,0.982408,-0.174265,-0.009834,0.066400
207,0.012626,-3.617881,9.118517,-4.824800,0.277025,2.588299,-20.437222,0.226172,7.796571,0.981835,-0.177126,-0.010123,0.067256
208,0.010818,-3.637269,9.164321,-3.888798,0.020488,0.715918,-20.765503,0.211471,7.845875,0.981297,-0.179925,-0.010519,0.067626
209,-0.016291,-3.759951,9.169538,-3.972111,-0.103238,-0.344651,-21.079227,0.185342,7.851615,0.980800,-0.182595,-0.010937,0.067605
210,-0.013078,-3.843051,9.075557,-4.556149,-0.390181,-0.935215,-21.448145,0.154865,7.834037,0.980222,-0.185735,-0.011387,0.067369
211,-0.058846,-3.825491,9.133009,-5.614665,-0.620570,-1.479963,-21.827696,0.129466,7.802218,0.979623,-0.188969,-0.011774,0.067017
212,-0.056739,-3.755436,9.159996,-5.804460,-0.818821,-1.533325,-22.134352,0.114073,7.764195,0.979138,-0.191585,-0.012022,0.066635
213,-0.066905,-3.644902,9.234868,-5.406150,-0.563846,-1.273859,-22.312550,0.106449,7.729484,0.978860,-0.193107,-0.012132,0.066307
214,-0.026841,-3.652246,9.206329,-4.935743,-0.405051,-0.629877,-22.400324,0.100847,7.706376,0.978725,-0.193856,-0.012191,0.066091
215,0.049015,-3.533354,9.259124,-4.477237,0.342549,-1.833873,-22.411480,0.061873,7.669065,0.978733,-0.193933,-0.012468,0.065705
216,0.123830,-3.525704,9.165147,-3.739253,1.793344,-3.535427,-22.356255,-0.017176,7.572997,0.978890,-0.193427,-0.012949,0.064757
217,0.136519,-3.650122,9.095294,-4.757952,2.922046,-5.375891,-22.373713,-0.105363,7.405799,0.978963,-0.193546,-0.013430,0.063178
218,0.134008,-3.590649,9.034979,-6.335361,3.840202,-7.950313,-22.478687,-0.183645,7.157537,0.978927,-0.194429,-0.013735,0.060912
219,0.040380,-3.518329,9.065045,-7.235004,4.827248,-9.793728,-22.572655,-0.212739,6.828798,0.978941,-0.195256,-0.013473,0.058043
220,-0.056564,-3.535491,9.207929,-9.426812,4.825873,-10.021031,-22.660311,-0.158720,6.461419,0.978968,-0.196073,-0.012428,0.054987
221,-0.052202,-3.504221,9.224323,-10.568590,3.808390,-10.680106,-22.764389,-0.092350,6.086760,0.978958,-0.197032,-0.011267,0.051889
222,-0.117918,-3.297221,9.248315,-9.585752,3.271648,-11.325415,-22.766527,-0.042662,5.702166,0.979119,-0.197109,-0.010182,0.048688
223,-0.165434,-3.438541,9.257181,-10.519301,2.779322,-11.302298,-22.732990,0.023514,5.314981,0.979330,-0.196881,-0.008937,0.045496
224,-0.063908,-3.322360,9.115233,-10.992167,2.259399,-12.622049,-22.752131,0.037121,4.914742,0.979449,-0.197080,-0.008140,0.042098
225,-0.025232,-3.421142,8.876367,-13.688541,2.743261,-13.330018,-22.871422,-0.022441,4.483821,0.979399,-0.198109,-0.007948,0.038303
226,-0.143984,-3.490059,8.797492,-18.816208,2.992297,-11.503354,-23.219179,-0.029448,4.065394,0.978927,-0.201106,-0.007390,0.034692
227,-0.162180,-3.740715,8.936927,-25.764694,2.690741,-7.930915,-23.846445,0.053303,3.729633,0.977904,-0.206506,-0.006268,0.031935
228,-0.108933,-4.234150,8.876986,-30.818939,1.443015,-2.939408,-24.866314,0.145580,3.534431,0.976074,-0.215236,-0.005400,0.030389
229,-0.201189,-4.417499,9.109273,-29.698269,0.360086,2.331355,-26.052105,0.272686,3.510188,0.973792,-0.225359,-0.004586,0.030375
230,-0.285313,-4.437881,9.272882,-21.098331,-2.059337,8.778721,-26.932686,0.483432,3.686260,0.971964,-0.232883,-0.003389,0.032261
231,-0.318506,-4.603288,9.293271,-8.344295,-3.955290,14.571522,-27.348715,0.743943,4.077172,0.970965,-0.236473,-0.002105,0.036097
232,-0.131223,-4.760735,8.894197,3.313698,-5.845532,18.107281,-27.439676,0.934075,4.635162,0.970562,-0.237293,-0.001678,0.041215
233,-0.154319,-4.415522,8.928159,11.738438,-7.171575,20.806641,-27.156488,1.035456,5.311634,0.970868,-0.234918,-0.002104,0.047158
234,-0.060323,-4.491952,8.756519,14.606026,-7.707394,23.974356,-26.628029,1.102425,6.090625,0.971586,-0.230449,-0.002885,0.053908
235,0.147751,-4.494298,8.632809,12.408401,-6.226509,23.178942,-26.220938,1.067343,6.895717,0.972002,-0.226954,-0.004586,0.060679
236,0.190394,-4.541152,8.639597,6.345107,-3.774055,22.239870,-26.053905,0.974453,7.644596,0.971934,-0.225452,-0.006759,0.066857
237,0.002310,-4.318548,9.021634,3.447031,-1.473904,19.453058,-25.948122,0.989483,8.305654,0.971737,-0.224521,-0.007866,0.072499
238,-0.033213,-4.187316,9.012008,7.030404,0.332252,15.583057,-25.663404,1.107254,8.840977,0.971915,-0.222143,-0.007724,0.077287
239,0.039039,-4.323539,8.989174,12.260085,2.776143,9.970402,-25.267641,1.194882,9.203710,0.972406,-0.218819,-0.007405,0.080558
240,-0.055560,-4.210020,9.089621,12.020784,3.948648,2.557019,-24.806179,1.178894,9.345229,0.973183,-0.214881,-0.007482,0.081759
241,-0.096254,-3.929651,9.118835,15.744817,5.377716,-5.074456,-24.190630,1.144180,9.244106,0.974403,-0.209633,-0.007153,0.080875
242,-0.093540,-3.890871,8.895142,12.544111,5.717624,-11.669662,-23.588505,1.118915,8.915794,0.975725,-0.204513,-0.006357,0.078072
243,-0.266291,-4.058564,8.970845,11.298894,7.856923,-14.929063,-23.213472,1.139254,8.418439,0.976714,-0.201355,-0.005054,0.073889
244,-0.316574,-3.844144,9.049206,13.264099,6.808961,-19.250338,-22.854124,1.216654,7.798011,0.977711,-0.198358,-0.003088,0.068745
245,-0.083320,-3.821852,8.985663,20.014795,2.678274,-23.756395,-22.313248,1.086029,7.075727,0.979075,-0.193688,-0.002659,0.062370
246,-0.407970,-3.635882,9.125027,27.426350,1.381411,-21.546783,-21.507944,0.904862,6.350616,0.980817,-0.186730,-0.002590,0.055888
247,-0.280907,-3.524469,9.115624,36.473881,0.525993,-16.373638,-20.388769,0.844853,5.752110,0.982881,-0.177125,-0.001633,0.050685
248,0.122878,-3.464459,9.239577,34.635208,-1.848604,-14.904259,-19.196157,0.593930,5.269814,0.984906,-0.166792,-0.002560,0.046191
250,-0.155710,-3.478811,9.382051,30.522402,-1.044833,-9.923791,-18.200512,0.331679,4.890541,0.986490,-0.158140,-0.003893,0.042585
251,-0.465296,-3.337967,9.433104,28.472273,2.146711,-1.683527,-17.381020,0.465369,4.700495,0.987654,-0.151133,-0.002185,0.041150
252,-0.324897,-3.357108,9.356646,21.999611,0.600610,2.011113,-16.782806,0.760231,4.693180,0.988403,-0.146078,0.000583,0.041472
253,-0.307439,-3.214751,9.412785,20.513409,-0.602570,4.886179,-16.367846,0.954328,4.801783,0.988863,-0.142567,0.002273,0.042648
254,-0.449783,-3.071382,9.400348,20.634216,-0.722263,7.314161,-15.931489,1.167160,5.000738,0.989295,-0.138882,0.004032,0.044613
255,-0.218291,-2.766578,9.434084,18.234751,-2.595535,9.035556,-15.420115,1.304599,5.276907,0.989775,-0.134529,0.005094,0.047140
256,-0.127932,-2.512979,9.488032,17.976927,-4.071251,10.587384,-14.797540,1.252401,5.622218,0.990352,-0.129143,0.004510,0.050038
257,0.188527,-2.542282,9.475526,16.802088,-3.664767,6.616680,-14.187631,1.005296,5.931419,0.990922,-0.123775,0.002305,0.052422
258,0.040660,-2.750224,9.535507,14.221039,-1.782930,1.867686,-13.809949,0.711893,6.086015,0.991288,-0.120379,-0.000223,0.053445
259,-0.077849,-2.531273,9.328956,14.386273,-0.779349,0.034912,-13.550862,0.578583,6.122858,0.991555,-0.118076,-0.001294,0.053628
260,-0.227643,-2.439475,9.284330,12.439482,0.153419,-1.390213,-13.351450,0.650464,6.100572,0.991762,-0.116383,-0.000556,0.053510
261,-0.459554,-2.556304,9.355950,7.559034,0.768690,-1.650729,-13.432078,1.032604,6.043161,0.991661,-0.117253,0.002772,0.053401
262,-0.625797,-2.584728,9.340226,4.216821,-0.709251,3.740863,-13.627698,1.494062,6.070044,0.991378,-0.119153,0.006646,0.054113
263,-0.450583,-2.422387,9.376286,-0.118056,-2.723371,8.332736,-13.803391,1.819525,6.272688,0.991037,-0.120834,0.009165,0.056214
264,-0.434685,-2.357095,9.484512,-3.495550,-3.521960,10.298353,-13.977458,1.997459,6.595096,0.990654,-0.122449,0.010274,0.059203
265,-0.347941,-2.526437,9.547094,-6.985674,-4.135136,11.198697,-14.205617,2.010658,6.971308,0.990206,-0.124461,0.009862,0.062488
266,-0.175034,-2.682754,9.470462,-8.239276,-4.187324,11.975286,-14.609190,1.907842,7.374566,0.989558,-0.127925,0.008303,0.065892
267,0.040101,-2.605073,9.557331,-7.687641,-2.595262,9.255801,-15.013003,1.680399,7.741658,0.988933,-0.131308,0.005687,0.068833
268,-0.030816,-2.516746,9.567407,-8.459879,-1.467249,6.366911,-15.299092,1.440363,8.011321,0.988485,-0.133648,0.003129,0.070897
269,-0.028058,-2.588241,9.605100,-9.714025,-0.851671,5.062007,-15.564497,1.268453,8.207114,0.988082,-0.135838,0.001250,0.072391
270,0.031597,-2.462258,9.515512,-9.564060,0.133196,3.018560,-15.798022,1.111324,8.342773,0.987745,-0.137756,-0.000416,0.073376
271,0.061973,-2.401827,9.553760,-11.287440,1.034075,1.315382,-15.961534,0.954925,8.411304,0.987529,-0.139067,-0.001951,0.073778
272,-0.125178,-2.467378,9.578955,-14.141380,1.946029,-0.209153,-16.171751,0.894410,8.419622,0.987276,-0.140841,-0.002619,0.073772
273,-0.184609,-2.504120,9.579890,-14.178515,2.625042,-1.112490,-16.441801,0.957685,8.380518,0.986957,-0.143207,-0.002198,0.073507
274,-0.236314,-2.438791,9.593742,-14.332928,3.168453,-2.047808,-16.671663,1.074237,8.306421,0.986695,-0.145260,-0.001248,0.073011
275,-0.230326,-2.515079,9.585594,-14.551280,2.875682,-1.741010,-16.878345,1.197066,8.221608,0.986464,-0.147115,-0.000213,0.072435
276,-0.350200,-2.596993,9.616748,-14.600390,2.541840,-1.354824,-17.116919,1.339986,8.150538,0.986173,-0.149254,0.000959,0.072007
277,-0.245117,-2.565445,9.596890,-14.151989,1.673865,-0.669570,-17.336422,1.456537,8.102986,0.985892,-0.151211,0.001886,0.071751
278,-0.234730,-2.634004,9.583502,-14.442069,0.880365,0.709896,-17.538761,1.495480,8.097498,0.985619,-0.152975,0.002102,0.071759
279,-0.159540,-2.594160,9.532836,-14.138508,-0.052201,1.887878,-17.728582,1.476961,8.142034,0.985340,-0.154597,0.001764,0.072120
280,-0.111763,-2.860758,9.540230,-14.143496,-0.754580,3.106977,-17.974382,1.396158,8.231521,0.984966,-0.156663,0.000792,0.072784
281,-0.044279,-2.805842,9.536506,-12.560239,-0.829984,3.140367,-18.242519,1.271843,8.343624,0.984550,-0.158892,-0.000602,0.073578
282,-0.080442,-2.798456,9.526313,-11.902941,-0.887068,3.460635,-18.417751,1.149448,8.462913,0.984253,-0.160320,-0.001933,0.074432
283,-0.051294,-2.859983,9.518670,-11.022820,-0.773157,3.393345,-18.559837,1.048749,8.585384,0.983992,-0.161475,-0.003063,0.075340
284,-0.048282,-3.029793,9.492128,-10.013333,-0.520372,2.807233,-18.738495,0.953100,8.693830,0.983685,-0.162944,-0.004156,0.076132
285,-0.127780,-2.816532,9.432709,-8.263632,-0.133102,2.595042,-18.843655,0.906510,8.786220,0.983482,-0.163813,-0.004758,0.076855
286,-0.110680,-2.921490,9.404705,-8.080815,-0.148516,2.527869,-18.868116,0.898222,8.872592,0.983390,-0.164014,-0.004969,0.077583
287,-0.056424,-3.010135,9.394810,-7.139949,0.063320,1.549675,-18.941526,0.863405,8.940221,0.983245,-0.164618,-0.005415,0.078111
288,-0.082517,-3.014523,9.370849,-6.472383,0.137786,0.873598,-19.020435,0.816171,8.979682,0.983113,-0.165262,-0.005931,0.078378
289,-0.139685,-3.065430,9.421144,-6.442688,0.041526,0.591269,-19.094995,0.800890,9.003899,0.982991,-0.165890,-0.006148,0.078560
290,-0.070659,-3.110805,9.451302,-6.496997,-0.074574,-0.678336,-19.185791,0.773085,9.004501,0.982863,-0.166651,-0.006450,0.078520
291,-0.117206,-3.128951,9.463513,-5.840261,0.010720,-1.270443,-19.274029,0.728512,8.975852,0.982762,-0.167379,-0.006851,0.078204
292,-0.175319,-3.172720,9.454488,-5.269027,-0.198278,-1.195646,-19.352106,0.723938,8.939518,0.982673,-0.168048,-0.006890,0.077881
293,-0.197598,-3.080105,9.411330,-4.093413,-0.628372,-1.007872,-19.378325,0.745301,8.911054,0.982651,-0.168289,-0.006683,0.077667
294,-0.072335,-3.178575,9.433956,-3.406084,-0.898435,-0.933083,-19.371067,0.716600,8.890665,0.982680,-0.168209,-0.006894,0.077450
295,-0.091745,-3.069483,9.460102,-1.633302,-1.081773,-1.456539,-19.218889,0.625307,8.866899,0.982933,-0.166845,-0.007540,0.077124
296,-0.078905,-3.002728,9.400531,0.952021,-1.393292,-0.289264,-18.843912,0.529504,8.857078,0.983495,-0.163566,-0.008096,0.076927
297,-0.092576,-2.981949,9.379990,4.034672,-1.787086,0.820066,-18.398954,0.461109,8.885805,0.984114,-0.159698,-0.008424,0.077110
298,-0.019334,-3.172258,9.460570,5.735266,-1.517215,0.728446,-18.093147,0.371498,8.928741,0.984520,-0.157009,-0.009047,0.077379
299,-0.084503,-2.963665,9.443959,8.749324,-1.282370,0.525451,-17.780569,0.302576,8.963209,0.984930,-0.154274,-0.009475,0.077607
300,-0.113659,-2.931961,9.362741,11.208299,-0.659490,1.512826,-17.305977,0.345764,9.006427,0.985526,-0.150219,-0.008839,0.078074
301,-0.032297,-3.059797,9.451035,8.125768,-0.662414,0.444720,-17.015642,0.361252,9.044236,0.985875,-0.147729,-0.008556,0.078441
302,-0.105609,-2.997915,9.649715,7.542361,-0.433550,-0.541039,-16.855164,0.337897,9.047376,0.986082,-0.146332,-0.008651,0.078450
303,-0.153852,-2.867215,9.530563,9.815984,-1.052650,1.087251,-16.567081,0.405647,9.063438,0.986427,-0.143897,-0.007891,0.078695
304,-0.182856,-2.850141,9.538553,9.916723,-1.798065,2.267020,-16.232006,0.535127,9.131290,0.986780,-0.141096,-0.006629,0.079460
305,-0.105014,-2.959417,9.560103,10.653053,-2.557519,2.674571,-16.026548,0.583345,9.229960,0.986955,-0.139354,-0.006192,0.080380
306,-0.161544,-2.961613,9.550165,14.477502,-2.441393,3.317020,-15.815830,0.562326,9.346973,0.987130,-0.137518,-0.006365,0.081374
307,-0.034142,-2.917118,9.404758,15.523414,-2.221665,3.458922,-15.489199,0.516513,9.474999,0.987433,-0.134665,-0.006679,0.082442
308,0.036278,-3.095823,9.623357,15.384828,-1.483462,1.861169,-15.223916,0.408115,9.574278,0.987685,-0.132295,-0.007537,0.083188
309,0.106568,-3.085776,9.738122,16.480402,-0.937733,-0.983320,-15.006084,0.257841,9.596008,0.987937,-0.130308,-0.008699,0.083220
310,-0.001271,-3.213069,10.007833,13.690819,-1.160919,-2.246905,-14.846725,0.126403,9.550678,0.988164,-0.128842,-0.009666,0.082693
311,0.008225,-2.522635,10.446471,9.361262,-0.382832,-4.306944,-14.564140,0.045710,9.450804,0.988558,-0.126356,-0.010048,0.081766
312,-0.291459,-2.476911,11.868157,-7.808629,1.692801,-1.082565,-14.268796,0.121941,9.358771,0.988939,-0.123869,-0.009080,0.081080
313,-0.935399,-4.072597,12.746128,-24.958723,7.874480,10.543889,-14.858665,0.662917,9.469376,0.988143,-0.129333,-0.004956,0.082593
314,-0.653574,-4.835466,14.315695,-30.320189,4.899240,9.062674,-16.258335,1.334618,9.715535,0.986190,-0.141864,-0.000486,0.085467
315,-0.488518,-5.919493,14.408462,-16.039288,5.159399,10.716915,-17.681475,1.743180,9.963248,0.984070,-0.154395,0.001630,0.088124
316,-0.409240,-6.671234,13.642727,12.249619,5.927072,6.580031,-18.698420,2.027139,10.151915,0.982439,-0.163333,0.003015,0.090150
317,-0.292112,-6.940639,12.001346,42.636467,6.593665,2.323917,-19.089136,2.208150,10.181869,0.981801,-0.166816,0.004216,0.090674
318,0.081606,-5.227456,11.612860,74.667809,6.787993,-7.746214,-18.234547,2.167684,9.983826,0.983184,-0.159452,0.004820,0.088886
319,-0.276483,-5.089493,10.281117,88.321960,11.746254,-5.911046,-16.411560,2.173803,9.635221,0.985860,-0.143776,0.006724,0.085807
320,-0.439873,-4.163973,9.964617,95.576019,10.444506,-6.726126,-14.315446,2.436432,9.293851,0.988507,-0.125872,0.010933,0.083006
321,-0.556392,-2.448856,9.459743,102.622124,6.779577,-5.381781,-11.455521,2.738679,9.018702,0.991457,-0.101334,0.015860,0.080585
322,-0.509889,-1.591347,9.365801,92.991013,3.967667,-5.091740,-8.100332,2.963397,8.827315,0.994071,-0.072382,0.020283,0.078560
323,-0.454290,-0.580560,8.384768,77.968735,-2.975154,-5.407478,-4.866399,2.990695,8.674845,0.995814,-0.044290,0.022788,0.076641
324,-0.445755,0.658183,7.495378,61.215664,-4.798467,-6.022167,-1.627425,2.887278,8.543704,0.996778,-0.016034,0.024064,0.074814
325,-0.361331,2.359983,6.865003,34.534149,-2.021111,-5.954505,1.954527,2.808611,8.448369,0.996870,0.015199,0.025693,0.073209
326,-0.811883,1.927043,7.219707,-9.801330,2.101614,-0.486605,4.557444,3.050254,8.456064,0.996215,0.037678,0.029452,0.072586
327,-1.045146,2.510030,7.178566,-27.889744,2.073893,1.141853,5.748365,3.671535,8.577979,0.995554,0.047584,0.035653,0.073053
328,-0.304326,1.937278,6.756522,-43.392586,0.678955,2.810070,6.209236,3.957990,8.749996,0.995172,0.051339,0.038511,0.074262
329,-0.241356,1.982066,6.376050,-44.827545,1.013731,5.212448,6.162284,3.775225,8.980150,0.995088,0.050981,0.036996,0.076366
330,-0.603577,0.705480,5.336255,-43.627117,0.832445,3.636419,5.522738,3.845059,9.186723,0.995200,0.045311,0.037258,0.078334
331,0.105584,-0.199283,4.566279,-32.561783,-1.184148,-0.643879,3.813553,3.668837,9.207405,0.995797,0.030581,0.034559,0.079116
332,0.154736,-0.929969,3.679688,-17.724598,-1.550994,-3.601384,1.258527,2.895357,9.046062,0.996529,0.008953,0.026050,0.078553
333,-0.198619,-0.767336,3.061348,-5.836349,-0.228186,-7.608973,-1.329748,2.527705,8.758474,0.996751,-0.013251,0.021105,0.076589
334,-0.323077,-1.299234,2.489028,4.990414,-2.571830,-8.503761,-4.043965,2.804354,8.361574,0.996357,-0.036961,0.021818,0.073698
335,-0.009926,-1.096099,2.742712,12.917139,-5.343802,-6.980042,-6.601213,2.762621,7.971426,0.995541,-0.059091,0.020007,0.070757
336,-0.087550,-0.712337,2.796563,16.549633,-7.508684,-5.912396,-7.793063,2.288545,7.707681,0.995143,-0.069127,0.015312,0.068397
337,0.051394,-0.932590,3.230755,16.260502,-8.746021,0.180212,-8.311424,1.730891,7.605834,0.994989,-0.073299,0.010226,0.067235
338,-0.005440,-1.159752,4.168485,20.924673,-11.179901,-0.189463,-8.723301,1.083001,7.621124,0.994807,-0.076506,0.004349,0.066980
339,-0.097179,-0.690001,5.797809,16.258158,-9.588938,0.902953,-8.454682,0.624190,7.672688,0.995003,-0.073911,0.000488,0.067124
340,0.381312,-0.168268,8.408246,8.193664,-6.390180,-2.954711,-7.432663,0.132769,7.680107,0.995651,-0.064749,-0.003187,0.066905
341,-0.032599,0.350344,10.624844,-4.859686,-4.453303,-6.371381,-6.273182,-0.276798,7.548365,0.996342,-0.054439,-0.006008,0.065594
342,-0.412964,0.585244,12.684373,-15.359632,-0.768996,-10.276152,-5.398995,-0.246586,7.279879,0.996879,-0.046866,-0.005135,0.063314
343,-0.233435,0.592149,14.643247,-30.584373,0.994542,-13.193631,-5.059619,-0.059474,6.887006,0.997223,-0.044028,-0.003169,0.059983
344,-0.494078,0.254520,15.907111,-36.045685,2.712203,-14.350206,-5.260219,0.159759,6.421531,0.997374,-0.045894,-0.001180,0.056014
345,-1.038930,0.037342,15.862666,-34.703667,-0.261552,-8.748368,-5.685935,0.524849,6.033104,0.997363,-0.049770,0.001958,0.052786
347,-0.921695,-1.423029,15.957852,-28.808556,-0.790467,-0.529526,-6.349035,0.914466,5.878409,0.997098,-0.055711,0.005118,0.051637
348,-0.161475,-1.726397,16.017179,-25.294090,-3.135009,-3.489740,-7.199518,1.002775,5.816327,0.996676,-0.063146,0.005537,0.051182
349,-0.718963,-1.936633,15.849817,-25.914999,-1.634617,-0.871195,-8.025278,0.996838,5.754115,0.996223,-0.070321,0.005154,0.050676
350,-0.099236,-2.735904,15.622885,-33.297981,-3.163282,-0.318784,-9.123924,0.977118,5.742944,0.995510,-0.079860,0.004505,0.050612
351,0.039041,-4.043590,15.235726,-41.075115,-2.970060,-3.746144,-10.873137,0.747705,5.687054,0.994224,-0.094947,0.001788,0.050002
352,0.193005,-3.855731,14.591225,-34.059078,-0.558415,-10.495513,-12.770875,0.468880,5.462120,0.992637,-0.111283,-0.001237,0.047806
353,-0.206334,-4.564129,13.335178,-26.850899,0.555155,-8.841509,-14.456969,0.320381,5.146205,0.991032,-0.125824,-0.002878,0.044888
354,0.000199,-4.977230,12.718940,-12.947953,3.394927,-5.417359,-15.988767,0.324746,4.894092,0.989358,-0.139068,-0.003134,0.042675
355,-0.208968,-4.597208,12.019924,14.778746,4.376195,-4.684907,-16.748266,0.420566,4.692181,0.988480,-0.145662,-0.002334,0.041033
356,-0.450743,-3.783705,11.371483,47.428299,7.483730,-0.468567,-16.152250,0.742295,4.551944,0.989244,-0.140630,0.000829,0.040227
357,-0.382318,-3.167500,10.804444,59.397041,6.526389,4.017928,-14.494956,1.179345,4.551059,0.991124,-0.126455,0.005193,0.040683
358,0.037741,-2.046206,10.477346,68.199669,7.441878,3.779901,-12.150438,1.424256,4.631318,0.993442,-0.106239,0.008073,0.041489
359,-0.244689,-0.528293,9.326319,75.152832,6.457220,3.187828,-8.940356,1.586538,4.718323,0.995973,-0.078435,0.010583,0.042112
360,-0.398849,0.409464,8.733043,59.714218,8.149818,4.590393,-5.332223,1.918567,4.854518,0.997848,-0.047176,0.014739,0.043077
361,-0.213448,1.168390,8.032469,37.007626,7.132225,3.931491,-2.050534,2.225644,5.035208,0.998671,-0.018726,0.018613,0.044258
362,-0.563543,1.971496,7.459449,12.178618,8.980661,6.928786,0.779231,2.604993,5.288768,0.998661,0.005742,0.023020,0.045969
363,-0.806678,2.651863,7.272095,-16.826603,6.621895,9.619499,3.075980,3.220851,5.684606,0.998053,0.025403,0.029389,0.048796
364,-0.781682,1.943083,7.724640,-44.541245,5.523694,10.981055,4.059812,3.794430,6.149659,0.997450,0.033576,0.034937,0.052406
365,-0.018459,1.536108,7.230675,-51.430634,2.381448,12.191533,3.744590,3.823070,6.621675,0.997306,0.030674,0.035169,0.056602
366,-0.116823,0.957447,6.622788,-55.377140,2.812694,12.761124,2.817881,3.458826,7.101595,0.997370,0.022661,0.031634,0.061146
367,-0.363808,0.358837,5.862707,-47.892288,1.003574,11.668734,1.466193,3.326882,7.540059,0.997358,0.010853,0.029804,0.065348
368,0.119464,-0.971522,4.926826,-30.944717,-1.703403,11.230603,-0.615568,3.011050,7.882740,0.997266,-0.007163,0.025842,0.068852
369,0.350600,-1.479636,3.559201,-9.478586,-2.581950,8.159836,-3.531423,2.111290,8.115256,0.996810,-0.032033,0.016189,0.071280
370,-0.323677,-1.693920,2.536211,5.501558,-0.169156,1.379483,-6.923920,1.826245,8.164962,0.995447,-0.061357,0.011568,0.072013
371,-0.207276,-1.558829,1.853915,11.609730,-3.868472,-1.727760,-10.629359,2.257506,8.012808,0.992948,-0.093752,0.013096,0.071374
372,0.276475,-1.649049,1.454159,15.661906,-6.883855,-0.817976,-14.584459,1.693822,7.849059,0.989349,-0.127622,0.005940,0.069753
373,-0.378288,-1.499504,1.884656,17.777380,-5.646735,-0.783480,-17.883160,1.373758,7.774891,0.985377,-0.155861,0.001278,0.068827
374,-0.395516,-1.614409,2.586658,18.885155,-8.514143,2.742320,-19.722063,2.050126,7.786909,0.982587,-0.172033,0.005958,0.069944
375,0.283054,-1.344780,4.536983,12.468147,-10.995073,0.352657,-19.903452,1.798858,7.919235,0.982294,-0.173452,0.003492,0.070712
376,-0.414386,-0.903479,6.944072,4.688065,-8.933282,2.319303,-18.575439,1.243593,8.100697,0.984244,-0.161736,-0.000716,0.071450
377,-0.485481,-0.625591,10.095802,-6.008760,-3.721325,-4.475070,-16.782194,1.242056,8.179525,0.986605,-0.146314,0.000288,0.072129
378,-0.484053,-1.396323,12.518880,-30.323616,-1.601069,-4.973616,-15.710685,1.279037,8.093997,0.987977,-0.137104,0.001384,0.071430
379,-0.568508,-0.998397,14.700284,-28.591961,-1.052687,-6.743353,-15.223822,1.312615,7.951641,0.988633,-0.132922,0.002142,0.070234
380,-0.712038,-0.607541,15.308439,-20.761881,-1.540281,-3.404242,-14.412167,1.383121,7.837877,0.989606,-0.125955,0.003374,0.069311
381,-0.342983,-1.263672,15.877362,-22.040691,-1.399539,-5.216761,-13.619025,1.384048,7.747514,0.990508,-0.119099,0.003955,0.068506
382,0.041721,-2.344446,15.494748,-17.717384,-3.896519,-2.114571,-13.295612,1.158596,7.672990,0.990922,-0.116173,0.002275,0.067624
383,-0.007578,-1.682962,14.951015,4.101198,-4.835843,-2.480914,-12.732073,0.822591,7.647411,0.991543,-0.111106,-0.000276,0.067068
384,0.362275,-2.145209,14.721896,-8.015463,-1.977358,-4.451066,-12.045518,0.464426,7.569611,0.992275,-0.104960,-0.002904,0.066069
385,0.135484,-2.965667,15.102651,-27.049593,0.588207,-5.626235,-12.272817,0.193918,7.414371,0.992177,-0.106781,-0.005233,0.064467
386,-0.037175,-3.887296,15.716832,-38.240955,5.669202,-5.389788,-13.407294,0.185746,7.214046,0.991183,-0.116604,-0.005737,0.062671
387,-0.233457,-4.708931,16.213947,-38.468258,6.865705,-3.827202,-14.980356,0.386642,7.013278,0.989578,-0.130316,-0.004634,0.061081
388,-0.255912,-5.431269,15.893603,-22.078995,9.440298,-4.419184,-16.435787,0.683632,6.803465,0.987920,-0.143034,-0.002587,0.059577
389,-0.470936,-5.256564,14.751390,3.494688,9.927563,-4.077258,-17.219414,1.053600,6.569138,0.986986,-0.149971,0.000499,0.058021
390,-0.928144,-5.455819,13.330910,23.078733,8.871282,1.517101,-17.326143,1.585609,6.426394,0.986826,-0.151139,0.005215,0.057488
391,-0.610043,-4.850554,11.411088,45.126316,6.803385,5.281863,-16.902819,2.127092,6.442329,0.987255,-0.147745,0.010074,0.058294
392,-0.528516,-3.609791,10.426614,50.742149,4.391512,7.648680,-15.824435,2.490810,6.583476,0.988441,-0.138632,0.013590,0.059847
393,-0.547093,-3.601175,10.613999,36.189224,4.658863,14.364299,-14.701770,2.794698,6.886356,0.989509,-0.129129,0.016460,0.062662
394,-0.501171,-3.490507,10.484914,37.583241,2.920897,17.782284,-13.889172,3.058222,7.354459,0.990060,-0.122316,0.018683,0.066862
395,-0.636086,-2.505825,10.044554,54.765415,1.080734,19.393623,-12.572993,3.283219,7.930856,0.990983,-0.111162,0.020838,0.071840
396,-0.297948,-1.419794,10.046349,63.116745,-2.587979,18.444500,-10.278960,3.306569,8.571213,0.992588,-0.091440,0.021963,0.076974
397,-0.188339,-0.958610,9.246524,67.692894,-1.156387,17.925608,-7.474625,3.087655,9.205923,0.994153,-0.067106,0.021569,0.081801
398,-0.315079,0.751746,7.571037,69.845657,-0.269254,11.448216,-4.000051,2.925769,9.746572,0.995378,-0.036930,0.022458,0.085761
399,-0.736049,1.638017,7.001719,42.007450,1.846431,8.932526,-0.129983,3.116248,10.189573,0.995677,-0.003544,0.026983,0.088801
400,-0.229665,1.688531,7.033805,2.694446,3.945168,6.708326,2.652289,3.322282,10.570111,0.995126,0.020366,0.030988,0.091379
401,-0.403706,1.789188,6.974017,-24.124485,4.397960,4.065892,3.983151,3.364464,10.848830,0.994588,0.031809,0.032491,0.093419
402,-0.778003,1.908079,6.636049,-41.272636,3.301874,1.505774,4.471267,3.690774,11.042925,0.994208,0.035712,0.035780,0.094845
403,-0.153223,1.454004,6.700622,-53.098122,1.886098,2.993938,4.216213,3.821921,11.205255,0.994116,0.033336,0.036754,0.096287
404,0.050232,0.889208,5.713655,-51.108776,-0.815464,3.830582,3.312956,3.387913,11.377528,0.994309,0.025823,0.032267,0.098190
405,-0.183350,-0.023870,5.186155,-39.178745,-2.675919,0.702597,1.882967,2.949780,11.465816,0.994577,0.013773,0.027247,0.099424
406,-0.102297,-0.718892,4.066285,-19.166779,-3.183477,0.262901,-0.115361,2.663308,11.432984,0.994755,-0.003316,0.023024,0.099602
407,0.202897,-0.987695,2.903456,-4.117451,-3.881892,-2.240092,-2.512997,2.024739,11.319870,0.994692,-0.023560,0.015416,0.098970
408,-0.301039,-1.509437,2.053218,9.355087,-5.428056,-3.803226,-5.758703,1.774943,11.116433,0.993847,-0.051489,0.010532,0.097498
409,-0.062047,-1.364321,2.148918,18.824183,-6.369417,-4.032684,-9.115839,1.878635,10.867682,0.992101,-0.080647,0.008744,0.095681
410,0.047081,-1.066020,2.084769,23.862076,-7.189811,-6.673151,-11.298370,1.411440,10.640391,0.990669,-0.099142,0.003078,0.093471
411,-0.224541,-1.606078,2.848942,21.665142,-6.133934,-5.727397,-12.905555,1.126136,10.421734,0.989410,-0.112801,-0.000482,0.091342
412,-0.174383,-1.007600,4.880247,19.602686,-8.998466,-8.953105,-13.323833,1.054808,10.210220,0.989171,-0.116359,-0.001216,0.089442
413,-0.685860,-0.438531,7.258599,8.950819,-7.219083,-8.963321,-12.117723,1.074603,9.994604,0.990504,-0.105957,0.000096,0.087604
414,0.076152,-0.702123,9.676340,-1.965850,-8.242086,-17.256390,-10.826949,0.923677,9.646411,0.991918,-0.094680,0.000064,0.084461
415,-0.760754,-0.510809,11.980259,-10.150065,-4.732082,-14.096042,-9.949651,0.695256,9.191305,0.992970,-0.086922,-0.000923,0.080344
416,-0.231434,0.155995,14.086135,-20.636042,-5.437627,-14.690883,-9.211120,0.646149,8.766706,0.993805,-0.080489,-0.000533,0.076633
417,-0.530256,-0.645755,14.882357,-28.461349,-0.943244,-12.034090,-8.884926,0.581146,8.358223,0.994303,-0.077619,-0.000602,0.073046
418,0.193637,-1.307540,15.217209,-31.909430,-3.198539,-10.312800,-9.182771,0.459891,8.009347,0.994327,-0.080132,-0.001600,0.069934
419,-0.473899,-1.242433,15.319302,-32.603943,0.292775,-4.354034,-9.692019,0.371772,7.781572,0.994105,-0.084502,-0.002507,0.067885
420,0.056408,-1.645920,14.676742,-32.676105,-0.556932,-2.954705,-10.258965,0.394040,7.665749,0.993741,-0.089435,-0.002559,0.066885
421,0.020876,-2.628411,14.217827,-31.924326,0.475768,-4.534093,-11.131165,0.298358,7.545270,0.993109,-0.096945,-0.003796,0.065739
422,-0.147138,-3.222927,14.069876,-29.558277,-0.984605,-2.031588,-12.288658,0.255124,7.439917,0.992143,-0.106951,-0.004735,0.064745
423,-0.031086,-2.983301,14.237474,-25.356316,-0.726672,-6.012721,-13.292050,0.207571,7.314741,0.991242,-0.115614,-0.005587,0.063570
424,-0.303161,-3.515674,14.394650,-24.741362,-1.159765,-6.209501,-14.126170,0.184606,7.123867,0.990481,-0.122824,-0.006044,0.061854
425,0.062054,-3.988263,14.975489,-24.154284,-0.358475,-6.734380,-15.022975,0.142481,6.920206,0.989601,-0.130561,-0.006659,0.059998
426,-0.258335,-3.868025,14.937341,-18.496250,1.144691,-8.823336,-15.753036,0.113184,6.666606,0.988882,-0.136864,-0.006991,0.057731
427,-0.323432,-3.682317,14.571690,-2.560318,3.362483,-7.603948,-15.966582,0.240029,6.382358,0.988755,-0.138784,-0.005660,0.055419
428,-0.379725,-4.035697,13.165832,14.072433,4.530604,-3.891147,-15.743127,0.478575,6.162312,0.989106,-0.136976,-0.003230,0.053815
429,-0.184745,-3.931653,12.032548,18.224861,5.112527,-1.614319,-15.434693,0.722033,6.029833,0.989507,-0.134426,-0.000828,0.052963
430,-0.216592,-3.405100,10.757634,23.229929,3.145850,-0.437780,-15.043414,0.894964,5.957895,0.989972,-0.131123,0.000930,0.052541
431,-0.422488,-3.047865,9.985225,18.586712,1.989784,6.757095,-14.615596,1.124820,6.034754,0.990389,-0.127530,0.003027,0.053456
432,0.050495,-3.168020,10.288233,3.548767,2.284302,9.288588,-14.536956,1.263353,6.270911,0.990343,-0.126920,0.004000,0.055647
433,-0.360983,-3.329953,10.882693,5.962651,2.944767,13.113978,-14.702406,1.386372,6.603214,0.989973,-0.128420,0.004610,0.058660
434,-0.175432,-2.584430,10.449549,29.768059,1.765263,13.146019,-14.207215,1.578328,7.005289,0.990272,-0.124256,0.006087,0.062320
435,-0.072089,-2.013715,10.514682,38.033859,2.661967,15.839179,-12.786358,1.652173,7.464487,0.991466,-0.112036,0.007050,0.066284
436,-0.013116,-1.057242,9.766286,53.067543,3.805496,14.067458,-10.591172,1.674316,7.944388,0.993140,-0.093070,0.008121,0.070315
437,-0.314269,-0.067521,8.422865,55.419971,4.328508,9.236450,-7.662300,1.795647,8.332826,0.994930,-0.067767,0.010739,0.073526
438,-0.118183,1.028762,7.552514,32.899635,4.253580,4.240817,-4.497937,1.934191,8.591669,0.996231,-0.040389,0.013879,0.075498
439,-0.501441,1.386203,7.015119,-0.436190,5.102395,4.964455,-1.907479,2.181175,8.802698,0.996708,-0.018053,0.017697,0.077034
440,-0.601623,1.859171,6.835662,-27.777657,5.229136,4.288944,-0.219519,2.681625,9.039436,0.996612,-0.003753,0.023176,0.078825
441,-0.278466,1.306771,7.418694,-52.975441,3.587981,4.003997,0.240865,2.976940,9.257111,0.996405,-0.000002,0.026061,0.080614
442,0.170906,0.935600,7.299740,-61.118160,1.491285,6.268756,-0.504755,2.742701,9.485615,0.996272,-0.006367,0.023486,0.082764
443,0.147474,0.961746,6.953171,-59.078976,0.748479,6.609286,-1.471547,2.238517,9.758537,0.996083,-0.014454,0.018369,0.085283
444,0.178141,0.115903,6.380421,-48.676182,0.297274,4.016861,-2.536602,1.746449,9.977174,0.995823,-0.023373,0.013254,0.087262
445,0.406420,-1.162505,5.871553,-29.817774,-1.491199,0.647448,-4.249141,1.103027,10.059578,0.995387,-0.037771,0.006332,0.087965
446,0.007829,-1.225034,3.963783,-9.520952,-2.560070,0.731093,-6.332089,0.585867,10.074171,0.994580,-0.055464,0.000236,0.087947
447,-0.307598,-1.398191,3.236052,3.335806,-3.973518,-1.853830,-8.403747,0.690566,10.043102,0.993428,-0.073514,-0.000426,0.087733
448,0.132891,-2.159485,2.750916,16.484926,-4.641300,-6.486681,-11.081528,0.634222,9.886139,0.991565,-0.096668,-0.002831,0.086294
450,0.435638,-1.858243,3.151557,25.429384,-7.371424,-5.787070,-13.536670,-0.281727,9.709726,0.989490,-0.117225,-0.012407,0.083753
451,-0.138420,-1.840346,3.473445,32.907574,-7.835439,-3.893737,-14.773064,-0.905173,9.623849,0.988260,-0.127448,-0.018590,0.082175
452,0.133024,-1.671284,5.723537,29.574291,-10.155757,-5.738404,-14.778812,-1.108230,9.550319,0.988310,-0.127361,-0.020263,0.081311
453,-0.013753,-1.451755,7.725161,22.241568,-11.130551,-5.187491,-13.737983,-1.441126,9.457247,0.989489,-0.118154,-0.022302,0.080339
454,-0.607150,-0.709214,10.171152,11.747806,-12.468339,0.097167,-12.250572,-1.441112,9.447353,0.990946,-0.105302,-0.021248,0.080536
455,-0.384346,-1.091808,12.487684,-4.311499,-11.429604,-0.123623,-11.001019,-1.296511,9.511465,0.991995,-0.094585,-0.019170,0.081440
456,-0.227590,-0.388767,14.027705,-13.362333,-11.588041,1.347605,-10.190876,-1.309981,9.583229,0.992587,-0.087548,-0.018765,0.082185
457,0.437845,-0.487165,14.962092,-24.066919,-7.452159,-0.485044,-9.638607,-1.497831,9.628165,0.992957,-0.082617,-0.020029,0.082525
458,0.262351,-0.571314,15.550048,-26.243725,-4.687115,-0.694216,-9.423519,-1.691174,9.616795,0.993107,-0.080612,-0.021541,0.082324
459,1.080245,-1.401701,14.986485,-24.712416,-1.411560,-2.086067,-9.499653,-1.925591,9.566870,0.993070,-0.081109,-0.023591,0.081705
460,0.686033,-1.267306,14.369517,-19.509226,1.726225,-3.665663,-9.665203,-2.151138,9.454120,0.993011,-0.082402,-0.025582,0.080526
461,0.749594,-1.954997,13.856042,-21.373404,5.271922,-7.344835,-9.933387,-2.182014,9.239660,0.992961,-0.084752,-0.025879,0.078584
462,0.316187,-2.473410,12.820176,-14.457695,4.136594,-5.786878,-10.478533,-2.074723,8.995138,0.992723,-0.089605,-0.025133,0.076428
463,0.468370,-3.290681,12.408990,-15.240750,4.014762,-3.642845,-11.324358,-1.919502,8.827397,0.992158,-0.097074,-0.024211,0.074923
464,0.082180,-3.139440,13.371554,-17.542406,3.075287,-4.205737,-12.282965,-1.727027,8.688691,0.991414,-0.105529,-0.023044,0.073700
465,-0.213517,-3.594021,14.193414,-19.979053,3.865532,-2.780199,-13.158829,-1.363876,8.554305,0.990679,-0.113371,-0.020335,0.072725
466,-0.197787,-4.574995,14.674863,-19.701836,5.641686,-2.892725,-14.222791,-0.921837,8.430146,0.989664,-0.122873,-0.017060,0.071940
467,-0.676795,-4.872773,14.692052,-3.175769,6.650570,-0.847492,-15.154036,-0.371579,8.323037,0.988681,-0.131277,-0.012775,0.071508
468,-0.501350,-4.450977,13.938581,13.228756,6.498301,-0.947693,-15.431208,0.215541,8.238397,0.988367,-0.134043,-0.007785,0.071433
469,-0.338851,-4.611831,12.132681,22.810453,5.034575,-0.846667,-15.359444,0.633970,8.158566,0.988452,-0.133685,-0.004037,0.071235
470,0.002821,-4.598472,10.504234,30.348560,3.110598,-1.510423,-15.382814,0.797064,8.077340,0.988453,-0.133987,-0.002550,0.070723
471,0.035280,-3.483700,9.325036,30.186941,0.679287,-4.440397,-15.265366,0.722534,7.954009,0.988675,-0.132933,-0.002977,0.069576
472,0.156331,-3.252896,8.974947,10.267315,1.522281,-6.694464,-15.243001,0.532211,7.756467,0.988844,-0.132635,-0.004378,0.067653
473,0.125869,-3.413761,9.410868,-4.248874,2.819917,-4.370767,-15.766953,0.358439,7.553695,0.988365,-0.137064,-0.005943,0.065676
474,-0.219824,-3.781088,10.282106,4.810562,5.447418,-2.078889,-16.365746,0.430195,7.408769,0.987709,-0.142275,-0.005488,0.064484
475,-0.454280,-3.756550,10.930316,28.115208,6.932985,-0.427610,-16.285919,0.790687,7.307643,0.987820,-0.141788,-0.002210,0.064059
476,-0.455374,-3.344232,11.352901,54.463982,5.998629,7.344225,-15.090472,1.245111,7.362123,0.989146,-0.131722,0.002319,0.065067
477,-0.357972,-2.439481,11.539095,78.103096,4.583175,12.608864,-12.673147,1.623474,7.652985,0.991471,-0.111051,0.006684,0.067881
478,0.012998,-1.098764,10.509151,95.778122,3.395597,11.320987,-9.110820,1.749463,8.037122,0.994189,-0.080285,0.009615,0.071060
479,-0.080389,-0.115060,9.050578,87.985657,3.940902,11.531523,-5.039461,1.721550,8.418219,0.996178,-0.044941,0.011741,0.073976
480,-0.606897,1.418566,7.816519,61.463730,3.227239,9.624365,-0.978844,1.955863,8.807790,0.996855,-0.009826,0.016360,0.076918
481,-0.146964,1.866876,6.659042,27.169889,1.494452,8.126319,2.606721,2.161748,9.184463,0.996389,0.021159,0.020619,0.079601
482,-0.202147,2.403759,6.053555,-5.767725,2.289160,6.309363,5.311127,2.142514,9.512218,0.995384,0.044616,0.022452,0.081948
483,-0.650904,2.390800,6.566374,-38.116974,2.903598,1.866187,6.797512,2.409942,9.741175,0.994522,0.057275,0.025949,0.083495
484,-0.157666,2.483943,6.825751,-58.765778,-0.930302,3.676240,7.025924,2.573584,9.913014,0.994257,0.059093,0.027624,0.084845
485,0.704714,2.080909,7.051651,-67.852829,-2.012099,9.423564,6.418799,1.893859,10.191848,0.994432,0.054291,0.021407,0.087750
486,0.147512,1.892600,7.516036,-66.815636,0.437990,8.108876,5.316939,1.108873,10.537308,0.994698,0.045297,0.013884,0.091276
487,0.569828,0.562139,6.345516,-52.564068,0.376971,2.940951,3.826473,0.497303,10.752437,0.995050,0.032833,0.007446,0.093498
488,0.350940,-0.236823,5.160677,-28.931238,-1.163153,3.641620,2.023254,-0.225493,10.878489,0.995337,0.017762,-0.000285,0.094810
489,0.177753,-0.215803,4.113212,-10.538495,-0.423757,1.392518,0.602384,-0.694955,10.974786,0.995382,0.005813,-0.005534,0.095655
490,0.083110,-0.973066,3.061757,6.686136,-2.832690,-0.615491,-0.991131,-0.953166,11.010414,0.995323,-0.007811,-0.009109,0.095858
491,0.052232,-1.965310,2.187458,22.785997,-5.150945,-1.042469,-4.196496,-1.159474,11.049524,0.994672,-0.035468,-0.013589,0.095838
492,-0.417974,-1.617259,2.336455,36.001305,-7.284258,1.318765,-7.634367,-0.759184,11.139582,0.993092,-0.065616,-0.013041,0.096402
493,-0.288200,-1.614224,2.755139,36.365849,-7.459314,-1.041065,-9.813909,0.010775,11.193584,0.991584,-0.085139,-0.008249,0.097178
494,-0.451588,-1.684632,4.950784,32.874897,-9.531037,-4.067867,-10.723442,0.435145,11.158335,0.990867,-0.093367,-0.005322,0.097148
495,-0.666976,-1.344003,6.543461,26.972404,-8.018558,-9.404950,-10.380194,0.785292,10.988508,0.991242,-0.090696,-0.001868,0.095968
496,-1.359898,-0.524637,8.709469,11.887565,-7.196305,-8.078082,-9.339815,1.373039,10.761407,0.992126,-0.082170,0.004255,0.094426
497,-0.715454,-0.033987,11.382035,-7.884640,-11.181714,-4.616578,-8.214108,1.724025,10.636058,0.992926,-0.072695,0.008304,0.093508
498,-0.464064,0.268998,13.209694,-21.253231,-11.785167,2.622714,-7.468812,1.510013,10.694614,0.993368,-0.066068,0.007023,0.093841
499,-0.328650,-0.019584,14.040796,-33.677853,-11.571507,9.413246,-7.264851,1.160081,10.976077,0.993304,-0.064028,0.003998,0.096079
500,0.380576,-0.003536,15.113445,-41.175964,-10.405099,13.122767,-7.532405,0.662477,11.419378,0.992836,-0.065932,-0.000795,0.099649
501,1.315521,-0.484527,15.022355,-38.493671,-9.530425,10.429222,-7.999586,-0.162970,11.870470,0.992226,-0.069232,-0.008624,0.103054
502,1.351138,-0.969830,14.451265,-36.463978,-2.369778,4.564623,-8.599601,-1.043551,12.156592,0.991611,-0.073589,-0.016968,0.104906
503,1.189356,-1.579899,14.156931,-32.940022,1.013320,-0.898632,-9.334070,-1.648356,12.225001,0.991040,-0.079368,-0.022918,0.104953
504,1.109674,-1.815159,13.085491,-23.397194,5.488125,-8.653768,-10.024033,-2.026560,12.050880,0.990680,-0.085019,-0.026688,0.103016
505,0.580992,-2.410460,12.167855,-21.086857,7.847479,-10.861991,-10.736046,-2.119847,11.694918,0.990441,-0.091174,-0.027851,0.099695
506,0.496839,-2.669214,11.685766,-19.328568,10.224566,-9.983071,-11.616446,-1.952381,11.305213,0.990055,-0.099023,-0.026833,0.096261
507,-0.227589,-2.932647,11.304137,-17.287037,10.117129,-8.084572,-12.552773,-1.496542,10.950520,0.989523,-0.107578,-0.023352,0.093415
508,-0.122422,-3.009301,10.798306,-16.329210,9.522171,-4.388362,-13.503808,-0.878951,10.680768,0.988809,-0.116348,-0.018526,0.091526
509,-0.107522,-3.136603,10.556906,-15.888713,8.032487,-0.625125,-14.443064,-0.378309,10.532906,0.987912,-0.124874,-0.014800,0.090646
510,-0.254326,-3.203453,10.433414,-12.904365,5.505043,2.414793,-15.300602,0.057112,10.504747,0.986931,-0.132613,-0.011695,0.090794
511,-0.247432,-3.065821,10.119911,-9.887477,2.666260,5.070164,-15.958636,0.421355,10.586501,0.986041,-0.138559,-0.009180,0.091868
512,-0.154621,-3.135984,9.898348,-7.167810,0.231435,7.446177,-16.452812,0.640069,10.770986,0.985251,-0.142970,-0.007925,0.093685
513,-0.287327,-3.041536,9.667127,-3.804021,-1.312346,7.315073,-16.808260,0.787456,11.009649,0.984580,-0.146129,-0.007254,0.095897
514,-0.237882,-2.960817,9.573361,-3.491669,-2.607358,8.003407,-17.018576,0.902871,11.271332,0.984067,-0.148015,-0.006776,0.098279
515,-0.166344,-2.734861,9.518701,-2.899406,-2.811631,7.843250,-17.079935,0.936017,11.550859,0.983738,-0.148553,-0.006906,0.100717
516,-0.127141,-2.545543,9.404735,-2.673476,-2.743073,5.652015,-16.845177,0.891873,11.798244,0.983829,-0.146484,-0.007395,0.102800
517,-0.014202,-2.500524,9.409451,-3.852600,-1.713461,4.423560,-16.562542,0.789826,11.986402,0.984037,-0.143954,-0.008255,0.104307
518,0.190825,-2.455789,9.455362,-4.870595,-1.227564,3.307868,-16.441948,0.598454,12.127393,0.984094,-0.142735,-0.009965,0.105290
519,0.172234,-2.432667,9.535226,-4.582345,0.173636,0.193137,-16.323622,0.364147,12.191190,0.984222,-0.141500,-0.011947,0.105560
520,0.138288,-2.370070,9.593269,-5.319368,1.535399,-1.731303,-16.183914,0.199877,12.160649,0.984446,-0.140153,-0.013193,0.105112
521,0.099189,-2.510251,9.744238,-7.207070,2.796721,-2.575312,-16.114124,0.120573,12.072765,0.984623,-0.139492,-0.013703,0.104269
522,-0.024181,-2.447559,9.827651,-6.537425,3.037576,-4.128771,-16.085772,0.133094,11.939089,0.984777,-0.139275,-0.013407,0.103138
523,-0.121171,-2.263471,9.822449,-5.229488,3.149151,-4.804699,-15.933379,0.229301,11.768359,0.985100,-0.138070,-0.012237,0.101804
524,-0.093673,-2.183857,9.713467,-4.513233,3.024300,-3.625072,-15.672073,0.347825,11.606748,0.985539,-0.135943,-0.010794,0.100582
525,-0.132228,-2.227150,9.668523,-3.798639,3.010798,-4.033945,-15.414353,0.458969,11.459002,0.985954,-0.133835,-0.009439,0.099464
526,-0.209140,-1.964514,9.639884,-1.750177,2.518297,-3.888862,-15.068813,0.591525,11.310881,0.986461,-0.130986,-0.007829,0.098367
527,-0.184329,-1.814816,9.643118,-1.678802,1.841333,-2.065190,-14.280424,0.752193,11.205758,0.987404,-0.124337,-0.005653,0.097686
528,-0.063349,-1.881536,9.691259,-2.375596,1.783399,-1.157185,-13.322662,0.811867,11.152221,0.988445,-0.116132,-0.004268,0.097327
529,-0.045103,-1.848828,9.844311,-1.694102,1.624082,-0.173059,-12.594065,0.737269,11.127493,0.989195,-0.109784,-0.004269,0.097069
530,-0.046750,-1.766925,9.793840,0.028984,1.318224,1.426002,-11.948145,0.653509,11.144998,0.989795,-0.104136,-0.004461,0.097167
531,0.062203,-1.876686,9.743052,0.055672,1.492735,1.944637,-11.491343,0.513478,11.194620,0.990178,-0.100069,-0.005327,0.097492
532,0.127918,-2.179631,9.610832,1.099245,2.086365,0.738849,-11.504018,0.278297,11.225809,0.990168,-0.099978,-0.007398,0.097557
533,0.007845,-2.263372,9.461716,2.331562,3.110757,-0.959729,-11.878284,0.151575,11.202879,0.989869,-0.103106,-0.008790,0.097220
534,-0.113554,-2.561260,9.349346,0.361052,3.390130,-2.920527,-12.552209,0.269875,11.114660,0.989307,-0.109032,-0.008257,0.096517
535,0.016120,-2.817701,9.370493,-2.140575,3.249969,-5.769397,-13.320132,0.390350,10.945297,0.988681,-0.115772,-0.007693,0.095120
536,-0.033010,-2.967925,9.375254,-3.919559,2.965968,-8.561898,-13.984261,0.397495,10.685760,0.988205,-0.121524,-0.007907,0.092843
537,-0.179762,-2.996185,9.379887,-4.940008,2.937125,-8.804501,-14.665465,0.451404,10.377295,0.987705,-0.127461,-0.007651,0.090196
538,-0.227855,-3.161558,9.564974,-6.286797,2.632428,-8.491579,-15.345267,0.566037,10.070259,0.987153,-0.133426,-0.006841,0.087637
539,-0.146301,-3.051368,9.673203,-5.022206,3.021899,-8.357221,-15.922484,0.654749,9.770092,0.986681,-0.138480,-0.006156,0.085123
540,-0.314717,-2.957647,9.689329,-2.810685,3.766999,-6.461906,-16.270603,0.787466,9.498689,0.986434,-0.141585,-0.004937,0.082931
541,-0.335934,-2.949145,9.749055,-0.465876,4.416232,-3.605174,-16.435926,1.019586,9.297465,0.986333,-0.143177,-0.002807,0.081479
542,-0.243708,-2.738203,9.687454,1.572791,4.656271,-2.797821,-16.414221,1.232399,9.152477,0.986424,-0.143138,-0.000778,0.080494
543,-0.327504,-2.607857,9.548017,2.997455,4.310421,-1.425835,-16.145470,1.469061,9.047402,0.986783,-0.140982,0.001578,0.079878
544,-0.324465,-2.456869,9.410227,3.931561,3.253651,0.033197,-15.678286,1.731328,9.000006,0.987327,-0.137131,0.004221,0.079771
545,-0.197752,-2.446599,9.536016,4.147057,2.592822,-0.873175,-15.171334,1.803124,8.971494,0.987927,-0.132808,0.005226,0.079588
546,-0.261281,-2.519305,9.429594,6.673464,2.369483,-2.361076,-14.793027,1.755678,8.903358,0.988418,-0.129511,0.005156,0.078930
547,-0.288177,-2.570130,9.475377,7.306610,1.830610,-2.734990,-14.585773,1.755906,8.802382,0.988720,-0.127719,0.005413,0.078049
548,-0.133667,-2.557714,9.497552,8.415379,0.984573,-3.356235,-14.442963,1.635653,8.688518,0.988981,-0.126404,0.004598,0.076930
549,-0.275475,-2.643290,9.412755,9.000181,0.346101,-3.766909,-14.386522,1.494449,8.560946,0.989156,-0.125822,0.003557,0.075674
550,-0.308458,-2.718767,9.157108,7.884713,-0.201595,-2.961236,-14.416970,1.489743,8.443251,0.989201,-0.126079,0.003626,0.074653
551,-0.145799,-2.690939,9.163971,3.847275,-0.032292,-3.077263,-14.497009,1.443625,8.339625,0.989188,-0.126738,0.003290,0.073711
553,-0.265415,-2.602591,9.244500,2.396180,0.356721,-1.906941,-14.688291,1.405568,8.250439,0.989040,-0.128363,0.002939,0.072905
554,-0.270099,-2.586651,9.493577,-1.145152,0.669741,0.148503,-14.905476,1.455445,8.211726,0.988810,-0.130267,0.003275,0.072632
555,-0.102807,-2.695783,9.794870,-4.469146,1.319614,1.396651,-15.104527,1.457978,8.225398,0.988573,-0.131986,0.003155,0.072759
556,-0.256257,-2.708041,9.978652,-7.856887,1.696225,2.252612,-15.346247,1.461511,8.270223,0.988263,-0.134074,0.002979,0.073156
557,-0.369849,-2.653979,10.099980,-11.439579,1.012778,5.380810,-15.628623,1.574233,8.381726,0.987835,-0.136581,0.003638,0.074256
558,-0.120271,-3.257084,9.810684,-15.242889,1.221727,3.178849,-16.210699,1.626507,8.504770,0.987037,-0.141633,0.003559,0.075398
559,-0.207388,-3.685538,9.317730,-17.990728,1.875940,-0.314189,-17.303698,1.600484,8.521582,0.985636,-0.151026,0.002594,0.075539
560,-0.479903,-3.985296,8.896788,-20.295876,2.077648,-2.084291,-18.754511,1.703633,8.440368,0.983675,-0.163554,0.002639,0.075014
561,-0.402760,-4.258755,8.535872,-21.483311,1.394698,-3.156948,-20.423086,1.858788,8.307278,0.981238,-0.177950,0.003082,0.074143
562,-0.234055,-4.727027,8.142005,-23.480438,0.116137,-6.424096,-22.337494,1.844399,8.110963,0.978257,-0.194306,0.002053,0.072484
563,-0.567523,-4.686204,8.184663,-26.161079,-1.540581,-5.409369,-24.309402,1.823858,7.900996,0.974905,-0.211097,0.001018,0.070685
564,-0.605824,-4.854959,8.324626,-26.679760,-3.436212,-3.237658,-26.082832,1.912652,7.771208,0.971577,-0.226207,0.000933,0.069765
565,-0.391780,-4.986331,8.494627,-26.959366,-5.777807,-2.190675,-27.660166,1.877166,7.732127,0.968405,-0.239540,-0.000246,0.069368
566,-0.356063,-5.167515,8.719953,-25.850925,-7.198256,-0.625072,-29.025805,1.697670,7.775458,0.965506,-0.250966,-0.002680,0.069335
567,-0.411627,-5.200837,8.868807,-21.382940,-7.913680,1.290041,-30.099161,1.532431,7.899291,0.963083,-0.259904,-0.005000,0.069975
568,-0.141237,-5.218404,8.744696,-17.256008,-8.118183,0.955819,-30.878162,1.311344,8.062530,0.961252,-0.266313,-0.007711,0.070798
569,-0.024452,-5.217998,8.665595,-14.979629,-7.563290,0.181844,-31.472677,0.970101,8.213403,0.959850,-0.271088,-0.011294,0.071218
570,0.075871,-5.243846,8.402249,-12.806932,-6.360069,-0.602931,-31.978985,0.596931,8.330028,0.958656,-0.275094,-0.015012,0.071250
571,0.067472,-5.307817,8.228240,-12.796699,-4.174096,-1.938541,-32.494728,0.265854,8.388216,0.957442,-0.279198,-0.018241,0.070862
572,0.012332,-5.145119,8.465455,-14.838267,-0.493938,-4.191042,-32.931576,0.056702,8.345164,0.956437,-0.282726,-0.020150,0.069917
573,-0.001573,-4.807621,8.655050,-14.244514,2.292292,-6.040531,-33.077579,-0.036539,8.186710,0.956188,-0.283916,-0.020625,0.068338
574,-0.161349,-4.325705,8.706700,-11.755277,3.478199,-5.745856,-32.809555,0.000147,7.969637,0.956971,-0.281739,-0.019625,0.066664
575,-0.362524,-4.034812,8.782867,-9.189858,4.298499,-4.283453,-32.176147,0.228834,7.760142,0.958595,-0.276609,-0.016837,0.065570
576,-0.153915,-3.756624,8.902168,-5.743109,4.175687,-3.970119,-31.269142,0.465688,7.574285,0.960817,-0.269169,-0.013895,0.064698
577,-0.158039,-3.728949,8.724167,1.030153,3.104804,-1.952609,-30.192173,0.598208,7.436274,0.963357,-0.260214,-0.011859,0.063966
578,-0.145600,-3.757426,8.695057,7.910940,1.785078,0.804910,-29.050390,0.711597,7.389702,0.965906,-0.250667,-0.010163,0.063936
579,0.178120,-3.797661,8.697168,16.901199,1.798352,0.641436,-27.819927,0.675877,7.391088,0.968548,-0.240262,-0.009781,0.063978
580,0.356031,-3.718452,8.923502,27.247467,2.842251,-1.584046,-26.375479,0.433149,7.344818,0.971566,-0.227908,-0.010940,0.063223
581,0.181112,-3.625529,8.993739,40.636089,4.011353,-4.038362,-24.605095,0.210200,7.208580,0.975077,-0.212765,-0.011606,0.061812
582,0.090795,-3.011657,8.883421,51.986294,4.982679,-6.844851,-22.377386,0.124195,6.979352,0.979161,-0.193746,-0.010750,0.059922
583,-0.330853,-2.846701,9.096508,53.099262,4.505404,-5.111258,-19.904179,0.272939,6.737798,0.983223,-0.172663,-0.007814,0.058291
584,-0.558484,-3.182765,9.109550,45.946075,2.329433,-2.148851,-17.880093,0.668251,6.596627,0.986146,-0.155472,-0.003190,0.057739
585,0.088307,-3.120732,9.579893,36.015514,0.909377,-3.058077,-16.483709,0.818680,6.505311,0.987994,-0.143519,-0.001074,0.057174
586,-0.639871,-2.609237,10.366830,24.536705,-0.063704,-0.062549,-15.329440,0.913511,6.454336,0.989403,-0.133605,0.000380,0.056852
587,-1.143557,-3.077036,10.758729,12.555716,-1.408685,6.949766,-14.593973,1.421041,6.578609,0.990101,-0.127499,0.004993,0.058481
588,-0.426609,-2.849030,10.308958,10.481490,-2.644350,7.769682,-14.301780,1.802631,6.834829,0.990218,-0.125176,0.008161,0.061093
589,-0.136528,-1.772016,10.199522,14.596578,-0.965899,7.366863,-13.636774,1.793281,7.102693,0.990784,-0.119443,0.008155,0.063352
590,-0.851595,-1.523489,10.095713,18.339779,-0.000909,12.878751,-12.445231,1.982135,7.455821,0.991734,-0.109264,0.010112,0.066497
591,-0.021521,-1.387648,9.519272,20.836199,0.274098,12.976609,-11.164435,2.149970,7.900465,0.992593,-0.098312,0.011928,0.070372
592,0.731687,-0.821551,9.510408,24.190577,0.874084,6.816018,-9.714355,1.671192,8.238525,0.993640,-0.085488,0.008412,0.072799
593,0.347272,-0.690175,10.033820,24.449392,1.490263,2.368978,-8.103996,1.056364,8.391451,0.994737,-0.071142,0.004001,0.073627
594,0.326070,-0.771660,10.208474,24.631105,0.995231,-2.216689,-6.650393,0.662825,8.390880,0.995600,-0.058269,0.001516,0.073369
595,0.415100,-0.587401,9.880689,23.418806,0.273026,-8.480831,-5.383418,0.268789,8.209276,0.996324,-0.047009,-0.001024,0.071609
596,0.463068,-0.762828,9.910769,21.430408,-1.882044,-13.478432,-4.354846,-0.189269,7.841920,0.996942,-0.037792,-0.004245,0.068268
597,0.311685,-0.926147,9.903100,21.827148,-3.534602,-17.642811,-3.630853,-0.618677,7.326429,0.997452,-0.031270,-0.007409,0.063688
598,0.293733,-0.836589,9.674335,21.170233,-3.562974,-21.431744,-3.058866,-0.956512,6.682139,0.997923,-0.026158,-0.009885,0.058034
599,0.073643,-1.016962,9.966836,15.651129,-3.462457,-23.803026,-2.703444,-1.150247,5.938124,0.998342,-0.023037,-0.011243,0.051543
600,-0.124565,-0.850543,10.076486,16.023352,-3.473870,-24.897045,-2.485656,-1.143900,5.138838,0.998720,-0.021219,-0.010942,0.044601
601,-0.339323,-0.724962,9.980232,18.419319,-1.406124,-22.887304,-2.150234,-0.927993,4.352709,0.999076,-0.018442,-0.008803,0.037816
602,-0.416210,-0.605900,9.923611,17.916285,-1.007250,-19.012875,-1.736750,-0.564502,3.662446,0.999365,-0.014990,-0.005407,0.031877
603,-0.347452,-0.640572,10.004711,19.688322,-0.956465,-14.927892,-1.324192,-0.220804,3.103565,0.999565,-0.011499,-0.002239,0.027056
604,-0.368486,-0.513457,9.897871,24.644863,-1.247811,-10.658299,-0.822658,0.061033,2.682327,0.999700,-0.007189,0.000364,0.023409
605,-0.297956,-0.598665,9.784148,26.643911,-1.791223,-6.368896,-0.256783,0.276622,2.402137,0.999775,-0.002291,0.002366,0.020966
606,-0.160726,-0.406254,9.729072,26.544647,-3.267536,-4.325677,0.308039,0.349106,2.224961,0.999803,0.002628,0.003098,0.019407
607,-0.011057,-0.329876,9.690156,24.579319,-4.083777,-1.788069,0.866894,0.253464,2.121018,0.999798,0.007523,0.002351,0.018491
608,0.045796,-0.194376,9.790526,19.836849,-4.315987,-0.698564,1.323015,0.060737,2.075209,0.999769,0.011534,0.000739,0.018101
609,0.169739,-0.158563,9.712317,14.366511,-4.426381,-0.381164,1.609030,-0.189957,2.052294,0.999739,0.014068,-0.001406,0.017930
610,0.206244,-0.217013,9.877603,9.116192,-4.097804,-0.165976,1.467894,-0.536657,2.040536,0.999747,0.012891,-0.004454,0.017864
611,0.213482,-0.219553,9.928109,7.440045,-3.825797,0.358997,0.997266,-0.895614,2.047302,0.999771,0.008841,-0.007659,0.017932
612,0.264884,-0.117365,9.972064,5.328280,-2.850085,-0.347453,0.622839,-1.183049,2.054264,0.999770,0.005619,-0.010225,0.017981
613,0.241319,-0.146793,9.955437,4.598322,-2.115143,-0.402340,0.370084,-1.376560,2.049269,0.999762,0.003444,-0.011953,0.017920
614,0.176731,-0.219751,9.984441,3.506747,-1.007217,-0.939420,0.092598,-1.407610,2.036087,0.999766,0.001026,-0.012267,0.017776
615,0.189696,-0.117797,9.965880,1.793060,-0.458957,-2.546183,-0.137780,-1.341452,1.985435,0.999781,-0.000999,-0.011725,0.017310
616,0.028794,-0.350744,9.946393,-3.181072,0.242046,-4.468821,-0.386385,-1.224929,1.873562,0.999804,-0.003196,-0.010743,0.016312
617,0.063455,-0.342405,9.979418,-9.020414,0.029094,-7.427560,-0.816439,-1.086800,1.679552,0.999823,-0.006985,-0.009587,0.014588
618,0.090838,-0.417695,9.735711,-17.919159,-0.240524,-10.776940,-1.474413,-1.002155,1.379492,0.999808,-0.012760,-0.008899,0.011924
619,0.141064,-0.384945,9.873557,-30.971197,-1.027656,-13.222980,-2.442093,-0.987855,0.982407,0.999701,-0.021234,-0.008801,0.008387
620,0.051123,-0.549154,9.853510,-33.768723,-1.013631,-11.692457,-3.614184,-0.985504,0.570284,0.999455,-0.031490,-0.008753,0.004703
621,0.191977,-0.571633,9.679702,-35.664093,-0.746414,-9.383723,-4.799469,-1.004585,0.221573,0.999084,-0.041852,-0.008840,0.001565
622,0.226463,-0.805667,9.619177,-40.569859,-0.029391,-6.205234,-6.048719,-1.074701,-0.035834,0.998563,-0.052761,-0.009349,-0.000807
623,0.351263,-1.148081,9.997003,-40.893520,0.170085,-3.235822,-7.435892,-1.175457,-0.190184,0.997840,-0.064858,-0.010128,-0.002321
624,0.260868,-1.392778,9.714681,-31.532375,0.314626,-1.171285,-8.722898,-1.262807,-0.260139,0.997039,-0.076068,-0.010815,-0.003101
625,0.353567,-1.334461,9.627898,-34.030281,0.280671,-0.907358,-9.807463,-1.336537,-0.294701,0.996266,-0.085506,-0.011401,-0.003559
626,0.366391,-1.391866,10.078341,-29.601120,0.443440,3.589441,-10.683968,-1.419887,-0.255436,0.995575,-0.093120,-0.012129,-0.003373
627,0.385051,-1.640804,10.297490,0.132727,1.663718,11.936141,-10.943045,-1.432000,-0.012515,0.995366,-0.095345,-0.012429,-0.001300
628,0.227582,-1.562634,9.968130,36.457077,2.414296,19.001110,-10.100801,-1.308736,0.476029,0.996048,-0.087978,-0.011742,0.003132
629,0.197215,-1.399637,9.909358,55.128136,2.705859,23.609392,-8.315994,-1.090483,1.157327,0.997279,-0.072404,-0.010223,0.009382
630,0.241294,-1.476854,10.066268,63.300148,2.652425,24.668367,-6.221304,-0.906317,1.941272,0.998359,-0.054121,-0.008815,0.016485
631,0.206928,-1.288435,9.856977,64.012329,1.834345,19.474102,-4.194894,-0.801892,2.667179,0.999041,-0.036426,-0.007843,0.023001
632,0.034848,-0.868576,9.601026,46.541279,0.081157,10.428431,-2.506204,-0.720962,3.164664,0.999364,-0.021687,-0.006891,0.027469
633,0.070513,-0.551203,9.789398,20.270386,-0.586897,3.116223,-1.508258,-0.661819,3.393465,0.999461,-0.012985,-0.006162,0.029530
634,0.160508,-0.455434,10.028076,6.868741,-0.672416,-1.405083,-1.249671,-0.695573,3.425129,0.999478,-0.010719,-0.006393,0.029817
635,0.110227,-0.269231,9.912855,6.736580,-0.907539,-4.223460,-1.208166,-0.750044,3.334026,0.999502,-0.010348,-0.006849,0.029020
636,0.112291,-0.209856,9.825631,7.880809,-0.956266,-4.835351,-1.005446,-0.763434,3.184195,0.999555,-0.008585,-0.006903,0.027724
637,0.106453,-0.137564,9.878378,6.644938,-1.429142,-5.039824,-0.735525,-0.773458,3.019991,0.999611,-0.006238,-0.006916,0.026307
638,0.093974,-0.068380,9.937639,5.821305,-1.871409,-4.933010,-0.452324,-0.779817,2.853576,0.999660,-0.003777,-0.006901,0.024872
639,0.101740,0.005235,9.908085,6.818283,-2.171733,-4.832304,-0.129593,-0.791599,2.689968,0.999700,-0.000968,-0.006933,0.023464
640,0.139416,0.125856,9.912223,6.420908,-2.295215,-4.324183,0.271854,-0.842187,2.535039,0.999725,0.002534,-0.007295,0.022137
641,0.175561,0.214996,9.929059,5.024378,-2.095442,-3.881681,0.708165,-0.938779,2.394099,0.999728,0.006349,-0.008061,0.020940
642,0.218505,0.270991,9.930430,4.215327,-1.419785,-3.515475,1.107463,-1.060970,2.265753,0.999713,0.009845,-0.009065,0.019859
643,0.229475,0.276195,9.895190,4.037691,-0.645008,-3.103484,1.426688,-1.171368,2.151117,0.999692,0.012639,-0.009986,0.018896
644,0.248224,0.307334,9.920160,3.084546,0.050462,-2.703694,1.659322,-1.249118,2.051573,0.999673,0.014672,-0.010638,0.018057
645,0.214910,0.313747,9.912913,3.025369,0.605729,-2.442764,1.829870,-1.269385,1.964564,0.999661,0.016155,-0.010800,0.017317
646,0.196879,0.328744,9.909901,3.263563,0.929318,-2.349689,1.966204,-1.222555,1.884904,0.999658,0.017330,-0.010383,0.016628
647,0.180603,0.355527,9.906651,2.688396,0.885273,-2.297816,2.088207,-1.148167,1.808159,0.999656,0.018377,-0.009729,0.015958
648,0.158307,0.334242,9.936543,1.870452,0.649032,-2.371069,2.155999,-1.064435,1.731587,0.999663,0.018951,-0.009002,0.015282
649,0.128315,0.267799,9.953866,2.774808,0.272502,-2.422956,2.131285,-0.971179,1.654262,0.999685,0.018718,-0.008204,0.014590
650,0.164658,0.325230,9.911613,3.987342,-0.247607,-2.453471,2.129753,-0.921622,1.575105,0.999699,0.018693,-0.007785,0.013892
651,0.178121,0.336856,9.957019,3.210349,-0.760373,-2.578590,2.191905,-0.946253,1.491641,0.999696,0.019232,-0.008006,0.013172
652,0.179830,0.317687,9.957094,4.252185,-0.963447,-2.903601,2.243648,-0.996839,1.400410,0.999694,0.019682,-0.008457,0.012388
653,0.183417,0.382082,9.918569,5.820569,-1.027636,-3.127904,2.359732,-1.045925,1.299478,0.999680,0.020692,-0.008891,0.011525
654,0.189782,0.464090,9.894996,5.381294,-0.946837,-3.369001,2.586865,-1.089226,1.189090,0.999644,0.022669,-0.009268,0.010588
656,0.183202,0.463613,9.911628,3.973143,-0.696600,-3.423939,2.800533,-1.113937,1.073626,0.999608,0.024526,-0.009489,0.009603
657,0.170347,0.483725,9.893393,4.095276,-0.449294,-3.088242,2.949093,-1.106241,0.964056,0.999585,0.025812,-0.009434,0.008658
658,0.166889,0.507924,9.884838,3.361300,-0.096625,-2.555702,3.073964,-1.074528,0.869720,0.999566,0.026891,-0.009170,0.007838
659,0.193849,0.523064,9.896017,2.613560,0.095704,-2.042994,3.167506,-1.057817,0.793361,0.999550,0.027700,-0.009036,0.007176
660,0.191983,0.595651,9.896055,2.007920,0.269594,-1.545542,3.276124,-1.061405,0.733403,0.999526,0.028643,-0.009075,0.006662
661,0.176111,0.618665,9.901979,1.394882,0.495426,-1.241890,3.410479,-1.046903,0.686325,0.999496,0.029811,-0.008953,0.006258
662,0.156485,0.549156,9.935405,1.350664,0.809894,-1.145764,3.463878,-0.997415,0.647779,0.999488,0.030271,-0.008529,0.005913
663,0.141561,0.591205,9.897319,2.464396,0.947443,-0.970293,3.489052,-0.922674,0.615062,0.999488,0.030485,-0.007885,0.005610
664,0.125739,0.627084,9.912373,1.500067,1.114020,-0.819241,3.566931,-0.836301,0.587287,0.999475,0.031158,-0.007135,0.005350
665,0.114530,0.575869,9.925543,1.033057,1.234817,-0.749064,3.594059,-0.745774,0.563890,0.999474,0.031390,-0.006350,0.005122
666,0.107159,0.550963,9.912091,1.501077,1.222812,-0.781114,3.548714,-0.662829,0.542154,0.999492,0.030990,-0.005635,0.004908
667,0.110193,0.614170,9.871511,1.072025,1.042853,-0.848257,3.538392,-0.603219,0.518059,0.999498,0.030896,-0.005122,0.004681
