seq,ax,ay,az,wroll,wpitch,wyaw,roll,pitch,yaw,q0,q1,q2,q3
61,-0.116691,-1.932035,9.720602,-2.314100,2.031115,-1.017442,-11.241419,0.674578,-0.134074,0.995175,-0.097934,0.005973,-0.000588
62,-0.105364,-1.989696,9.565307,12.765435,12.433454,-38.531364,-11.076053,0.783533,-0.827461,0.995288,-0.096452,0.007502,-0.006527
63,-0.309290,-1.800108,9.725891,15.369030,14.741032,-39.770569,-10.628081,0.982895,-2.194360,0.995498,-0.092431,0.010312,-0.018271
64,-0.444758,-1.612274,10.118002,21.779264,14.215030,-39.384888,-10.035830,1.221229,-3.578804,0.995654,-0.087088,0.013342,-0.030173
65,-0.724622,-1.559147,10.582036,24.064276,14.396286,-34.640118,-9.302454,1.484716,-4.875073,0.995766,-0.080461,0.016350,-0.041337
66,-0.855216,-1.418848,10.598138,22.999763,13.639866,-27.783224,-8.549747,1.785325,-5.975602,0.995802,-0.073621,0.019400,-0.050812
67,-0.791670,-1.353313,10.761696,16.962843,11.296108,-22.639454,-7.914002,2.076590,-6.867237,0.995737,-0.067790,0.022177,-0.058491
68,-0.738335,-1.432978,10.740074,12.272199,9.136076,-18.365480,-7.454562,2.322538,-7.590563,0.995579,-0.063513,0.024481,-0.064724
69,-0.711840,-1.430583,10.524127,7.260153,7.397410,-14.194200,-7.153314,2.526774,-8.164362,0.995376,-0.060644,0.026390,-0.069659
70,-0.627730,-1.312937,10.186888,2.439872,5.852561,-11.815400,-7.012515,2.692359,-8.622283,0.995137,-0.059205,0.027979,-0.073578
71,-0.680348,-1.293101,9.782445,-2.787391,4.885940,-10.141000,-7.036855,2.825105,-9.007848,0.994849,-0.059229,0.029346,-0.076847
72,-0.755642,-1.338343,9.607059,-7.260875,2.584807,-7.755455,-7.219926,2.911494,-9.319706,0.994526,-0.060676,0.030384,-0.079458
73,-0.705413,-1.176292,9.102567,-8.080069,0.089888,-7.474707,-7.488702,2.923079,-9.577543,0.994198,-0.062931,0.030813,-0.081617
74,-0.471030,-1.324735,8.917013,-13.401797,-4.104058,-6.065178,-7.857468,2.826618,-9.792567,0.993851,-0.066145,0.030363,-0.083442
75,-0.090987,-1.526239,8.903411,-12.628029,-10.009651,-2.944694,-8.296672,2.572495,-9.908383,0.993544,-0.070117,0.028550,-0.084494
76,0.231222,-1.516809,9.125296,-5.648083,-14.920651,-1.554402,-8.601696,2.150373,-9.921698,0.993395,-0.073081,0.025125,-0.084814
77,0.289270,-1.404640,9.129823,1.840744,-15.916324,-1.685414,-8.664307,1.634111,-9.898241,0.993417,-0.074022,0.020682,-0.084943
78,0.250578,-1.479230,9.424767,3.545597,-16.392832,0.313862,-8.573157,1.098280,-9.840415,0.993544,-0.073647,0.015933,-0.084811
79,0.079044,-1.374638,9.523958,6.258885,-15.423755,2.584529,-8.407826,0.580967,-9.714400,0.993747,-0.072614,0.011245,-0.084073
80,-0.050541,-1.317621,9.611731,4.200818,-14.038365,4.728590,-8.232253,0.112749,-9.522865,0.993984,-0.071449,0.006936,-0.082723
81,-0.048328,-1.279517,9.646266,-0.923383,-13.257452,9.927596,-8.178048,-0.302601,-9.216125,0.994212,-0.071287,0.003103,-0.080322
82,0.131828,-1.289215,9.563278,-5.829640,-14.194537,17.439241,-8.294890,-0.689930,-8.699017,0.994458,-0.072569,-0.000503,-0.076075
83,0.310110,-1.470027,9.700450,-9.848426,-14.046049,24.612339,-8.567561,-1.052623,-7.936530,0.994726,-0.075148,-0.003969,-0.069692
84,0.432547,-1.554067,9.747574,-11.284109,-13.327648,30.259523,-8.940031,-1.364247,-6.962951,0.994991,-0.078509,-0.007114,-0.061463
85,0.345853,-1.565529,9.692645,-14.428454,-12.194534,35.958572,-9.398337,-1.608334,-5.805302,0.995204,-0.082519,-0.009822,-0.051612
86,0.162453,-1.623680,9.801761,-17.966682,-11.755074,41.352154,-9.977546,-1.784851,-4.467490,0.995281,-0.087489,-0.012115,-0.040177
87,-0.097008,-1.939502,9.969626,-21.551516,-11.269114,46.541485,-10.684458,-1.899502,-2.956950,0.995148,-0.093486,-0.014096,-0.027229
88,-0.120451,-2.024655,9.752857,-23.006872,-12.541203,49.255470,-11.482443,-1.981837,-1.313199,0.994750,-0.100211,-0.016060,-0.013130
89,-0.088902,-2.211907,9.632400,-25.036444,-14.018501,51.065044,-12.344159,-2.069773,0.414726,0.994042,-0.107432,-0.018345,0.001656
90,0.018012,-2.377252,9.492533,-23.606636,-14.099956,50.361740,-13.219389,-2.152658,2.167551,0.993041,-0.114711,-0.020833,0.016624
91,0.127648,-2.576341,9.312304,-24.308817,-12.765022,46.702595,-14.081665,-2.206106,3.845936,0.991795,-0.121844,-0.023207,0.030938
92,0.372529,-2.560997,9.221636,-23.760586,-11.584987,40.751343,-14.941241,-2.233449,5.359429,0.990358,-0.128948,-0.025380,0.043816
93,0.415154,-2.595179,9.344919,-23.474760,-9.131731,34.628708,-15.779211,-2.233315,6.663007,0.988828,-0.135885,-0.027246,0.054881
94,0.211519,-2.578586,9.564959,-21.953747,-5.275349,27.137735,-16.576817,-2.176758,7.719211,0.987317,-0.142538,-0.028455,0.063865
95,-0.058215,-2.613634,9.567256,-19.817816,-1.501140,20.636688,-17.302120,-2.052478,8.514339,0.985937,-0.148663,-0.028822,0.070690
96,-0.292026,-2.532925,9.396172,-16.110357,2.402216,14.614506,-17.919693,-1.860174,9.070158,0.984775,-0.153966,-0.028297,0.075574
97,-0.540967,-2.631063,9.406825,-13.784885,7.069472,8.056299,-18.427088,-1.592198,9.380176,0.983880,-0.158442,-0.026760,0.078486
98,-0.800140,-2.825948,9.424027,-8.416244,12.344482,1.161541,-18.797939,-1.236304,9.422640,0.983329,-0.161873,-0.024020,0.079272
99,-0.798880,-2.868787,9.317625,-5.111974,16.632851,-5.368841,-19.019224,-0.801937,9.199979,0.983150,-0.164123,-0.020129,0.077942
100,-0.866812,-3.143507,9.497546,-6.531561,21.556709,-12.066173,-19.208447,-0.295519,8.717126,0.983162,-0.166165,-0.015215,0.074503
101,-0.867412,-3.411859,9.485869,-6.374962,23.998743,-17.586048,-19.423101,0.257568,7.999622,0.983240,-0.168431,-0.009556,0.069132
102,-0.770953,-3.383665,9.323791,-7.715706,23.539072,-20.291075,-19.665602,0.793095,7.139705,0.983301,-0.170863,-0.003827,0.062529
103,-0.607209,-3.252044,8.952777,-13.268744,20.789013,-20.613516,-20.031099,1.256455,6.247482,0.983134,-0.174235,0.001305,0.055563
104,-0.454170,-3.463772,8.895555,-19.310236,15.799159,-19.468464,-20.594767,1.596022,5.408873,0.982585,-0.179187,0.005254,0.048906
105,-0.082767,-3.351045,8.703082,-20.835215,7.944858,-19.248835,-21.285259,1.734502,4.664216,0.981758,-0.185114,0.007349,0.042780
106,0.074406,-3.437239,8.831216,-23.908268,3.040634,-18.517500,-22.049984,1.672022,4.011057,0.980741,-0.191601,0.007621,0.037135
107,0.161916,-3.747948,8.981505,-22.974239,-1.053365,-17.137053,-22.846533,1.475452,3.448822,0.979589,-0.198329,0.006655,0.032042
108,0.235825,-3.789783,9.377228,-15.517287,-4.936904,-15.817194,-23.498583,1.167437,2.982899,0.978612,-0.203810,0.004671,0.027555
109,0.288979,-3.820977,9.567213,-4.838732,-8.117396,-13.418155,-23.843746,0.772683,2.623649,0.978120,-0.206670,0.001866,0.023792
110,0.174914,-3.789356,9.608330,3.292303,-10.453872,-8.421124,-23.871391,0.342591,2.415594,0.978146,-0.206829,-0.001435,0.021241
111,0.269164,-3.877106,9.583613,7.024765,-14.089511,-2.401569,-23.699272,-0.104349,2.415260,0.978476,-0.205279,-0.005219,0.020439
112,0.417610,-3.871251,9.497965,9.267063,-17.230141,2.631431,-23.428785,-0.581186,2.627340,0.978925,-0.202863,-0.009619,0.021419
113,0.348287,-3.835298,9.097399,4.067928,-18.746122,7.442927,-23.211977,-1.065241,3.018863,0.979221,-0.200862,-0.014402,0.023932
114,0.307289,-4.027235,8.582196,-6.398228,-18.433193,11.499368,-23.262646,-1.509828,3.553727,0.978992,-0.201099,-0.019150,0.027713
115,0.310420,-4.270913,8.391102,-13.502392,-16.062056,13.215692,-23.612047,-1.873064,4.160911,0.978191,-0.203856,-0.023415,0.032188
116,0.326790,-4.239364,8.448443,-13.659370,-12.576776,12.210664,-24.084917,-2.137971,4.742065,0.977147,-0.207667,-0.026860,0.036564
117,0.357271,-4.288500,8.512615,-13.923850,-7.665428,9.237999,-24.562553,-2.298059,5.207190,0.976104,-0.211559,-0.029234,0.040116
118,0.294230,-4.664191,8.821316,-11.065241,-0.159313,5.864824,-24.990372,-2.310810,5.490716,0.975204,-0.215122,-0.030025,0.042396
119,0.186211,-4.432672,9.075727,-3.151139,6.548316,1.501356,-25.229782,-2.162163,5.556904,0.974739,-0.217209,-0.028975,0.043180
120,0.138562,-4.204786,9.243276,3.895851,10.760104,-1.574587,-25.212883,-1.901631,5.432957,0.974833,-0.217210,-0.026518,0.042627
121,-0.077267,-4.058708,9.219738,9.906459,14.935254,-3.302885,-24.975098,-1.548217,5.177733,0.975389,-0.215391,-0.022943,0.041178
122,-0.448945,-3.783865,9.246696,16.379459,18.531425,-3.673252,-24.529171,-1.090323,4.838634,0.976347,-0.211835,-0.018256,0.039228
123,-0.427179,-3.454525,9.149440,21.489605,17.474030,-3.465317,-23.892859,-0.591734,4.484127,0.977621,-0.206638,-0.013146,0.037206
124,-0.386761,-3.443592,9.222328,21.514366,15.300529,-3.162634,-23.174141,-0.134907,4.164988,0.978981,-0.200682,-0.008451,0.035361
125,-0.345642,-3.410851,9.231915,19.205648,13.496396,-2.615036,-22.495834,0.270087,3.890102,0.980209,-0.195020,-0.004310,0.033748
126,-0.393031,-3.372772,9.332911,14.421639,11.660951,-1.501114,-21.937162,0.632303,3.668067,0.981180,-0.190344,-0.000675,0.032469
127,-0.261927,-3.205150,9.278023,21.960690,11.436948,1.051695,-21.332937,0.987364,3.519088,0.982172,-0.185257,0.002780,0.031767
128,-0.126960,-3.236566,9.293318,12.607675,4.387736,0.443625,-20.758284,1.242641,3.447788,0.983075,-0.180390,0.005242,0.031542
129,-0.011326,-3.243825,9.337971,4.878950,-0.969244,-0.567772,-20.467331,1.295271,3.425901,0.983529,-0.177905,0.005808,0.031422
130,0.156041,-3.283720,9.265546,-3.239434,0.869920,-1.378007,-20.440670,1.282395,3.396171,0.983580,-0.177671,0.005751,0.031146
131,0.537900,-3.367708,9.158072,-4.903232,-4.334872,-3.168236,-20.577490,1.201739,3.345429,0.983392,-0.178824,0.005101,0.030592
132,0.709062,-3.670981,9.327937,-9.027544,-8.161667,-4.938766,-20.810638,0.959147,3.292576,0.983071,-0.180766,0.003040,0.029767
133,0.620962,-3.511979,9.474668,-5.029520,-9.427600,-7.009353,-21.046030,0.614195,3.211288,0.982754,-0.182704,0.000150,0.028527
134,0.648173,-3.482515,9.351215,-0.951282,-11.201802,-7.040604,-21.146414,0.209186,3.116436,0.982647,-0.183472,-0.003196,0.027066
135,0.485186,-3.643416,9.219937,-2.091274,-11.931602,-4.527198,-21.197088,-0.219948,3.075771,0.982594,-0.183809,-0.006822,0.026027
136,-0.028603,-3.552150,9.043265,-1.939482,-8.795058,-0.589693,-21.264505,-0.572837,3.121409,0.982480,-0.184300,-0.009936,0.025846
137,-0.238606,-3.570842,8.753667,-2.495684,-6.142467,4.640888,-21.340157,-0.780268,3.274787,0.982322,-0.184882,-0.011979,0.026819
138,-0.186762,-3.911458,8.648396,-6.847725,-5.267630,8.970956,-21.499821,-0.874464,3.555490,0.981993,-0.186195,-0.013280,0.029055
139,-0.173253,-4.037521,8.675446,-8.744816,-4.389348,11.359402,-21.765415,-0.899116,3.929895,0.981459,-0.188418,-0.014174,0.032190
140,-0.017980,-4.140742,8.938910,-8.358191,-3.379087,11.624570,-22.056671,-0.876274,4.333682,0.980858,-0.190868,-0.014733,0.035648
141,0.219481,-4.264007,9.055090,-6.350417,-2.341694,9.143465,-22.307093,-0.833890,4.690250,0.980322,-0.192980,-0.015049,0.038738
142,0.326717,-4.203392,9.194026,-3.478657,-0.724577,5.191490,-22.474314,-0.790139,4.930649,0.979956,-0.194395,-0.015139,0.040847
143,0.259540,-4.061953,9.148976,-6.059391,-1.258727,1.513655,-22.634853,-0.777801,5.046552,0.979640,-0.195757,-0.015289,0.041837
144,0.017665,-3.981544,9.125602,-1.217909,6.413757,1.673472,-22.756353,-0.677983,5.062384,0.979424,-0.196832,-0.014507,0.042128
145,-0.272225,-3.543524,8.994601,11.177369,14.961061,2.688127,-22.589724,-0.321228,4.992232,0.979722,-0.195552,-0.011276,0.042159
147,-0.221393,-3.647693,8.953952,6.904047,11.014597,1.925159,-22.288181,0.108294,4.898275,0.980240,-0.193140,-0.007333,0.042109
148,-0.338115,-3.628303,9.068435,6.784597,10.704832,2.362667,-22.060390,0.470465,4.827782,0.980614,-0.191325,-0.004032,0.042124
149,-0.290425,-3.591839,9.144167,6.407945,6.321525,1.386854,-21.841047,0.757029,4.779664,0.980963,-0.189549,-0.001418,0.042193
150,0.002637,-3.645086,9.319397,3.431218,-4.224174,-2.090856,-21.677382,0.785155,4.755870,0.981238,-0.188157,-0.001078,0.042037
151,0.247258,-3.829867,9.405846,-0.704122,-5.104631,-1.868784,-21.631956,0.616298,4.752032,0.981335,-0.187710,-0.002501,0.041729
152,0.274780,-3.601668,9.427263,0.618792,-5.693446,-3.397160,-21.633514,0.416651,4.736848,0.981359,-0.187655,-0.004187,0.041272
153,0.473946,-3.561336,9.340165,-0.414631,-7.420660,-3.931115,-21.630291,0.168454,4.703865,0.981398,-0.187542,-0.006258,0.040584
154,0.372657,-3.735320,9.250284,-1.853977,-6.629879,-5.141988,-21.668127,-0.104992,4.649726,0.981374,-0.187774,-0.008524,0.039670
155,0.018818,-3.499849,9.019783,-0.644951,-3.134155,-5.714401,-21.709396,-0.323075,4.541765,0.981354,-0.188061,-0.010229,0.038384
156,-0.234461,-3.462129,8.980757,-2.190280,0.205215,-4.186118,-21.755816,-0.429504,4.406548,0.981326,-0.188434,-0.010933,0.037047
157,-0.373328,-3.572693,9.078632,-3.600092,1.644452,-1.534097,-21.851606,-0.436308,4.306603,0.981200,-0.189262,-0.010857,0.036171
158,-0.385238,-3.647859,9.063409,-1.965289,11.655486,3.436723,-21.944073,-0.218833,4.253370,0.981056,-0.190129,-0.008936,0.036068
159,-0.352606,-3.552351,9.119088,2.537527,10.900406,4.766946,-21.934587,0.180956,4.239841,0.981052,-0.190176,-0.005488,0.036616
160,-0.169150,-3.693891,9.232404,1.336406,4.317165,3.392519,-21.869888,0.467005,4.271539,0.981124,-0.189710,-0.003071,0.037363
161,-0.064594,-3.637073,9.216093,3.683547,0.582656,3.207900,-21.785603,0.583724,4.343304,0.981228,-0.189023,-0.002162,0.038172
162,0.044435,-3.563314,9.180061,5.078102,0.954180,3.009272,-21.638674,0.645849,4.430143,0.981434,-0.187784,-0.001723,0.039020
163,-0.169737,-3.517472,9.079667,5.147490,3.219417,4.388970,-21.467155,0.755830,4.519281,0.981670,-0.186349,-0.000868,0.039965
164,-0.215432,-3.319172,9.018365,10.742051,5.440905,7.331002,-21.200377,0.961344,4.648700,0.982029,-0.184131,0.000779,0.041405
165,-0.183219,-3.245207,8.971902,4.450333,2.220829,10.841334,-20.942728,1.189375,4.885470,0.982319,-0.182004,0.002451,0.043793
166,-0.239653,-3.145146,9.040054,3.288329,0.191997,14.402469,-20.805374,1.377050,5.264276,0.982355,-0.180905,0.003515,0.047333
167,-0.269616,-2.975631,9.014171,3.613258,-1.911428,17.568689,-20.677481,1.539028,5.772888,0.982306,-0.179889,0.004159,0.051942
168,-0.153350,-2.760778,9.234130,2.875518,-4.250536,18.409132,-20.552761,1.654045,6.370507,0.982193,-0.178892,0.004269,0.057238
169,0.036742,-2.370918,9.211002,5.905263,-5.792362,14.440421,-20.389839,1.688756,6.942198,0.982141,-0.177532,0.003762,0.062186
170,0.154275,-2.353571,9.223699,7.340373,-5.885415,8.476377,-20.156826,1.638369,7.368128,0.982273,-0.175521,0.002804,0.065754
171,0.357988,-2.388810,9.016839,7.875762,-5.837481,1.772079,-19.897058,1.513164,7.595628,0.982564,-0.173230,0.001535,0.067510
172,0.389956,-2.384832,9.015602,8.189594,-4.056861,-5.321016,-19.629398,1.337848,7.595760,0.983001,-0.170838,0.000188,0.067249
173,0.290364,-2.471408,8.921812,9.037660,-3.064527,-6.755004,-19.345642,1.158674,7.445592,0.983543,-0.168306,-0.000963,0.065698
174,0.232439,-3.135035,9.164518,4.810341,-13.117047,-6.020432,-19.116829,0.833876,7.333347,0.983995,-0.166168,-0.003458,0.064268
175,0.366770,-3.273127,9.272717,0.354483,-15.837432,-5.837462,-19.030869,0.313254,7.304519,0.984206,-0.165149,-0.007840,0.063275
176,0.158819,-3.445654,9.589160,0.522881,-3.714447,0.136479,-19.016157,-0.025780,7.321094,0.984253,-0.164835,-0.010768,0.062931
177,0.299037,-3.916174,9.945512,-1.534332,-4.365047,3.979258,-19.033104,-0.130721,7.429818,0.984177,-0.164912,-0.011835,0.063712
178,0.561835,-4.116836,9.940145,-2.044101,-4.184548,0.492002,-19.093092,-0.241049,7.546809,0.984034,-0.165352,-0.012985,0.064551
179,0.399695,-4.155776,9.839204,-2.475615,-1.317035,-3.794402,-19.168341,-0.345697,7.524859,0.983945,-0.165942,-0.013894,0.064202
180,0.048234,-4.297346,9.810142,-3.783455,1.624276,-4.251319,-19.271881,-0.384979,7.396560,0.983869,-0.166824,-0.014102,0.063031
181,0.079311,-4.290539,9.630539,-4.078678,1.871557,-5.031700,-19.401840,-0.381233,7.231300,0.983769,-0.167962,-0.013899,0.061602
182,-0.070395,-4.169508,9.149146,-5.100887,2.471732,-7.136176,-19.553406,-0.380604,7.015967,0.983660,-0.169289,-0.013657,0.059736
183,-0.277424,-4.205760,8.853255,-6.434169,3.063380,-5.543870,-19.744154,-0.364777,6.785913,0.983493,-0.170962,-0.013278,0.057762
184,-0.284613,-4.111178,8.783495,-6.732071,2.559147,-4.137618,-19.962496,-0.331478,6.602332,0.983255,-0.172873,-0.012825,0.056212
185,-0.246164,-3.982655,8.699059,-6.781690,1.430092,-2.942200,-20.186979,-0.309560,6.468681,0.982978,-0.174825,-0.012543,0.055074
186,-0.158652,-4.033353,8.783913,-24.132547,4.482017,0.126920,-20.701836,-0.233648,6.390286,0.982215,-0.179285,-0.012017,0.054464
187,-0.167156,-3.948955,8.928886,-18.143253,3.656294,1.840941,-21.406385,-0.095453,6.372220,0.981092,-0.185389,-0.011140,0.054458
188,-0.125802,-3.939022,9.175077,-7.352760,-1.800477,-0.089455,-21.831347,-0.056035,6.388016,0.980387,-0.189043,-0.011030,0.054617
189,0.095317,-3.950657,8.866051,-7.136002,-3.143685,-1.785319,-22.072830,-0.144163,6.389692,0.979993,-0.191066,-0.011902,0.054460
190,0.143579,-4.062462,9.058665,-8.816538,-2.912237,-2.154626,-22.338629,-0.262407,6.367007,0.979567,-0.193285,-0.013001,0.054039
191,0.095004,-4.068400,9.057919,-6.763451,-1.235302,-3.158488,-22.598001,-0.360121,6.311611,0.979160,-0.195461,-0.013863,0.053369
192,0.137598,-4.083735,9.062101,-4.566868,0.085247,-5.811842,-22.785946,-0.435443,6.181078,0.978903,-0.197048,-0.014370,0.052102
193,0.101265,-4.017664,9.107321,-0.373088,1.548627,-5.547085,-22.866812,-0.483725,5.996009,0.978849,-0.197739,-0.014499,0.050427
194,-0.042923,-4.068365,9.344622,3.197005,2.635508,-3.120974,-22.818428,-0.475483,5.835790,0.979002,-0.197350,-0.014132,0.049079
195,-0.100021,-3.931197,9.175165,7.272225,6.829389,-0.040019,-22.643175,-0.350296,5.726238,0.979342,-0.195920,-0.012800,0.048378
196,-0.139625,-3.803048,9.134865,9.776958,6.916948,1.030942,-22.358772,-0.132265,5.653790,0.979842,-0.193589,-0.010693,0.048159
197,-0.182924,-3.770047,9.146052,10.443658,6.482607,4.384303,-22.021778,0.108637,5.653042,0.980387,-0.190809,-0.008489,0.048585
198,-0.209740,-3.518711,9.061351,15.640668,5.873921,5.912119,-21.586761,0.363662,5.735868,0.981044,-0.187188,-0.006256,0.049742
199,-0.144251,-3.356349,9.168444,17.294930,2.662386,6.792662,-21.036688,0.573176,5.881525,0.981843,-0.182560,-0.004454,0.051353
200,-0.077172,-3.343200,9.218554,14.245260,-0.361483,7.208107,-20.508833,0.691847,6.086239,0.982564,-0.178081,-0.003518,0.053312
201,0.011293,-3.301697,9.253802,11.897997,-3.430990,7.164733,-20.070147,0.715727,6.332932,0.983119,-0.174321,-0.003484,0.055478
202,0.034753,-3.142303,9.215416,11.065325,-4.128096,7.136611,-19.684237,0.678364,6.600025,0.983573,-0.170983,-0.004016,0.057726
203,0.112166,-3.398993,9.159698,-1.981737,-5.983447,6.588277,-19.529833,0.596393,6.872094,0.983674,-0.169606,-0.005045,0.059946
204,0.054117,-3.366620,9.120732,-4.123741,-3.893171,5.273161,-19.629301,0.507810,7.113626,0.983410,-0.170402,-0.006217,0.061884
205,0.007291,-3.339562,9.056194,-5.808584,-2.032536,4.265554,-19.793268,0.468508,7.296631,0.983070,-0.171778,-0.006917,0.063386
206,0.015403,-3.460585,9.035657,-5.983113,-0.405866,3.906603,-19.988605,0.476674,7.438560,0.982695,-0.173449,-0.007170,0.064604
207,0.012626,-3.617881,9.118517,-6.890822,-0.370797,2.331712,-20.202288,0.500256,7.540673,0.982309,-0.175288,-0.007244,0.065501
208,0.010818,-3.637269,9.164321,-5.695101,-0.641646,0.452837,-20.411623,0.500567,7.590046,0.981959,-0.177079,-0.007438,0.065912
209,-0.016291,-3.759951,9.169538,-6.325742,-0.578882,-0.546194,-20.611925,0.480991,7.595703,0.981647,-0.178784,-0.007729,0.065917
210,-0.013078,-3.843051,9.075557,-7.475712,-0.861860,-1.141384,-20.842096,0.448592,7.577891,0.981301,-0.180738,-0.008111,0.065697
211,-0.058846,-3.825491,9.133009,-7.966848,-0.747009,-1.550357,-21.099710,0.407504,7.545591,0.980916,-0.182923,-0.008559,0.065337
212,-0.056739,-3.755436,9.159996,-7.291527,-0.914316,-1.584026,-21.354282,0.362787,7.506921,0.980536,-0.185080,-0.009024,0.064915
213,-0.066905,-3.644902,9.234868,-5.632523,-0.543443,-1.269900,-21.569889,0.322774,7.471537,0.980211,-0.186905,-0.009431,0.064530
214,-0.026841,-3.652246,9.206329,-5.018198,-0.606963,-0.712640,-21.747530,0.292761,7.447906,0.979937,-0.188410,-0.009749,0.064264
215,0.049015,-3.533354,9.259124,-3.399074,-0.335619,-2.100880,-21.887997,0.260743,7.410211,0.979731,-0.189597,-0.010039,0.063877
216,0.123830,-3.525704,9.165147,-2.678768,0.644305,-3.994238,-21.989704,0.227580,7.314053,0.979619,-0.190456,-0.010219,0.062991
217,0.136519,-3.650122,9.095294,-4.602754,1.726651,-5.860308,-22.111698,0.202565,7.146988,0.979510,-0.191501,-0.010221,0.061510
218,0.134008,-3.590649,9.034979,-5.787007,2.684465,-8.420131,-22.285700,0.180706,6.898852,0.979351,-0.192999,-0.010083,0.059337
219,0.040380,-3.518329,9.065045,-5.893043,4.335727,-9.992910,-22.481377,0.172044,6.570537,0.979187,-0.194695,-0.009701,0.056500
220,-0.056564,-3.535491,9.207929,-7.582121,4.998711,-9.945795,-22.707134,0.188029,6.203974,0.978976,-0.196661,-0.009047,0.053377
221,-0.052202,-3.504221,9.224323,-8.188553,3.931980,-10.622169,-22.971231,0.192106,5.830290,0.978688,-0.198948,-0.008486,0.050172
222,-0.117918,-3.297221,9.248315,-5.405717,3.830748,-11.075401,-23.198977,0.169320,5.446874,0.978456,-0.200911,-0.008108,0.046841
223,-0.165434,-3.438541,9.257181,-6.999494,3.676439,-10.908654,-23.406759,0.139372,5.060860,0.978244,-0.202700,-0.007766,0.043479
224,-0.063908,-3.322360,9.115233,-6.775830,2.521100,-12.499710,-23.637100,0.078330,4.661922,0.977985,-0.204671,-0.007662,0.039949
225,-0.025232,-3.421142,8.876367,-10.498918,2.818222,-13.294539,-23.925209,-0.013569,4.232616,0.977617,-0.207128,-0.007770,0.036102
226,-0.143984,-3.490059,8.797492,-15.968708,3.995869,-11.060893,-24.366003,-0.076080,3.815787,0.976941,-0.210896,-0.007675,0.032403
227,-0.162180,-3.740715,8.936927,-23.708628,3.861828,-7.405495,-25.026852,-0.085902,3.481552,0.975799,-0.216546,-0.007313,0.029494
228,-0.108933,-4.234150,8.876986,-31.420303,2.249587,-2.563680,-25.945396,-0.065802,3.287832,0.974080,-0.224378,-0.006999,0.027827
229,-0.201189,-4.417499,9.109273,-29.613895,1.704103,2.983545,-26.962555,-0.004141,3.264786,0.972052,-0.233032,-0.006676,0.027693
230,-0.285313,-4.437881,9.272882,-19.373554,-0.293936,9.675251,-27.778807,0.113339,3.441492,0.970316,-0.239969,-0.006248,0.029387
231,-0.318506,-4.603288,9.293271,-6.569351,-2.148058,15.526310,-28.209890,0.274012,3.831633,0.969287,-0.243639,-0.005829,0.033005
232,-0.131223,-4.760735,8.894197,3.369044,-5.338012,18.378801,-28.259836,0.430868,4.388691,0.968992,-0.244080,-0.005704,0.038048
233,-0.154319,-4.415522,8.928159,14.159386,-6.688442,21.086027,-27.961950,0.563568,5.063402,0.969365,-0.241572,-0.005904,0.044050
234,-0.060323,-4.491952,8.756519,15.602635,-7.957617,23.851576,-27.457430,0.695249,5.840072,0.970078,-0.237313,-0.006203,0.050924
235,0.147751,-4.494298,8.632809,12.343887,-7.972232,22.269789,-26.981121,0.810769,6.645092,0.970654,-0.233286,-0.006652,0.058004
236,0.190394,-4.541152,8.639597,5.404328,-5.924736,21.128742,-26.673962,0.930654,7.395114,0.970852,-0.230700,-0.006990,0.064618
237,0.002310,-4.318548,9.021634,4.806430,-2.546127,18.937803,-26.491985,1.103554,8.055461,0.970791,-0.229214,-0.006743,0.070569
238,-0.033213,-4.187316,9.012008,8.984638,-0.712124,15.103277,-26.250799,1.306891,8.587955,0.970885,-0.227262,-0.005926,0.075496
239,0.039039,-4.323539,8.989174,12.956806,1.045759,9.133433,-25.876255,1.489129,8.948535,0.971333,-0.224186,-0.004839,0.078925
240,-0.055560,-4.210020,9.089621,17.130653,-1.383598,0.116825,-25.370998,1.550454,9.090101,0.972198,-0.219935,-0.004242,0.080263
241,-0.096254,-3.929651,9.118835,18.305836,4.219862,-5.548226,-24.783197,1.554599,8.988277,0.973383,-0.214951,-0.003604,0.079427
242,-0.093540,-3.890871,8.895142,13.980272,4.558770,-12.163266,-24.254099,1.564901,8.658757,0.974587,-0.210469,-0.002544,0.076659
243,-0.266291,-4.058564,8.970845,11.177643,7.835320,-14.943963,-23.848335,1.569063,8.161927,0.975648,-0.207027,-0.001340,0.072446
244,-0.316574,-3.844144,9.049206,14.293286,7.106926,-19.089373,-23.440868,1.569482,7.542174,0.976756,-0.203560,0.000022,0.067169
245,-0.083320,-3.821852,8.985663,20.503670,1.428396,-24.285349,-22.879618,1.415987,6.821446,0.978177,-0.198692,0.000291,0.060753
246,-0.407970,-3.635882,9.125027,28.857582,2.470653,-21.050436,-22.073053,1.187403,6.098525,0.979958,-0.191694,-0.000027,0.054189
247,-0.280907,-3.524469,9.115624,37.630554,1.042652,-16.140102,-20.976604,1.015069,5.500137,0.982044,-0.182236,-0.000034,0.048786
248,0.122878,-3.464459,9.239577,35.152599,-3.874881,-15.673331,-19.771229,0.787052,5.019406,0.984133,-0.171809,-0.000758,0.044315
250,-0.155710,-3.478811,9.382051,29.795650,-0.923999,-9.893170,-18.693161,0.571304,4.643896,0.985869,-0.162470,-0.001664,0.040785
251,-0.465296,-3.337967,9.433104,27.472010,4.619066,-0.859896,-17.740746,0.573988,4.454142,0.987251,-0.154273,-0.001047,0.039166
252,-0.324897,-3.357108,9.356646,19.497086,2.146369,2.476837,-16.958187,0.690095,4.445687,0.988273,-0.147566,0.000233,0.039249
253,-0.307439,-3.214751,9.412785,18.135307,0.689556,5.247666,-16.329641,0.772471,4.555516,0.989021,-0.142171,0.001023,0.040297
254,-0.449783,-3.071382,9.400348,18.426262,1.474241,7.924008,-15.717445,0.867877,4.756595,0.989684,-0.136921,0.001822,0.042141
255,-0.218291,-2.766578,9.434084,17.447042,-2.115697,9.155426,-15.115212,0.933340,5.033813,0.990277,-0.131746,0.002291,0.044601
256,-0.127932,-2.512979,9.488032,18.322678,-4.307389,10.526564,-14.513587,0.913833,5.378477,0.990819,-0.126545,0.001976,0.047548
257,0.188527,-2.542282,9.475526,16.165808,-6.108303,5.970661,-13.934185,0.813182,5.687755,0.991326,-0.121496,0.001017,0.050107
258,0.040660,-2.750224,9.535507,11.524634,-3.051728,1.510395,-13.470715,0.694280,5.845196,0.991752,-0.117436,0.000029,0.051344
259,-0.077849,-2.531273,9.328956,12.245904,-1.062923,-0.062809,-13.074111,0.632957,5.884398,0.992141,-0.113976,-0.000363,0.051622
260,-0.227643,-2.439475,9.284330,4.202968,3.701321,-0.662877,-12.800219,0.673048,5.862716,0.992417,-0.111622,0.000129,0.051474
261,-0.459554,-2.556304,9.355950,-4.830171,10.737844,0.461758,-12.811456,0.906925,5.805988,0.992406,-0.111820,0.002205,0.051209
262,-0.625797,-2.584728,9.340226,0.906160,2.688711,4.456564,-12.876338,1.143286,5.836020,0.992299,-0.112485,0.004193,0.051701
263,-0.450583,-2.422387,9.376286,-8.150561,4.712682,9.864873,-12.992790,1.316900,6.041155,0.992065,-0.113578,0.005441,0.053651
264,-0.434685,-2.357095,9.484512,-4.694644,-2.031742,10.610641,-13.199142,1.437835,6.363418,0.991684,-0.115435,0.006066,0.056570
265,-0.347941,-2.526437,9.547094,-9.008308,-3.431299,11.308399,-13.418258,1.433208,6.739926,0.991271,-0.117348,0.005533,0.059835
266,-0.175034,-2.682754,9.470462,-11.229316,-4.686314,11.776180,-13.745574,1.392151,7.145778,0.990721,-0.120176,0.004581,0.063317
267,0.040101,-2.605073,9.557331,-9.557734,-4.568531,8.723277,-14.083305,1.324637,7.514576,0.990165,-0.123071,0.003415,0.066445
268,-0.030816,-2.516746,9.567407,-9.272107,-2.863890,5.994230,-14.391099,1.264926,7.782837,0.989683,-0.125703,0.002426,0.068707
269,-0.028058,-2.588241,9.605100,-10.570445,-2.193527,4.695323,-14.717587,1.228177,7.976525,0.989210,-0.128504,0.001696,0.070345
270,0.031597,-2.462258,9.515512,-9.296551,-1.585604,2.570235,-15.045873,1.198456,8.109770,0.988760,-0.131321,0.001085,0.071465
271,0.061973,-2.401827,9.553760,-10.115750,-0.862743,0.828189,-15.368062,1.173977,8.175143,0.988350,-0.134087,0.000596,0.072004
272,-0.125178,-2.467378,9.578955,-12.983898,1.390308,-0.339923,-15.752943,1.184679,8.180632,0.987889,-0.137412,0.000440,0.072065
273,-0.184609,-2.504120,9.579890,-12.796850,2.468806,-1.129441,-16.183483,1.239827,8.139431,0.987382,-0.141156,0.000696,0.071779
274,-0.236314,-2.438791,9.593742,-11.932741,3.299458,-1.958193,-16.597342,1.317570,8.062943,0.986899,-0.144766,0.001203,0.071219
275,-0.230326,-2.515079,9.585594,-12.184004,2.868672,-1.688704,-17.001362,1.398452,7.975041,0.986421,-0.148292,0.001762,0.070570
276,-0.350200,-2.596993,9.616748,-12.243049,3.251848,-1.079899,-17.410341,1.482232,7.900755,0.985914,-0.151859,0.002329,0.070046
277,-0.245117,-2.565445,9.596890,-11.102757,1.560331,-0.624743,-17.800802,1.550070,7.849416,0.985409,-0.155255,0.002744,0.069703
278,-0.234730,-2.634004,9.583502,-11.408331,0.612770,0.708017,-18.176250,1.584923,7.839512,0.984893,-0.158502,0.002829,0.069674
279,-0.159540,-2.594160,9.532836,-10.456364,-0.874325,1.723077,-18.539557,1.593504,7.879342,0.984360,-0.161630,0.002625,0.070037
280,-0.111763,-2.860758,9.540230,-11.842270,-1.909355,2.785182,-18.908819,1.573644,7.965400,0.983785,-0.164791,0.002105,0.070756
281,-0.044279,-2.805842,9.536506,-9.427815,-2.423293,2.683547,-19.260338,1.535176,8.075168,0.983215,-0.167788,0.001397,0.071648
282,-0.080442,-2.798456,9.526313,-8.302634,-2.187950,3.106337,-19.552769,1.494731,8.191740,0.982719,-0.170273,0.000694,0.072592
283,-0.051294,-2.859983,9.518670,-7.498814,-2.221157,2.974737,-19.813021,1.459660,8.311965,0.982261,-0.172484,0.000048,0.073571
284,-0.048282,-3.029793,9.492128,-7.387568,-1.938449,2.365545,-20.058424,1.424831,8.419303,0.981828,-0.174566,-0.000572,0.074438
285,-0.127780,-2.816532,9.432709,-3.988172,-0.972647,2.399835,-20.245768,1.406656,8.510608,0.981485,-0.176159,-0.000990,0.075192
286,-0.110680,-2.921490,9.404705,-4.360894,-1.078524,2.280356,-20.382826,1.401658,8.595660,0.981219,-0.177329,-0.001254,0.075911
287,-0.056424,-3.010135,9.394810,-3.884606,-1.226913,1.153418,-20.518623,1.385655,8.662726,0.980967,-0.178480,-0.001586,0.076459
288,-0.082517,-3.014523,9.370849,-3.131791,-0.954215,0.549362,-20.634621,1.361604,8.702076,0.980765,-0.179458,-0.001931,0.076757
289,-0.139685,-3.065430,9.421144,-3.196826,-0.637339,0.416253,-20.739521,1.342477,8.726509,0.980588,-0.180343,-0.002203,0.076934
290,-0.070659,-3.110805,9.451302,-3.363635,-1.198069,-1.027048,-20.848829,1.310267,8.727854,0.980422,-0.181258,-0.002554,0.076893
291,-0.117206,-3.128951,9.463513,-2.667418,-0.762351,-1.489012,-20.949970,1.264794,8.700320,0.980290,-0.182095,-0.002967,0.076584
292,-0.175319,-3.172720,9.454488,-2.289047,-0.526497,-1.252664,-21.033340,1.228375,8.665343,0.980188,-0.182786,-0.003279,0.076225
293,-0.197598,-3.080105,9.411330,-0.475193,-0.759259,-0.976876,-21.079981,1.195026,8.638359,0.980138,-0.183164,-0.003552,0.075940
294,-0.072335,-3.178575,9.433956,-0.351453,-1.833771,-1.227127,-21.094141,1.141489,8.619626,0.980139,-0.183253,-0.003990,0.075694
295,-0.091745,-3.069483,9.460102,13.923872,-4.050128,-2.271146,-20.868298,1.029049,8.600295,0.980534,-0.181250,-0.004772,0.075360
296,-0.078905,-3.002728,9.400531,16.688059,-4.159114,-1.043046,-20.358166,0.881562,8.596687,0.981361,-0.176791,-0.005695,0.075124
297,-0.092576,-2.981949,9.379990,17.616102,-3.466356,0.417883,-19.785942,0.758663,8.630479,0.982231,-0.171808,-0.006424,0.075258
298,-0.019334,-3.172258,9.460570,11.954842,-4.595907,-0.293653,-19.292530,0.632771,8.677317,0.982951,-0.167494,-0.007248,0.075503
299,-0.084503,-2.963665,9.443959,18.071526,-1.997121,0.382154,-18.791725,0.529392,8.714660,0.983665,-0.163127,-0.007859,0.075708
300,-0.113659,-2.931961,9.362741,18.200073,-0.048465,1.786712,-18.186802,0.508500,8.759611,0.984485,-0.157916,-0.007700,0.076106
301,-0.032297,-3.059797,9.451035,9.337254,-2.201283,-0.051856,-17.727514,0.481778,8.798577,0.985088,-0.153949,-0.007677,0.076436
302,-0.105609,-2.997915,9.649715,8.103901,-0.300513,-0.495943,-17.436806,0.439260,8.802574,0.985479,-0.151421,-0.007854,0.076433
303,-0.153852,-2.867215,9.530563,13.256901,1.063625,1.777165,-17.080673,0.457721,8.819163,0.985931,-0.148369,-0.007480,0.076624
304,-0.182856,-2.850141,9.538553,12.113792,1.032389,3.152646,-16.657251,0.515033,8.887610,0.986419,-0.144758,-0.006789,0.077312
305,-0.105014,-2.959417,9.560103,7.913860,-2.144110,2.770087,-16.322559,0.525332,8.987510,0.986768,-0.141878,-0.006599,0.078205
306,-0.161544,-2.961613,9.550165,13.321628,-1.964841,3.443023,-15.967611,0.488388,9.106096,0.987126,-0.138789,-0.006818,0.079202
307,-0.034142,-2.917118,9.404758,13.920532,-2.572611,3.341722,-15.512523,0.446245,9.235429,0.987585,-0.134831,-0.007019,0.080294
308,0.036278,-3.095823,9.623357,12.464596,-2.268374,1.617063,-15.072044,0.390213,9.336445,0.988032,-0.130988,-0.007309,0.081127
309,0.106568,-3.085776,9.738122,13.324952,-2.129791,-1.329305,-14.642095,0.320547,9.359892,0.988508,-0.127230,-0.007632,0.081279
310,-0.001271,-3.213069,10.007833,9.728761,-1.539358,-2.371464,-14.258104,0.245847,9.315434,0.988968,-0.123867,-0.007956,0.080840
311,0.008225,-2.522635,10.446471,10.197032,-0.739860,-4.396805,-13.926394,0.181494,9.215287,0.989400,-0.120966,-0.008172,0.079931
312,-0.291459,-2.476911,11.868157,-5.155910,3.135872,-0.718966,-13.842695,0.199752,9.122923,0.989550,-0.120262,-0.007859,0.079158
313,-0.935399,-4.072597,12.746128,-29.807220,12.479301,11.658267,-14.424755,0.496556,9.236128,0.988814,-0.125485,-0.005823,0.080418
314,-0.653574,-4.835466,14.315695,-35.624344,7.299902,9.629963,-15.512163,0.906419,9.493727,0.987334,-0.135138,-0.003357,0.083058
315,-0.488518,-5.919493,14.408462,-24.554157,6.265049,10.881563,-16.510181,1.218132,9.759363,0.985866,-0.143947,-0.001731,0.085698
316,-0.409240,-6.671234,13.642727,0.369003,6.399148,6.454339,-16.908142,1.503019,9.975659,0.985136,-0.147575,0.000143,0.087913
317,-0.292112,-6.940639,12.001346,26.371157,6.401093,1.817359,-16.460386,1.746684,10.046981,0.985594,-0.143905,0.002494,0.088826
318,0.081606,-5.227456,11.612860,64.989075,4.348755,-8.776633,-14.942827,1.887469,9.887269,0.987503,-0.130938,0.005066,0.087566
319,-0.276483,-5.089493,10.281117,74.193741,11.291414,-6.516427,-12.634356,2.079156,9.578442,0.990128,-0.111136,0.008785,0.084959
320,-0.439873,-4.163973,9.964617,83.116867,10.883648,-7.093672,-10.025554,2.397121,9.282278,0.992544,-0.088758,0.013700,0.082409
321,-0.556392,-2.448856,9.459743,97.047585,7.882129,-5.426753,-7.035874,2.675347,9.029779,0.994634,-0.062988,0.018399,0.079976
322,-0.509889,-1.591347,9.365801,89.756706,4.473768,-5.185005,-3.934371,2.863909,8.834909,0.996064,-0.036138,0.022258,0.077809
323,-0.454290,-0.580560,8.384768,77.949089,-2.696709,-5.393283,-1.150206,2.885614,8.658061,0.996762,-0.011906,0.024349,0.075708
324,-0.445755,0.658183,7.495378,68.896988,-4.163184,-5.626556,1.286878,2.771370,8.475588,0.996931,0.009409,0.024944,0.073599
325,-0.361331,2.359983,6.865003,56.236935,-1.745238,-4.914664,3.362989,2.679965,8.296267,0.996728,0.027568,0.025436,0.071600
326,-0.811883,1.927043,7.219707,4.465375,6.589271,-0.086546,4.370625,2.766087,8.218206,0.996480,0.036294,0.026788,0.070665
327,-1.045146,2.510030,7.178566,-9.685780,8.540509,1.524281,4.285659,3.015826,8.260273,0.996431,0.035387,0.028920,0.070965
328,-0.304326,1.937278,6.756522,-28.915867,0.131262,3.610608,3.647407,3.154116,8.355538,0.996524,0.029724,0.029752,0.071913
329,-0.241356,1.982066,6.376050,-28.034250,-0.181977,6.210706,2.707173,3.144254,8.518570,0.996633,0.021511,0.029106,0.073575
330,-0.603577,0.705480,5.336255,-37.691467,4.908801,3.765024,1.621223,3.216503,8.687902,0.996665,0.011976,0.029053,0.075310
331,0.105584,-0.199283,4.566279,-37.736500,-6.861126,-0.778916,0.367083,3.183410,8.737523,0.996711,0.001077,0.027940,0.076057
332,0.154736,-0.929969,3.679688,-35.705021,-8.325614,-4.562768,-0.861591,2.930366,8.648394,0.996785,-0.009423,0.024929,0.075565
333,-0.198619,-0.767336,3.061348,-22.168072,0.712034,-8.435680,-1.836782,2.798769,8.434381,0.996838,-0.017776,0.023174,0.073896
334,-0.323077,-1.299234,2.489028,-25.863554,2.512535,-9.854503,-2.652518,2.841033,8.127813,0.996871,-0.024837,0.023081,0.071401
335,-0.009926,-1.096099,2.742712,-10.517280,-8.409573,-8.290813,-3.273298,2.727259,7.830632,0.996930,-0.030111,0.021783,0.068913
336,-0.087550,-0.712337,2.796563,2.901721,-8.652186,-6.633359,-3.410430,2.429121,7.598060,0.997095,-0.031089,0.019169,0.066842
337,0.051394,-0.932590,3.230755,0.564570,-12.760780,-0.730228,-3.356612,2.065832,7.496242,0.997236,-0.030398,0.016066,0.065859
338,-0.005440,-1.159752,4.168485,5.837993,-13.582887,-0.879430,-3.249759,1.625969,7.494834,0.997334,-0.029219,0.012300,0.065727
339,-0.097179,-0.690001,5.797809,11.871174,-10.422120,0.727280,-2.954141,1.226342,7.513793,0.997444,-0.026421,0.008986,0.065773
340,0.381312,-0.168268,8.408246,10.476201,-11.163890,-3.155454,-2.582070,0.865073,7.490499,0.997572,-0.022975,0.006059,0.065472
341,-0.032599,0.350344,10.624844,0.742941,-5.317463,-6.328692,-2.397032,0.583677,7.344563,0.997709,-0.021199,0.003742,0.064141
342,-0.412964,0.585244,12.684373,-9.058405,0.824882,-10.148094,-2.538309,0.496897,7.073538,0.997835,-0.022374,0.002961,0.061769
343,-0.233435,0.592149,14.643247,-24.516071,1.508856,-13.121025,-3.101461,0.516515,6.684393,0.997916,-0.027278,0.002920,0.058399
344,-0.494078,0.254520,15.907111,-31.025244,4.281143,-14.222681,-4.031538,0.584160,6.223560,0.997885,-0.035399,0.003178,0.054429
345,-1.038930,0.037342,15.862666,-29.510902,3.671274,-8.420834,-5.044751,0.686284,5.837038,0.997704,-0.044256,0.003735,0.051129
347,-0.921695,-1.423029,15.957852,-28.873550,2.444192,-0.247360,-6.019735,0.773412,5.683430,0.997352,-0.052776,0.004129,0.049861
348,-0.161475,-1.726397,16.017179,-25.460697,-3.392673,-3.521595,-6.926090,0.750046,5.622779,0.996932,-0.060651,0.003563,0.049353
349,-0.718963,-1.936633,15.849817,-25.966789,0.622666,-0.599935,-7.783928,0.695651,5.560150,0.996481,-0.068088,0.002757,0.048801
350,-0.099236,-2.735904,15.622885,-35.984554,-3.586907,-0.411705,-8.816502,0.644186,5.550874,0.995836,-0.077043,0.001877,0.048709
351,0.039041,-4.043590,15.235726,-48.618202,-3.934104,-3.983368,-10.226898,0.508393,5.499099,0.994845,-0.089237,0.000138,0.048174
352,0.193005,-3.855731,14.591225,-39.766617,-2.083665,-10.823734,-11.701436,0.363328,5.275954,0.993717,-0.101974,-0.001541,0.046108
353,-0.206334,-4.564129,13.335178,-35.809044,1.142749,-8.779130,-12.962676,0.279146,4.960119,0.992663,-0.112878,-0.002466,0.043270
354,0.000199,-4.977230,12.718940,-23.408966,3.059645,-5.547907,-13.950830,0.291672,4.711923,0.991743,-0.121444,-0.002468,0.041112
355,-0.208968,-4.597208,12.019924,6.093714,5.154778,-4.537961,-14.240599,0.383548,4.515751,0.991496,-0.123987,-0.001565,0.039508
356,-0.450743,-3.783705,11.371483,42.250698,9.627954,0.038944,-13.436040,0.605245,4.384259,0.992370,-0.117096,0.000767,0.038605
357,-0.382318,-3.167500,10.804444,55.790833,8.153576,4.366292,-11.802233,0.910972,4.391440,0.993908,-0.103036,0.003963,0.038926
358,0.037741,-2.046206,10.477346,69.156990,6.065466,3.506198,-9.718899,1.168715,4.476459,0.995560,-0.085040,0.006846,0.039775
359,-0.244689,-0.528293,9.326319,83.241089,6.836744,3.418117,-7.178155,1.398078,4.559580,0.997144,-0.063030,0.009677,0.040462
360,-0.398849,0.409464,8.733043,71.972382,9.632598,5.075987,-4.589705,1.685320,4.672323,0.998236,-0.040603,0.013051,0.041314
361,-0.213448,1.168390,8.032469,52.941444,6.913217,4.380980,-2.504400,1.970528,4.811794,0.998716,-0.022552,0.016259,0.042338
362,-0.563543,1.971496,7.459449,33.406715,11.803479,7.779649,-1.058541,2.288651,5.004783,0.998797,-0.010099,0.019548,0.043835
363,-0.806678,2.651863,7.272095,8.766480,11.352305,10.726021,-0.342633,2.678902,5.307752,0.998647,-0.004068,0.023212,0.046359
364,-0.781682,1.943083,7.724640,-26.792864,9.264519,11.830012,-0.624613,3.026362,5.680545,0.998401,-0.006751,0.026104,0.049678
365,-0.018459,1.536108,7.230675,-35.845871,-1.153773,12.973308,-1.646449,3.170622,6.090789,0.998081,-0.015811,0.026860,0.053498
366,-0.116823,0.957447,6.622788,-43.161293,0.127466,13.357338,-2.939125,3.171233,6.529681,0.997626,-0.027170,0.026157,0.057619
367,-0.363808,0.358837,5.862707,-39.929840,1.459324,12.130479,-4.300110,3.224633,6.952656,0.996998,-0.039138,0.025791,0.061623
368,0.119464,-0.971522,4.926826,-39.518085,-7.361311,10.317579,-5.602724,3.158969,7.334542,0.996295,-0.050516,0.024350,0.065206
369,0.350600,-1.479636,3.559201,-30.295692,-12.664587,6.012887,-6.750311,2.856542,7.640549,0.995640,-0.060382,0.020906,0.067955
370,-0.323677,-1.693920,2.536211,-26.791693,4.370810,0.290476,-7.695972,2.732732,7.761587,0.995066,-0.068547,0.019196,0.069106
371,-0.207276,-1.558829,1.853915,-26.536282,-0.435686,-3.105054,-8.587275,2.791532,7.706883,0.994521,-0.076309,0.019205,0.068816
372,0.276475,-1.649049,1.454159,-29.937618,-18.004015,-4.749756,-9.532141,2.467618,7.625573,0.993987,-0.084311,0.015887,0.068036
373,-0.378288,-1.499504,1.884656,-16.417032,2.913212,-0.844273,-10.306548,2.203717,7.575899,0.993484,-0.090873,0.013178,0.067508
374,-0.395516,-1.614409,2.586658,-7.253529,-1.783506,2.939698,-10.699881,2.228635,7.607765,0.993142,-0.094300,0.013136,0.067849
375,0.283054,-1.344780,4.536983,5.300240,-17.869724,-1.234424,-10.729244,1.911927,7.696550,0.993132,-0.094385,0.010299,0.068368
376,-0.414386,-0.903479,6.944072,8.880270,-7.153214,2.795369,-10.489992,1.506727,7.798622,0.993340,-0.092086,0.006847,0.068912
377,-0.485481,-0.625591,10.095802,2.686945,-2.233831,-3.970464,-10.296851,1.349321,7.807286,0.993514,-0.090320,0.005591,0.068854
378,-0.484053,-1.396323,12.518880,-25.375511,-0.581571,-4.673363,-10.678127,1.276858,7.674158,0.993299,-0.093577,0.004843,0.067660
379,-0.568508,-0.998397,14.700284,-20.095387,0.057772,-6.344606,-11.439878,1.232825,7.495764,0.992765,-0.100147,0.004167,0.066107
380,-0.712038,-0.607541,15.308439,-9.340923,0.167877,-2.811056,-11.933668,1.205765,7.345542,0.992415,-0.104404,0.003785,0.064799
381,-0.342983,-1.263672,15.877362,-12.823294,-1.405668,-5.022928,-12.305614,1.158178,7.222201,0.992147,-0.107595,0.003278,0.063699
382,0.041721,-2.344446,15.494748,-13.081201,-5.525903,-2.377138,-12.739148,1.018678,7.126791,0.991805,-0.111271,0.001923,0.062751
383,-0.007578,-1.682962,14.951015,11.989117,-6.076877,-2.620637,-12.757906,0.811576,7.088112,0.991835,-0.111324,0.000157,0.062217
384,0.362275,-2.145209,14.721896,-2.433584,-4.690983,-4.987339,-12.599698,0.608729,7.003410,0.992056,-0.109848,-0.001432,0.061290
385,0.135484,-2.965667,15.102651,-25.183687,-0.782396,-5.915217,-13.061516,0.479315,6.846695,0.991701,-0.113781,-0.002643,0.059800
386,-0.037175,-3.887296,15.716832,-39.275452,5.239331,-5.501265,-14.137579,0.506578,6.644632,0.990690,-0.123107,-0.002752,0.058055
387,-0.233457,-4.708931,16.213947,-41.033203,7.209227,-3.766766,-15.478043,0.667546,6.442728,0.989265,-0.134770,-0.001804,0.056464
388,-0.255912,-5.431269,15.893603,-26.303864,9.693290,-4.402715,-16.603058,0.900495,6.234253,0.987966,-0.144587,-0.000087,0.054939
389,-0.470936,-5.256564,14.751390,-0.254077,10.921103,-3.844861,-17.049871,1.189882,6.003631,0.987461,-0.148566,0.002492,0.053323
390,-0.928144,-5.455819,13.330910,16.605925,11.889015,2.299618,-16.780582,1.546537,5.868933,0.987809,-0.146394,0.005864,0.052608
391,-0.610043,-4.850554,11.411088,37.359745,8.383066,5.536690,-15.880430,1.907750,5.899668,0.988845,-0.138786,0.009358,0.053258
392,-0.528516,-3.609791,10.426614,46.750141,5.422547,7.800912,-14.473322,2.188179,6.054757,0.990342,-0.126770,0.012264,0.054785
393,-0.547093,-3.601175,10.613999,30.890017,5.437956,14.353013,-13.166844,2.452280,6.370692,0.991508,-0.115628,0.014855,0.057637
394,-0.501171,-3.490507,10.484914,31.070276,3.160018,17.548100,-12.112435,2.709383,6.858131,0.992212,-0.106692,0.017159,0.061952
395,-0.636086,-2.505825,10.044554,52.427967,2.078799,19.490664,-10.692200,2.917245,7.446739,0.993072,-0.094591,0.019242,0.067003
396,-0.297948,-1.419794,10.046349,66.442734,-4.145098,18.318546,-8.679222,2.988580,8.074715,0.994181,-0.077285,0.020612,0.072149
397,-0.188339,-0.958610,9.246524,71.156326,-3.448966,17.753685,-6.355332,2.941081,8.688793,0.995158,-0.057196,0.021352,0.077028
398,-0.315079,0.751746,7.571037,84.749252,-0.991959,12.132863,-3.732481,2.910843,9.191689,0.995868,-0.034485,0.022695,0.080883
399,-0.736049,1.638017,7.001719,62.696182,5.580346,10.224554,-1.257439,3.001846,9.560403,0.996096,-0.013114,0.025186,0.083586
400,-0.229665,1.688531,7.033805,20.896376,2.557352,7.626292,0.151181,3.140529,9.855582,0.995932,-0.001040,0.027415,0.085832
401,-0.403706,1.789188,6.974017,-6.578398,4.595433,5.021489,0.401547,3.259361,10.067162,0.995743,0.000994,0.028637,0.087604
402,-0.778003,1.908079,6.636049,-22.139130,7.406382,2.560088,-0.069587,3.459398,10.194042,0.995590,-0.003286,0.030011,0.088820
403,-0.153223,1.454004,6.700622,-37.885910,-0.751708,3.903960,-1.063356,3.571589,10.300737,0.995410,-0.012035,0.030203,0.090010
404,0.050232,0.889208,5.713655,-38.841225,-5.855136,4.496557,-2.333316,3.465688,10.443477,0.995132,-0.023018,0.028255,0.091563
405,-0.183350,-0.023870,5.186155,-36.631947,-4.487556,0.776784,-3.585392,3.298031,10.539833,0.994791,-0.033780,0.025769,0.092661
406,-0.102297,-0.718892,4.066285,-27.212896,-5.479934,-0.351954,-4.648308,3.133194,10.558922,0.994465,-0.042879,0.023470,0.093008
407,0.202897,-0.987695,2.903456,-21.566172,-12.290143,-3.888636,-5.463560,2.832039,10.514364,0.994250,-0.049707,0.020214,0.092667
408,-0.301039,-1.509437,2.053218,-27.082989,0.089581,-5.093169,-6.280495,2.614649,10.385575,0.994028,-0.056603,0.017731,0.091592
409,-0.062047,-1.364321,2.148918,-12.658529,-7.400169,-5.599476,-6.950172,2.473196,10.223242,0.993843,-0.062279,0.016056,0.090215
410,0.047081,-1.066020,2.084769,-0.728524,-11.374142,-8.260210,-7.180885,2.134413,10.031829,0.993941,-0.063999,0.013043,0.088408
411,-0.224541,-1.606078,2.848942,-5.305384,-3.593568,-6.427382,-7.288821,1.856312,9.819912,0.994097,-0.064706,0.010667,0.086432
412,-0.174383,-1.007600,4.880247,14.192539,-8.792381,-9.110339,-7.147809,1.618902,9.588988,0.994390,-0.063290,0.008841,0.084289
413,-0.685860,-0.438531,7.258599,13.584203,-2.567755,-8.254829,-6.691782,1.396388,9.324125,0.994861,-0.059155,0.007381,0.081843
414,0.076152,-0.702123,9.676340,1.248891,-10.549938,-17.455015,-6.453529,1.130148,8.923183,0.995298,-0.056881,0.005438,0.078217
415,-0.760754,-0.510809,11.980259,-5.115758,-1.644916,-13.653503,-6.526453,0.869098,8.431339,0.995617,-0.057324,0.003367,0.073820
416,-0.231434,0.155995,14.086135,-11.682303,-5.365384,-14.552410,-6.812897,0.698214,7.978127,0.995771,-0.059697,0.001934,0.069803
417,-0.530256,-0.645755,14.882357,-23.037540,0.704103,-11.777102,-7.396127,0.566647,7.552274,0.995718,-0.064683,0.000676,0.066039
418,0.193637,-1.307540,15.217209,-28.785728,-4.815425,-10.497767,-8.263151,0.447765,7.194214,0.995411,-0.072149,-0.000631,0.062858
419,-0.473899,-1.242433,15.319302,-28.060234,1.908522,-4.089533,-9.212007,0.362677,6.961013,0.994911,-0.080346,-0.001726,0.060766
420,0.056408,-1.645920,14.676742,-29.147640,-1.288599,-3.056564,-10.166236,0.352470,6.842409,0.994271,-0.088625,-0.002229,0.059713
421,0.020876,-2.628411,14.217827,-32.296555,-0.070046,-4.639928,-11.190901,0.306335,6.720357,0.993505,-0.097492,-0.003059,0.058593
422,-0.147138,-3.222927,14.069876,-31.683624,-0.652425,-1.982880,-12.257687,0.272225,6.614816,0.992611,-0.106723,-0.003801,0.057616
423,-0.031086,-2.983301,14.237474,-24.813892,-0.920937,-6.057498,-13.199752,0.216919,6.489888,0.991766,-0.114857,-0.004628,0.056447
424,-0.303161,-3.515674,14.394650,-25.384289,-0.007896,-5.946848,-14.036959,0.155100,6.298988,0.990998,-0.122079,-0.005372,0.054695
425,0.062054,-3.988263,14.975489,-25.235277,-0.835254,-6.861416,-14.881010,0.088195,6.095857,0.990172,-0.129354,-0.006123,0.052823
426,-0.258335,-3.868025,14.937341,-18.028471,2.185330,-8.550695,-15.602311,0.042423,5.842060,0.989455,-0.135578,-0.006551,0.050538
427,-0.323432,-3.682317,14.571690,-0.772243,4.783186,-7.210307,-15.916009,0.083116,5.557820,0.989200,-0.138319,-0.005995,0.048116
428,-0.379725,-4.035697,13.165832,12.678891,6.317045,-3.388229,-15.718195,0.213311,5.337557,0.989519,-0.136675,-0.004525,0.046379
429,-0.184745,-3.931653,12.032548,15.269372,5.851840,-1.422162,-15.253156,0.387616,5.206236,0.990105,-0.132731,-0.002678,0.045464
430,-0.216592,-3.405100,10.757634,20.358334,3.996503,-0.230585,-14.659958,0.539173,5.137293,0.990793,-0.127663,-0.001056,0.045049
431,-0.422488,-3.047865,9.985225,15.714273,4.133118,7.285021,-14.057908,0.699680,5.217716,0.991403,-0.122518,0.000484,0.045921
432,0.050495,-3.168020,10.288233,-0.251942,1.108452,8.941278,-13.797019,0.849905,5.459054,0.991564,-0.120322,0.001635,0.048165
433,-0.360983,-3.329953,10.882693,1.966927,4.120324,13.336491,-13.762956,1.023307,5.798823,0.991432,-0.120106,0.002794,0.051285
434,-0.175432,-2.584430,10.449549,29.627665,1.643219,13.108343,-13.228382,1.219520,6.205070,0.991766,-0.115580,0.004322,0.054984
435,-0.072089,-2.013715,10.514682,41.034927,1.620885,15.654670,-12.040495,1.376635,6.661498,0.992660,-0.105389,0.005834,0.059033
436,-0.013116,-1.057242,9.766286,60.396202,2.175885,13.894206,-10.338306,1.534076,7.132463,0.993840,-0.090743,0.007703,0.063148
437,-0.314269,-0.067521,8.422865,67.705139,5.026440,9.692045,-8.193460,1.714884,7.501280,0.995127,-0.072256,0.010222,0.066307
438,-0.118183,1.028762,7.552514,52.571747,3.216730,4.679896,-6.182604,1.880184,7.721467,0.996085,-0.054901,0.012715,0.068107
439,-0.501441,1.386203,7.015119,20.861738,7.768616,5.949450,-4.953559,2.079099,7.880226,0.996487,-0.044351,0.015114,0.069420
440,-0.601623,1.859171,6.835662,-3.207721,8.750992,5.482244,-4.652869,2.369843,8.046273,0.996442,-0.041934,0.017764,0.070924
441,-0.278466,1.306771,7.418694,-34.926292,3.293478,4.722266,-5.281849,2.584829,8.197937,0.996055,-0.047557,0.019181,0.072422
442,0.170906,0.935600,7.299740,-45.566124,-3.378682,6.516515,-6.614923,2.603173,8.383801,0.995311,-0.059182,0.018400,0.074264
443,0.147474,0.961746,6.953171,-41.220177,-3.976151,6.871663,-8.050659,2.509975,8.620306,0.994358,-0.071624,0.016512,0.076485
444,0.178141,0.115903,6.380421,-37.417271,-4.822145,3.783973,-9.352614,2.391787,8.818098,0.993374,-0.082867,0.014474,0.078300
445,0.406420,-1.162505,5.871553,-32.158550,-9.204224,-0.729540,-10.508505,2.170547,8.908452,0.992478,-0.092747,0.011693,0.079052
446,0.007829,-1.225034,3.963783,-17.861418,-5.286829,-0.104245,-11.341046,1.931067,8.940078,0.991809,-0.099800,0.009018,0.079205
447,-0.307598,-1.398191,3.236052,-11.545645,-0.083386,-1.593600,-11.831455,1.837681,8.930317,0.991399,-0.103981,0.007879,0.079076
448,0.132891,-2.159485,2.750916,-15.217587,-9.110940,-8.470732,-12.281542,1.652884,8.798355,0.991111,-0.107745,0.006094,0.077795
450,0.435638,-1.858243,3.151557,3.182724,-17.410065,-8.638331,-12.486604,1.160129,8.614303,0.991128,-0.109194,0.001868,0.075752
451,-0.138420,-1.840346,3.473445,13.887143,-6.654751,-4.035855,-12.203935,0.723396,8.492909,0.991535,-0.106469,-0.001611,0.074295
452,0.133024,-1.671284,5.723537,24.511530,-12.584425,-6.338109,-11.564999,0.374166,8.389174,0.992217,-0.100720,-0.004130,0.073099
453,-0.013753,-1.451755,7.725161,23.416595,-11.467422,-5.257465,-10.766527,-0.056473,8.277230,0.992997,-0.093537,-0.007260,0.071805
454,-0.607150,-0.709214,10.171152,20.203699,-8.217617,0.888274,-10.039501,-0.392248,8.264811,0.993591,-0.087025,-0.009706,0.071486
455,-0.384346,-1.091808,12.487684,1.993376,-8.784729,0.292121,-9.670064,-0.667773,8.332546,0.993827,-0.083641,-0.011915,0.071901
456,-0.227590,-0.388767,14.027705,-3.287522,-9.615338,1.555996,-9.692822,-0.964815,8.414875,0.993756,-0.083639,-0.014565,0.072393
457,0.437845,-0.487165,14.962092,-14.316763,-8.318007,-0.808084,-9.987427,-1.257144,8.478359,0.993490,-0.085995,-0.017333,0.072683
458,0.262351,-0.571314,15.550048,-16.428474,-4.312910,-0.855539,-10.500136,-1.469122,8.488767,0.993079,-0.090300,-0.019503,0.072524
459,1.080245,-1.401701,14.986485,-18.301720,-4.633795,-2.858963,-11.078083,-1.627150,8.456033,0.992623,-0.095210,-0.021210,0.072007
460,0.686033,-1.267306,14.369517,-11.998013,0.406852,-4.149857,-11.580143,-1.719094,8.355287,0.992253,-0.099517,-0.022234,0.070960
461,0.749594,-1.954997,13.856042,-16.960995,3.640122,-7.822814,-12.056607,-1.693813,8.146197,0.991960,-0.103699,-0.022121,0.069080
462,0.316187,-2.473410,12.820176,-13.051020,4.514900,-5.756992,-12.549615,-1.609172,7.896081,0.991658,-0.108066,-0.021450,0.066901
463,0.468370,-3.290681,12.408990,-18.126301,3.404617,-3.703940,-13.064271,-1.515414,7.713074,0.991273,-0.112609,-0.020759,0.065315
464,0.082180,-3.139440,13.371554,-17.737225,4.496337,-3.878950,-13.658059,-1.416657,7.559579,0.990767,-0.117830,-0.020086,0.063982
465,-0.213517,-3.594021,14.193414,-20.676067,6.589408,-2.108710,-14.294965,-1.261450,7.418130,0.990179,-0.123449,-0.018948,0.062817
466,-0.197787,-4.574995,14.674863,-23.480049,8.031114,-2.206044,-15.028268,-1.044007,7.286945,0.989443,-0.129927,-0.017324,0.061810
467,-0.676795,-4.872773,14.692052,-7.322345,10.898772,0.363462,-15.539857,-0.747778,7.174175,0.988912,-0.134523,-0.014911,0.061109
468,-0.501350,-4.450977,13.938581,10.518033,9.738840,-0.017548,-15.485789,-0.414743,7.088212,0.989011,-0.134248,-0.011908,0.060766
469,-0.338851,-4.611831,12.132681,16.165731,7.307014,-0.174827,-15.040681,-0.141406,7.010767,0.989553,-0.130558,-0.009223,0.060455
470,0.002821,-4.598472,10.504234,19.642973,3.242105,-1.455466,-14.443805,0.021750,6.939943,0.990247,-0.125493,-0.007421,0.060069
471,0.035280,-3.483700,9.325036,22.660294,0.395129,-4.524382,-13.738825,0.056286,6.828748,0.991055,-0.119424,-0.006637,0.059188
472,0.156331,-3.252896,8.974947,2.567616,0.304954,-7.007829,-13.318475,0.022574,6.639342,0.991585,-0.115781,-0.006520,0.057539
473,0.125869,-3.413761,9.410868,-12.487182,1.906077,-4.598406,-13.483859,0.013238,6.442702,0.991515,-0.117218,-0.006482,0.055819
474,-0.219824,-3.781088,10.282106,-3.531418,6.818112,-1.760112,-13.751032,0.129364,6.305509,0.991298,-0.119593,-0.005465,0.054738
475,-0.454280,-3.756550,10.930316,21.631918,9.500570,0.177731,-13.449830,0.387569,6.216102,0.991632,-0.117112,-0.002995,0.054241
476,-0.455374,-3.344232,11.352901,50.787376,8.199441,7.836836,-12.242325,0.705047,6.281153,0.992751,-0.106804,0.000267,0.055128
477,-0.357972,-2.439481,11.539095,78.506790,5.831093,12.876105,-10.083701,1.001734,6.575166,0.994409,-0.088235,0.003654,0.057891
478,0.012998,-1.098764,10.509151,100.935715,2.050506,11.164104,-7.087499,1.191517,6.952379,0.996159,-0.062323,0.006611,0.061156
479,-0.080389,-0.115060,9.050578,95.930374,3.070787,11.579840,-3.801161,1.311404,7.322495,0.997320,-0.033826,0.009297,0.064197
480,-0.606897,1.418566,7.816519,78.847229,7.048679,10.266312,-0.881915,1.494849,7.678874,0.997634,-0.008552,0.012500,0.067053
481,-0.146964,1.866876,6.659042,47.546635,1.203579,8.642089,1.232052,1.631501,7.993296,0.997420,0.009732,0.014951,0.069534
482,-0.202147,2.403759,6.053555,19.188271,2.602302,7.001483,2.351487,1.687193,8.256516,0.997109,0.019404,0.016159,0.071665
483,-0.650904,2.390800,6.566374,-16.525785,7.550572,2.299484,2.400871,1.850242,8.418257,0.996979,0.019706,0.017636,0.073034
484,-0.157666,2.483943,6.825751,-37.167416,-1.565407,4.388824,1.509908,1.946531,8.532681,0.997015,0.011874,0.017917,0.074153
485,0.704714,2.080909,7.051651,-49.537739,-11.173488,10.275290,0.072616,1.730928,8.773476,0.996957,-0.000524,0.015109,0.076470
486,0.147512,1.892600,7.516036,-49.475479,-3.029791,8.624490,-1.568401,1.497986,9.090767,0.996662,-0.014678,0.011945,0.079413
487,0.569828,0.562139,6.345516,-44.381313,-7.861972,2.916265,-3.127225,1.324759,9.291364,0.996251,-0.028131,0.009308,0.081272
488,0.350940,-0.236823,5.160677,-28.357618,-7.660471,3.286232,-4.336961,1.073921,9.410707,0.995843,-0.038477,0.006230,0.082323
489,0.177753,-0.215803,4.113212,-8.919101,-4.840890,1.073743,-4.956656,0.871979,9.499746,0.995578,-0.043721,0.003996,0.083054
490,0.083110,-0.973066,3.061757,-9.058766,-5.714414,-1.120660,-5.256098,0.696671,9.514458,0.995465,-0.046197,0.002250,0.083123
491,0.052232,-1.965310,2.187458,-20.007174,-7.063043,-1.756303,-5.740835,0.480148,9.487113,0.995298,-0.050251,0.000029,0.082801
492,-0.417974,-1.617259,2.336455,1.707335,2.596497,2.007281,-6.045735,0.406528,9.499040,0.995158,-0.052846,-0.000836,0.082871
493,-0.288200,-1.614224,2.755139,7.010030,-1.500068,-0.635710,-5.900270,0.427002,9.519980,0.995208,-0.051598,-0.000562,0.083063
494,-0.451588,-1.684632,4.950784,16.985126,-3.915097,-3.623251,-5.500764,0.330114,9.458365,0.995432,-0.048058,-0.001088,0.082489
495,-0.666976,-1.344003,6.543461,19.425051,-1.350913,-8.823552,-4.894908,0.223882,9.259734,0.995819,-0.042721,-0.001501,0.080728
496,-1.359898,-0.524637,8.709469,13.706513,3.499527,-7.172508,-4.343890,0.237903,8.991013,0.996199,-0.037944,-0.000902,0.078403
497,-0.715454,-0.033987,11.382035,-2.657774,-7.018983,-4.296770,-4.160504,0.165174,8.804530,0.996388,-0.036303,-0.001350,0.076760
498,-0.464064,0.268998,13.209694,-14.588440,-9.505475,2.789389,-4.447783,-0.111513,8.800370,0.996304,-0.038615,-0.003947,0.076627
499,-0.328650,-0.019584,14.040796,-28.210741,-9.782653,9.523329,-5.162003,-0.414806,9.031983,0.995890,-0.044607,-0.007151,0.078494
500,0.380576,-0.003536,15.113445,-34.741875,-11.702757,12.940605,-6.215080,-0.734108,9.440333,0.995151,-0.053499,-0.010836,0.081821
501,1.315521,-0.484527,15.022355,-33.055618,-14.841959,9.762902,-7.351829,-1.128754,9.868361,0.994251,-0.063027,-0.015308,0.085201
502,1.351138,-0.969830,14.451265,-32.094341,-7.578614,3.788294,-8.443943,-1.467631,10.143109,0.993384,-0.072197,-0.019230,0.087213
503,1.189356,-1.579899,14.156931,-30.355732,-3.073744,-1.589523,-9.486456,-1.636736,10.207457,0.992628,-0.081088,-0.021533,0.087469
504,1.109674,-1.815159,13.085491,-21.420607,1.587922,-9.379801,-10.344277,-1.692151,10.031810,0.992123,-0.088507,-0.022531,0.085741
505,0.580992,-2.410460,12.167855,-22.163164,6.617127,-11.071179,-11.060298,-1.620431,9.671524,0.991818,-0.094830,-0.022148,0.082541
506,0.496839,-2.669214,11.685766,-21.583815,9.280124,-10.119524,-11.778873,-1.430538,9.273001,0.991493,-0.101262,-0.020671,0.079124
507,-0.227589,-2.932647,11.304137,-20.738977,13.204850,-7.369408,-12.476191,-1.125409,8.909383,0.991111,-0.107569,-0.018173,0.076143
508,-0.122422,-3.009301,10.798306,-20.193415,11.630642,-3.860769,-13.154000,-0.763402,8.635293,0.990635,-0.113713,-0.015222,0.074028
509,-0.107522,-3.136603,10.556906,-20.122410,9.616818,-0.213509,-13.824430,-0.435081,8.486639,0.990037,-0.119739,-0.012664,0.072998
510,-0.254326,-3.203453,10.433414,-16.949131,7.632739,2.953519,-14.442212,-0.145350,8.460674,0.989377,-0.125263,-0.010527,0.073022
511,-0.247432,-3.065821,10.119911,-12.892384,4.449471,5.520903,-14.939673,0.085094,8.546245,0.988750,-0.129698,-0.008952,0.073975
512,-0.154621,-3.135984,9.898348,-10.456320,1.146743,7.669047,-15.328360,0.232375,8.734080,0.988167,-0.133132,-0.008151,0.075735
513,-0.287327,-3.041536,9.667127,-6.462840,0.354096,7.744437,-15.609239,0.324881,8.974947,0.987666,-0.135598,-0.007825,0.077900
514,-0.237882,-2.960817,9.573361,-5.450621,-1.372843,8.320595,-15.806195,0.380947,9.237309,0.987243,-0.137316,-0.007790,0.080214
515,-0.166344,-2.734861,9.518701,-3.168791,-2.126791,8.019118,-15.947988,0.399313,9.515191,0.986873,-0.138531,-0.008067,0.082620
516,-0.127141,-2.545543,9.404735,1.349066,-1.090748,6.137228,-15.976623,0.412594,9.756779,0.986660,-0.138770,-0.008265,0.084714
517,-0.014202,-2.500524,9.409451,-2.477717,-2.125780,4.299687,-15.994120,0.408888,9.938775,0.986504,-0.138905,-0.008531,0.086275
518,0.190825,-2.455789,9.455362,-3.072210,-3.080148,2.774087,-16.085716,0.358128,10.076056,0.986295,-0.139644,-0.009204,0.087388
519,0.172234,-2.432667,9.535226,-2.362003,-1.476602,-0.284378,-16.175959,0.296715,10.137012,0.986146,-0.140369,-0.009876,0.087831
520,0.138288,-2.370070,9.593269,-2.444498,0.201454,-2.118805,-16.256237,0.265142,10.104489,0.986077,-0.141039,-0.010169,0.087505
521,0.099189,-2.510251,9.744238,-4.943582,1.787261,-2.874796,-16.379801,0.273581,10.015308,0.985991,-0.142117,-0.010081,0.086737
522,-0.024181,-2.447559,9.827651,-3.544708,2.859225,-4.182318,-16.521971,0.314538,9.880584,0.985910,-0.143382,-0.009667,0.085617
523,-0.121171,-2.263471,9.822449,-0.802755,3.580626,-4.667345,-16.595463,0.375411,9.708625,0.985937,-0.144073,-0.008982,0.084207
524,-0.093673,-2.183857,9.713467,0.384351,3.201204,-3.554821,-16.603615,0.444621,9.545023,0.986037,-0.144205,-0.008187,0.082886
525,-0.132228,-2.227150,9.668523,0.731659,3.372581,-3.905321,-16.586279,0.514123,9.394574,0.986157,-0.144115,-0.007387,0.081679
526,-0.209140,-1.964514,9.639884,4.566458,3.335886,-3.602123,-16.499430,0.585679,9.242788,0.986363,-0.143427,-0.006519,0.080467
527,-0.184329,-1.814816,9.643118,27.457405,4.110657,-1.098295,-15.966923,0.682983,9.132892,0.987081,-0.138914,-0.005174,0.079667
528,-0.063349,-1.881536,9.691259,22.472197,0.186225,-1.322095,-15.135547,0.741424,9.074936,0.988095,-0.131791,-0.004025,0.079270
529,-0.045103,-1.848828,9.844311,20.753864,-0.785685,-0.540141,-14.415482,0.723875,9.047687,0.988925,-0.125568,-0.003648,0.079039
530,-0.046750,-1.766925,9.793840,20.926943,-0.951181,1.098891,-13.720627,0.698108,9.063797,0.989660,-0.119551,-0.003408,0.079172
531,0.062203,-1.876686,9.743052,14.111456,-3.689164,0.839171,-13.136101,0.630469,9.113166,0.990232,-0.114454,-0.003638,0.079548
532,0.127918,-2.179631,9.610832,2.863065,-4.616786,-0.822304,-12.852896,0.495687,9.144716,0.990506,-0.111913,-0.004638,0.079699
533,0.007845,-2.263372,9.461716,-0.694125,0.467693,-1.606534,-12.816959,0.419268,9.120746,0.990566,-0.111551,-0.005250,0.079419
534,-0.113554,-2.561260,9.349346,-12.171816,4.632765,-2.748828,-13.032118,0.485875,9.030987,0.990409,-0.113460,-0.004735,0.078699
535,0.016120,-2.817701,9.370493,-6.784457,2.545609,-5.989759,-13.349627,0.569079,8.861885,0.990197,-0.116266,-0.004062,0.077308
536,-0.033010,-2.967925,9.375254,-9.199889,2.514083,-8.739887,-13.618602,0.593966,8.603451,0.990090,-0.118616,-0.003761,0.075091
537,-0.179762,-2.996185,9.379887,-10.066813,3.492668,-8.741415,-13.942946,0.621800,8.296604,0.989944,-0.121445,-0.003408,0.072459
538,-0.227855,-3.161558,9.564974,-11.723862,3.458076,-8.364171,-14.309563,0.664548,7.991868,0.989734,-0.124646,-0.002939,0.069862
539,-0.146301,-3.051368,9.673203,-9.024634,3.221973,-8.370821,-14.658922,0.702536,7.693952,0.989523,-0.127693,-0.002492,0.067323
540,-0.314717,-2.957647,9.689329,-5.709522,5.069738,-6.174552,-14.907960,0.774355,7.424275,0.989390,-0.129888,-0.001713,0.065070
541,-0.335934,-2.949145,9.749055,-2.873513,5.761703,-3.297286,-15.053985,0.907970,7.225152,0.989317,-0.131224,-0.000414,0.063501
542,-0.243708,-2.738203,9.687454,0.655683,5.227819,-2.675758,-15.093464,1.058951,7.081415,0.989329,-0.131644,0.001033,0.062431
543,-0.327504,-2.607857,9.548017,2.075268,8.340692,-0.373135,-15.050138,1.264135,6.973561,0.989404,-0.131375,0.002952,0.061733
544,-0.324465,-2.456869,9.410227,6.009655,6.352615,0.897351,-14.916765,1.502970,6.918681,0.989545,-0.130343,0.005149,0.061524
545,-0.197752,-2.446599,9.536016,6.770460,0.862138,-1.279584,-14.704787,1.617624,6.881854,0.989783,-0.128568,0.006295,0.061323
546,-0.261281,-2.519305,9.429594,5.395043,1.960596,-2.522324,-14.504093,1.647163,6.808741,0.990040,-0.126845,0.006738,0.060713
547,-0.288177,-2.570130,9.475377,3.938807,2.009964,-2.805276,-14.351515,1.689099,6.706203,0.990254,-0.125541,0.007294,0.059863
548,-0.133667,-2.557714,9.497552,4.802421,-3.408707,-4.606916,-14.209135,1.636021,6.592182,0.990478,-0.124278,0.007033,0.058811
549,-0.275475,-2.643290,9.412755,1.613805,0.284184,-4.016912,-14.105672,1.550375,6.465561,0.990670,-0.123335,0.006482,0.057619
550,-0.308458,-2.718767,9.157108,4.841833,0.173386,-2.968658,-14.001204,1.529470,6.350719,0.990843,-0.122416,0.006476,0.056598
551,-0.145799,-2.690939,9.163971,0.888492,-0.815256,-3.370669,-13.908337,1.493644,6.250721,0.990997,-0.121590,0.006318,0.055691
553,-0.265415,-2.602591,9.244500,-6.676618,0.841819,-2.047308,-14.007066,1.472263,6.162968,0.990937,-0.122430,0.006179,0.054915
554,-0.270099,-2.586651,9.493577,-7.314391,1.185994,0.097107,-14.241292,1.497052,6.123213,0.990700,-0.124464,0.006325,0.054610
555,-0.102807,-2.695783,9.794870,-5.905783,0.208634,1.059224,-14.461296,1.524312,6.136141,0.990448,-0.126379,0.006441,0.054764
556,-0.256257,-2.708041,9.978652,-8.762436,1.566805,2.177674,-14.704559,1.566512,6.180909,0.990149,-0.128502,0.006639,0.055211
557,-0.369849,-2.653979,10.099980,-11.466054,1.562193,5.507611,-15.038596,1.649785,6.291383,0.989701,-0.131433,0.007071,0.056279
558,-0.120271,-3.257084,9.810684,-19.400570,0.060248,2.726228,-15.549372,1.712007,6.416679,0.989031,-0.135879,0.007209,0.057464
559,-0.207388,-3.685538,9.317730,-25.511402,1.305158,-0.722818,-16.297112,1.743207,6.442435,0.988104,-0.142346,0.007071,0.057770
560,-0.479903,-3.985296,8.896788,-30.036282,3.461193,-2.005017,-17.224905,1.806366,6.375962,0.986940,-0.150367,0.007234,0.057335
561,-0.402760,-4.258755,8.535872,-33.021362,2.251039,-3.288671,-18.279409,1.870234,6.262950,0.985557,-0.159464,0.007413,0.056515
562,-0.234055,-4.727027,8.142005,-38.171627,-0.225156,-7.058109,-19.471476,1.846434,6.088649,0.983935,-0.169687,0.006878,0.055058
563,-0.567523,-4.686204,8.184663,-38.944237,0.503986,-5.139454,-20.762636,1.781054,5.895791,0.982066,-0.180724,0.006001,0.053377
564,-0.605824,-4.854959,8.324626,-38.432484,-1.166900,-2.783792,-22.055710,1.722419,5.776978,0.980032,-0.191765,0.005096,0.052328
565,-0.391780,-4.986331,8.494627,-37.327911,-5.007903,-2.230501,-23.319283,1.594994,5.739498,0.977902,-0.202507,0.003497,0.051837
566,-0.356063,-5.167515,8.719953,-34.951420,-6.616297,-0.665128,-24.522860,1.398171,5.773636,0.975745,-0.212688,0.001213,0.051799
567,-0.411627,-5.200837,8.868807,-28.661898,-6.826444,1.576200,-25.580471,1.201466,5.882174,0.973730,-0.221603,-0.001147,0.052351
568,-0.141237,-5.218404,8.744696,-23.769985,-8.524325,0.595774,-26.451464,0.987227,6.026911,0.971990,-0.228904,-0.003652,0.053143
569,-0.024452,-5.217998,8.665595,-20.693270,-8.477257,-0.396593,-27.190527,0.735820,6.157533,0.970476,-0.235053,-0.006392,0.053710
570,0.075871,-5.243846,8.402249,-18.738487,-7.639357,-1.359100,-27.846676,0.484112,6.255613,0.969109,-0.240487,-0.009035,0.053975
571,0.067472,-5.307817,8.228240,-18.977871,-5.129354,-2.515196,-28.474993,0.266071,6.299097,0.967787,-0.245693,-0.011265,0.053825
572,0.012332,-5.145119,8.465455,-18.322582,-0.866564,-4.424176,-29.096855,0.122904,6.245934,0.966483,-0.250882,-0.012648,0.053001
573,-0.001573,-4.807621,8.655050,-14.155318,2.157998,-6.127420,-29.638437,0.055593,6.082241,0.965370,-0.255435,-0.013101,0.051412
574,-0.161349,-4.325705,8.706700,-7.705865,4.438733,-5.207046,-30.003033,0.057206,5.863726,0.964648,-0.258530,-0.012758,0.049534
575,-0.362524,-4.034812,8.782867,-2.519378,6.547179,-2.989519,-30.173864,0.147256,5.653797,0.964340,-0.260029,-0.011598,0.047953
576,-0.153915,-3.756624,8.902168,3.366859,4.980403,-3.487405,-30.160467,0.259183,5.463991,0.964435,-0.259979,-0.010219,0.046610
577,-0.158039,-3.728949,8.724167,9.790232,3.826090,-1.499944,-29.941931,0.344683,5.318589,0.964976,-0.258185,-0.009083,0.045598
578,-0.145600,-3.757426,8.695057,16.112490,2.331066,1.163934,-29.510611,0.431125,5.262881,0.965952,-0.254588,-0.008059,0.045354
579,0.178120,-3.797661,8.697168,24.291533,0.123054,-0.255476,-28.837299,0.474338,5.256203,0.967428,-0.248925,-0.007413,0.045438
580,0.356031,-3.718452,8.923502,34.995392,-0.024159,-3.101856,-27.849638,0.449219,5.206330,0.969561,-0.240571,-0.007129,0.045025
581,0.181112,-3.625529,8.993739,47.985538,2.298895,-4.891003,-26.467802,0.422010,5.070594,0.972447,-0.228860,-0.006545,0.043902
582,0.090795,-3.011657,8.883421,61.623806,3.853992,-7.340831,-24.643055,0.426446,4.842330,0.976053,-0.213359,-0.005382,0.042065
583,-0.330853,-2.846701,9.096508,62.140396,6.246236,-4.252244,-22.582960,0.503116,4.597898,0.979811,-0.195814,-0.003552,0.040196
584,-0.558484,-3.182765,9.109550,50.078850,5.547018,-0.785238,-20.714884,0.655083,4.446903,0.982909,-0.179868,-0.001356,0.039191
585,0.088307,-3.120732,9.579893,39.340057,-0.467274,-3.552323,-19.226147,0.710292,4.349855,0.985190,-0.167102,-0.000230,0.038451
586,-0.639871,-2.609237,10.366830,30.875975,3.105593,1.111409,-18.056669,0.738803,4.297929,0.986858,-0.157048,0.000479,0.038043
587,-1.143557,-3.077036,10.758729,15.146794,4.616119,8.934364,-17.287991,0.912488,4.417964,0.987829,-0.150482,0.002074,0.039301
588,-0.426609,-2.849030,10.308958,12.763844,-1.033457,8.294323,-16.818480,1.054308,4.674596,0.988329,-0.146486,0.003130,0.041686
589,-0.136528,-1.772016,10.199522,23.260973,-1.375946,7.394572,-16.213287,1.090220,4.936908,0.988986,-0.141284,0.003337,0.043977
590,-0.851595,-1.523489,10.095713,27.798428,4.355193,14.317763,-15.355547,1.236196,5.271728,0.989863,-0.133944,0.004536,0.047013
591,-0.021521,-1.387648,9.519272,29.617670,-1.117041,12.775741,-14.388828,1.404451,5.693973,0.990752,-0.125676,0.005924,0.050807
592,0.731687,-0.821551,9.510408,35.888836,-6.183866,5.285624,-13.289572,1.358241,6.015837,0.991773,-0.116164,0.005685,0.053487
593,0.347272,-0.690175,10.033820,36.051842,-2.617506,1.665108,-12.087567,1.239956,6.161588,0.992885,-0.105708,0.005086,0.054580
594,0.326070,-0.771660,10.208474,34.268238,-2.786664,-2.829994,-10.915743,1.147460,6.160275,0.993927,-0.095507,0.004843,0.054437
595,0.415100,-0.587401,9.880689,32.739399,-4.109842,-9.153024,-9.802391,0.998124,5.984564,0.994909,-0.085771,0.004207,0.052752
596,0.463068,-0.762828,9.910769,28.127630,-6.412739,-14.160214,-8.793528,0.761790,5.629652,0.995807,-0.076894,0.002856,0.049472
597,0.311685,-0.926147,9.903100,26.099686,-6.701794,-18.093012,-7.895179,0.467085,5.129828,0.996607,-0.068956,0.000982,0.044925
598,0.293733,-0.836589,9.674335,24.822824,-6.291254,-21.798080,-7.050079,0.165607,4.498936,0.997334,-0.061494,-0.000972,0.039265
599,0.073643,-1.016962,9.966836,17.147451,-4.192667,-23.907278,-6.351153,-0.097079,3.762874,0.997927,-0.055338,-0.002664,0.032734
600,-0.124565,-0.850543,10.076486,17.898891,-2.478837,-24.807949,-5.764519,-0.293849,2.967336,0.998400,-0.050200,-0.003862,0.025730
601,-0.339323,-0.724962,9.980232,20.399462,1.370686,-22.635712,-5.121697,-0.387234,2.181902,0.998817,-0.044608,-0.004226,0.018869
602,-0.416210,-0.605900,9.923611,19.919153,2.452668,-18.734880,-4.445343,-0.381003,1.489325,0.999159,-0.038737,-0.003826,0.012858
603,-0.347452,-0.640572,10.004711,20.636370,1.983360,-14.724188,-3.765964,-0.347024,0.927778,0.999424,-0.032833,-0.003293,0.007992
604,-0.368486,-0.513457,9.897871,25.612146,1.830208,-10.480106,-2.992782,-0.308111,0.504728,0.999646,-0.026102,-0.002803,0.004333
605,-0.297956,-0.598665,9.784148,25.982433,0.754650,-6.250839,-2.131510,-0.277151,0.224265,0.999822,-0.018595,-0.002455,0.001912
606,-0.160726,-0.406254,9.729072,26.195808,-1.752406,-4.286327,-1.261041,-0.298696,0.049289,0.999936,-0.011003,-0.002611,0.000401
607,-0.011057,-0.329876,9.690156,23.695543,-3.641206,-1.792624,-0.428937,-0.389939,-0.050527,0.999987,-0.003745,-0.003401,-0.000454
608,0.045796,-0.194376,9.790526,18.929834,-4.175554,-0.710447,0.281808,-0.520132,-0.091945,0.999986,0.002456,-0.004541,-0.000791
609,0.169739,-0.158563,9.712317,12.825399,-5.039099,-0.383456,0.811258,-0.673483,-0.111568,0.999957,0.007074,-0.005884,-0.000932
610,0.206244,-0.217013,9.877603,-1.245313,-6.720339,-0.026472,1.004392,-0.869335,-0.121404,0.999932,0.008757,-0.007595,-0.000993
611,0.213482,-0.219553,9.928109,-3.922966,-5.646151,0.543843,0.918169,-1.075563,-0.116015,0.999923,0.008003,-0.009394,-0.000937
612,0.264884,-0.117365,9.972064,-2.639627,-5.087353,-0.181522,0.808733,-1.254527,-0.112625,0.999915,0.007046,-0.010954,-0.000905
613,0.241319,-0.146793,9.955437,-3.672295,-2.792455,-0.231187,0.703724,-1.385749,-0.121251,0.999908,0.006128,-0.012099,-0.000984
614,0.176731,-0.219751,9.984441,-6.316351,0.843168,-0.744052,0.537651,-1.418060,-0.137833,0.999912,0.004677,-0.012380,-0.001145
615,0.189696,-0.117797,9.965880,-4.282829,1.170718,-2.430593,0.362279,-1.384078,-0.190444,0.999921,0.003141,-0.012083,-0.001624
616,0.028794,-0.350744,9.946393,-6.160573,1.754747,-4.425902,0.190932,-1.334740,-0.304505,0.999927,0.001635,-0.011652,-0.002638
617,0.063455,-0.342405,9.979418,-11.716772,1.231671,-7.388224,-0.102519,-1.284805,-0.501418,0.999927,-0.000944,-0.011208,-0.004385
618,0.090838,-0.417695,9.735711,-20.861813,0.686218,-10.728715,-0.638771,-1.254810,-0.803666,0.999900,-0.005651,-0.010911,-0.007074
619,0.141064,-0.384945,9.873557,-32.963509,-0.493065,-13.192710,-1.527052,-1.259196,-1.202460,0.999794,-0.013439,-0.010847,-0.010638
620,0.051123,-0.549154,9.853510,-35.846813,0.176302,-11.634213,-2.664587,-1.279795,-1.615897,0.999564,-0.023404,-0.010836,-0.014356
621,0.191977,-0.571633,9.679702,-36.557705,-0.576567,-9.374791,-3.863320,-1.306601,-1.965066,0.999213,-0.033896,-0.010816,-0.017521
622,0.226463,-0.805667,9.619177,-41.724941,-0.088673,-6.201560,-5.161885,-1.338295,-2.223069,0.998719,-0.045245,-0.010791,-0.019904
623,0.351263,-1.148081,9.997003,-42.628674,-0.667148,-3.289232,-6.563886,-1.367370,-2.379056,0.998060,-0.057480,-0.010722,-0.021407
624,0.260868,-1.392778,9.714681,-33.524193,0.105861,-1.165673,-7.831145,-1.386262,-2.451571,0.997347,-0.068524,-0.010605,-0.022167
625,0.353567,-1.334461,9.627898,-34.104908,-0.592137,-1.043576,-8.957314,-1.399790,-2.486733,0.996617,-0.078328,-0.010481,-0.022585
626,0.366391,-1.391866,10.078341,-28.235355,-0.378888,3.408232,-9.997227,-1.409282,-2.445239,0.995872,-0.087367,-0.010389,-0.022326
627,0.385051,-1.640804,10.297490,1.309439,0.791523,11.735359,-10.451921,-1.358061,-2.197945,0.995570,-0.091287,-0.010053,-0.020178
628,0.227582,-1.562634,9.968130,38.380959,2.494702,18.952000,-9.801499,-1.215012,-1.703782,0.996165,-0.085573,-0.009293,-0.015718
629,0.197215,-1.399637,9.909358,57.324936,2.810666,23.562565,-8.219926,-1.017744,-1.017561,0.997344,-0.071744,-0.008222,-0.009493
630,0.241294,-1.476854,10.066268,63.136898,2.221894,24.591230,-6.225524,-0.834123,-0.231964,0.998495,-0.054314,-0.007158,-0.002416
631,0.206928,-1.288435,9.856977,62.481316,1.378139,19.428606,-4.142496,-0.708314,0.493139,0.999319,-0.036115,-0.006333,0.004077
632,0.034848,-0.868576,9.601026,45.253990,0.696383,10.470504,-2.353459,-0.646331,0.988684,0.999737,-0.020487,-0.005816,0.008510
633,0.070513,-0.551203,9.789398,19.180586,-0.303521,3.121467,-1.282326,-0.633149,1.214909,0.999867,-0.011131,-0.005643,0.010539
634,0.160508,-0.455434,10.028076,0.278015,-2.097582,-1.383002,-0.958392,-0.672735,1.244726,0.999889,-0.008299,-0.005961,0.010812
635,0.110227,-0.269231,9.912855,3.748706,-0.737327,-4.204443,-0.890175,-0.721545,1.152468,0.999900,-0.007704,-0.006374,0.010008
636,0.112291,-0.209856,9.825631,6.212968,-0.630618,-4.828215,-0.722242,-0.746450,1.002228,0.999921,-0.006245,-0.006569,0.008705
637,0.106453,-0.137564,9.878378,6.265616,-0.792499,-5.045813,-0.512091,-0.771921,0.837907,0.999941,-0.004419,-0.006769,0.007282
638,0.093974,-0.068380,9.937639,6.408707,-0.729658,-4.949711,-0.298571,-0.798470,0.671487,0.999955,-0.002565,-0.006983,0.005841
639,0.101740,0.005235,9.908085,8.459929,-1.130158,-4.868783,-0.048438,-0.829959,0.507923,0.999964,-0.000391,-0.007244,0.004429
640,0.139416,0.125856,9.912223,10.296222,-2.183864,-4.399298,0.266480,-0.884873,0.353337,0.999963,0.002349,-0.007715,0.003101
641,0.175561,0.214996,9.929059,9.888194,-2.744971,-3.972909,0.605161,-0.965924,0.213180,0.999949,0.005296,-0.008419,0.001905
642,0.218505,0.270991,9.930430,8.997586,-2.900713,-3.599655,0.922180,-1.058321,0.085726,0.999925,0.008054,-0.009229,0.000822
643,0.229475,0.276195,9.895190,7.412822,-2.002944,-3.163231,1.197878,-1.137948,-0.028492,0.999896,0.010450,-0.009932,-0.000145
644,0.248224,0.307334,9.920160,5.959034,-1.432510,-2.749094,1.422767,-1.192941,-0.128343,0.999868,0.012403,-0.010423,-0.000991
645,0.214910,0.313747,9.912913,4.967334,0.354645,-2.496316,1.606711,-1.208592,-0.216233,0.999845,0.014000,-0.010572,-0.001739
646,0.196879,0.328744,9.909901,4.721767,1.275534,-2.409541,1.769872,-1.179028,-0.297201,0.999825,0.015417,-0.010328,-0.002434
647,0.180603,0.355527,9.906651,4.107466,1.552104,-2.367024,1.918593,-1.129363,-0.375279,0.999806,0.016709,-0.009909,-0.003109
648,0.158307,0.334242,9.936543,1.902681,1.725480,-2.427161,2.020258,-1.072026,-0.453277,0.999794,0.017591,-0.009423,-0.003790
649,0.128315,0.267799,9.953866,0.372616,1.932581,-2.455940,2.059616,-1.008213,-0.532464,0.999790,0.017931,-0.008880,-0.004488
650,0.164658,0.325230,9.911613,3.079849,0.028470,-2.466822,2.118553,-0.972568,-0.613284,0.999780,0.018440,-0.008585,-0.005194
651,0.178121,0.336856,9.957019,2.299788,-1.027275,-2.572657,2.209671,-0.986016,-0.697841,0.999760,0.019228,-0.008720,-0.005923
652,0.179830,0.317687,9.957094,2.335741,-1.211780,-2.880435,2.288551,-1.019744,-0.790127,0.999739,0.019907,-0.009035,-0.006716
653,0.183417,0.382082,9.918569,5.402594,-1.230489,-3.131791,2.419368,-1.056300,-0.891934,0.999706,0.021038,-0.009380,-0.007587
654,0.189782,0.464090,9.894996,6.704625,-1.162908,-3.403756,2.623227,-1.091339,-1.002536,0.999656,0.022805,-0.009721,-0.008528
656,0.183202,0.463613,9.911628,4.241026,-0.537889,-3.455817,2.807876,-1.114231,-1.118102,0.999607,0.024404,-0.009959,-0.009516
657,0.170347,0.483725,9.893393,4.045651,0.185918,-3.137959,2.948122,-1.114593,-1.228179,0.999567,0.025617,-0.009998,-0.010463
658,0.166889,0.507924,9.884838,3.322106,0.636408,-2.612241,3.072745,-1.095871,-1.323188,0.999531,0.026698,-0.009869,-0.011286
659,0.193849,0.523064,9.896017,2.371881,-0.036856,-2.050817,3.169106,-1.081662,-1.400265,0.999502,0.027534,-0.009773,-0.011953
660,0.191983,0.595651,9.896055,3.378233,0.120586,-1.582787,3.266082,-1.076872,-1.460658,0.999472,0.028375,-0.009756,-0.012473
661,0.176111,0.618665,9.901979,2.932972,0.783780,-1.306902,3.372148,-1.059028,-1.507874,0.999441,0.029298,-0.009624,-0.012880
662,0.156485,0.549156,9.935405,0.301914,1.590689,-1.191963,3.426771,-1.017053,-1.547114,0.999426,0.029776,-0.009274,-0.013229
663,0.141561,0.591205,9.897319,2.416258,1.931613,-1.047985,3.472652,-0.956215,-1.580863,0.999414,0.030181,-0.008758,-0.013536
664,0.125739,0.627084,9.912373,2.229440,2.255975,-0.920353,3.550536,-0.884538,-1.609328,0.999395,0.030867,-0.008150,-0.013797
665,0.114530,0.575869,9.925543,-0.123281,2.346523,-0.819779,3.585994,-0.806173,-1.633504,0.999387,0.031184,-0.007477,-0.014027
666,0.107159,0.550963,9.912091,-0.527030,2.151174,-0.830320,3.575460,-0.729644,-1.656286,0.999391,0.031101,-0.006814,-0.014247
667,0.110193,0.614170,9.871511,0.989734,1.488429,-0.894659,3.583476,-0.667308,-1.681197,0.999389,0.031177,-0.006279,-0.014481
