seq,ax,ay,az,wroll,wpitch,wyaw,roll,pitch,yaw,q0,q1,q2,q3
34,0.034448,-9.627497,0.219543,0.051932,0.073546,0.000803,-88.693626,-0.204959,8.915121,0.713055,-0.696785,-0.055602,0.054333
36,0.029032,-9.623071,0.221471,0.057645,0.074342,-0.011101,-88.691689,-0.204807,8.912652,0.713068,-0.696774,-0.055585,0.054320
37,0.032773,-9.624746,0.221422,0.066808,0.071291,-0.001933,-88.689423,-0.204620,8.910220,0.713083,-0.696761,-0.055568,0.054307
38,0.032080,-9.626738,0.221535,0.050028,0.060610,-0.015659,-88.687317,-0.204667,8.908014,0.713096,-0.696749,-0.055554,0.054294
39,0.032916,-9.626489,0.221549,0.033247,0.060610,-0.011074,-88.685806,-0.204878,8.905984,0.713107,-0.696741,-0.055542,0.054281
40,0.038837,-9.630446,0.222148,0.040880,0.072817,-0.011079,-88.684456,-0.205340,8.903751,0.713116,-0.696733,-0.055531,0.054265
41,0.038935,-9.637659,0.222407,0.031729,0.060609,-0.009569,-88.683121,-0.206068,8.901520,0.713126,-0.696726,-0.055521,0.054247
43,0.038030,-9.642442,0.223365,0.025641,0.071291,-0.006550,-88.681778,-0.207165,8.899317,0.713135,-0.696718,-0.055514,0.054227
44,0.042890,-9.646891,0.223222,0.036343,0.072814,-0.003583,-88.680153,-0.209523,8.896909,0.713148,-0.696708,-0.055513,0.054199
45,0.044222,-9.644153,0.228061,0.042500,0.085019,-0.002183,-88.677422,-0.212913,8.894272,0.713167,-0.696690,-0.055517,0.054163
46,0.037985,-9.642073,0.226256,0.048674,0.078914,-0.006842,-88.674011,-0.215196,8.891529,0.713190,-0.696669,-0.055513,0.054134
47,0.032239,-9.636000,0.228066,0.050265,0.077388,-0.011407,-88.670639,-0.215079,8.888912,0.713212,-0.696650,-0.055495,0.054120
48,0.033281,-9.623997,0.227215,0.050331,0.089598,-0.015934,-88.667183,-0.214118,8.886112,0.713234,-0.696630,-0.055470,0.054110
50,0.030153,-9.621623,0.225586,0.038165,0.097228,-0.021974,-88.664589,-0.212956,8.882980,0.713250,-0.696616,-0.055442,0.054099
51,0.031850,-9.629058,0.223223,0.032065,0.086549,-0.017323,-88.663315,-0.211603,8.879903,0.713259,-0.696610,-0.055415,0.054088
52,0.029918,-9.628278,0.223427,0.021365,0.075869,-0.008096,-88.662903,-0.210060,8.877189,0.713262,-0.696610,-0.055388,0.054081
53,0.030833,-9.626505,0.224766,0.025934,0.091130,-0.000392,-88.662331,-0.208129,8.874404,0.713266,-0.696608,-0.055359,0.054076
54,0.029045,-9.628624,0.226184,0.025945,0.072820,-0.001840,-88.661179,-0.206037,8.871671,0.713273,-0.696603,-0.055329,0.054072
55,0.033082,-9.620840,0.229615,0.033619,0.072822,-0.000259,-88.658966,-0.204535,8.869238,0.713287,-0.696592,-0.055304,0.054067
57,0.031929,-9.620192,0.225736,0.036711,0.074349,-0.001755,-88.656738,-0.203727,8.866782,0.713301,-0.696579,-0.055283,0.054058
58,0.033515,-9.614337,0.226354,0.038247,0.069771,-0.009362,-88.655190,-0.203241,8.864375,0.713312,-0.696571,-0.055264,0.054046
59,0.036101,-9.617558,0.224721,0.041297,0.059090,-0.013949,-88.653885,-0.203836,8.862220,0.713321,-0.696564,-0.055254,0.054030
60,0.033333,-9.625586,0.216494,0.044270,0.066719,-0.003276,-88.654579,-0.204284,8.860124,0.713318,-0.696569,-0.055245,0.054014
61,0.030600,-9.621605,0.210771,0.045609,0.075875,-0.001715,-88.658012,-0.203392,8.857763,0.713298,-0.696592,-0.055227,0.054003
62,0.028065,-9.618985,0.209393,0.054534,0.077401,-0.010797,-88.662521,-0.201595,8.855227,0.713271,-0.696622,-0.055202,0.053996
64,0.029378,-9.628494,0.210884,0.048209,0.083506,-0.007666,-88.666725,-0.199737,8.852560,0.713246,-0.696650,-0.055176,0.053989
65,0.028891,-9.631797,0.206183,0.046444,0.088085,0.001557,-88.671463,-0.197948,8.849720,0.713217,-0.696682,-0.055150,0.053980
66,0.030374,-9.630228,0.209942,0.046211,0.091138,-0.015171,-88.676117,-0.196600,8.846750,0.713190,-0.696713,-0.055126,0.053967
67,0.032173,-9.643260,0.205906,0.068875,0.080456,0.004694,-88.680206,-0.195950,8.843907,0.713166,-0.696740,-0.055106,0.053951
68,0.030016,-9.642261,0.204900,0.067096,0.080455,0.009301,-88.684708,-0.194884,8.841254,0.713139,-0.696770,-0.055086,0.053939
69,0.030126,-9.638208,0.201519,0.072924,0.078929,0.026128,-88.689697,-0.193117,8.838637,0.713109,-0.696803,-0.055061,0.053931
71,0.031458,-9.632813,0.203701,0.065024,0.078929,0.020051,-88.694611,-0.191558,8.836049,0.713080,-0.696836,-0.055038,0.053922
72,0.031337,-9.631775,0.202732,0.061724,0.069773,0.027695,-88.699104,-0.190331,8.833611,0.713053,-0.696866,-0.055018,0.053912
73,0.030810,-9.623610,0.206440,0.041672,0.059091,0.004821,-88.703094,-0.189337,8.831496,0.713030,-0.696892,-0.055001,0.053903
74,0.033952,-9.618765,0.208294,0.032355,0.060616,0.000236,-88.706131,-0.189404,8.829515,0.713012,-0.696912,-0.054990,0.053889
75,0.032708,-9.615183,0.207902,0.027638,0.071296,-0.018098,-88.708855,-0.190263,8.827325,0.712997,-0.696929,-0.054984,0.053869
76,0.032850,-9.618544,0.209720,0.027517,0.066719,-0.021163,-88.711166,-0.191226,8.825021,0.712984,-0.696944,-0.054977,0.053848
78,0.034839,-9.614552,0.209145,0.031988,0.066718,-0.022716,-88.712990,-0.192631,8.822790,0.712975,-0.696956,-0.054973,0.053824
79,0.035765,-9.622668,0.211108,0.028846,0.074346,-0.022762,-88.714394,-0.194556,8.820431,0.712968,-0.696965,-0.054971,0.053797
80,0.033116,-9.625948,0.215285,0.024224,0.059086,-0.028894,-88.714653,-0.196127,8.818192,0.712969,-0.696967,-0.054967,0.053774
81,0.031090,-9.624258,0.212714,0.016566,0.060612,-0.028884,-88.714752,-0.196758,8.816179,0.712969,-0.696968,-0.054959,0.053757
82,0.028445,-9.622686,0.211698,0.024140,0.066717,-0.025784,-88.715538,-0.196338,8.814042,0.712965,-0.696974,-0.054944,0.053746
83,0.025282,-9.629024,0.212860,0.021035,0.069770,-0.018062,-88.716209,-0.194572,8.811756,0.712961,-0.696980,-0.054919,0.053742
85,0.024066,-9.624008,0.217527,0.030181,0.066721,-0.008785,-88.715591,-0.191726,8.809474,0.712965,-0.696979,-0.054887,0.053746
86,0.028647,-9.628502,0.211715,0.039320,0.078930,-0.001064,-88.714874,-0.189415,8.807043,0.712969,-0.696977,-0.054858,0.053745
87,0.031415,-9.641807,0.215771,0.053018,0.063672,-0.001034,-88.714256,-0.188594,8.804668,0.712974,-0.696975,-0.054838,0.053736
88,0.032114,-9.643632,0.219042,0.053033,0.063672,-0.007137,-88.712074,-0.188661,8.802544,0.712988,-0.696962,-0.054825,0.053723
89,0.030408,-9.632727,0.218625,0.046965,0.048413,-0.013233,-88.709488,-0.188769,8.800666,0.713005,-0.696947,-0.054813,0.053712
90,0.031827,-9.628760,0.215991,0.046973,0.051465,-0.023906,-88.707687,-0.189108,8.798986,0.713017,-0.696936,-0.054804,0.053700
92,0.033231,-9.620566,0.218770,0.034771,0.039257,-0.022392,-88.706161,-0.190156,8.797457,0.713027,-0.696927,-0.054800,0.053685
93,0.033056,-9.617768,0.219845,0.031751,0.054516,-0.017833,-88.704185,-0.191306,8.795877,0.713041,-0.696915,-0.054797,0.053669
94,0.030017,-9.619713,0.216300,0.033288,0.056042,-0.019352,-88.702827,-0.191689,8.794018,0.713050,-0.696907,-0.054787,0.053656
95,0.035797,-9.624472,0.219187,0.045495,0.063672,-0.022415,-88.701523,-0.192632,8.792008,0.713059,-0.696899,-0.054780,0.053638
96,0.030718,-9.628534,0.217899,0.043975,0.060620,-0.017851,-88.699837,-0.193639,8.789920,0.713071,-0.696889,-0.054773,0.053620
97,0.025779,-9.633876,0.216495,0.048534,0.074354,-0.023893,-88.698792,-0.192608,8.787658,0.713078,-0.696885,-0.054752,0.053613
99,0.026095,-9.631884,0.217581,0.036302,0.059097,-0.026848,-88.698036,-0.190810,8.785418,0.713083,-0.696882,-0.054727,0.053610
100,0.032263,-9.630232,0.220582,0.034780,0.060624,-0.022224,-88.696747,-0.190371,8.783404,0.713091,-0.696875,-0.054712,0.053601
101,0.028747,-9.632651,0.217269,0.025623,0.069781,-0.023727,-88.695763,-0.190476,8.781214,0.713098,-0.696870,-0.054698,0.053587
102,0.034123,-9.632887,0.218814,0.025606,0.078936,-0.016088,-88.695366,-0.190849,8.778722,0.713102,-0.696868,-0.054685,0.053569
103,0.036630,-9.633412,0.220066,0.036289,0.075883,-0.005456,-88.694305,-0.192463,8.776135,0.713110,-0.696862,-0.054679,0.053544
104,0.034192,-9.629508,0.219049,0.039343,0.088090,-0.003977,-88.692978,-0.193820,8.773399,0.713120,-0.696855,-0.054670,0.053519
106,0.031349,-9.628539,0.215620,0.030153,0.078934,-0.003982,-88.692711,-0.194009,8.770616,0.713123,-0.696854,-0.054655,0.053501
107,0.037004,-9.633065,0.218746,0.039271,0.081985,-0.000954,-88.692566,-0.194654,8.767937,0.713126,-0.696854,-0.054642,0.053480
108,0.034757,-9.635203,0.218710,0.030098,0.078932,-0.011682,-88.691849,-0.196069,8.765252,0.713132,-0.696850,-0.054634,0.053455
109,0.034707,-9.632406,0.219426,0.023981,0.078931,-0.020866,-88.691277,-0.197295,8.762611,0.713137,-0.696847,-0.054626,0.053432
110,0.034751,-9.633930,0.217863,0.033117,0.075878,-0.017839,-88.690865,-0.198536,8.760018,0.713142,-0.696845,-0.054617,0.053408
111,0.039270,-9.630706,0.217215,0.037655,0.078929,-0.027050,-88.690689,-0.200704,8.757425,0.713145,-0.696845,-0.054615,0.053379
113,0.035511,-9.627404,0.216898,0.033034,0.077402,-0.031684,-88.690689,-0.203143,8.754801,0.713147,-0.696845,-0.054614,0.053348
114,0.035969,-9.626345,0.217386,0.036042,0.072823,-0.022556,-88.690674,-0.204705,8.752282,0.713149,-0.696845,-0.054609,0.053323
115,0.035669,-9.633430,0.220289,0.040602,0.072822,-0.014949,-88.689903,-0.205883,8.749844,0.713156,-0.696841,-0.054601,0.053301
116,0.037525,-9.631052,0.222246,0.036039,0.077400,-0.022610,-88.688187,-0.207274,8.747321,0.713168,-0.696831,-0.054593,0.053277
117,0.030924,-9.633599,0.225386,0.037615,0.080452,-0.024128,-88.685608,-0.207789,8.744670,0.713185,-0.696816,-0.054579,0.053259
118,0.033318,-9.632397,0.224462,0.033099,0.077401,-0.028665,-88.682793,-0.207507,8.742014,0.713203,-0.696799,-0.054560,0.053246
120,0.033062,-9.624821,0.226490,0.036215,0.085032,-0.039320,-88.679916,-0.207897,8.739274,0.713222,-0.696783,-0.054544,0.053228
121,0.035476,-9.616518,0.225551,0.030178,0.091135,-0.025578,-88.676987,-0.208666,8.736308,0.713242,-0.696765,-0.054530,0.053206
122,0.034713,-9.621078,0.224704,0.034804,0.085032,-0.021002,-88.674614,-0.209421,8.733351,0.713258,-0.696752,-0.054515,0.053184
123,0.039670,-9.620659,0.221298,0.036339,0.083506,-0.008826,-88.673180,-0.210679,8.730529,0.713268,-0.696744,-0.054505,0.053159
124,0.035992,-9.621788,0.219667,0.048513,0.080453,0.000292,-88.672646,-0.211770,8.727798,0.713273,-0.696741,-0.054495,0.053136
125,0.036753,-9.622951,0.217875,0.040822,0.078926,0.001805,-88.672791,-0.212027,8.725149,0.713274,-0.696743,-0.054481,0.053118
127,0.035921,-9.629271,0.215223,0.045304,0.072822,-0.011939,-88.673920,-0.212425,8.722627,0.713268,-0.696751,-0.054469,0.053099
128,0.036776,-9.619263,0.212565,0.045171,0.077399,-0.001268,-88.675964,-0.212862,8.720133,0.713257,-0.696765,-0.054457,0.053080
129,0.033837,-9.621714,0.219386,0.048123,0.077399,0.010946,-88.677002,-0.212480,8.717566,0.713252,-0.696773,-0.054440,0.053066
130,0.034336,-9.623101,0.219399,0.045029,0.077399,0.007918,-88.676605,-0.211455,8.714998,0.713255,-0.696772,-0.054417,0.053056
131,0.034123,-9.632541,0.218451,0.043450,0.071296,0.014043,-88.676491,-0.210477,8.712534,0.713256,-0.696773,-0.054396,0.053047
132,0.036309,-9.626444,0.218839,0.034238,0.075873,0.024728,-88.676704,-0.209676,8.710102,0.713256,-0.696776,-0.054377,0.053037
134,0.037793,-9.632333,0.221530,0.029627,0.069770,0.009442,-88.676537,-0.209739,8.707692,0.713258,-0.696776,-0.054362,0.053021
135,0.040901,-9.629612,0.219411,0.026545,0.081975,0.003278,-88.676376,-0.211089,8.705170,0.713261,-0.696775,-0.054355,0.052998
136,0.041170,-9.632742,0.220508,0.021930,0.083499,0.013875,-88.676582,-0.212982,8.702424,0.713262,-0.696777,-0.054350,0.052969
137,0.043489,-9.626186,0.219451,0.026471,0.097230,0.016827,-88.676758,-0.215052,8.699428,0.713263,-0.696778,-0.054345,0.052938
138,0.040021,-9.619493,0.220699,0.041697,0.089597,0.006059,-88.676491,-0.216900,8.696326,0.713267,-0.696777,-0.054338,0.052907
139,0.035628,-9.612718,0.219399,0.032510,0.095701,0.006036,-88.676071,-0.217250,8.693247,0.713271,-0.696776,-0.054321,0.052886
141,0.033236,-9.616871,0.214665,0.029381,0.091124,0.004541,-88.677071,-0.216205,8.690145,0.713266,-0.696784,-0.054296,0.052873
142,0.031984,-9.608024,0.218117,0.027771,0.094177,0.007649,-88.678368,-0.214437,8.687071,0.713259,-0.696795,-0.054267,0.052864
143,0.026246,-9.612300,0.221277,0.029265,0.077394,-0.002929,-88.678246,-0.211508,8.684217,0.713259,-0.696797,-0.054231,0.052864
144,0.025722,-9.615353,0.218984,0.032292,0.086553,-0.001257,-88.677879,-0.207637,8.681486,0.713261,-0.696798,-0.054190,0.052870
145,0.027303,-9.623601,0.217103,0.039863,0.086555,-0.001128,-88.678238,-0.204163,8.678608,0.713259,-0.696803,-0.054152,0.052873
146,0.028066,-9.621698,0.220607,0.039815,0.081980,-0.010181,-88.678162,-0.201547,8.675799,0.713259,-0.696805,-0.054118,0.052872
147,0.029836,-9.629053,0.212943,0.048892,0.080455,-0.023838,-88.678787,-0.200014,8.673087,0.713256,-0.696811,-0.054092,0.052864
148,0.030242,-9.623692,0.212818,0.051807,0.095715,-0.019205,-88.680733,-0.199195,8.670146,0.713245,-0.696825,-0.054070,0.052850
149,0.025644,-9.630058,0.213712,0.047101,0.088087,-0.022174,-88.682480,-0.197591,8.667079,0.713235,-0.696838,-0.054042,0.052840
150,0.023318,-9.629499,0.216561,0.054635,0.081986,-0.014412,-88.683350,-0.194618,8.664241,0.713230,-0.696846,-0.054007,0.052840
151,0.022082,-9.621932,0.220137,0.051539,0.081989,-0.009682,-88.682747,-0.190888,8.661503,0.713233,-0.696845,-0.053967,0.052846
152,0.019888,-9.617155,0.226474,0.040890,0.083519,0.005747,-88.680344,-0.186370,8.658741,0.713247,-0.696834,-0.053921,0.052857
153,0.015104,-9.617251,0.225785,0.045539,0.074369,0.002906,-88.676994,-0.180538,8.656108,0.713266,-0.696817,-0.053867,0.052878
154,0.021679,-9.615731,0.225540,0.041018,0.075899,0.015297,-88.674011,-0.175249,8.653606,0.713283,-0.696802,-0.053818,0.052896
155,0.027897,-9.616530,0.227462,0.039554,0.086583,0.019951,-88.671021,-0.172583,8.650909,0.713301,-0.696786,-0.053783,0.052897
156,0.029807,-9.621867,0.224857,0.042653,0.074376,0.018430,-88.668343,-0.171741,8.648237,0.713318,-0.696771,-0.053761,0.052886
157,0.030028,-9.618155,0.222443,0.051813,0.077427,0.015363,-88.666664,-0.171517,8.645721,0.713330,-0.696762,-0.053743,0.052873
158,0.038228,-9.620685,0.221512,0.053313,0.071322,0.019863,-88.665604,-0.172978,8.643257,0.713338,-0.696756,-0.053737,0.052849
159,0.033079,-9.628010,0.219989,0.056315,0.074372,0.006030,-88.665100,-0.175154,8.640843,0.713343,-0.696753,-0.053735,0.052821
160,0.028914,-9.626255,0.216053,0.048591,0.072845,-0.009255,-88.665833,-0.175841,8.638396,0.713340,-0.696758,-0.053725,0.052801
161,0.027435,-9.628287,0.212415,0.051494,0.088104,-0.006184,-88.668144,-0.175512,8.635721,0.713327,-0.696774,-0.053708,0.052786
162,0.028710,-9.629744,0.217021,0.045252,0.086578,-0.018370,-88.670227,-0.175275,8.632812,0.713315,-0.696788,-0.053690,0.052768
163,0.029140,-9.631042,0.213296,0.039020,0.082000,-0.018361,-88.672211,-0.175599,8.629999,0.713305,-0.696802,-0.053675,0.052747
164,0.036128,-9.625899,0.214135,0.029721,0.080472,-0.021460,-88.674866,-0.177447,8.627288,0.713291,-0.696819,-0.053672,0.052718
165,0.035519,-9.625674,0.214605,0.034173,0.077418,-0.018500,-88.677170,-0.180496,8.624653,0.713279,-0.696833,-0.053676,0.052682
166,0.035726,-9.626925,0.218227,0.034083,0.068260,-0.015530,-88.678436,-0.183207,8.622220,0.713274,-0.696841,-0.053678,0.052650
167,0.034831,-9.633044,0.211235,0.029392,0.062155,-0.003393,-88.680359,-0.185339,8.620050,0.713264,-0.696853,-0.053679,0.052622
168,0.032203,-9.629339,0.215397,0.029263,0.069783,-0.009534,-88.682831,-0.186508,8.617857,0.713251,-0.696868,-0.053674,0.052601
169,0.029869,-9.626003,0.216070,0.030703,0.072835,-0.003427,-88.684143,-0.186584,8.615483,0.713244,-0.696878,-0.053661,0.052585
170,0.029541,-9.627874,0.215707,0.026046,0.069783,0.005753,-88.685318,-0.185837,8.613115,0.713238,-0.696886,-0.053642,0.052574
171,0.030145,-9.619369,0.215337,0.030542,0.081991,0.010352,-88.686508,-0.184939,8.610598,0.713231,-0.696896,-0.053622,0.052563
172,0.030732,-9.613859,0.219192,0.038122,0.086569,0.007311,-88.686684,-0.184308,8.607800,0.713231,-0.696898,-0.053601,0.052550
173,0.028984,-9.615304,0.217115,0.031984,0.091147,0.024113,-88.686409,-0.183268,8.604853,0.713233,-0.696898,-0.053577,0.052538
174,0.027371,-9.617387,0.223116,0.033505,0.089622,0.024153,-88.685455,-0.181332,8.601861,0.713240,-0.696895,-0.053546,0.052531
175,0.033849,-9.611545,0.225390,0.032034,0.088096,0.018049,-88.682877,-0.180565,8.598911,0.713256,-0.696880,-0.053522,0.052519
176,0.032881,-9.615664,0.221646,0.029021,0.074362,-0.001833,-88.680779,-0.181423,8.596207,0.713271,-0.696868,-0.053510,0.052498
177,0.033408,-9.616949,0.219609,0.019857,0.065205,-0.009503,-88.680206,-0.182654,8.593878,0.713276,-0.696865,-0.053503,0.052476
178,0.037636,-9.618504,0.218846,0.021348,0.066729,-0.029414,-88.680428,-0.185220,8.591667,0.713277,-0.696866,-0.053506,0.052447
179,0.039720,-9.625020,0.213595,0.024320,0.063675,-0.040212,-88.681816,-0.189419,8.589475,0.713271,-0.696874,-0.053519,0.052407
180,0.034586,-9.628825,0.215921,0.021165,0.059094,-0.041822,-88.683784,-0.192988,8.587406,0.713262,-0.696886,-0.053530,0.052371
181,0.034825,-9.627257,0.222911,0.025714,0.059093,-0.029652,-88.683777,-0.195152,8.585414,0.713264,-0.696885,-0.053531,0.052346
182,0.034346,-9.626804,0.222420,0.028787,0.074352,-0.032734,-88.682281,-0.196921,8.583164,0.713275,-0.696876,-0.053528,0.052322
183,0.035115,-9.623404,0.223993,0.016608,0.074351,-0.023605,-88.680748,-0.198513,8.580661,0.713286,-0.696867,-0.053522,0.052297
184,0.031172,-9.623137,0.222836,0.024266,0.077403,-0.019026,-88.679298,-0.199136,8.578115,0.713296,-0.696859,-0.053510,0.052278
185,0.029438,-9.617594,0.221226,0.038005,0.088086,-0.014402,-88.678108,-0.198403,8.575344,0.713304,-0.696853,-0.053488,0.052266
186,0.028707,-9.619627,0.215553,0.042532,0.100295,-0.021968,-88.678131,-0.197228,8.572195,0.713305,-0.696855,-0.053461,0.052253
187,0.033789,-9.624640,0.217223,0.047025,0.086562,-0.015835,-88.678864,-0.197000,8.569076,0.713302,-0.696862,-0.053441,0.052235
188,0.032551,-9.629096,0.216005,0.057625,0.081984,-0.009732,-88.679276,-0.197378,8.566265,0.713301,-0.696865,-0.053427,0.052215
189,0.035641,-9.628447,0.217265,0.039233,0.078931,-0.005169,-88.679787,-0.197941,8.563584,0.713299,-0.696869,-0.053414,0.052195
190,0.037339,-9.630620,0.218023,0.034591,0.074352,-0.017424,-88.680267,-0.199552,8.561028,0.713298,-0.696873,-0.053409,0.052169
191,0.037975,-9.631552,0.216350,0.026891,0.063669,-0.012909,-88.681107,-0.201685,8.558723,0.713295,-0.696878,-0.053408,0.052141
192,0.033221,-9.632933,0.214820,0.022220,0.056038,-0.006834,-88.682762,-0.202707,8.556729,0.713286,-0.696889,-0.053403,0.052122
193,0.031942,-9.630489,0.218046,0.028247,0.057564,-0.012915,-88.683968,-0.202430,8.554836,0.713280,-0.696897,-0.053391,0.052111
194,0.033741,-9.625426,0.221441,0.038906,0.068246,-0.003743,-88.683456,-0.202181,8.552736,0.713284,-0.696895,-0.053376,0.052100
195,0.032696,-9.627196,0.220824,0.046535,0.071298,0.005425,-88.682045,-0.201790,8.550412,0.713293,-0.696888,-0.053359,0.052088
196,0.034035,-9.624347,0.225060,0.040454,0.069773,0.000855,-88.679955,-0.201402,8.548062,0.713307,-0.696876,-0.053341,0.052077
197,0.034655,-9.618160,0.225901,0.046617,0.091136,0.000848,-88.676926,-0.201504,8.545376,0.713326,-0.696858,-0.053324,0.052061
198,0.038195,-9.620954,0.232721,0.034520,0.077402,0.006913,-88.672638,-0.202339,8.542561,0.713354,-0.696833,-0.053310,0.052040
199,0.037157,-9.621919,0.230776,0.033131,0.068246,-0.002298,-88.667854,-0.203697,8.540121,0.713385,-0.696803,-0.053302,0.052019
200,0.038196,-9.627486,0.230686,0.011877,0.081978,-0.005403,-88.664200,-0.205181,8.537604,0.713409,-0.696781,-0.053294,0.051996
201,0.037409,-9.637643,0.228646,0.015009,0.089606,0.002176,-88.661613,-0.206525,8.534737,0.713427,-0.696766,-0.053284,0.051971
202,0.034879,-9.632715,0.224612,0.008930,0.072821,-0.013106,-88.660522,-0.207245,8.532022,0.713435,-0.696760,-0.053271,0.051951
203,0.034104,-9.631491,0.218810,0.021087,0.086554,-0.014627,-88.661369,-0.207527,8.529362,0.713431,-0.696766,-0.053257,0.051932
204,0.029982,-9.634957,0.217056,0.024031,0.083503,-0.020689,-88.663475,-0.206926,8.526525,0.713419,-0.696781,-0.053237,0.051917
205,0.033328,-9.631422,0.214216,0.036101,0.056037,-0.016064,-88.666153,-0.206218,8.524199,0.713404,-0.696799,-0.053220,0.051905
206,0.032156,-9.625041,0.214422,0.032898,0.045356,-0.029767,-88.668999,-0.206156,8.522507,0.713387,-0.696817,-0.053210,0.051894
207,0.033324,-9.630435,0.222048,0.034338,0.059089,-0.023636,-88.670128,-0.206246,8.520753,0.713381,-0.696825,-0.053201,0.051882
208,0.031425,-9.629556,0.219842,0.032773,0.059090,-0.032757,-88.670074,-0.206231,8.518765,0.713382,-0.696826,-0.053189,0.051870
209,0.035875,-9.622947,0.220631,0.022043,0.049934,-0.025113,-88.670441,-0.206753,8.516932,0.713381,-0.696829,-0.053181,0.051855
210,0.033760,-9.625204,0.219875,0.020470,0.054512,-0.022063,-88.670967,-0.207548,8.515178,0.713379,-0.696832,-0.053175,0.051839
211,0.032689,-9.622163,0.224790,0.021982,0.057564,-0.002202,-88.670647,-0.207282,8.513302,0.713382,-0.696831,-0.053162,0.051829
212,0.029411,-9.622496,0.219549,0.020439,0.056040,0.002432,-88.670364,-0.205729,8.511411,0.713384,-0.696831,-0.053141,0.051827
213,0.030306,-9.620366,0.221971,0.017351,0.056041,0.005556,-88.670738,-0.203636,8.509550,0.713381,-0.696836,-0.053117,0.051828
214,0.023292,-9.624573,0.221973,0.031064,0.065200,-0.011116,-88.670456,-0.200672,8.507529,0.713383,-0.696836,-0.053086,0.051833
215,0.023359,-9.617318,0.227020,0.029556,0.077410,-0.009432,-88.668961,-0.196740,8.505144,0.713391,-0.696830,-0.053046,0.051843
216,0.029938,-9.622680,0.224861,0.025017,0.085043,-0.012384,-88.667038,-0.194370,8.502425,0.713403,-0.696820,-0.053014,0.051842
217,0.034510,-9.620231,0.229760,0.026595,0.081991,-0.016953,-88.664734,-0.194547,8.499625,0.713418,-0.696807,-0.052997,0.051824
218,0.030805,-9.619612,0.228365,0.028196,0.089622,-0.027635,-88.661812,-0.195223,8.496741,0.713438,-0.696790,-0.052983,0.051803
219,0.035209,-9.616740,0.227716,0.031302,0.095725,-0.010853,-88.659386,-0.195904,8.493633,0.713454,-0.696776,-0.052967,0.051781
220,0.035642,-9.627346,0.224614,0.043528,0.089621,-0.018521,-88.657654,-0.197342,8.490531,0.713467,-0.696766,-0.052956,0.051754
221,0.033230,-9.619119,0.225877,0.055733,0.085042,-0.029224,-88.656036,-0.198626,8.487603,0.713478,-0.696756,-0.052946,0.051728
222,0.030408,-9.618737,0.221607,0.063336,0.078939,-0.033780,-88.654747,-0.199045,8.484848,0.713488,-0.696750,-0.052931,0.051709
223,0.031840,-9.621887,0.216699,0.061712,0.083517,-0.027642,-88.655304,-0.199103,8.482127,0.713486,-0.696754,-0.052915,0.051692
224,0.032807,-9.618522,0.212732,0.049338,0.083517,-0.035256,-88.657860,-0.199646,8.479335,0.713471,-0.696771,-0.052902,0.051670
225,0.031996,-9.615140,0.215844,0.043067,0.088095,-0.036765,-88.660774,-0.200353,8.476462,0.713455,-0.696790,-0.052891,0.051646
226,0.028800,-9.621868,0.211221,0.030687,0.097250,-0.036718,-88.664131,-0.200241,8.473361,0.713436,-0.696813,-0.052873,0.051626
227,0.032830,-9.623040,0.215635,0.028994,0.091148,-0.039728,-88.667587,-0.200318,8.470208,0.713417,-0.696836,-0.052855,0.051605
228,0.030027,-9.623648,0.219563,0.027370,0.081992,-0.039695,-88.669228,-0.200694,8.467301,0.713408,-0.696847,-0.052841,0.051583
229,0.027740,-9.618772,0.223849,0.042601,0.081994,-0.036572,-88.668816,-0.199998,8.464543,0.713412,-0.696846,-0.052820,0.051571
230,0.028840,-9.616566,0.220128,0.044105,0.074365,-0.031914,-88.667953,-0.198954,8.461913,0.713418,-0.696842,-0.052797,0.051561
232,0.030178,-9.617244,0.219430,0.048627,0.069790,-0.025752,-88.667892,-0.198279,8.459494,0.713419,-0.696843,-0.052778,0.051550
233,0.029635,-9.620288,0.218463,0.043978,0.077420,-0.024174,-88.668213,-0.197685,8.457028,0.713418,-0.696847,-0.052759,0.051538
234,0.033211,-9.618823,0.218404,0.040849,0.069791,-0.018043,-88.668861,-0.197607,8.454565,0.713415,-0.696852,-0.052744,0.051523
235,0.038489,-9.628725,0.219607,0.022469,0.060634,-0.021135,-88.669662,-0.199258,8.452384,0.713412,-0.696857,-0.052741,0.051499
236,0.038080,-9.629054,0.223457,0.016334,0.068262,-0.019682,-88.669861,-0.201842,8.450223,0.713413,-0.696858,-0.052744,0.051470
237,0.040853,-9.626060,0.227839,0.010261,0.063682,-0.019767,-88.668587,-0.204732,8.448006,0.713423,-0.696850,-0.052748,0.051439
238,0.041079,-9.626049,0.228807,-0.006455,0.062154,-0.021394,-88.666649,-0.208068,8.445888,0.713437,-0.696837,-0.052755,0.051406
239,0.040537,-9.627475,0.226149,-0.003350,0.057574,-0.019960,-88.665398,-0.211137,8.443871,0.713447,-0.696829,-0.052762,0.051376
240,0.038032,-9.626372,0.224173,-0.006387,0.057573,-0.006286,-88.665161,-0.213139,8.441940,0.713450,-0.696828,-0.052762,0.051352
241,0.035378,-9.630057,0.220517,-0.018624,0.052994,-0.009354,-88.666351,-0.213772,8.440096,0.713444,-0.696836,-0.052756,0.051336
242,0.034431,-9.630775,0.220381,-0.009526,0.065202,-0.010865,-88.668343,-0.213673,8.438123,0.713432,-0.696849,-0.052744,0.051323
243,0.034853,-9.628949,0.214118,0.011736,0.071305,-0.004742,-88.670990,-0.213370,8.435853,0.713417,-0.696867,-0.052729,0.051310
244,0.034942,-9.631590,0.218946,0.008578,0.074357,-0.015409,-88.673462,-0.213252,8.433429,0.713403,-0.696883,-0.052715,0.051294
245,0.032726,-9.627904,0.219380,0.019199,0.077410,-0.024534,-88.674591,-0.213056,8.430891,0.713397,-0.696891,-0.052699,0.051279
246,0.034521,-9.626713,0.218446,0.029823,0.077410,-0.027553,-88.675323,-0.212990,8.428296,0.713394,-0.696897,-0.052683,0.051263
247,0.032859,-9.620798,0.219849,0.020616,0.065204,-0.029048,-88.675842,-0.213045,8.425904,0.713392,-0.696901,-0.052669,0.051247
248,0.025904,-9.621506,0.220688,0.005325,0.060628,-0.030479,-88.676262,-0.211449,8.423786,0.713390,-0.696906,-0.052646,0.051244
249,0.026211,-9.619278,0.222255,-0.000791,0.065209,-0.025759,-88.676529,-0.208530,8.421669,0.713388,-0.696910,-0.052615,0.051248
250,0.025260,-9.625370,0.219239,-0.013022,0.062160,-0.028669,-88.677376,-0.205603,8.419529,0.713382,-0.696917,-0.052585,0.051252
251,0.025346,-9.625351,0.221651,-0.005421,0.059111,-0.031580,-88.678413,-0.202794,8.417487,0.713376,-0.696926,-0.052555,0.051256
252,0.024024,-9.629249,0.217297,0.000642,0.059115,-0.023807,-88.679565,-0.199850,8.415500,0.713368,-0.696936,-0.052525,0.051261
253,0.026272,-9.632026,0.213608,0.012751,0.069799,-0.016047,-88.681961,-0.197015,8.413346,0.713353,-0.696953,-0.052496,0.051264
254,0.032490,-9.627278,0.209974,0.021758,0.066748,0.002323,-88.685326,-0.195614,8.411078,0.713333,-0.696975,-0.052475,0.051257
255,0.035833,-9.615360,0.207478,0.036833,0.080480,0.006883,-88.689247,-0.195877,8.408646,0.713311,-0.697001,-0.052463,0.051238
256,0.037019,-9.612557,0.205565,0.030525,0.082004,0.009882,-88.693596,-0.196955,8.405966,0.713286,-0.697029,-0.052455,0.051213
257,0.042764,-9.617414,0.211103,0.030356,0.083527,0.008253,-88.697052,-0.199339,8.403229,0.713267,-0.697050,-0.052455,0.051180
258,0.040144,-9.616256,0.217199,0.031809,0.069791,0.006605,-88.697945,-0.202285,8.400686,0.713264,-0.697056,-0.052458,0.051146
259,0.033869,-9.623693,0.219150,0.034854,0.075893,-0.004126,-88.697044,-0.203492,8.398262,0.713271,-0.697051,-0.052451,0.051124
260,0.028133,-9.630513,0.224725,0.036424,0.063687,-0.010183,-88.694633,-0.202448,8.395926,0.713286,-0.697037,-0.052429,0.051117
261,0.023266,-9.635021,0.225852,0.033462,0.065217,-0.017687,-88.691086,-0.199521,8.393759,0.713308,-0.697017,-0.052396,0.051123
262,0.016745,-9.629457,0.223673,0.030484,0.063695,-0.029690,-88.688042,-0.194793,8.391586,0.713325,-0.697002,-0.052352,0.051139
263,0.018703,-9.628862,0.220212,0.030509,0.063701,-0.041668,-88.686356,-0.189818,8.389435,0.713334,-0.696994,-0.052307,0.051157
264,0.018901,-9.626642,0.220934,0.019826,0.059127,-0.049096,-88.685539,-0.185921,8.387354,0.713338,-0.696992,-0.052270,0.051168
265,0.021098,-9.629972,0.221463,0.024409,0.059131,-0.041295,-88.684654,-0.182789,8.385348,0.713343,-0.696989,-0.052238,0.051175
266,0.022850,-9.621881,0.225213,0.036651,0.059134,-0.027428,-88.682686,-0.180316,8.383346,0.713355,-0.696979,-0.052209,0.051179
267,0.026387,-9.617624,0.225147,0.038239,0.059137,-0.027341,-88.679794,-0.178853,8.381351,0.713373,-0.696962,-0.052187,0.051176
268,0.029742,-9.613224,0.229296,0.042904,0.057612,-0.027310,-88.676102,-0.178892,8.379375,0.713396,-0.696940,-0.052174,0.051165
269,0.029315,-9.603490,0.224326,0.058239,0.053034,-0.027303,-88.672394,-0.179570,8.377504,0.713420,-0.696918,-0.052165,0.051151
270,0.031691,-9.603087,0.225453,0.043019,0.057612,-0.033413,-88.669655,-0.180719,8.375634,0.713438,-0.696901,-0.052159,0.051134
271,0.030026,-9.603880,0.216747,0.036890,0.053034,-0.039527,-88.668991,-0.182152,8.373764,0.713443,-0.696897,-0.052157,0.051114
272,0.031786,-9.609666,0.216792,0.032218,0.066767,-0.031903,-88.670380,-0.183485,8.371750,0.713437,-0.696906,-0.052153,0.051093
273,0.031517,-9.614456,0.215110,0.029057,0.069819,-0.016659,-88.672234,-0.184628,8.369463,0.713427,-0.696918,-0.052147,0.051071
274,0.032236,-9.620281,0.212485,0.021290,0.083551,-0.010569,-88.675064,-0.185409,8.366909,0.713411,-0.696936,-0.052138,0.051049
275,0.036244,-9.623699,0.212204,0.030290,0.078971,0.004643,-88.678329,-0.186701,8.364211,0.713393,-0.696957,-0.052131,0.051023
276,0.035512,-9.628560,0.217986,0.037811,0.085074,0.006100,-88.680069,-0.188287,8.361492,0.713384,-0.696969,-0.052125,0.050995
277,0.035859,-9.635888,0.217767,0.042327,0.078968,0.001461,-88.680389,-0.189746,8.358767,0.713384,-0.696971,-0.052118,0.050969
278,0.033025,-9.631858,0.219153,0.033120,0.082019,0.005999,-88.680511,-0.190611,8.356091,0.713385,-0.696973,-0.052107,0.050947
279,0.032228,-9.631949,0.224803,0.042277,0.078967,0.002937,-88.679207,-0.190657,8.353415,0.713394,-0.696966,-0.052090,0.050931
280,0.026940,-9.629499,0.223255,0.028575,0.077442,-0.016863,-88.677185,-0.189851,8.350800,0.713407,-0.696955,-0.052068,0.050920
281,0.027748,-9.624384,0.220366,0.023992,0.074391,-0.025949,-88.676430,-0.188669,8.348254,0.713412,-0.696952,-0.052045,0.050912
282,0.026057,-9.616143,0.221523,0.022448,0.071342,-0.015195,-88.676140,-0.187359,8.345810,0.713415,-0.696952,-0.052022,0.050905
283,0.019865,-9.616628,0.219001,0.025470,0.074396,-0.012015,-88.676117,-0.184340,8.343374,0.713415,-0.696954,-0.051988,0.050908
284,0.019387,-9.618139,0.220442,0.011700,0.054563,-0.014895,-88.676498,-0.180141,8.341218,0.713411,-0.696960,-0.051949,0.050920
285,0.019832,-9.615456,0.220203,0.020827,0.057618,-0.007101,-88.676704,-0.176103,8.339344,0.713409,-0.696964,-0.051913,0.050933
286,0.017910,-9.621213,0.217771,0.014676,0.056096,-0.000834,-88.677376,-0.171808,8.337448,0.713404,-0.696971,-0.051875,0.050947
287,0.018915,-9.624106,0.217434,0.028340,0.053047,-0.005251,-88.678490,-0.167577,8.335632,0.713396,-0.696980,-0.051838,0.050961
288,0.026075,-9.622569,0.218163,0.025224,0.049997,-0.018895,-88.679298,-0.165554,8.333912,0.713391,-0.696987,-0.051815,0.050962
289,0.025642,-9.625605,0.217921,0.031270,0.062206,-0.015811,-88.679909,-0.165245,8.332032,0.713388,-0.696992,-0.051802,0.050952
290,0.029793,-9.624002,0.219439,0.028171,0.056102,-0.020388,-88.680168,-0.165773,8.330051,0.713388,-0.696994,-0.051794,0.050936
291,0.035469,-9.622006,0.223032,0.015957,0.051522,-0.017408,-88.679626,-0.168276,8.328244,0.713393,-0.696990,-0.051798,0.050910
292,0.032424,-9.623256,0.219123,-0.000838,0.060676,-0.025124,-88.679634,-0.171278,8.326359,0.713395,-0.696990,-0.051805,0.050880
293,0.032232,-9.626982,0.219489,0.011331,0.065253,-0.025181,-88.680466,-0.173575,8.324244,0.713392,-0.696995,-0.051807,0.050853
294,0.029882,-9.617629,0.215208,0.008215,0.066778,-0.025212,-88.681862,-0.175195,8.322030,0.713385,-0.697004,-0.051804,0.050828
295,0.026842,-9.623503,0.215648,0.000495,0.071356,-0.029776,-88.684113,-0.175691,8.319715,0.713373,-0.697019,-0.051794,0.050810
296,0.028086,-9.628010,0.217006,0.014155,0.078985,-0.025168,-88.685829,-0.175748,8.317195,0.713363,-0.697031,-0.051780,0.050793
297,0.029458,-9.626217,0.219919,0.023272,0.069830,-0.012950,-88.686203,-0.176024,8.314703,0.713362,-0.697034,-0.051767,0.050776
298,0.028537,-9.626715,0.217734,0.023242,0.065252,-0.015993,-88.686211,-0.176232,8.312443,0.713363,-0.697035,-0.051754,0.050760
299,0.029290,-9.638335,0.218497,0.030831,0.059148,-0.017509,-88.686409,-0.176463,8.310362,0.713363,-0.697037,-0.051743,0.050746
300,0.029280,-9.635788,0.216683,0.026202,0.060674,-0.005295,-88.686806,-0.176645,8.308360,0.713362,-0.697040,-0.051732,0.050732
301,0.026107,-9.639693,0.216032,0.018504,0.062201,-0.005265,-88.687881,-0.175978,8.306314,0.713356,-0.697048,-0.051716,0.050723
302,0.027167,-9.636312,0.213995,0.012314,0.062202,-0.008272,-88.689667,-0.174956,8.304241,0.713345,-0.697061,-0.051698,0.050716
303,0.027061,-9.638865,0.215565,0.004598,0.057624,-0.006710,-88.691689,-0.174205,8.302247,0.713334,-0.697074,-0.051682,0.050707
304,0.030369,-9.632652,0.212719,-0.004648,0.069831,-0.008227,-88.694099,-0.174147,8.300124,0.713320,-0.697090,-0.051670,0.050693
305,0.032170,-9.635393,0.215289,0.008999,0.074408,-0.015886,-88.696320,-0.175277,8.297719,0.713308,-0.697105,-0.051663,0.050670
306,0.035183,-9.634305,0.213051,0.008920,0.075932,-0.014424,-88.698112,-0.177426,8.295209,0.713299,-0.697116,-0.051662,0.050640
307,0.036230,-9.640108,0.212601,0.007300,0.077456,-0.017566,-88.700340,-0.180293,8.292648,0.713288,-0.697130,-0.051665,0.050606
308,0.038357,-9.639821,0.214567,0.016376,0.086609,0.000639,-88.702034,-0.183363,8.289914,0.713280,-0.697140,-0.051669,0.050570
309,0.035686,-9.642805,0.211392,0.017819,0.082029,-0.000982,-88.703682,-0.185846,8.287111,0.713272,-0.697151,-0.051668,0.050536
310,0.032738,-9.636353,0.209998,0.019232,0.082027,0.003549,-88.706062,-0.186988,8.284388,0.713260,-0.697166,-0.051659,0.050511
311,0.027348,-9.631888,0.213747,0.019144,0.072872,-0.010165,-88.707764,-0.186520,8.281813,0.713250,-0.697178,-0.051642,0.050497
312,0.022391,-9.629187,0.214013,0.026721,0.072874,-0.011594,-88.708374,-0.184239,8.279380,0.713247,-0.697184,-0.051613,0.050496
313,0.025638,-9.622599,0.215142,0.020581,0.060669,-0.022170,-88.708572,-0.181919,8.277144,0.713245,-0.697187,-0.051585,0.050496
314,0.029606,-9.623162,0.223410,0.029771,0.072877,-0.026701,-88.706810,-0.181440,8.274899,0.713257,-0.697178,-0.051567,0.050486
315,0.030856,-9.625360,0.221992,0.031380,0.077455,-0.017541,-88.703568,-0.182003,8.272370,0.713278,-0.697158,-0.051554,0.050468
316,0.031317,-9.619796,0.217649,0.040570,0.097292,-0.009919,-88.701439,-0.182617,8.269445,0.713293,-0.697146,-0.051539,0.050447
317,0.036185,-9.617947,0.219180,0.026845,0.101869,-0.013017,-88.700089,-0.184170,8.266118,0.713303,-0.697138,-0.051528,0.050417
318,0.034625,-9.622774,0.215546,0.020730,0.111022,-0.023767,-88.699608,-0.186529,8.262558,0.713308,-0.697136,-0.051521,0.050381
319,0.032808,-9.618524,0.212612,0.011510,0.098815,-0.020755,-88.700752,-0.188218,8.259049,0.713304,-0.697144,-0.051511,0.050349
320,0.039123,-9.612375,0.209218,0.011402,0.101865,-0.028451,-88.703247,-0.190755,8.255696,0.713291,-0.697160,-0.051507,0.050311
321,0.041807,-9.614313,0.207825,0.003634,0.077446,-0.040788,-88.706680,-0.195284,8.252695,0.713273,-0.697180,-0.051518,0.050263
322,0.038008,-9.614750,0.205587,0.008053,0.074391,-0.037848,-88.710701,-0.199519,8.250150,0.713252,-0.697205,-0.051531,0.050220
323,0.036843,-9.617101,0.205571,0.004834,0.077441,-0.034859,-88.714920,-0.202377,8.247608,0.713229,-0.697231,-0.051535,0.050185
324,0.038910,-9.618925,0.205372,0.013832,0.078965,-0.031869,-88.718826,-0.205073,8.244993,0.713207,-0.697255,-0.051538,0.050150
325,0.035406,-9.630016,0.209913,0.012189,0.078964,-0.024283,-88.721527,-0.207112,8.242352,0.713193,-0.697272,-0.051536,0.050120
326,0.033434,-9.631182,0.214941,0.018252,0.086594,-0.010546,-88.722092,-0.207540,8.239582,0.713191,-0.697277,-0.051522,0.050100
327,0.034408,-9.637296,0.220034,0.036601,0.100327,-0.007480,-88.720169,-0.207394,8.236458,0.713204,-0.697266,-0.051501,0.050082
328,0.033870,-9.631206,0.226639,0.050457,0.101854,-0.005944,-88.715431,-0.207242,8.233072,0.713234,-0.697238,-0.051477,0.050064
329,0.033498,-9.629127,0.225422,0.050613,0.104907,-0.007451,-88.709587,-0.206924,8.229608,0.713271,-0.697204,-0.051452,0.050047
330,0.035739,-9.627679,0.226544,0.056859,0.103381,-0.012026,-88.703979,-0.207094,8.226117,0.713307,-0.697170,-0.051429,0.050027
331,0.036229,-9.621203,0.219308,0.055417,0.104907,-0.010518,-88.699852,-0.207868,8.222630,0.713334,-0.697146,-0.051411,0.050003
332,0.034498,-9.621155,0.214456,0.043192,0.085070,-0.010526,-88.698647,-0.208351,8.219458,0.713342,-0.697139,-0.051394,0.049981
333,0.037266,-9.621571,0.214145,0.037028,0.077440,-0.013592,-88.698944,-0.209059,8.216745,0.713342,-0.697142,-0.051382,0.049959
335,0.035725,-9.617041,0.216879,0.032405,0.071336,-0.012087,-88.698959,-0.210005,8.214260,0.713343,-0.697143,-0.051373,0.049938
336,0.030685,-9.613203,0.213405,0.026253,0.066758,-0.018162,-88.699265,-0.209676,8.211954,0.713343,-0.697146,-0.051357,0.049925
337,0.031062,-9.615108,0.222575,0.020145,0.066760,-0.025727,-88.698616,-0.208630,8.209713,0.713347,-0.697143,-0.051337,0.049918
338,0.030058,-9.612100,0.222791,0.023260,0.066762,-0.024134,-88.696159,-0.207606,8.207463,0.713363,-0.697130,-0.051315,0.049911
339,0.027318,-9.613839,0.214791,0.020211,0.069816,-0.013359,-88.695343,-0.205701,8.205173,0.713368,-0.697126,-0.051289,0.049909
340,0.028754,-9.621499,0.214111,0.026248,0.063714,0.000473,-88.696358,-0.203219,8.202950,0.713361,-0.697135,-0.051261,0.049910
341,0.027640,-9.625608,0.212172,0.015477,0.056086,-0.002487,-88.698013,-0.200766,8.200961,0.713351,-0.697147,-0.051234,0.049912
342,0.031933,-9.637078,0.208298,0.033657,0.053035,0.005205,-88.700676,-0.199023,8.199156,0.713335,-0.697165,-0.051213,0.049910
343,0.036421,-9.635573,0.211510,0.041155,0.062190,0.003671,-88.702942,-0.199050,8.197252,0.713322,-0.697180,-0.051203,0.049897
344,0.037644,-9.637643,0.211898,0.047160,0.053033,0.003618,-88.704109,-0.200291,8.195344,0.713316,-0.697188,-0.051200,0.049877
345,0.042221,-9.632537,0.213778,0.037927,0.062186,-0.004105,-88.704750,-0.202771,8.193430,0.713314,-0.697192,-0.051204,0.049850
346,0.046504,-9.631862,0.215421,0.050087,0.066760,-0.004261,-88.704567,-0.207014,8.191283,0.713318,-0.697189,-0.051217,0.049811
347,0.040900,-9.628802,0.218687,0.039394,0.066757,-0.002873,-88.703346,-0.210752,8.189056,0.713328,-0.697181,-0.051226,0.049775
348,0.038020,-9.628738,0.218875,0.019571,0.062178,-0.012093,-88.701981,-0.212676,8.186900,0.713338,-0.697173,-0.051224,0.049750
349,0.035731,-9.632589,0.223542,0.013514,0.071333,-0.013638,-88.700195,-0.213562,8.184662,0.713350,-0.697162,-0.051215,0.049731
350,0.034177,-9.634531,0.216649,0.019642,0.065230,-0.012099,-88.698990,-0.213587,8.182375,0.713359,-0.697156,-0.051201,0.049718
351,0.034092,-9.636053,0.215687,0.015026,0.062178,-0.004442,-88.699409,-0.213104,8.180249,0.713357,-0.697159,-0.051185,0.049707
352,0.034481,-9.635136,0.212679,0.025639,0.078964,-0.013574,-88.700554,-0.212716,8.177897,0.713351,-0.697168,-0.051169,0.049694
353,0.028815,-9.641644,0.212952,0.039284,0.075913,0.000221,-88.701797,-0.211225,8.175321,0.713344,-0.697177,-0.051145,0.049687
354,0.031190,-9.639853,0.212750,0.043777,0.077440,-0.002746,-88.702675,-0.208963,8.172772,0.713338,-0.697185,-0.051116,0.049684
355,0.031341,-9.639228,0.218416,0.039157,0.091175,-0.014893,-88.702393,-0.207572,8.169961,0.713341,-0.697185,-0.051090,0.049675
356,0.029809,-9.634009,0.219823,0.037645,0.101858,-0.023982,-88.700768,-0.206379,8.166729,0.713352,-0.697177,-0.051062,0.049663
357,0.032379,-9.636067,0.218187,0.020869,0.092704,-0.020875,-88.699532,-0.205578,8.163469,0.713360,-0.697171,-0.051037,0.049648
358,0.032945,-9.630377,0.214810,0.008631,0.095756,-0.028475,-88.699852,-0.205544,8.160312,0.713360,-0.697175,-0.051017,0.049629
359,0.027028,-9.631160,0.218681,0.007077,0.097284,-0.026882,-88.700317,-0.204580,8.157077,0.713358,-0.697179,-0.050992,0.049614
360,0.020124,-9.636053,0.220133,-0.005118,0.094236,-0.014512,-88.699951,-0.200872,8.153869,0.713360,-0.697180,-0.050949,0.049617
361,0.017552,-9.643877,0.223358,0.005608,0.080508,-0.006656,-88.698746,-0.195106,8.150945,0.713366,-0.697177,-0.050895,0.049635
362,0.019785,-9.637110,0.219768,0.005648,0.069832,-0.006438,-88.697487,-0.189463,8.148431,0.713372,-0.697172,-0.050844,0.049654
363,0.030145,-9.640408,0.219481,0.027019,0.066782,-0.003276,-88.696701,-0.186645,8.146151,0.713377,-0.697170,-0.050812,0.049657
364,0.036041,-9.636147,0.213553,0.023927,0.054574,0.001280,-88.696922,-0.187207,8.144132,0.713377,-0.697172,-0.050803,0.049641
365,0.034703,-9.633042,0.211835,0.036039,0.045417,-0.006408,-88.698479,-0.188813,8.142471,0.713369,-0.697182,-0.050804,0.049620
366,0.029206,-9.626044,0.212081,0.031357,0.051520,-0.014043,-88.700111,-0.189255,8.140859,0.713360,-0.697192,-0.050798,0.049607
367,0.023689,-9.627765,0.214033,0.034326,0.057625,-0.010911,-88.701195,-0.187519,8.139036,0.713353,-0.697201,-0.050776,0.049606
368,0.017263,-9.623572,0.214992,0.025114,0.054577,-0.006167,-88.701714,-0.183325,8.137164,0.713349,-0.697206,-0.050739,0.049619
369,0.016375,-9.620329,0.215210,0.026595,0.065263,-0.010532,-88.702034,-0.177872,8.135166,0.713345,-0.697212,-0.050693,0.049640
370,0.012870,-9.625757,0.214194,0.038752,0.057639,-0.013350,-88.702278,-0.171987,8.133113,0.713342,-0.697217,-0.050644,0.049663
371,0.018017,-9.627159,0.216098,0.050916,0.053066,-0.014668,-88.701950,-0.166876,8.131261,0.713343,-0.697218,-0.050601,0.049682
372,0.020711,-9.626151,0.219640,0.064646,0.059172,-0.011481,-88.700111,-0.163655,8.129381,0.713354,-0.697209,-0.050569,0.049691
373,0.023386,-9.626236,0.217037,0.064646,0.060700,-0.014448,-88.697922,-0.161770,8.127374,0.713367,-0.697197,-0.050544,0.049691
374,0.027277,-9.627809,0.214701,0.064605,0.068331,-0.017470,-88.696854,-0.161454,8.125215,0.713374,-0.697191,-0.050528,0.049680
375,0.035396,-9.627986,0.217139,0.052353,0.068329,-0.016006,-88.696098,-0.163615,8.122929,0.713381,-0.697187,-0.050527,0.049653
376,0.041557,-9.629281,0.215084,0.037050,0.074428,-0.008542,-88.695786,-0.168394,8.120543,0.713386,-0.697184,-0.050542,0.049609
377,0.042561,-9.629978,0.212573,0.018659,0.066794,-0.020960,-88.696983,-0.174444,8.118186,0.713382,-0.697189,-0.050566,0.049557
378,0.041501,-9.633244,0.214489,0.003315,0.071367,-0.022682,-88.698853,-0.180355,8.115874,0.713374,-0.697199,-0.050590,0.049506
379,0.039121,-9.627227,0.215758,0.003259,0.066786,-0.028942,-88.700226,-0.185321,8.113558,0.713369,-0.697207,-0.050607,0.049461
380,0.039731,-9.626065,0.213839,-0.001374,0.075938,-0.013812,-88.701668,-0.189431,8.111169,0.713363,-0.697215,-0.050619,0.049420
381,0.032808,-9.624477,0.210094,0.004636,0.074410,-0.013883,-88.704109,-0.191733,8.108662,0.713350,-0.697230,-0.050619,0.049389
382,0.031400,-9.625152,0.217180,0.015253,0.068307,-0.000150,-88.705482,-0.191945,8.106285,0.713343,-0.697240,-0.050606,0.049373
383,0.030983,-9.624437,0.220546,0.025954,0.074410,-0.000135,-88.704292,-0.191482,8.103904,0.713351,-0.697234,-0.050589,0.049361
384,0.032521,-9.634050,0.223126,0.030593,0.065255,0.005975,-88.701698,-0.191143,8.101574,0.713368,-0.697219,-0.050571,0.049350
385,0.027953,-9.632628,0.222557,0.032189,0.065256,-0.004677,-88.698761,-0.190304,8.099392,0.713386,-0.697202,-0.050551,0.049343
386,0.030108,-9.632817,0.222959,0.020044,0.063731,0.001471,-88.696228,-0.189102,8.097236,0.713402,-0.697187,-0.050530,0.049338
387,0.027837,-9.632401,0.222073,0.010942,0.077466,-0.000011,-88.694313,-0.187863,8.094878,0.713414,-0.697177,-0.050507,0.049332
388,0.031171,-9.626664,0.217903,0.026210,0.066785,-0.006082,-88.693420,-0.187045,8.092472,0.713420,-0.697173,-0.050487,0.049322
389,0.025883,-9.625716,0.217925,0.020082,0.080519,0.004643,-88.693268,-0.185832,8.090020,0.713422,-0.697174,-0.050464,0.049314
390,0.029272,-9.623875,0.222321,0.026195,0.082047,0.007751,-88.692245,-0.184076,8.087316,0.713428,-0.697169,-0.050436,0.049308
391,0.025107,-9.627090,0.223337,0.043028,0.078996,0.007809,-88.689827,-0.182212,8.084635,0.713443,-0.697156,-0.050407,0.049304
392,0.022784,-9.627748,0.218717,0.049147,0.074420,0.012489,-88.687874,-0.179104,8.082084,0.713455,-0.697147,-0.050372,0.049308
393,0.018348,-9.629104,0.220085,0.041502,0.069846,0.020263,-88.686745,-0.174616,8.079695,0.713461,-0.697143,-0.050329,0.049321
394,0.017248,-9.631832,0.215853,0.041462,0.054591,0.012812,-88.686432,-0.169284,8.077637,0.713462,-0.697144,-0.050283,0.049341
395,0.018333,-9.640311,0.215410,0.036806,0.057646,0.022132,-88.687218,-0.164245,8.075787,0.713456,-0.697152,-0.050241,0.049360
396,0.019956,-9.642162,0.212671,0.030599,0.069857,0.022265,-88.688850,-0.159922,8.073688,0.713445,-0.697165,-0.050202,0.049372
397,0.022540,-9.643243,0.217541,0.028987,0.060703,0.010148,-88.690117,-0.156942,8.071530,0.713437,-0.697175,-0.050170,0.049376
398,0.024626,-9.645655,0.216500,0.016727,0.079015,0.005615,-88.690781,-0.155401,8.069212,0.713433,-0.697181,-0.050147,0.049371
399,0.026331,-9.641068,0.218570,0.019735,0.085119,0.004102,-88.691322,-0.154855,8.066483,0.713431,-0.697186,-0.050127,0.049357
400,0.026096,-9.633618,0.219272,0.010562,0.089697,-0.002004,-88.691315,-0.154799,8.063573,0.713432,-0.697187,-0.050109,0.049339
401,0.026535,-9.625670,0.222637,-0.001632,0.079015,-0.006586,-88.690773,-0.154991,8.060758,0.713436,-0.697185,-0.050093,0.049321
402,0.027897,-9.626360,0.220253,0.007546,0.086644,-0.000500,-88.690071,-0.155517,8.057993,0.713442,-0.697181,-0.050079,0.049301
403,0.030134,-9.626298,0.223065,0.009096,0.071384,0.010138,-88.689148,-0.156456,8.055361,0.713449,-0.697176,-0.050069,0.049279
404,0.032469,-9.628363,0.221063,0.010650,0.065279,0.016166,-88.688087,-0.157982,8.053092,0.713457,-0.697170,-0.050064,0.049256
405,0.031634,-9.628959,0.221411,0.025921,0.056121,0.013031,-88.687157,-0.159679,8.051081,0.713465,-0.697164,-0.050062,0.049234
406,0.033944,-9.629278,0.219405,0.048807,0.060696,0.000733,-88.685974,-0.161821,8.049140,0.713474,-0.697157,-0.050063,0.049209
407,0.036644,-9.625731,0.219928,0.048791,0.065272,-0.005494,-88.684769,-0.165134,8.047040,0.713483,-0.697149,-0.050070,0.049176
408,0.037960,-9.625243,0.219589,0.056403,0.062216,-0.013270,-88.683456,-0.169298,8.044909,0.713494,-0.697140,-0.050083,0.049138
409,0.038664,-9.625915,0.221411,0.054869,0.065265,-0.013422,-88.681839,-0.173746,8.042776,0.713506,-0.697129,-0.050097,0.049099
410,0.038650,-9.627240,0.215147,0.048719,0.062209,-0.016620,-88.681328,-0.178097,8.040643,0.713512,-0.697124,-0.050110,0.049059
411,0.043001,-9.629719,0.215111,0.039467,0.063731,-0.013735,-88.682419,-0.183019,8.038542,0.713509,-0.697130,-0.050129,0.049015
412,0.035430,-9.634189,0.212453,0.039350,0.054572,-0.013867,-88.684212,-0.186944,8.036571,0.713500,-0.697140,-0.050142,0.048979
413,0.031981,-9.636579,0.212878,0.036169,0.062200,-0.010853,-88.686432,-0.188338,8.034626,0.713488,-0.697154,-0.050140,0.048957
414,0.026853,-9.630965,0.213857,0.042157,0.062201,-0.012347,-88.688179,-0.187828,8.032555,0.713478,-0.697166,-0.050125,0.048946
415,0.025774,-9.629136,0.212025,0.046620,0.068306,-0.027528,-88.689758,-0.186338,8.030375,0.713469,-0.697178,-0.050103,0.048941
416,0.023679,-9.629494,0.216447,0.045003,0.062204,-0.010643,-88.690666,-0.184258,8.028193,0.713463,-0.697185,-0.050077,0.048940
417,0.029031,-9.628216,0.218229,0.029702,0.062206,-0.013623,-88.690529,-0.182714,8.026114,0.713464,-0.697186,-0.050055,0.048936
418,0.030000,-9.624851,0.214142,0.028119,0.057628,-0.025811,-88.691086,-0.182802,8.024109,0.713462,-0.697190,-0.050043,0.048923
419,0.034356,-9.629066,0.215435,0.031092,0.063731,-0.031937,-88.692162,-0.184298,8.022071,0.713457,-0.697197,-0.050041,0.048901
420,0.033565,-9.627658,0.219154,0.043261,0.062204,-0.022827,-88.691956,-0.186395,8.019956,0.713460,-0.697196,-0.050041,0.048875
421,0.032778,-9.629433,0.217215,0.055444,0.072885,-0.021332,-88.690948,-0.187879,8.017689,0.713468,-0.697190,-0.050036,0.048852
422,0.032747,-9.623639,0.213586,0.070636,0.074410,-0.009143,-88.690628,-0.188851,8.015228,0.713471,-0.697189,-0.050027,0.048831
423,0.031856,-9.624091,0.217789,0.079729,0.080513,0.006106,-88.689804,-0.189102,8.012651,0.713477,-0.697185,-0.050012,0.048814
424,0.032670,-9.624525,0.219974,0.075134,0.082039,0.010676,-88.687683,-0.188963,8.009952,0.713491,-0.697173,-0.049994,0.048799
425,0.030787,-9.619432,0.220892,0.053774,0.080513,0.015255,-88.685448,-0.188459,8.007253,0.713506,-0.697160,-0.049974,0.048786
426,0.030765,-9.619537,0.222580,0.029376,0.074409,0.001535,-88.683578,-0.187757,8.004676,0.713518,-0.697150,-0.049953,0.048775
427,0.030285,-9.621511,0.224624,0.021786,0.074410,-0.004553,-88.681648,-0.187326,8.002191,0.713531,-0.697139,-0.049934,0.048763
428,0.026989,-9.622182,0.220950,0.014179,0.062204,-0.016718,-88.680443,-0.186491,7.999905,0.713539,-0.697133,-0.049914,0.048755
429,0.025620,-9.625016,0.218883,0.020257,0.056101,-0.018168,-88.680527,-0.185004,7.997923,0.713538,-0.697135,-0.049893,0.048751
430,0.031153,-9.633881,0.217918,0.032415,0.059154,-0.001341,-88.680992,-0.184158,7.995999,0.713536,-0.697139,-0.049876,0.048744
