seq,ax,ay,az,wroll,wpitch,wyaw,roll,pitch,yaw
1,0.077319,0.271327,-9.842169,6.506202,-0.949554,-0.157600,178.420959,-0.449907,-31.805313
2,0.055448,0.196190,-9.873735,11.727860,-2.313694,-0.410039,178.724792,-0.395301,-31.797213
3,0.054273,0.195102,-9.860095,8.315467,-1.735786,-0.515793,179.058762,-0.327523,-31.783096
4,0.056807,0.188775,-9.856370,5.472886,-0.939252,-0.668791,179.288467,-0.282653,-31.764000
5,0.055094,0.199022,-9.851332,2.954958,-0.559723,-1.442749,179.428757,-0.257271,-31.729084
6,0.040388,0.155486,-9.861506,5.568804,-0.891318,-6.035564,179.570282,-0.231985,-31.604656
8,0.042200,0.124128,-9.856583,4.489422,-0.482404,-6.273802,179.737137,-0.207827,-31.399643
9,0.048801,0.057598,-9.867042,4.099296,-0.014650,-8.583374,179.879395,-0.198695,-31.152046
10,0.121065,-0.244852,-9.885792,9.696764,2.129286,-14.193274,-179.892120,-0.233865,-30.772430
11,0.137016,-0.263977,-9.884134,5.926397,2.669910,-29.034206,-179.635239,-0.316882,-30.052294
12,0.046423,0.044879,-9.881278,-4.546665,-0.030098,-36.793999,-179.618744,-0.367540,-28.955488
13,0.042764,0.064841,-9.879823,-5.165175,-0.348821,-36.485275,-179.788177,-0.366697,-27.734228
15,0.029109,0.102788,-9.876057,-5.215787,-0.693476,-33.979885,-179.968521,-0.351761,-26.559893
16,-0.049971,0.375389,-9.862667,-11.671247,-2.702845,-28.057602,179.744263,-0.293100,-25.526148
17,-0.066286,0.377861,-9.864294,-9.560016,-2.930851,-12.185185,179.387756,-0.193527,-24.856209
18,0.033836,0.076210,-9.861570,-0.212125,0.281390,0.349856,179.224442,-0.146680,-24.659487
19,0.034335,0.079792,-9.866510,-0.074645,0.825819,0.496885,179.219681,-0.165309,-24.673357
20,0.043187,0.106214,-9.857610,-1.930177,1.157918,0.513268,179.186325,-0.198602,-24.689734
22,0.047982,0.122604,-9.857077,-2.502656,1.141315,0.428021,179.112503,-0.237153,-24.704849
23,0.052447,0.121804,-9.866877,-1.242154,0.979433,0.299485,179.050140,-0.272690,-24.716404
24,0.055167,0.134646,-9.868663,-0.674502,0.721877,0.187815,179.018234,-0.301178,-24.724049
25,0.060943,0.149311,-9.867867,-0.629036,0.700369,0.126031,178.996536,-0.324969,-24.728874
26,0.059363,0.166287,-9.866367,-0.702320,0.315712,0.123625,178.974365,-0.341975,-24.732733
27,0.060799,0.150069,-9.875464,2.837600,-0.096348,1.424150,179.010117,-0.346084,-24.758459
29,0.033018,0.059585,-9.889027,8.616377,-1.792070,11.973796,179.202301,-0.318094,-24.982227
30,0.026245,0.069603,-9.886279,4.549781,-1.208491,16.219603,179.424164,-0.273774,-25.452698
31,0.018074,0.055415,-9.879166,4.045688,-1.232533,16.152367,179.569870,-0.238035,-25.992558
32,0.010263,0.001631,-9.891963,4.769487,-1.202750,15.988518,179.718842,-0.200793,-26.528479
33,0.004317,0.001902,-9.887131,1.785042,-0.854463,14.624413,179.829727,-0.168487,-27.038807
34,0.025581,0.073096,-9.868101,-3.341293,0.002509,4.037533,179.804672,-0.155380,-27.349882
36,0.024703,0.049166,-9.875416,-2.489347,0.230781,-0.193742,179.707687,-0.159677,-27.413939
37,0.028565,0.056335,-9.875964,-3.066425,0.541686,-0.094106,179.615067,-0.172549,-27.409063
38,0.039420,0.094776,-9.868138,-5.052732,1.052213,0.000014,179.479752,-0.199100,-27.407290
39,0.042896,0.126172,-9.865493,-5.103296,0.919190,0.044308,179.310486,-0.231961,-27.407682
40,0.045354,0.143875,-9.870549,-3.619406,0.637748,0.051054,179.165115,-0.257928,-27.408922
41,0.050542,0.157544,-9.861085,-2.443998,0.605799,0.022350,179.064056,-0.278670,-27.409826
43,0.053190,0.158281,-9.862605,-0.459435,0.413672,-0.033409,179.015671,-0.295656,-27.409357
44,0.046753,0.145308,-9.869201,1.538287,-0.211590,-0.054108,179.033630,-0.298999,-27.407843
45,0.042744,0.139421,-9.868055,1.539922,-0.427966,-0.057244,179.084930,-0.288311,-27.406164
46,0.044598,0.143070,-9.867187,0.597181,-0.193526,-0.046615,179.120544,-0.277927,-27.404598
47,0.042428,0.149392,-9.872663,0.133873,-0.240632,-0.048524,179.132721,-0.270668,-27.403126
48,0.041423,0.153672,-9.873654,-0.297598,-0.211239,-0.046804,179.129990,-0.263113,-27.401646
50,0.041603,0.160524,-9.876318,-0.747536,-0.103952,-0.034935,179.112564,-0.257840,-27.400370
51,0.047341,0.162373,-9.877061,-0.547790,0.216874,-0.033876,179.090973,-0.259703,-27.399195
52,0.043646,0.162062,-9.878212,-0.343902,0.005448,-0.037733,179.076096,-0.263389,-27.397936
53,0.042836,0.155792,-9.873996,0.067861,-0.062956,-0.033812,179.071487,-0.262412,-27.396761
54,0.044385,0.156288,-9.873848,0.153508,0.013003,-0.039931,179.075180,-0.261559,-27.395548
55,0.045519,0.156342,-9.869248,0.132061,0.079463,-0.035964,179.079926,-0.263080,-27.394260
57,0.044300,0.155867,-9.867341,0.098802,0.013236,-0.043390,179.083771,-0.264603,-27.392912
58,0.045629,0.156410,-9.860086,0.008495,0.082920,-0.041256,179.085556,-0.266183,-27.391472
59,0.047785,0.156275,-9.868363,0.047577,0.173235,-0.053459,179.086487,-0.270427,-27.389828
60,0.045559,0.152624,-9.868396,0.199491,0.021808,-0.056583,179.090591,-0.273648,-27.387943
61,0.043849,0.154920,-9.868431,0.048720,-0.101103,-0.062245,179.094711,-0.272295,-27.385984
62,0.043874,0.159475,-9.866272,-0.206840,-0.091715,-0.054174,179.092072,-0.269051,-27.384094
64,0.039436,0.161705,-9.868286,-0.268871,-0.302492,-0.060870,179.084137,-0.262451,-27.382282
65,0.037465,0.168227,-9.862552,-0.540247,-0.341919,-0.053669,179.070648,-0.251682,-27.380547
66,0.039847,0.178972,-9.863737,-0.999226,-0.104003,-0.041321,179.044983,-0.244225,-27.379089
67,0.041637,0.175482,-9.868155,-0.548272,0.049543,-0.039885,179.019180,-0.243294,-27.377748
68,0.039118,0.177053,-9.869651,-0.413607,-0.075533,-0.042884,179.003143,-0.242837,-27.376377
69,0.045674,0.176788,-9.875316,-0.251699,0.271148,-0.039275,178.992050,-0.246073,-27.374952
71,0.045549,0.170140,-9.876749,0.159840,0.229071,-0.041010,178.990509,-0.254386,-27.373466
72,0.044469,0.166769,-9.873267,0.380152,0.089577,-0.031764,178.999512,-0.259674,-27.372162
73,0.047042,0.169971,-9.871902,0.118619,0.179731,-0.028292,179.007812,-0.264145,-27.371084
74,0.045708,0.163421,-9.872755,0.372917,0.066599,-0.022867,179.016006,-0.268235,-27.370159
75,0.044894,0.166921,-9.869524,0.130436,-0.010413,-0.010143,179.024384,-0.269162,-27.369593
76,0.047258,0.167329,-9.867554,0.048698,0.106745,-0.010150,179.027374,-0.270761,-27.369228
78,0.046539,0.168008,-9.868291,-0.012972,0.042404,-0.017432,179.027969,-0.273239,-27.368727
79,0.049115,0.167279,-9.863181,0.024398,0.157535,-0.012319,179.028152,-0.276562,-27.368176
80,0.050519,0.170444,-9.863886,-0.126824,0.202360,-0.009337,179.026443,-0.282553,-27.367704
81,0.047107,0.158267,-9.864764,0.521133,-0.040768,-0.023815,179.033005,-0.285237,-27.367107
82,0.047614,0.159765,-9.868253,0.386730,-0.042356,-0.027479,179.048141,-0.283838,-27.366280
83,0.049500,0.156751,-9.871466,0.406171,0.072506,-0.033144,179.061356,-0.284323,-27.365263
85,0.046687,0.151581,-9.870783,0.562886,-0.090803,-0.033351,179.077499,-0.284000,-27.364155
86,0.050069,0.150244,-9.871321,0.480263,0.093177,-0.036907,179.094879,-0.284021,-27.362986
87,0.055237,0.158717,-9.872210,-0.119413,0.364180,-0.029529,179.100876,-0.291625,-27.361755
88,0.052753,0.163683,-9.871060,-0.436878,0.177071,-0.026658,179.091599,-0.300630,-27.360678
89,0.049738,0.165022,-9.871119,-0.426367,-0.056862,-0.039574,179.077209,-0.302616,-27.359539
90,0.046443,0.165969,-9.876483,-0.346201,-0.242055,-0.048354,179.064331,-0.297611,-27.358158
92,0.045664,0.167603,-9.873850,-0.299600,-0.230977,-0.049688,179.053558,-0.289701,-27.356653
93,0.043495,0.169532,-9.874978,-0.308503,-0.265715,-0.050412,179.043411,-0.281397,-27.355125
94,0.045757,0.166347,-9.870712,-0.040999,-0.073426,-0.042888,179.037582,-0.275719,-27.353666
95,0.043682,0.170834,-9.872567,-0.233397,-0.129629,-0.032525,179.033005,-0.272314,-27.352459
96,0.045963,0.177177,-9.870612,-0.528310,0.020573,-0.020695,179.020309,-0.270482,-27.351603
97,0.047402,0.178012,-9.871552,-0.452221,0.105866,-0.015736,179.003952,-0.272578,-27.350960
99,0.045836,0.173364,-9.866267,-0.062705,-0.002663,-0.030897,178.995377,-0.274284,-27.350155
100,0.047172,0.172687,-9.866844,0.062668,0.053159,-0.035518,178.995361,-0.275106,-27.349033
101,0.048458,0.169377,-9.861149,0.261073,0.120517,-0.030586,179.000763,-0.277981,-27.347883
102,0.049957,0.166947,-9.863045,0.335191,0.193883,-0.044546,179.010681,-0.283199,-27.346539
103,0.047318,0.164587,-9.860557,0.379231,0.012688,-0.052142,179.022583,-0.286613,-27.344868
104,0.049452,0.167181,-9.861487,0.112961,0.108544,-0.044314,179.030777,-0.288606,-27.343227
106,0.046616,0.164565,-9.861774,0.189953,-0.057714,-0.034599,179.035828,-0.289431,-27.341900
107,0.045156,0.166513,-9.862166,0.006477,-0.143093,-0.036737,179.039093,-0.286065,-27.340767
108,0.048193,0.167882,-9.857897,-0.075416,0.021082,-0.031004,179.037933,-0.284013,-27.339672
109,0.049474,0.163588,-9.859430,0.148646,0.104607,-0.034505,179.039154,-0.286089,-27.338545
110,0.049785,0.168010,-9.860399,-0.072795,0.094303,-0.028121,179.040405,-0.289386,-27.337448
111,0.050650,0.170093,-9.864365,-0.206253,0.104217,-0.028476,179.035751,-0.292679,-27.336449
113,0.053584,0.166884,-9.865148,0.043696,0.207866,-0.034491,179.033035,-0.297862,-27.335310
114,0.048232,0.162772,-9.872587,0.261956,-0.111188,-0.034171,179.038132,-0.299453,-27.334141
115,0.047181,0.174817,-9.878177,-0.413720,-0.187903,-0.026629,179.035599,-0.294452,-27.333210
116,0.043606,0.175201,-9.880050,-0.384855,-0.332981,-0.039649,179.022278,-0.285753,-27.332253
117,0.043349,0.177286,-9.880903,-0.399004,-0.260724,-0.050711,179.009201,-0.275834,-27.330921
118,0.048490,0.179238,-9.881898,-0.379259,0.110201,-0.044446,178.996231,-0.273298,-27.329380
120,0.046369,0.189933,-9.878224,-0.801210,0.018691,-0.052638,178.976547,-0.275417,-27.327717
121,0.044176,0.178061,-9.872333,-0.019314,-0.108892,-0.061924,178.962860,-0.273880,-27.325836
122,0.044485,0.172370,-9.871471,0.384970,-0.078749,-0.047204,178.968948,-0.270720,-27.324076
123,0.045079,0.172615,-9.871341,0.334105,-0.031482,-0.046456,178.980927,-0.268856,-27.322546
124,0.042409,0.170963,-9.867409,0.309050,-0.165466,-0.036524,178.991638,-0.265549,-27.321226
125,0.043749,0.167395,-9.865327,0.381963,-0.062184,-0.023645,179.003159,-0.261738,-27.320290
127,0.046141,0.174723,-9.872290,-0.066066,0.092354,-0.024624,179.008408,-0.262227,-27.319479
128,0.048299,0.177190,-9.874787,-0.261284,0.203067,-0.025088,179.002960,-0.267135,-27.318563
129,0.050633,0.175302,-9.868353,-0.121108,0.290110,-0.032213,178.996567,-0.275337,-27.317463
130,0.053382,0.181659,-9.865666,-0.396855,0.363737,-0.046044,178.987930,-0.286210,-27.315969
131,0.051271,0.180440,-9.867751,-0.265667,0.155049,-0.056683,178.976883,-0.294825,-27.314104
132,0.050724,0.174163,-9.865215,0.122727,0.046581,-0.057933,178.974487,-0.298150,-27.312134
134,0.052672,0.176556,-9.861209,0.020051,0.121086,-0.063283,178.976852,-0.300908,-27.310064
135,0.053379,0.179349,-9.863131,-0.134768,0.120485,-0.051740,178.974930,-0.304900,-27.308079
136,0.049678,0.175860,-9.869216,0.020185,-0.110463,-0.063945,178.973022,-0.305032,-27.306147
137,0.055960,0.170869,-9.867644,0.315065,0.206246,-0.061186,178.978592,-0.306591,-27.304033
138,0.054534,0.175404,-9.864547,0.054102,0.115587,-0.055152,178.984741,-0.311920,-27.302000
139,0.053124,0.177096,-9.868312,-0.086063,-0.007095,-0.053520,178.984192,-0.313695,-27.300158
140,0.051439,0.172731,-9.871948,0.147106,-0.095308,-0.058669,178.985199,-0.311956,-27.298319
141,0.052645,0.169167,-9.868906,0.365695,-0.014316,-0.048684,178.993744,-0.310097,-27.296556
142,0.047852,0.168498,-9.868389,0.303540,-0.237152,-0.045386,179.004883,-0.305880,-27.295061
143,0.048893,0.166396,-9.872101,0.314805,-0.139694,-0.040641,179.015182,-0.299575,-27.293739
144,0.049894,0.159229,-9.867849,0.603514,-0.035680,-0.040340,179.030487,-0.296629,-27.292440
145,0.049557,0.162970,-9.864730,0.247907,-0.036640,-0.049548,179.044662,-0.295399,-27.290960
146,0.047220,0.159136,-9.873682,0.328192,-0.157568,-0.049482,179.054260,-0.292135,-27.289366
147,0.048081,0.171336,-9.878997,-0.396410,-0.081551,-0.054978,179.053116,-0.288122,-27.287691
148,0.049826,0.172783,-9.876678,-0.480558,0.050804,-0.059280,179.038483,-0.287578,-27.285795
149,0.046535,0.173381,-9.881922,-0.358608,-0.117376,-0.061568,179.024490,-0.286434,-27.283800
150,0.048326,0.166424,-9.882958,0.118957,-0.001738,-0.046708,179.020493,-0.284419,-27.282032
151,0.049163,0.177425,-9.876821,-0.418492,0.078432,-0.049856,179.015488,-0.285669,-27.280399
153,0.049008,0.174783,-9.871635,-0.220594,0.049747,-0.044709,179.004822,-0.287778,-27.278784
154,0.048670,0.171298,-9.869706,0.069294,0.012081,-0.056169,179.002289,-0.288779,-27.277086
155,0.051562,0.174873,-9.865805,-0.128794,0.162816,-0.060627,179.001297,-0.291659,-27.275082
156,0.045537,0.179976,-9.868697,-0.351640,-0.186247,-0.058727,178.993271,-0.291234,-27.273106
157,0.043758,0.175426,-9.865465,-0.055533,-0.285319,-0.045019,178.986481,-0.283345,-27.271513
158,0.042056,0.171416,-9.868259,0.196321,-0.302407,-0.040970,178.988815,-0.273526,-27.270256
159,0.036812,0.173035,-9.872094,0.098788,-0.494879,-0.031028,178.993744,-0.260219,-27.269289
160,0.034284,0.167847,-9.874660,0.361337,-0.513771,-0.021025,179.001404,-0.243396,-27.268713
161,0.039285,0.167034,-9.871433,0.299919,-0.091515,-0.026169,179.012421,-0.233296,-27.268101
162,0.041122,0.173581,-9.872258,-0.126643,0.105808,-0.036971,179.015305,-0.233516,-27.267044
163,0.043513,0.173167,-9.871370,-0.111973,0.233474,-0.040984,179.011322,-0.239147,-27.265648
164,0.052126,0.180102,-9.868578,-0.465392,0.644062,-0.044618,179.001694,-0.253746,-27.263969
165,0.053353,0.184332,-9.866275,-0.592826,0.571383,-0.049468,178.984039,-0.273972,-27.262041
166,0.051290,0.185693,-9.865833,-0.493417,0.268001,-0.049684,178.965927,-0.287930,-27.260141
167,0.050340,0.178097,-9.867400,0.045034,0.086245,-0.053154,178.958450,-0.293802,-27.258320
168,0.050372,0.176926,-9.868482,0.183722,0.037834,-0.038161,178.962250,-0.295842,-27.256756
169,0.046164,0.169743,-9.868904,0.525107,-0.198921,-0.025449,178.974060,-0.293139,-27.255747
170,0.045119,0.168550,-9.870126,0.450245,-0.217284,-0.024660,178.990311,-0.286189,-27.255037
171,0.040810,0.170084,-9.872135,0.231806,-0.378725,-0.028626,179.001678,-0.276241,-27.254326
172,0.040707,0.167646,-9.870927,0.255792,-0.298945,-0.007151,179.009811,-0.264938,-27.253918
173,0.037813,0.162686,-9.873258,0.434593,-0.356506,-0.017820,179.021317,-0.254008,-27.253693
174,0.036688,0.166618,-9.873890,0.121754,-0.332307,-0.021561,179.030579,-0.242518,-27.253233
175,0.036988,0.166015,-9.877619,0.094448,-0.220114,-0.024305,179.034180,-0.233300,-27.252625
176,0.043559,0.166150,-9.876175,0.038474,0.209161,-0.017279,179.036392,-0.233106,-27.251934
177,0.044880,0.170103,-9.880257,-0.168855,0.278916,-0.030752,179.034210,-0.241226,-27.250998
178,0.046822,0.172268,-9.875647,-0.251185,0.314441,-0.039842,179.027206,-0.251094,-27.249655
179,0.047266,0.169868,-9.870692,-0.087165,0.271444,-0.037096,179.021561,-0.260835,-27.248201
180,0.047315,0.174065,-9.869857,-0.222763,0.189616,-0.040841,179.016388,-0.268496,-27.246775
181,0.044189,0.167709,-9.871346,0.146385,-0.041417,-0.050710,179.015106,-0.270940,-27.245207
182,0.044409,0.168879,-9.871103,0.076761,-0.047294,-0.045021,179.018829,-0.269434,-27.243637
183,0.048360,0.170689,-9.872602,-0.039134,0.175257,-0.040324,179.019440,-0.271542,-27.242178
184,0.048604,0.173003,-9.875254,-0.176863,0.154625,-0.036456,179.015839,-0.277017,-27.240805
185,0.045828,0.168685,-9.869511,0.072814,-0.048849,-0.026353,179.014099,-0.278762,-27.239727
186,0.044163,0.174486,-9.867745,-0.208538,-0.143487,-0.024942,179.011826,-0.275542,-27.238922
187,0.046292,0.172460,-9.863726,-0.081422,-0.000798,-0.020387,179.007004,-0.273125,-27.238209
188,0.045641,0.173283,-9.860847,-0.077460,-0.018485,-0.028228,179.004349,-0.272789,-27.237408
189,0.046306,0.176790,-9.860481,-0.247973,0.028535,-0.028333,178.998917,-0.272940,-27.236460
190,0.049516,0.179406,-9.861273,-0.318377,0.206989,-0.033477,178.989471,-0.276847,-27.235363
191,0.048912,0.188010,-9.861061,-0.709342,0.134215,-0.034894,178.972336,-0.282513,-27.234121
192,0.047323,0.183312,-9.862646,-0.320281,-0.004818,-0.036906,178.955170,-0.284647,-27.232889
193,0.039305,0.184888,-9.865206,-0.225847,-0.451299,-0.038468,178.946060,-0.277024,-27.231771
194,0.040868,0.177227,-9.866365,0.251407,-0.305916,-0.044100,178.946487,-0.264380,-27.230629
195,0.040354,0.174978,-9.870226,0.344317,-0.227488,-0.045074,178.956406,-0.255464,-27.229307
196,0.040060,0.168699,-9.868530,0.630317,-0.166854,-0.044361,178.972641,-0.248866,-27.227936
197,0.036774,0.175365,-9.871737,0.123725,-0.270611,-0.040898,178.985199,-0.241551,-27.226639
198,0.042394,0.174668,-9.870068,0.027219,0.098208,-0.033273,178.987717,-0.238656,-27.225458
199,0.041240,0.178268,-9.868289,-0.157616,0.059801,-0.037809,178.985535,-0.241268,-27.224230
200,0.043991,0.176474,-9.866066,-0.072333,0.191205,-0.029109,178.981705,-0.245431,-27.223038
201,0.043479,0.172953,-9.868719,0.165390,0.129443,-0.030837,178.983246,-0.250757,-27.221945
202,0.047480,0.175261,-9.865759,0.009862,0.292798,-0.037712,178.986160,-0.257773,-27.220678
203,0.049920,0.173783,-9.867278,0.082090,0.343050,-0.047037,178.987686,-0.268344,-27.219078
204,0.050534,0.174365,-9.868956,0.045614,0.275008,-0.042255,178.989807,-0.278617,-27.217409
205,0.051248,0.173572,-9.867736,0.060728,0.217162,-0.050755,178.991577,-0.286791,-27.215715
206,0.053716,0.176302,-9.866974,-0.087796,0.277348,-0.041420,178.991119,-0.295005,-27.214037
207,0.053407,0.178411,-9.864212,-0.194947,0.198778,-0.025258,178.986389,-0.302919,-27.212780
208,0.050426,0.178001,-9.864868,-0.135038,-0.023822,-0.019803,178.980896,-0.305821,-27.211979
209,0.046071,0.180828,-9.864953,-0.228589,-0.272975,-0.024859,178.974823,-0.300862,-27.211323
210,0.047564,0.185627,-9.865057,-0.424716,-0.147344,-0.020655,178.963928,-0.293844,-27.210693
211,0.051752,0.179986,-9.867379,-0.034334,0.130933,-0.022682,178.956284,-0.293558,-27.209974
212,0.050220,0.171909,-9.869678,0.486084,0.033027,-0.047510,178.963806,-0.296269,-27.208755
213,0.049744,0.170165,-9.868237,0.497538,-0.009745,-0.051309,178.980194,-0.296627,-27.207102
214,0.055706,0.164454,-9.868719,0.645831,0.296824,-0.043493,178.999237,-0.301383,-27.205433
215,0.050854,0.156990,-9.874214,0.885733,-0.016131,-0.042974,179.024750,-0.306036,-27.203913
216,0.045517,0.158886,-9.871664,0.530605,-0.343651,-0.042465,179.048355,-0.300016,-27.202593
217,0.044745,0.161787,-9.870841,0.156901,-0.314366,-0.024199,179.059799,-0.289033,-27.201658
218,0.045040,0.170207,-9.866154,-0.411517,-0.195972,-0.028068,179.055557,-0.280514,-27.200932
219,0.043708,0.170420,-9.865455,-0.385101,-0.187254,-0.030826,179.042282,-0.274111,-27.200056
220,0.041727,0.177062,-9.859118,-0.614058,-0.227208,-0.029646,179.025620,-0.267187,-27.199160
221,0.043161,0.176398,-9.858127,-0.456359,-0.086683,-0.040189,179.007782,-0.261937,-27.198090
222,0.043192,0.174534,-9.858483,-0.172053,-0.057757,-0.045798,178.997299,-0.259505,-27.196701
223,0.044087,0.167875,-9.864238,0.310681,0.009565,-0.022764,178.999603,-0.258682,-27.195572
224,0.042105,0.171568,-9.863439,0.059606,-0.081857,-0.029989,179.005768,-0.257462,-27.194712
225,0.044586,0.166487,-9.864225,0.248996,0.064701,-0.029644,179.010910,-0.257159,-27.193724
226,0.045990,0.168727,-9.864084,0.163402,0.139319,-0.012279,179.017776,-0.260547,-27.192966
227,0.045459,0.172095,-9.863740,-0.128163,0.090333,-0.029625,179.018356,-0.264362,-27.192204
228,0.045900,0.182931,-9.863395,-0.741297,0.076085,-0.044674,179.003860,-0.267114,-27.190920
229,0.045095,0.184516,-9.867390,-0.610485,0.008286,-0.054799,178.981323,-0.268490,-27.189232
230,0.046372,0.189184,-9.869184,-0.683356,0.065202,-0.052534,178.959747,-0.269683,-27.187426
231,0.045820,0.189958,-9.873294,-0.546939,0.020048,-0.060170,178.939240,-0.271069,-27.185516
232,0.048835,0.186478,-9.879619,-0.122561,0.154185,-0.043573,178.928070,-0.273940,-27.183735
233,0.055063,0.178679,-9.879971,0.374511,0.456266,-0.037064,178.932266,-0.284088,-27.182201
234,0.054044,0.171349,-9.876840,0.705769,0.308151,-0.028860,178.950256,-0.296805,-27.180870
235,0.055432,0.168104,-9.878494,0.726908,0.262657,-0.021897,178.974136,-0.306302,-27.179853
236,0.058769,0.167483,-9.876504,0.538190,0.355055,-0.022789,178.995209,-0.316582,-27.178921
237,0.055722,0.165718,-9.871132,0.411527,0.117341,-0.027764,179.011032,-0.324440,-27.177944
238,0.048786,0.156966,-9.872083,0.739246,-0.318889,-0.033418,179.030212,-0.321064,-27.176983
239,0.043670,0.165232,-9.874604,0.128132,-0.557800,-0.030046,179.044662,-0.306437,-27.176174
240,0.045055,0.176556,-9.873640,-0.595547,-0.367412,-0.047162,179.036865,-0.290997,-27.175140
241,0.039716,0.176196,-9.877231,-0.498735,-0.498880,-0.050471,179.018616,-0.276533,-27.173761
242,0.040582,0.176198,-9.879144,-0.335960,-0.317899,-0.049767,179.004700,-0.262893,-27.172327
243,0.041407,0.183101,-9.876492,-0.558247,-0.159200,-0.047971,178.989792,-0.254914,-27.170837
244,0.049508,0.183625,-9.873454,-0.439154,0.339254,-0.037217,178.973160,-0.257890,-27.169367
245,0.043479,0.168731,-9.873048,0.489276,0.017646,-0.036054,178.973999,-0.263815,-27.168034
246,0.046054,0.169736,-9.869629,0.421735,0.087395,-0.027201,178.989166,-0.265547,-27.166946
247,0.045394,0.175879,-9.871462,-0.006529,0.033859,-0.027149,178.996094,-0.267552,-27.166008
248,0.044829,0.181343,-9.870882,-0.394357,-0.001337,-0.032659,178.989395,-0.268076,-27.165007
249,0.041600,0.172434,-9.871041,0.140353,-0.188478,-0.048530,178.985168,-0.264889,-27.163706
250,0.045187,0.175049,-9.873031,0.037686,0.031609,-0.037552,178.988129,-0.262250,-27.162321
251,0.040829,0.175682,-9.870581,-0.031920,-0.162507,-0.041424,178.988220,-0.260045,-27.161043
252,0.041965,0.169434,-9.868377,0.290079,-0.085927,-0.037020,178.992508,-0.255882,-27.159809
253,0.046041,0.170551,-9.869511,0.186474,0.159599,-0.025429,179.000443,-0.257092,-27.158749
254,0.047998,0.169759,-9.871522,0.164327,0.262650,-0.013299,179.006287,-0.264117,-27.157980
256,0.046691,0.172101,-9.866128,0.011997,0.117273,-0.005708,179.009232,-0.270442,-27.157553
257,0.053110,0.169877,-9.868537,0.106988,0.401189,-0.006583,179.011215,-0.279079,-27.157200
258,0.050647,0.164487,-9.867003,0.349560,0.186101,-0.018019,179.018814,-0.288858,-27.156616
259,0.045221,0.164054,-9.864329,0.338055,-0.190848,-0.023053,179.030273,-0.288767,-27.155933
260,0.047054,0.169332,-9.863585,-0.087315,-0.091014,-0.029385,179.034454,-0.284056,-27.155142
261,0.047832,0.169317,-9.867788,-0.131035,-0.002922,-0.047984,179.030807,-0.282468,-27.153879
262,0.048483,0.167223,-9.869339,0.001845,0.044965,-0.055621,179.028641,-0.283140,-27.152142
263,0.052833,0.173704,-9.869756,-0.313798,0.264499,-0.053448,179.023438,-0.288266,-27.150236
264,0.053758,0.171135,-9.873349,-0.118834,0.270259,-0.063193,179.016205,-0.297144,-27.148140
265,0.048945,0.172441,-9.873319,-0.122078,-0.056335,-0.068893,179.012192,-0.300671,-27.145878
266,0.048623,0.169989,-9.873560,0.039341,-0.114123,-0.061256,179.010788,-0.297793,-27.143759
267,0.048999,0.174209,-9.870429,-0.162210,-0.086111,-0.058504,179.008743,-0.294422,-27.141821
268,0.047281,0.175583,-9.869018,-0.241199,-0.143637,-0.065903,179.001999,-0.290557,-27.139814
269,0.045176,0.172975,-9.870134,-0.032687,-0.216058,-0.063167,178.997421,-0.284526,-27.137766
270,0.048948,0.175158,-9.867781,-0.107718,0.028183,-0.051516,178.995071,-0.281361,-27.135912
271,0.050873,0.177502,-9.870644,-0.217036,0.174762,-0.045167,178.989655,-0.284715,-27.134243
272,0.047645,0.176975,-9.870701,-0.099495,-0.013329,-0.037612,178.984375,-0.287381,-27.132814
273,0.049696,0.177585,-9.872231,-0.091541,0.081591,-0.020815,178.981186,-0.288501,-27.131815
274,0.054026,0.176619,-9.872272,-0.033737,0.303707,-0.010473,178.979095,-0.294912,-27.131182
275,0.050801,0.172215,-9.877261,0.262317,0.070186,-0.025427,178.982895,-0.301132,-27.130472
276,0.045538,0.174136,-9.871456,0.105696,-0.256023,-0.041141,178.989029,-0.298016,-27.129419
277,0.043936,0.177364,-9.871613,-0.145349,-0.307128,-0.044781,178.988358,-0.288606,-27.128153
278,0.043153,0.177728,-9.867410,-0.133330,-0.273105,-0.053210,178.983704,-0.278908,-27.126692
279,0.044273,0.177905,-9.861966,-0.139430,-0.136765,-0.065724,178.979156,-0.272043,-27.124830
280,0.047897,0.174376,-9.860447,0.081565,0.123969,-0.060174,178.978180,-0.271792,-27.122738
281,0.048560,0.177306,-9.859357,-0.066920,0.155070,-0.049518,178.978409,-0.276410,-27.120825
282,0.053809,0.168921,-9.857676,0.349569,0.380835,-0.046317,178.983124,-0.285312,-27.119072
283,0.050726,0.162891,-9.862539,0.698560,0.148911,-0.047687,179.000580,-0.294112,-27.117346
284,0.052761,0.166051,-9.865522,0.305687,0.192062,-0.032011,179.017303,-0.299771,-27.115921
285,0.052167,0.165229,-9.865049,0.270930,0.102621,-0.021774,179.026917,-0.304666,-27.114941
286,0.051881,0.163337,-9.868424,0.300031,0.039654,-0.034904,179.036423,-0.307021,-27.113958
287,0.049852,0.163872,-9.869548,0.105083,-0.074095,-0.025429,179.043167,-0.306430,-27.112961
288,0.049706,0.158505,-9.870864,0.412802,-0.101179,-0.022750,179.051804,-0.303496,-27.112209
289,0.048875,0.151144,-9.872550,0.690480,-0.118625,-0.018346,179.070175,-0.299822,-27.111584
290,0.050593,0.154916,-9.870599,0.306671,-0.001432,-0.016708,179.086792,-0.297812,-27.111032
291,0.050175,0.149445,-9.869510,0.484775,-0.021667,-0.003846,179.099991,-0.297422,-27.110699
292,0.050481,0.153754,-9.869995,0.162783,-0.012977,-0.009891,179.110779,-0.296841,-27.110477
293,0.051779,0.166446,-9.872772,-0.651293,0.065396,-0.011161,179.102631,-0.297709,-27.110111
294,0.049283,0.174192,-9.873558,-0.914680,-0.076010,-0.018104,179.076538,-0.297524,-27.109629
295,0.051688,0.175273,-9.875203,-0.797347,0.058374,-0.013646,179.048004,-0.297222,-27.109100
296,0.055092,0.180112,-9.874911,-0.785860,0.246492,-0.030449,179.021606,-0.302290,-27.108282
297,0.054658,0.178810,-9.876844,-0.477104,0.180722,-0.040666,179.000549,-0.309388,-27.106979
298,0.057962,0.176934,-9.871237,-0.239234,0.301686,-0.040287,178.988602,-0.317404,-27.105482
299,0.056801,0.172964,-9.869924,0.136954,0.169336,-0.045448,178.986893,-0.325228,-27.103916
300,0.051608,0.174966,-9.869179,-0.004752,-0.167514,-0.061138,178.989075,-0.325227,-27.102140
301,0.049615,0.166524,-9.872450,0.455980,-0.277075,-0.049893,178.996597,-0.317785,-27.100426
302,0.051932,0.169960,-9.870126,0.203861,-0.086986,-0.043402,179.007584,-0.311692,-27.098969
303,0.049849,0.173641,-9.870653,-0.117323,-0.148718,-0.042856,179.009018,-0.307739,-27.097603
304,0.047947,0.175562,-9.873705,-0.191123,-0.227012,-0.055233,179.003860,-0.301449,-27.096077
305,0.051300,0.175049,-9.872920,-0.138589,0.003306,-0.047766,178.998367,-0.297691,-27.094425
306,0.050945,0.179377,-9.869080,-0.330912,0.016562,-0.057564,178.990524,-0.297992,-27.092665
307,0.046397,0.178825,-9.869040,-0.214861,-0.220653,-0.059760,178.981430,-0.294556,-27.090771
308,0.045141,0.178600,-9.864724,-0.131364,-0.249769,-0.072131,178.975647,-0.286678,-27.088711
309,0.046042,0.182229,-9.864234,-0.274048,-0.130177,-0.060036,178.968872,-0.280307,-27.086618
310,0.047600,0.175379,-9.865878,0.158544,0.006610,-0.060054,178.966934,-0.278212,-27.084658
311,0.047954,0.175504,-9.865630,0.170734,0.050123,-0.044074,178.972427,-0.279126,-27.082907
312,0.046797,0.172688,-9.865766,0.264125,-0.020117,-0.043302,178.979660,-0.279600,-27.081440
313,0.046038,0.163673,-9.870942,0.682169,-0.060730,-0.025308,178.995422,-0.278233,-27.080317
314,0.047545,0.158929,-9.871024,0.765290,0.027209,-0.012500,179.019547,-0.277663,-27.079699
315,0.045734,0.169132,-9.871803,0.048140,-0.059370,-0.013086,179.033112,-0.277120,-27.079281
316,0.045730,0.172716,-9.875185,-0.277773,-0.063139,-0.026683,179.029266,-0.275067,-27.078653
317,0.047261,0.176110,-9.876611,-0.406979,0.044043,-0.022645,179.017853,-0.274735,-27.077829
318,0.051546,0.177709,-9.876055,-0.382156,0.263206,-0.026296,179.004700,-0.279841,-27.076931
319,0.051316,0.168223,-9.867240,0.209790,0.213763,-0.030394,179.001816,-0.287773,-27.075846
320,0.049892,0.167842,-9.867868,0.265332,0.060205,-0.037251,179.009735,-0.292319,-27.074642
321,0.052625,0.166981,-9.865286,0.209373,0.171958,-0.026452,179.017639,-0.296169,-27.073513
322,0.054684,0.166663,-9.866453,0.184877,0.235429,-0.027013,179.024200,-0.302943,-27.072506
323,0.049453,0.169145,-9.863541,-0.021756,-0.091955,-0.038290,179.026917,-0.305315,-27.071379
324,0.050531,0.173096,-9.867386,-0.236946,-0.051901,-0.040447,179.022598,-0.302895,-27.070101
325,0.050301,0.163550,-9.867007,0.303350,-0.032904,-0.025227,179.023697,-0.301464,-27.069033
326,0.047254,0.163171,-9.863085,0.302250,-0.176720,-0.035303,179.033783,-0.297953,-27.068083
327,0.047167,0.160841,-9.863081,0.342421,-0.158853,-0.034659,179.044525,-0.292342,-27.067013
328,0.051646,0.166396,-9.863254,-0.070346,0.124173,-0.022720,179.049057,-0.291748,-27.066067
329,0.049706,0.170531,-9.865829,-0.317295,0.019821,-0.028678,179.042587,-0.294133,-27.065170
330,0.048819,0.175799,-9.859228,-0.548193,-0.052397,-0.041629,179.028168,-0.293570,-27.064003
331,0.052087,0.176538,-9.862184,-0.445094,0.125758,-0.032092,179.011597,-0.294772,-27.062754
332,0.052556,0.177592,-9.862538,-0.334068,0.139358,-0.045092,178.998611,-0.299168,-27.061392
333,0.050855,0.172888,-9.864728,0.035293,0.019455,-0.036295,178.993622,-0.301790,-27.059988
334,0.050121,0.175309,-9.866073,-0.037467,-0.038291,-0.031714,178.993576,-0.301457,-27.058861
335,0.047949,0.172441,-9.870686,0.133753,-0.134702,-0.022181,178.995178,-0.298558,-27.058016
336,0.049787,0.172340,-9.873424,0.113394,-0.011841,-0.027714,178.999298,-0.296101,-27.057226
337,0.046498,0.165888,-9.871781,0.385863,-0.159541,-0.024196,179.007614,-0.293230,-27.056410
338,0.045556,0.164821,-9.871917,0.368414,-0.195159,-0.029259,179.020172,-0.287304,-27.055624
339,0.051310,0.161231,-9.868310,0.410749,0.158091,-0.031965,179.033157,-0.286669,-27.054615
340,0.055185,0.160476,-9.870287,0.330503,0.355003,-0.041074,179.045502,-0.295199,-27.053246
341,0.051444,0.161227,-9.869271,0.173217,0.075534,-0.044874,179.053894,-0.302350,-27.051693
342,0.052477,0.163465,-9.868294,-0.018479,0.063896,-0.035363,179.056473,-0.304652,-27.050318
343,0.052866,0.160338,-9.867195,0.140638,0.065346,-0.040729,179.058502,-0.306784,-27.049015
344,0.046781,0.159977,-9.868872,0.118257,-0.269138,-0.034054,179.062805,-0.303368,-27.047829
345,0.047503,0.168255,-9.868876,-0.331573,-0.208334,-0.035413,179.059250,-0.295392,-27.046801
346,0.047673,0.160661,-9.873316,0.114641,-0.127304,-0.028792,179.055618,-0.289781,-27.045822
347,0.046931,0.162392,-9.873454,0.053917,-0.120187,-0.033486,179.058426,-0.285640,-27.044853
348,0.047632,0.165303,-9.875134,-0.102014,-0.043702,-0.030098,179.057617,-0.282891,-27.043839
349,0.046572,0.159434,-9.879118,0.211930,-0.063090,-0.041253,179.059448,-0.281092,-27.042677
350,0.045094,0.151161,-9.876475,0.620558,-0.117309,-0.034114,179.073318,-0.278066,-27.041471
351,0.044100,0.156537,-9.870841,0.202878,-0.136073,-0.031892,179.087036,-0.273826,-27.040440
352,0.044497,0.153983,-9.870949,0.203747,-0.075693,-0.023241,179.093811,-0.270282,-27.039577
353,0.044226,0.150812,-9.874080,0.295665,-0.057175,-0.028564,179.102127,-0.268054,-27.038744
354,0.048268,0.156860,-9.869199,-0.076126,0.170578,-0.008451,179.105789,-0.269934,-27.038103
355,0.047889,0.159405,-9.870417,-0.250117,0.130513,-0.006765,179.100342,-0.274948,-27.037771
356,0.048852,0.161964,-9.873297,-0.321706,0.128849,-0.010159,179.090805,-0.279266,-27.037422
357,0.048212,0.175554,-9.875508,-0.931288,0.059064,-0.021990,179.069931,-0.282388,-27.036831
359,0.046971,0.186130,-9.874590,-1.297917,-0.029029,-0.029925,179.032761,-0.282875,-27.035959
360,0.047025,0.194138,-9.877981,-1.352263,-0.039092,-0.051795,178.988586,-0.281716,-27.034616
361,0.044368,0.195485,-9.877912,-1.043497,-0.161248,-0.054018,178.948654,-0.278346,-27.032909
362,0.043454,0.197470,-9.874558,-0.804989,-0.173324,-0.057765,178.917831,-0.272736,-27.031155
363,0.042016,0.186403,-9.872029,0.056670,-0.192826,-0.055730,178.905350,-0.266599,-27.029375
364,0.042619,0.174796,-9.869101,0.763242,-0.119224,-0.038580,178.919022,-0.261369,-27.027905
365,0.043027,0.170272,-9.867998,0.843670,-0.052136,-0.033745,178.945786,-0.258491,-27.026749
366,0.048346,0.165843,-9.866687,0.846725,0.244350,-0.032768,178.973953,-0.261674,-27.025587
367,0.051631,0.165186,-9.869517,0.627048,0.391191,-0.026684,178.998520,-0.272247,-27.024410
368,0.053932,0.165911,-9.871888,0.367250,0.421717,-0.033617,179.015076,-0.285776,-27.023170
369,0.052132,0.170385,-9.876269,-0.002343,0.204813,-0.048414,179.021164,-0.296193,-27.021626
370,0.050696,0.167699,-9.873758,0.093173,0.030701,-0.046298,179.022659,-0.300091,-27.019972
371,0.044118,0.166643,-9.873755,0.125608,-0.343249,-0.052534,179.026306,-0.294855,-27.018415
372,0.041809,0.170198,-9.875131,-0.071664,-0.420079,-0.053362,179.027191,-0.282104,-27.016869
373,0.042280,0.172522,-9.876815,-0.205592,-0.288804,-0.043969,179.022568,-0.270264,-27.015446
374,0.046853,0.174625,-9.871675,-0.281531,0.062252,-0.029221,179.014435,-0.266468,-27.014292
375,0.048943,0.177819,-9.870077,-0.363013,0.209019,-0.019538,179.003693,-0.270974,-27.013403
376,0.054842,0.176877,-9.870932,-0.216336,0.477859,-0.017250,178.994034,-0.282410,-27.012589
377,0.053374,0.169292,-9.869737,0.264112,0.289508,-0.016478,178.994827,-0.295187,-27.011806
378,0.053151,0.169918,-9.862993,0.216713,0.157168,-0.009703,179.002838,-0.302623,-27.011232
379,0.050503,0.173802,-9.866183,-0.049338,-0.038305,-0.019302,179.005630,-0.304595,-27.010715
380,0.047154,0.168821,-9.870210,0.198587,-0.225956,-0.032077,179.008102,-0.300177,-27.009941
381,0.043856,0.175955,-9.873057,-0.205915,-0.357608,-0.021177,179.007980,-0.290437,-27.009220
382,0.041470,0.175096,-9.872978,-0.149352,-0.386942,-0.027645,179.002060,-0.278015,-27.008623
383,0.041825,0.168341,-9.874403,0.264031,-0.247841,-0.029507,179.003967,-0.267421,-27.007854
384,0.042083,0.164407,-9.871738,0.449956,-0.143047,-0.014556,179.015854,-0.260894,-27.007227
385,0.038930,0.168643,-9.873371,0.104851,-0.261530,-0.019395,179.025101,-0.254143,-27.006777
386,0.042760,0.162939,-9.867264,0.334054,0.000562,-0.024644,179.032425,-0.249781,-27.006115
387,0.044451,0.167417,-9.864110,0.034563,0.139583,-0.020756,179.038559,-0.252104,-27.005322
388,0.044638,0.171145,-9.864115,-0.226219,0.125413,-0.025105,179.035355,-0.256507,-27.004486
389,0.040235,0.173242,-9.868538,-0.299953,-0.146789,-0.031552,179.026581,-0.256135,-27.003548
390,0.048449,0.174697,-9.865861,-0.287302,0.293942,-0.024220,179.016800,-0.258571,-27.002575
391,0.043595,0.183996,-9.871031,-0.693803,0.029414,-0.032245,179.000443,-0.263943,-27.001541
392,0.041111,0.186013,-9.875419,-0.649218,-0.155731,-0.032190,178.978043,-0.261820,-27.000505
393,0.042774,0.184026,-9.880928,-0.329560,-0.058724,-0.030494,178.961731,-0.258227,-26.999519
394,0.047397,0.183330,-9.876504,-0.161397,0.218930,-0.035402,178.953537,-0.260877,-26.998377
395,0.044109,0.179767,-9.877761,0.093333,0.018607,-0.022520,178.952408,-0.264817,-26.997341
396,0.048274,0.173328,-9.877671,0.441081,0.182218,-0.019117,178.961304,-0.268151,-26.996588
397,0.053916,0.176843,-9.873238,0.170343,0.435746,-0.020129,178.971497,-0.278437,-26.995747
398,0.050150,0.185872,-9.870193,-0.394216,0.145882,-0.034211,178.967758,-0.288113,-26.994667
399,0.052113,0.189414,-9.868478,-0.556499,0.158763,-0.034764,178.951904,-0.293169,-26.993427
400,0.052950,0.188391,-9.867255,-0.357101,0.155808,-0.052121,178.936676,-0.298384,-26.991882
401,0.053119,0.191319,-9.865211,-0.370490,0.116755,-0.063597,178.924530,-0.302890,-26.989874
402,0.051406,0.189048,-9.868972,-0.157181,-0.009751,-0.070950,178.915726,-0.304631,-26.987589
403,0.054563,0.179665,-9.870943,0.412517,0.137379,-0.065111,178.919968,-0.306715,-26.985285
404,0.053302,0.171693,-9.875527,0.802500,0.063704,-0.066204,178.940216,-0.310025,-26.983034
405,0.048762,0.170329,-9.875245,0.680705,-0.195354,-0.065600,178.964920,-0.307791,-26.980881
406,0.048215,0.165785,-9.874402,0.682663,-0.194444,-0.054911,178.987625,-0.301260,-26.978987
407,0.050496,0.159701,-9.868563,0.806284,-0.011978,-0.038938,179.012436,-0.297793,-26.977484
408,0.047356,0.166302,-9.865019,0.232080,-0.133226,-0.033515,179.029739,-0.295352,-26.976318
409,0.044443,0.174069,-9.861714,-0.334066,-0.273403,-0.035514,179.028030,-0.288557,-26.975285
410,0.044783,0.175588,-9.861832,-0.390427,-0.211325,-0.029886,179.015961,-0.280460,-26.974329
411,0.039722,0.175968,-9.860358,-0.295365,-0.405806,-0.020531,179.004517,-0.270162,-26.973669
412,0.037602,0.177527,-9.864617,-0.291362,-0.418768,-0.020770,178.994736,-0.256409,-26.973223
413,0.038729,0.176021,-9.866522,-0.115261,-0.235032,-0.015297,178.987961,-0.245503,-26.972815
414,0.038402,0.167502,-9.868799,0.400502,-0.154480,-0.017804,178.992722,-0.239003,-26.972374
415,0.041096,0.171051,-9.867914,0.156317,0.070862,-0.007648,179.001999,-0.237602,-26.971977
416,0.047126,0.173920,-9.873355,-0.050695,0.384931,-0.021225,179.003754,-0.245189,-26.971363
417,0.048029,0.178010,-9.873468,-0.283022,0.351603,-0.031751,178.998184,-0.257447,-26.970263
418,0.048189,0.176375,-9.874666,-0.155627,0.258524,-0.039071,178.990860,-0.267594,-26.968903
419,0.048490,0.181495,-9.875636,-0.343945,0.178117,-0.033722,178.982529,-0.274849,-26.967560
420,0.051545,0.176438,-9.874726,-0.016548,0.267983,-0.036559,178.976517,-0.282262,-26.966259
421,0.043620,0.178260,-9.875597,-0.056718,-0.211110,-0.039223,178.975296,-0.283187,-26.964979
422,0.044458,0.177467,-9.874737,-0.005093,-0.170942,-0.039864,178.974258,-0.276797,-26.963774
423,0.046878,0.174843,-9.873723,0.140278,0.002443,-0.029762,178.976501,-0.273968,-26.962664
424,0.050323,0.176196,-9.872820,0.036367,0.208001,-0.025006,178.979446,-0.277459,-26.961691
