seq,ax,ay,az,wroll,wpitch,wyaw,roll,pitch,yaw,q0,q1,q2,q3
6116,-0.153032,-0.664929,9.890185,-0.106283,-0.045034,-0.219256,-3.846276,0.884478,-0.059462,0.999407,-0.033554,0.007732,-0.000260
6117,-0.155090,-0.739439,9.867806,-1.984281,-0.212756,-0.117075,-3.881200,0.879814,-0.064766,0.999397,-0.033858,0.007692,-0.000305
6118,-0.152396,-0.760684,9.868025,-2.096058,-0.106160,-0.287526,-3.949304,0.874050,-0.071131,0.999377,-0.034452,0.007644,-0.000358
6119,-0.162695,-0.746090,9.852620,-1.344362,0.302514,-0.365683,-4.006813,0.876560,-0.082220,0.999359,-0.034952,0.007670,-0.000450
6120,-0.157967,-0.738801,9.867149,-0.590965,0.425122,-0.370526,-4.039270,0.887797,-0.095310,0.999349,-0.035234,0.007772,-0.000558
6121,-0.161272,-0.732356,9.882619,-0.133490,0.619948,-0.433581,-4.051573,0.904227,-0.109908,0.999344,-0.035341,0.007920,-0.000680
6122,-0.174093,-0.697985,9.856157,0.719389,0.629449,-0.265840,-4.042018,0.924176,-0.123007,0.999345,-0.035256,0.008098,-0.000788
6123,-0.175377,-0.682248,9.863448,1.397744,0.304097,0.213232,-4.006764,0.939636,-0.124972,0.999355,-0.034948,0.008233,-0.000803
6124,-0.161354,-0.665914,9.864267,2.166103,-0.610407,0.627774,-3.947132,0.935517,-0.110632,0.999373,-0.034429,0.008192,-0.000684
6125,-0.153291,-0.666179,9.887912,1.900512,-1.085263,0.733043,-3.878962,0.908871,-0.086069,0.999396,-0.033837,0.007952,-0.000482
6126,-0.144044,-0.664452,9.876387,1.539337,-1.372119,0.503775,-3.821269,0.869392,-0.062746,0.999415,-0.033336,0.007601,-0.000294
6127,-0.138688,-0.679416,9.885676,1.083042,-1.543352,0.168707,-3.777351,0.821650,-0.048339,0.999431,-0.032954,0.007180,-0.000185
6128,-0.134329,-0.675830,9.870443,1.004976,-1.706060,-0.328814,-3.742541,0.767435,-0.047448,0.999444,-0.032651,0.006707,-0.000195
6129,-0.130962,-0.672880,9.883753,0.762599,-1.263301,-1.050539,-3.713338,0.716554,-0.067172,0.999455,-0.032395,0.006269,-0.000383
6130,-0.120535,-0.680309,9.891431,0.328602,-0.762435,-2.077701,-3.695763,0.679492,-0.117022,0.999462,-0.032239,0.005959,-0.000829
6131,-0.133479,-0.676567,9.913118,-0.280849,0.177832,-3.457180,-3.696042,0.663819,-0.208456,0.999462,-0.032237,0.005849,-0.001631
6132,-0.125266,-0.674534,9.915192,-1.575642,0.648907,-4.543777,-3.728550,0.668931,-0.342426,0.999450,-0.032514,0.005932,-0.002797
6133,-0.136505,-0.683833,9.931036,-3.268475,1.670160,-5.225463,-3.811255,0.696783,-0.507447,0.999420,-0.033225,0.006224,-0.004224
6134,-0.136687,-0.714092,9.931706,-4.611565,2.086428,-5.042150,-3.944804,0.747660,-0.682427,0.999370,-0.034378,0.006725,-0.005727
6135,-0.157508,-0.726469,9.915934,-5.061694,2.059822,-3.907671,-4.108115,0.806101,-0.836089,0.999308,-0.035789,0.007291,-0.007039
6136,-0.140230,-0.737363,9.891569,-4.818847,1.223724,-2.277526,-4.274342,0.853127,-0.942912,0.999245,-0.037229,0.007746,-0.007945
6137,-0.148352,-0.769144,9.895834,-3.660186,0.867974,-1.118843,-4.416555,0.883581,-1.002011,0.999192,-0.038462,0.008042,-0.008440
6138,-0.141797,-0.787497,9.882861,-2.050694,0.425235,-0.316686,-4.512136,0.903200,-1.027545,0.999156,-0.039292,0.008228,-0.008649
6139,-0.151173,-0.780034,9.860139,-0.547682,0.445594,0.211085,-4.555488,0.917526,-1.030447,0.999140,-0.039669,0.008358,-0.008667
6140,-0.149846,-0.777759,9.865821,0.710416,0.173032,0.401840,-4.552625,0.928614,-1.021080,0.999141,-0.039644,0.008451,-0.008581
6141,-0.167647,-0.785061,9.868889,1.828992,0.161644,0.911631,-4.509955,0.935903,-0.999694,0.999157,-0.039273,0.008504,-0.008395
6142,-0.160613,-0.770806,9.891397,2.924580,-0.423427,1.541492,-4.430057,0.934740,-0.958587,0.999187,-0.038579,0.008474,-0.008043
6143,-0.155600,-0.729492,9.894043,3.877999,-0.830920,2.345141,-4.315612,0.918834,-0.892393,0.999231,-0.037587,0.008306,-0.007480
6144,-0.157650,-0.717330,9.908317,4.322027,-1.208488,2.875246,-4.177535,0.891383,-0.803095,0.999283,-0.036391,0.008029,-0.006720
6145,-0.159435,-0.688821,9.878695,4.340771,-1.308004,2.852924,-4.031659,0.856385,-0.704855,0.999336,-0.035128,0.007685,-0.005884
6146,-0.157439,-0.678822,9.888709,3.392105,-1.082797,2.436805,-3.901449,0.822732,-0.614137,0.999382,-0.034000,0.007358,-0.005112
6147,-0.159053,-0.669695,9.883477,2.281950,-0.506217,2.085478,-3.805790,0.801376,-0.537148,0.999414,-0.033172,0.007145,-0.004453
6148,-0.153737,-0.675335,9.894673,0.925543,-0.101070,1.441634,-3.751503,0.795154,-0.477820,0.999432,-0.032702,0.007072,-0.003940
6149,-0.147503,-0.660480,9.888245,0.324540,0.460901,0.720453,-3.730171,0.803493,-0.442251,0.999439,-0.032518,0.007134,-0.003629
6150,-0.156159,-0.662192,9.900263,-0.209510,1.613008,-0.086556,-3.728134,0.838673,-0.433957,0.999438,-0.032500,0.007438,-0.003547
6151,-0.126406,-0.714991,9.772470,-0.811707,0.853526,-0.258513,-3.745277,0.879319,-0.442377,0.999430,-0.032647,0.007795,-0.003608
6152,-0.096280,-0.735419,9.730648,-1.309858,-2.232835,0.641508,-3.780516,0.856799,-0.434501,0.999422,-0.032956,0.007598,-0.003543
6153,-0.088234,-0.721921,9.758719,-0.631445,-4.626054,1.717938,-3.812217,0.745336,-0.387696,0.999421,-0.033239,0.006613,-0.003165
6154,-0.081186,-0.682817,9.840577,1.368131,-5.742993,2.634121,-3.798969,0.577709,-0.303857,0.999435,-0.033132,0.005127,-0.002483
6155,-0.077441,-0.649640,9.899011,2.998683,-5.939057,3.466686,-3.725218,0.390089,-0.189641,0.999465,-0.032497,0.003456,-0.001543
6156,-0.097227,-0.541986,10.038665,4.838545,-4.505111,3.878011,-3.593874,0.224179,-0.056389,0.999506,-0.031356,0.001971,-0.000430
6157,-0.100033,-0.478439,10.080642,5.992477,-1.868575,2.900217,-3.412976,0.125039,0.062826,0.999556,-0.029780,0.001074,0.000581
6158,-0.099217,-0.474254,10.026902,5.606842,0.711717,1.482464,-3.219488,0.109991,0.136821,0.999604,-0.028093,0.000926,0.001220
6159,-0.083829,-0.505140,9.943866,4.153877,1.859779,0.773704,-3.056717,0.154824,0.171986,0.999642,-0.026674,0.001311,0.001536
6160,-0.041663,-0.507276,9.905473,2.703864,0.504782,0.677485,-2.942349,0.195439,0.194060,0.999667,-0.025677,0.001661,0.001737
6161,-0.005793,-0.534408,9.888112,1.085294,-0.556437,0.348615,-2.879140,0.195450,0.211190,0.999681,-0.025126,0.001659,0.001885
6162,0.009192,-0.548632,9.859737,0.655704,-0.463466,0.489287,-2.850077,0.179171,0.225992,0.999688,-0.024872,0.001514,0.002010
6163,0.026079,-0.521777,9.859379,1.534358,-1.124942,1.226404,-2.813488,0.154144,0.255861,0.999695,-0.024553,0.001290,0.002265
6164,0.020525,-0.516140,9.882161,1.272978,-1.265999,1.357859,-2.766593,0.116439,0.300820,0.999705,-0.024143,0.000952,0.002649
6166,-0.002791,-0.483842,9.871058,2.087157,-0.490033,1.523469,-2.710503,0.089501,0.350187,0.999715,-0.023654,0.000709,0.003074
6167,-0.029161,-0.434638,9.906735,3.046743,-0.380747,1.716592,-2.624855,0.077514,0.404800,0.999731,-0.022906,0.000595,0.003547
6168,-0.065248,-0.402895,9.951919,3.193635,0.115991,1.348787,-2.520779,0.075397,0.456035,0.999750,-0.021999,0.000570,0.003993
6169,-0.077641,-0.391259,9.969139,2.593635,0.785515,0.648346,-2.424276,0.091840,0.488638,0.999767,-0.021157,0.000711,0.004280
6170,-0.069760,-0.372025,9.934895,2.239829,0.961168,0.164527,-2.343693,0.121486,0.500958,0.999781,-0.020456,0.000971,0.004392
6171,-0.033632,-0.384308,9.926903,0.985496,-0.255868,-0.137152,-2.289937,0.133248,0.500937,0.999790,-0.019987,0.001075,0.004394
6172,-0.017884,-0.406630,9.903502,-0.163554,-0.381786,-0.356088,-2.276254,0.122300,0.493150,0.999793,-0.019867,0.000982,0.004324
6173,0.010084,-0.419180,9.879335,-0.637022,-0.950663,-0.276974,-2.289617,0.099689,0.483493,0.999791,-0.019983,0.000785,0.004236
6174,0.004162,-0.421522,9.893693,-0.971850,-1.221602,-0.307079,-2.316442,0.063122,0.475222,0.999787,-0.020216,0.000467,0.004157
6175,-0.020292,-0.397307,9.911991,-0.332011,-0.517303,-0.499337,-2.338184,0.033619,0.462970,0.999784,-0.020404,0.000211,0.004045
6176,-0.067211,-0.383727,9.901709,0.521599,1.208149,-0.868126,-2.335041,0.044195,0.439728,0.999785,-0.020377,0.000307,0.003844
6177,-0.076711,-0.373952,9.894043,0.994006,1.564771,-1.415498,-2.309829,0.088831,0.399826,0.999790,-0.020158,0.000705,0.003504
6178,-0.079827,-0.364186,9.901194,1.163869,1.429809,-1.960957,-2.273978,0.136451,0.341602,0.999798,-0.019846,0.001131,0.003004
6179,-0.057168,-0.359943,9.896774,1.392783,0.793670,-2.279036,-2.231558,0.170702,0.269534,0.999806,-0.019476,0.001444,0.002381
6180,-0.019902,-0.393268,9.922834,0.836695,-0.123809,-2.797810,-2.194655,0.178591,0.184554,0.999814,-0.019153,0.001527,0.001640
6181,0.029530,-0.437834,9.938898,-0.108768,-1.031901,-3.055266,-2.182799,0.155612,0.087812,0.999817,-0.019048,0.001343,0.000792
6182,0.036509,-0.457365,9.922562,-0.345447,-0.876903,-2.319580,-2.190576,0.120397,-0.000488,0.999817,-0.019115,0.001051,0.000016
6183,0.029325,-0.417338,9.924386,0.441506,-1.022778,-1.156228,-2.189077,0.086544,-0.057165,0.999817,-0.019102,0.000765,-0.000484
6184,0.015911,-0.407946,9.939666,-0.103436,-0.912801,-0.687378,-2.183475,0.053139,-0.086641,0.999818,-0.019053,0.000478,-0.000747
6185,0.037189,-0.379946,9.941312,-0.024772,-1.510145,0.189712,-2.185615,0.012469,-0.093389,0.999818,-0.019072,0.000124,-0.000813
6186,0.018760,-0.353321,9.937902,0.000931,-1.023007,0.839596,-2.186012,-0.029066,-0.074636,0.999818,-0.019076,-0.000241,-0.000656
6187,-0.017837,-0.333309,9.937312,0.258973,-0.034901,0.900174,-2.181697,-0.045580,-0.044989,0.999819,-0.019038,-0.000390,-0.000400
6188,-0.037712,-0.351036,9.936390,-0.293941,0.722715,0.534630,-2.182294,-0.033215,-0.021530,0.999819,-0.019043,-0.000286,-0.000193
6189,-0.027275,-0.336913,9.930160,0.130683,0.790162,0.369310,-2.185018,-0.007443,-0.007437,0.999818,-0.019067,-0.000064,-0.000066
6190,-0.076209,-0.313790,9.891622,0.942394,2.160238,0.335452,-2.167130,0.042140,0.002434,0.999821,-0.018911,0.000367,0.000028
6191,-0.075303,-0.295946,9.894488,1.311996,1.690800,-0.057016,-2.129553,0.106452,0.004667,0.999827,-0.018583,0.000928,0.000058
6192,-0.001033,-0.332364,9.943399,-0.235992,-0.808169,-1.046669,-2.111655,0.120471,-0.014257,0.999830,-0.018426,0.001053,-0.000105
6193,0.036773,-0.394431,9.968451,-1.901032,-1.496260,-1.727430,-2.147347,0.080369,-0.059031,0.999824,-0.018738,0.000711,-0.000502
6194,0.043889,-0.438935,9.958923,-2.448101,-1.039060,-1.657283,-2.219887,0.035991,-0.113789,0.999812,-0.019371,0.000333,-0.000987
6195,0.061559,-0.477577,9.960177,-2.864584,-1.165746,-1.650557,-2.308449,-0.002907,-0.167420,0.999796,-0.020144,0.000004,-0.001461
6196,0.046726,-0.509431,9.938774,-3.166630,-0.445437,-1.434093,-2.408954,-0.031855,-0.217682,0.999777,-0.021021,-0.000238,-0.001905
6197,0.005736,-0.483168,9.877718,-1.777785,1.266053,-0.739988,-2.491346,-0.019742,-0.254462,0.999761,-0.021740,-0.000124,-0.002224
6198,-0.013560,-0.459843,9.836946,-0.674375,1.672302,-0.368247,-2.532222,0.028374,-0.275050,0.999753,-0.022095,0.000301,-0.002394
6199,-0.033016,-0.456497,9.819112,-0.323098,1.510598,-0.388843,-2.548863,0.080811,-0.290002,0.999749,-0.022239,0.000761,-0.002514
6200,-0.040215,-0.442411,9.839554,-0.171228,0.964335,-0.399430,-2.557127,0.121434,-0.304963,0.999747,-0.022310,0.001119,-0.002637
6201,-0.026233,-0.421663,9.890009,0.306758,-0.006415,-0.319869,-2.554897,0.136849,-0.317651,0.999747,-0.022290,0.001256,-0.002745
6202,-0.016182,-0.440763,9.944703,-0.348235,-0.541718,-0.434388,-2.555616,0.127163,-0.329802,0.999747,-0.022297,0.001174,-0.002853
6203,-0.021742,-0.428133,9.918182,0.155575,0.120957,-0.068732,-2.558844,0.119783,-0.337865,0.999746,-0.022325,0.001111,-0.002924
6204,-0.026669,-0.408975,9.925399,0.449813,0.035246,0.227582,-2.548749,0.122502,-0.335337,0.999748,-0.022237,0.001134,-0.002902
6205,-0.024593,-0.421263,9.943541,-0.135085,-0.268785,0.264370,-2.543486,0.118977,-0.326972,0.999749,-0.022191,0.001101,-0.002830
6206,-0.035473,-0.416920,9.911520,-0.027448,0.428792,0.370939,-2.546173,0.122112,-0.316512,0.999749,-0.022215,0.001127,-0.002738
6207,-0.052717,-0.390442,9.866560,0.703822,0.818412,0.607020,-2.534863,0.143601,-0.301150,0.999751,-0.022116,0.001311,-0.002600
6208,-0.051024,-0.391224,9.900454,0.286718,-0.124556,0.478593,-2.518309,0.155951,-0.283583,0.999755,-0.021971,0.001415,-0.002444
6209,-0.049046,-0.419072,9.890071,-0.472750,0.000927,0.125410,-2.521383,0.154335,-0.273435,0.999754,-0.021998,0.001399,-0.002356
6210,-0.051468,-0.449337,9.828401,-0.556241,0.426883,-0.017090,-2.538529,0.161539,-0.271946,0.999751,-0.022148,0.001462,-0.002341
6211,-0.044883,-0.453196,9.824311,-0.491767,-0.424674,0.030849,-2.555995,0.161586,-0.271718,0.999748,-0.022300,0.001463,-0.002339
6212,-0.017119,-0.459521,9.876646,-0.448943,-1.880315,0.010147,-2.571667,0.123239,-0.269318,0.999745,-0.022438,0.001128,-0.002326
6213,-0.001464,-0.496477,9.891718,-1.180973,-1.897180,-0.483067,-2.598841,0.059989,-0.274354,0.999740,-0.022676,0.000578,-0.002382
6214,0.016145,-0.490588,9.903712,-0.562870,-2.129671,-0.111072,-2.627910,-0.007506,-0.281183,0.999734,-0.022931,-0.000009,-0.002455
6215,0.027611,-0.451048,9.935159,0.357276,-2.363421,0.240743,-2.631340,-0.082214,-0.275592,0.999733,-0.022962,-0.000662,-0.002421
6216,0.032162,-0.456680,9.949715,0.057207,-1.971793,-0.007818,-2.624444,-0.154214,-0.268406,0.999734,-0.022904,-0.001292,-0.002372
6217,0.032367,-0.463365,9.924789,-0.204147,-1.110935,0.029914,-2.626903,-0.205522,-0.265683,0.999733,-0.022926,-0.001740,-0.002359
6218,0.035658,-0.432238,9.889590,0.948927,-0.826524,0.657058,-2.614540,-0.237255,-0.252768,0.999735,-0.022819,-0.002020,-0.002252
6219,0.034957,-0.426770,9.874261,0.914542,-0.870315,0.598170,-2.583577,-0.264559,-0.230589,0.999741,-0.022549,-0.002263,-0.002064
6220,0.037211,-0.420415,9.895134,0.679980,-1.119514,0.552708,-2.557103,-0.296829,-0.209939,0.999746,-0.022318,-0.002549,-0.001889
6221,0.051641,-0.443454,9.906536,-0.281820,-1.300389,0.419056,-2.550567,-0.336399,-0.191961,0.999747,-0.022261,-0.002898,-0.001740
6222,0.060537,-0.451503,9.912862,-0.511859,-1.228061,0.375593,-2.563890,-0.377906,-0.176847,0.999743,-0.022377,-0.003262,-0.001617
6223,0.064407,-0.446707,9.922681,-0.599093,-1.181131,0.274016,-2.582494,-0.417532,-0.164227,0.999738,-0.022540,-0.003610,-0.001515
6224,0.079238,-0.476403,9.946397,-0.888725,-1.116597,0.374478,-2.607386,-0.455298,-0.151695,0.999732,-0.022757,-0.003942,-0.001414
6225,0.091575,-0.481481,9.935184,-0.190016,-0.723650,1.094426,-2.625577,-0.484820,-0.125837,0.999728,-0.022915,-0.004205,-0.001195
6226,0.087142,-0.434350,9.913183,1.673202,-0.384035,1.909722,-2.601293,-0.500981,-0.074977,0.999733,-0.022701,-0.004356,-0.000753
6227,0.077410,-0.429613,9.901427,1.910189,-0.088677,1.966816,-2.542137,-0.505958,-0.010080,0.999744,-0.022183,-0.004412,-0.000186
6228,0.092313,-0.423279,9.917951,2.048502,-0.392345,2.128649,-2.476766,-0.510980,0.058464,0.999756,-0.021610,-0.004469,0.000414
6229,0.090669,-0.380096,9.923243,2.491160,-0.421627,1.990898,-2.401730,-0.521611,0.127643,0.999770,-0.020952,-0.004574,0.001018
6230,0.085307,-0.392987,9.908354,1.099189,-0.375087,0.904484,-2.342339,-0.532884,0.176409,0.999779,-0.020432,-0.004681,0.001444
6231,0.087141,-0.423484,9.919424,-0.192846,-0.312826,0.373394,-2.327439,-0.543472,0.198159,0.999781,-0.020301,-0.004777,0.001633
6232,0.099347,-0.389663,9.929568,0.132747,-0.326306,0.270445,-2.328547,-0.553678,0.209314,0.999780,-0.020310,-0.004868,0.001728
6233,0.087931,-0.395472,9.928893,-0.609653,0.546758,-0.643939,-2.336435,-0.550261,0.202945,0.999779,-0.020379,-0.004837,0.001673
6234,0.066314,-0.407020,9.883580,-1.295015,1.353738,-1.129604,-2.367891,-0.519825,0.172110,0.999775,-0.020655,-0.004566,0.001408
6235,0.055407,-0.409481,9.894475,-1.240909,1.642092,-1.120583,-2.409815,-0.471502,0.132557,0.999770,-0.021023,-0.004138,0.001070
6236,0.055919,-0.412088,9.903287,-1.176116,1.752356,-1.465639,-2.449748,-0.416806,0.087093,0.999765,-0.021374,-0.003653,0.000682
6237,0.038836,-0.443995,9.914137,-1.668399,1.690670,-1.694520,-2.496781,-0.361747,0.031996,0.999758,-0.021786,-0.003162,0.000210
6238,0.034172,-0.456516,9.900344,-1.580278,0.924694,-1.282984,-2.550618,-0.320386,-0.019504,0.999748,-0.022257,-0.002791,-0.000232
6239,0.039166,-0.451720,9.906931,-0.846428,0.656942,-1.087818,-2.590842,-0.295826,-0.060163,0.999741,-0.022609,-0.002569,-0.000583
6240,0.034633,-0.458867,9.912528,-0.492345,0.773007,-1.211005,-2.612960,-0.273756,-0.099519,0.999737,-0.022802,-0.002369,-0.000923
6241,0.026309,-0.453972,9.902846,0.018218,0.625452,-0.882605,-2.620697,-0.252064,-0.135440,0.999735,-0.022870,-0.002172,-0.001232
6242,0.034551,-0.442533,9.884893,0.899606,0.554321,-0.389695,-2.605307,-0.233387,-0.157519,0.999739,-0.022736,-0.002005,-0.001421
6243,0.044231,-0.451062,9.887017,1.271690,0.400057,-0.278568,-2.569072,-0.217998,-0.169362,0.999746,-0.022420,-0.001869,-0.001520
6244,0.044963,-0.453595,9.922826,1.172485,0.153076,-0.280906,-2.528300,-0.209202,-0.179086,0.999754,-0.022065,-0.001791,-0.001603
6245,0.053576,-0.442441,9.929946,1.262629,-0.197218,-0.038375,-2.487695,-0.210170,-0.184370,0.999761,-0.021710,-0.001799,-0.001648
6246,0.067896,-0.431735,9.923794,1.454491,-0.500292,-0.049289,-2.442406,-0.221847,-0.185329,0.999770,-0.021315,-0.001901,-0.001658
6247,0.064402,-0.428500,9.913239,1.101760,-0.527927,-0.283278,-2.399782,-0.239203,-0.190142,0.999777,-0.020944,-0.002052,-0.001703
6248,0.046308,-0.409600,9.919374,1.043307,-0.135018,-0.314802,-2.363991,-0.250657,-0.199641,0.999783,-0.020632,-0.002151,-0.001787
6249,0.049525,-0.389303,9.900345,1.213484,-0.366346,-0.068328,-2.326352,-0.259268,-0.205681,0.999790,-0.020304,-0.002226,-0.001840
6250,0.051020,-0.394041,9.901106,0.843187,-0.509883,-0.132896,-2.292060,-0.273994,-0.208443,0.999795,-0.020005,-0.002354,-0.001866
6251,0.041604,-0.395805,9.907567,0.444020,-0.056879,-0.267404,-2.270576,-0.283698,-0.214732,0.999799,-0.019818,-0.002438,-0.001923
6252,0.037404,-0.399523,9.920153,0.169640,0.053772,-0.312361,-2.260301,-0.284133,-0.224386,0.999800,-0.019728,-0.002440,-0.002007
6253,0.042566,-0.393361,9.921919,0.123625,-0.056317,-0.254329,-2.255367,-0.284547,-0.233822,0.999801,-0.019685,-0.002442,-0.002089
6254,0.054584,-0.395920,9.939375,0.155710,-0.213045,-0.239071,-2.250671,-0.289356,-0.241863,0.999802,-0.019645,-0.002483,-0.002160
6255,0.062748,-0.395426,9.920965,0.473172,-0.298991,-0.110562,-2.240162,-0.298112,-0.247351,0.999803,-0.019553,-0.002559,-0.002209
6256,0.063986,-0.381262,9.912398,1.054350,-0.511246,0.083730,-2.214704,-0.311623,-0.247273,0.999807,-0.019331,-0.002677,-0.002210
6257,0.072796,-0.354480,9.923944,2.302113,-0.638866,0.103777,-2.158783,-0.330658,-0.243419,0.999816,-0.018844,-0.002845,-0.002178
6258,0.072122,-0.341511,9.916189,4.215396,-0.315841,0.004336,-2.050172,-0.346493,-0.241035,0.999833,-0.017896,-0.002986,-0.002157
6259,0.064032,-0.322681,9.901418,6.417159,0.196882,-0.089699,-1.872955,-0.348525,-0.242394,0.999859,-0.016350,-0.003006,-0.002165
6260,0.062490,-0.269372,9.923437,9.066956,0.520124,0.156211,-1.614892,-0.336547,-0.241657,0.999894,-0.014098,-0.002907,-0.002150
6261,0.051884,-0.231112,9.931711,11.182196,0.833487,0.572728,-1.277474,-0.313684,-0.230085,0.999932,-0.011153,-0.002715,-0.002038
6262,0.040647,-0.177132,9.892219,13.214528,1.185964,1.011017,-0.871000,-0.279529,-0.204329,0.999967,-0.007605,-0.002426,-0.001802
6263,0.028314,-0.095938,9.920485,14.581679,1.517950,1.303468,-0.407908,-0.234028,-0.166265,0.999991,-0.003563,-0.002037,-0.001458
6264,0.021374,0.003737,9.947360,15.834490,1.729706,1.503123,0.098850,-0.179770,-0.119642,0.999998,0.000861,-0.001570,-0.001043
6265,0.001734,0.104552,9.938454,17.933083,2.560262,1.184868,0.661516,-0.108568,-0.074373,0.999983,0.005772,-0.000951,-0.000644
6266,-0.020264,0.211895,9.971304,19.754564,3.085222,0.783461,1.289593,-0.015071,-0.039995,0.999937,0.011254,-0.000135,-0.000348
6267,-0.053070,0.308868,9.981931,21.870165,3.258742,0.612080,1.983334,0.089927,-0.013739,0.999850,0.017307,0.000783,-0.000133
6269,-0.038805,0.490034,9.970320,24.408468,1.355869,-0.300543,2.754632,0.166540,-0.005366,0.999710,0.024036,0.001452,-0.000082
6270,-0.042343,0.646561,9.945308,25.253706,-0.437054,-0.936661,3.582236,0.182910,-0.024989,0.999510,0.031256,0.001589,-0.000268
6271,-0.040564,0.803920,9.941961,25.768978,-2.231432,-1.028438,4.432468,0.140790,-0.060661,0.999251,0.038672,0.001207,-0.000576
6272,-0.018591,0.974577,9.870142,26.342623,-3.098533,-0.957932,5.300877,0.055078,-0.101073,0.998930,0.046243,0.000439,-0.000903
6273,0.003918,1.150769,9.857005,25.662140,-2.920090,-0.802188,6.167565,-0.041792,-0.140230,0.998551,0.053796,-0.000430,-0.001202
6274,-0.000873,1.249042,9.843192,24.075686,-1.486037,0.339870,6.996502,-0.113846,-0.156306,0.998135,0.061017,-0.001075,-0.001301
6275,0.004291,1.343225,9.850176,23.312990,-0.237963,1.291587,7.786221,-0.145759,-0.133107,0.997691,0.067894,-0.001348,-0.001073
6276,0.003400,1.452751,9.820502,22.953053,0.985568,1.870144,8.557154,-0.140850,-0.079239,0.997212,0.074605,-0.001277,-0.000598
6277,-0.012676,1.558160,9.843342,22.414881,1.488777,2.017503,9.313100,-0.110132,-0.008893,0.996699,0.081183,-0.000964,0.000001
6278,-0.015881,1.684537,9.833468,22.581573,1.155169,2.159630,10.062882,-0.078396,0.067118,0.996146,0.087703,-0.000630,0.000643
6279,-0.030262,1.798635,9.795224,23.041351,1.381136,1.895145,10.823144,-0.049072,0.141256,0.995542,0.094310,-0.000310,0.001268
6280,-0.041348,1.939354,9.777223,23.703777,1.573375,1.628816,11.602158,-0.012207,0.208425,0.994877,0.101075,0.000078,0.001820
6281,-0.041741,2.068590,9.769081,23.500822,1.071145,1.207606,12.388868,0.021063,0.263811,0.994159,0.107902,0.000431,0.002269
6282,-0.019378,2.203062,9.714465,24.511833,0.295815,0.704155,13.189055,0.036197,0.299946,0.993380,0.114841,0.000614,0.002564
6283,-0.018077,2.349372,9.696554,25.727156,-0.046829,-0.240344,14.026331,0.038370,0.308473,0.992515,0.122096,0.000661,0.002631
6284,-0.020279,2.486380,9.672817,26.415625,-0.700050,-0.635555,14.895314,0.029900,0.291236,0.991561,0.129619,0.000588,0.002486
6285,-0.019527,2.634674,9.589580,26.440401,-1.336009,-1.038488,15.776183,0.004521,0.255389,0.990536,0.137238,0.000345,0.002202
6286,-0.021774,2.759159,9.521889,25.809692,-1.371903,-1.031752,16.646973,-0.029217,0.209691,0.989465,0.144762,0.000013,0.001848
6287,-0.037234,2.859367,9.497635,23.402803,-0.889946,-0.730863,17.467165,-0.056640,0.170556,0.988404,0.151841,-0.000263,0.001546
6288,-0.022408,2.954215,9.456109,20.152233,-1.019429,0.150328,18.193060,-0.083952,0.151585,0.987422,0.158099,-0.000514,0.001422
6289,-0.008381,3.070415,9.441512,17.354496,-0.877829,0.681820,18.818146,-0.118301,0.154728,0.986545,0.163483,-0.000798,0.001501
6290,-0.005950,3.160142,9.434237,15.917349,-0.613164,0.999163,19.372618,-0.150922,0.173082,0.985741,0.168255,-0.001044,0.001710
6291,0.001552,3.260293,9.439442,15.584659,-0.573100,0.951784,19.897572,-0.180451,0.197060,0.984959,0.172770,-0.001254,0.001966
6292,0.008247,3.381219,9.438559,16.705217,-0.362344,0.844296,20.435648,-0.205406,0.219783,0.984137,0.177394,-0.001424,0.002206
6293,0.000015,3.473397,9.394211,18.486675,0.010533,0.565935,21.022093,-0.219212,0.239678,0.983215,0.182428,-0.001499,0.002405
6294,0.002067,3.569421,9.322204,20.975456,0.080614,0.648230,21.679697,-0.225172,0.259057,0.982152,0.188068,-0.001505,0.002590
6295,0.006385,3.670292,9.271797,22.736372,0.269049,0.831690,22.408098,-0.229026,0.284103,0.980936,0.194308,-0.001479,0.002820
6296,0.009374,3.799634,9.202020,23.299276,0.325402,1.079249,23.175190,-0.232220,0.317296,0.979612,0.200870,-0.001429,0.003120
6297,0.012830,3.923212,9.138892,23.122654,0.152827,1.409479,23.948683,-0.241481,0.358503,0.978232,0.207479,-0.001412,0.003498
6298,0.026929,4.030014,9.094434,22.414070,0.160152,1.517107,24.707388,-0.256808,0.405112,0.976835,0.213952,-0.001433,0.003933
6299,0.019550,4.144220,9.052582,21.055008,0.445463,1.408723,25.431614,-0.268319,0.453559,0.975461,0.220122,-0.001413,0.004376
6300,0.013241,4.261170,9.034240,20.091698,0.460249,1.292993,26.117142,-0.274299,0.500656,0.974125,0.225954,-0.001345,0.004797
6301,0.015405,4.368819,8.993780,21.154577,0.201903,1.293654,26.804342,-0.283629,0.544163,0.972750,0.231793,-0.001307,0.005193
6302,0.032469,4.483493,8.935138,21.796059,-0.656670,0.744062,27.520020,-0.305885,0.570930,0.971282,0.237865,-0.001408,0.005474
6303,0.040262,4.613905,8.872193,22.687090,-1.432463,-0.035649,28.261400,-0.342228,0.565102,0.969722,0.244145,-0.001692,0.005511
6304,0.046789,4.723288,8.800960,22.973347,-1.691595,-0.744250,29.022602,-0.381749,0.528752,0.968079,0.250582,-0.002069,0.005302
6305,0.046533,4.820495,8.704327,22.124434,-1.613167,-1.483968,29.774605,-0.411544,0.469354,0.966415,0.256929,-0.002419,0.004881
6306,0.049813,4.929359,8.651473,19.442663,-1.335812,-2.036544,30.467905,-0.424647,0.393916,0.964845,0.262770,-0.002672,0.004290
6307,0.038618,4.998460,8.576758,17.136448,-0.343057,-2.002702,31.078056,-0.414277,0.321735,0.963435,0.267902,-0.002731,0.003674
6308,0.016806,5.074331,8.551242,14.231638,0.721511,-1.830809,31.601196,-0.375648,0.270407,0.962205,0.272296,-0.002512,0.003163
6309,0.020045,5.158482,8.543272,12.569552,0.993882,-1.317587,32.048050,-0.323671,0.240860,0.961138,0.276044,-0.002135,0.002800
6310,0.035333,5.246010,8.535995,11.617727,0.888879,-0.680614,32.451225,-0.279347,0.229433,0.960163,0.279424,-0.001781,0.002604
6311,0.028893,5.299733,8.479598,12.770252,1.027076,-0.624329,32.857689,-0.240713,0.228362,0.959167,0.282827,-0.001451,0.002506
6312,0.017704,5.371608,8.452838,13.548425,0.871436,-0.541504,33.296329,-0.203592,0.229350,0.958078,0.286496,-0.001129,0.002427
6313,0.028619,5.453125,8.395968,15.420588,0.224623,0.023774,33.779121,-0.183599,0.232258,0.956862,0.290530,-0.000944,0.002405
6314,0.023516,5.500331,8.302135,17.355444,0.083705,-0.084501,34.325378,-0.178772,0.234329,0.955467,0.295088,-0.000887,0.002414
6315,0.010349,5.553930,8.212720,18.204412,0.210314,-0.463308,34.918041,-0.169559,0.229603,0.953928,0.300025,-0.000810,0.002355
6316,0.001791,5.639381,8.155729,18.252222,0.090669,-0.377062,35.525650,-0.157393,0.221041,0.952324,0.305079,-0.000720,0.002256
6317,0.010638,5.751101,8.113333,17.592052,-0.170543,-0.046925,36.123055,-0.154337,0.214539,0.950721,0.310040,-0.000700,0.002198
6318,0.006636,5.839122,8.062203,16.317905,-0.185937,-0.057173,36.688217,-0.158084,0.209634,0.949180,0.314725,-0.000734,0.002171
6319,0.012790,5.938219,8.036417,15.152934,-0.435221,-0.053000,37.212742,-0.165255,0.201944,0.947730,0.319066,-0.000804,0.002130
6320,0.020087,5.990551,7.993408,13.790333,-0.563218,0.132548,37.695148,-0.179277,0.192886,0.946378,0.323053,-0.000937,0.002098
6321,0.030674,6.046791,7.951172,12.186835,-0.825122,0.989278,38.128090,-0.209019,0.193428,0.945150,0.326627,-0.001173,0.002191
6322,0.046817,6.117275,7.883097,12.779480,-1.231454,1.582803,38.544144,-0.262478,0.205819,0.943957,0.330057,-0.001569,0.002451
6323,0.050492,6.163479,7.805452,13.962384,-1.026583,1.049047,38.989773,-0.319280,0.216474,0.942664,0.333726,-0.001996,0.002711
6324,0.041911,6.228481,7.753570,14.230192,-0.545355,0.518598,39.459625,-0.356107,0.220126,0.941287,0.337588,-0.002277,0.002857
6325,0.045587,6.315895,7.711136,15.132519,-0.481943,0.379634,39.948990,-0.378846,0.220681,0.939836,0.341605,-0.002449,0.002939
6326,0.044305,6.405718,7.643784,16.780062,-0.454494,-0.364707,40.480923,-0.390927,0.210787,0.938240,0.345964,-0.002564,0.002906
6327,0.031854,6.463728,7.601367,18.005772,-0.304627,-0.999456,41.060841,-0.385681,0.185286,0.936478,0.350707,-0.002585,0.002695
6328,0.036226,6.536024,7.541749,19.549553,-0.494289,-0.827342,41.686954,-0.375563,0.153615,0.934549,0.355818,-0.002586,0.002419
6329,0.051650,6.592042,7.419950,20.096506,-0.910284,-0.846427,42.347931,-0.374279,0.117234,0.932481,0.361202,-0.002676,0.002134
6330,0.056658,6.694616,7.361358,19.759277,-1.046668,-1.095416,43.012478,-0.376329,0.071346,0.930372,0.366602,-0.002827,0.001783
6331,0.065775,6.783786,7.305282,19.640289,-1.264339,-0.753303,43.669434,-0.383208,0.022499,0.928255,0.371929,-0.003031,0.001426
6332,0.064872,6.852047,7.198462,18.562695,-1.370814,-0.894208,44.306473,-0.395733,-0.027739,0.926174,0.377082,-0.003290,0.001078
6333,0.066774,6.940281,7.127917,16.765404,-1.520000,-1.397102,44.895683,-0.403235,-0.088760,0.924223,0.381837,-0.003548,0.000628
6334,0.063137,7.029408,7.118003,16.304018,-1.940283,-1.185830,45.447327,-0.413389,-0.160020,0.922374,0.386279,-0.003867,0.000105
6335,0.056292,7.090770,7.005910,18.763021,-2.627811,-0.611906,46.032330,-0.445074,-0.235439,0.920389,0.390980,-0.004378,-0.000372
6336,0.073210,7.124886,6.893709,20.565895,-3.427709,-0.647300,46.688515,-0.499525,-0.322929,0.918133,0.396238,-0.005119,-0.000860
6337,0.082239,7.180399,6.800956,21.985294,-3.899781,-1.048832,47.398685,-0.562072,-0.431555,0.915657,0.401913,-0.006005,-0.001477
6338,0.075996,7.275466,6.697471,23.195028,-4.066929,-1.378933,48.152946,-0.621358,-0.557078,0.912988,0.407921,-0.006934,-0.002226
6339,0.099597,7.393989,6.587844,23.674524,-4.340621,-1.270392,48.935600,-0.681038,-0.691344,0.910177,0.414134,-0.007908,-0.003030
6340,0.119259,7.464980,6.516216,23.873571,-4.663438,-1.805341,49.729855,-0.739949,-0.838567,0.907278,0.420418,-0.008935,-0.003924
6341,0.104700,7.513787,6.360029,23.832640,-3.998721,-3.084875,50.527046,-0.769977,-1.001634,0.904325,0.426703,-0.009807,-0.005037
6342,0.112153,7.631640,6.265656,20.983349,-3.122715,-3.171698,51.276035,-0.763922,-1.159594,0.901509,0.432591,-0.010388,-0.006238
6343,0.134382,7.705606,6.213108,16.706739,-3.035715,-1.669504,51.905918,-0.764462,-1.290191,0.899110,0.437528,-0.010925,-0.007204
6344,0.132069,7.761231,6.151118,12.713676,-2.863168,-0.786140,52.397644,-0.792462,-1.392891,0.897217,0.441369,-0.011571,-0.007853
6345,0.142377,7.852046,6.111087,6.055959,-1.894078,-0.257275,52.711510,-0.826868,-1.466390,0.895999,0.443813,-0.012146,-0.008263
6346,0.170189,7.946147,6.178492,-0.176500,-1.395773,0.778094,52.810070,-0.866969,-1.504780,0.895614,0.444574,-0.012615,-0.008397
6347,0.185188,7.925272,6.181343,-2.725500,-1.313390,1.044821,52.761982,-0.918483,-1.522344,0.895799,0.444189,-0.013082,-0.008340
6348,0.178574,7.891346,6.174313,-5.297062,-0.955782,0.527187,52.628502,-0.962248,-1.536541,0.896314,0.443138,-0.013470,-0.008297
6349,0.181167,7.862578,6.180814,-5.811542,-0.399825,0.145997,52.443550,-0.984899,-1.547637,0.897027,0.441686,-0.013677,-0.008318
6350,0.180389,7.824735,6.163295,-5.468815,-0.288375,0.146857,52.255650,-0.995772,-1.553728,0.897749,0.440212,-0.013772,-0.008346
6351,0.167911,7.793412,6.195557,-6.156819,-0.265374,-0.096521,52.062008,-1.002098,-1.560502,0.898491,0.438693,-0.013833,-0.008398
6352,0.157946,7.779650,6.219026,-5.906317,-0.277559,-0.072627,51.861107,-1.005452,-1.569364,0.899258,0.437116,-0.013878,-0.008479
6353,0.162273,7.765336,6.224079,-4.889294,-0.236971,-0.140360,51.681343,-1.007970,-1.578299,0.899942,0.435703,-0.013919,-0.008562
6354,0.162672,7.730302,6.239471,-4.545598,-0.112022,-0.757786,51.524338,-0.999850,-1.592156,0.900537,0.434469,-0.013896,-0.008720
6355,0.163685,7.727177,6.272876,-4.854445,-0.107598,-0.864329,51.368008,-0.980986,-1.611865,0.901128,0.433240,-0.013810,-0.008966
6356,0.165396,7.701590,6.270678,-3.602718,-0.102014,-0.514507,51.227356,-0.965236,-1.628963,0.901658,0.432134,-0.013740,-0.009177
6357,0.163630,7.703160,6.283897,-3.808959,-0.020306,-0.378530,51.104004,-0.954921,-1.639886,0.902122,0.431163,-0.013690,-0.009316
6358,0.169323,7.707345,6.301102,-3.896639,-0.041679,-0.259524,50.975712,-0.947303,-1.647378,0.902604,0.430153,-0.013647,-0.009419
6359,0.163637,7.690385,6.304773,-3.016798,-0.029294,-0.034007,50.860550,-0.944252,-1.651382,0.903035,0.429246,-0.013629,-0.009476
6360,0.157339,7.671283,6.303017,-2.144631,0.029358,-0.068807,50.774544,-0.942924,-1.652465,0.903357,0.428568,-0.013615,-0.009500
6361,0.153157,7.668711,6.296078,-1.728891,0.057143,-0.345029,50.710033,-0.936671,-1.655713,0.903598,0.428060,-0.013573,-0.009556
6362,0.154424,7.657607,6.302394,-1.068465,0.131805,-0.441209,50.663506,-0.924537,-1.661579,0.903771,0.427694,-0.013495,-0.009653
6363,0.157509,7.649127,6.313194,-1.029215,-0.024688,-0.223235,50.628632,-0.914841,-1.667220,0.903901,0.427420,-0.013437,-0.009738
6364,0.159852,7.661105,6.322126,-1.310624,-0.128337,-0.180844,50.589745,-0.911255,-1.673467,0.904045,0.427113,-0.013428,-0.009805
6365,0.165203,7.659262,6.327048,-1.339056,-0.119553,-0.260945,50.545712,-0.908192,-1.681336,0.904209,0.426765,-0.013430,-0.009884
6366,0.171471,7.665433,6.326906,-1.402674,-0.323182,0.076320,50.500130,-0.910508,-1.688988,0.904378,0.426404,-0.013473,-0.009941
6367,0.170921,7.658233,6.330647,-1.500808,-0.577501,0.281927,50.451866,-0.924667,-1.696770,0.904557,0.426020,-0.013609,-0.009955
6368,0.167001,7.648721,6.329153,-1.362459,-0.454148,0.043741,50.404312,-0.939804,-1.706569,0.904732,0.425641,-0.013761,-0.009982
6369,0.170543,7.666789,6.340382,-0.869712,-0.375720,-0.050652,50.367279,-0.948534,-1.717297,0.904869,0.425346,-0.013866,-0.010039
6370,0.167885,7.659003,6.332639,-0.533701,-0.370699,-0.085195,50.344078,-0.954728,-1.728323,0.904954,0.425161,-0.013954,-0.010106
6372,0.159230,7.652032,6.358407,-1.206195,-0.138760,-0.118780,50.315220,-0.957531,-1.737030,0.905060,0.424931,-0.014006,-0.010168
6373,0.170734,7.649710,6.361031,-1.740451,-0.151170,0.082335,50.266178,-0.960151,-1.741136,0.905241,0.424543,-0.014038,-0.010196
6374,0.180165,7.644650,6.377481,-2.242798,-0.199323,0.335598,50.199795,-0.969243,-1.741171,0.905487,0.424017,-0.014104,-0.010171
6375,0.182894,7.621366,6.385779,-2.699252,-0.333820,0.743517,50.117348,-0.988746,-1.736471,0.905792,0.423363,-0.014233,-0.010072
6376,0.188485,7.612767,6.406024,-2.946277,-0.400412,1.054903,50.023079,-1.019585,-1.726616,0.906141,0.422615,-0.014432,-0.009892
6377,0.203211,7.605483,6.389077,-2.037543,-0.519310,1.124279,49.939808,-1.057258,-1.715000,0.906448,0.421952,-0.014680,-0.009672
6378,0.194672,7.595395,6.401237,-1.488307,-0.230615,0.770889,49.880844,-1.089473,-1.704223,0.906665,0.421482,-0.014890,-0.009476
6379,0.197523,7.593786,6.413223,-1.362670,-0.178229,0.670183,49.833126,-1.112226,-1.693945,0.906841,0.421102,-0.015029,-0.009317
6380,0.196046,7.578229,6.406002,-1.180312,-0.047472,0.369389,49.790588,-1.127890,-1.685636,0.906998,0.420764,-0.015119,-0.009199
6381,0.189304,7.576845,6.409498,-1.367447,0.117712,-0.057079,49.748035,-1.131107,-1.681379,0.907154,0.420427,-0.015125,-0.009159
6382,0.181020,7.571609,6.432737,-1.696764,0.221712,-0.441650,49.696991,-1.121108,-1.682436,0.907341,0.420025,-0.015046,-0.009211
6383,0.183997,7.591499,6.439734,-1.335737,0.085478,-0.445995,49.646553,-1.106515,-1.688107,0.907526,0.419627,-0.014947,-0.009316
6384,0.174505,7.601329,6.457012,-0.891944,0.041195,-0.507834,49.609592,-1.093036,-1.696797,0.907661,0.419335,-0.014869,-0.009439
6385,0.175864,7.598908,6.456560,-0.671209,-0.161440,-0.161803,49.583714,-1.085836,-1.705559,0.907755,0.419130,-0.014842,-0.009538
6386,0.183905,7.591139,6.472269,-0.803279,-0.383078,0.165508,49.559265,-1.091768,-1.712428,0.907844,0.418934,-0.014912,-0.009574
6387,0.192902,7.585123,6.469313,-0.537407,-0.603679,0.453414,49.537033,-1.110288,-1.718252,0.907924,0.418755,-0.015078,-0.009555
6388,0.192750,7.581898,6.457750,-0.298689,-0.662947,0.580583,49.523193,-1.137100,-1.723128,0.907974,0.418640,-0.015307,-0.009498
6389,0.192665,7.563848,6.456345,-0.598913,-0.576220,0.427349,49.508335,-1.163285,-1.727932,0.908027,0.418518,-0.015531,-0.009442
6390,0.205454,7.568790,6.462590,-0.309389,-0.474760,0.190852,49.493324,-1.182496,-1.734561,0.908081,0.418395,-0.015706,-0.009426
6391,0.212176,7.571977,6.467284,-0.073465,-0.467523,0.181081,49.487110,-1.197410,-1.742476,0.908102,0.418342,-0.015853,-0.009436
6392,0.210807,7.577986,6.464835,-0.150844,-0.333184,0.010803,49.483532,-1.208511,-1.750546,0.908114,0.418311,-0.015970,-0.009459
6393,0.221463,7.582356,6.478394,-0.290155,-0.577377,0.268706,49.476368,-1.221912,-1.759058,0.908139,0.418251,-0.016107,-0.009479
6394,0.223936,7.572598,6.457253,0.214820,-0.897300,0.709956,49.475288,-1.250281,-1.767144,0.908142,0.418236,-0.016361,-0.009440
6395,0.217922,7.567928,6.454865,0.023334,-1.036089,0.793088,49.479439,-1.290260,-1.775364,0.908125,0.418262,-0.016708,-0.009358
6396,0.222720,7.574317,6.456744,-0.301114,-0.965817,0.749814,49.475006,-1.331486,-1.784020,0.908139,0.418218,-0.017066,-0.009277
6397,0.230987,7.569449,6.470522,-0.639532,-1.039816,0.916619,49.459503,-1.374319,-1.791377,0.908193,0.418087,-0.017431,-0.009181
6398,0.235297,7.541965,6.455843,-0.758738,-0.989920,0.899212,49.436344,-1.419308,-1.797406,0.908275,0.417895,-0.017807,-0.009068
6399,0.250783,7.542595,6.470703,-1.008544,-0.761297,0.791140,49.406982,-1.459691,-1.801249,0.908380,0.417655,-0.018139,-0.008956
6400,0.258561,7.549860,6.489987,-1.251814,-0.433697,0.635679,49.369305,-1.490709,-1.800888,0.908516,0.417351,-0.018381,-0.008846
6401,0.264713,7.550883,6.486241,-1.141021,-0.393223,0.752946,49.329304,-1.517247,-1.796265,0.908661,0.417030,-0.018571,-0.008719
6402,0.275197,7.558569,6.491715,-1.073928,-0.381537,0.811505,49.292194,-1.545436,-1.789054,0.908795,0.416732,-0.018766,-0.008565
6403,0.282842,7.544569,6.516228,-1.501344,-0.345859,0.678342,49.249084,-1.572164,-1.782037,0.908951,0.416387,-0.018949,-0.008419
6404,0.286070,7.530878,6.496436,-1.273411,-0.514103,0.636049,49.202744,-1.598113,-1.778582,0.909118,0.416015,-0.019139,-0.008305
6405,0.295258,7.529800,6.483470,-1.006909,-0.657014,0.650351,49.164764,-1.627097,-1.779341,0.909255,0.415709,-0.019369,-0.008212
6406,0.306274,7.531404,6.499814,-0.568309,-0.665303,0.713280,49.138561,-1.658703,-1.781149,0.909348,0.415495,-0.019624,-0.008116
6407,0.298742,7.509636,6.503222,-0.095329,-0.655956,0.753348,49.127518,-1.691597,-1.781810,0.909386,0.415401,-0.019887,-0.008004
6408,0.294909,7.527825,6.501785,0.382024,-0.630919,0.774810,49.132286,-1.724891,-1.781364,0.909366,0.415433,-0.020150,-0.007879
6409,0.293101,7.545423,6.510387,0.651977,-0.243188,0.407832,49.149456,-1.749329,-1.779488,0.909303,0.415566,-0.020338,-0.007772
6410,0.300115,7.552173,6.507727,0.899620,-0.226431,0.591708,49.175171,-1.767051,-1.774515,0.909209,0.415767,-0.020462,-0.007664
6411,0.301524,7.524184,6.512397,0.346257,-0.342791,0.531696,49.195770,-1.787422,-1.769454,0.909133,0.415928,-0.020607,-0.007546
6412,0.311246,7.541642,6.502531,0.022390,-0.256137,0.245590,49.201889,-1.803752,-1.768544,0.909109,0.415974,-0.020733,-0.007479
6413,0.314904,7.539484,6.483201,0.234056,-0.026916,-0.063644,49.206215,-1.809130,-1.770135,0.909093,0.416007,-0.020782,-0.007471
6414,0.317573,7.535129,6.502419,-0.332879,0.007098,-0.115034,49.204636,-1.807091,-1.772332,0.909099,0.415994,-0.020774,-0.007496
6415,0.301350,7.525131,6.515283,-0.535874,0.353537,-0.680217,49.190289,-1.793131,-1.776446,0.909152,0.415882,-0.020677,-0.007582
6416,0.301469,7.553278,6.495578,0.027257,0.504727,-0.722665,49.181946,-1.766085,-1.780903,0.909184,0.415820,-0.020478,-0.007717
6417,0.295470,7.530338,6.493474,0.187052,0.482057,-0.579386,49.185577,-1.738912,-1.782640,0.909172,0.415853,-0.020269,-0.007829
6418,0.296968,7.522998,6.488096,0.062224,0.353045,-0.566858,49.189781,-1.715356,-1.784593,0.909158,0.415891,-0.020090,-0.007929
6419,0.294014,7.535925,6.497652,0.120669,0.299925,-0.512702,49.192936,-1.694625,-1.788116,0.909148,0.415919,-0.019938,-0.008032
6420,0.303101,7.535357,6.491312,0.311870,-0.151396,0.111674,49.200222,-1.687948,-1.790611,0.909122,0.415977,-0.019895,-0.008075
6421,0.299595,7.519353,6.475379,0.320836,-0.402770,0.119765,49.210899,-1.696903,-1.795085,0.909082,0.416060,-0.019983,-0.008076
6422,0.308783,7.518510,6.513385,-0.637256,-0.464267,0.000691,49.205914,-1.707864,-1.804718,0.909099,0.416016,-0.020104,-0.008113
6423,0.312386,7.525685,6.531268,-0.528698,-0.483585,0.447349,49.186684,-1.723840,-1.811798,0.909167,0.415860,-0.020256,-0.008115
6424,0.298102,7.527503,6.513773,-0.170148,-0.546073,0.543887,49.175106,-1.747560,-1.813988,0.909207,0.415763,-0.020451,-0.008048
6425,0.296337,7.539243,6.499615,-0.044897,-0.452175,0.177638,49.171673,-1.767537,-1.818719,0.909218,0.415732,-0.020626,-0.008014
6426,0.291323,7.521512,6.524509,-0.660502,0.024071,-0.218605,49.160095,-1.771685,-1.824566,0.909259,0.415638,-0.020680,-0.008047
6427,0.284486,7.542130,6.495537,0.191619,0.246715,-0.365786,49.152370,-1.761366,-1.827523,0.909288,0.415578,-0.020608,-0.008109
6428,0.286264,7.548762,6.490252,0.201825,0.089105,-0.569306,49.159111,-1.745916,-1.833483,0.909264,0.415633,-0.020507,-0.008212
6429,0.306185,7.525781,6.494764,-0.099488,0.081778,-0.538496,49.161118,-1.730085,-1.843408,0.909257,0.415650,-0.020418,-0.008347
6430,0.311766,7.497477,6.492883,-0.272748,0.121725,-0.451602,49.155155,-1.715383,-1.851637,0.909279,0.415604,-0.020331,-0.008467
6431,0.311976,7.518939,6.516093,-0.494776,-0.233322,-0.165658,49.142605,-1.708819,-1.859777,0.909324,0.415504,-0.020307,-0.008558
6432,0.307936,7.511099,6.504349,-0.235148,-0.380508,0.029282,49.130718,-1.713793,-1.869005,0.909366,0.415407,-0.020379,-0.008615
6433,0.298408,7.503144,6.507931,-0.208347,-0.214771,0.030475,49.123535,-1.721038,-1.875859,0.909391,0.415348,-0.020461,-0.008644
6434,0.295243,7.527495,6.486849,0.610683,-0.180416,0.027161,49.130371,-1.726075,-1.880213,0.909366,0.415400,-0.020517,-0.008660
6435,0.298579,7.545141,6.521813,0.289251,-0.113396,0.141496,49.145428,-1.731404,-1.882079,0.909311,0.415519,-0.020567,-0.008652
6436,0.307605,7.525527,6.487800,1.009606,-0.239665,0.488451,49.166996,-1.743195,-1.879662,0.909232,0.415688,-0.020654,-0.008586
6437,0.309929,7.524682,6.493870,0.744992,-0.329418,0.590821,49.196110,-1.763008,-1.875081,0.909126,0.415916,-0.020797,-0.008473
6438,0.309701,7.537040,6.497693,0.472868,-0.299186,0.489542,49.216282,-1.783484,-1.871245,0.909051,0.416073,-0.020947,-0.008364
6439,0.313557,7.536353,6.505477,0.053412,-0.279764,0.523361,49.224941,-1.802570,-1.867524,0.909019,0.416139,-0.021085,-0.008264
6440,0.315407,7.528618,6.492515,0.125111,-0.344270,0.495896,49.227814,-1.822227,-1.864304,0.909008,0.416158,-0.021229,-0.008166
6441,0.315657,7.542604,6.494776,-0.011732,-0.143783,0.142847,49.229668,-1.835601,-1.863511,0.909000,0.416171,-0.021333,-0.008111
6442,0.325016,7.557168,6.488043,0.039058,-0.170190,0.246828,49.230114,-1.843937,-1.863233,0.908998,0.416173,-0.021398,-0.008078
6443,0.327931,7.539635,6.485847,0.094422,-0.168152,0.251679,49.232304,-1.853912,-1.862078,0.908989,0.416189,-0.021473,-0.008033
6444,0.322949,7.527610,6.494220,-0.270840,-0.045239,-0.030445,49.229374,-1.859026,-1.862364,0.909000,0.416164,-0.021514,-0.008017
6445,0.318209,7.534718,6.491707,-0.159260,0.016233,-0.035727,49.222244,-1.858507,-1.863451,0.909025,0.416108,-0.021514,-0.008029
6446,0.303669,7.544979,6.500939,-0.242508,0.045138,-0.111938,49.215576,-1.855975,-1.864284,0.909050,0.416055,-0.021496,-0.008046
6447,0.304530,7.541979,6.502408,-0.293162,0.112486,-0.220443,49.206699,-1.850065,-1.865915,0.909082,0.415986,-0.021455,-0.008082
6448,0.311657,7.535094,6.496890,-0.056372,0.255987,-0.170383,49.200867,-1.841121,-1.865521,0.909104,0.415941,-0.021382,-0.008112
6449,0.321366,7.539903,6.509225,-0.409413,0.092452,-0.043455,49.193035,-1.834629,-1.863453,0.909133,0.415880,-0.021322,-0.008121
6450,0.326302,7.525308,6.522363,-1.083765,0.089157,-0.224539,49.168159,-1.829270,-1.864083,0.909224,0.415684,-0.021280,-0.008150
6451,0.326471,7.502689,6.516033,-1.200683,0.174983,-0.098636,49.130104,-1.822316,-1.864276,0.909362,0.415383,-0.021223,-0.008184
6452,0.321544,7.490753,6.503319,-0.807584,0.110166,-0.086277,49.096573,-1.816875,-1.862699,0.909484,0.415118,-0.021172,-0.008197
6453,0.321334,7.502005,6.515459,-1.396478,0.125306,-0.319927,49.059895,-1.809189,-1.864169,0.909617,0.414828,-0.021113,-0.008244
6454,0.317506,7.491353,6.517102,-0.924552,0.197301,-0.184401,49.021255,-1.799317,-1.865620,0.909758,0.414523,-0.021038,-0.008298
6455,0.320135,7.498573,6.527495,-0.707088,-0.003223,0.043556,48.994038,-1.795424,-1.864718,0.909856,0.414308,-0.021001,-0.008310
6456,0.324769,7.492323,6.519641,-0.430262,-0.157222,-0.146654,48.975174,-1.795882,-1.867865,0.909924,0.414158,-0.021015,-0.008337
6457,0.319779,7.467182,6.516114,-0.397012,0.070555,-0.373753,48.961594,-1.790287,-1.874652,0.909973,0.414050,-0.020994,-0.008413
6458,0.315671,7.471974,6.513619,-0.038882,0.075886,-0.480583,48.954571,-1.777945,-1.882164,0.909999,0.413995,-0.020923,-0.008519
6459,0.304467,7.488895,6.517594,-0.199830,0.219383,-0.832785,48.950920,-1.758205,-1.892831,0.910013,0.413968,-0.020804,-0.008676
6460,0.288990,7.489302,6.518156,-0.074248,0.562331,-1.022860,48.946667,-1.726326,-1.903322,0.910029,0.413938,-0.020589,-0.008875
6461,0.298154,7.513204,6.532967,0.155188,0.565492,-0.676676,48.948143,-1.692620,-1.907752,0.910025,0.413955,-0.020337,-0.009032
6462,0.299823,7.542659,6.546666,0.003892,0.433300,-0.531108,48.950821,-1.666507,-1.908418,0.910017,0.413981,-0.020133,-0.009131
6463,0.292270,7.537892,6.551481,0.045165,0.366036,-0.231567,48.951580,-1.648172,-1.906717,0.910015,0.413991,-0.019981,-0.009184
6464,0.307621,7.524020,6.539380,0.226285,-0.070416,0.559829,48.955898,-1.649063,-1.899406,0.910000,0.414026,-0.019962,-0.009122
6465,0.313438,7.522539,6.527800,0.472834,-0.345681,0.973805,48.967220,-1.672896,-1.887849,0.909959,0.414114,-0.020110,-0.008942
6466,0.306663,7.513828,6.515406,0.458080,-0.328849,0.933409,48.982365,-1.704256,-1.875461,0.909903,0.414230,-0.020316,-0.008727
6467,0.312545,7.509833,6.527331,0.366383,-0.469719,1.166085,48.995720,-1.739394,-1.862536,0.909854,0.414332,-0.020549,-0.008495
6469,0.318885,7.496552,6.524585,0.413213,-0.527103,1.272144,49.008278,-1.780963,-1.848409,0.909807,0.414427,-0.020829,-0.008230
6470,0.317681,7.506935,6.531649,0.472453,-0.407035,1.196374,49.022560,-1.822232,-1.833171,0.909754,0.414535,-0.021102,-0.007957
6471,0.319121,7.514128,6.524307,0.561935,-0.357642,1.049294,49.039326,-1.858849,-1.818247,0.909692,0.414664,-0.021340,-0.007703
6472,0.321182,7.514154,6.505547,0.773954,-0.268917,0.937735,49.061138,-1.890706,-1.804423,0.909611,0.414834,-0.021544,-0.007474
6473,0.318342,7.510499,6.506588,0.314742,0.176825,0.557831,49.078773,-1.910544,-1.789244,0.909547,0.414974,-0.021648,-0.007278
6474,0.320091,7.520149,6.500331,0.451360,0.487921,0.413894,49.090908,-1.915526,-1.770255,0.909504,0.415073,-0.021619,-0.007107
6475,0.320886,7.502615,6.487011,0.306163,0.670446,0.193157,49.102821,-1.910531,-1.749026,0.909462,0.415172,-0.021504,-0.006954
6476,0.320491,7.501296,6.499419,-0.107117,0.969584,-0.191500,49.105453,-1.892657,-1.728336,0.909455,0.415200,-0.021287,-0.006854
6477,0.320039,7.508962,6.515299,-0.005229,1.018495,-0.163500,49.102882,-1.866491,-1.707152,0.909468,0.415188,-0.021002,-0.006782
6478,0.324760,7.532146,6.505811,0.697951,0.679199,0.122371,49.113754,-1.847451,-1.686200,0.909431,0.415282,-0.020776,-0.006682
6479,0.319091,7.532520,6.524987,0.049681,0.555820,-0.254657,49.125751,-1.832313,-1.672071,0.909389,0.415382,-0.020605,-0.006623
6480,0.315799,7.536934,6.532991,0.052568,0.523268,-0.474108,49.127281,-1.811359,-1.666419,0.909386,0.415399,-0.020419,-0.006654
6481,0.316609,7.544939,6.509971,0.656455,0.233390,-0.097012,49.139004,-1.795910,-1.663108,0.909345,0.415495,-0.020285,-0.006682
6482,0.315060,7.515371,6.513386,-0.216308,0.274895,-0.427764,49.146317,-1.783753,-1.662421,0.909319,0.415555,-0.020186,-0.006719
6483,0.314347,7.492123,6.519332,-0.748113,0.332400,-0.592637,49.130341,-1.764269,-1.665895,0.909378,0.415431,-0.020043,-0.006820
6484,0.325601,7.521586,6.507779,-0.179149,-0.139175,0.060776,49.114998,-1.755459,-1.669264,0.909434,0.415310,-0.019985,-0.006882
6485,0.318372,7.526552,6.505346,-0.174027,-0.309525,0.151413,49.109211,-1.763028,-1.672604,0.909454,0.415263,-0.020057,-0.006882
6486,0.309626,7.492575,6.513581,-0.634805,-0.120534,-0.168642,49.095905,-1.767503,-1.678213,0.909502,0.415155,-0.020112,-0.006912
6487,0.308762,7.510543,6.505812,-0.313323,-0.210051,-0.028785,49.080299,-1.768625,-1.684534,0.909558,0.415030,-0.020142,-0.006961
6488,0.309065,7.535659,6.501661,0.152282,-0.229034,0.018657,49.077789,-1.773291,-1.690177,0.909567,0.415008,-0.020200,-0.006989
6489,0.304257,7.503268,6.509603,-0.167188,0.144366,-0.400942,49.077705,-1.769401,-1.695420,0.909567,0.415007,-0.020188,-0.007045
6490,0.308607,7.509057,6.526900,-0.374997,0.230678,-0.393635,49.068790,-1.755300,-1.699374,0.909600,0.414938,-0.020090,-0.007129
6491,0.316291,7.528383,6.506629,0.309498,-0.041434,-0.018581,49.067760,-1.748044,-1.701494,0.909604,0.414931,-0.020040,-0.007172
6492,0.307502,7.527831,6.518401,0.222852,0.083357,-0.186200,49.076683,-1.745007,-1.703202,0.909572,0.415002,-0.020022,-0.007195
6493,0.297858,7.522704,6.527396,-0.091988,0.266192,-0.392711,49.078926,-1.733901,-1.705122,0.909564,0.415022,-0.019941,-0.007251
6494,0.305540,7.523942,6.516928,0.202289,-0.008645,0.135857,49.080750,-1.727854,-1.704682,0.909558,0.415037,-0.019892,-0.007269
6495,0.304685,7.503184,6.496235,0.348732,-0.019298,0.087744,49.089870,-1.730976,-1.702592,0.909525,0.415109,-0.019910,-0.007239
6496,0.301981,7.488775,6.506945,-0.125667,0.162079,-0.211712,49.093578,-1.727856,-1.702147,0.909512,0.415139,-0.019884,-0.007246
6497,0.307839,7.492767,6.512585,-0.122951,0.069030,0.046973,49.089397,-1.723258,-1.701033,0.909527,0.415107,-0.019843,-0.007255
6498,0.316692,7.482483,6.515662,-0.230533,-0.197562,0.383416,49.083416,-1.730082,-1.697953,0.909549,0.415059,-0.019885,-0.007207
6499,0.307263,7.482631,6.512599,-0.138237,-0.012314,-0.016953,49.077229,-1.736989,-1.696595,0.909571,0.415009,-0.019935,-0.007172
6500,0.298019,7.504828,6.516837,-0.053719,0.182772,-0.222227,49.074047,-1.732116,-1.697060,0.909582,0.414985,-0.019898,-0.007194
6501,0.293893,7.506971,6.535315,-0.450868,0.261379,-0.369732,49.065662,-1.719812,-1.697931,0.909614,0.414920,-0.019803,-0.007247
6502,0.292195,7.505329,6.521309,-0.259462,0.287699,-0.353619,49.053856,-1.704709,-1.698919,0.909657,0.414829,-0.019686,-0.007311
6503,0.293007,7.520095,6.516951,0.001830,0.284538,-0.341505,49.049561,-1.689708,-1.699308,0.909674,0.414797,-0.019568,-0.007370
6504,0.297496,7.523101,6.518592,-0.114977,0.289232,-0.273803,49.047661,-1.675695,-1.698806,0.909681,0.414784,-0.019455,-0.007417
6505,0.302532,7.504125,6.520535,-0.237294,0.157875,0.028138,49.041706,-1.667718,-1.695861,0.909704,0.414739,-0.019380,-0.007423
6506,0.295239,7.509525,6.513763,0.040348,0.081881,0.108627,49.038296,-1.666820,-1.691348,0.909716,0.414713,-0.019357,-0.007391
6507,0.297888,7.517372,6.513551,0.037026,-0.088285,0.149494,49.039509,-1.670139,-1.688608,0.909712,0.414722,-0.019373,-0.007357
6508,0.290292,7.505921,6.511150,-0.121446,0.094579,-0.004619,49.038055,-1.671894,-1.686945,0.909717,0.414711,-0.019381,-0.007338
6509,0.284475,7.505669,6.524422,-0.507852,0.244178,-0.222849,49.027515,-1.665329,-1.685166,0.909756,0.414629,-0.019322,-0.007349
6510,0.280805,7.499797,6.527020,-0.731642,0.273796,-0.464653,49.006886,-1.651018,-1.686165,0.909831,0.414467,-0.019210,-0.007413
6511,0.281764,7.506751,6.520031,-0.545193,0.254701,-0.379530,48.985672,-1.634620,-1.688749,0.909909,0.414301,-0.019088,-0.007496
6512,0.269192,7.516562,6.526167,-0.457618,0.627717,-0.816474,48.969017,-1.609929,-1.690738,0.909970,0.414173,-0.018898,-0.007604
6513,0.275483,7.511741,6.535451,-0.501799,0.615610,-0.817293,48.953098,-1.575785,-1.692986,0.910030,0.414051,-0.018634,-0.007748
6514,0.263708,7.498816,6.533340,-0.447627,0.606708,-0.788521,48.937332,-1.542223,-1.695203,0.910088,0.413931,-0.018375,-0.007889
6515,0.264109,7.516662,6.521014,-0.100440,0.432525,-0.615996,48.928249,-1.513196,-1.697523,0.910123,0.413864,-0.018152,-0.008014
6516,0.272723,7.513944,6.524912,-0.143884,0.270198,-0.470148,48.924263,-1.491854,-1.700588,0.910138,0.413835,-0.017993,-0.008116
6517,0.271207,7.485229,6.533748,-0.491607,0.191917,-0.297999,48.913742,-1.477143,-1.703196,0.910176,0.413754,-0.017885,-0.008192
6518,0.263982,7.493949,6.518775,-0.013859,0.022419,-0.241398,48.905403,-1.468019,-1.706414,0.910207,0.413688,-0.017824,-0.008252
6519,0.269888,7.499536,6.519351,0.141621,-0.119822,-0.022620,48.907627,-1.465770,-1.710531,0.910198,0.413706,-0.017821,-0.008292
6520,0.265207,7.494770,6.533135,-0.054903,0.009974,-0.050160,48.909134,-1.466059,-1.712709,0.910193,0.413717,-0.017831,-0.008308
6521,0.255754,7.508280,6.543898,-0.555966,0.020976,-0.010652,48.898960,-1.464956,-1.712986,0.910230,0.413637,-0.017823,-0.008316
6522,0.254291,7.514101,6.548316,-0.759135,-0.126954,0.222841,48.877018,-1.468782,-1.711992,0.910309,0.413462,-0.017848,-0.008298
6523,0.246307,7.494913,6.555687,-1.818543,0.116537,0.004138,48.833996,-1.471745,-1.709633,0.910464,0.413120,-0.017860,-0.008275
6524,0.245839,7.489236,6.577623,-3.228865,0.218870,-0.112398,48.749794,-1.466705,-1.706614,0.910768,0.412452,-0.017803,-0.008282
6525,0.248394,7.474761,6.598068,-4.965688,0.105180,-0.000999,48.613140,-1.461720,-1.703804,0.911259,0.411367,-0.017743,-0.008299
6526,0.255111,7.453736,6.618966,-6.936379,0.268959,-0.280776,48.414730,-1.454070,-1.702245,0.911971,0.409790,-0.017662,-0.008345
6527,0.265768,7.459784,6.656380,-9.973051,0.594625,-0.927704,48.132980,-1.429458,-1.704906,0.912977,0.407550,-0.017455,-0.008497
6528,0.254237,7.397856,6.720302,-13.632492,0.754413,-1.399698,47.739780,-1.385593,-1.714195,0.914371,0.404421,-0.017109,-0.008786
6529,0.246927,7.327324,6.756967,-16.145893,0.527980,-1.146408,47.243793,-1.339867,-1.727115,0.916114,0.400465,-0.016750,-0.009123
6530,0.241785,7.252149,6.806094,-17.638205,0.330891,-0.542437,46.680946,-1.309528,-1.735885,0.918070,0.395964,-0.016492,-0.009380
6531,0.229344,7.170011,6.878361,-19.379732,0.161487,-0.046523,46.064011,-1.296774,-1.736744,0.920189,0.391017,-0.016342,-0.009519
6532,0.216275,7.042910,6.963736,-20.377085,-0.101873,0.295341,45.401340,-1.299060,-1.733160,0.922435,0.385690,-0.016293,-0.009577
6533,0.230449,6.990403,7.023041,-19.446581,-0.408042,0.696722,44.737507,-1.316770,-1.727519,0.924654,0.380338,-0.016361,-0.009567
6534,0.232979,6.934390,7.112630,-18.827604,-0.205935,0.275820,44.099529,-1.335427,-1.723128,0.926756,0.375181,-0.016444,-0.009561
6535,0.232899,6.855832,7.197284,-18.910748,0.096365,-0.916195,43.470776,-1.329352,-1.732079,0.928800,0.370090,-0.016371,-0.009744
6536,0.228367,6.781878,7.270037,-18.275990,0.267626,-1.653166,42.851646,-1.295605,-1.759125,0.930786,0.365068,-0.016131,-0.010159
6537,0.225170,6.738629,7.319245,-17.507185,0.330304,-1.938655,42.256107,-1.247761,-1.796461,0.932669,0.360229,-0.015806,-0.010697
6538,0.218117,6.691562,7.399361,-18.295958,0.741930,-2.311222,41.660271,-1.187107,-1.837181,0.934528,0.355379,-0.015381,-0.011300
6539,0.204793,6.626766,7.474343,-19.754105,1.351172,-2.608564,41.026890,-1.106756,-1.875682,0.936476,0.350216,-0.014780,-0.011945
6540,0.191377,6.530805,7.553132,-21.164394,1.788616,-2.585134,40.345516,-1.010660,-1.907189,0.938541,0.344653,-0.014016,-0.012580
6541,0.170900,6.436609,7.620703,-22.285572,2.174870,-2.829828,39.621830,-0.902077,-1.933890,0.940698,0.338733,-0.013124,-0.013209
6542,0.157321,6.333268,7.709990,-23.611900,2.404994,-2.384686,38.857182,-0.787994,-1.952902,0.942937,0.332465,-0.012152,-0.013784
6543,0.131114,6.206357,7.774640,-23.892658,2.595307,-2.111133,38.065559,-0.676167,-1.959756,0.945210,0.325960,-0.011154,-0.014242
6544,0.111420,6.087873,7.862164,-23.789688,2.444799,-1.722778,37.270889,-0.570653,-1.959006,0.947448,0.319414,-0.010181,-0.014607
6545,0.088166,6.016233,7.934091,-22.542603,2.340324,-1.126784,36.498634,-0.478377,-1.949145,0.949579,0.313037,-0.009290,-0.014846
6546,0.090454,5.914502,8.027156,-22.043299,2.116044,-0.375541,35.755386,-0.403652,-1.925596,0.951592,0.306885,-0.008510,-0.014911
6547,0.095102,5.812080,8.097973,-20.821407,1.757797,0.022621,35.040783,-0.347646,-1.893023,0.953490,0.300955,-0.007866,-0.014839
6548,0.095350,5.691123,8.176466,-20.123850,1.280801,0.561952,34.358177,-0.311567,-1.856206,0.955270,0.295277,-0.007381,-0.014672
6549,0.089328,5.622538,8.221826,-19.138506,1.079616,0.588462,33.703629,-0.289706,-1.818334,0.956946,0.289822,-0.007019,-0.014453
6550,0.091298,5.589211,8.345574,-19.877707,1.062802,0.682389,33.053192,-0.271541,-1.781010,0.958580,0.284390,-0.006692,-0.014226
6551,0.078890,5.492955,8.412573,-22.461691,1.333792,1.297301,32.347343,-0.255756,-1.731671,0.960319,0.278485,-0.006352,-0.013891
6552,0.053180,5.364425,8.460608,-24.182894,1.770261,0.976347,31.569710,-0.231947,-1.672148,0.962194,0.271968,-0.005917,-0.013491
6553,0.040296,5.274861,8.520593,-24.843822,1.970200,0.472973,30.752449,-0.191092,-1.619195,0.964114,0.265106,-0.005354,-0.013182
6554,0.036677,5.133327,8.596292,-24.573729,1.633522,0.548681,29.928743,-0.147838,-1.574140,0.965999,0.258177,-0.004793,-0.012938
6555,0.031391,4.943378,8.591939,-22.811996,1.364913,0.392773,29.138931,-0.112089,-1.535875,0.967759,0.251518,-0.004318,-0.012726
6556,0.020682,4.843503,8.652590,-18.682020,1.187533,-0.527328,28.447367,-0.073719,-1.517356,0.969261,0.245678,-0.003877,-0.012677
6557,0.025589,4.798988,8.732074,-14.932092,0.465557,-0.416558,27.887150,-0.041966,-1.518193,0.970449,0.240940,-0.003548,-0.012770
6558,0.022559,4.718152,8.764502,-12.288064,0.177947,0.092771,27.433500,-0.029952,-1.518014,0.971395,0.237098,-0.003395,-0.012807
6559,0.021980,4.649416,8.806586,-11.378405,0.582802,0.115550,27.039059,-0.020278,-1.509138,0.972207,0.233754,-0.003251,-0.012763
6560,0.027249,4.618256,8.863994,-11.043145,0.566110,0.066557,26.665365,-0.004572,-1.497770,0.972965,0.230585,-0.003053,-0.012709
6561,0.035732,4.574508,8.892929,-11.111916,0.382405,0.184736,26.296116,0.007711,-1.486972,0.973703,0.227450,-0.002886,-0.012651
6562,0.024812,4.486923,8.913541,-12.454648,1.069204,0.067426,25.903349,0.027588,-1.472561,0.974478,0.224114,-0.002645,-0.012577
6563,0.023219,4.424611,8.978728,-14.200029,1.393088,-0.298248,25.459126,0.066235,-1.458226,0.975340,0.220339,-0.002240,-0.012540
6564,0.007034,4.338829,9.005386,-15.284311,1.280022,-0.434907,24.967741,0.111755,-1.450293,0.976276,0.216159,-0.001784,-0.012567
6565,-0.009535,4.240047,9.021343,-16.431845,1.571041,-0.610809,24.439159,0.162213,-1.446273,0.977261,0.211659,-0.001288,-0.012634
6566,-0.017585,4.124952,9.061593,-17.541714,1.596991,-0.092570,23.872986,0.215188,-1.435354,0.978294,0.206834,-0.000753,-0.012643
6567,-0.017012,4.023491,9.097267,-17.591290,1.037041,0.336124,23.287539,0.253778,-1.414084,0.979339,0.201837,-0.000322,-0.012533
6568,-0.021096,3.929388,9.115729,-17.535688,0.795708,0.378108,22.702211,0.277238,-1.391223,0.980359,0.196834,-0.000018,-0.012379
6569,-0.025225,3.855824,9.176438,-17.749300,0.817361,0.551107,22.114264,0.296191,-1.366668,0.981357,0.191804,0.000249,-0.012200
6570,-0.025812,3.762530,9.218219,-17.742006,0.297282,0.944847,21.522917,0.304163,-1.336619,0.982337,0.186738,0.000430,-0.011954
6572,-0.033529,3.668724,9.273126,-17.743795,0.350216,0.629874,20.931650,0.304712,-1.308275,0.983290,0.181666,0.000541,-0.011710
6573,-0.041533,3.572622,9.316586,-17.678982,0.659950,0.386053,20.341406,0.314512,-1.286489,0.984215,0.176600,0.000719,-0.011535
6574,-0.042433,3.465429,9.368997,-17.000465,0.666573,0.567720,19.763561,0.329835,-1.263960,0.985094,0.171636,0.000943,-0.011360
6575,-0.032011,3.360562,9.389675,-16.122986,0.619785,0.731119,19.211681,0.342816,-1.236403,0.985912,0.166891,0.001149,-0.011137
6576,-0.035254,3.273294,9.435249,-15.102352,1.136795,0.614543,18.691463,0.363213,-1.205686,0.986661,0.162415,0.001419,-0.010896
6577,-0.041934,3.184206,9.445699,-14.596117,1.366036,0.277214,18.196682,0.398077,-1.178368,0.987355,0.158155,0.001804,-0.010703
6578,-0.055585,3.082455,9.478705,-15.019781,1.644068,-0.062408,17.703232,0.444707,-1.159488,0.988026,0.153906,0.002277,-0.010595
6579,-0.060567,3.007725,9.507469,-14.666669,1.651591,0.161270,17.208618,0.496619,-1.141427,0.988680,0.149644,0.002795,-0.010497
6580,-0.068181,2.923347,9.528496,-14.270683,1.571263,0.099335,16.726521,0.546718,-1.121598,0.989300,0.145486,0.003296,-0.010377
6581,-0.076823,2.823148,9.553276,-14.636105,1.337225,-0.142229,16.244877,0.593405,-1.108528,0.989902,0.141330,0.003759,-0.010308
6582,-0.081729,2.752370,9.581188,-13.773809,0.704918,0.173687,15.771496,0.625986,-1.098644,0.990476,0.137242,0.004095,-0.010246
6583,-0.075734,2.701510,9.598166,-12.442122,0.042819,0.497956,15.334725,0.634985,-1.084540,0.990993,0.133466,0.004229,-0.010119
6584,-0.086721,2.614070,9.606364,-12.242185,-0.308090,0.185915,14.923434,0.627736,-1.074712,0.991467,0.129907,0.004213,-0.010010
6585,-0.080671,2.559832,9.622747,-11.950945,-0.991755,0.062655,14.520205,0.605743,-1.076219,0.991919,0.126416,0.004057,-0.009984
6586,-0.074097,2.492231,9.623868,-11.178710,-1.272034,0.209287,14.134663,0.568074,-1.081183,0.992340,0.123075,0.003759,-0.009973
6587,-0.066074,2.420319,9.637074,-10.997386,-1.221250,-0.256181,13.764959,0.527931,-1.091970,0.992733,0.119870,0.003432,-0.010012
6588,-0.063582,2.358192,9.650158,-10.947794,-1.246204,-0.526998,13.399012,0.491035,-1.114313,0.993111,0.116697,0.003121,-0.010157
6589,-0.055241,2.314741,9.671861,-10.466928,-1.143215,-0.674595,13.041867,0.456855,-1.142916,0.993469,0.113599,0.002828,-0.010362
6590,-0.056697,2.251091,9.677405,-10.240272,-0.865024,-0.619028,12.696529,0.429031,-1.171388,0.993805,0.110603,0.002591,-0.010573
6591,-0.054874,2.199331,9.710576,-10.359859,-0.626053,-0.665549,12.353005,0.409412,-1.197672,0.994131,0.107622,0.002427,-0.010775
6592,-0.051125,2.164076,9.735188,-10.014315,-0.375967,-0.105368,12.013326,0.395799,-1.213749,0.994444,0.104674,0.002326,-0.010895
6593,-0.045616,2.109742,9.756021,-9.623614,-0.241757,0.327139,11.686038,0.384950,-1.212243,0.994740,0.101832,0.002265,-0.010866
6594,-0.043521,2.067737,9.751578,-8.885880,0.018328,0.528648,11.377638,0.378439,-1.199011,0.995012,0.099154,0.002249,-0.010739
6595,-0.048130,2.014218,9.783673,-8.500792,0.523861,0.614705,11.087998,0.383584,-1.178556,0.995261,0.096639,0.002338,-0.010560
6596,-0.047895,1.984288,9.797003,-7.785380,0.605836,0.762095,10.816741,0.397705,-1.152439,0.995489,0.094283,0.002507,-0.010339
6597,-0.047704,1.926810,9.798586,-7.920156,0.679689,0.302015,10.555138,0.415466,-1.131037,0.995703,0.092011,0.002702,-0.010162
6598,-0.051438,1.881206,9.794527,-8.393643,1.127739,-0.468489,10.283263,0.445603,-1.128315,0.995917,0.089651,0.002990,-0.010155
6599,-0.061629,1.807557,9.808974,-9.539376,1.413791,-0.988034,9.984249,0.491586,-1.144748,0.996144,0.087056,0.003404,-0.010325
6600,-0.076318,1.739169,9.788503,-10.309285,1.288873,-1.625015,9.653124,0.543405,-1.179977,0.996386,0.084183,0.003859,-0.010659
6601,-0.092501,1.683322,9.801956,-11.506522,1.340540,-2.298327,9.288962,0.597404,-1.237269,0.996640,0.081023,0.004322,-0.011184
6602,-0.100565,1.602215,9.809109,-11.943305,1.373354,-2.320919,8.897386,0.654246,-1.306144,0.996901,0.077625,0.004808,-0.011806
6603,-0.109801,1.530899,9.821519,-11.533045,1.157651,-2.137421,8.505322,0.707183,-1.373217,0.997151,0.074222,0.005265,-0.012408
6604,-0.123759,1.469168,9.853223,-11.353516,1.310413,-2.246722,8.123034,0.758448,-1.439580,0.997382,0.070903,0.005712,-0.012999
6605,-0.138994,1.420164,9.877643,-10.928802,1.929706,-2.502484,7.750688,0.822864,-1.510519,0.997595,0.067673,0.006273,-0.013636
6606,-0.147663,1.341014,9.883213,-10.270360,1.791791,-2.252494,7.396315,0.894799,-1.580890,0.997785,0.064600,0.006902,-0.014270
6607,-0.156415,1.304611,9.877235,-9.691021,1.186388,-2.560981,7.062446,0.954133,-1.654240,0.997955,0.061704,0.007421,-0.014920
6608,-0.162886,1.242358,9.879913,-9.509372,0.682831,-2.603418,6.741055,0.995416,-1.735968,0.998110,0.058915,0.007780,-0.015632
6609,-0.155006,1.183284,9.881882,-9.336897,-0.124805,-2.252685,6.425567,1.013937,-1.815326,0.998256,0.056175,0.007945,-0.016311
6610,-0.142019,1.148950,9.879426,-9.218173,-0.885183,-1.853509,6.115092,1.004675,-1.885221,0.998395,0.053474,0.007876,-0.016894
6611,-0.140918,1.084576,9.874293,-9.880977,-0.927596,-2.287213,5.795535,0.981779,-1.957023,0.998532,0.050691,0.007692,-0.017488
6612,-0.144843,0.999705,9.897798,-10.264686,-0.651422,-2.232176,5.458460,0.962981,-2.034573,0.998666,0.047756,0.007547,-0.018133
6613,-0.137870,0.942552,9.894081,-10.044000,-0.653690,-2.150939,5.118737,0.948051,-2.109321,0.998792,0.044798,0.007442,-0.018757
6614,-0.138423,0.903219,9.896212,-9.969206,-0.720359,-2.174281,4.783976,0.931457,-2.183125,0.998908,0.041882,0.007325,-0.019372
6615,-0.131260,0.828527,9.913747,-10.377869,-0.941984,-2.094540,4.443686,0.909565,-2.256280,0.999017,0.038916,0.007167,-0.019981
6616,-0.125147,0.784779,9.932156,-10.060604,-0.711148,-1.163208,4.102169,0.886132,-2.312489,0.999120,0.035938,0.007004,-0.020442
6617,-0.121545,0.758605,9.923967,-9.972846,-0.350980,-0.470795,3.767847,0.870318,-2.340873,0.999217,0.033022,0.006918,-0.020665
6618,-0.126600,0.685467,9.930675,-11.390259,0.365434,-0.105112,3.411654,0.871143,-2.350430,0.999313,0.029917,0.006987,-0.020727
6619,-0.137070,0.591949,9.916723,-12.391671,1.353181,0.196486,3.015341,0.899644,-2.347286,0.999409,0.026465,0.007308,-0.020681
6620,-0.152661,0.505254,9.910618,-12.741370,2.025985,0.571364,2.596714,0.955259,-2.331719,0.999498,0.022823,0.007871,-0.020530
6621,-0.171874,0.426303,9.889968,-12.647532,2.107116,0.564041,2.173948,1.023283,-2.309924,0.999574,0.019145,0.008544,-0.020321
6622,-0.185368,0.348868,9.904484,-11.480802,1.938005,0.974205,1.772330,1.089778,-2.281973,0.999634,0.015651,0.009199,-0.020056
6623,-0.194418,0.304571,9.919125,-8.967669,1.445484,1.393496,1.432324,1.145029,-2.240942,0.999678,0.012691,0.009745,-0.019677
6624,-0.192027,0.289709,9.934506,-5.824589,0.625501,1.689521,1.186843,1.178344,-2.188775,0.999709,0.010551,0.010083,-0.019204
6625,-0.190028,0.266593,9.969060,-2.429689,0.037865,2.000154,1.050543,1.188181,-2.127071,0.999730,0.009358,0.010196,-0.018654
6626,-0.185048,0.262148,9.968920,1.385560,-0.513098,2.303130,1.034616,1.178939,-2.055494,0.999744,0.009211,0.010124,-0.018028
6627,-0.176501,0.274025,9.962902,3.739204,-1.210526,1.836809,1.121417,1.148898,-1.987037,0.999750,0.009958,0.009854,-0.017436
6628,-0.172756,0.296506,9.955326,5.351390,-1.675772,1.215031,1.273901,1.099726,-1.937181,0.999748,0.011277,0.009407,-0.017009
6629,-0.174764,0.320785,9.954390,6.093375,-1.753226,0.549952,1.465166,1.041877,-1.909135,0.999736,0.012935,0.008877,-0.016774
6630,-0.165811,0.367149,9.936007,6.584723,-1.871652,-0.331668,1.676499,0.981374,-1.907156,0.999716,0.014770,0.008318,-0.016765
6631,-0.156732,0.386928,9.926847,5.784726,-2.009888,-1.073548,1.882231,0.917427,-1.932578,0.999689,0.016557,0.007727,-0.016993
6632,-0.163703,0.394084,9.886817,5.101454,-1.614339,-1.449855,2.062979,0.858494,-1.976689,0.999659,0.018128,0.007179,-0.017381
6633,-0.162023,0.444861,9.920952,4.965786,-0.997653,-1.561808,2.230006,0.816865,-2.028486,0.999626,0.019582,0.006782,-0.017836
6634,-0.141118,0.466563,9.938513,4.696090,-1.054852,-1.401113,2.390325,0.784673,-2.079219,0.999592,0.020978,0.006466,-0.018282
6635,-0.137208,0.457236,9.908480,3.942044,-1.087743,-1.116042,2.533713,0.750799,-2.122669,0.999560,0.022226,0.006140,-0.018663
6636,-0.130189,0.493979,9.900929,3.637589,-0.880453,-1.199401,2.659526,0.719779,-2.162707,0.999530,0.023321,0.005840,-0.019012
6637,-0.124150,0.524589,9.935190,3.178167,-0.547396,-1.143790,2.772625,0.697857,-2.202849,0.999501,0.024305,0.005622,-0.019364
6638,-0.116375,0.496250,9.905152,2.018202,-0.637228,-1.014783,2.858787,0.679904,-2.239756,0.999477,0.025056,0.005443,-0.019686
6639,-0.118374,0.498966,9.882575,1.280364,-0.609703,-0.973993,2.913363,0.660814,-2.273907,0.999461,0.025530,0.005259,-0.019982
6640,-0.114762,0.511512,9.902976,0.880976,-0.657591,-0.870757,2.949025,0.641291,-2.305694,0.999448,0.025839,0.005076,-0.020257
6641,-0.108534,0.506837,9.916596,0.525649,-0.841808,-0.662780,2.972174,0.617654,-2.332510,0.999439,0.026038,0.004859,-0.020486
6642,-0.101597,0.493567,9.913982,0.026957,-0.964231,-0.600949,2.981147,0.588687,-2.355107,0.999435,0.026112,0.004600,-0.020677
6643,-0.094406,0.512604,9.920575,0.096460,-0.934573,-0.666528,2.982977,0.558181,-2.377850,0.999432,0.026124,0.004328,-0.020869
6644,-0.090351,0.506680,9.910902,0.107212,-0.703482,-0.685782,2.986143,0.532091,-2.401780,0.999428,0.026147,0.004095,-0.021072
6645,-0.095405,0.508616,9.918880,0.081111,-0.261616,-0.715335,2.989061,0.517245,-2.425940,0.999423,0.026171,0.003959,-0.021279
6646,-0.097032,0.529310,9.937118,0.555504,0.056017,-0.590899,2.999472,0.514960,-2.447861,0.999417,0.026262,0.003932,-0.021470
6647,-0.092941,0.545042,9.928720,1.267648,0.132811,-0.525006,3.029692,0.519082,-2.466270,0.999406,0.026527,0.003958,-0.021633
6648,-0.098386,0.560105,9.917138,1.902704,0.250170,-0.567930,3.082368,0.526428,-2.484120,0.999390,0.026988,0.004008,-0.021792
6649,-0.106871,0.559297,9.941689,2.094026,0.275747,-0.551695,3.148811,0.536196,-2.502276,0.999370,0.027570,0.004076,-0.021955
6650,-0.104917,0.587173,9.928163,2.798250,0.142541,-0.570802,3.230177,0.544198,-2.520569,0.999347,0.028282,0.004126,-0.022119
6651,-0.100744,0.586453,9.913419,2.544230,-0.169462,-0.509564,3.319047,0.544779,-2.538571,0.999321,0.029058,0.004109,-0.022280
6652,-0.100731,0.592515,9.914971,2.040838,-0.358384,-0.464112,3.395307,0.536947,-2.555285,0.999299,0.029722,0.004022,-0.022426
6653,-0.102315,0.585620,9.915200,1.466921,-0.251950,-0.271753,3.453651,0.527525,-2.568134,0.999281,0.030229,0.003925,-0.022538
6654,-0.104752,0.616686,9.920868,1.141560,-0.040010,-0.102076,3.497066,0.523046,-2.574648,0.999269,0.030607,0.003876,-0.022595
6655,-0.092244,0.608236,9.943527,0.135480,-0.245402,0.014477,3.518334,0.518388,-2.576398,0.999263,0.030792,0.003830,-0.022609
6656,-0.089248,0.588296,9.929530,-0.385567,-0.154078,0.006754,3.514165,0.511720,-2.576452,0.999264,0.030754,0.003773,-0.022608
6657,-0.082510,0.589393,9.918081,-0.474195,-0.221728,0.136108,3.499854,0.505323,-2.574458,0.999269,0.030628,0.003721,-0.022588
6658,-0.081728,0.597585,9.922414,-0.572652,-0.115141,-0.132474,3.482404,0.499715,-2.574740,0.999274,0.030475,0.003675,-0.022589
6659,-0.084068,0.578095,9.937963,-0.882718,0.032843,-0.258469,3.458090,0.498741,-2.581326,0.999279,0.030263,0.003670,-0.022645
6660,-0.098652,0.569764,9.917834,-0.412566,0.170310,-0.092537,3.436452,0.502472,-2.586962,0.999283,0.030075,0.003705,-0.022695
6661,-0.103501,0.589059,9.927823,-0.129490,0.053064,-0.044642,3.427400,0.506325,-2.589021,0.999285,0.029997,0.003740,-0.022713
6662,-0.113288,0.591975,9.938966,0.042099,0.501183,-0.269918,3.425902,0.515860,-2.593703,0.999284,0.029986,0.003822,-0.022757
6663,-0.102419,0.592315,9.924341,0.395206,0.174700,0.116037,3.433173,0.527258,-2.595589,0.999281,0.030052,0.003919,-0.022776
6664,-0.086371,0.600312,9.891836,0.471297,-0.522762,0.215337,3.447662,0.521136,-2.590423,0.999279,0.030177,0.003865,-0.022730
6665,-0.077334,0.603352,9.919588,-0.171594,-0.395369,-0.279971,3.452639,0.505926,-2.592419,0.999278,0.030217,0.003730,-0.022744
6666,-0.061572,0.600098,9.927232,-0.144813,-0.546341,-0.310560,3.447271,0.490852,-2.603188,0.999278,0.030168,0.003597,-0.022833
6667,-0.030081,0.582681,9.930255,-0.413071,-1.945908,0.295293,3.437951,0.449404,-2.605936,0.999281,0.030078,0.003237,-0.022846
6668,-0.037143,0.552662,9.917062,-1.337781,-2.331332,0.180607,3.408798,0.377770,-2.602276,0.999292,0.029810,0.002619,-0.022795
6669,-0.056187,0.563504,9.905002,-1.011218,-1.752385,-0.040527,3.369637,0.309690,-2.603965,0.999304,0.029455,0.002033,-0.022791
6670,-0.066232,0.584339,9.899348,-0.260941,-1.210307,0.306322,3.348441,0.260138,-2.602436,0.999311,0.029260,0.001605,-0.022765
6671,-0.082668,0.576925,9.916299,-0.252576,-0.053410,0.291830,3.339922,0.238529,-2.593714,0.999316,0.029182,0.001421,-0.022683
6672,-0.090553,0.584970,9.923367,-0.023244,1.118357,0.036493,3.335354,0.255930,-2.587217,0.999318,0.029145,0.001575,-0.022631
6673,-0.076606,0.593827,9.937096,0.420144,1.514857,0.196286,3.342000,0.299516,-2.580787,0.999316,0.029212,0.001955,-0.022586
6675,-0.056358,0.581329,9.958941,0.065018,1.177329,0.340592,3.350151,0.343787,-2.569234,0.999315,0.029291,0.002343,-0.022497
6676,-0.042469,0.555476,9.934913,-0.328840,0.394934,0.381014,3.345837,0.369245,-2.555698,0.999318,0.029258,0.002569,-0.022385
6677,-0.043234,0.575769,9.926296,-0.222047,-0.302042,0.280998,3.336727,0.370148,-2.544594,0.999322,0.029179,0.002582,-0.022288
6678,-0.060047,0.582806,9.946942,-0.323095,-0.384310,0.173989,3.327684,0.358287,-2.537689,0.999326,0.029097,0.002482,-0.022225
6679,-0.068534,0.588239,9.948342,-0.463169,-0.419736,0.020611,3.314595,0.344721,-2.535227,0.999331,0.028981,0.002366,-0.022200
6680,-0.077192,0.581671,9.914219,-0.373220,-0.052600,-0.056905,3.300648,0.336897,-2.536285,0.999334,0.028857,0.002301,-0.022207
6681,-0.072267,0.587424,9.924779,-0.323221,0.151732,-0.077652,3.289028,0.338675,-2.538429,0.999337,0.028757,0.002318,-0.022226
6682,-0.067766,0.562510,9.928052,-0.417161,0.268176,0.166344,3.276700,0.345578,-2.536552,0.999340,0.028650,0.002381,-0.022211
6683,-0.070537,0.556221,9.901265,-0.151474,0.680667,-0.003847,3.267245,0.361211,-2.532946,0.999342,0.028571,0.002520,-0.022183
6684,-0.065077,0.565137,9.930264,0.269357,0.534913,0.118284,3.269230,0.381329,-2.529886,0.999342,0.028592,0.002696,-0.022161
6685,-0.052648,0.573195,9.950474,0.755190,-0.257721,0.395461,3.286364,0.385452,-2.521073,0.999339,0.028742,0.002731,-0.022086
6686,-0.059240,0.580524,9.934551,0.974074,-0.357616,0.262731,3.315254,0.374582,-2.510710,0.999334,0.028991,0.002633,-0.021994
6687,-0.066915,0.572866,9.925392,0.567819,-0.183884,-0.007924,3.340976,0.365325,-2.506994,0.999329,0.029214,0.002548,-0.021959
6688,-0.066603,0.584281,9.925853,0.520937,-0.405108,-0.019243,3.359114,0.355551,-2.508020,0.999324,0.029370,0.002459,-0.021966
6689,-0.077288,0.587899,9.906250,0.332483,0.181435,-0.360437,3.373298,0.352201,-2.514556,0.999319,0.029494,0.002426,-0.022023
6690,-0.083915,0.562766,9.925468,-0.578876,0.781474,-0.589154,3.369097,0.369152,-2.529413,0.999317,0.029460,0.002570,-0.022157
6691,-0.075926,0.571953,9.919206,-0.381160,0.530393,-0.646742,3.352968,0.392186,-2.548695,0.999317,0.029325,0.002770,-0.022330
6692,-0.060014,0.596313,9.914015,0.092999,0.169684,-0.631725,3.348023,0.405080,-2.569285,0.999313,0.029285,0.002878,-0.022513
6693,-0.055738,0.584161,9.929063,-0.285166,0.064134,-0.625625,3.344673,0.410194,-2.589978,0.999310,0.029257,0.002918,-0.022695
6694,-0.057427,0.572057,9.950510,-0.345060,-0.489975,-0.378018,3.334049,0.404082,-2.607090,0.999310,0.029163,0.002862,-0.022842
6695,-0.051153,0.597700,9.938875,0.511119,-1.156523,-0.094880,3.336752,0.377145,-2.616556,0.999308,0.029182,0.002624,-0.022918
6696,-0.057707,0.588368,9.936971,0.404889,-1.098360,0.127018,3.352009,0.339597,-2.618215,0.999305,0.029308,0.002293,-0.022923
6697,-0.065637,0.579672,9.929978,0.311493,-0.905968,0.094824,3.363959,0.306033,-2.616481,0.999303,0.029405,0.001999,-0.022900
6698,-0.066959,0.587567,9.930779,0.529841,-0.577529,0.099194,3.377991,0.281161,-2.614707,0.999301,0.029522,0.001779,-0.022878
6699,-0.056628,0.578446,9.912792,0.657056,-0.250822,-0.047524,3.397773,0.267328,-2.614664,0.999296,0.029692,0.001655,-0.022874
6700,-0.057939,0.579399,9.902764,0.756153,0.296663,-0.282651,3.421301,0.268418,-2.620112,0.999289,0.029898,0.001658,-0.022922
6701,-0.048453,0.582059,9.941611,0.849381,0.123566,-0.204061,3.448023,0.275895,-2.627791,0.999280,0.030132,0.001716,-0.022992
6702,-0.035162,0.583361,9.958479,0.795653,-0.438000,-0.351585,3.475395,0.271223,-2.637351,0.999271,0.030370,0.001667,-0.023074
6703,-0.035182,0.583311,9.951368,0.778824,-1.077011,-0.500910,3.501565,0.246884,-2.653069,0.999261,0.030594,0.001446,-0.023205
6704,-0.035330,0.607884,9.937210,0.718822,-1.799832,-0.487469,3.526451,0.200036,-2.672448,0.999252,0.030802,0.001027,-0.023362
6705,-0.029811,0.617174,9.918972,0.441522,-1.973434,-0.670344,3.545722,0.138458,-2.695585,0.999243,0.030957,0.000480,-0.023547
6706,-0.029426,0.622254,9.894987,0.197032,-1.435060,-0.773247,3.556311,0.083248,-2.723116,0.999235,0.031038,-0.000011,-0.023773
6707,-0.033817,0.628563,9.876938,0.246485,-0.761634,-0.578751,3.563673,0.048106,-2.747879,0.999229,0.031095,-0.000326,-0.023979
6708,-0.023147,0.641769,9.872161,0.300347,-0.138712,-0.499756,3.572773,0.034248,-2.766753,0.999222,0.031171,-0.000454,-0.024140
6709,-0.014294,0.645067,9.887136,0.365959,0.592354,-0.444439,3.583867,0.042777,-2.781988,0.999216,0.031270,-0.000386,-0.024275
6710,-0.014800,0.637097,9.914138,0.204478,1.232751,-0.305958,3.593362,0.073918,-2.792566,0.999211,0.031359,-0.000119,-0.024376
6711,-0.019112,0.632275,9.935761,0.022040,1.428259,-0.379354,3.597123,0.118897,-2.801186,0.999207,0.031402,0.000270,-0.024463
6712,-0.020570,0.624225,9.953829,-0.044474,0.988436,-0.266272,3.596729,0.159771,-2.809399,0.999205,0.031407,0.000624,-0.024546
6713,-0.020210,0.619262,9.958787,-0.048193,0.175953,-0.083187,3.595170,0.179505,-2.813994,0.999204,0.031398,0.000795,-0.024591
6714,-0.024228,0.602801,9.945618,-0.209015,-0.315354,-0.017837,3.590878,0.177291,-2.815820,0.999205,0.031360,0.000776,-0.024607
6715,-0.032325,0.599036,9.928489,-0.227638,-0.859532,0.073522,3.583600,0.157690,-2.816119,0.999207,0.031292,0.000607,-0.024604
6716,-0.036535,0.612255,9.916211,0.013386,-1.158610,0.028263,3.580028,0.124014,-2.816527,0.999209,0.031254,0.000314,-0.024598
6717,-0.038669,0.634337,9.900817,0.478363,-0.824311,-0.107366,3.588218,0.091113,-2.819910,0.999206,0.031318,0.000024,-0.024619
6718,-0.030114,0.631530,9.891941,0.447311,-0.509013,-0.122441,3.603638,0.069175,-2.825128,0.999201,0.031448,-0.000172,-0.024658
6719,-0.028508,0.633908,9.894736,0.277576,0.031025,-0.207796,3.615713,0.061571,-2.831123,0.999197,0.031551,-0.000242,-0.024708
6720,-0.016609,0.658335,9.910561,0.488975,0.225855,-0.337339,3.628479,0.066417,-2.839920,0.999191,0.031664,-0.000205,-0.024786
6721,-0.005799,0.655582,9.903292,0.503987,0.154467,-0.261497,3.645017,0.073376,-2.849479,0.999184,0.031809,-0.000151,-0.024872
6722,-0.011919,0.626803,9.898548,-0.245586,0.342164,-0.241060,3.649313,0.082170,-2.857311,0.999182,0.031849,-0.000077,-0.024942
6723,-0.019841,0.628970,9.914186,-0.462769,0.669045,-0.302662,3.637494,0.099564,-2.865285,0.999183,0.031750,0.000075,-0.025017
6724,-0.016356,0.636142,9.931946,-0.362397,0.502412,-0.301643,3.623724,0.119687,-2.874099,0.999184,0.031634,0.000251,-0.025099
6725,-0.019022,0.605588,9.913531,-0.564328,0.346053,-0.201030,3.608263,0.134329,-2.881569,0.999187,0.031502,0.000380,-0.025168
6726,-0.024985,0.606617,9.927400,-0.500569,0.154958,-0.122926,3.590502,0.143001,-2.886434,0.999190,0.031349,0.000458,-0.025213
6727,-0.015766,0.613792,9.946589,-0.398808,-0.282728,-0.136405,3.575501,0.141146,-2.890881,0.999193,0.031218,0.000444,-0.025251
6728,-0.022857,0.621121,9.931983,0.046567,-0.340709,-0.129992,3.569619,0.131052,-2.895960,0.999194,0.031165,0.000356,-0.025293
6729,-0.027394,0.604728,9.930131,-0.249666,-0.333099,-0.170646,3.566222,0.120156,-2.901660,0.999194,0.031133,0.000260,-0.025339
6730,-0.034183,0.612902,9.952885,-0.753147,-0.271373,-0.435891,3.549486,0.110728,-2.912375,0.999196,0.030985,0.000178,-0.025430
6731,-0.029352,0.625689,9.920406,-0.244217,-0.305947,-0.582317,3.532830,0.102172,-2.929906,0.999197,0.030838,0.000103,-0.025581
6732,-0.018377,0.633088,9.899742,0.468880,-0.281085,-0.327500,3.536548,0.093343,-2.945645,0.999193,0.030868,0.000021,-0.025716
6733,-0.009525,0.612864,9.912844,-0.027976,-0.252132,-0.360333,3.543878,0.085181,-2.957636,0.999188,0.030930,-0.000055,-0.025818
6734,-0.008342,0.622834,9.903925,0.514151,-0.262602,-0.226054,3.551966,0.077223,-2.967921,0.999184,0.030999,-0.000129,-0.025906
6735,-0.000965,0.617453,9.896238,0.994337,-0.350070,0.129192,3.577105,0.067133,-2.970167,0.999176,0.031216,-0.000224,-0.025922
6736,-0.007112,0.595737,9.903407,0.491234,0.012039,0.199587,3.601871,0.061168,-2.965051,0.999171,0.031430,-0.000280,-0.025876
6737,-0.023127,0.616853,9.921384,0.345550,0.318464,0.005990,3.615821,0.066450,-2.961286,0.999168,0.031553,-0.000236,-0.025845
6738,-0.018960,0.619084,9.912658,0.392244,0.185982,0.106973,3.628120,0.074721,-2.958875,0.999165,0.031662,-0.000166,-0.025826
6739,-0.014064,0.627334,9.914173,0.258648,0.108762,0.183834,3.638976,0.079317,-2.953727,0.999163,0.031758,-0.000127,-0.025782
6740,-0.017236,0.633717,9.920247,0.184264,0.247963,0.069520,3.646365,0.084982,-2.949136,0.999162,0.031824,-0.000078,-0.025744
6741,-0.019877,0.628641,9.934189,-0.286582,0.228928,-0.094542,3.644659,0.092941,-2.949046,0.999162,0.031811,-0.000008,-0.025745
6742,-0.013928,0.614385,9.943127,-0.669996,-0.010280,-0.041369,3.628713,0.096721,-2.951076,0.999166,0.031672,0.000028,-0.025764
6743,-0.019983,0.641520,9.928734,-0.041282,0.126200,-0.012175,3.616857,0.098706,-2.951844,0.999169,0.031569,0.000048,-0.025771
6744,-0.029713,0.633428,9.929781,-0.227936,0.417227,-0.063973,3.612369,0.107825,-2.952540,0.999170,0.031532,0.000128,-0.025780
6745,-0.030424,0.633121,9.920973,-0.280304,0.261433,-0.027729,3.603896,0.119209,-2.953354,0.999172,0.031461,0.000229,-0.025790
6746,-0.025516,0.635415,9.936239,-0.250019,0.135855,0.077357,3.595061,0.125766,-2.952113,0.999175,0.031386,0.000289,-0.025781
6747,-0.029248,0.627086,9.920164,-0.118848,0.277476,0.012765,3.588917,0.132547,-2.950182,0.999177,0.031333,0.000350,-0.025766
6748,-0.027044,0.611675,9.923856,-0.519083,-0.019635,0.016389,3.578287,0.136806,-2.949429,0.999180,0.031242,0.000389,-0.025760
6749,-0.026770,0.608484,9.916036,-0.559407,-0.147916,-0.086170,3.560309,0.134091,-2.950764,0.999184,0.031084,0.000369,-0.025771
6750,-0.027211,0.610711,9.919637,-0.292862,0.004565,-0.042778,3.546098,0.131840,-2.953056,0.999188,0.030960,0.000352,-0.025791
6751,-0.021513,0.616162,9.901050,0.205798,-0.058766,0.046641,3.544647,0.130934,-2.953048,0.999188,0.030947,0.000345,-0.025790
6752,-0.022488,0.626902,9.908478,0.122085,-0.054586,0.035051,3.550115,0.128964,-2.951806,0.999187,0.030994,0.000327,-0.025779
6753,-0.024338,0.620650,9.918461,0.011678,0.089811,-0.006172,3.552346,0.129520,-2.951289,0.999187,0.031014,0.000331,-0.025775
6754,-0.024370,0.618816,9.922562,0.039632,0.207343,-0.006193,3.553201,0.134476,-2.951188,0.999186,0.031022,0.000374,-0.025775
6755,-0.018404,0.638594,9.938771,0.244478,0.118152,-0.022680,3.557936,0.139921,-2.951332,0.999185,0.031065,0.000421,-0.025778
6756,-0.024678,0.623640,9.931101,-0.143720,0.323250,-0.155188,3.559609,0.147447,-2.953835,0.999184,0.031081,0.000485,-0.025802
6757,-0.024166,0.606759,9.928740,-0.289410,0.338650,-0.167519,3.552377,0.158791,-2.958519,0.999184,0.031021,0.000584,-0.025846
6758,-0.027819,0.611918,9.927577,-0.226034,0.273403,-0.186096,3.543772,0.169337,-2.963770,0.999185,0.030948,0.000677,-0.025894
6759,-0.037007,0.617676,9.927277,-0.212435,0.473376,-0.294034,3.536442,0.182254,-2.970987,0.999185,0.030887,0.000789,-0.025961
6760,-0.042355,0.593452,9.922777,-0.629253,0.586704,-0.326815,3.522383,0.200525,-2.980228,0.999187,0.030769,0.000949,-0.026046
6761,-0.035085,0.604648,9.923004,-0.336646,0.272750,-0.091730,3.506263,0.215250,-2.986313,0.999189,0.030632,0.001080,-0.026103
6762,-0.032752,0.599984,9.915224,-0.466932,0.222157,-0.104178,3.492859,0.223682,-2.989069,0.999192,0.030517,0.001156,-0.026129
6763,-0.039187,0.604582,9.907866,-0.304609,0.553362,-0.170830,3.479985,0.236862,-2.992858,0.999194,0.030407,0.001272,-0.026165
6764,-0.032964,0.619561,9.936262,-0.112208,0.228868,0.013437,3.473030,0.250035,-2.994685,0.999195,0.030350,0.001388,-0.026185
6765,-0.038772,0.614563,9.919539,-0.007218,0.381782,0.011927,3.471044,0.260168,-2.993647,0.999196,0.030335,0.001477,-0.026178
6766,-0.045495,0.610567,9.915691,-0.141524,0.556901,-0.050890,3.468567,0.275823,-2.993348,0.999196,0.030317,0.001615,-0.026180
6767,-0.049504,0.619013,9.919575,-0.046851,0.626854,-0.030195,3.465426,0.295598,-2.993504,0.999196,0.030294,0.001788,-0.026186
6768,-0.050808,0.605804,9.931753,-0.281676,0.651456,-0.024219,3.459953,0.316919,-2.993122,0.999197,0.030251,0.001975,-0.026188
6769,-0.050995,0.588897,9.893830,-0.300901,0.563288,0.031733,3.450251,0.337120,-2.991777,0.999199,0.030171,0.002154,-0.026182
6770,-0.050698,0.584079,9.903126,-0.538665,0.481144,0.008424,3.436268,0.354456,-2.990064,0.999203,0.030053,0.002309,-0.026171
6771,-0.066322,0.589003,9.901023,-0.322282,0.853612,-0.144928,3.421914,0.376798,-2.991005,0.999206,0.029933,0.002506,-0.026185
6772,-0.078430,0.588544,9.918639,-0.238341,1.003435,-0.076773,3.412557,0.407914,-2.992847,0.999207,0.029858,0.002779,-0.026209
6773,-0.086271,0.592466,9.935237,-0.172480,0.941527,-0.043798,3.405709,0.440393,-2.992925,0.999207,0.029806,0.003064,-0.026218
6774,-0.099060,0.603244,9.930281,0.139937,1.025305,-0.076418,3.405167,0.473234,-2.992978,0.999206,0.029809,0.003351,-0.026227
6775,-0.108342,0.612512,9.916112,0.522988,1.338587,-0.001222,3.416225,0.512640,-2.991925,0.999202,0.029914,0.003692,-0.026228
6776,-0.098753,0.613157,9.932552,0.480013,1.187642,0.207732,3.432997,0.554463,-2.985974,0.999197,0.030070,0.004054,-0.026187
6778,-0.112903,0.606938,9.930622,0.219352,1.357149,0.033076,3.444718,0.596559,-2.979423,0.999193,0.030181,0.004420,-0.026142
6779,-0.131064,0.598647,9.926215,-0.028856,1.764408,-0.041667,3.447926,0.648500,-2.976439,0.999190,0.030221,0.004873,-0.026129
6780,-0.131749,0.595323,9.935610,-0.186986,1.757634,-0.114846,3.444340,0.707251,-2.975515,0.999188,0.030202,0.005387,-0.026137
6781,-0.132477,0.583870,9.930683,-0.353194,1.470779,-0.095442,3.435333,0.761171,-2.975786,0.999186,0.030136,0.005859,-0.026153
6782,-0.138718,0.583811,9.888635,-0.396580,1.590785,-0.344855,3.422778,0.812545,-2.980061,0.999185,0.030038,0.006309,-0.026202
6783,-0.129915,0.590945,9.886248,-0.352144,1.612532,-0.136318,3.410230,0.866317,-2.984885,0.999184,0.029941,0.006779,-0.026258
6784,-0.123638,0.603066,9.905131,-0.203998,1.218244,0.013344,3.400972,0.913535,-2.984128,0.999183,0.029871,0.007193,-0.026263
6785,-0.135610,0.602776,9.946970,-0.410101,1.009980,-0.001457,3.390775,0.950594,-2.981730,0.999183,0.029790,0.007519,-0.026251
6786,-0.143116,0.612034,9.977059,-0.417758,0.505221,0.077233,3.377024,0.975729,-2.978979,0.999185,0.029676,0.007742,-0.026232
6787,-0.161561,0.584515,10.003661,-0.843386,-0.100890,0.349654,3.356133,0.982039,-2.971479,0.999192,0.029495,0.007804,-0.026167
6788,-0.158936,0.562838,9.975080,-0.782037,-1.194762,0.515633,3.329265,0.959640,-2.958341,0.999204,0.029255,0.007618,-0.026045
6789,-0.140874,0.546608,9.917363,-0.766528,-2.182204,0.616927,3.303707,0.902359,-2.942753,0.999218,0.029018,0.007128,-0.025893
6790,-0.139437,0.534382,9.878615,-0.915051,-2.103792,0.553098,3.275912,0.829925,-2.927384,0.999234,0.028759,0.006507,-0.025739
6791,-0.139887,0.538520,9.872332,-0.913471,-1.789355,0.300367,3.245584,0.764335,-2.916872,0.999248,0.028479,0.005944,-0.025630
6792,-0.127136,0.558681,9.891555,-0.622645,-1.589759,0.202632,3.220048,0.707634,-2.911677,0.999259,0.028244,0.005457,-0.025569
6793,-0.137520,0.556960,9.907157,-0.828413,-0.476529,-0.135490,3.195853,0.673187,-2.912488,0.999267,0.028025,0.005162,-0.025567
6794,-0.152599,0.547069,9.915341,-1.001258,0.777386,-0.465581,3.165243,0.678750,-2.922210,0.999272,0.027760,0.005215,-0.025652
6795,-0.134045,0.542639,9.947260,-0.917888,0.779868,-0.311958,3.133118,0.705378,-2.933722,0.999276,0.027486,0.005451,-0.025757
6796,-0.124209,0.535077,9.937334,-0.646146,0.569592,-0.101114,3.106979,0.728210,-2.939372,0.999279,0.027264,0.005655,-0.025810
6797,-0.124867,0.522782,9.928313,-0.791034,0.291747,-0.206362,3.082970,0.742821,-2.943714,0.999283,0.027058,0.005787,-0.025850
6798,-0.119152,0.528804,9.925029,-0.591439,-0.082637,-0.275717,3.059827,0.746732,-2.951552,0.999286,0.026857,0.005824,-0.025918
6799,-0.120531,0.526149,9.931999,-0.640074,-0.352532,-0.169391,3.039202,0.739884,-2.959347,0.999290,0.026676,0.005767,-0.025984
6800,-0.132579,0.538144,9.915726,-0.412406,-0.264766,-0.223793,3.021569,0.729956,-2.966436,0.999293,0.026521,0.005683,-0.026043
6801,-0.132872,0.514007,9.926743,-0.827531,-0.069875,-0.301560,3.000789,0.724847,-2.975474,0.999296,0.026339,0.005641,-0.026119
6802,-0.131220,0.503242,9.913784,-0.743342,0.009809,-0.192666,2.974503,0.724276,-2.983751,0.999300,0.026110,0.005640,-0.026190
6803,-0.116324,0.505069,9.901156,-0.551232,-0.421430,-0.238028,2.952832,0.717796,-2.991276,0.999304,0.025920,0.005587,-0.026253
6804,-0.101137,0.527512,9.923913,-0.122841,-0.580504,-0.181752,2.941500,0.701479,-2.999122,0.999305,0.025817,0.005446,-0.026317
6805,-0.110996,0.517108,9.910865,-0.158479,-0.419620,-0.038438,2.936757,0.685021,-3.003643,0.999306,0.025773,0.005302,-0.026353
6806,-0.127838,0.529184,9.902939,0.133259,-0.093460,-0.071032,2.936310,0.676574,-3.005903,0.999306,0.025767,0.005228,-0.026371
6807,-0.110586,0.536917,9.947097,0.273490,-0.034603,0.050829,2.943084,0.674460,-3.006349,0.999305,0.025825,0.005208,-0.026374
6808,-0.104594,0.523740,9.960491,0.227233,-0.040715,0.297370,2.951497,0.672908,-3.000618,0.999304,0.025898,0.005194,-0.026324
6809,-0.122282,0.514360,9.914884,0.096696,-0.131281,0.161785,2.956983,0.669651,-2.993123,0.999305,0.025945,0.005166,-0.026259
6810,-0.129299,0.529457,9.912793,0.272869,-0.246368,0.013771,2.963173,0.663214,-2.990525,0.999305,0.025997,0.005109,-0.026235
6811,-0.125435,0.527899,9.912384,0.350024,-0.258924,0.180755,2.973587,0.654636,-2.987723,0.999303,0.026086,0.005032,-0.026209
6812,-0.139209,0.517691,9.904808,0.147751,0.272412,0.035232,2.981925,0.654673,-2.984117,0.999302,0.026159,0.005032,-0.026178
6813,-0.139515,0.499801,9.910387,-0.263597,0.446428,-0.076433,2.979993,0.666674,-2.984180,0.999302,0.026145,0.005137,-0.026181
6814,-0.120682,0.499921,9.909403,-0.143649,0.276578,-0.242107,2.973150,0.678983,-2.988856,0.999302,0.026088,0.005245,-0.026224
6815,-0.102245,0.482250,9.894715,-0.643666,0.171199,-0.557191,2.959874,0.687126,-3.001775,0.999301,0.025975,0.005316,-0.026338
6816,-0.102871,0.486123,9.901202,-1.239647,0.178381,-0.983829,2.928181,0.694263,-3.027128,0.999302,0.025701,0.005380,-0.026559
6817,-0.116173,0.495925,9.908168,-1.357493,0.339615,-1.278144,2.884441,0.704797,-3.064344,0.999303,0.025324,0.005473,-0.026884
6818,-0.134306,0.508774,9.914557,-1.070723,0.641224,-1.283649,2.843450,0.723258,-3.106174,0.999301,0.024973,0.005635,-0.027251
6819,-0.149095,0.496553,9.938539,-1.397820,0.715384,-1.065868,2.801818,0.747769,-3.144173,0.999299,0.024617,0.005850,-0.027585
6820,-0.151652,0.494733,9.951752,-1.195139,0.781109,-0.978458,2.758166,0.774333,-3.176998,0.999299,0.024245,0.006086,-0.027875
6821,-0.148296,0.483700,9.945813,-1.043134,0.764723,-0.804957,2.720470,0.801488,-3.205459,0.999298,0.023924,0.006326,-0.028127
6822,-0.148145,0.481665,9.937144,-0.995543,0.588642,-0.594341,2.686176,0.825118,-3.227692,0.999298,0.023632,0.006536,-0.028323
6823,-0.147782,0.485137,9.933408,-0.852255,0.643401,-0.506327,2.655126,0.846485,-3.245062,0.999299,0.023367,0.006726,-0.028477
6824,-0.147299,0.471795,9.938026,-0.848747,0.743856,-0.232975,2.626607,0.870149,-3.256306,0.999300,0.023125,0.006937,-0.028578
6825,-0.152351,0.467489,9.952165,-0.774170,0.489975,0.060947,2.599528,0.890821,-3.258233,0.999303,0.022894,0.007124,-0.028598
6826,-0.144826,0.459553,9.944969,-0.473610,0.045783,0.219725,2.578811,0.899530,-3.253157,0.999308,0.022715,0.007206,-0.028554
6827,-0.130977,0.448630,9.925845,-0.319622,-0.363574,0.376294,2.565741,0.893792,-3.243469,0.999314,0.022599,0.007161,-0.028467
6828,-0.131235,0.434937,9.932379,-0.625915,-0.663694,0.549974,2.550209,0.875999,-3.228810,0.999322,0.022459,0.007013,-0.028335
6829,-0.125450,0.445377,9.928242,-0.400241,-1.112279,0.448051,2.533336,0.845691,-3.213503,0.999331,0.022303,0.006755,-0.028195
6830,-0.123870,0.425110,9.921450,-0.897981,-1.053378,0.247167,2.511842,0.809122,-3.203516,0.999340,0.022106,0.006444,-0.028100
6831,-0.128926,0.423696,9.932929,-1.113021,-0.785383,0.188914,2.478408,0.778189,-3.197587,0.999350,0.021807,0.006183,-0.028040
6832,-0.138097,0.419100,9.916265,-0.908170,-0.759334,0.319986,2.444819,0.752103,-3.190217,0.999360,0.021507,0.005965,-0.027969
6833,-0.128033,0.427905,9.916306,-0.753365,-1.087852,0.150239,2.417211,0.721012,-3.183693,0.999368,0.021259,0.005702,-0.027905
6834,-0.125341,0.421516,9.944447,-0.757871,-0.907822,-0.044805,2.392028,0.687706,-3.183334,0.999375,0.021031,0.005418,-0.027895
6835,-0.123554,0.409071,9.940652,-0.195336,-1.032311,0.136020,2.376143,0.655336,-3.183159,0.999380,0.020885,0.005140,-0.027887
6836,-0.123568,0.426415,9.924223,0.518211,-1.434996,0.126874,2.381554,0.614067,-3.180490,0.999382,0.020922,0.004779,-0.027856
6837,-0.107900,0.430314,9.939922,0.835910,-1.811517,-0.114307,2.404102,0.559997,-3.182542,0.999380,0.021106,0.004301,-0.027865
6838,-0.084642,0.438960,9.931046,1.470128,-2.025221,0.041471,2.442499,0.496160,-3.186459,0.999374,0.021425,0.003735,-0.027889
6839,-0.079619,0.443452,9.910279,1.312369,-1.684821,0.021853,2.488861,0.434338,-3.188067,0.999368,0.021815,0.003184,-0.027893
6840,-0.068609,0.475573,9.913417,1.074043,-1.310035,-0.140862,2.528605,0.384558,-3.192234,0.999361,0.022149,0.002739,-0.027921
6841,-0.063967,0.473020,9.935438,0.407774,-0.643629,-0.108245,2.553266,0.352213,-3.197826,0.999356,0.022357,0.002450,-0.027964
6842,-0.061289,0.458545,9.938534,-0.418343,-0.076767,-0.015912,2.553073,0.340310,-3.200428,0.999356,0.022352,0.002346,-0.027984
6843,-0.075898,0.440517,9.929996,-1.191111,0.441978,0.021814,2.526251,0.346387,-3.200059,0.999361,0.022120,0.002405,-0.027982
6844,-0.072537,0.437746,9.923918,-1.150744,0.405888,0.201595,2.487247,0.360341,-3.195720,0.999369,0.021783,0.002537,-0.027946
6845,-0.076366,0.412645,9.923062,-1.539677,0.674169,0.247024,2.442460,0.378004,-3.187476,0.999379,0.021396,0.002704,-0.027876
6846,-0.084660,0.398684,9.913064,-1.832070,0.960135,0.086131,2.386310,0.404984,-3.180780,0.999390,0.020913,0.002954,-0.027821
6847,-0.094161,0.417014,9.913934,-1.505767,1.312463,0.055703,2.330709,0.442732,-3.176859,0.999399,0.020437,0.003298,-0.027792
6848,-0.097154,0.409211,9.921489,-1.378861,1.286922,0.189133,2.282679,0.485856,-3.171035,0.999407,0.020028,0.003686,-0.027748
6849,-0.098619,0.369838,9.920349,-1.882420,1.182903,0.271467,2.228406,0.526685,-3.161744,0.999417,0.019564,0.004057,-0.027672
6850,-0.097108,0.372260,9.929770,-1.687458,0.977356,0.323042,2.169015,0.562283,-3.150463,0.999429,0.019055,0.004384,-0.027577
6851,-0.097649,0.357717,9.948833,-1.795958,0.631193,0.346289,2.111080,0.588656,-3.138314,0.999440,0.018555,0.004630,-0.027473
6852,-0.100013,0.341009,9.929068,-1.714569,0.203016,0.248714,2.052679,0.602190,-3.127900,0.999451,0.018049,0.004763,-0.027382
6853,-0.102685,0.335658,9.919873,-1.561620,0.271063,-0.013134,1.998120,0.609948,-3.123698,0.999460,0.017574,0.004845,-0.027344
6854,-0.109758,0.351592,9.938024,-0.958238,0.588749,-0.080461,1.956111,0.624325,-3.124762,0.999465,0.017211,0.004980,-0.027354
6855,-0.111327,0.333708,9.931169,-0.774823,0.687681,-0.140058,1.927194,0.645711,-3.127713,0.999468,0.016964,0.005173,-0.027381
6856,-0.106922,0.330510,9.910892,-0.158388,0.575781,-0.053269,1.911611,0.666865,-3.130227,0.999468,0.016834,0.005361,-0.027406
6857,-0.112779,0.330392,9.926932,0.258338,0.712595,-0.064876,1.913262,0.688392,-3.131478,0.999467,0.016853,0.005548,-0.027420
6858,-0.127841,0.332514,9.938825,0.648987,0.916744,-0.233814,1.928335,0.715699,-3.135544,0.999462,0.016991,0.005782,-0.027460
6859,-0.137918,0.326257,9.920099,1.047138,0.797631,-0.316029,1.956500,0.744566,-3.143734,0.999454,0.017244,0.006026,-0.027537
6860,-0.137814,0.346669,9.926320,2.274882,0.351007,-0.087387,2.011787,0.763932,-3.149790,0.999443,0.017731,0.006180,-0.027596
6861,-0.131224,0.347720,9.925472,3.679512,-0.082988,0.121723,2.111037,0.768376,-3.149054,0.999427,0.018598,0.006195,-0.027595
6862,-0.118335,0.370359,9.932402,5.788786,-0.526747,0.469092,2.268967,0.757846,-3.139598,0.999403,0.019972,0.006067,-0.027520
6863,-0.095774,0.429842,9.939059,9.465861,-1.216304,1.218296,2.523559,0.727648,-3.112708,0.999365,0.022184,0.005748,-0.027293
6864,-0.084113,0.487264,9.947211,12.236287,-1.763841,1.483470,2.885782,0.675916,-3.070065,0.999303,0.025329,0.005220,-0.026928
6865,-0.075653,0.560675,9.953820,15.122822,-2.134506,1.492938,3.342275,0.608343,-3.024054,0.999208,0.029292,0.004535,-0.026530
6866,-0.071676,0.666330,9.939909,18.784239,-2.432750,1.696923,3.907859,0.529005,-2.975810,0.999067,0.034204,0.003727,-0.026108
6867,-0.068150,0.777510,9.918386,21.093876,-3.013362,1.561819,4.572873,0.434467,-2.928367,0.998867,0.039979,0.002768,-0.025683
6868,-0.063460,0.889826,9.889649,22.456659,-3.422124,0.937191,5.298896,0.324012,-2.896089,0.998605,0.046282,0.001655,-0.025374
6869,-0.038333,1.023078,9.869911,24.013477,-3.569890,0.658792,6.073426,0.205385,-2.881160,0.998276,0.053004,0.000457,-0.025200
6870,-0.033037,1.166673,9.886061,25.325289,-3.060777,0.438293,6.895709,0.093504,-2.875480,0.997874,0.060142,-0.000695,-0.025094
6871,-0.030581,1.292973,9.899909,25.543568,-2.580346,0.155667,7.743471,-0.001012,-2.877682,0.997403,0.067502,-0.001704,-0.025052
6872,-0.017871,1.402154,9.883738,26.806221,-2.425633,0.095228,8.615919,-0.084198,-2.885448,0.996860,0.075075,-0.002624,-0.025051
6873,-0.005868,1.586796,9.876054,29.153811,-1.982095,-0.110206,9.548549,-0.156696,-2.897307,0.996214,0.083169,-0.003466,-0.025080
6875,0.004065,1.781929,9.826012,31.993496,-1.805776,0.115914,10.567627,-0.218874,-2.908283,0.995433,0.092011,-0.004238,-0.025093
6876,0.011931,1.988249,9.749757,33.661537,-1.512567,0.312560,11.661795,-0.274491,-2.911959,0.994508,0.101499,-0.004964,-0.025034
6877,0.035974,2.207421,9.703650,33.752483,-1.335877,0.347392,12.785244,-0.323191,-2.911286,0.993466,0.111233,-0.005630,-0.024931
6878,0.036227,2.460672,9.669806,34.169971,-0.836328,0.015948,13.917182,-0.359803,-2.913768,0.992318,0.121033,-0.006196,-0.024857
6879,0.030080,2.632621,9.593136,32.705147,-0.561886,-0.268217,15.031714,-0.381330,-2.923710,0.991092,0.130673,-0.006635,-0.024857
6880,0.024622,2.813270,9.578034,30.382738,-0.236697,-0.626394,16.083197,-0.390169,-2.941668,0.989847,0.139759,-0.006961,-0.024939
6881,0.037830,2.958109,9.533230,28.749760,-0.508930,-0.566332,17.068808,-0.396430,-2.964294,0.988603,0.148264,-0.007259,-0.025066
6882,0.017217,3.097688,9.460711,28.575531,0.011636,-0.524802,18.024298,-0.398854,-2.984111,0.987329,0.156500,-0.007515,-0.025172
6883,0.022887,3.217873,9.422576,27.341036,0.214362,-0.072389,18.956224,-0.392111,-2.992388,0.986021,0.164526,-0.007674,-0.025191
6884,0.030820,3.370818,9.369583,27.584444,0.274521,0.561418,19.871513,-0.387103,-2.981996,0.984678,0.172398,-0.007816,-0.025047
6885,0.030760,3.504000,9.308177,27.860388,0.603290,1.126337,20.795319,-0.383119,-2.950527,0.983263,0.180333,-0.007934,-0.024719
6886,0.018614,3.653126,9.263384,29.885147,1.621747,1.086013,21.757364,-0.361901,-2.902721,0.981724,0.188590,-0.007881,-0.024277
6887,0.020693,3.804391,9.219206,29.560583,1.780148,0.986293,22.747732,-0.322491,-2.849351,0.980068,0.197080,-0.007661,-0.023820
6888,0.019697,3.936271,9.123322,29.335955,1.428787,1.241750,23.728973,-0.288003,-2.794147,0.978355,0.205476,-0.007472,-0.023344
6889,0.011786,4.052112,9.100616,27.492067,1.289553,1.645479,24.675726,-0.266402,-2.731657,0.976636,0.213561,-0.007364,-0.022789
6890,0.014813,4.183980,9.042642,26.565004,0.702076,2.147953,25.576277,-0.263165,-2.660308,0.974942,0.221234,-0.007377,-0.022129
6891,0.032563,4.271865,8.945031,23.017996,-1.069888,2.858917,26.402245,-0.305223,-2.587940,0.973336,0.228252,-0.007750,-0.021377
6892,0.058312,4.384597,8.867512,21.500551,-2.051338,3.368483,27.143747,-0.398406,-2.518587,0.971854,0.234533,-0.008536,-0.020548
6893,0.071742,4.538004,8.849443,20.065714,-1.906573,3.318164,27.835943,-0.508352,-2.450107,0.970433,0.240383,-0.009447,-0.019685
6894,0.092728,4.646009,8.808481,18.152893,-1.835165,3.148644,28.472254,-0.614179,-2.384500,0.969094,0.245754,-0.010311,-0.018850
6895,0.095849,4.716456,8.754389,16.155624,-1.558834,2.526418,29.043392,-0.709266,-2.328786,0.967866,0.250568,-0.011086,-0.018120
6896,0.108985,4.826422,8.732680,15.747407,-1.225136,2.341231,29.574472,-0.789447,-2.280763,0.966701,0.255041,-0.011739,-0.017485
6897,0.130791,4.928904,8.698614,15.372135,-1.353994,2.206014,30.092474,-0.864435,-2.236412,0.965543,0.259399,-0.012349,-0.016888
6898,0.131435,4.949525,8.666162,14.087469,-0.973964,1.378134,30.582960,-0.928097,-2.204448,0.964428,0.263522,-0.012884,-0.016419
6899,0.125610,4.993254,8.610162,14.905595,-0.615113,0.438971,31.065962,-0.966374,-2.192031,0.963309,0.267579,-0.013246,-0.016171
6900,0.143527,5.092508,8.557595,16.569967,-0.978936,0.005533,31.590666,-0.992941,-2.199547,0.962072,0.271981,-0.013561,-0.016110
6901,0.141143,5.187467,8.512263,16.954950,-0.856630,-0.688434,32.149849,-1.012932,-2.225370,0.960729,0.276666,-0.013869,-0.016212
6902,0.123773,5.266423,8.483205,17.445955,-0.512958,-1.202857,32.723869,-1.015311,-2.264241,0.959326,0.281470,-0.014065,-0.016462
6903,0.133031,5.362693,8.410004,19.547371,-1.002969,-0.994702,33.341194,-1.016535,-2.308749,0.957789,0.286628,-0.014275,-0.016755
6904,0.131537,5.488795,8.338345,21.981453,-1.268399,-0.923499,34.034176,-1.030299,-2.356331,0.956031,0.292406,-0.014613,-0.017030
6905,0.130909,5.617847,8.270309,24.504423,-1.169131,-1.173734,34.809837,-1.044047,-2.408123,0.954022,0.298862,-0.014977,-0.017326
6906,0.132982,5.731833,8.170185,27.665474,-0.942559,-1.627341,35.680351,-1.045849,-2.466582,0.951715,0.306092,-0.015279,-0.017692
6907,0.144681,5.825005,8.045821,29.768559,-1.279366,-1.456449,36.638676,-1.045423,-2.529962,0.949112,0.314032,-0.015597,-0.018090
6908,0.161453,5.958074,7.921216,30.566725,-2.172205,-0.106457,37.645214,-1.075545,-2.585438,0.946308,0.322342,-0.016160,-0.018325
6909,0.195729,6.084424,7.820321,28.145758,-3.205574,1.230048,38.624474,-1.157560,-2.625950,0.943511,0.330394,-0.017108,-0.018283
6910,0.219180,6.188628,7.761337,23.708288,-3.396156,1.367307,39.489399,-1.270247,-2.661537,0.940983,0.337475,-0.018276,-0.018114
6911,0.239158,6.295944,7.724576,19.142481,-3.103736,0.683177,40.204529,-1.375323,-2.704669,0.938849,0.343310,-0.019378,-0.018037
6912,0.234077,6.397643,7.685324,15.695740,-2.075477,-0.357513,40.786419,-1.444520,-2.756610,0.937083,0.348048,-0.020193,-0.018153
6913,0.221599,6.445840,7.637629,12.981427,-0.674525,-1.999027,41.265862,-1.453334,-2.816387,0.935609,0.351953,-0.020524,-0.018529
6914,0.206313,6.505684,7.598892,12.569032,0.811582,-3.725064,41.693424,-1.388456,-2.886441,0.934279,0.355445,-0.020282,-0.019225
6915,0.178729,6.561743,7.534876,13.879496,2.062152,-4.658490,42.135876,-1.259488,-2.958511,0.932889,0.359068,-0.019532,-0.020138
6916,0.147801,6.599990,7.462286,17.118204,2.554962,-4.236643,42.653675,-1.102693,-3.016162,0.931247,0.363309,-0.018532,-0.021016
6917,0.143167,6.661831,7.363005,21.034586,2.068185,-3.147907,43.290211,-0.962389,-3.053664,0.929206,0.368504,-0.017631,-0.021669
6918,0.120721,6.747123,7.270817,24.618637,1.399862,-1.910216,44.051392,-0.862343,-3.074639,0.926732,0.374690,-0.017034,-0.022048
6919,0.129383,6.906429,7.125397,28.837555,0.078808,0.352124,44.942303,-0.826539,-3.075789,0.923789,0.381892,-0.016921,-0.022044
6920,0.153324,7.065941,6.984472,30.448708,-1.151996,2.133065,45.930088,-0.868556,-3.059292,0.920467,0.389833,-0.017391,-0.021622
6921,0.174642,7.206383,6.870174,29.290657,-2.181113,2.455759,46.925457,-0.962226,-3.046674,0.917052,0.397793,-0.018284,-0.021043
6922,0.189728,7.314112,6.771626,25.757181,-2.416519,2.251416,47.842899,-1.071872,-3.049872,0.913839,0.405095,-0.019337,-0.020534
6923,0.216283,7.428087,6.669535,21.614405,-2.193041,1.400179,48.632698,-1.168453,-3.066616,0.911025,0.411357,-0.020306,-0.020186
6924,0.211653,7.448434,6.628794,16.479267,-1.288392,-0.225377,49.268208,-1.221349,-3.097537,0.908725,0.416384,-0.020950,-0.020126
6925,0.194839,7.481821,6.571896,14.161578,-0.722907,-0.817171,49.779655,-1.229920,-3.134388,0.906851,0.420427,-0.021242,-0.020292
6926,0.193377,7.531386,6.472460,13.413918,-0.427689,-0.430969,50.239838,-1.226310,-3.162483,0.905150,0.424061,-0.021399,-0.020442
6927,0.196907,7.603434,6.396198,14.013111,0.059290,-0.961594,50.697357,-1.212304,-3.181993,0.903446,0.427671,-0.021443,-0.020562
6928,0.189471,7.703912,6.355099,15.614583,0.640516,-1.628407,51.191521,-1.171433,-3.200160,0.901589,0.431571,-0.021278,-0.020767
6929,0.182198,7.743743,6.278114,16.209028,0.574154,-1.367309,51.722206,-1.119765,-3.215466,0.899577,0.435752,-0.021027,-0.020985
6930,0.186998,7.755096,6.189485,17.191599,0.314481,-1.254037,52.279163,-1.076216,-3.230683,0.897444,0.440127,-0.020846,-0.021169
6931,0.179884,7.816008,6.114141,18.421560,0.410105,-1.586053,52.873058,-1.031291,-3.249847,0.895145,0.444781,-0.020679,-0.021385
6932,0.175690,7.905966,6.040589,19.071854,0.054588,-0.957542,53.498272,-0.992716,-3.269063,0.892700,0.449664,-0.020571,-0.021573
6933,0.178151,7.958972,5.923020,20.057877,-0.555564,-0.002684,54.150684,-0.984721,-3.285216,0.890122,0.454739,-0.020695,-0.021613
6934,0.179623,8.039253,5.814287,21.649887,-0.897496,0.195816,54.846111,-1.001401,-3.303011,0.887344,0.460125,-0.021026,-0.021558
6935,0.174965,8.088161,5.729737,20.908304,-1.156315,0.385092,55.555775,-1.028892,-3.325579,0.884474,0.465600,-0.021463,-0.021489
6936,0.187122,8.145576,5.617275,19.308924,-0.984642,0.542671,56.226418,-1.061710,-3.346438,0.881732,0.470755,-0.021927,-0.021389
6937,0.180370,8.196263,5.526416,17.392349,-0.017611,-0.596429,56.838348,-1.070165,-3.360863,0.879203,0.475452,-0.022165,-0.021347
6938,0.162759,8.262269,5.493407,14.575085,1.141405,-1.693688,57.371227,-1.027938,-3.365932,0.876980,0.479546,-0.021963,-0.021460
6939,0.156669,8.311494,5.425098,12.700686,1.960575,-1.922642,57.825611,-0.949334,-3.354645,0.875069,0.483042,-0.021400,-0.021618
6940,0.134159,8.389825,5.370039,11.965011,2.703503,-2.686153,58.236309,-0.842994,-3.329399,0.873330,0.486207,-0.020560,-0.021800
6941,0.110240,8.437887,5.317677,12.058284,2.560377,-2.902501,58.636345,-0.717701,-3.303437,0.871623,0.489289,-0.019572,-0.022066
6942,0.097341,8.446807,5.279706,12.364237,1.523427,-2.324129,59.043224,-0.607948,-3.290269,0.869874,0.492409,-0.018761,-0.022368
6943,0.093100,8.456510,5.179348,13.756926,0.869072,-2.416978,59.478630,-0.519670,-3.296352,0.867988,0.495731,-0.018203,-0.022725
6944,0.070563,8.478677,5.131530,14.729527,1.107513,-2.830482,59.953529,-0.427556,-3.311992,0.865914,0.499343,-0.017670,-0.023169
6945,0.080243,8.533484,5.018788,16.262442,0.764774,-2.200568,60.470150,-0.339283,-3.326576,0.863642,0.503260,-0.017173,-0.023587
6946,0.063601,8.578870,4.963069,16.095358,0.359884,-1.606063,61.009502,-0.274772,-3.341196,0.861254,0.507332,-0.016864,-0.023901
6947,0.043332,8.655638,4.843948,16.700499,-0.054227,-0.402066,61.556152,-0.242976,-3.352783,0.858818,0.511441,-0.016791,-0.024049
6948,0.042874,8.763977,4.741983,16.778442,-0.777854,1.224738,62.114151,-0.261601,-3.358485,0.856318,0.515611,-0.017073,-0.023926
6949,0.056837,8.831362,4.601815,17.882875,-1.766776,2.271334,62.691883,-0.332879,-3.369006,0.853714,0.519904,-0.017772,-0.023595
6950,0.061747,8.831105,4.517071,18.033796,-1.605899,2.393773,63.290573,-0.427691,-3.383724,0.850993,0.524333,-0.018666,-0.023177
6951,0.084485,8.828483,4.377345,18.861689,-0.999012,2.347024,63.905510,-0.517756,-3.387477,0.848176,0.528870,-0.019474,-0.022688
6952,0.108636,8.851911,4.298558,19.562908,-0.081262,1.459409,64.545799,-0.582688,-3.376123,0.845217,0.533587,-0.020026,-0.022193
6953,0.109801,8.869743,4.197678,21.153490,0.872910,0.285692,65.224129,-0.603401,-3.351890,0.842050,0.538580,-0.020196,-0.021799
6954,0.098818,8.918461,4.136872,21.332191,1.467737,-0.051364,65.931808,-0.590812,-3.314830,0.838713,0.543780,-0.020062,-0.021462
6955,0.087611,9.027153,3.997597,22.048784,1.112544,-0.786226,66.654465,-0.560720,-3.281094,0.835271,0.549071,-0.019816,-0.021233
6956,0.081425,9.150572,3.921280,21.636179,1.012847,-1.376456,67.382355,-0.513742,-3.262583,0.831765,0.554380,-0.019520,-0.021200
6957,0.093837,9.157414,3.798818,21.309332,0.198601,-0.107999,68.098000,-0.483215,-3.253298,0.828285,0.559572,-0.019386,-0.021160
6958,0.110578,9.165549,3.716800,19.745201,-0.791030,1.081136,68.782242,-0.501941,-3.256445,0.824930,0.564503,-0.019662,-0.020974
6959,0.138181,9.210376,3.558494,19.642214,-1.412647,0.836023,69.438881,-0.544913,-3.279290,0.821683,0.569207,-0.020204,-0.020811
6960,0.152987,9.252408,3.486243,19.310036,-1.376210,2.107783,70.088333,-0.607056,-3.305932,0.818445,0.573836,-0.020899,-0.020575
6961,0.168393,9.313174,3.378049,20.573843,-1.935376,3.877670,70.753258,-0.719515,-3.324447,0.815110,0.578545,-0.021911,-0.020017
6962,0.170114,9.403455,3.267128,20.743799,-1.750052,3.845078,71.442101,-0.861175,-3.340783,0.811629,0.583397,-0.023117,-0.019279
6963,0.184716,9.449738,3.119791,20.800219,-1.380577,3.849217,72.134628,-0.999282,-3.350276,0.808100,0.588255,-0.024255,-0.018497
6964,0.194023,9.470679,3.059057,18.187950,-1.037696,3.808701,72.784409,-1.133102,-3.350246,0.804763,0.592794,-0.025299,-0.017666
6965,0.224155,9.474924,2.983436,15.055664,-0.828215,3.145160,73.338371,-1.253013,-3.346210,0.801898,0.596648,-0.026202,-0.016890
6966,0.249237,9.422093,2.880985,11.687590,-0.574739,2.630839,73.783966,-1.351958,-3.341393,0.799580,0.599736,-0.026932,-0.016236
6967,0.272350,9.437103,2.816298,9.242918,-0.282268,2.262693,74.132599,-1.434283,-3.332574,0.797758,0.602146,-0.027508,-0.015660
6968,0.280010,9.489671,2.772813,7.634440,-0.207309,1.645247,74.413635,-1.499182,-3.322767,0.796284,0.604086,-0.027945,-0.015182
6969,0.292306,9.526625,2.713663,7.818747,-0.448358,1.855545,74.671043,-1.558330,-3.317751,0.794930,0.605858,-0.028363,-0.014771
6970,0.288816,9.522170,2.667939,8.143123,-0.699250,2.329629,74.937080,-1.630661,-3.317923,0.793525,0.607682,-0.028899,-0.014322
6971,0.288705,9.570766,2.626974,8.711523,-1.111488,2.338582,75.218246,-1.713614,-3.327044,0.792035,0.609602,-0.029555,-0.013873
6972,0.292030,9.587483,2.544089,10.881645,-1.707426,1.960510,75.545631,-1.794810,-3.354435,0.790291,0.611832,-0.030301,-0.013543
6973,0.309378,9.581699,2.484046,11.812240,-2.179032,2.203584,75.925331,-1.878042,-3.400153,0.788258,0.614411,-0.031163,-0.013310
6974,0.322974,9.556038,2.420968,11.690703,-2.400252,2.005163,76.318962,-1.964453,-3.457450,0.786140,0.617074,-0.032109,-0.013130
6975,0.341767,9.588538,2.373153,11.750435,-2.366197,1.111251,76.711906,-2.033493,-3.522630,0.784015,0.619727,-0.032978,-0.013092
6976,0.362514,9.598228,2.303013,13.035526,-2.244095,0.402417,77.127480,-2.075459,-3.591834,0.781757,0.622533,-0.033688,-0.013216
6978,0.362183,9.612652,2.235251,14.141418,-2.368261,0.470067,77.583038,-2.106469,-3.663731,0.779269,0.625605,-0.034343,-0.013402
6979,0.360382,9.622496,2.131684,16.488338,-2.661252,0.119335,78.096481,-2.133727,-3.743658,0.776450,0.629057,-0.035026,-0.013639
6980,0.362846,9.670585,1.976168,20.191662,-3.001921,0.147209,78.711235,-2.157050,-3.835302,0.773055,0.633177,-0.035762,-0.013941
6981,0.347363,9.681442,1.787396,24.197460,-3.282137,-0.386355,79.454941,-2.172961,-3.938967,0.768917,0.638143,-0.036536,-0.014315
6982,0.325172,9.699859,1.616319,26.511387,-2.832049,-1.978181,80.304085,-2.152062,-4.046309,0.764152,0.643796,-0.037105,-0.014877
6983,0.314817,9.719384,1.488956,26.121674,-2.041408,-3.563311,81.184746,-2.073946,-4.141485,0.759163,0.649645,-0.037241,-0.015666
6984,0.306393,9.709869,1.364346,24.987413,-1.361931,-4.239004,82.039146,-1.953548,-4.216721,0.754277,0.655304,-0.036995,-0.016572
6985,0.295843,9.671633,1.249285,23.224943,-0.312210,-5.008354,82.844200,-1.804414,-4.264732,0.749631,0.660622,-0.036413,-0.017487
6986,0.281764,9.668321,1.128414,21.226307,0.598785,-4.659851,83.585442,-1.643801,-4.279104,0.745321,0.665505,-0.035565,-0.018279
6987,0.287221,9.730980,1.035339,20.050888,0.910871,-2.573752,84.273003,-1.521213,-4.266839,0.741301,0.670009,-0.034810,-0.018703
6988,0.286257,9.764246,0.916911,20.339787,1.206260,-0.913070,84.945381,-1.460018,-4.237069,0.737353,0.674375,-0.034351,-0.018667
6989,0.299185,9.823558,0.790239,19.943369,1.850465,1.177261,85.615433,-1.460195,-4.185838,0.733406,0.678690,-0.034157,-0.018137
6990,0.312228,9.878774,0.693704,18.587463,2.000919,2.917931,86.255791,-1.523684,-4.116852,0.729621,0.682779,-0.034251,-0.017128
6991,0.337823,9.932398,0.652470,15.237379,2.093944,3.883456,86.817429,-1.632689,-4.041768,0.726290,0.686336,-0.034575,-0.015831
6992,0.352179,9.899560,0.542426,11.925379,1.612302,4.374506,87.268089,-1.766924,-3.972884,0.723610,0.689166,-0.035069,-0.014452
6993,0.350096,9.857814,0.519349,8.010529,0.968842,3.603625,87.598778,-1.897830,-3.923881,0.721638,0.691226,-0.035639,-0.013251
6994,0.339863,9.842494,0.452562,6.361959,0.438444,1.776915,87.837387,-1.986501,-3.896838,0.720209,0.692707,-0.036059,-0.012470
6995,0.332697,9.844884,0.380004,5.221026,0.228930,0.348352,88.029999,-2.021506,-3.884459,0.719048,0.693909,-0.036225,-0.012120
6996,0.308782,9.819489,0.341551,5.524000,0.145004,-2.349017,88.208908,-1.987978,-3.879339,0.717961,0.695044,-0.036003,-0.012235
6997,0.295289,9.822729,0.274781,6.912787,0.935241,-5.415405,88.415710,-1.858099,-3.865180,0.716694,0.696383,-0.035127,-0.012871
6998,0.251156,9.934538,0.206359,6.313866,2.165760,-7.866249,88.634750,-1.635473,-3.819223,0.715343,0.697833,-0.033484,-0.013874
6999,0.221956,9.855359,0.197217,7.947567,2.730192,-9.516965,88.870483,-1.344028,-3.743975,0.713880,0.699407,-0.031239,-0.015117
7000,0.168783,9.820634,0.254054,7.358331,3.412267,-10.826253,89.123604,-1.003239,-3.647527,0.712301,0.701097,-0.028565,-0.016535
7001,0.128852,9.839296,0.167970,8.110619,3.524137,-10.403563,89.379814,-0.647918,-3.536580,0.710696,0.702799,-0.025719,-0.017963
7002,0.076700,9.835769,0.206075,7.266534,3.281994,-9.063558,89.635147,-0.322512,-3.425908,0.709094,0.704474,-0.023065,-0.019221
7003,0.083578,9.771088,0.174056,7.658105,2.002486,-6.524197,89.883614,-0.062350,-3.338922,0.707535,0.706077,-0.020965,-0.020237
7004,0.054149,9.877129,0.139896,4.454074,0.417124,-3.514568,90.085495,0.104946,-3.298587,0.706267,0.707359,-0.019720,-0.020984
7005,0.038103,9.937724,0.026552,4.482578,-1.599314,-0.863451,90.234398,0.177954,-3.318081,0.705330,0.708286,-0.019418,-0.021530
7006,0.036268,9.897598,0.035409,3.181311,-2.955250,1.410725,90.361923,0.169206,-3.394009,0.704529,0.709055,-0.019966,-0.021921
7007,0.027992,9.831092,-0.016884,3.482095,-4.356780,2.428216,90.472687,0.106093,-3.516317,0.703832,0.709703,-0.021132,-0.022262
7008,0.026874,9.790284,-0.058382,3.931888,-4.539284,2.400711,90.596085,0.026988,-3.665322,0.703054,0.710417,-0.022565,-0.022663
7009,0.032202,9.796311,-0.076737,3.534571,-4.115759,1.713973,90.720528,-0.039925,-3.810353,0.702266,0.711137,-0.023900,-0.023112
7010,0.043597,9.755548,-0.061854,4.610675,-3.693341,1.185932,90.856430,-0.086461,-3.941162,0.701406,0.711932,-0.025025,-0.023595
7011,0.028387,9.760798,-0.136372,6.452319,-3.952537,0.156321,91.041023,-0.106704,-4.068954,0.700235,0.713028,-0.025982,-0.024210
7012,0.028168,9.836894,-0.205842,6.164281,-4.319105,-0.178312,91.251541,-0.103566,-4.206796,0.698894,0.714282,-0.026866,-0.025022
7013,0.023509,9.756395,-0.356487,8.057244,-4.411387,-0.197327,91.488815,-0.093836,-4.352118,0.697379,0.715695,-0.027767,-0.025912
7014,0.009611,9.760057,-0.377715,7.210268,-3.457993,-1.687834,91.743454,-0.058712,-4.482335,0.695749,0.717220,-0.028426,-0.026861
7015,-0.005132,9.806645,-0.416170,4.206923,-2.587970,-2.135645,91.933762,0.008223,-4.581033,0.694517,0.718366,-0.028684,-0.027831
7016,0.005968,9.864212,-0.402366,0.535241,-1.166952,-1.666491,92.012756,0.073700,-4.641416,0.693990,0.718845,-0.028685,-0.028588
7017,0.010041,9.854756,-0.367083,-2.040014,0.347596,-0.678505,91.987640,0.113228,-4.653713,0.694134,0.718699,-0.028516,-0.028916
7018,0.000158,9.943550,-0.222144,-5.797082,1.265311,-0.088406,91.857079,0.125096,-4.626428,0.694956,0.717918,-0.028240,-0.028858
7019,0.004627,9.881316,-0.213121,-5.722043,1.208443,1.294133,91.665176,0.103742,-4.585845,0.696173,0.716758,-0.028068,-0.028525
7020,0.015341,9.864565,-0.208068,-5.172711,1.163920,1.660321,91.483643,0.053435,-4.547692,0.697330,0.715651,-0.028091,-0.028023
7021,0.019834,9.837633,-0.193583,-3.875272,1.019441,1.496025,91.332848,-0.000050,-4.512614,0.698293,0.714729,-0.028161,-0.027513
7022,0.013748,9.833520,-0.148737,-3.175593,1.175091,0.524427,91.215332,-0.034531,-4.476799,0.699042,0.714013,-0.028120,-0.027108
7023,0.021167,9.856726,-0.162634,-2.423503,1.120780,0.033735,91.122002,-0.044616,-4.438726,0.699635,0.713450,-0.027922,-0.026836
7024,0.015189,9.867182,-0.148668,-2.440815,0.944906,-0.243929,91.040886,-0.041765,-4.404234,0.700147,0.712964,-0.027671,-0.026663
7025,0.005591,9.872090,-0.135960,-2.398492,1.186939,-0.578534,90.960213,-0.028678,-4.368468,0.700654,0.712482,-0.027350,-0.026545
7026,-0.007551,9.865809,-0.132810,-2.492962,1.384387,-0.920316,90.878677,-0.004390,-4.325216,0.701165,0.711999,-0.026914,-0.026450
7027,-0.012687,9.856977,-0.116735,-2.588795,1.103398,-0.924744,90.793991,0.025752,-4.283307,0.701694,0.711498,-0.026449,-0.026401
7028,-0.023088,9.847000,-0.100151,-2.098389,0.871524,-1.124486,90.715881,0.059471,-4.249944,0.702178,0.711035,-0.026018,-0.026424
7029,-0.019267,9.874993,-0.118704,-1.377926,0.795386,-1.344222,90.657990,0.100280,-4.221669,0.702535,0.710695,-0.025579,-0.026517
7030,-0.019187,9.852478,-0.076113,-1.916140,0.550325,-1.409757,90.603142,0.145929,-4.198734,0.702869,0.710374,-0.025144,-0.026671
7031,-0.019604,9.845795,-0.048269,-2.046299,0.280310,-1.252637,90.537140,0.190163,-4.184450,0.703271,0.709982,-0.024769,-0.026872
7032,-0.024293,9.836869,-0.063878,-1.259947,0.190132,-1.024351,90.482079,0.228044,-4.176274,0.703606,0.709653,-0.024472,-0.027068
7033,-0.025702,9.840181,-0.052222,-1.242773,0.228430,-0.966036,90.440376,0.261159,-4.169029,0.703857,0.709406,-0.024214,-0.027238
7034,-0.022255,9.825293,-0.043690,-1.214644,0.207811,-0.508860,90.399460,0.285686,-4.161579,0.704107,0.709161,-0.024008,-0.027352
7035,-0.023659,9.860733,-0.064765,-0.575971,0.221133,-0.036277,90.369659,0.294724,-4.154370,0.704291,0.708981,-0.023901,-0.027370
7036,-0.029919,9.876405,-0.070097,-0.313607,0.019900,0.076676,90.354851,0.294025,-4.150358,0.704383,0.708891,-0.023876,-0.027344
7037,-0.030212,9.880469,-0.087464,0.280931,-0.170454,0.141891,90.354294,0.290398,-4.152889,0.704387,0.708886,-0.023914,-0.027337
7038,-0.034632,9.891070,-0.090703,0.566521,-0.161631,0.447773,90.368393,0.280606,-4.158486,0.704301,0.708970,-0.024012,-0.027308
7039,-0.037976,9.873259,-0.065175,0.293590,-0.058270,0.664844,90.382706,0.262087,-4.162272,0.704216,0.709053,-0.024153,-0.027214
7040,-0.042038,9.855721,-0.065570,0.469030,-0.114337,0.607608,90.395416,0.240900,-4.165294,0.704141,0.709126,-0.024305,-0.027099
7041,-0.037206,9.856199,-0.077172,0.651432,-0.005008,0.592149,90.414070,0.220918,-4.167424,0.704030,0.709236,-0.024445,-0.026984
7042,-0.039525,9.856349,-0.065887,0.339732,0.223386,0.438435,90.430603,0.203715,-4.163910,0.703933,0.709335,-0.024533,-0.026853
7043,-0.028732,9.847533,-0.091458,0.945703,0.337647,0.446230,90.452065,0.188900,-4.154674,0.703806,0.709465,-0.024572,-0.026700
7044,-0.031957,9.862493,-0.107337,1.146501,0.284084,-0.100594,90.486969,0.183054,-4.144360,0.703593,0.709681,-0.024552,-0.026593
7045,-0.027636,9.862111,-0.090267,0.733929,0.359400,-0.280405,90.518341,0.189309,-4.133581,0.703400,0.709877,-0.024454,-0.026558
7046,-0.018111,9.860473,-0.101056,0.868296,0.477741,0.054164,90.545090,0.192951,-4.119594,0.703237,0.710045,-0.024352,-0.026489
7047,-0.009540,9.860028,-0.104876,0.623613,0.455206,0.398475,90.570007,0.185256,-4.104118,0.703088,0.710199,-0.024309,-0.026342
7048,-0.010349,9.848384,-0.069677,-0.392952,0.365384,0.364145,90.573883,0.172410,-4.090568,0.703069,0.710223,-0.024304,-0.026178
7049,-0.010505,9.848976,-0.067753,-0.610789,0.328280,0.694570,90.557205,0.154653,-4.079181,0.703180,0.710120,-0.024339,-0.026002
7050,-0.017211,9.847342,-0.083657,-0.365754,0.151980,0.766001,90.540947,0.130235,-4.071410,0.703288,0.710016,-0.024437,-0.025806
7051,-0.022757,9.832457,-0.083482,-0.276317,-0.000788,0.585244,90.530243,0.107692,-4.069101,0.703360,0.709947,-0.024559,-0.025655
7052,-0.022787,9.846399,-0.069777,-0.756992,0.083551,0.526213,90.513023,0.089156,-4.067890,0.703471,0.709837,-0.024661,-0.025536
7053,-0.022966,9.851453,-0.079191,-0.389945,0.016357,0.410594,90.493919,0.073528,-4.066362,0.703593,0.709717,-0.024743,-0.025434
7054,-0.020102,9.854750,-0.081557,-0.457072,-0.064236,0.438701,90.479790,0.059381,-4.067280,0.703683,0.709627,-0.024833,-0.025355
7055,-0.013867,9.859664,-0.095193,-0.503464,0.010049,0.667230,90.463783,0.040956,-4.068335,0.703786,0.709524,-0.024949,-0.025251
7056,-0.002450,9.869461,-0.072957,-1.033844,-0.002672,0.836519,90.438164,0.015894,-4.068409,0.703951,0.709361,-0.025098,-0.025102
7057,0.009035,9.852468,-0.071263,-0.782332,-0.067135,1.037446,90.407875,-0.015330,-4.069802,0.704144,0.709168,-0.025292,-0.024924
7058,0.015747,9.849301,-0.076556,-0.847395,-0.146426,1.217543,90.380722,-0.052887,-4.073621,0.704320,0.708992,-0.025540,-0.024721
