seq,ax,ay,az,wroll,wpitch,wyaw,roll,pitch,yaw,q0,q1,q2,q3
6116,-0.153032,-0.664929,9.890185,-0.106283,-0.045034,-0.219256,-3.846276,0.884478,-0.059462,0.999407,-0.033554,0.007732,-0.000260
6117,-0.155090,-0.739439,9.867806,-3.959790,-0.150277,-0.143442,-3.914132,0.880821,-0.065274,0.999387,-0.034145,0.007702,-0.000307
6118,-0.152396,-0.760684,9.868025,-4.202070,-0.101340,-0.319678,-4.050278,0.876100,-0.072683,0.999346,-0.035332,0.007663,-0.000364
6119,-0.162695,-0.746090,9.852620,-2.250746,0.598111,-0.358266,-4.158006,0.883551,-0.084546,0.999312,-0.036271,0.007732,-0.000458
6120,-0.157967,-0.738801,9.867149,-0.618793,0.540176,-0.362357,-4.206040,0.901599,-0.097903,0.999295,-0.036689,0.007894,-0.000565
6121,-0.161272,-0.732356,9.882619,0.306720,0.709194,-0.419784,-4.211473,0.921410,-0.112432,0.999292,-0.036735,0.008071,-0.000685
6122,-0.174093,-0.697985,9.856157,2.003256,0.962655,-0.219569,-4.173180,0.948422,-0.125097,0.999303,-0.036400,0.008311,-0.000790
6123,-0.175377,-0.682248,9.863448,2.831463,0.521733,0.253775,-4.092621,0.973140,-0.126309,0.999326,-0.035697,0.008526,-0.000798
6124,-0.161354,-0.665914,9.864267,3.505176,-0.900437,0.630097,-3.986755,0.967885,-0.111163,0.999359,-0.034775,0.008475,-0.000676
6125,-0.153291,-0.666179,9.887912,2.636051,-1.566224,0.712042,-3.883986,0.928409,-0.086012,0.999393,-0.033880,0.008123,-0.000476
6126,-0.144044,-0.664452,9.876387,1.716141,-1.865992,0.473128,-3.811081,0.872662,-0.062455,0.999418,-0.033247,0.007629,-0.000291
6127,-0.138688,-0.679416,9.885676,0.506462,-1.872231,0.138017,-3.773829,0.811170,-0.048163,0.999433,-0.032923,0.007089,-0.000187
6128,-0.134329,-0.675830,9.870443,0.350185,-1.818459,-0.345419,-3.759545,0.749564,-0.047566,0.999440,-0.032799,0.006551,-0.000200
6129,-0.130962,-0.672880,9.883753,0.215702,-1.165426,-1.051119,-3.750368,0.698415,-0.067536,0.999446,-0.032718,0.006111,-0.000390
6130,-0.120535,-0.680309,9.891431,-0.368542,-0.707161,-2.082390,-3.753515,0.663854,-0.117610,0.999447,-0.032743,0.005824,-0.000836
6131,-0.133479,-0.676567,9.913118,-0.755692,0.707697,-3.427409,-3.773312,0.657833,-0.209247,0.999440,-0.032911,0.005798,-0.001636
6132,-0.125266,-0.674534,9.915192,-1.296837,0.624075,-4.541941,-3.809084,0.671198,-0.343254,0.999427,-0.033216,0.005954,-0.002799
6133,-0.136505,-0.683833,9.931036,-2.973817,1.592370,-5.226768,-3.882229,0.697133,-0.508189,0.999399,-0.033844,0.006230,-0.004226
6134,-0.136687,-0.714092,9.931706,-4.279151,2.029213,-5.041686,-4.005322,0.745563,-0.683088,0.999352,-0.034906,0.006710,-0.005730
6135,-0.157508,-0.726469,9.915934,-4.784938,1.963622,-3.910325,-4.158470,0.801303,-0.836660,0.999292,-0.036229,0.007253,-0.007042
6136,-0.140230,-0.737363,9.891569,-4.618674,1.230244,-2.274199,-4.316736,0.846754,-0.943400,0.999232,-0.037599,0.007694,-0.007948
6137,-0.148352,-0.769144,9.895834,-3.466520,0.878053,-1.115154,-4.452379,0.877453,-1.002423,0.999180,-0.038775,0.007991,-0.008443
6138,-0.141797,-0.787497,9.882861,-2.388196,0.186232,-0.340568,-4.550354,0.893225,-1.028005,0.999144,-0.039626,0.008144,-0.008654
6139,-0.151173,-0.780034,9.860139,-0.289110,0.400813,0.211509,-4.595021,0.902803,-1.030933,0.999128,-0.040015,0.008232,-0.008673
6140,-0.149846,-0.777759,9.865821,1.245285,0.064918,0.401443,-4.578934,0.911356,-1.021367,0.999133,-0.039874,0.008302,-0.008588
6141,-0.167647,-0.785061,9.868889,2.061943,0.484942,0.941304,-4.523469,0.922266,-0.999782,0.999153,-0.039392,0.008386,-0.008400
6142,-0.160613,-0.770806,9.891397,3.278782,-0.353359,1.552702,-4.433790,0.927699,-0.958509,0.999186,-0.038612,0.008413,-0.008045
6143,-0.155600,-0.729492,9.894043,3.754970,-0.794512,2.345889,-4.315499,0.913580,-0.892248,0.999231,-0.037587,0.008260,-0.007480
6144,-0.157650,-0.717330,9.908317,4.215197,-1.192176,2.874725,-4.181262,0.887010,-0.803011,0.999282,-0.036424,0.007991,-0.006720
6145,-0.159435,-0.688821,9.878695,4.232705,-1.318816,2.850422,-4.038975,0.852110,-0.704824,0.999334,-0.035192,0.007648,-0.005885
6146,-0.157439,-0.678822,9.888709,3.923994,-0.808946,2.464069,-3.901704,0.822865,-0.613995,0.999382,-0.034002,0.007359,-0.005110
6147,-0.159053,-0.669695,9.883477,2.399124,-0.071721,2.116800,-3.795215,0.813342,-0.536831,0.999417,-0.033079,0.007249,-0.004447
6148,-0.153737,-0.675335,9.894673,0.399169,0.192798,1.453510,-3.747729,0.819276,-0.477586,0.999432,-0.032668,0.007282,-0.003932
6149,-0.147503,-0.660480,9.888245,-0.017517,0.526639,0.719739,-3.740857,0.833612,-0.442223,0.999434,-0.032610,0.007397,-0.003620
6150,-0.156159,-0.662192,9.900263,-0.555391,1.813091,-0.078633,-3.750283,0.873223,-0.434108,0.999429,-0.032692,0.007740,-0.003537
6151,-0.126406,-0.714991,9.772470,-2.685167,0.132058,-0.335524,-3.804429,0.905118,-0.443133,0.999411,-0.033162,0.008023,-0.003603
6152,-0.096280,-0.735419,9.730648,-3.428723,-3.846743,0.498584,-3.906221,0.843529,-0.436270,0.999386,-0.034052,0.007487,-0.003554
6153,-0.088234,-0.721921,9.758719,-1.648819,-6.046402,1.603685,-3.990227,0.681439,-0.389983,0.999371,-0.034793,0.006061,-0.003194
6154,-0.081186,-0.682817,9.840577,2.089051,-6.462548,2.590162,-3.982031,0.478307,-0.305792,0.999384,-0.034731,0.004264,-0.002522
6155,-0.077441,-0.649640,9.899011,4.665807,-5.732058,3.493336,-3.868674,0.282460,-0.190778,0.999426,-0.033750,0.002520,-0.001581
6156,-0.097227,-0.541986,10.038665,4.732274,-4.392343,3.883089,-3.711548,0.122202,-0.056996,0.999475,-0.032383,0.001082,-0.000463
6157,-0.100033,-0.478439,10.080642,5.683058,-1.879310,2.896656,-3.537790,0.025030,0.062365,0.999523,-0.030868,0.000202,0.000551
6158,-0.099217,-0.474254,10.026902,5.418406,0.635838,1.477030,-3.352732,0.008701,0.136336,0.999571,-0.029254,0.000041,0.001191
6159,-0.083829,-0.505140,9.943866,6.623307,4.340954,0.920587,-3.151994,0.093762,0.171493,0.999620,-0.027504,0.000777,0.001518
6160,-0.041663,-0.507276,9.905473,4.031000,1.377506,0.727794,-2.974354,0.190387,0.193788,0.999660,-0.025956,0.001617,0.001734
6161,-0.005793,-0.534408,9.888112,0.663017,-1.244258,0.311237,-2.896067,0.193495,0.210989,0.999677,-0.025273,0.001641,0.001883
6162,0.009192,-0.548632,9.859737,-0.582286,-1.566178,0.429129,-2.894681,0.147340,0.225693,0.999678,-0.025261,0.001236,0.002001
6163,0.026079,-0.521777,9.859379,1.086863,-2.356208,1.162476,-2.886211,0.083389,0.255487,0.999680,-0.025186,0.000671,0.002247
6164,0.020525,-0.516140,9.882161,1.063956,-1.927569,1.323788,-2.850324,0.014153,0.300438,0.999687,-0.024871,0.000058,0.002624
6166,-0.002791,-0.483842,9.871058,2.581624,-0.123260,1.541629,-2.789564,-0.017636,0.349817,0.999699,-0.024341,-0.000228,0.003048
6167,-0.029161,-0.434638,9.906735,4.574637,0.830564,1.774269,-2.670296,-0.003234,0.404447,0.999722,-0.023300,-0.000110,0.003528
6168,-0.065248,-0.402895,9.951919,4.939165,2.100079,1.440582,-2.511709,0.047976,0.455758,0.999752,-0.021919,0.000331,0.003985
6169,-0.077641,-0.391259,9.969139,3.753021,2.670031,0.731360,-2.366783,0.128940,0.488528,0.999777,-0.020657,0.001037,0.004286
6170,-0.069760,-0.372025,9.934895,3.040987,2.058825,0.211280,-2.253508,0.208319,0.501036,0.999795,-0.019672,0.001732,0.004407
6171,-0.033632,-0.384308,9.926903,0.836031,-0.624592,-0.151900,-2.188888,0.232239,0.501100,0.999806,-0.019109,0.001943,0.004411
6172,-0.017884,-0.406630,9.903502,-1.245631,-1.307855,-0.396028,-2.195744,0.199705,0.493215,0.999806,-0.019168,0.001660,0.004337
6173,0.010084,-0.419180,9.879335,-1.969137,-2.382493,-0.336323,-2.249352,0.137771,0.483408,0.999798,-0.019633,0.001119,0.004241
6174,0.004162,-0.421522,9.893693,-1.966869,-2.082919,-0.343315,-2.314966,0.062955,0.475052,0.999787,-0.020203,0.000466,0.004156
6175,-0.020292,-0.397307,9.911991,-0.246931,-0.273248,-0.489344,-2.351872,0.023153,0.462787,0.999781,-0.020523,0.000119,0.004042
6176,-0.067211,-0.383727,9.901709,1.168121,2.887335,-0.798638,-2.336540,0.065809,0.439556,0.999785,-0.020391,0.000496,0.003847
6177,-0.076711,-0.373952,9.894043,1.775390,3.188306,-1.348054,-2.287565,0.165545,0.399723,0.999794,-0.019966,0.001375,0.003516
6178,-0.079827,-0.364186,9.901194,1.902550,2.491580,-1.915926,-2.226478,0.257994,0.341640,0.999804,-0.019435,0.002193,0.003025
6179,-0.057168,-0.359943,9.896774,1.874273,0.694274,-2.279845,-2.163879,0.308372,0.269731,0.999815,-0.018888,0.002646,0.002404
6180,-0.019902,-0.393268,9.922834,0.125765,-1.476909,-2.852828,-2.130980,0.292130,0.184743,0.999822,-0.018599,0.002519,0.001659
6181,0.029530,-0.437834,9.938898,-2.091184,-3.508317,-3.158418,-2.164145,0.205335,0.087746,0.999820,-0.018886,0.001777,0.000799
6182,0.036509,-0.457365,9.922562,-2.545936,-2.921854,-2.405688,-2.241649,0.094666,-0.000792,0.999808,-0.019561,0.000826,0.000009
6183,0.029325,-0.417338,9.924386,-0.125948,-2.119882,-1.200639,-2.286230,0.008321,-0.057524,0.999801,-0.019950,0.000083,-0.000500
6184,0.015911,-0.407946,9.939666,-0.049008,-1.089419,-0.694669,-2.289132,-0.046379,-0.086965,0.999800,-0.019975,-0.000389,-0.000767
6185,0.037189,-0.379946,9.941312,0.799364,-1.917056,0.171125,-2.276618,-0.096795,-0.093688,0.999802,-0.019867,-0.000828,-0.000834
6186,0.018760,-0.353321,9.937902,1.403896,-0.691905,0.848762,-2.239932,-0.139573,-0.074992,0.999808,-0.019547,-0.001205,-0.000678
6187,-0.017837,-0.333309,9.937312,1.884996,1.441193,0.952635,-2.185182,-0.125934,-0.045478,0.999817,-0.019069,-0.001091,-0.000418
6188,-0.037712,-0.351036,9.936390,0.448825,2.546896,0.601923,-2.146317,-0.058535,-0.022107,0.999824,-0.018729,-0.000507,-0.000202
6189,-0.027275,-0.336913,9.930160,0.920862,1.848692,0.407425,-2.123492,0.015302,-0.008036,0.999828,-0.018530,0.000135,-0.000068
6190,-0.076209,-0.313790,9.891622,2.108199,3.995131,0.402661,-2.072996,0.113127,0.001894,0.999836,-0.018089,0.000987,0.000034
6191,-0.075303,-0.295946,9.894488,2.603040,2.892663,-0.011226,-1.994466,0.228081,0.004341,0.999847,-0.017404,0.001989,0.000073
6192,-0.001033,-0.332364,9.943399,-0.347358,-2.233888,-1.094304,-1.956945,0.238417,-0.014442,0.999852,-0.017076,0.002082,-0.000090
6193,0.036773,-0.394431,9.968451,-3.831523,-3.931764,-1.816632,-2.026731,0.134025,-0.059345,0.999843,-0.017685,0.001179,-0.000497
6194,0.043889,-0.438935,9.958923,-5.104971,-2.964624,-1.730393,-2.175744,0.016988,-0.114190,0.999819,-0.018986,0.000167,-0.000994
6195,0.061559,-0.477577,9.960177,-5.579701,-2.766915,-1.710494,-2.353795,-0.080735,-0.167697,0.999788,-0.020540,-0.000674,-0.001478
6196,0.046726,-0.509431,9.938774,-5.617836,-1.020536,-1.451992,-2.540321,-0.146054,-0.217656,0.999752,-0.022169,-0.001232,-0.001927
6197,0.005736,-0.483168,9.877718,-2.485910,2.172006,-0.695217,-2.675301,-0.128513,-0.254255,0.999724,-0.023347,-0.001069,-0.002244
6198,-0.013560,-0.459843,9.836946,-0.032986,2.984529,-0.305982,-2.717261,-0.043449,-0.274930,0.999716,-0.023711,-0.000322,-0.002408
6199,-0.033016,-0.456497,9.819112,0.576894,2.821547,-0.324837,-2.708201,0.052716,-0.289994,0.999717,-0.023630,0.000520,-0.002519
6200,-0.040215,-0.442411,9.839554,0.991323,1.876536,-0.353634,-2.682088,0.130399,-0.304967,0.999722,-0.023400,0.001200,-0.002634
6201,-0.026233,-0.421663,9.890009,1.830384,0.057903,-0.313052,-2.635090,0.162090,-0.317558,0.999731,-0.022989,0.001478,-0.002738
6202,-0.016182,-0.440763,9.944703,0.373301,-0.940536,-0.450853,-2.598393,0.146815,-0.329596,0.999738,-0.022670,0.001346,-0.002846
6203,-0.021742,-0.428133,9.918182,0.878206,-0.044265,-0.074245,-2.577554,0.130022,-0.337594,0.999742,-0.022488,0.001201,-0.002920
6204,-0.026669,-0.408975,9.925399,1.499197,0.105773,0.233340,-2.537925,0.131165,-0.334993,0.999750,-0.022142,0.001209,-0.002897
6205,-0.024593,-0.421263,9.943541,0.333782,-0.252868,0.266237,-2.507356,0.129083,-0.326567,0.999756,-0.021876,0.001189,-0.002824
6206,-0.035473,-0.416920,9.911520,0.292745,0.733577,0.384936,-2.496890,0.137562,-0.316073,0.999758,-0.021784,0.001260,-0.002731
6207,-0.052717,-0.390442,9.866560,1.572142,1.520372,0.639461,-2.465765,0.175832,-0.300643,0.999764,-0.021512,0.001591,-0.002590
6208,-0.051024,-0.391224,9.900454,0.959965,0.297843,0.498779,-2.423504,0.206916,-0.282980,0.999772,-0.021143,0.001857,-0.002431
6209,-0.049046,-0.419072,9.890071,-0.815232,0.167884,0.130814,-2.421056,0.215115,-0.272822,0.999772,-0.021122,0.001927,-0.002341
6210,-0.051468,-0.449337,9.828401,-1.789905,0.593963,-0.015882,-2.464469,0.227884,-0.271450,0.999764,-0.021500,0.002039,-0.002326
6211,-0.044883,-0.453196,9.824311,-1.544060,-0.506537,0.022298,-2.520035,0.229345,-0.271406,0.999754,-0.021985,0.002053,-0.002324
6212,-0.017119,-0.459521,9.876646,-1.219677,-2.703333,-0.029442,-2.566089,0.175894,-0.269156,0.999745,-0.022388,0.001587,-0.002314
6213,-0.001464,-0.496477,9.891718,-2.580778,-2.834827,-0.530290,-2.629442,0.083263,-0.274300,0.999734,-0.022942,0.000781,-0.002376
6214,0.016145,-0.490588,9.903712,-1.382222,-3.005663,-0.153079,-2.695499,-0.014500,-0.281147,0.999720,-0.023521,-0.000069,-0.002456
6215,0.027611,-0.451048,9.935159,1.028864,-2.989721,0.210492,-2.701392,-0.114269,-0.275497,0.999719,-0.023574,-0.000940,-0.002427
6216,0.032162,-0.456680,9.949715,0.635392,-2.178501,-0.019124,-2.673672,-0.200163,-0.268289,0.999724,-0.023334,-0.001692,-0.002381
6217,0.032367,-0.463365,9.924789,-0.026506,-0.890333,0.039685,-2.663536,-0.251239,-0.265565,0.999725,-0.023247,-0.002138,-0.002368
6218,0.035658,-0.432238,9.889590,1.803948,-0.465676,0.669797,-2.633970,-0.273268,-0.252707,0.999731,-0.022989,-0.002333,-0.002259
6219,0.034957,-0.426770,9.874261,1.701277,-0.427554,0.614570,-2.575657,-0.287167,-0.230650,0.999742,-0.022480,-0.002460,-0.002069
6220,0.037211,-0.420415,9.895134,1.297231,-0.717894,0.567500,-2.525787,-0.305363,-0.210118,0.999752,-0.022045,-0.002624,-0.001892
6221,0.051641,-0.443454,9.906536,-0.556792,-1.239994,0.423247,-2.513548,-0.337236,-0.192185,0.999754,-0.021938,-0.002905,-0.001741
6222,0.060537,-0.451503,9.912862,-1.063425,-1.281367,0.376590,-2.540647,-0.378628,-0.177010,0.999747,-0.022174,-0.003269,-0.001618
6223,0.064407,-0.446707,9.922681,-0.844530,-1.147518,0.277180,-2.572535,-0.418582,-0.164317,0.999740,-0.022453,-0.003620,-0.001516
6224,0.079238,-0.476403,9.946397,-1.684590,-1.281810,0.372969,-2.614784,-0.458539,-0.151660,0.999731,-0.022821,-0.003970,-0.001414
6225,0.091575,-0.481481,9.935184,-0.880280,-1.023219,1.086337,-2.657749,-0.495797,-0.125594,0.999721,-0.023196,-0.004300,-0.001196
6226,0.087142,-0.434350,9.913183,2.458445,-0.379180,1.903094,-2.631893,-0.516850,-0.074744,0.999726,-0.022968,-0.004494,-0.000756
6227,0.077410,-0.429613,9.901427,2.683249,0.278082,1.976745,-2.546777,-0.515622,-0.010073,0.999743,-0.022223,-0.004497,-0.000188
6228,0.092313,-0.423279,9.917951,2.530588,-0.436270,2.122350,-2.460492,-0.515273,0.058293,0.999759,-0.021468,-0.004506,0.000412
6229,0.090669,-0.380096,9.923243,3.637601,-0.442169,1.979696,-2.358319,-0.527024,0.127223,0.999777,-0.020573,-0.004621,0.001015
6230,0.085307,-0.392987,9.908354,1.341053,-0.203328,0.909273,-2.275792,-0.535834,0.175769,0.999791,-0.019851,-0.004706,0.001441
6231,0.087141,-0.423484,9.919424,-1.183214,-0.155384,0.388877,-2.273367,-0.540947,0.197627,0.999791,-0.019829,-0.004754,0.001631
6232,0.099347,-0.389663,9.929568,0.062989,-0.479101,0.265208,-2.292145,-0.551076,0.208942,0.999787,-0.019992,-0.004845,0.001727
6233,0.087931,-0.395472,9.928893,-0.684420,0.735067,-0.635716,-2.302443,-0.547061,0.202599,0.999785,-0.020083,-0.004809,0.001672
6234,0.066314,-0.407020,9.883580,-1.662777,2.074359,-1.097404,-2.341281,-0.501446,0.171840,0.999781,-0.020423,-0.004406,0.001410
6235,0.055407,-0.409481,9.894475,-1.460420,2.390087,-1.088345,-2.393016,-0.428607,0.132368,0.999774,-0.020877,-0.003764,0.001077
6236,0.055919,-0.412088,9.903287,-1.186794,2.075039,-1.452097,-2.436826,-0.356038,0.086930,0.999769,-0.021261,-0.003122,0.000692
6237,0.038836,-0.443995,9.914137,-2.284845,2.069504,-1.675085,-2.494373,-0.289267,0.031887,0.999760,-0.021765,-0.002530,0.000223
6238,0.034172,-0.456516,9.900344,-2.242340,1.082123,-1.273385,-2.569588,-0.238965,-0.019533,0.999746,-0.022422,-0.002081,-0.000217
6239,0.039166,-0.451720,9.906931,-0.962694,0.427833,-1.097750,-2.622842,-0.215617,-0.060156,0.999736,-0.022888,-0.001869,-0.000568
6240,0.034633,-0.458867,9.912528,-0.502202,0.561381,-1.220712,-2.647113,-0.200921,-0.099515,0.999731,-0.023100,-0.001733,-0.000909
6241,0.026309,-0.453972,9.902846,0.240683,0.588842,-0.884821,-2.651351,-0.183392,-0.135455,0.999730,-0.023137,-0.001573,-0.001219
6242,0.034551,-0.442533,9.884893,1.405221,0.237608,-0.405587,-2.623852,-0.170620,-0.157572,0.999736,-0.022897,-0.001457,-0.001409
6243,0.044231,-0.451062,9.887017,1.391687,-0.205173,-0.306660,-2.577201,-0.170616,-0.169454,0.999745,-0.022491,-0.001455,-0.001512
6244,0.044963,-0.453595,9.922826,1.022803,-0.413254,-0.306059,-2.536929,-0.181368,-0.179194,0.999752,-0.022139,-0.001548,-0.001598
6245,0.053576,-0.442441,9.929946,1.230959,-0.869245,-0.068090,-2.499349,-0.202997,-0.184484,0.999759,-0.021812,-0.001736,-0.001648
6246,0.067896,-0.431735,9.923794,1.534810,-1.375008,-0.087835,-2.453248,-0.240477,-0.185464,0.999767,-0.021410,-0.002063,-0.001663
6247,0.064402,-0.428500,9.913239,1.043869,-1.055040,-0.305629,-2.410248,-0.281220,-0.190296,0.999774,-0.021036,-0.002419,-0.001712
6248,0.046308,-0.409600,9.919374,1.287857,0.073323,-0.307291,-2.371339,-0.297995,-0.199820,0.999781,-0.020697,-0.002564,-0.001797
6249,0.049525,-0.389303,9.900345,1.779270,-0.149905,-0.062599,-2.320189,-0.299522,-0.205931,0.999790,-0.020251,-0.002577,-0.001850
6250,0.051020,-0.394041,9.901106,1.009061,-0.350135,-0.127344,-2.273701,-0.307975,-0.208759,0.999798,-0.019845,-0.002651,-0.001875
6251,0.041604,-0.395805,9.907567,0.318847,0.364410,-0.250000,-2.251536,-0.307986,-0.215052,0.999802,-0.019652,-0.002650,-0.001929
6252,0.037404,-0.399523,9.920153,-0.141085,0.551523,-0.291096,-2.248523,-0.293087,-0.224663,0.999802,-0.019626,-0.002519,-0.002010
6253,0.042566,-0.393361,9.921919,-0.013517,0.187043,-0.244045,-2.251053,-0.281137,-0.234059,0.999802,-0.019648,-0.002413,-0.002090
6254,0.054584,-0.395920,9.939375,0.007730,-0.375970,-0.244697,-2.251109,-0.284604,-0.242075,0.999802,-0.019649,-0.002442,-0.002161
6255,0.062748,-0.395426,9.920965,0.335892,-0.665444,-0.124248,-2.245354,-0.302188,-0.247539,0.999802,-0.019599,-0.002594,-0.002211
6256,0.063986,-0.381262,9.912398,1.266787,-0.801281,0.071254,-2.218643,-0.326650,-0.247470,0.999806,-0.019366,-0.002808,-0.002214
6257,0.072796,-0.354480,9.923944,3.096249,-1.007220,0.084844,-2.145948,-0.356670,-0.243723,0.999817,-0.018732,-0.003072,-0.002185
6258,0.072122,-0.341511,9.916189,4.953166,-0.494787,-0.007145,-2.011805,-0.381640,-0.241524,0.999838,-0.017562,-0.003293,-0.002166
6259,0.064032,-0.322681,9.901418,6.938356,0.369674,-0.087394,-1.813603,-0.383778,-0.243038,0.999867,-0.015833,-0.003315,-0.002174
6260,0.062490,-0.269372,9.923437,10.025061,0.746479,0.156359,-1.530885,-0.365151,-0.242444,0.999903,-0.013366,-0.003158,-0.002158
6261,0.051884,-0.231112,9.931711,11.780012,1.229073,0.578842,-1.167540,-0.331942,-0.230973,0.999942,-0.010194,-0.002876,-0.002045
6262,0.040647,-0.177132,9.892219,13.468749,1.683138,1.018899,-0.746872,-0.282958,-0.205167,0.999974,-0.006522,-0.002458,-0.001806
6263,0.028314,-0.095938,9.920485,15.015934,2.066192,1.307543,-0.272303,-0.220118,-0.166959,0.999994,-0.002379,-0.001917,-0.001462
6264,0.021374,0.003737,9.947360,15.295738,1.631266,1.504317,0.232726,-0.158473,-0.120123,0.999996,0.002029,-0.001385,-0.001045
6265,0.001734,0.104552,9.938454,17.350939,2.410183,1.186533,0.776724,-0.091509,-0.074668,0.999977,0.006778,-0.000803,-0.000646
6266,-0.020264,0.211895,9.971304,19.176903,2.908994,0.786000,1.385481,-0.003514,-0.040148,0.999927,0.012090,-0.000035,-0.000350
6267,-0.053070,0.308868,9.981931,21.376499,3.034252,0.616355,2.061373,0.094767,-0.013819,0.999838,0.017988,0.000825,-0.000135
6269,-0.038805,0.490034,9.970320,23.732754,1.261341,-0.298607,2.813183,0.166054,-0.005475,0.999698,0.024547,0.001447,-0.000083
6270,-0.042343,0.646561,9.945308,24.532267,-0.486129,-0.936653,3.617505,0.180050,-0.025198,0.999501,0.031564,0.001564,-0.000269
6271,-0.040564,0.803920,9.941961,25.046127,-2.259115,-1.029291,4.443671,0.136671,-0.060997,0.999247,0.038769,0.001171,-0.000578
6272,-0.018591,0.974577,9.870142,25.563463,-3.071664,-0.962234,5.287053,0.050952,-0.101498,0.998935,0.046122,0.000403,-0.000905
6273,0.003918,1.150769,9.857005,24.837549,-2.865560,-0.808450,6.127020,-0.044569,-0.140654,0.998570,0.053442,-0.000454,-0.001205
6274,-0.000873,1.249042,9.843192,23.487295,-1.511494,0.342807,6.932412,-0.116151,-0.156665,0.998169,0.060458,-0.001094,-0.001303
6275,0.004291,1.343225,9.850176,22.955751,-0.290529,1.298648,7.706373,-0.149348,-0.133421,0.997738,0.067198,-0.001379,-0.001074
6276,0.003400,1.452751,9.820502,22.714514,0.912655,1.880727,8.467371,-0.146473,-0.079561,0.997270,0.073824,-0.001326,-0.000598
6277,-0.012676,1.558160,9.843342,22.315012,1.365778,2.036547,9.217669,-0.118944,-0.009277,0.996766,0.080352,-0.001041,0.000003
6278,-0.015881,1.684537,9.833468,22.511604,1.046207,2.177858,9.964608,-0.090996,0.066652,0.996221,0.086848,-0.000741,0.000648
6279,-0.030262,1.798635,9.795224,23.017839,1.248259,1.919127,10.723293,-0.065635,0.140707,0.995624,0.093442,-0.000456,0.001276
6280,-0.041348,1.939354,9.777223,23.649414,1.427426,1.657162,11.500987,-0.033381,0.207772,0.994966,0.100197,-0.000108,0.001833
6281,-0.041741,2.068590,9.769081,23.475449,0.955865,1.231498,12.286347,-0.004452,0.263055,0.994255,0.107013,0.000207,0.002287
6282,-0.019378,2.203062,9.714465,24.466991,0.287568,0.705467,13.085346,0.008647,0.299119,0.993484,0.113943,0.000372,0.002585
6283,-0.018077,2.349372,9.696554,25.658176,-0.037321,-0.243291,13.920719,0.010862,0.307613,0.992627,0.121182,0.000419,0.002653
6284,-0.020279,2.486380,9.672817,26.375986,-0.696971,-0.636987,14.787904,0.002582,0.290372,0.991682,0.128690,0.000348,0.002510
6285,-0.019527,2.634674,9.589580,26.355396,-1.336187,-1.039223,15.666709,-0.022809,0.254551,0.990666,0.136292,0.000106,0.002228
6286,-0.021774,2.759159,9.521889,25.780682,-1.395352,-1.025678,16.535622,-0.057038,0.208896,0.989605,0.143801,-0.000230,0.001876
6287,-0.037234,2.859367,9.497635,23.549776,-0.985924,-0.702069,17.357796,-0.086609,0.169790,0.988548,0.150898,-0.000524,0.001579
6288,-0.022408,2.954215,9.456109,20.436287,-1.076475,0.168096,18.090899,-0.116620,0.150837,0.987562,0.157219,-0.000798,0.001460
6289,-0.008381,3.070415,9.441512,17.662191,-0.897708,0.687775,18.725842,-0.152304,0.154007,0.986676,0.162689,-0.001093,0.001542
6290,-0.005950,3.160142,9.434237,16.280958,-0.642561,1.008420,19.291487,-0.185756,0.172381,0.985860,0.167558,-0.001346,0.001755
6291,0.001552,3.260293,9.439442,15.938073,-0.594793,0.958356,19.828377,-0.216145,0.196362,0.985063,0.172176,-0.001563,0.002013
6292,0.008247,3.381219,9.438559,16.953751,-0.377368,0.848545,20.376469,-0.241711,0.219071,0.984227,0.176886,-0.001738,0.002255
6293,0.000015,3.473397,9.394211,18.687838,-0.045542,0.585716,20.970396,-0.256747,0.238936,0.983297,0.181985,-0.001824,0.002458
6294,0.002067,3.569421,9.322204,21.115572,0.025744,0.668204,21.633675,-0.264654,0.258267,0.982226,0.187674,-0.001846,0.002647
6295,0.006385,3.670292,9.271797,22.873171,0.228841,0.846453,22.366674,-0.270174,0.283258,0.981005,0.193954,-0.001834,0.002882
6296,0.009374,3.799634,9.202020,23.357178,0.296135,1.090142,23.136993,-0.274578,0.316399,0.979678,0.200544,-0.001794,0.003186
6297,0.012830,3.923212,9.138892,23.155474,0.135466,1.415681,23.911964,-0.284639,0.357563,0.978298,0.207166,-0.001784,0.003567
6298,0.026929,4.030014,9.094434,22.510904,0.185256,1.504420,24.672798,-0.299774,0.404135,0.976899,0.213658,-0.001802,0.004004
6299,0.019550,4.144220,9.052582,21.185291,0.437073,1.410949,25.400772,-0.310931,0.452547,0.975519,0.219861,-0.001779,0.004449
6300,0.013241,4.261170,9.034240,20.258627,0.423983,1.308463,26.091217,-0.317687,0.499590,0.974175,0.225735,-0.001717,0.004873
6301,0.015405,4.368819,8.993780,21.329729,0.170637,1.307085,26.784086,-0.328222,0.543034,0.972790,0.231622,-0.001689,0.005273
6302,0.032469,4.483493,8.935138,21.928219,-0.636347,0.731839,27.504866,-0.350641,0.569741,0.971312,0.237738,-0.001790,0.005557
6303,0.040262,4.613905,8.872193,22.737915,-1.399604,-0.054604,28.249308,-0.385960,0.563875,0.969746,0.244044,-0.002065,0.005594
6304,0.046789,4.723288,8.800960,23.015680,-1.660088,-0.763106,29.012085,-0.424244,0.527493,0.968100,0.250494,-0.002431,0.005384
6305,0.046533,4.820495,8.704327,22.166660,-1.605987,-1.489975,29.765537,-0.453284,0.468055,0.966434,0.256854,-0.002774,0.004963
6306,0.049813,4.929359,8.651473,19.517424,-1.336220,-2.038626,30.460846,-0.466233,0.392560,0.964860,0.262711,-0.003026,0.004374
6307,0.038618,4.998460,8.576758,17.290617,-0.385459,-1.980626,31.074863,-0.456652,0.320299,0.963441,0.267875,-0.003091,0.003760
6308,0.016806,5.074331,8.551242,14.477279,0.618413,-1.772091,31.604704,-0.420794,0.268862,0.962195,0.272325,-0.002894,0.003258
6309,0.020045,5.158482,8.543272,12.854771,0.926154,-1.279396,32.060432,-0.372083,0.239196,0.961107,0.276149,-0.002544,0.002903
6310,0.035333,5.246010,8.535995,9.379077,1.683844,-1.162016,32.431057,-0.313567,0.227985,0.960211,0.279255,-0.002072,0.002675
6311,0.028893,5.299733,8.479598,13.083805,1.018844,-0.622408,32.805435,-0.259585,0.227186,0.959295,0.282390,-0.001613,0.002542
6312,0.017704,5.371608,8.452838,13.911835,0.823854,-0.514234,33.255352,-0.223509,0.228082,0.958180,0.286154,-0.001299,0.002465
6313,0.028619,5.453125,8.395968,15.680636,0.231165,0.016347,33.748539,-0.204267,0.230877,0.956940,0.290275,-0.001121,0.002445
6314,0.023516,5.500331,8.302135,17.570507,0.087100,-0.089721,34.302700,-0.199183,0.232862,0.955525,0.294899,-0.001062,0.002454
6315,0.010349,5.553930,8.212720,18.405457,0.176765,-0.443305,34.902302,-0.190526,0.228051,0.953969,0.299895,-0.000989,0.002397
6316,0.001791,5.639381,8.155729,18.439037,0.037566,-0.342898,35.516388,-0.180063,0.219393,0.952348,0.305002,-0.000913,0.002303
6317,0.010638,5.751101,8.113333,17.728134,-0.188441,-0.037034,36.119175,-0.178396,0.212794,0.950731,0.310008,-0.000904,0.002248
6318,0.006636,5.839122,8.062203,16.452024,-0.211662,-0.041358,36.688843,-0.182983,0.207801,0.949178,0.314730,-0.000945,0.002224
6319,0.012790,5.938219,8.036417,15.289574,-0.443782,-0.049686,37.217884,-0.190802,0.200023,0.947715,0.319109,-0.001021,0.002186
6320,0.020087,5.990551,7.993408,14.003454,-0.553561,0.121915,37.706116,-0.204734,0.190876,0.946347,0.323144,-0.001153,0.002154
6321,0.030674,6.046791,7.951172,10.104301,-0.653121,0.863576,38.107910,-0.230691,0.191487,0.945207,0.326460,-0.001357,0.002237
6322,0.046817,6.117275,7.883097,11.512703,-1.309386,1.647771,38.468136,-0.282283,0.204096,0.944175,0.329431,-0.001739,0.002493
6323,0.050492,6.163479,7.805452,14.266432,-0.988440,1.013847,38.897717,-0.339899,0.214810,0.942931,0.332969,-0.002173,0.002755
6324,0.041911,6.228481,7.753570,14.545570,-0.557889,0.523771,39.377888,-0.376075,0.218388,0.941527,0.336917,-0.002448,0.002900
6325,0.045587,6.315895,7.711136,15.380728,-0.503219,0.392308,39.876648,-0.399437,0.218845,0.940051,0.341012,-0.002626,0.002984
6326,0.044305,6.405718,7.643784,16.912622,-0.488880,-0.340057,40.414936,-0.412640,0.208844,0.938438,0.345424,-0.002750,0.002954
6327,0.031854,6.463728,7.601367,18.200748,-0.377095,-0.942119,41.000324,-0.409663,0.183211,0.936662,0.350213,-0.002789,0.002750
6328,0.036226,6.536024,7.541749,19.759941,-0.548675,-0.784790,41.633205,-0.402264,0.151387,0.934714,0.355380,-0.002812,0.002482
6329,0.051650,6.592042,7.419950,20.244190,-0.913304,-0.848484,42.300182,-0.402174,0.114865,0.932631,0.360813,-0.002912,0.002201
6330,0.056658,6.694616,7.361358,19.892124,-1.034408,-1.111434,42.969418,-0.403944,0.068859,0.930509,0.366253,-0.003060,0.001850
6331,0.065775,6.783786,7.305282,19.806658,-1.230149,-0.790518,43.631386,-0.409686,0.019900,0.928378,0.371620,-0.003255,0.001490
6332,0.064872,6.852047,7.198462,18.687561,-1.343498,-0.925450,44.273296,-0.420712,-0.030442,0.926282,0.376813,-0.003501,0.001137
6333,0.066774,6.940281,7.127917,16.873592,-1.496029,-1.425710,44.866417,-0.426939,-0.091569,0.924320,0.381601,-0.003749,0.000683
6334,0.063137,7.029408,7.118003,16.519417,-1.932346,-1.199920,45.423481,-0.436246,-0.162949,0.922453,0.386087,-0.004061,0.000158
6335,0.056292,7.090770,7.005910,18.872641,-2.641932,-0.602989,46.013943,-0.467969,-0.238490,0.920451,0.390831,-0.004572,-0.000320
6336,0.073210,7.124886,6.893709,20.655424,-3.412275,-0.668837,46.673473,-0.522279,-0.326092,0.918184,0.396117,-0.005312,-0.000807
6337,0.082239,7.180399,6.800956,22.097166,-3.885479,-1.070064,47.387047,-0.583992,-0.434828,0.915697,0.401818,-0.006191,-0.001427
6338,0.075996,7.275466,6.697471,23.235176,-4.095424,-1.353408,48.143902,-0.643512,-0.560468,0.913020,0.407847,-0.007122,-0.002175
6339,0.099597,7.393989,6.587844,23.598944,-4.335805,-1.279866,48.926010,-0.703677,-0.694840,0.910210,0.414056,-0.008100,-0.002976
6340,0.119259,7.464980,6.516216,23.924221,-4.637093,-1.841818,49.719902,-0.761694,-0.842161,0.907314,0.420337,-0.009120,-0.003874
6341,0.104700,7.513787,6.360029,23.835625,-4.029869,-3.053722,50.518070,-0.791731,-1.005345,0.904357,0.426630,-0.009992,-0.004986
6342,0.112153,7.631640,6.265656,20.945227,-3.148604,-3.145320,51.266537,-0.787046,-1.163434,0.901544,0.432514,-0.010584,-0.006182
6343,0.134382,7.705606,6.213108,16.821049,-3.009019,-1.711075,51.897739,-0.787400,-1.294179,0.899140,0.437461,-0.011120,-0.007148
6344,0.132069,7.761231,6.151118,12.918394,-2.843543,-0.821428,52.394821,-0.813923,-1.397057,0.897227,0.441344,-0.011755,-0.007803
6345,0.142377,7.852046,6.111087,4.769811,-1.856233,-0.282221,52.690689,-0.846964,-1.470400,0.896079,0.443647,-0.012317,-0.008219
6346,0.170189,7.946147,6.178492,0.225121,-1.328609,0.674353,52.774525,-0.884327,-1.508673,0.895752,0.444293,-0.012763,-0.008364
6347,0.185188,7.925272,6.181343,-2.178761,-1.233995,0.920371,52.742245,-0.931339,-1.526577,0.895875,0.444033,-0.013198,-0.008325
6348,0.178574,7.891346,6.174313,-8.748119,-1.134460,0.849116,52.560352,-0.978735,-1.540059,0.896577,0.442602,-0.013608,-0.008268
6349,0.181167,7.862578,6.180814,-5.175487,-0.365747,0.077791,52.328476,-1.006229,-1.550442,0.897469,0.440782,-0.013846,-0.008271
6350,0.180389,7.824735,6.163295,-4.819460,-0.257246,0.082136,52.162006,-1.014693,-1.557009,0.898108,0.439476,-0.013926,-0.008310
6351,0.167911,7.793412,6.195557,-5.506411,-0.268287,-0.116608,51.990040,-1.019624,-1.564273,0.898766,0.438126,-0.013980,-0.008369
6352,0.157946,7.779650,6.219026,-5.322920,-0.305807,-0.058190,51.809723,-1.023235,-1.573599,0.899454,0.436709,-0.014030,-0.008451
6353,0.162273,7.765336,6.224079,-7.058392,0.073924,-0.477747,51.603519,-1.018619,-1.582170,0.900238,0.435090,-0.014011,-0.008561
6354,0.162672,7.730302,6.239471,-6.574323,0.158398,-1.045931,51.376530,-0.996338,-1.594946,0.901097,0.433307,-0.013867,-0.008774
6355,0.163685,7.727177,6.272876,-6.340767,0.050753,-1.026566,51.161602,-0.967207,-1.613832,0.901907,0.431618,-0.013693,-0.009058
6356,0.165396,7.701590,6.270678,-4.290936,-0.092780,-0.513628,50.984692,-0.947676,-1.630509,0.902571,0.430226,-0.013588,-0.009284
6357,0.163630,7.703160,6.283897,-3.814190,-0.052284,-0.345113,50.849785,-0.938091,-1.641414,0.903076,0.429163,-0.013542,-0.009422
6358,0.169323,7.707345,6.301102,-3.530832,-0.193751,-0.089243,50.727486,-0.935075,-1.649169,0.903533,0.428199,-0.013537,-0.009508
6359,0.163637,7.690385,6.304773,-2.473407,-0.091665,0.022088,50.627495,-0.937224,-1.653561,0.903906,0.427409,-0.013562,-0.009547
6360,0.157339,7.671283,6.303017,-1.483293,0.082921,-0.156373,50.561577,-0.935588,-1.655095,0.904152,0.426889,-0.013549,-0.009573
6361,0.153157,7.668711,6.296078,-0.744179,0.168931,-0.511018,50.524513,-0.924332,-1.658922,0.904290,0.426598,-0.013472,-0.009649
6362,0.154424,7.657607,6.302394,-0.322879,0.181136,-0.525272,50.506824,-0.907291,-1.665401,0.904355,0.426460,-0.013360,-0.009766
6363,0.157509,7.649127,6.313194,-0.661603,-0.081501,-0.169403,50.490520,-0.897301,-1.671485,0.904415,0.426332,-0.013302,-0.009853
6364,0.159852,7.661105,6.322126,-0.915313,-0.249606,-0.049716,50.464333,-0.897996,-1.678067,0.904512,0.426125,-0.013330,-0.009906
6365,0.165203,7.659262,6.327048,-0.999245,-0.316759,-0.036906,50.432556,-0.902894,-1.686266,0.904629,0.425872,-0.013396,-0.009956
6366,0.171471,7.665433,6.326906,-0.857887,-0.593582,0.383343,50.401730,-0.917011,-1.694281,0.904743,0.425626,-0.013535,-0.009970
6367,0.170921,7.658233,6.330647,-1.062597,-0.771682,0.499190,50.369850,-0.942851,-1.702434,0.904861,0.425369,-0.013766,-0.009942
6368,0.167001,7.648721,6.329153,-0.965591,-0.485027,0.064784,50.336216,-0.963453,-1.712566,0.904984,0.425099,-0.013964,-0.009950
6369,0.170543,7.666789,6.340382,-0.295917,-0.390357,-0.054190,50.315372,-0.972902,-1.723683,0.905060,0.424932,-0.014078,-0.010005
6370,0.167885,7.659003,6.332639,0.103281,-0.316495,-0.173446,50.312366,-0.977506,-1.735174,0.905071,0.424906,-0.014157,-0.010079
6372,0.159230,7.652032,6.358407,-1.255859,0.080629,-0.387338,50.293312,-0.972825,-1.744170,0.905141,0.424755,-0.014151,-0.010170
6373,0.170734,7.649710,6.361031,-1.829330,-0.151925,0.079868,50.241962,-0.969645,-1.748360,0.905330,0.424349,-0.014137,-0.010221
6374,0.180165,7.644650,6.377481,-2.503795,-0.374283,0.546968,50.169743,-0.983285,-1.748414,0.905598,0.423777,-0.014239,-0.010180
6375,0.182894,7.621366,6.385779,-3.166669,-0.505779,0.956444,50.075153,-1.011919,-1.743606,0.905947,0.423025,-0.014439,-0.010048
6376,0.188485,7.612767,6.406024,-3.490636,-0.559198,1.253963,49.964012,-1.051554,-1.733536,0.906357,0.422142,-0.014705,-0.009836
6377,0.203211,7.605483,6.389077,-1.808069,-0.805824,1.452392,49.875484,-1.100715,-1.721901,0.906683,0.421435,-0.015044,-0.009575
6378,0.194672,7.595395,6.401237,-1.252088,-0.206251,0.729160,49.824276,-1.139384,-1.711355,0.906871,0.421025,-0.015307,-0.009356
6379,0.197523,7.593786,6.413223,-1.187724,-0.071621,0.532943,49.783417,-1.158441,-1.701313,0.907022,0.420700,-0.015418,-0.009212
6380,0.196046,7.578229,6.406002,-0.962910,0.124862,0.153254,49.747410,-1.166599,-1.693246,0.907154,0.420415,-0.015450,-0.009123
6381,0.189304,7.576845,6.409498,-1.103441,0.409784,-0.415756,49.712883,-1.157501,-1.689274,0.907282,0.420144,-0.015360,-0.009129
6382,0.181020,7.571609,6.432737,-1.853442,0.608798,-0.898450,49.663628,-1.129815,-1.690498,0.907463,0.419758,-0.015142,-0.009247
6383,0.183997,7.591499,6.439734,-1.081705,0.301946,-0.714038,49.614819,-1.099507,-1.696336,0.907642,0.419375,-0.014919,-0.009411
6384,0.174505,7.601329,6.457012,-0.600223,0.298170,-0.823836,49.586960,-1.073504,-1.705332,0.907743,0.419157,-0.014744,-0.009581
6385,0.175864,7.598908,6.456560,-0.317608,-0.032847,-0.328376,49.571827,-1.056017,-1.714417,0.907798,0.419039,-0.014637,-0.009719
6386,0.183905,7.591139,6.472269,-0.858526,-0.456655,0.247811,49.552361,-1.060286,-1.721500,0.907869,0.418883,-0.014695,-0.009762
6387,0.192902,7.585123,6.469313,-0.565208,-0.821899,0.704549,49.528751,-1.086192,-1.727415,0.907954,0.418691,-0.014920,-0.009717
6388,0.192750,7.581898,6.457750,-0.041927,-0.793527,0.720669,49.518723,-1.121737,-1.732479,0.907990,0.418606,-0.015219,-0.009629
6389,0.192665,7.563848,6.456345,-0.585999,-0.583015,0.429379,49.508354,-1.151211,-1.737485,0.908026,0.418518,-0.015470,-0.009562
6390,0.205454,7.568790,6.462590,-0.305539,-0.600333,0.332267,49.493637,-1.173673,-1.744239,0.908079,0.418397,-0.015672,-0.009535
6391,0.212176,7.571977,6.467284,-0.043223,-0.631586,0.366655,49.487984,-1.195866,-1.752284,0.908098,0.418348,-0.015876,-0.009519
6392,0.210807,7.577986,6.464835,0.051939,-0.394498,0.070531,49.488304,-1.212514,-1.760555,0.908096,0.418347,-0.016039,-0.009523
6393,0.221463,7.582356,6.478394,-0.295651,-0.748639,0.463832,49.484428,-1.231662,-1.769256,0.908109,0.418312,-0.016222,-0.009523
6394,0.223936,7.572598,6.457253,0.467292,-1.053238,0.878554,49.487473,-1.268181,-1.777555,0.908096,0.418329,-0.016542,-0.009455
6395,0.217922,7.567928,6.454865,0.216206,-0.966589,0.699569,49.499054,-1.310045,-1.786070,0.908052,0.418412,-0.016905,-0.009368
6396,0.222720,7.574317,6.456744,-0.116070,-0.848137,0.599859,49.500923,-1.346156,-1.795006,0.908043,0.418420,-0.017224,-0.009306
6397,0.230987,7.569449,6.470522,-0.838052,-0.958357,0.822916,49.485199,-1.383742,-1.802497,0.908098,0.418288,-0.017548,-0.009231
6398,0.235297,7.541965,6.455843,-1.059671,-0.893087,0.791576,49.453720,-1.424247,-1.808464,0.908211,0.418030,-0.017888,-0.009135
6399,0.250783,7.542595,6.470703,-1.420838,-0.810771,0.859338,49.412472,-1.463617,-1.812142,0.908359,0.417696,-0.018210,-0.009027
6400,0.258561,7.549860,6.489987,-1.693359,-0.492759,0.716550,49.360558,-1.497698,-1.811537,0.908547,0.417279,-0.018474,-0.008906
6401,0.264713,7.550883,6.486241,-1.208452,-0.457155,0.824698,49.312069,-1.527501,-1.806804,0.908723,0.416890,-0.018690,-0.008768
6402,0.275197,7.558569,6.491715,-0.871471,-0.528635,0.968779,49.277214,-1.560876,-1.799763,0.908848,0.416609,-0.018926,-0.008596
6403,0.282842,7.544569,6.516228,-1.866340,-0.497871,0.864817,49.231388,-1.595195,-1.792777,0.909013,0.416241,-0.019169,-0.008424
6404,0.286070,7.530878,6.496436,-1.266659,-0.621518,0.754897,49.179081,-1.627821,-1.789260,0.909202,0.415820,-0.019412,-0.008286
6405,0.295258,7.529800,6.483470,-0.507739,-0.824258,0.816479,49.149536,-1.663391,-1.790367,0.909307,0.415580,-0.019696,-0.008171
6406,0.306274,7.531404,6.499814,-0.259580,-0.889387,0.953032,49.136818,-1.704381,-1.792680,0.909350,0.415471,-0.020028,-0.008042
6407,0.298742,7.509636,6.503222,-0.212222,-0.607893,0.697882,49.128979,-1.741517,-1.793549,0.909376,0.415402,-0.020326,-0.007916
6408,0.294909,7.527825,6.501785,0.625639,-0.400686,0.491838,49.135864,-1.767511,-1.793287,0.909350,0.415452,-0.020531,-0.007818
6409,0.293101,7.545423,6.510387,0.986293,0.084666,0.007439,49.162678,-1.777250,-1.791829,0.909252,0.415663,-0.020605,-0.007767
6410,0.300115,7.552173,6.507727,1.245558,-0.020887,0.331856,49.199738,-1.780835,-1.787328,0.909118,0.415957,-0.020620,-0.007711
6411,0.301524,7.524184,6.512397,-0.078598,-0.174013,0.351032,49.219028,-1.791574,-1.782348,0.909047,0.416109,-0.020688,-0.007629
6412,0.311246,7.541642,6.502531,0.003903,-0.248242,0.231967,49.217754,-1.803527,-1.781329,0.909051,0.416097,-0.020779,-0.007578
6413,0.314904,7.539484,6.483201,0.589767,-0.072223,-0.033598,49.227711,-1.809520,-1.783215,0.909014,0.416175,-0.020834,-0.007569
6414,0.317573,7.535129,6.502419,-0.492219,-0.047036,-0.049858,49.229412,-1.809764,-1.785630,0.909008,0.416188,-0.020845,-0.007587
6415,0.301350,7.525131,6.515283,-1.135386,0.590375,-0.931368,49.202408,-1.791466,-1.789458,0.909107,0.415976,-0.020712,-0.007689
6416,0.301469,7.553278,6.495578,0.454958,0.655824,-0.923594,49.191200,-1.754492,-1.793939,0.909150,0.415893,-0.020434,-0.007861
6417,0.295470,7.530338,6.493474,0.328960,0.600535,-0.728605,49.204330,-1.719964,-1.796079,0.909104,0.416003,-0.020169,-0.008001
6418,0.296968,7.522998,6.488096,0.093134,0.325786,-0.542029,49.211433,-1.693845,-1.798227,0.909080,0.416064,-0.019970,-0.008112
6419,0.294014,7.535925,6.497652,0.140742,0.248331,-0.459140,49.215431,-1.674960,-1.801884,0.909066,0.416098,-0.019834,-0.008209
6420,0.303101,7.535357,6.491312,0.425681,-0.412276,0.403834,49.224960,-1.676047,-1.804557,0.909031,0.416173,-0.019853,-0.008224
6421,0.299595,7.519353,6.475379,0.426183,-0.594685,0.332377,49.239285,-1.696299,-1.809256,0.908978,0.416282,-0.020032,-0.008185
6422,0.308783,7.518510,6.513385,-1.369151,-0.695012,0.296421,49.223854,-1.718273,-1.818696,0.909032,0.416154,-0.020239,-0.008183
6423,0.312386,7.525685,6.531268,-1.382510,-0.673443,0.701647,49.178188,-1.745769,-1.825093,0.909195,0.415786,-0.020477,-0.008142
6424,0.298102,7.527503,6.513773,-0.353379,-0.407811,0.387154,49.149311,-1.771283,-1.826862,0.909298,0.415552,-0.020684,-0.008069
6425,0.296337,7.539243,6.499615,0.438004,-0.220546,-0.118425,49.150875,-1.781521,-1.831858,0.909292,0.415562,-0.020783,-0.008071
6426,0.291323,7.521512,6.524509,-0.989371,0.369009,-0.606899,49.141876,-1.770759,-1.837898,0.909325,0.415491,-0.020719,-0.008159
6427,0.284486,7.542130,6.495537,0.810237,0.617694,-0.829019,49.138992,-1.741901,-1.841119,0.909337,0.415473,-0.020502,-0.008290
6428,0.286264,7.548762,6.490252,1.032031,0.298757,-0.855166,49.169903,-1.710677,-1.847922,0.909226,0.415723,-0.020281,-0.008452
6429,0.306185,7.525781,6.494764,0.030268,-0.165218,-0.263756,49.187920,-1.695110,-1.858432,0.909161,0.415867,-0.020197,-0.008589
6430,0.311766,7.497477,6.492883,-0.723308,-0.263990,0.010106,49.176605,-1.696587,-1.866613,0.909201,0.415775,-0.020238,-0.008650
6431,0.311976,7.518939,6.516093,-0.966212,-0.564079,0.233260,49.148678,-1.708681,-1.874406,0.909301,0.415550,-0.020360,-0.008673
6432,0.307936,7.511099,6.504349,-0.430286,-0.578004,0.261259,49.125679,-1.727368,-1.883414,0.909383,0.415362,-0.020539,-0.008681
6433,0.298408,7.503144,6.507931,-0.466421,-0.164623,-0.020830,49.110939,-1.738498,-1.890153,0.909435,0.415242,-0.020650,-0.008697
6434,0.295243,7.527495,6.486849,1.271760,-0.053686,-0.155358,49.124500,-1.738660,-1.894827,0.909386,0.415349,-0.020670,-0.008731
6435,0.298579,7.545141,6.521813,0.479192,-0.024711,0.024853,49.153751,-1.737869,-1.897240,0.909279,0.415581,-0.020674,-0.008748
6436,0.307605,7.525527,6.487800,1.352871,-0.342750,0.586393,49.184231,-1.749581,-1.895212,0.909168,0.415821,-0.020762,-0.008683
6437,0.309929,7.524682,6.493870,0.786673,-0.428824,0.698671,49.219757,-1.774197,-1.890950,0.909038,0.416099,-0.020945,-0.008554
6438,0.309701,7.537040,6.497693,0.466427,-0.303980,0.490057,49.240524,-1.797177,-1.887258,0.908961,0.416260,-0.021115,-0.008437
6439,0.313557,7.536353,6.505477,-0.212664,-0.267838,0.517029,49.244640,-1.816113,-1.883518,0.908946,0.416290,-0.021252,-0.008338
6440,0.315407,7.528618,6.492515,-0.020297,-0.318821,0.468104,49.240658,-1.834933,-1.880202,0.908959,0.416255,-0.021389,-0.008244
6441,0.315657,7.542604,6.494776,0.076797,-0.068379,0.045619,49.241566,-1.845632,-1.879500,0.908955,0.416260,-0.021471,-0.008199
6442,0.325016,7.557168,6.488043,0.504373,-0.233134,0.291465,49.251263,-1.853169,-1.879640,0.908919,0.416336,-0.021532,-0.008171
6443,0.327931,7.539635,6.485847,0.231163,-0.260087,0.346285,49.263500,-1.866587,-1.878930,0.908874,0.416431,-0.021637,-0.008114
6444,0.322949,7.527610,6.494220,-0.591836,0.003606,-0.076434,49.257507,-1.872784,-1.879234,0.908895,0.416382,-0.021687,-0.008095
6445,0.318209,7.534718,6.491707,-0.273094,0.162755,-0.205560,49.243122,-1.867414,-1.880201,0.908948,0.416268,-0.021647,-0.008125
6446,0.303669,7.544979,6.500939,-0.274027,0.415659,-0.545855,49.234016,-1.851634,-1.881076,0.908982,0.416199,-0.021524,-0.008191
6447,0.304530,7.541979,6.502408,-0.354712,0.391928,-0.547035,49.223598,-1.829049,-1.882778,0.909021,0.416120,-0.021350,-0.008289
6448,0.311657,7.535094,6.496890,-0.073881,0.304874,-0.231592,49.216442,-1.811638,-1.882461,0.909048,0.416067,-0.021211,-0.008351
6449,0.321366,7.539903,6.509225,-0.550546,-0.084040,0.162618,49.205971,-1.808363,-1.880424,0.909087,0.415985,-0.021176,-0.008349
6450,0.326302,7.525308,6.522363,-1.672429,-0.163802,0.091464,49.168930,-1.814268,-1.880783,0.909221,0.415690,-0.021222,-0.008337
6451,0.326471,7.502689,6.516033,-1.840232,-0.048394,0.185321,49.110382,-1.820070,-1.880439,0.909433,0.415224,-0.021262,-0.008324
6452,0.321544,7.490753,6.503319,-1.066168,-0.002146,0.050579,49.061878,-1.823594,-1.878500,0.909608,0.414839,-0.021280,-0.008305
6453,0.321334,7.502005,6.515459,-1.430990,0.051100,-0.238073,49.020302,-1.820699,-1.879933,0.909759,0.414509,-0.021259,-0.008334
6454,0.317506,7.491353,6.517102,-0.968363,0.187053,-0.175770,48.980366,-1.812890,-1.881462,0.909904,0.414193,-0.021200,-0.008382
6455,0.320135,7.498573,6.527495,-0.647110,-0.072349,0.114747,48.953411,-1.810867,-1.880687,0.910001,0.413980,-0.021179,-0.008388
6456,0.324769,7.492323,6.519641,-0.202862,-0.316424,0.019697,48.939354,-1.816813,-1.884104,0.910051,0.413866,-0.021237,-0.008397
6457,0.319779,7.467182,6.516114,-0.482889,0.022437,-0.319658,48.928146,-1.816262,-1.891086,0.910091,0.413776,-0.021257,-0.008456
6458,0.315671,7.471974,6.513619,0.048087,0.104843,-0.523286,48.921143,-1.804278,-1.898722,0.910117,0.413721,-0.021189,-0.008561
6459,0.304467,7.488895,6.517594,0.129301,0.407375,-1.069462,48.924446,-1.778657,-1.909734,0.910106,0.413750,-0.021026,-0.008741
6460,0.288990,7.489302,6.518156,0.211708,0.926410,-1.459172,48.930462,-1.732281,-1.920669,0.910086,0.413805,-0.020698,-0.008994
6461,0.298154,7.513204,6.532967,0.495124,0.615862,-0.755424,48.942383,-1.687566,-1.925537,0.910045,0.413907,-0.020361,-0.009192
6462,0.299823,7.542659,6.546666,0.485524,0.310813,-0.417361,48.958767,-1.662682,-1.926725,0.909987,0.414042,-0.020169,-0.009289
6463,0.292270,7.537892,6.551481,0.230767,0.307224,-0.177496,48.970661,-1.648441,-1.925463,0.909945,0.414139,-0.020052,-0.009328
6464,0.307621,7.524020,6.539380,0.320262,-0.429274,0.963000,48.979645,-1.659653,-1.918401,0.909912,0.414209,-0.020117,-0.009230
6465,0.313438,7.522539,6.527800,0.710975,-0.754039,1.427653,48.996494,-1.702660,-1.907131,0.909850,0.414337,-0.020419,-0.008982
6466,0.306663,7.513828,6.515406,0.695597,-0.458999,1.067006,49.019581,-1.747305,-1.895113,0.909765,0.414514,-0.020731,-0.008721
6467,0.312545,7.509833,6.527331,0.171351,-0.524902,1.233616,49.033630,-1.787008,-1.882346,0.909712,0.414621,-0.021001,-0.008473
6469,0.318885,7.496552,6.524585,-0.019553,-0.562826,1.329061,49.035709,-1.831144,-1.868025,0.909703,0.414632,-0.021300,-0.008199
6470,0.317681,7.506935,6.531649,0.105593,-0.280829,1.063883,49.036648,-1.870478,-1.852488,0.909698,0.414635,-0.021556,-0.007933
6471,0.319121,7.514128,6.524307,0.503085,-0.151467,0.809423,49.046291,-1.898779,-1.837455,0.909662,0.414709,-0.021727,-0.007709
6472,0.321182,7.514154,6.505547,1.064099,-0.048907,0.663980,49.071953,-1.919518,-1.823880,0.909569,0.414911,-0.021844,-0.007522
6473,0.318342,7.510499,6.506588,0.393606,0.484774,0.193201,49.095757,-1.925557,-1.809027,0.909483,0.415102,-0.021840,-0.007377
6474,0.320091,7.520149,6.500331,0.687903,0.749881,0.093865,49.113152,-1.915701,-1.790330,0.909422,0.415245,-0.021695,-0.007261
6475,0.320886,7.502615,6.487011,0.409992,0.847147,-0.021663,49.130760,-1.899192,-1.769406,0.909361,0.415392,-0.021489,-0.007152
6476,0.320491,7.501296,6.499419,-0.368295,1.090982,-0.324039,49.130768,-1.873697,-1.748738,0.909364,0.415401,-0.021212,-0.007080
6477,0.320039,7.508962,6.515299,-0.438170,1.068010,-0.204599,49.116631,-1.843486,-1.727286,0.909419,0.415298,-0.020894,-0.007022
6478,0.324760,7.532146,6.505811,0.947642,0.540072,0.265658,49.124451,-1.826715,-1.706345,0.909393,0.415366,-0.020685,-0.006916
6479,0.319091,7.532520,6.524987,-0.093919,0.484912,-0.171089,49.138237,-1.816731,-1.692387,0.909344,0.415480,-0.020556,-0.006839
6480,0.315799,7.536934,6.532991,-0.240753,0.498581,-0.436758,49.132469,-1.798344,-1.686617,0.909367,0.415439,-0.020389,-0.006861
6481,0.316609,7.544939,6.509971,0.999600,0.126824,0.004470,49.145020,-1.786076,-1.683446,0.909322,0.415541,-0.020281,-0.006878
6482,0.315060,7.515371,6.513386,-0.499723,0.169694,-0.297981,49.153339,-1.779143,-1.682906,0.909293,0.415608,-0.020224,-0.006897
6483,0.314347,7.492123,6.519332,-1.583795,0.236457,-0.447367,49.118706,-1.765320,-1.685916,0.909419,0.415335,-0.020124,-0.006977
6484,0.325601,7.521586,6.507779,-0.067248,-0.468026,0.429947,49.091286,-1.767628,-1.689026,0.909518,0.415117,-0.020152,-0.006998
6485,0.318372,7.526552,6.505346,0.235169,-0.489459,0.334242,49.094204,-1.787703,-1.692751,0.909506,0.415136,-0.020324,-0.006955
6486,0.309626,7.492575,6.513581,-1.007260,-0.056508,-0.229883,49.081505,-1.794976,-1.698491,0.909551,0.415033,-0.020402,-0.006976
6487,0.308762,7.510543,6.505812,-0.173257,-0.111201,-0.154869,49.062027,-1.791963,-1.704806,0.909621,0.414877,-0.020400,-0.007041
6488,0.309065,7.535659,6.501661,0.900214,-0.159571,-0.102751,49.074345,-1.791676,-1.711031,0.909576,0.414974,-0.020421,-0.007089
6489,0.304257,7.503268,6.509603,-0.231097,0.292475,-0.573987,49.085674,-1.781702,-1.716748,0.909536,0.415065,-0.020363,-0.007168
6490,0.308607,7.509057,6.526900,-0.769726,0.277600,-0.434253,49.069118,-1.762782,-1.720580,0.909597,0.414936,-0.020226,-0.007270
6491,0.316291,7.528383,6.506629,0.740151,-0.210299,0.150539,49.068680,-1.758475,-1.722832,0.909598,0.414933,-0.020200,-0.007304
6492,0.307502,7.527831,6.518401,0.413587,0.067054,-0.181693,49.087975,-1.759646,-1.724976,0.909528,0.415085,-0.020218,-0.007313
6493,0.297858,7.522704,6.527396,-0.286952,0.436363,-0.585252,49.090149,-1.744491,-1.727008,0.909521,0.415105,-0.020105,-0.007384
6494,0.305540,7.523942,6.516928,0.223415,-0.030621,0.154915,49.089085,-1.734643,-1.726595,0.909526,0.415098,-0.020026,-0.007417
6495,0.304685,7.503184,6.496235,0.437976,-0.081280,0.149822,49.100048,-1.739702,-1.724678,0.909486,0.415185,-0.020060,-0.007381
6496,0.301981,7.488775,6.506945,-0.547287,0.175172,-0.212520,49.098209,-1.737888,-1.724179,0.909493,0.415171,-0.020043,-0.007384
6497,0.307839,7.492767,6.512585,-0.559398,-0.015921,0.160042,49.079723,-1.735489,-1.722746,0.909560,0.415025,-0.020018,-0.007385
6498,0.316692,7.482483,6.515662,-0.769189,-0.435814,0.677923,49.057480,-1.750973,-1.719283,0.909640,0.414846,-0.020127,-0.007305
6499,0.307263,7.482631,6.512599,-0.457378,-0.030637,0.013865,49.036983,-1.764776,-1.717597,0.909713,0.414681,-0.020229,-0.007245
6500,0.298019,7.504828,6.516837,0.064175,0.378263,-0.458060,49.030445,-1.755387,-1.718076,0.909737,0.414631,-0.020156,-0.007284
6501,0.293893,7.506971,6.535315,-0.616519,0.502513,-0.644570,49.021263,-1.731887,-1.719042,0.909772,0.414562,-0.019972,-0.007378
6502,0.292195,7.505329,6.521309,-0.135254,0.450663,-0.552056,49.008774,-1.706412,-1.720132,0.909819,0.414467,-0.019773,-0.007481
6503,0.293007,7.520095,6.516951,0.520509,0.329979,-0.422592,49.015209,-1.685617,-1.720965,0.909797,0.414521,-0.019611,-0.007562
6504,0.297496,7.523101,6.518592,0.356084,0.186606,-0.182189,49.029827,-1.672361,-1.721074,0.909745,0.414640,-0.019508,-0.007609
6505,0.302532,7.504125,6.520535,-0.249707,-0.063561,0.278247,49.031525,-1.672225,-1.718475,0.909739,0.414654,-0.019497,-0.007588
6506,0.295239,7.509525,6.513763,0.217767,-0.002359,0.192380,49.030869,-1.678868,-1.714159,0.909741,0.414648,-0.019534,-0.007530
6507,0.297888,7.517372,6.513551,0.345037,-0.180598,0.236619,49.040180,-1.686267,-1.711774,0.909707,0.414721,-0.019585,-0.007483
6508,0.290292,7.505921,6.511150,-0.030969,0.162208,-0.091942,49.045376,-1.688289,-1.710424,0.909688,0.414762,-0.019596,-0.007464
6509,0.284475,7.505669,6.524422,-0.727939,0.428302,-0.430392,49.032661,-1.675263,-1.708698,0.909735,0.414664,-0.019486,-0.007499
6510,0.280805,7.499797,6.527020,-1.037641,0.467576,-0.679466,49.003273,-1.651506,-1.709558,0.909843,0.414434,-0.019299,-0.007597
6511,0.281764,7.506751,6.520031,-0.433474,0.331578,-0.478199,48.978821,-1.628206,-1.712169,0.909932,0.414244,-0.019121,-0.007706
6512,0.269192,7.516562,6.526167,-0.178020,0.835470,-1.072632,48.968693,-1.595940,-1.714461,0.909971,0.414168,-0.018873,-0.007843
6513,0.275483,7.511741,6.535451,-0.462717,0.610057,-0.817882,48.958080,-1.556355,-1.716975,0.910011,0.414090,-0.018567,-0.008008
6514,0.263708,7.498816,6.533340,-0.557927,0.669760,-0.861766,48.941143,-1.521236,-1.719276,0.910074,0.413961,-0.018295,-0.008156
6515,0.264109,7.516662,6.521014,0.413731,0.371372,-0.571685,48.938805,-1.491824,-1.721886,0.910084,0.413947,-0.018071,-0.008283
6516,0.272723,7.513944,6.524912,0.234789,-0.022164,-0.154637,48.949696,-1.478873,-1.725447,0.910045,0.414035,-0.017982,-0.008357
6517,0.271207,7.485229,6.533748,-0.875270,-0.086091,0.031110,48.939098,-1.478506,-1.728160,0.910083,0.413951,-0.017988,-0.008381
6518,0.263982,7.493949,6.518775,0.091772,-0.111680,-0.096853,48.926113,-1.479845,-1.731366,0.910129,0.413847,-0.018009,-0.008404
6519,0.269888,7.499536,6.519351,0.405573,-0.327535,0.200060,48.934525,-1.485951,-1.735757,0.910099,0.413912,-0.018074,-0.008415
6520,0.265207,7.494770,6.533135,-0.200983,-0.070169,0.042387,48.937992,-1.493352,-1.738101,0.910085,0.413938,-0.018142,-0.008407
6521,0.255754,7.508280,6.543898,-0.704767,0.147530,-0.155374,48.922905,-1.491085,-1.738366,0.910140,0.413819,-0.018123,-0.008419
6522,0.254291,7.514101,6.548316,-0.810129,0.016348,0.055049,48.897621,-1.488030,-1.737405,0.910231,0.413618,-0.018094,-0.008427
6523,0.246307,7.494913,6.555687,-2.214274,0.373467,-0.280053,48.847160,-1.480932,-1.734978,0.910414,0.413219,-0.018025,-0.008441
6524,0.245839,7.489236,6.577623,-3.894927,0.449321,-0.355191,48.745251,-1.463933,-1.731633,0.910782,0.412413,-0.017870,-0.008492
6525,0.248394,7.474761,6.598068,-4.834761,0.077354,0.020333,48.599686,-1.453945,-1.728727,0.911306,0.411257,-0.017770,-0.008527
6526,0.255111,7.453736,6.618966,-6.766649,0.251806,-0.273221,48.406288,-1.447152,-1.727416,0.911999,0.409720,-0.017697,-0.008571
6527,0.265768,7.459784,6.656380,-9.851377,0.606234,-0.950753,48.129406,-1.422409,-1.730321,0.912988,0.407519,-0.017489,-0.008725
6528,0.254237,7.397856,6.720302,-13.377920,0.746451,-1.405652,47.742477,-1.378145,-1.739888,0.914360,0.404440,-0.017140,-0.009017
6529,0.246927,7.327324,6.756967,-15.881473,0.521962,-1.154551,47.255150,-1.332402,-1.753133,0.916072,0.400553,-0.016782,-0.009355
6530,0.241785,7.252149,6.806094,-17.387236,0.333484,-0.559027,46.700890,-1.301798,-1.762218,0.917999,0.396121,-0.016523,-0.009615
6531,0.229344,7.170011,6.878361,-19.104929,0.146433,-0.044796,46.092731,-1.289007,-1.763392,0.920089,0.391245,-0.016373,-0.009756
6532,0.216275,7.042910,6.963736,-19.964165,-0.144685,0.321163,45.441528,-1.292297,-1.760181,0.922298,0.386010,-0.016333,-0.009812
6533,0.230449,6.990403,7.023041,-19.184458,-0.412533,0.688040,44.788952,-1.310769,-1.754912,0.924481,0.380750,-0.016408,-0.009801
6534,0.232979,6.934390,7.112630,-18.631577,-0.211037,0.269934,44.158615,-1.329374,-1.750822,0.926561,0.375656,-0.016491,-0.009797
6535,0.232899,6.855832,7.197284,-18.712866,0.082199,-0.913427,43.536434,-1.323486,-1.760027,0.928586,0.370620,-0.016420,-0.009980
6536,0.228367,6.781878,7.270037,-18.110245,0.244983,-1.641474,42.923363,-1.290319,-1.787277,0.930555,0.365648,-0.016184,-0.010395
6537,0.225170,6.738629,7.319245,-17.505579,0.317645,-1.931214,42.330608,-1.243075,-1.824718,0.932432,0.360832,-0.015863,-0.010932
6538,0.218117,6.691562,7.399361,-18.352928,0.732715,-2.305298,41.733845,-1.182790,-1.865437,0.934297,0.355975,-0.015441,-0.011534
6539,0.204793,6.626766,7.474343,-19.828953,1.334535,-2.595774,41.098259,-1.102920,-1.903888,0.936255,0.350796,-0.014842,-0.012178
6540,0.191377,6.530805,7.553132,-21.185656,1.773630,-2.575550,40.415291,-1.007429,-1.935338,0.938328,0.345221,-0.014082,-0.012812
6541,0.170900,6.436609,7.620703,-22.314907,2.151000,-2.812842,39.690742,-0.899593,-1.961984,0.940491,0.339296,-0.013195,-0.013439
6542,0.157321,6.333268,7.709990,-23.601601,2.396294,-2.381475,38.925785,-0.786121,-1.980945,0.942734,0.333027,-0.012227,-0.014013
6543,0.131114,6.206357,7.774640,-23.858747,2.570649,-2.095656,38.134907,-0.674915,-1.987765,0.945009,0.326530,-0.011232,-0.014470
6544,0.111420,6.087873,7.862164,-23.721685,2.420038,-1.708100,37.341927,-0.570361,-1.986994,0.947246,0.319999,-0.010265,-0.014833
6545,0.088166,6.016233,7.934091,-22.612436,2.303225,-1.101353,36.569637,-0.479322,-1.977103,0.949382,0.313623,-0.009384,-0.015069
6546,0.090454,5.914502,8.027156,-22.102566,2.133243,-0.390900,35.824245,-0.404993,-1.953526,0.951404,0.307454,-0.008605,-0.015134
6547,0.095102,5.812080,8.097973,-20.893669,1.827562,-0.029847,35.107452,-0.347189,-1.920963,0.953312,0.301508,-0.007944,-0.015068
6548,0.095350,5.691123,8.176466,-20.120514,1.377679,0.491355,34.423698,-0.307702,-1.884202,0.955098,0.295822,-0.007430,-0.014911
6549,0.089328,5.622538,8.221826,-19.263905,1.172997,0.522894,33.767117,-0.281986,-1.846405,0.956781,0.290351,-0.007034,-0.014703
6550,0.091298,5.589211,8.345574,-20.061045,1.165792,0.612423,33.111546,-0.259885,-1.809144,0.958431,0.284878,-0.006672,-0.014486
6551,0.078890,5.492955,8.412573,-22.623396,1.403296,1.250507,32.399948,-0.240677,-1.759870,0.960187,0.278926,-0.006301,-0.014161
6552,0.053180,5.364425,8.460608,-24.295744,1.765707,0.977077,31.617762,-0.215595,-1.700407,0.962076,0.272372,-0.005852,-0.013765
6553,0.040296,5.274861,8.520593,-25.048567,1.937054,0.491652,30.795221,-0.175488,-1.647475,0.964012,0.265467,-0.005293,-0.013454
6554,0.036677,5.133327,8.596292,-24.705870,1.612116,0.559322,29.965904,-0.133296,-1.602430,0.965912,0.258490,-0.004739,-0.013207
6555,0.031391,4.943378,8.591939,-22.866653,1.353064,0.397186,29.172995,-0.098177,-1.564197,0.967681,0.251806,-0.004267,-0.012994
6556,0.020682,4.843503,8.652590,-18.802275,1.162492,-0.515563,28.478521,-0.060487,-1.545716,0.969190,0.245942,-0.003829,-0.012944
6557,0.025589,4.798988,8.732074,-15.199773,0.478008,-0.425100,27.911846,-0.028943,-1.546591,0.970394,0.241150,-0.003500,-0.013037
6558,0.022559,4.718152,8.764502,-12.582141,0.198835,0.079850,27.448828,-0.016271,-1.546465,0.971360,0.237229,-0.003340,-0.013076
6559,0.021980,4.649416,8.806586,-11.648189,0.607416,0.100845,27.044996,-0.005714,-1.537649,0.972191,0.233805,-0.003186,-0.013034
6560,0.027249,4.618256,8.863994,-11.346209,0.611261,0.041620,26.661762,0.011328,-1.526345,0.972968,0.230555,-0.002975,-0.012983
6561,0.035732,4.574508,8.892929,-11.442992,0.461267,0.143195,26.281950,0.025957,-1.515618,0.973728,0.227331,-0.002786,-0.012931
6562,0.024812,4.486923,8.913541,-12.682380,1.116161,0.042158,25.879875,0.048211,-1.501291,0.974520,0.223916,-0.002524,-0.012862
6563,0.023219,4.424611,8.978728,-14.350898,1.441776,-0.324069,25.429344,0.088670,-1.487053,0.975394,0.220087,-0.002101,-0.012829
6564,0.007034,4.338829,9.005386,-15.382545,1.295251,-0.444354,24.933813,0.135408,-1.479223,0.976336,0.215872,-0.001633,-0.012859
6565,-0.009535,4.240047,9.021343,-16.484461,1.556087,-0.605985,24.402718,0.185905,-1.475304,0.977324,0.211351,-0.001135,-0.012926
6566,-0.017585,4.124952,9.061593,-17.483511,1.584315,-0.088780,23.836643,0.238408,-1.464476,0.978356,0.206526,-0.000604,-0.012934
6567,-0.017012,4.023491,9.097267,-17.501499,1.057375,0.325262,23.253668,0.277175,-1.443287,0.979394,0.201550,-0.000169,-0.012824
6568,-0.021096,3.929388,9.115729,-17.479345,0.824378,0.363887,22.670782,0.301564,-1.420504,0.980408,0.196568,0.000144,-0.012671
6569,-0.025225,3.855824,9.176438,-17.734201,0.844508,0.537790,22.084034,0.321564,-1.396028,0.981404,0.191547,0.000421,-0.012494
6570,-0.025812,3.762530,9.218219,-17.729273,0.331738,0.928915,21.493170,0.330687,-1.366056,0.982381,0.186485,0.000612,-0.012250
6572,-0.033529,3.668724,9.273126,-17.715279,0.361804,0.623532,20.902603,0.332100,-1.337780,0.983332,0.181420,0.000732,-0.012006
6573,-0.041533,3.572622,9.316586,-17.643341,0.643620,0.390654,20.313442,0.341847,-1.316055,0.984254,0.176363,0.000911,-0.011830
6574,-0.042433,3.465429,9.368997,-16.909822,0.653285,0.571278,19.737709,0.356670,-1.293576,0.985129,0.171416,0.001132,-0.011655
6575,-0.032011,3.360562,9.389675,-16.018753,0.651463,0.718423,19.189089,0.370002,-1.266065,0.985941,0.166699,0.001342,-0.011432
6576,-0.035254,3.273294,9.435249,-14.999825,1.164856,0.603516,18.672327,0.391481,-1.235404,0.986685,0.162253,0.001622,-0.011192
6577,-0.041934,3.184206,9.445699,-14.510921,1.381330,0.270792,18.180685,0.427131,-1.208145,0.987373,0.158021,0.002015,-0.010999
6578,-0.055585,3.082455,9.478705,-14.865728,1.632218,-0.059266,17.691231,0.473837,-1.189311,0.988038,0.153805,0.002490,-0.010891
6579,-0.060567,3.007725,9.507469,-14.541741,1.650406,0.160853,17.201275,0.525531,-1.171282,0.988686,0.149583,0.003006,-0.010792
6580,-0.068181,2.923347,9.528496,-14.152279,1.575330,0.097374,16.723236,0.575689,-1.151480,0.989300,0.145461,0.003509,-0.010672
6581,-0.076823,2.823148,9.553276,-14.456516,1.341537,-0.143590,16.246572,0.622526,-1.138424,0.989895,0.141348,0.003974,-0.010602
6582,-0.081729,2.752370,9.581188,-13.632790,0.720248,0.168979,15.778536,0.655448,-1.128545,0.990463,0.137306,0.004314,-0.010540
6583,-0.075734,2.701510,9.598166,-12.415176,0.097748,0.481226,15.344572,0.665669,-1.114468,0.990977,0.133554,0.004458,-0.010414
6584,-0.086721,2.614070,9.606364,-12.183028,-0.288309,0.179603,14.934723,0.659721,-1.104686,0.991449,0.130008,0.004455,-0.010306
6585,-0.080671,2.559832,9.622747,-11.947998,-0.957788,0.052204,14.532526,0.638665,-1.106241,0.991901,0.126526,0.004307,-0.010281
6586,-0.074097,2.492231,9.623868,-11.193472,-1.230581,0.197026,14.146784,0.602309,-1.111268,0.992323,0.123184,0.004022,-0.010271
6587,-0.066074,2.420319,9.637074,-10.989881,-1.177024,-0.268619,13.776954,0.563654,-1.122119,0.992716,0.119978,0.003709,-0.010311
6588,-0.063582,2.358192,9.650158,-10.942379,-1.220385,-0.534634,13.411208,0.527976,-1.144520,0.993094,0.116807,0.003409,-0.010457
6589,-0.055241,2.314741,9.671861,-10.520100,-1.112676,-0.683548,13.053246,0.494779,-1.173185,0.993453,0.113702,0.003126,-0.010662
6590,-0.056697,2.251091,9.677405,-10.287315,-0.862346,-0.621252,12.706221,0.467542,-1.201720,0.993791,0.110691,0.002894,-0.010874
6591,-0.054874,2.199331,9.710576,-10.411047,-0.634587,-0.665215,12.361040,0.447838,-1.228060,0.994119,0.107696,0.002731,-0.011075
6592,-0.051125,2.164076,9.735188,-10.133992,-0.382854,-0.105761,12.018498,0.433976,-1.244194,0.994435,0.104723,0.002629,-0.011194
6593,-0.045616,2.109742,9.756021,-9.743488,-0.236908,0.324253,11.687223,0.423105,-1.242749,0.994734,0.101847,0.002569,-0.011164
6594,-0.043521,2.067737,9.751578,-9.058374,0.023790,0.525454,11.373958,0.416783,-1.229582,0.995010,0.099126,0.002556,-0.011037
6595,-0.048130,2.014218,9.783673,-8.644922,0.509197,0.615758,11.079056,0.421787,-1.209191,0.995264,0.096565,0.002645,-0.010858
6596,-0.047895,1.984288,9.797003,-7.985571,0.595554,0.761949,10.802074,0.435502,-1.183141,0.995496,0.094160,0.002812,-0.010636
6597,-0.047704,1.926810,9.798586,-8.075518,0.679483,0.300062,10.534557,0.453104,-1.161811,0.995715,0.091836,0.003006,-0.010459
6598,-0.051438,1.881206,9.794527,-8.543039,1.125441,-0.470064,10.257605,0.483212,-1.159166,0.995933,0.089432,0.003295,-0.010452
6599,-0.061629,1.807557,9.808974,-9.579236,1.394268,-0.985912,9.955425,0.528827,-1.175677,0.996161,0.086810,0.003707,-0.010621
6600,-0.076318,1.739169,9.788503,-10.300895,1.245648,-1.618495,9.623755,0.579574,-1.210967,0.996403,0.083932,0.004153,-0.010954
6601,-0.092501,1.683322,9.801956,-11.497591,1.274001,-2.288042,9.259846,0.631693,-1.268312,0.996656,0.080774,0.004601,-0.011477
6602,-0.100565,1.602215,9.809109,-11.870135,1.314975,-2.311851,8.869596,0.686394,-1.337225,0.996915,0.077388,0.005069,-0.012097
6603,-0.109801,1.530899,9.821519,-11.446481,1.105741,-2.129575,8.480159,0.737440,-1.404322,0.997162,0.074007,0.005511,-0.012697
6604,-0.123759,1.469168,9.853223,-11.280416,1.246150,-2.237433,8.100499,0.786721,-1.470703,0.997391,0.070712,0.005941,-0.013286
6605,-0.138994,1.420164,9.877643,-10.913042,1.847566,-2.491665,7.729597,0.848647,-1.541671,0.997601,0.067494,0.006482,-0.013921
6606,-0.147663,1.341014,9.883213,-10.206088,1.723359,-2.243454,7.376529,0.918025,-1.612071,0.997791,0.064432,0.007089,-0.014553
6607,-0.156415,1.304611,9.877235,-9.724085,1.135611,-2.556004,7.043150,0.975334,-1.685459,0.997960,0.061540,0.007591,-0.015202
6608,-0.162886,1.242358,9.879913,-9.528956,0.649477,-2.600745,6.720852,1.015181,-1.767243,0.998115,0.058744,0.007939,-0.015914
6609,-0.155006,1.183284,9.881882,-9.343822,-0.101806,-2.256730,6.404893,1.033506,-1.846650,0.998260,0.056000,0.008103,-0.016592
6610,-0.142019,1.148950,9.879426,-9.299726,-0.804230,-1.865264,6.092916,1.025968,-1.916614,0.998399,0.053286,0.008050,-0.017176
6611,-0.140918,1.084576,9.874293,-9.925334,-0.852261,-2.297277,5.771230,1.005670,-1.988498,0.998536,0.050485,0.007890,-0.017771
6612,-0.144843,0.999705,9.897798,-10.191653,-0.608457,-2.236593,5.434601,0.988826,-2.066089,0.998669,0.047554,0.007763,-0.018417
6613,-0.137870,0.942552,9.894081,-9.978971,-0.601682,-2.156122,5.097144,0.975458,-2.140847,0.998793,0.044616,0.007672,-0.019041
6614,-0.138423,0.903219,9.896212,-9.979217,-0.682790,-2.178979,4.763263,0.960338,-2.214681,0.998908,0.041708,0.007569,-0.019656
6615,-0.131260,0.828527,9.913747,-10.325420,-0.891248,-2.099202,4.423643,0.939900,-2.287867,0.999016,0.038749,0.007424,-0.020265
6616,-0.125147,0.784779,9.932156,-10.059979,-0.654268,-1.168801,4.082979,0.918249,-2.344105,0.999118,0.035778,0.007278,-0.020727
6617,-0.121545,0.758605,9.923967,-10.095909,-0.299775,-0.477319,3.746599,0.904236,-2.372562,0.999215,0.032845,0.007208,-0.020949
6618,-0.126600,0.685467,9.930675,-11.454128,0.385299,-0.108397,3.387282,0.906248,-2.382210,0.999311,0.029712,0.007289,-0.021011
6619,-0.137070,0.591949,9.916723,-12.339156,1.332791,0.197328,2.990782,0.934745,-2.379119,0.999406,0.026259,0.007611,-0.020965
6620,-0.152661,0.505254,9.910618,-12.625175,1.966749,0.575068,2.574975,0.989036,-2.363564,0.999494,0.022641,0.008163,-0.020812
6621,-0.171874,0.426303,9.889968,-12.517120,2.014454,0.569188,2.156332,1.054533,-2.341750,0.999568,0.019000,0.008814,-0.020603
6622,-0.185368,0.348868,9.904484,-11.340980,1.844829,0.978986,1.759233,1.117934,-2.313758,0.999628,0.015545,0.009443,-0.020336
6623,-0.194418,0.304571,9.919125,-8.926203,1.368178,1.395562,1.422268,1.170350,-2.272703,0.999672,0.012611,0.009964,-0.019956
6624,-0.192027,0.289709,9.934506,-5.946499,0.597947,1.686851,1.175467,1.201929,-2.220592,0.999703,0.010458,0.010287,-0.019483
6625,-0.190028,0.266593,9.969060,-0.780350,-0.540712,2.045952,1.064655,1.201650,-2.158365,0.999723,0.009486,0.010309,-0.018930
6626,-0.185048,0.262148,9.968920,3.329187,-1.183440,2.355726,1.108639,1.171502,-2.085557,0.999734,0.009858,0.010045,-0.018296
6627,-0.176501,0.274025,9.962902,5.586216,-1.890236,1.887120,1.258618,1.118804,-2.015909,0.999735,0.011153,0.009568,-0.017697
6628,-0.172756,0.296506,9.955326,6.889285,-2.132774,1.254224,1.467497,1.050511,-1.965155,0.999727,0.012961,0.008946,-0.017264
6629,-0.174764,0.320785,9.954390,7.122674,-1.784180,0.567914,1.701532,0.984399,-1.936602,0.999708,0.014991,0.008337,-0.017024
6630,-0.165811,0.367149,9.936007,7.627767,-1.800565,-0.317992,1.947407,0.924540,-1.934348,0.999678,0.017127,0.007779,-0.017014
6631,-0.156732,0.386928,9.926847,6.121920,-1.903964,-1.073453,2.176166,0.863656,-1.959750,0.999643,0.019115,0.007210,-0.017241
6632,-0.163703,0.394084,9.886817,4.555367,-1.048135,-1.482569,2.353465,0.816161,-2.004259,0.999608,0.020657,0.006761,-0.017632
6633,-0.162023,0.444861,9.920952,4.915376,-0.316850,-1.594262,2.510572,0.795598,-2.056469,0.999572,0.022028,0.006547,-0.018092
6634,-0.141118,0.466563,9.938513,4.514448,-0.904286,-1.411857,2.667032,0.777530,-2.107453,0.999534,0.023392,0.006354,-0.018542
6635,-0.137208,0.457236,9.908480,2.864085,-0.996229,-1.136287,2.789425,0.747913,-2.151378,0.999503,0.024458,0.006067,-0.018926
6636,-0.130189,0.493979,9.900929,3.045638,-0.850629,-1.209768,2.887402,0.719103,-2.191954,0.999477,0.025310,0.005790,-0.019279
6637,-0.124150,0.524589,9.935190,2.990409,-0.563998,-1.146353,2.987503,0.697569,-2.232384,0.999449,0.026181,0.005576,-0.019632
6638,-0.116375,0.496250,9.905152,0.730866,-0.750730,-1.025313,3.049075,0.677594,-2.269687,0.999429,0.026716,0.005383,-0.019955
6639,-0.118374,0.498966,9.882575,-0.097971,-0.567584,-0.993722,3.059219,0.657440,-2.304458,0.999422,0.026803,0.005197,-0.020254
6640,-0.114762,0.511512,9.902976,-0.088593,-0.621225,-0.884964,3.055743,0.639323,-2.336783,0.999418,0.026771,0.005032,-0.020532
6641,-0.108534,0.506837,9.916596,-0.430833,-0.894385,-0.671652,3.046789,0.615480,-2.364036,0.999417,0.026690,0.004820,-0.020764
6642,-0.101597,0.493567,9.913982,-1.117603,-1.087983,-0.607607,3.020741,0.583614,-2.387077,0.999420,0.026458,0.004541,-0.020956
6643,-0.094406,0.512604,9.920575,-0.323387,-1.092931,-0.663429,2.996497,0.548426,-2.410139,0.999423,0.026241,0.004233,-0.021149
6644,-0.090351,0.506680,9.910902,-0.253010,-0.790021,-0.685730,2.986666,0.518261,-2.434236,0.999422,0.026151,0.003967,-0.021352
6645,-0.095405,0.508616,9.918880,-0.149740,-0.069170,-0.728512,2.979736,0.505188,-2.458520,0.999420,0.026088,0.003848,-0.021560
6646,-0.097032,0.529310,9.937118,0.901524,0.338570,-0.603660,2.992070,0.510828,-2.480460,0.999413,0.026198,0.003890,-0.021753
6647,-0.092941,0.545042,9.928720,1.970265,0.258447,-0.526414,3.039768,0.521758,-2.498746,0.999398,0.026617,0.003972,-0.021917
6648,-0.098386,0.560105,9.917138,2.736258,0.446679,-0.571849,3.118047,0.534478,-2.516392,0.999375,0.027302,0.004064,-0.022076
6649,-0.106871,0.559297,9.941689,2.428899,0.609101,-0.567940,3.203962,0.553096,-2.534391,0.999350,0.028056,0.004205,-0.022241
6650,-0.104917,0.587173,9.928163,3.419408,0.314149,-0.575478,3.301255,0.569539,-2.552546,0.999322,0.028908,0.004325,-0.022407
6651,-0.100744,0.586453,9.913419,2.675658,-0.205665,-0.507178,3.402663,0.572400,-2.570451,0.999292,0.029794,0.004326,-0.022568
6652,-0.100731,0.592515,9.914971,1.826683,-0.416482,-0.463907,3.477535,0.563020,-2.587226,0.999269,0.030445,0.004225,-0.022714
6653,-0.102315,0.585620,9.915200,0.741668,-0.221776,-0.282110,3.520214,0.553161,-2.600284,0.999256,0.030816,0.004127,-0.022827
6654,-0.104752,0.616686,9.920868,1.074702,0.097401,-0.112415,3.550423,0.551497,-2.606976,0.999246,0.031079,0.004104,-0.022886
6655,-0.092244,0.608236,9.943527,-0.275774,-0.439673,0.021455,3.563720,0.545898,-2.608844,0.999243,0.031194,0.004052,-0.022901
6656,-0.089248,0.588296,9.929530,-1.322435,-0.394104,0.011464,3.537080,0.531994,-2.609156,0.999251,0.030959,0.003936,-0.022899
6657,-0.082510,0.589393,9.918081,-1.166506,-0.545733,0.148513,3.495613,0.516196,-2.607454,0.999263,0.030594,0.003807,-0.022879
6658,-0.081728,0.597585,9.922414,-0.777864,-0.356342,-0.120728,3.463203,0.501161,-2.607905,0.999272,0.030309,0.003683,-0.022878
6659,-0.084068,0.578095,9.937963,-1.417723,-0.050606,-0.259229,3.426552,0.494772,-2.614634,0.999281,0.029988,0.003633,-0.022934
6660,-0.098652,0.569764,9.917834,-0.924853,0.516793,-0.118628,3.387458,0.502902,-2.620458,0.999289,0.029649,0.003710,-0.022985
6661,-0.103501,0.589059,9.927823,0.079809,0.470615,-0.068326,3.373354,0.519513,-2.622596,0.999292,0.029530,0.003857,-0.023008
6662,-0.113288,0.591975,9.938966,0.390850,1.049477,-0.299692,3.381156,0.545166,-2.627226,0.999288,0.029603,0.004078,-0.023055
6663,-0.102419,0.592315,9.924341,0.707692,0.274280,0.112227,3.399447,0.567375,-2.629040,0.999281,0.029767,0.004267,-0.023077
6664,-0.086371,0.600312,9.891836,0.920965,-0.968863,0.245246,3.426643,0.555465,-2.623780,0.999276,0.030001,0.004159,-0.023029
6665,-0.077334,0.603352,9.919588,0.146333,-1.008114,-0.241312,3.444413,0.522570,-2.625687,0.999272,0.030150,0.003868,-0.023038
6666,-0.061572,0.600098,9.927232,-0.047852,-1.358966,-0.261923,3.445958,0.483693,-2.636429,0.999272,0.030156,0.003526,-0.023121
6667,-0.030081,0.582681,9.930255,-0.802557,-3.315886,0.373417,3.431762,0.405808,-2.639247,0.999278,0.030017,0.002849,-0.023125
6668,-0.037143,0.552662,9.917062,-2.404046,-3.040037,0.215026,3.378344,0.299480,-2.635746,0.999296,0.029530,0.001934,-0.023066
6669,-0.056187,0.563504,9.905002,-1.453284,-1.366684,-0.066063,3.314046,0.226016,-2.637541,0.999314,0.028954,0.001306,-0.023062
6670,-0.066232,0.584339,9.899348,0.223539,-0.214120,0.249673,3.293555,0.199538,-2.636002,0.999320,0.028770,0.001079,-0.023042
6671,-0.082668,0.576925,9.916299,0.103632,1.404089,0.208913,3.299041,0.218897,-2.627232,0.999320,0.028822,0.001249,-0.022970
6672,-0.090553,0.584970,9.923367,0.456928,2.548135,-0.044499,3.308413,0.284500,-2.620702,0.999317,0.028916,0.001821,-0.022930
6673,-0.076606,0.593827,9.937096,1.017394,2.117422,0.163793,3.333023,0.362014,-2.614212,0.999310,0.029146,0.002494,-0.022893
6675,-0.056358,0.581329,9.958941,0.132533,0.786265,0.362717,3.352265,0.409815,-2.602625,0.999306,0.029323,0.002910,-0.022805
6676,-0.042469,0.555476,9.934913,-1.019124,-0.579067,0.431439,3.337583,0.412491,-2.589211,0.999312,0.029195,0.002939,-0.022688
6677,-0.043234,0.575769,9.926296,-0.272072,-1.187511,0.331058,3.316138,0.382361,-2.578235,0.999321,0.029002,0.002684,-0.022584
6678,-0.060047,0.582806,9.946942,-0.082600,-0.593895,0.186635,3.310271,0.352221,-2.571339,0.999324,0.028945,0.002424,-0.022517
6679,-0.068534,0.588239,9.948342,-0.069205,-0.211074,0.009899,3.307756,0.338638,-2.568844,0.999326,0.028920,0.002306,-0.022491
6680,-0.077192,0.581671,9.914219,-0.122900,0.447572,-0.085390,3.304548,0.342646,-2.569873,0.999327,0.028893,0.002342,-0.022501
6681,-0.072267,0.587424,9.924779,0.036804,0.462848,-0.094533,3.303100,0.357967,-2.571992,0.999326,0.028884,0.002475,-0.022524
6682,-0.067766,0.562510,9.928052,-0.736073,0.345998,0.158672,3.291456,0.371364,-2.570149,0.999329,0.028785,0.002595,-0.022511
6683,-0.070537,0.556221,9.901265,-0.544211,0.752246,-0.011753,3.270142,0.389498,-2.566658,0.999334,0.028602,0.002758,-0.022484
6684,-0.065077,0.565137,9.930264,0.202649,0.369658,0.126165,3.264471,0.408058,-2.563687,0.999336,0.028556,0.002921,-0.022463
6685,-0.052648,0.573195,9.950474,0.919192,-0.825280,0.427938,3.283229,0.399949,-2.554900,0.999333,0.028718,0.002849,-0.022385
6686,-0.059240,0.580524,9.934551,1.261240,-0.673291,0.281804,3.319639,0.374333,-2.544527,0.999327,0.029030,0.002621,-0.022289
6687,-0.066915,0.572866,9.925392,0.480413,-0.132909,-0.012543,3.348690,0.360657,-2.540830,0.999320,0.029281,0.002497,-0.022253
6688,-0.066603,0.584281,9.925853,0.585954,-0.285486,-0.026936,3.366456,0.353734,-2.541895,0.999316,0.029435,0.002433,-0.022261
6689,-0.077288,0.587899,9.906250,0.442603,0.602654,-0.385666,3.383558,0.359416,-2.548449,0.999310,0.029585,0.002478,-0.022320
6690,-0.083915,0.562766,9.925468,-1.236074,1.313233,-0.625950,3.370235,0.392285,-2.563401,0.999309,0.029476,0.002763,-0.022459
6691,-0.075926,0.571953,9.919206,-0.699210,0.653243,-0.657348,3.337841,0.426253,-2.582839,0.999313,0.029200,0.003061,-0.022636
6692,-0.060014,0.596313,9.914015,0.616693,-0.309521,-0.600820,3.336312,0.433193,-2.603440,0.999309,0.029189,0.003116,-0.022818
6693,-0.055738,0.584161,9.929063,-0.104430,-0.538466,-0.590244,3.344698,0.420243,-2.624081,0.999303,0.029260,0.002997,-0.022995
6694,-0.057427,0.572057,9.950510,-0.588256,-0.930790,-0.355164,3.333031,0.396713,-2.641237,0.999303,0.029154,0.002789,-0.023138
6695,-0.051153,0.597700,9.938875,1.004245,-1.591093,-0.067294,3.339902,0.355162,-2.650712,0.999301,0.029206,0.002423,-0.023210
6696,-0.057707,0.588368,9.936971,0.614147,-1.125481,0.128752,3.366868,0.309905,-2.652343,0.999295,0.029432,0.002023,-0.023213
6697,-0.065637,0.579672,9.929978,0.144126,-0.496648,0.068735,3.379515,0.282723,-2.650647,0.999293,0.029537,0.001783,-0.023192
6698,-0.066959,0.587567,9.930779,0.506168,-0.034412,0.065812,3.390362,0.273755,-2.648931,0.999291,0.029629,0.001704,-0.023175
6699,-0.056628,0.578446,9.912792,0.386893,0.012359,-0.065511,3.405246,0.273388,-2.648948,0.999287,0.029759,0.001697,-0.023175
6700,-0.057939,0.579399,9.902764,0.476093,0.549889,-0.300192,3.419602,0.283105,-2.654475,0.999282,0.029886,0.001778,-0.023226
6701,-0.048453,0.582059,9.941611,0.546859,0.051932,-0.202427,3.436613,0.293618,-2.662238,0.999276,0.030037,0.001864,-0.023297
6702,-0.035162,0.583361,9.958479,0.458750,-0.912490,-0.326063,3.453325,0.279831,-2.671891,0.999270,0.030180,0.001738,-0.023377
6703,-0.035182,0.583311,9.951368,0.413565,-1.456514,-0.481040,3.467792,0.241231,-2.687701,0.999264,0.030299,0.001394,-0.023505
6704,-0.035330,0.607884,9.937210,0.986206,-1.950932,-0.478360,3.491050,0.185515,-2.707107,0.999255,0.030490,0.000898,-0.023660
6705,-0.029811,0.617174,9.918972,0.879406,-1.984543,-0.669421,3.522081,0.121217,-2.730214,0.999243,0.030748,0.000325,-0.023845
6706,-0.029426,0.622254,9.894987,0.624680,-1.156051,-0.790606,3.547102,0.070473,-2.757728,0.999231,0.030955,-0.000130,-0.024071
6707,-0.033817,0.628563,9.876938,0.704526,-0.154854,-0.616884,3.569228,0.050122,-2.782498,0.999220,0.031144,-0.000319,-0.024281
6708,-0.023147,0.641769,9.872161,0.958464,0.230534,-0.523303,3.596926,0.052569,-2.801387,0.999208,0.031386,-0.000309,-0.024447
6709,-0.014294,0.645067,9.887136,0.894593,0.662758,-0.449352,3.627794,0.068450,-2.816628,0.999196,0.031658,-0.000181,-0.024584
6710,-0.014800,0.637097,9.914138,0.272877,1.218202,-0.306004,3.647236,0.100535,-2.827204,0.999188,0.031835,0.000092,-0.024685
6711,-0.019112,0.632275,9.935761,-0.192458,1.376881,-0.377580,3.648556,0.144423,-2.835824,0.999185,0.031856,0.000472,-0.024772
6712,-0.020570,0.624225,9.953829,-0.493754,0.780452,-0.255241,3.637096,0.180976,-2.844067,0.999186,0.031764,0.000790,-0.024854
6713,-0.020210,0.619262,9.958787,-0.543183,-0.190642,-0.062478,3.619799,0.191121,-2.848731,0.999190,0.031615,0.000881,-0.024898
6714,-0.024228,0.602801,9.945618,-0.975017,-0.589566,-0.004164,3.594490,0.178213,-2.850659,0.999196,0.031392,0.000774,-0.024911
6715,-0.032325,0.599036,9.928489,-0.876660,-0.827816,0.068413,3.563628,0.154569,-2.851065,0.999205,0.031117,0.000574,-0.024908
6716,-0.036535,0.612255,9.916211,-0.052535,-0.896473,0.010750,3.548140,0.125804,-2.851531,0.999210,0.030976,0.000327,-0.024904
6717,-0.038669,0.634337,9.900817,1.121269,-0.393390,-0.133550,3.565945,0.104475,-2.854909,0.999205,0.031127,0.000136,-0.024927
6718,-0.030114,0.631530,9.891941,0.918294,-0.244012,-0.139011,3.599929,0.094157,-2.860109,0.999194,0.031421,0.000037,-0.024970
6719,-0.028508,0.633908,9.894736,0.587709,0.259767,-0.222642,3.625020,0.094798,-2.866109,0.999186,0.031640,0.000036,-0.025023
6720,-0.016609,0.658335,9.910561,1.247090,0.113362,-0.329683,3.655584,0.101589,-2.874902,0.999176,0.031908,0.000086,-0.025101
6721,-0.005799,0.655582,9.903292,1.003301,-0.275269,-0.233842,3.693074,0.099498,-2.884446,0.999163,0.032234,0.000057,-0.025184
6722,-0.011919,0.626803,9.898548,-0.726699,0.112169,-0.228158,3.697670,0.097282,-2.892304,0.999160,0.032274,0.000034,-0.025252
6723,-0.019841,0.628970,9.914186,-0.935143,0.692129,-0.306155,3.669958,0.111230,-2.900330,0.999166,0.032035,0.000159,-0.025326
6724,-0.016356,0.636142,9.931946,-0.498157,0.383886,-0.295359,3.646051,0.129767,-2.909189,0.999170,0.031831,0.000324,-0.025408
6725,-0.019022,0.605588,9.913531,-1.317990,0.219656,-0.195835,3.615764,0.140324,-2.916723,0.999177,0.031569,0.000421,-0.025476
6726,-0.024985,0.606617,9.927400,-1.061273,0.149010,-0.125055,3.576097,0.146792,-2.921676,0.999186,0.031225,0.000484,-0.025521
6727,-0.015766,0.613792,9.946589,-0.549273,-0.549267,-0.121277,3.549243,0.140388,-2.926188,0.999193,0.030989,0.000433,-0.025559
6728,-0.022857,0.621121,9.931983,0.271289,-0.378583,-0.128190,3.544599,0.125211,-2.931296,0.999193,0.030945,0.000301,-0.025599
6729,-0.027394,0.604728,9.930131,-0.429367,-0.167580,-0.182303,3.541951,0.116446,-2.937024,0.999193,0.030920,0.000223,-0.025647
6730,-0.034183,0.612902,9.952885,-0.748316,0.099615,-0.459803,3.522301,0.115975,-2.947775,0.999196,0.030749,0.000221,-0.025740
6731,-0.029352,0.625689,9.920406,0.242070,-0.086370,-0.595811,3.513828,0.117275,-2.965322,0.999194,0.030675,0.000229,-0.025894
6732,-0.018377,0.633088,9.899742,1.190340,-0.384938,-0.320603,3.537671,0.110375,-2.981049,0.999184,0.030882,0.000160,-0.026029
6733,-0.009525,0.612864,9.912844,-0.029935,-0.561757,-0.342272,3.556990,0.095312,-2.993052,0.999176,0.031047,0.000021,-0.026130
6734,-0.008342,0.622834,9.903925,0.656117,-0.510891,-0.211402,3.567410,0.078041,-3.003371,0.999171,0.031134,-0.000135,-0.026215
6735,-0.000965,0.617453,9.896238,0.954118,-0.679517,0.148663,3.594245,0.058306,-3.005655,0.999164,0.031363,-0.000314,-0.026229
6736,-0.007112,0.595737,9.903407,-0.250494,-0.035664,0.200845,3.605977,0.046045,-3.000589,0.999162,0.031463,-0.000422,-0.026182
6737,-0.023127,0.616853,9.921384,0.115402,0.762045,-0.023209,3.603729,0.057941,-2.996873,0.999163,0.031446,-0.000317,-0.026153
6738,-0.018960,0.619084,9.912658,0.300797,0.445559,0.089503,3.610668,0.077959,-2.994503,0.999162,0.031511,-0.000143,-0.026137
6739,-0.014064,0.627334,9.914173,0.366014,0.110486,0.182794,3.621790,0.086922,-2.989390,0.999160,0.031610,-0.000066,-0.026095
6740,-0.017236,0.633717,9.920247,0.395938,0.276054,0.067009,3.634496,0.093088,-2.984826,0.999157,0.031722,-0.000014,-0.026057
6741,-0.019877,0.628641,9.934189,-0.304923,0.295197,-0.099857,3.636013,0.102624,-2.984769,0.999157,0.031737,0.000069,-0.026059
6742,-0.013928,0.614385,9.943127,-1.089227,-0.146479,-0.034622,3.612774,0.105239,-2.986850,0.999162,0.031535,0.000096,-0.026078
6743,-0.019983,0.641520,9.928734,0.394453,0.139478,-0.013242,3.601192,0.105173,-2.987654,0.999165,0.031434,0.000098,-0.026085
6744,-0.029713,0.633428,9.929781,0.047920,0.689522,-0.081603,3.608564,0.119061,-2.988362,0.999163,0.031502,0.000217,-0.026095
6745,-0.030424,0.633121,9.920973,-0.072553,0.473717,-0.041726,3.608152,0.138540,-2.989194,0.999163,0.031503,0.000387,-0.026108
6746,-0.025516,0.635415,9.936239,-0.034545,0.104300,0.078843,3.606370,0.148115,-2.987971,0.999163,0.031489,0.000471,-0.026100
6747,-0.029248,0.627086,9.920164,-0.109067,0.290015,0.010916,3.603981,0.154580,-2.986065,0.999164,0.031470,0.000529,-0.026085
6748,-0.027044,0.611675,9.923856,-0.916555,-0.092377,0.018706,3.586890,0.157837,-2.985365,0.999169,0.031322,0.000561,-0.026080
6749,-0.026770,0.608484,9.916036,-0.927491,-0.238334,-0.082698,3.556151,0.152402,-2.986774,0.999177,0.031052,0.000520,-0.026090
6750,-0.027211,0.610711,9.919637,-0.425990,-0.040763,-0.041435,3.533587,0.147888,-2.989127,0.999183,0.030855,0.000485,-0.026109
6751,-0.021513,0.616162,9.901050,0.374552,-0.222388,0.056107,3.532730,0.143495,-2.989153,0.999183,0.030846,0.000447,-0.026108
6752,-0.022488,0.626902,9.908478,0.558978,-0.161438,0.041719,3.548292,0.137009,-2.987921,0.999179,0.030980,0.000387,-0.026096
6753,-0.024338,0.620650,9.918461,0.164949,0.075153,-0.005962,3.560359,0.135537,-2.987416,0.999176,0.031085,0.000372,-0.026091
6754,-0.024370,0.618816,9.922562,0.050045,0.206927,-0.007225,3.563942,0.140243,-2.987343,0.999175,0.031118,0.000412,-0.026092
6755,-0.018404,0.638594,9.938771,0.714079,-0.057702,-0.011596,3.576677,0.142745,-2.987501,0.999171,0.031229,0.000431,-0.026094
6756,-0.024678,0.623640,9.931101,-0.133409,0.309032,-0.155354,3.586348,0.147099,-2.990016,0.999168,0.031314,0.000466,-0.026117
6757,-0.024166,0.606759,9.928740,-0.783467,0.302852,-0.167616,3.571054,0.157613,-2.994753,0.999171,0.031184,0.000560,-0.026161
6758,-0.027819,0.611918,9.927577,-0.487711,0.287880,-0.188804,3.549853,0.167808,-3.000070,0.999175,0.031001,0.000652,-0.026210
6759,-0.037007,0.617676,9.927277,-0.185166,0.681028,-0.307937,3.538616,0.184438,-3.007335,0.999177,0.030907,0.000798,-0.026278
6760,-0.042355,0.593452,9.922777,-1.157557,0.845576,-0.345634,3.516205,0.210504,-3.016641,0.999180,0.030718,0.001028,-0.026366
6761,-0.035085,0.604648,9.923004,-0.445321,0.199093,-0.088708,3.489466,0.228324,-3.022804,0.999185,0.030489,0.001188,-0.026424
6762,-0.032752,0.599984,9.915224,-0.526647,-0.002055,-0.091890,3.473256,0.231784,-3.025609,0.999189,0.030348,0.001221,-0.026449
6763,-0.039187,0.604582,9.907866,-0.150776,0.498473,-0.167956,3.461950,0.240305,-3.029432,0.999191,0.030251,0.001297,-0.026485
6764,-0.032964,0.619561,9.936262,0.429403,-0.011758,0.029154,3.466586,0.248542,-3.031251,0.999189,0.030294,0.001367,-0.026503
6765,-0.038772,0.614563,9.919539,0.370504,0.273241,0.019043,3.479922,0.252843,-3.030185,0.999185,0.030411,0.001402,-0.026495
6766,-0.045495,0.610567,9.915691,0.025183,0.623939,-0.055338,3.486518,0.267806,-3.029880,0.999183,0.030472,0.001531,-0.026496
6767,-0.049504,0.619013,9.919575,0.270852,0.732435,-0.036285,3.491452,0.290463,-3.030029,0.999181,0.030520,0.001727,-0.026504
6768,-0.050808,0.605804,9.931753,-0.375735,0.677346,-0.027364,3.489705,0.313980,-3.029657,0.999181,0.030510,0.001933,-0.026507
6769,-0.050995,0.588897,9.893830,-0.779067,0.485767,0.032800,3.470466,0.333324,-3.028391,0.999186,0.030347,0.002106,-0.026500
6770,-0.050698,0.584079,9.903126,-1.036193,0.310831,0.014839,3.440221,0.346529,-3.026799,0.999194,0.030086,0.002229,-0.026489
6771,-0.066322,0.589003,9.901023,-0.495770,1.044165,-0.158511,3.414681,0.369215,-3.027839,0.999199,0.029869,0.002432,-0.026504
6772,-0.078430,0.588544,9.918639,-0.296776,1.401470,-0.101940,3.401460,0.410162,-3.029748,0.999201,0.029763,0.002792,-0.026531
6773,-0.086271,0.592466,9.935237,-0.081931,1.320614,-0.066705,3.395147,0.455617,-3.029863,0.999201,0.029718,0.003190,-0.026543
6774,-0.099060,0.603244,9.930281,0.543451,1.486748,-0.101516,3.402838,0.502490,-3.029887,0.999197,0.029796,0.003597,-0.026556
6775,-0.108342,0.612512,9.916112,1.125353,1.784412,-0.023273,3.430663,0.557036,-3.028712,0.999187,0.030051,0.004066,-0.026561
6776,-0.098753,0.613157,9.932552,0.888839,1.082771,0.217177,3.464294,0.604542,-3.022611,0.999177,0.030355,0.004474,-0.026521
6778,-0.112903,0.606938,9.930622,0.260020,1.385324,0.030723,3.483512,0.645352,-3.015992,0.999171,0.030532,0.004827,-0.026475
6779,-0.131064,0.598647,9.926215,-0.308494,2.084805,-0.065776,3.482740,0.703116,-3.013064,0.999169,0.030538,0.005332,-0.026465
6780,-0.131749,0.595323,9.935610,-0.549802,1.812626,-0.124045,3.468445,0.768145,-3.012286,0.999169,0.030428,0.005902,-0.026474
6781,-0.132477,0.583870,9.930683,-0.902813,1.232238,-0.089841,3.444228,0.819016,-3.012786,0.999172,0.030229,0.006351,-0.026491
6782,-0.138718,0.583811,9.888635,-0.721275,1.311151,-0.333993,3.417094,0.861752,-3.017304,0.999175,0.030002,0.006729,-0.026540
6783,-0.129915,0.590945,9.886248,-0.314702,0.943395,-0.096922,3.399753,0.899689,-3.022239,0.999175,0.029860,0.007063,-0.026591
6784,-0.123638,0.603066,9.905131,0.213247,0.264993,0.075496,3.398074,0.919814,-3.021400,0.999174,0.029850,0.007239,-0.026589
6785,-0.135610,0.602776,9.946970,-0.085142,0.356708,0.041465,3.400251,0.930042,-3.018839,0.999174,0.029871,0.007328,-0.026570
6786,-0.143116,0.612034,9.977059,0.045424,0.082491,0.108712,3.399637,0.937201,-3.015907,0.999174,0.029867,0.007392,-0.026546
6787,-0.161561,0.584515,10.003661,-1.171903,-0.029175,0.339064,3.380985,0.937647,-3.008403,0.999181,0.029704,0.007402,-0.026479
6788,-0.158936,0.562838,9.975080,-1.549733,-1.160141,0.500358,3.335831,0.917040,-2.995596,0.999197,0.029305,0.007236,-0.026359
6789,-0.140874,0.546608,9.917363,-1.603184,-2.505047,0.621750,3.283515,0.854975,-2.980454,0.999218,0.028834,0.006710,-0.026209
6790,-0.139437,0.534382,9.878615,-1.685109,-2.153753,0.543847,3.228923,0.776351,-2.965473,0.999241,0.028339,0.006041,-0.026056
6791,-0.139887,0.538520,9.872332,-1.227436,-1.450045,0.276324,3.180515,0.715617,-2.955180,0.999259,0.027903,0.005525,-0.025949
6792,-0.127136,0.558681,9.891555,-0.158899,-1.332696,0.192987,3.157472,0.668877,-2.949933,0.999268,0.027691,0.005124,-0.025891
6793,-0.137520,0.556960,9.907157,-0.337189,0.219957,-0.168914,3.149197,0.650338,-2.950556,0.999271,0.027615,0.004964,-0.025891
6794,-0.152599,0.547069,9.915341,-0.796768,1.889422,-0.524877,3.130184,0.686074,-2.960175,0.999271,0.027458,0.005277,-0.025983
6795,-0.134045,0.542639,9.947260,-0.828365,1.133763,-0.331141,3.102956,0.737162,-2.971681,0.999272,0.027232,0.005726,-0.026094
6796,-0.124209,0.535077,9.937334,-0.632791,0.357527,-0.090609,3.078529,0.762359,-2.977363,0.999275,0.027025,0.005950,-0.026148
6797,-0.124867,0.522782,9.928313,-0.979467,-0.021815,-0.193301,3.051598,0.768199,-2.981789,0.999280,0.026792,0.006006,-0.026187
6798,-0.119152,0.528804,9.925029,-0.487978,-0.538631,-0.251259,3.027036,0.759265,-2.989686,0.999284,0.026576,0.005932,-0.026252
6799,-0.120531,0.526149,9.931999,-0.499433,-0.689856,-0.150893,3.010478,0.739172,-2.997459,0.999288,0.026427,0.005759,-0.026315
6800,-0.132579,0.538144,9.915726,0.121795,-0.147988,-0.224071,3.004095,0.725555,-3.004433,0.999288,0.026369,0.005640,-0.026372
6801,-0.132872,0.514007,9.926743,-0.944511,0.124755,-0.314283,2.990268,0.725637,-3.013415,0.999290,0.026249,0.005642,-0.026450
6802,-0.131220,0.503242,9.913784,-1.084182,0.147587,-0.205248,2.956350,0.730619,-3.021827,0.999295,0.025955,0.005691,-0.026522
6803,-0.116324,0.505069,9.901156,-0.648610,-0.707805,-0.225638,2.927373,0.721663,-3.029479,0.999300,0.025700,0.005618,-0.026586
6804,-0.101137,0.527512,9.923913,0.487077,-1.218177,-0.142716,2.924585,0.689919,-3.037251,0.999301,0.025669,0.005340,-0.026646
6805,-0.110996,0.517108,9.910865,0.182160,-0.601469,-0.026211,2.935688,0.659775,-3.041616,0.999299,0.025759,0.005074,-0.026678
6806,-0.127838,0.529184,9.902939,0.692657,0.347468,-0.088454,2.950244,0.655646,-3.043742,0.999296,0.025885,0.005034,-0.026697
6807,-0.110586,0.536917,9.947097,0.853666,-0.050891,0.057079,2.976013,0.660609,-3.044010,0.999290,0.026111,0.005071,-0.026701
6808,-0.104594,0.523740,9.960491,0.266168,-0.262613,0.308370,2.994743,0.655074,-3.038198,0.999287,0.026273,0.005020,-0.026650
6809,-0.122282,0.514360,9.914884,-0.165833,0.156627,0.142534,2.996501,0.652918,-3.030785,0.999288,0.026287,0.005002,-0.026585
6810,-0.129299,0.529457,9.912793,0.409773,0.229968,-0.010966,3.000596,0.659238,-3.028258,0.999288,0.026325,0.005057,-0.026565
6811,-0.125435,0.527899,9.912384,0.435924,0.044311,0.164613,3.014723,0.663669,-3.025460,0.999285,0.026449,0.005093,-0.026542
6812,-0.139209,0.517691,9.904808,-0.097427,0.870142,-0.000536,3.020406,0.678745,-3.021927,0.999283,0.026501,0.005224,-0.026515
6813,-0.139515,0.499801,9.910387,-0.996729,0.929678,-0.112202,3.002167,0.708799,-3.022228,0.999286,0.026349,0.005490,-0.026523
6814,-0.120682,0.499921,9.909403,-0.733207,0.073409,-0.240111,2.973272,0.725800,-3.027223,0.999290,0.026101,0.005644,-0.026569
6815,-0.102245,0.482250,9.894715,-1.465975,-0.599166,-0.529210,2.936452,0.717711,-3.040482,0.999296,0.025779,0.005579,-0.026681
6816,-0.102871,0.486123,9.901202,-1.721397,-0.484171,-0.957374,2.883012,0.700936,-3.066146,0.999303,0.025310,0.005440,-0.026899
6817,-0.116173,0.495925,9.908168,-1.277081,0.179637,-1.270267,2.832582,0.697719,-3.103482,0.999305,0.024872,0.005415,-0.027221
6818,-0.134306,0.508774,9.914557,-0.415042,1.012263,-1.294885,2.803861,0.719665,-3.145207,0.999300,0.024628,0.005605,-0.027589
6819,-0.149095,0.496553,9.938539,-1.003896,1.349882,-1.092737,2.779720,0.760928,-3.183036,0.999294,0.024430,0.005962,-0.027926
6820,-0.151652,0.494733,9.951752,-0.817913,1.232499,-0.996228,2.748909,0.805594,-3.215740,0.999289,0.024174,0.006352,-0.028219
6821,-0.148296,0.483700,9.945813,-0.849867,0.867643,-0.808156,2.720705,0.841992,-3.244111,0.999286,0.023938,0.006671,-0.028472
6822,-0.148145,0.481665,9.937144,-0.750384,0.495103,-0.587227,2.693703,0.865777,-3.266272,0.999284,0.023710,0.006880,-0.028669
6823,-0.147782,0.485137,9.933408,-0.416624,0.434491,-0.490719,2.673991,0.882094,-3.283496,0.999283,0.023543,0.007024,-0.028821
6824,-0.147299,0.471795,9.938026,-0.715267,0.464972,-0.218830,2.654953,0.897619,-3.294612,0.999283,0.023382,0.007162,-0.028920
6825,-0.152351,0.467489,9.952165,-0.716894,0.294930,0.069913,2.631054,0.910385,-3.296508,0.999286,0.023176,0.007279,-0.028937
6826,-0.144826,0.459553,9.944969,-0.516493,-0.370710,0.237276,2.610578,0.908888,-3.291451,0.999292,0.022997,0.007272,-0.028892
6827,-0.130977,0.448630,9.925845,-0.531435,-1.089261,0.405233,2.593263,0.884094,-3.281859,0.999299,0.022839,0.007062,-0.028802
6828,-0.131235,0.434937,9.932379,-1.107284,-1.206725,0.566330,2.566168,0.845138,-3.267404,0.999311,0.022593,0.006732,-0.028667
6829,-0.125450,0.445377,9.928242,-0.444022,-1.554448,0.466269,2.540530,0.798397,-3.252258,0.999323,0.022357,0.006334,-0.028524
6830,-0.123870,0.425110,9.921450,-1.313407,-1.266547,0.250054,2.511373,0.750900,-3.242405,0.999334,0.022090,0.005929,-0.028428
6831,-0.128926,0.423696,9.932929,-1.419762,-0.619364,0.176790,2.465893,0.719190,-3.236659,0.999346,0.021686,0.005664,-0.028369
6832,-0.138097,0.419100,9.916265,-1.068912,-0.204261,0.293227,2.424505,0.705141,-3.229414,0.999357,0.021321,0.005554,-0.028302
6833,-0.128033,0.427905,9.916306,-0.472142,-0.772753,0.139212,2.398901,0.688568,-3.222898,0.999364,0.021093,0.005417,-0.028240
6834,-0.125341,0.421516,9.944447,-0.565201,-0.647959,-0.054451,2.381616,0.664851,-3.222475,0.999369,0.020937,0.005214,-0.028232
6835,-0.123554,0.409071,9.940652,-0.270537,-0.744328,0.122177,2.367689,0.641620,-3.222308,0.999372,0.020809,0.005015,-0.028225
6836,-0.123568,0.426415,9.924223,0.966077,-1.068882,0.115659,2.379311,0.611261,-3.219600,0.999373,0.020903,0.004748,-0.028197
6837,-0.107900,0.430314,9.939922,1.293172,-1.757814,-0.112726,2.416945,0.564189,-3.221525,0.999368,0.021220,0.004328,-0.028207
6838,-0.084642,0.438960,9.931046,1.939166,-2.384591,0.060296,2.470781,0.495248,-3.225341,0.999360,0.021673,0.003712,-0.028229
6839,-0.079619,0.443452,9.910279,1.625506,-1.842311,0.030359,2.530181,0.424802,-3.226906,0.999351,0.022174,0.003083,-0.028231
6840,-0.068609,0.475573,9.913417,1.904071,-1.407164,-0.131519,2.588978,0.370773,-3.231010,0.999340,0.022673,0.002597,-0.028258
6841,-0.063967,0.473020,9.935438,0.812932,-0.607272,-0.108427,2.634227,0.337416,-3.236538,0.999331,0.023060,0.002293,-0.028300
6842,-0.061289,0.458545,9.938534,-0.667467,0.043171,-0.024039,2.636636,0.328125,-3.239175,0.999330,0.023079,0.002211,-0.028322
6843,-0.075898,0.440517,9.929996,-1.917138,0.974397,-0.008410,2.593561,0.345091,-3.238941,0.999338,0.022707,0.002370,-0.028322
6844,-0.072537,0.437746,9.923918,-1.690938,0.738062,0.181940,2.533452,0.373474,-3.234774,0.999350,0.022190,0.002633,-0.028290
6845,-0.076366,0.412645,9.923062,-2.385506,0.927832,0.228916,2.465565,0.400913,-3.226722,0.999364,0.021604,0.002891,-0.028223
6846,-0.084660,0.398684,9.913064,-2.643194,1.273633,0.065546,2.381801,0.437364,-3.220267,0.999380,0.020883,0.003230,-0.028171
6847,-0.094161,0.417014,9.913934,-1.368336,1.675462,0.040686,2.314973,0.486403,-3.216483,0.999391,0.020312,0.003675,-0.028145
6848,-0.097154,0.409211,9.921489,-1.112110,1.465779,0.183316,2.273685,0.538565,-3.210650,0.999397,0.019964,0.004141,-0.028102
6849,-0.098619,0.369838,9.920349,-2.473850,1.133893,0.266370,2.214008,0.581566,-3.201464,0.999408,0.019454,0.004532,-0.028027
6850,-0.097108,0.372260,9.929770,-1.937689,0.685838,0.330479,2.140597,0.611495,-3.190377,0.999421,0.018820,0.004813,-0.027932
6851,-0.097649,0.357717,9.948833,-2.061578,0.234176,0.356915,2.074072,0.626397,-3.178365,0.999434,0.018243,0.004961,-0.027827
6852,-0.100013,0.341009,9.929068,-2.065551,-0.154467,0.256418,2.005399,0.627361,-3.168103,0.999447,0.017644,0.004988,-0.027735
6853,-0.102685,0.335658,9.919873,-1.698261,0.025093,-0.007264,1.942713,0.625063,-3.164029,0.999458,0.017096,0.004984,-0.027696
6854,-0.109758,0.351592,9.938024,-0.387407,0.566791,-0.074422,1.907941,0.634969,-3.165057,0.999462,0.016796,0.005078,-0.027705
6855,-0.111327,0.333708,9.931169,-0.530248,0.679485,-0.138080,1.892614,0.655847,-3.167906,0.999463,0.016667,0.005264,-0.027732
6856,-0.106922,0.330510,9.910892,0.042227,0.366924,-0.045177,1.884452,0.673378,-3.170384,0.999462,0.016600,0.005418,-0.027756
6857,-0.112779,0.330392,9.926932,0.452789,0.585028,-0.059460,1.892687,0.689293,-3.171604,0.999460,0.016676,0.005555,-0.027769
6858,-0.127841,0.332514,9.938825,0.828070,1.123947,-0.239484,1.913985,0.717925,-3.175637,0.999454,0.016869,0.005799,-0.027809
6859,-0.137918,0.326257,9.920099,0.962470,1.139159,-0.329479,1.943723,0.755942,-3.183846,0.999445,0.017138,0.006122,-0.027888
6860,-0.137814,0.346669,9.926320,2.575101,0.484490,-0.088926,2.002602,0.783226,-3.189884,0.999433,0.017658,0.006345,-0.027948
6861,-0.131224,0.347720,9.925472,3.730281,-0.270705,0.127925,2.107702,0.786765,-3.189100,0.999417,0.018576,0.006350,-0.027947
6862,-0.118335,0.370359,9.932402,5.926723,-1.063848,0.489715,2.268780,0.764147,-3.179656,0.999393,0.019974,0.006115,-0.027870
6863,-0.095774,0.429842,9.939059,10.401880,-2.195801,1.268619,2.541270,0.708641,-3.152648,0.999353,0.022336,0.005570,-0.027638
6864,-0.084113,0.487264,9.947211,13.359388,-2.709094,1.538201,2.937786,0.624756,-3.109821,0.999285,0.025772,0.004753,-0.027265
6865,-0.075653,0.560675,9.953820,16.229303,-2.810688,1.538353,3.431388,0.530053,-3.063737,0.999180,0.030053,0.003821,-0.026859
6866,-0.071676,0.666330,9.939909,18.298695,-2.156118,1.673777,4.007248,0.443968,-3.015699,0.999031,0.035052,0.002951,-0.026433
6867,-0.068150,0.777510,9.918386,20.536430,-2.760575,1.537054,4.654815,0.358219,-2.968568,0.998832,0.040677,0.002071,-0.026008
6868,-0.063460,0.889826,9.889649,21.937418,-3.229495,0.915391,5.362853,0.255186,-2.936553,0.998572,0.046824,0.001025,-0.025699
6869,-0.038333,1.023078,9.869911,23.498203,-3.370763,0.634993,6.120126,0.143116,-2.921839,0.998247,0.053397,-0.000114,-0.025525
6870,-0.033037,1.166673,9.886061,24.820345,-2.929211,0.419902,6.925402,0.036788,-2.916306,0.997851,0.060387,-0.001217,-0.025420
6871,-0.030581,1.292973,9.899909,25.142073,-2.520236,0.145381,7.758060,-0.054499,-2.918605,0.997386,0.067616,-0.002197,-0.025376
6872,-0.017871,1.402154,9.883738,26.568607,-2.385334,0.087868,8.619865,-0.135986,-2.926431,0.996849,0.075097,-0.003102,-0.025374
6873,-0.005868,1.586796,9.876054,28.824114,-1.954087,-0.116145,9.543055,-0.207324,-2.938329,0.996209,0.083109,-0.003935,-0.025400
6875,0.004065,1.781929,9.826012,31.545773,-1.789738,0.111913,10.549188,-0.268753,-2.949324,0.995439,0.091838,-0.004700,-0.025410
6876,0.011931,1.988249,9.749757,33.096458,-1.508350,0.311075,11.626485,-0.324024,-2.952998,0.994530,0.101180,-0.005422,-0.025348
6877,0.035974,2.207421,9.703650,33.098331,-1.281597,0.336104,12.729620,-0.371726,-2.952288,0.993510,0.110738,-0.006079,-0.025242
6878,0.036227,2.460672,9.669806,33.344475,-0.813125,0.011723,13.836903,-0.407025,-2.954684,0.992393,0.120325,-0.006630,-0.025166
6879,0.030080,2.632621,9.593136,31.967449,-0.584590,-0.261121,14.925398,-0.428571,-2.964539,0.991203,0.129740,-0.007067,-0.025163
6880,0.024622,2.813270,9.578034,29.753469,-0.291587,-0.610136,15.954118,-0.438797,-2.982443,0.989995,0.138630,-0.007402,-0.025241
6881,0.037830,2.958109,9.533230,28.278467,-0.520974,-0.562251,16.921410,-0.446278,-3.005042,0.988784,0.146978,-0.007709,-0.025363
6882,0.017217,3.097688,9.460711,28.199268,-0.072340,-0.498169,17.862791,-0.450435,-3.024846,0.987539,0.155094,-0.007979,-0.025463
6883,0.022887,3.217873,9.422576,27.136078,0.151642,-0.052059,18.785044,-0.446284,-3.033163,0.986257,0.163037,-0.008160,-0.025476
6884,0.030820,3.370818,9.369583,27.398615,0.247720,0.570030,19.693815,-0.442812,-3.022824,0.984936,0.170855,-0.008317,-0.025327
6885,0.030760,3.504000,9.308177,27.733070,0.582160,1.133025,20.612370,-0.439566,-2.991405,0.983541,0.178748,-0.008443,-0.024995
6886,0.018614,3.653126,9.263384,29.786535,1.563447,1.107478,21.570602,-0.419599,-2.943706,0.982022,0.186974,-0.008402,-0.024547
6887,0.020693,3.804391,9.219206,29.506952,1.743390,0.999800,22.558382,-0.381701,-2.890518,0.980385,0.195444,-0.008199,-0.024083
6888,0.019697,3.936271,9.123322,29.334896,1.414431,1.246106,23.538654,-0.347931,-2.835489,0.978688,0.203835,-0.008018,-0.023602
6889,0.011786,4.052112,9.100616,27.691282,1.269889,1.652101,24.488649,-0.326716,-2.773136,0.976977,0.211950,-0.007917,-0.023043
6890,0.014813,4.183980,9.042642,26.831604,0.705150,2.144155,25.396893,-0.323523,-2.701871,0.975280,0.219693,-0.007936,-0.022379
6891,0.032563,4.271865,8.945031,23.395824,-1.007291,2.825635,26.233522,-0.364106,-2.629457,0.973665,0.226804,-0.008301,-0.021625
6892,0.058312,4.384597,8.867512,21.884148,-1.932107,3.304900,26.987640,-0.453661,-2.559928,0.972165,0.233194,-0.009061,-0.020797
6893,0.071742,4.538004,8.849443,20.363533,-1.804466,3.261202,27.691126,-0.559227,-2.491251,0.970729,0.239143,-0.009939,-0.019939
6894,0.092728,4.646009,8.808481,18.447954,-1.736089,3.091015,28.337263,-0.661036,-2.425497,0.969376,0.244599,-0.010772,-0.019109
6895,0.095849,4.716456,8.754389,16.513533,-1.515594,2.496894,28.919245,-0.753220,-2.369707,0.968130,0.249507,-0.011527,-0.018382
6896,0.108985,4.826422,8.732680,16.056292,-1.199078,2.320598,29.461393,-0.831885,-2.321682,0.966945,0.254075,-0.012171,-0.017747
6897,0.130791,4.928904,8.698614,15.610550,-1.307054,2.173378,29.988501,-0.905292,-2.277357,0.965772,0.258511,-0.012771,-0.017152
6898,0.131435,4.949525,8.666162,14.509776,-0.969112,1.366488,30.489969,-0.967782,-2.245485,0.964634,0.262727,-0.013299,-0.016684
6899,0.125610,4.993254,8.610162,15.376196,-0.664098,0.458016,30.987844,-1.006736,-2.233281,0.963484,0.266910,-0.013670,-0.016432
6900,0.143527,5.092508,8.557595,16.909386,-0.991488,0.004734,31.526060,-1.034348,-2.241035,0.962218,0.271426,-0.013997,-0.016368
6901,0.141143,5.187467,8.512263,17.219076,-0.888826,-0.675822,32.095329,-1.055104,-2.267064,0.960854,0.276196,-0.014315,-0.016466
6902,0.123773,5.266423,8.483205,17.743549,-0.608097,-1.150789,32.678749,-1.059886,-2.306161,0.959429,0.281079,-0.014535,-0.016709
6903,0.133031,5.362693,8.410004,19.752869,-1.065894,-0.960563,33.304497,-1.064134,-2.350895,0.957873,0.286307,-0.014773,-0.016992
6904,0.131537,5.488795,8.338345,22.036386,-1.330248,-0.886475,34.001850,-1.080315,-2.398635,0.956106,0.292121,-0.015133,-0.017259
6905,0.130909,5.617847,8.270309,24.463573,-1.235448,-1.130955,34.777805,-1.096607,-2.450531,0.954098,0.298579,-0.015520,-0.017546
6906,0.132982,5.731833,8.170185,27.568533,-1.004051,-1.585645,35.646084,-1.100994,-2.509067,0.951799,0.305790,-0.015845,-0.017902
6907,0.144681,5.825005,8.045821,29.687517,-1.301169,-1.442350,36.601505,-1.102278,-2.572517,0.949206,0.313706,-0.016179,-0.018292
6908,0.161453,5.958074,7.921216,30.436831,-2.141038,-0.130555,37.604580,-1.132211,-2.628016,0.946414,0.321989,-0.016741,-0.018523
6909,0.195729,6.084424,7.820321,28.067539,-3.092454,1.140520,38.580406,-1.211196,-2.668479,0.943630,0.330013,-0.017665,-0.018486
6910,0.219180,6.188628,7.761337,23.821472,-3.266323,1.256985,39.445953,-1.318667,-2.704028,0.941103,0.337101,-0.018791,-0.018327
6911,0.239158,6.295944,7.724576,19.411165,-2.987008,0.576003,40.167492,-1.418297,-2.747247,0.938952,0.342990,-0.019852,-0.018264
6912,0.234077,6.397643,7.685324,16.027653,-2.035791,-0.404450,40.759430,-1.483872,-2.799415,0.937157,0.347811,-0.020640,-0.018388
6913,0.221599,6.445840,7.637629,13.415160,-0.708791,-1.986524,41.251682,-1.492263,-2.859562,0.935645,0.351820,-0.020972,-0.018765
6914,0.206313,6.505684,7.598892,13.024077,0.730517,-3.671888,41.694126,-1.429559,-2.930076,0.934269,0.355433,-0.020752,-0.019453
6915,0.178729,6.561743,7.534876,14.270687,1.942965,-4.567889,42.150745,-1.304666,-3.002577,0.932835,0.359171,-0.020040,-0.020353
6916,0.147801,6.599990,7.462286,17.483049,2.421995,-4.130219,42.681198,-1.153166,-3.060582,0.931152,0.363513,-0.019088,-0.021212
6917,0.143167,6.661831,7.363005,21.293898,2.006819,-3.101483,43.328178,-1.016946,-3.098352,0.929076,0.368792,-0.018224,-0.021849
6918,0.120721,6.747123,7.270817,24.803591,1.351245,-1.872333,44.096794,-0.919180,-3.119512,0.926576,0.375036,-0.017649,-0.022218
6919,0.129383,6.906429,7.125397,28.705149,0.104164,0.325546,44.988571,-0.883783,-3.120771,0.923628,0.382244,-0.017541,-0.022208
6920,0.153324,7.065941,6.984472,30.104849,-1.048180,2.030913,45.968407,-0.922772,-3.104282,0.920330,0.390121,-0.017987,-0.021792
6921,0.174642,7.206383,6.870174,28.932304,-2.048661,2.321024,46.952061,-1.010875,-3.091591,0.916952,0.397987,-0.018834,-0.021229
6922,0.189728,7.314112,6.771626,25.520771,-2.298314,2.125260,47.859604,-1.114492,-3.094701,0.913773,0.405210,-0.019839,-0.020737
6923,0.216283,7.428087,6.669535,21.424526,-2.067955,1.261698,48.642315,-1.205080,-3.111381,0.910983,0.411416,-0.020760,-0.020408
6924,0.211653,7.448434,6.628794,16.639406,-1.228009,-0.303715,49.277344,-1.253215,-3.142355,0.908684,0.416440,-0.021367,-0.020363
6925,0.194839,7.481821,6.571896,14.487412,-0.732638,-0.821190,49.796913,-1.260185,-3.179455,0.906780,0.420547,-0.021650,-0.020534
6926,0.193377,7.531386,6.472460,13.656170,-0.443989,-0.424817,50.266590,-1.256871,-3.207856,0.905043,0.424256,-0.021813,-0.020682
6927,0.196907,7.603434,6.396198,14.146583,0.054366,-0.965570,50.730396,-1.243106,-3.227607,0.903315,0.427915,-0.021862,-0.020801
6928,0.189471,7.703912,6.355099,15.676932,0.623253,-1.615183,51.227829,-1.202577,-3.245942,0.901445,0.431840,-0.021702,-0.021003
6929,0.182198,7.743743,6.278114,16.269457,0.557846,-1.354905,51.760582,-1.151583,-3.261386,0.899423,0.436036,-0.021458,-0.021217
6930,0.186998,7.755096,6.189485,17.305483,0.331115,-1.284394,52.320450,-1.107783,-3.276753,0.897278,0.440434,-0.021278,-0.021401
6931,0.179884,7.816008,6.114141,18.528290,0.427191,-1.617248,52.918022,-1.061688,-3.296062,0.894963,0.445116,-0.021104,-0.021620
6932,0.175690,7.905966,6.040589,19.134596,0.077381,-0.995583,53.546070,-1.021775,-3.315403,0.892505,0.450021,-0.020988,-0.021811
6933,0.178151,7.958972,5.923020,20.052488,-0.513120,-0.066146,54.199455,-1.011760,-3.331670,0.889921,0.455102,-0.021099,-0.021857
6934,0.179623,8.039253,5.814287,21.562557,-0.851061,0.127493,54.893333,-1.025777,-3.349547,0.887146,0.460475,-0.021411,-0.021811
6935,0.174965,8.088161,5.729737,20.907652,-1.130301,0.341412,55.601555,-1.051027,-3.372211,0.884280,0.465938,-0.021832,-0.021751
6936,0.187122,8.145576,5.617275,19.302591,-0.945800,0.479345,56.272076,-1.081746,-3.393198,0.881536,0.471092,-0.022282,-0.021658
6937,0.180370,8.196263,5.526416,17.430296,-0.007236,-0.620449,56.884544,-1.088523,-3.407748,0.879003,0.475793,-0.022510,-0.021622
6938,0.162759,8.262269,5.493407,14.762631,1.108314,-1.656969,57.421177,-1.046675,-3.412982,0.876763,0.479914,-0.022312,-0.021731
6939,0.156669,8.311494,5.425098,12.910517,1.930265,-1.889914,57.882187,-0.969625,-3.401893,0.874822,0.483460,-0.021765,-0.021882
6940,0.134159,8.389825,5.370039,12.126263,2.657842,-2.626645,58.299053,-0.865285,-3.376797,0.873056,0.486671,-0.020943,-0.022055
6941,0.110240,8.437887,5.317677,12.212793,2.506926,-2.828811,58.704334,-0.742778,-3.350941,0.871325,0.489791,-0.019979,-0.022308
6942,0.097341,8.446807,5.279706,12.626052,1.489610,-2.282840,59.118160,-0.635435,-3.337892,0.869545,0.492963,-0.019189,-0.022599
6943,0.093100,8.456510,5.179348,13.933674,0.867516,-2.425795,59.560875,-0.547914,-3.344085,0.867625,0.496339,-0.018640,-0.022951
6944,0.070563,8.478677,5.131530,14.974991,1.093099,-2.818322,60.042828,-0.455959,-3.359791,0.865518,0.500004,-0.018111,-0.023392
6945,0.080243,8.533484,5.018788,16.339437,0.798687,-2.268038,60.564835,-0.366701,-3.374408,0.863219,0.503960,-0.017609,-0.023812
6946,0.063601,8.578870,4.963069,16.228094,0.389487,-1.667670,61.107693,-0.299771,-3.389048,0.860812,0.508057,-0.017284,-0.024136
6947,0.043332,8.655638,4.843948,16.652546,-0.043092,-0.430607,61.655746,-0.266311,-3.400702,0.858366,0.512174,-0.017201,-0.024289
6948,0.042874,8.763977,4.741983,16.559467,-0.759762,1.183840,62.209290,-0.283676,-3.406549,0.855882,0.516310,-0.017474,-0.024172
6949,0.056837,8.831362,4.601815,17.462784,-1.731354,2.198668,62.776386,-0.352847,-3.417266,0.853322,0.520521,-0.018157,-0.023850
6950,0.061747,8.831105,4.517071,17.724958,-1.585215,2.347463,63.362934,-0.445448,-3.432180,0.850654,0.524858,-0.019034,-0.023443
6951,0.084485,8.828483,4.377345,18.503420,-0.968826,2.282576,63.966751,-0.533478,-3.436095,0.847885,0.529311,-0.019827,-0.022965
6952,0.108636,8.851911,4.298558,19.316278,-0.039705,1.369312,64.596954,-0.595583,-3.424847,0.844970,0.533953,-0.020358,-0.022483
6953,0.109801,8.869743,4.197678,20.967512,0.895505,0.231740,65.268082,-0.613689,-3.400680,0.841835,0.538892,-0.020509,-0.022101
6954,0.098818,8.918461,4.136872,21.308443,1.463455,-0.052883,65.972275,-0.600160,-3.363711,0.838513,0.544065,-0.020370,-0.021768
6955,0.087611,9.027153,3.997597,21.850132,1.094945,-0.754043,66.691208,-0.570706,-3.330081,0.835087,0.549328,-0.020130,-0.021536
6956,0.081425,9.150572,3.921280,21.465715,0.993366,-1.339810,67.412933,-0.525035,-3.311661,0.831609,0.554591,-0.019845,-0.021496
6957,0.093837,9.157414,3.798818,21.189707,0.209172,-0.143352,68.123749,-0.494588,-3.302490,0.828151,0.559747,-0.019713,-0.021455
6958,0.110578,9.165549,3.716800,19.796942,-0.752012,0.970204,68.806862,-0.510742,-3.305775,0.824801,0.564670,-0.019973,-0.021281
6959,0.138181,9.210376,3.558494,19.530745,-1.343214,0.646712,69.462509,-0.548385,-3.328737,0.821557,0.569367,-0.020479,-0.021144
6960,0.152987,9.252408,3.486243,19.311977,-1.304354,1.902664,70.110138,-0.603535,-3.355469,0.818327,0.573983,-0.021125,-0.020943
6961,0.168393,9.313174,3.378049,20.541956,-1.864866,3.669923,70.774559,-0.708709,-3.374095,0.814993,0.578690,-0.022088,-0.020421
6962,0.170114,9.403455,3.267128,20.642637,-1.707971,3.713591,71.461166,-0.844407,-3.390534,0.811522,0.583526,-0.023255,-0.019713
6963,0.184716,9.449738,3.119791,20.578459,-1.353207,3.762933,72.148315,-0.978702,-3.400095,0.808020,0.588346,-0.024368,-0.018951
6964,0.194023,9.470679,3.059057,18.178499,-1.033203,3.778489,72.794243,-1.110512,-3.400168,0.804702,0.592858,-0.025400,-0.018131
6965,0.224155,9.474924,2.983436,15.195932,-0.820448,3.092566,73.350380,-1.229044,-3.396360,0.801826,0.596726,-0.026297,-0.017363
6966,0.249237,9.422093,2.880985,10.056855,-0.854862,3.670087,73.771141,-1.345045,-3.391245,0.799639,0.599637,-0.027143,-0.016623
6967,0.272350,9.437103,2.816298,7.540609,-0.557165,3.330036,74.064178,-1.463660,-3.381475,0.798113,0.601650,-0.027960,-0.015863
6968,0.280010,9.489671,2.772813,6.286817,-0.347568,2.242527,74.294365,-1.557123,-3.370646,0.796910,0.603229,-0.028584,-0.015239
6969,0.292306,9.526625,2.713663,7.360635,-0.549409,2.240309,74.521660,-1.633106,-3.364971,0.795717,0.604789,-0.029112,-0.014741
6970,0.288816,9.522170,2.667939,7.882490,-0.675089,2.251964,74.775711,-1.710711,-3.364835,0.794379,0.606530,-0.029681,-0.014264
6971,0.288705,9.570766,2.626974,8.715002,-0.989871,1.875069,75.052605,-1.784349,-3.373732,0.792913,0.608424,-0.030272,-0.013863
6972,0.292030,9.587483,2.544089,11.845958,-1.563656,1.287285,75.396164,-1.846173,-3.401466,0.791085,0.610774,-0.030888,-0.013633
6973,0.309378,9.581699,2.484046,12.647112,-2.101386,1.778872,75.805885,-1.910870,-3.447972,0.788894,0.613566,-0.031631,-0.013496
6974,0.322974,9.556038,2.420968,12.005881,-2.349477,1.740973,76.218727,-1.985734,-3.505792,0.786675,0.616366,-0.032503,-0.013376
6975,0.341767,9.588538,2.373153,11.559507,-2.342843,1.022140,76.613762,-2.048874,-3.571028,0.784541,0.619036,-0.033334,-0.013369
6976,0.362514,9.598228,2.303013,13.357423,-2.243643,0.326917,77.031540,-2.088199,-3.640393,0.782273,0.621860,-0.034027,-0.013507
6978,0.362183,9.612652,2.235251,14.467468,-2.375832,0.426130,77.497925,-2.117405,-3.712797,0.779728,0.625007,-0.034675,-0.013701
6979,0.360382,9.622496,2.131684,16.703094,-2.671257,0.103374,78.020439,-2.143862,-3.793185,0.776862,0.628523,-0.035357,-0.013943
6980,0.362846,9.670585,1.976168,20.120892,-3.004270,0.144831,78.637596,-2.167047,-3.885059,0.773456,0.632661,-0.036095,-0.014244
6981,0.347363,9.681442,1.787396,23.825390,-3.286485,-0.320177,79.373940,-2.184164,-3.988610,0.769363,0.637580,-0.036877,-0.014612
6982,0.325172,9.699859,1.616319,25.993551,-2.845584,-1.825589,80.208267,-2.167073,-4.095627,0.764685,0.643135,-0.037469,-0.015153
6983,0.314817,9.719384,1.488956,25.694115,-2.058914,-3.394296,81.073196,-2.094503,-4.190579,0.759790,0.648883,-0.037640,-0.015911
6984,0.306393,9.709869,1.364346,24.696344,-1.377399,-4.102424,81.915642,-1.979379,-4.265849,0.754978,0.654466,-0.037428,-0.016788
6985,0.295843,9.671633,1.249285,23.092243,-0.324384,-4.924948,82.713669,-1.834046,-4.314159,0.750379,0.659742,-0.036871,-0.017681
6986,0.281764,9.668321,1.128414,21.170931,0.591137,-4.627268,83.451805,-1.675426,-4.328997,0.746093,0.664610,-0.036039,-0.018461
6987,0.287221,9.730980,1.035339,20.099781,0.913095,-2.659591,84.139267,-1.551937,-4.317206,0.742078,0.669118,-0.035281,-0.018890
6988,0.286257,9.764246,0.916911,20.375532,1.214266,-1.067740,84.813049,-1.486667,-4.287798,0.738127,0.673499,-0.034799,-0.018877
6989,0.299185,9.823558,0.790239,19.917902,1.863983,0.950724,85.483261,-1.480364,-4.236750,0.734183,0.677822,-0.034566,-0.018383
6990,0.312228,9.878774,0.693704,18.616199,2.012482,2.662149,86.123650,-1.535647,-4.167792,0.730401,0.681918,-0.034610,-0.017421
6991,0.337823,9.932398,0.652470,15.504447,2.098189,3.596764,86.690239,-1.635442,-4.092768,0.727045,0.685513,-0.034880,-0.016176
6992,0.352179,9.899560,0.542426,13.144291,1.465894,6.154588,87.165642,-1.794521,-4.024651,0.724222,0.688494,-0.035541,-0.014644
6993,0.350096,9.857814,0.519349,7.547471,0.928827,4.570764,87.508911,-1.971233,-3.976336,0.722181,0.690620,-0.036406,-0.013167
6994,0.339863,9.842494,0.452562,6.680467,0.430983,1.580442,87.745079,-2.072721,-3.949397,0.720769,0.692082,-0.036908,-0.012308
6995,0.332697,9.844884,0.380004,5.429919,0.221813,0.207685,87.946487,-2.102102,-3.937442,0.719556,0.693342,-0.037042,-0.011990
6996,0.308782,9.819489,0.341551,6.086594,0.178947,-3.990792,88.138260,-2.038861,-3.932935,0.718389,0.694568,-0.036639,-0.012284
6997,0.295289,9.822729,0.274781,8.320239,0.932474,-7.024136,88.377945,-1.854805,-3.920048,0.716917,0.696131,-0.035436,-0.013246
6998,0.251156,9.934538,0.206359,6.137552,2.159333,-7.603627,88.617531,-1.609734,-3.874931,0.715438,0.697717,-0.033660,-0.014384
6999,0.221956,9.855359,0.197217,7.839533,2.721863,-9.249649,88.848549,-1.327090,-3.799834,0.714005,0.699260,-0.031471,-0.015574
7000,0.168783,9.820634,0.254054,7.616593,3.395756,-10.567635,89.104195,-0.995038,-3.703765,0.712411,0.700965,-0.028855,-0.016939
7001,0.128852,9.839296,0.167970,8.207359,3.514525,-10.228741,89.366341,-0.646918,-3.593251,0.710770,0.702703,-0.026058,-0.018323
7002,0.076700,9.835769,0.206075,7.650652,3.270983,-8.935410,89.629684,-0.326544,-3.482938,0.709119,0.704428,-0.023440,-0.019550
7003,0.083578,9.771088,0.174056,8.073881,1.995594,-6.636497,89.891457,-0.066652,-3.396236,0.707477,0.706114,-0.021346,-0.020563
7004,0.054149,9.877129,0.139896,1.259079,0.413755,-2.415866,90.047028,0.084214,-3.356110,0.706498,0.707109,-0.020196,-0.021218
7005,0.038103,9.937724,0.026552,3.712565,-1.605141,0.431633,90.129852,0.117317,-3.375942,0.705977,0.707621,-0.020130,-0.021530
7006,0.036268,9.897598,0.035409,2.036546,-2.960882,2.671064,90.225555,0.065833,-3.452180,0.705381,0.708188,-0.020936,-0.021664
7007,0.027992,9.831092,-0.016884,3.383470,-4.360666,3.096394,90.315872,-0.029732,-3.574636,0.704818,0.708703,-0.022298,-0.021810
7008,0.026874,9.790284,-0.058382,4.593346,-4.545826,2.498640,90.449013,-0.121986,-3.723703,0.703983,0.709473,-0.023813,-0.022128
7009,0.032202,9.796311,-0.076737,4.045066,-4.124501,1.490315,90.593369,-0.187140,-3.868821,0.703073,0.710314,-0.025140,-0.022585
7010,0.043597,9.755548,-0.061854,4.017233,-3.697314,0.979712,90.728203,-0.226802,-3.999660,0.702219,0.711103,-0.026222,-0.023111
7011,0.028387,9.760798,-0.136372,7.223285,-3.970744,-0.606785,90.916054,-0.231179,-4.127541,0.701027,0.712222,-0.027081,-0.023823
7012,0.028168,9.836894,-0.205842,7.870975,-4.344747,-0.917158,91.168129,-0.203238,-4.265670,0.699423,0.713736,-0.027823,-0.024780
7013,0.023509,9.756395,-0.356487,12.505798,-4.450881,-0.840497,91.508209,-0.170528,-4.411544,0.697262,0.715780,-0.028609,-0.025790
7014,0.009611,9.760057,-0.377715,10.324709,-3.496618,-2.470606,91.889038,-0.111396,-4.542294,0.694836,0.718075,-0.029155,-0.026858
7015,-0.005132,9.806645,-0.416170,6.127635,-2.627065,-2.956766,92.163322,-0.017381,-4.641145,0.693068,0.719734,-0.029272,-0.027976
7016,0.005968,9.864212,-0.402366,0.503338,-1.172737,-1.679784,92.273819,0.062276,-4.701475,0.692338,0.720406,-0.029197,-0.028813
7017,0.010041,9.854756,-0.367083,-3.591267,0.362569,-0.177536,92.222336,0.093724,-4.713775,0.692650,0.720100,-0.029071,-0.029099
7018,0.000158,9.943550,-0.222144,-5.828783,1.257529,-0.200211,92.065384,0.098996,-4.686571,0.693642,0.719158,-0.028828,-0.029007
7019,0.004627,9.881316,-0.213121,-5.754519,1.199963,1.145438,91.872391,0.081838,-4.646180,0.694866,0.717995,-0.028630,-0.028703
7020,0.015341,9.864565,-0.208068,-8.890122,1.178971,2.350799,91.628342,0.022386,-4.608349,0.696419,0.716509,-0.028694,-0.028162
7021,0.019834,9.837633,-0.193583,-6.640141,1.029748,2.005747,91.369492,-0.051151,-4.573457,0.698062,0.714925,-0.028861,-0.027555
7022,0.013748,9.833520,-0.148737,-5.570571,1.172370,0.473835,91.165947,-0.093282,-4.537684,0.699350,0.713682,-0.028846,-0.027126
7023,0.021167,9.856726,-0.162634,-3.246932,1.116027,-0.040074,91.018913,-0.101243,-4.499670,0.700276,0.712792,-0.028623,-0.026881
7024,0.015189,9.867182,-0.148668,-2.783873,0.936227,-0.502910,90.918343,-0.092779,-4.465313,0.700907,0.712187,-0.028334,-0.026749
7025,0.005591,9.872090,-0.135960,-2.554397,1.175496,-1.030628,90.829323,-0.067759,-4.429728,0.701463,0.711657,-0.027939,-0.026708
7026,-0.007551,9.865809,-0.132810,-2.298941,1.370605,-1.561356,90.748405,-0.025150,-4.386699,0.701965,0.711182,-0.027392,-0.026729
7027,-0.012687,9.856977,-0.116735,-2.449884,1.092119,-1.444417,90.669250,0.024432,-4.345033,0.702454,0.710719,-0.026812,-0.026800
7028,-0.023088,9.847000,-0.100151,-2.053606,0.861228,-1.625610,90.594223,0.075239,-4.311916,0.702915,0.710278,-0.026277,-0.026929
7029,-0.019267,9.874993,-0.118704,-0.529203,0.790404,-1.455402,90.551224,0.126312,-4.283875,0.703176,0.710032,-0.025780,-0.027083
7030,-0.019187,9.852478,-0.076113,-2.033317,0.545988,-1.254230,90.508575,0.171262,-4.261179,0.703435,0.709785,-0.025353,-0.027232
7031,-0.019604,9.845795,-0.048269,-2.741832,0.275298,-0.908542,90.429031,0.207198,-4.247202,0.703922,0.709308,-0.025027,-0.027386
7032,-0.024293,9.836869,-0.063878,-1.139685,0.187413,-0.670983,90.364372,0.233471,-4.239311,0.704318,0.708918,-0.024801,-0.027514
7033,-0.025702,9.840181,-0.052222,-1.103798,0.225572,-0.571806,90.327019,0.254142,-4.232303,0.704545,0.708694,-0.024622,-0.027607
7034,-0.022255,9.825293,-0.043690,-1.144328,0.205026,0.024194,90.289574,0.263230,-4.225076,0.704776,0.708467,-0.024512,-0.027627
7035,-0.023659,9.860733,-0.064765,0.197654,0.220866,0.448917,90.273834,0.255310,-4.218019,0.704877,0.708370,-0.024514,-0.027538
7036,-0.029919,9.876405,-0.070097,0.618218,0.019030,0.304345,90.287445,0.242735,-4.214083,0.704797,0.708452,-0.024570,-0.027433
7037,-0.030212,9.880469,-0.087464,1.504390,-0.170937,0.263993,90.322807,0.233276,-4.216666,0.704580,0.708667,-0.024652,-0.027383
7038,-0.034632,9.891070,-0.090703,1.587037,-0.163868,0.392453,90.374298,0.222369,-4.222312,0.704263,0.708980,-0.024767,-0.027339
7039,-0.037976,9.873259,-0.065175,0.289061,-0.064899,0.467531,90.405563,0.208063,-4.226223,0.704072,0.709168,-0.024886,-0.027268
7040,-0.042038,9.855721,-0.065570,0.277939,-0.122822,0.252599,90.414993,0.196083,-4.229435,0.704016,0.709223,-0.024982,-0.027211
7041,-0.037206,9.856199,-0.077172,0.732672,-0.011966,0.341876,90.431824,0.186192,-4.231755,0.703913,0.709324,-0.025061,-0.027161
7042,-0.039525,9.856349,-0.065887,0.056381,0.214801,0.118310,90.444992,0.178497,-4.228434,0.703834,0.709404,-0.025091,-0.027090
7043,-0.028732,9.847533,-0.091458,1.285864,0.332966,0.406377,90.467392,0.169680,-4.219374,0.703700,0.709541,-0.025094,-0.026975
7044,-0.031957,9.862493,-0.107337,1.793941,0.279341,-0.242304,90.518745,0.166857,-4.209192,0.703385,0.709858,-0.025061,-0.026883
7045,-0.027636,9.862111,-0.090267,0.646463,0.353568,-0.311325,90.559448,0.175984,-4.198561,0.703133,0.710112,-0.024948,-0.026866
7046,-0.018111,9.860473,-0.101056,0.847503,0.475158,0.323239,90.584389,0.175649,-4.184752,0.702982,0.710268,-0.024871,-0.026774
7047,-0.009540,9.860028,-0.104876,0.596850,0.454957,0.876120,90.608505,0.155499,-4.169457,0.702841,0.710415,-0.024905,-0.026550
7048,-0.010349,9.848384,-0.069677,-1.443590,0.361244,0.685978,90.594421,0.129323,-4.156126,0.702937,0.710326,-0.024980,-0.026309
7049,-0.010505,9.848976,-0.067753,-1.585564,0.322980,0.847800,90.543968,0.103650,-4.144973,0.703258,0.710013,-0.025057,-0.026092
7050,-0.017211,9.847342,-0.083657,-0.578465,0.144893,0.600314,90.507896,0.079445,-4.137396,0.703489,0.709788,-0.025150,-0.025904
7051,-0.022757,9.832457,-0.083482,-0.258718,-0.009621,0.165242,90.493942,0.066666,-4.135255,0.703579,0.709701,-0.025212,-0.025814
7052,-0.022787,9.846399,-0.069777,-1.027104,0.074474,0.082933,90.472519,0.062521,-4.134209,0.703713,0.709568,-0.025226,-0.025787
7053,-0.022966,9.851453,-0.079191,-0.303400,0.007907,-0.005338,90.450356,0.061217,-4.132846,0.703851,0.709432,-0.025221,-0.025775
7054,-0.020102,9.854750,-0.081557,-0.198803,-0.071471,0.142178,90.441986,0.058944,-4.133924,0.703903,0.709380,-0.025240,-0.025770
7055,-0.013867,9.859664,-0.095193,0.127827,0.004648,0.565361,90.440788,0.047161,-4.135128,0.703912,0.709370,-0.025319,-0.025705
7056,-0.002450,9.869461,-0.072957,-1.032424,-0.006751,1.003469,90.425713,0.021015,-4.135362,0.704012,0.709271,-0.025478,-0.025548
7057,0.009035,9.852468,-0.071263,-0.790986,-0.069940,1.383349,90.395340,-0.018755,-4.136923,0.704208,0.709076,-0.025725,-0.025318
7058,0.015747,9.849301,-0.076556,-0.579768,-0.149737,1.530295,90.372490,-0.067290,-4.140911,0.704359,0.708923,-0.026043,-0.025047
