seq,ax,ay,az,wroll,wpitch,wyaw,roll,pitch,yaw,q0,q1,q2,q3
6715,6.906510,6.968955,0.123910,-0.042968,-0.099422,0.047154,88.981369,-44.737629,-88.552948,0.658510,0.274470,-0.646801,-0.269590
6717,6.906878,6.971913,0.134139,-0.033967,-0.104139,0.039231,88.976448,-44.738186,-88.552788,0.658523,0.274440,-0.646791,-0.269614
6718,6.910797,6.970327,0.129875,-0.029469,-0.101007,0.042284,88.968140,-44.739586,-88.550087,0.658553,0.274399,-0.646768,-0.269637
6719,6.912715,6.975448,0.124716,-0.041700,-0.108614,0.051451,88.967354,-44.741894,-88.552834,0.658553,0.274366,-0.646779,-0.269644
6720,6.905073,6.963903,0.125688,-0.038644,-0.110144,0.057564,88.970116,-44.744392,-88.558289,0.658539,0.274337,-0.646805,-0.269646
6721,6.899194,6.971653,0.118212,-0.027927,-0.097971,0.072775,88.977165,-44.743507,-88.566467,0.658501,0.274336,-0.646839,-0.269658
6722,6.901218,6.969618,0.121266,-0.017192,-0.093445,0.069625,88.986588,-44.739426,-88.575859,0.658448,0.274361,-0.646873,-0.269682
6724,6.895711,6.968702,0.121651,-0.021745,-0.101097,0.071056,88.992386,-44.735512,-88.582680,0.658409,0.274378,-0.646893,-0.269711
6725,6.896669,6.966872,0.123600,-0.009535,-0.098047,0.060279,88.995491,-44.731457,-88.587563,0.658381,0.274391,-0.646902,-0.269744
6726,6.901602,6.972217,0.125486,0.004177,-0.091920,0.063259,88.995560,-44.728752,-88.589897,0.658369,0.274394,-0.646901,-0.269773
6727,6.908274,6.964906,0.127190,0.008711,-0.099507,0.057162,88.993202,-44.731224,-88.590324,0.658379,0.274364,-0.646903,-0.269775
6728,6.910132,6.966243,0.130113,0.002540,-0.094865,0.066400,88.987831,-44.738735,-88.588692,0.658413,0.274299,-0.646905,-0.269753
6729,6.907945,6.967372,0.131035,-0.006696,-0.090208,0.057299,88.980072,-44.744427,-88.585449,0.658452,0.274241,-0.646893,-0.269745
6731,6.906632,6.967344,0.130649,-0.026608,-0.082504,0.051211,88.972374,-44.747177,-88.582436,0.658484,0.274198,-0.646875,-0.269756
6732,6.901322,6.972001,0.128494,-0.038867,-0.085503,0.032844,88.967148,-44.744957,-88.581505,0.658493,0.274186,-0.646855,-0.269793
6733,6.902652,6.972251,0.127433,-0.046524,-0.094630,0.022063,88.965141,-44.739162,-88.583206,0.658481,0.274197,-0.646839,-0.269847
6734,6.894500,6.978684,0.121004,-0.049558,-0.093118,0.014272,88.968903,-44.729134,-88.589195,0.658435,0.274242,-0.646838,-0.269917
6735,6.895634,6.974402,0.121396,-0.040355,-0.103844,0.003403,88.976944,-44.716988,-88.598228,0.658367,0.274307,-0.646848,-0.269993
6736,6.899080,6.977488,0.120487,-0.028106,-0.106936,0.012427,88.984909,-44.708664,-88.607132,0.658309,0.274349,-0.646867,-0.270047
6738,6.906734,6.963882,0.118367,-0.026532,-0.110034,0.030745,88.993828,-44.709961,-88.616608,0.658268,0.274340,-0.646914,-0.270043
6739,6.906820,6.969162,0.124021,-0.038722,-0.107002,0.030844,88.998627,-44.717651,-88.623306,0.658258,0.274286,-0.646961,-0.270011
6740,6.908548,6.965356,0.124302,-0.043321,-0.111559,0.026356,88.997993,-44.724609,-88.626396,0.658268,0.274225,-0.646984,-0.269992
6741,6.911438,6.963208,0.125564,-0.038776,-0.108478,0.041741,88.995903,-44.734154,-88.628479,0.658289,0.274147,-0.647008,-0.269962
6742,6.905544,6.964609,0.125574,-0.046444,-0.120649,0.041834,88.993248,-44.741787,-88.630310,0.658309,0.274078,-0.647025,-0.269944
6743,6.905142,6.967628,0.125560,-0.046478,-0.125193,0.031170,88.991196,-44.744137,-88.632843,0.658313,0.274039,-0.647032,-0.269957
6745,6.901416,6.966115,0.119229,-0.028166,-0.114512,0.034197,88.994110,-44.743614,-88.638596,0.658291,0.274026,-0.647051,-0.269976
6746,6.906892,6.964966,0.123067,-0.031202,-0.120630,0.043347,88.998817,-44.744682,-88.645378,0.658266,0.274009,-0.647081,-0.269982
6747,6.908749,6.969077,0.123333,-0.032742,-0.111462,0.041838,88.999969,-44.747322,-88.649666,0.658260,0.273976,-0.647101,-0.269986
6748,6.907708,6.974415,0.123784,-0.035811,-0.102288,0.044859,88.999863,-44.746704,-88.652908,0.658251,0.273961,-0.647107,-0.270008
6749,6.906727,6.985332,0.122899,-0.046508,-0.094641,0.061516,88.999680,-44.740002,-88.656052,0.658229,0.273980,-0.647097,-0.270066
6750,6.904776,6.982192,0.128414,-0.049598,-0.111384,0.068971,88.996338,-44.730610,-88.657234,0.658213,0.274007,-0.647069,-0.270145
6752,6.903683,6.977841,0.125270,-0.043544,-0.100652,0.070366,88.991730,-44.724197,-88.657570,0.658208,0.274016,-0.647043,-0.270209
6753,6.898309,6.979232,0.122398,-0.052713,-0.100637,0.073289,88.991631,-44.717983,-88.660980,0.658187,0.274031,-0.647035,-0.270265
6754,6.904925,6.978421,0.121555,-0.043548,-0.108273,0.076230,88.994598,-44.713181,-88.666649,0.658155,0.274043,-0.647044,-0.270308
6755,6.902829,6.970607,0.125029,-0.031348,-0.114369,0.071623,88.996002,-44.713757,-88.671104,0.658143,0.274023,-0.647059,-0.270322
6756,6.903217,6.969329,0.124316,-0.032899,-0.099085,0.070111,88.995071,-44.717094,-88.673706,0.658146,0.273984,-0.647071,-0.270324
6757,6.900571,6.969168,0.125112,-0.032925,-0.102111,0.073168,88.993805,-44.719837,-88.675941,0.658150,0.273948,-0.647081,-0.270328
6759,6.903163,6.969818,0.127689,-0.032967,-0.102069,0.076214,88.990456,-44.721970,-88.676743,0.658161,0.273913,-0.647080,-0.270339
6760,6.898554,6.961608,0.131238,-0.034565,-0.091316,0.059446,88.983002,-44.725327,-88.674553,0.658192,0.273863,-0.647066,-0.270350
6761,6.894258,6.964291,0.127178,-0.048362,-0.082099,0.044179,88.976151,-44.726494,-88.672745,0.658215,0.273827,-0.647048,-0.270371
6762,6.899569,6.970674,0.126657,-0.056020,-0.083595,0.038020,88.973259,-44.724201,-88.673874,0.658214,0.273817,-0.647038,-0.270407
6763,6.900682,6.982471,0.129423,-0.054528,-0.082034,0.021121,88.969780,-44.717602,-88.674667,0.658206,0.273830,-0.647015,-0.270469
6764,6.905511,6.976012,0.124946,-0.049968,-0.083539,0.014917,88.968163,-44.711594,-88.676712,0.658191,0.273844,-0.647001,-0.270524
6766,6.909297,6.977496,0.127060,-0.053025,-0.089638,0.022534,88.968689,-44.711365,-88.680328,0.658181,0.273828,-0.647011,-0.270543
6767,6.914230,6.977178,0.134622,-0.042398,-0.107896,0.037826,88.963211,-44.714588,-88.679916,0.658202,0.273780,-0.647005,-0.270553
6768,6.912101,6.975852,0.133863,-0.039432,-0.123071,0.045509,88.954254,-44.719448,-88.677292,0.658241,0.273716,-0.646990,-0.270561
6769,6.911985,6.962782,0.129672,-0.045588,-0.123020,0.047139,88.949890,-44.727982,-88.678116,0.658268,0.273638,-0.647003,-0.270542
6770,6.904821,6.969226,0.138205,-0.056338,-0.127533,0.041119,88.943375,-44.735046,-88.677666,0.658301,0.273562,-0.647004,-0.270536
6771,6.904274,6.969190,0.134579,-0.061001,-0.127448,0.045689,88.934311,-44.735909,-88.675667,0.658329,0.273517,-0.646980,-0.270571
6773,6.902532,6.967395,0.132382,-0.059521,-0.113669,0.039564,88.930214,-44.735947,-88.677025,0.658336,0.273485,-0.646973,-0.270601
6774,6.905552,6.963742,0.134374,-0.051929,-0.102951,0.039576,88.927032,-44.738106,-88.678650,0.658345,0.273446,-0.646975,-0.270616
6775,6.900502,6.972036,0.135710,-0.045874,-0.104428,0.047182,88.922318,-44.737904,-88.678909,0.658355,0.273418,-0.646964,-0.270646
6776,6.899370,6.971981,0.130989,-0.027588,-0.107453,0.065391,88.921150,-44.733028,-88.681435,0.658341,0.273425,-0.646955,-0.270694
6777,6.897533,6.965665,0.131573,-0.018433,-0.107450,0.054631,88.923737,-44.729877,-88.686310,0.658316,0.273430,-0.646965,-0.270726
6778,6.897548,6.966351,0.129764,-0.012326,-0.104401,0.056108,88.927170,-44.728542,-88.691566,0.658292,0.273428,-0.646982,-0.270744
6780,6.894262,6.976545,0.131610,-0.012325,-0.108977,0.048363,88.930359,-44.722626,-88.696602,0.658259,0.273451,-0.646987,-0.270789
6781,6.894752,6.974469,0.132949,-0.013870,-0.119636,0.035992,88.931137,-44.713211,-88.700142,0.658228,0.273490,-0.646974,-0.270859
6782,6.896186,6.969698,0.129490,-0.026088,-0.122675,0.023687,88.932961,-44.707695,-88.704750,0.658200,0.273505,-0.646976,-0.270906
6783,6.897933,6.978139,0.133240,-0.041362,-0.127238,0.029709,88.934067,-44.703163,-88.709274,0.658177,0.273512,-0.646978,-0.270952
6784,6.901777,6.972715,0.129585,-0.052061,-0.127221,0.025074,88.934555,-44.700394,-88.713715,0.658159,0.273506,-0.646982,-0.270990
6785,6.898416,6.966122,0.127972,-0.059681,-0.119600,0.020514,88.937935,-44.702385,-88.720314,0.658139,0.273476,-0.647011,-0.270998
6787,6.904946,6.965060,0.124960,-0.064229,-0.104372,0.035847,88.943489,-44.708370,-88.728310,0.658121,0.273429,-0.647058,-0.270978
6788,6.907182,6.971193,0.130290,-0.056586,-0.101334,0.035930,88.946510,-44.715218,-88.734276,0.658115,0.273374,-0.647097,-0.270956
6789,6.905461,6.970891,0.125077,-0.038267,-0.084557,0.029868,88.948929,-44.719063,-88.739273,0.658106,0.273337,-0.647124,-0.270949
6790,6.901761,6.975728,0.127650,-0.033672,-0.084574,0.026792,88.952866,-44.718468,-88.744873,0.658082,0.273332,-0.647145,-0.270963
6791,6.902177,6.978772,0.129097,-0.024523,-0.086092,0.031284,88.953873,-44.713753,-88.748276,0.658061,0.273345,-0.647144,-0.271004
6792,6.899517,6.980236,0.129287,-0.016911,-0.095228,0.038798,88.953842,-44.707355,-88.750870,0.658040,0.273367,-0.647134,-0.271055
6794,6.901062,6.976744,0.125225,-0.019961,-0.089124,0.026496,88.956490,-44.702145,-88.755333,0.658012,0.273386,-0.647138,-0.271095
6795,6.902795,6.976864,0.121159,-0.022971,-0.095269,0.029502,88.964348,-44.700081,-88.763542,0.657969,0.273397,-0.647171,-0.271110
6796,6.902870,6.977351,0.123931,-0.025980,-0.084629,0.029471,88.972046,-44.699100,-88.771645,0.657929,0.273401,-0.647206,-0.271119
6797,6.906906,6.972648,0.122930,-0.032061,-0.086178,0.020330,88.976875,-44.701069,-88.777740,0.657908,0.273383,-0.647237,-0.271115
6798,6.909297,6.970385,0.125629,-0.038159,-0.086185,0.008207,88.979256,-44.707188,-88.782272,0.657905,0.273336,-0.647269,-0.271093
6799,6.909195,6.972400,0.130926,-0.045831,-0.086146,0.018975,88.975319,-44.713444,-88.782524,0.657928,0.273277,-0.647276,-0.271081
6801,6.907336,6.966672,0.132471,-0.041328,-0.092175,0.019056,88.966835,-44.719410,-88.779678,0.657969,0.273210,-0.647264,-0.271078
6802,6.910367,6.961103,0.127116,-0.039851,-0.095181,0.019185,88.962090,-44.728657,-88.779510,0.658001,0.273131,-0.647275,-0.271052
6803,6.911781,6.965072,0.124843,-0.041378,-0.089080,0.022378,88.963608,-44.738827,-88.783699,0.658011,0.273059,-0.647314,-0.271009
6804,6.909804,6.964079,0.121555,-0.036770,-0.073851,0.022477,88.968933,-44.746223,-88.790276,0.657999,0.273010,-0.647360,-0.270975
6805,6.911837,6.966547,0.119417,-0.024509,-0.075432,0.022546,88.977478,-44.751724,-88.798775,0.657971,0.272980,-0.647415,-0.270944
6806,6.910947,6.964244,0.125311,-0.019906,-0.081562,0.025657,88.982719,-44.756516,-88.804825,0.657955,0.272948,-0.647453,-0.270922
6808,6.910739,6.966944,0.128917,-0.018412,-0.090687,0.028747,88.980644,-44.759983,-88.805847,0.657966,0.272911,-0.647459,-0.270919
6809,6.912645,6.965946,0.130762,-0.024578,-0.092151,0.037931,88.974693,-44.762939,-88.804314,0.657990,0.272868,-0.647449,-0.270927
6810,6.914610,6.960643,0.132737,-0.023130,-0.105809,0.041055,88.966888,-44.769039,-88.801697,0.658029,0.272804,-0.647439,-0.270922
6811,6.910743,6.958329,0.128695,-0.020137,-0.114907,0.036567,88.961983,-44.776337,-88.801346,0.658058,0.272736,-0.647445,-0.270906
6812,6.908647,6.967911,0.123213,-0.023190,-0.117958,0.039623,88.964973,-44.778011,-88.806702,0.658042,0.272713,-0.647469,-0.270910
6813,6.908494,6.966478,0.118513,-0.013980,-0.131745,0.050246,88.975578,-44.775661,-88.817535,0.657986,0.272726,-0.647514,-0.270926
6814,6.903071,6.965057,0.113356,-0.004729,-0.133365,0.047121,88.992332,-44.772610,-88.832680,0.657903,0.272754,-0.647582,-0.270936
6815,6.904229,6.968567,0.112767,-0.001568,-0.130419,0.033289,89.010948,-44.767555,-88.848961,0.657809,0.272798,-0.647653,-0.270953
6816,6.906899,6.968430,0.119082,-0.009141,-0.118266,0.036254,89.022408,-44.763123,-88.860085,0.657745,0.272826,-0.647695,-0.270977
6817,6.912226,6.962148,0.121724,-0.016779,-0.115205,0.030152,89.024658,-44.764351,-88.864723,0.657732,0.272806,-0.647714,-0.270984
6818,6.912205,6.961349,0.124015,-0.033607,-0.099904,0.018013,89.021591,-44.769753,-88.865692,0.657749,0.272752,-0.647723,-0.270976
6819,6.914678,6.960263,0.128280,-0.048945,-0.095251,0.019622,89.013206,-44.775875,-88.863052,0.657789,0.272684,-0.647712,-0.270973
6820,6.910277,6.962881,0.131690,-0.052105,-0.099721,0.027303,89.000221,-44.779961,-88.857399,0.657842,0.272618,-0.647678,-0.270991
6821,6.908473,6.966317,0.128637,-0.044573,-0.107254,0.034907,88.989113,-44.779236,-88.853142,0.657877,0.272583,-0.647640,-0.271033
6822,6.906744,6.973360,0.125215,-0.053777,-0.104152,0.043960,88.984604,-44.773731,-88.853600,0.657874,0.272585,-0.647617,-0.271093
6823,6.907359,6.980127,0.125814,-0.053799,-0.120912,0.054469,88.983589,-44.763981,-88.856796,0.657847,0.272617,-0.647598,-0.271172
6824,6.907013,6.979998,0.124964,-0.046187,-0.122418,0.043603,88.983711,-44.753330,-88.860909,0.657813,0.272655,-0.647581,-0.271256
6825,6.909910,6.978886,0.124658,-0.053826,-0.114776,0.051092,88.984581,-44.745640,-88.865486,0.657783,0.272678,-0.647575,-0.271321
6826,6.913466,6.974984,0.122923,-0.066035,-0.107145,0.043405,88.986122,-44.743416,-88.870583,0.657762,0.272671,-0.647585,-0.271355
6827,6.911491,6.969252,0.124226,-0.044672,-0.110196,0.031211,88.987701,-44.745533,-88.875557,0.657751,0.272640,-0.647606,-0.271362
6828,6.906215,6.960194,0.124873,-0.027902,-0.096449,0.025158,88.988007,-44.749912,-88.879051,0.657752,0.272597,-0.647626,-0.271356
6829,6.902395,6.957572,0.126376,-0.027929,-0.105578,0.038946,88.986702,-44.754707,-88.881172,0.657761,0.272550,-0.647640,-0.271348
6830,6.901893,6.959423,0.126122,-0.020333,-0.110123,0.038971,88.984978,-44.757744,-88.883064,0.657768,0.272512,-0.647648,-0.271351
6831,6.898964,6.955867,0.124871,-0.006624,-0.114676,0.035926,88.985031,-44.759480,-88.886055,0.657764,0.272485,-0.647659,-0.271358
6832,6.904722,6.961119,0.127857,-0.028020,-0.111594,0.037459,88.983948,-44.761192,-88.888367,0.657765,0.272456,-0.647667,-0.271368
6833,6.908713,6.970597,0.124293,-0.035675,-0.123774,0.032859,88.983185,-44.760887,-88.891350,0.657759,0.272437,-0.647671,-0.271391
6834,6.916193,6.971176,0.120330,-0.018877,-0.128366,0.031317,88.988297,-44.760929,-88.898552,0.657730,0.272425,-0.647700,-0.271403
6835,6.917350,6.973762,0.120707,-0.020372,-0.134499,0.025225,88.995972,-44.762791,-88.907516,0.657695,0.272408,-0.647745,-0.271400
6836,6.921304,6.962682,0.123454,-0.038678,-0.142135,0.025305,89.000252,-44.769054,-88.914490,0.657683,0.272358,-0.647787,-0.271381
6837,6.914367,6.963006,0.122002,-0.028007,-0.139075,0.022363,89.002457,-44.777237,-88.920143,0.657682,0.272292,-0.647826,-0.271354
6838,6.916544,6.957605,0.126030,-0.024982,-0.129895,0.034664,89.002319,-44.784454,-88.923843,0.657690,0.272229,-0.647852,-0.271335
6839,6.908316,6.960841,0.128284,-0.026570,-0.122204,0.034718,88.997414,-44.789200,-88.923958,0.657713,0.272173,-0.647852,-0.271336
6840,6.904666,6.960507,0.123880,-0.029670,-0.120630,0.039257,88.994202,-44.787937,-88.925209,0.657714,0.272155,-0.647845,-0.271369
6841,6.897802,6.969931,0.125181,-0.011384,-0.114499,0.052848,88.994034,-44.779953,-88.928329,0.657689,0.272182,-0.647832,-0.271433
6842,6.902342,6.961759,0.126004,-0.012943,-0.122092,0.054223,88.992996,-44.771744,-88.930672,0.657668,0.272209,-0.647815,-0.271499
6843,6.900655,6.963465,0.124885,-0.019080,-0.114428,0.040408,88.992065,-44.767887,-88.933167,0.657655,0.272212,-0.647809,-0.271541
6844,6.904279,6.961439,0.124955,-0.038942,-0.115928,0.035774,88.991486,-44.765511,-88.936142,0.657644,0.272205,-0.647809,-0.271575
6845,6.904385,6.960639,0.126767,-0.043555,-0.108264,0.035761,88.989189,-44.765816,-88.938141,0.657645,0.272179,-0.647809,-0.271597
6846,6.904315,6.966567,0.125788,-0.058851,-0.115856,0.034197,88.986298,-44.764519,-88.939941,0.657645,0.272160,-0.647803,-0.271631
6847,6.902879,6.967232,0.124917,-0.061926,-0.114305,0.029542,88.984978,-44.760437,-88.943138,0.657631,0.272157,-0.647797,-0.271680
6848,6.897676,6.970510,0.125057,-0.071098,-0.111236,0.044676,88.984276,-44.753323,-88.946854,0.657608,0.272173,-0.647787,-0.271746
6849,6.894741,6.972101,0.127531,-0.060446,-0.105100,0.049074,88.981880,-44.742973,-88.949249,0.657585,0.272204,-0.647761,-0.271832
6850,6.894807,6.967678,0.127301,-0.057432,-0.098956,0.044339,88.978195,-44.734032,-88.950432,0.657570,0.272227,-0.647733,-0.271911
6851,6.897116,6.968283,0.124449,-0.052872,-0.091305,0.039659,88.976974,-44.728687,-88.953102,0.657555,0.272236,-0.647723,-0.271964
6852,6.902956,6.972918,0.122255,-0.049811,-0.086738,0.039591,88.979622,-44.725506,-88.958260,0.657529,0.272240,-0.647734,-0.271996
6853,6.908153,6.977561,0.123062,-0.034533,-0.092858,0.031914,88.983543,-44.723557,-88.964127,0.657501,0.272240,-0.647752,-0.272019
6854,6.909778,6.979061,0.116822,-0.039068,-0.102055,0.030350,88.991135,-44.722179,-88.972626,0.657460,0.272244,-0.647787,-0.272033
6855,6.913432,6.983899,0.116395,-0.048154,-0.106702,0.036414,89.002396,-44.720848,-88.984024,0.657403,0.272251,-0.647838,-0.272042
6856,6.912332,6.984930,0.116855,-0.046570,-0.102182,0.024155,89.012024,-44.718517,-88.994377,0.657350,0.272261,-0.647879,-0.272060
6857,6.904357,6.979319,0.118410,-0.055689,-0.091533,0.037817,89.018105,-44.714931,-89.002129,0.657309,0.272273,-0.647903,-0.272091
6858,6.905107,6.975389,0.120240,-0.061787,-0.097643,0.028611,89.020103,-44.712646,-89.007133,0.657287,0.272269,-0.647914,-0.272121
6859,6.904736,6.975965,0.120473,-0.060270,-0.083900,0.027059,89.019791,-44.711941,-89.010490,0.657279,0.272252,-0.647920,-0.272146
6860,6.899697,6.970034,0.118225,-0.045012,-0.085425,0.025512,89.020729,-44.711407,-89.014374,0.657266,0.272239,-0.647930,-0.272166
6861,6.900538,6.969124,0.118966,-0.057213,-0.097638,0.036185,89.022850,-44.712029,-89.019218,0.657251,0.272220,-0.647948,-0.272179
6862,6.901712,6.968003,0.121882,-0.041969,-0.102201,0.028570,89.022499,-44.714066,-89.022491,0.657248,0.272188,-0.647960,-0.272188
6863,6.900185,6.962234,0.116925,-0.040449,-0.099144,0.037769,89.023636,-44.718166,-89.026627,0.657245,0.272148,-0.647983,-0.272182
6864,6.905088,6.967594,0.120859,-0.037398,-0.106773,0.046981,89.025543,-44.723370,-89.031303,0.657242,0.272102,-0.648011,-0.272168
6865,6.909226,6.968741,0.123824,-0.045066,-0.109787,0.056194,89.022636,-44.728970,-89.032768,0.657258,0.272046,-0.648022,-0.272161
6866,6.909318,6.963611,0.122391,-0.054268,-0.108218,0.056281,89.018448,-44.736629,-89.033539,0.657283,0.271974,-0.648032,-0.272145
6867,6.912592,6.965503,0.117867,-0.058857,-0.115838,0.056385,89.018799,-44.745510,-89.037750,0.657293,0.271901,-0.648065,-0.272117
6868,6.913385,6.965888,0.120772,-0.046648,-0.117366,0.047323,89.020874,-44.753494,-89.043182,0.657293,0.271837,-0.648103,-0.272091
6869,6.908375,6.960003,0.124913,-0.046687,-0.117329,0.035194,89.018066,-44.760105,-89.045059,0.657310,0.271772,-0.648117,-0.272080
6870,6.903754,6.958271,0.122784,-0.046736,-0.108126,0.026088,89.013718,-44.764412,-89.045753,0.657329,0.271719,-0.648119,-0.272084
6871,6.902893,6.962025,0.129147,-0.025441,-0.097378,0.018455,89.007111,-44.764923,-89.044373,0.657349,0.271686,-0.648101,-0.272111
6872,6.901005,6.963884,0.133688,-0.039289,-0.088106,0.015350,88.993805,-44.761894,-89.037949,0.657389,0.271663,-0.648047,-0.272166
6873,6.902155,6.961789,0.130701,-0.066868,-0.081892,0.022928,88.980148,-44.758972,-89.031586,0.657430,0.271638,-0.647992,-0.272224
6874,6.903640,6.961677,0.127474,-0.068456,-0.084882,0.029012,88.972420,-44.758469,-89.029694,0.657451,0.271607,-0.647968,-0.272259
6875,6.908727,6.969495,0.132973,-0.076144,-0.089400,0.024412,88.964989,-44.757900,-89.028206,0.657471,0.271576,-0.647945,-0.272296
6876,6.910028,6.977503,0.126230,-0.073136,-0.092409,0.025870,88.959923,-44.754169,-89.028542,0.657474,0.271566,-0.647925,-0.272348
6877,6.907587,6.975801,0.122453,-0.060907,-0.100058,0.037975,88.963608,-44.748543,-89.034966,0.657437,0.271583,-0.647935,-0.272396
6878,6.903620,6.978104,0.129486,-0.051746,-0.106164,0.047005,88.965752,-44.741604,-89.040222,0.657404,0.271605,-0.647935,-0.272453
6879,6.905912,6.971607,0.126409,-0.045662,-0.104617,0.040803,88.964989,-44.736599,-89.043304,0.657387,0.271612,-0.647928,-0.272504
6880,6.902000,6.964170,0.122257,-0.030388,-0.101580,0.042309,88.969147,-44.736752,-89.049538,0.657362,0.271600,-0.647954,-0.272515
6881,6.900224,6.953432,0.122971,-0.037987,-0.106189,0.040834,88.975334,-44.741600,-89.057137,0.657341,0.271564,-0.647998,-0.272496
6882,6.902366,6.954289,0.123249,-0.037970,-0.104681,0.039405,88.979782,-44.749496,-89.063637,0.657333,0.271508,-0.648044,-0.272464
6883,6.905581,6.950024,0.120545,-0.034895,-0.090972,0.028851,88.984772,-44.759159,-89.070312,0.657327,0.271444,-0.648095,-0.272419
6884,6.903120,6.952668,0.122423,-0.042505,-0.092520,0.038122,88.989243,-44.768162,-89.076530,0.657322,0.271383,-0.648143,-0.272378
6885,6.905056,6.955530,0.126790,-0.051677,-0.087928,0.047341,88.988380,-44.773800,-89.079147,0.657331,0.271331,-0.648161,-0.272365
6886,6.908129,6.956881,0.128530,-0.041046,-0.084826,0.053494,88.982964,-44.778721,-89.078445,0.657357,0.271276,-0.648159,-0.272364
6887,6.903806,6.963336,0.131089,-0.030434,-0.078655,0.044327,88.975418,-44.779575,-89.075874,0.657382,0.271243,-0.648137,-0.272387
6888,6.903014,6.969136,0.130459,-0.038132,-0.086214,0.050323,88.967857,-44.773914,-89.073288,0.657394,0.271246,-0.648099,-0.272447
6889,6.902463,6.977714,0.126935,-0.030539,-0.080071,0.051665,88.964615,-44.763424,-89.073753,0.657376,0.271285,-0.648066,-0.272528
6890,6.904491,6.980762,0.124555,-0.012226,-0.098380,0.045347,88.967087,-44.750763,-89.078087,0.657331,0.271347,-0.648051,-0.272611
6891,6.899354,6.980541,0.123498,-0.015257,-0.095344,0.051233,88.972519,-44.738007,-89.084503,0.657274,0.271414,-0.648048,-0.272690
6892,6.906699,6.973436,0.119791,-0.035055,-0.092329,0.057202,88.979973,-44.730865,-89.092545,0.657221,0.271452,-0.648067,-0.272734
6893,6.906792,6.974376,0.120755,-0.018224,-0.090847,0.060213,88.988037,-44.730228,-89.100990,0.657180,0.271454,-0.648104,-0.272741
6894,6.908961,6.969211,0.125144,-0.010587,-0.080173,0.058690,88.991295,-44.732449,-89.105621,0.657167,0.271434,-0.648128,-0.272736
6895,6.906708,6.962971,0.121140,-0.018220,-0.069490,0.063327,88.992851,-44.738464,-89.108803,0.657169,0.271391,-0.648155,-0.272711
6896,6.908205,6.967075,0.121399,-0.018207,-0.067978,0.066435,88.996201,-44.744396,-89.113182,0.657164,0.271351,-0.648188,-0.272684
6897,6.904792,6.974958,0.126020,-0.002961,-0.071015,0.067929,88.996254,-44.744637,-89.115082,0.657160,0.271339,-0.648193,-0.272693
6898,6.902302,6.972702,0.126341,-0.007580,-0.064869,0.064780,88.992813,-44.740326,-89.114365,0.657160,0.271348,-0.648172,-0.272733
6899,6.900354,6.976840,0.124248,-0.018292,-0.063311,0.060077,88.990509,-44.734051,-89.114540,0.657151,0.271370,-0.648152,-0.272783
6900,6.896960,6.984022,0.128268,-0.019852,-0.060221,0.056827,88.987236,-44.722801,-89.114120,0.657134,0.271418,-0.648115,-0.272863
6901,6.896886,6.980761,0.128274,-0.024482,-0.060165,0.041354,88.981560,-44.710125,-89.112053,0.657124,0.271469,-0.648065,-0.272955
6902,6.900339,6.975346,0.126902,-0.030627,-0.064701,0.035128,88.977356,-44.703228,-89.111206,0.657120,0.271489,-0.648036,-0.273013
6903,6.903838,6.974591,0.126003,-0.029123,-0.073833,0.035098,88.975616,-44.702393,-89.112297,0.657119,0.271477,-0.648033,-0.273034
6904,6.905933,6.971019,0.125567,-0.030662,-0.086029,0.045810,88.975571,-44.705811,-89.114845,0.657121,0.271443,-0.648047,-0.273030
6905,6.909544,6.969693,0.125877,-0.038302,-0.096701,0.042840,88.975922,-44.712795,-89.118050,0.657129,0.271387,-0.648073,-0.273006
6906,6.910676,6.971250,0.129027,-0.032227,-0.098199,0.056665,88.974052,-44.720634,-89.119858,0.657147,0.271322,-0.648092,-0.272983
6907,6.907143,6.969826,0.134510,-0.033826,-0.101180,0.067407,88.966553,-44.726727,-89.117683,0.657184,0.271256,-0.648084,-0.272978
6908,6.906049,6.970853,0.134488,-0.035447,-0.099560,0.064378,88.956055,-44.730286,-89.113449,0.657227,0.271200,-0.648058,-0.272993
6909,6.903244,6.968105,0.132153,-0.033993,-0.099488,0.059797,88.948616,-44.732170,-89.111366,0.657253,0.271158,-0.648040,-0.273012
6910,6.907351,6.966087,0.131991,-0.034042,-0.088759,0.061345,88.944168,-44.735649,-89.111229,0.657272,0.271114,-0.648037,-0.273017
6911,6.906230,6.966664,0.134379,-0.041724,-0.094811,0.059857,88.938950,-44.740185,-89.110596,0.657296,0.271062,-0.648035,-0.273017
6912,6.903153,6.971440,0.126721,-0.037165,-0.087163,0.062887,88.938148,-44.740829,-89.113083,0.657294,0.271039,-0.648040,-0.273032
6913,6.903000,6.972263,0.128283,-0.038674,-0.087178,0.071969,88.942009,-44.738243,-89.118721,0.657265,0.271044,-0.648056,-0.273057
6914,6.904004,6.972321,0.133604,-0.046324,-0.090209,0.059691,88.940826,-44.735733,-89.120964,0.657257,0.271039,-0.648053,-0.273091
6915,6.898456,6.971826,0.127960,-0.029559,-0.102395,0.053500,88.940025,-44.731903,-89.123543,0.657244,0.271042,-0.648047,-0.273132
6917,6.900144,6.973701,0.125336,-0.023431,-0.094787,0.051869,88.945534,-44.726727,-89.130348,0.657203,0.271064,-0.648064,-0.273169
6918,6.903054,6.970850,0.125877,-0.024925,-0.088713,0.041123,88.951927,-44.724022,-89.137566,0.657165,0.271075,-0.648090,-0.273190
6919,6.902478,6.969210,0.125870,-0.026430,-0.085683,0.038051,88.956696,-44.724087,-89.143578,0.657139,0.271068,-0.648115,-0.273197
6920,6.907158,6.968717,0.125956,-0.011158,-0.082645,0.047222,88.960587,-44.726616,-89.148727,0.657123,0.271047,-0.648143,-0.273190
6921,6.908496,6.963417,0.129969,-0.011172,-0.070424,0.050347,88.960876,-44.733170,-89.150986,0.657132,0.270999,-0.648165,-0.273164
6922,6.909761,6.959477,0.129157,-0.002050,-0.070393,0.053522,88.958458,-44.743118,-89.151085,0.657160,0.270928,-0.648184,-0.273122
6923,6.911663,6.958597,0.131242,0.010117,-0.084090,0.042985,88.955872,-44.754303,-89.150978,0.657192,0.270850,-0.648205,-0.273072
6924,6.912004,6.957512,0.125105,0.014679,-0.085603,0.041598,88.956993,-44.765022,-89.153473,0.657208,0.270781,-0.648240,-0.273019
6925,6.906902,6.963460,0.123914,-0.006661,-0.091730,0.041660,88.963158,-44.770622,-89.159798,0.657191,0.270749,-0.648284,-0.272989
6926,6.908860,6.971511,0.121522,-0.023407,-0.094820,0.037035,88.970871,-44.768929,-89.167770,0.657150,0.270757,-0.648317,-0.273001
6927,6.905861,6.970994,0.122191,-0.029471,-0.099436,0.038466,88.978432,-44.763924,-89.175995,0.657101,0.270783,-0.648342,-0.273033
6928,6.906178,6.975066,0.121104,-0.034015,-0.099466,0.039873,88.984962,-44.757385,-89.183678,0.657053,0.270814,-0.648360,-0.273078
6929,6.902146,6.975837,0.125729,-0.037061,-0.104047,0.024464,88.987900,-44.748615,-89.188972,0.657013,0.270851,-0.648358,-0.273141
6930,6.903270,6.976705,0.130206,-0.018797,-0.093316,0.025838,88.983978,-44.739258,-89.189186,0.657000,0.270880,-0.648326,-0.273218
6931,6.903524,6.971965,0.133957,-0.012784,-0.099330,0.031838,88.974800,-44.733292,-89.185364,0.657018,0.270883,-0.648280,-0.273282
6932,6.908295,6.962238,0.128401,-0.025064,-0.099257,0.024225,88.967751,-44.735275,-89.183189,0.657044,0.270844,-0.648263,-0.273298
6933,6.906639,6.960809,0.128254,-0.029677,-0.097699,0.041105,88.965515,-44.742680,-89.184578,0.657063,0.270781,-0.648279,-0.273277
6934,6.913498,6.959653,0.127537,-0.041908,-0.091573,0.039701,88.964203,-44.752247,-89.186714,0.657083,0.270707,-0.648305,-0.273242
6935,6.911933,6.950722,0.119936,-0.049518,-0.097700,0.033778,88.968437,-44.765621,-89.192986,0.657088,0.270620,-0.648363,-0.273178
6936,6.915272,6.950216,0.121685,-0.055573,-0.091647,0.030938,88.976112,-44.780819,-89.201859,0.657084,0.270527,-0.648439,-0.273099
6937,6.911504,6.957860,0.126179,-0.050988,-0.080977,0.040228,88.978294,-44.791103,-89.206673,0.657091,0.270453,-0.648481,-0.273055
6938,6.912482,6.955326,0.127408,-0.060169,-0.070269,0.031136,88.975357,-44.796513,-89.207687,0.657107,0.270400,-0.648490,-0.273047
6939,6.910297,6.964027,0.129157,-0.041900,-0.067177,0.055557,88.970444,-44.798317,-89.207024,0.657125,0.270365,-0.648481,-0.273061
6940,6.912020,6.971555,0.135438,-0.034346,-0.064048,0.064622,88.961189,-44.794300,-89.202927,0.657147,0.270358,-0.648439,-0.273113
6941,6.908270,6.974737,0.134640,-0.020708,-0.067003,0.070573,88.949852,-44.786312,-89.197105,0.657170,0.270372,-0.648379,-0.273189
6942,6.911224,6.976663,0.135774,-0.023844,-0.073021,0.070405,88.940384,-44.777405,-89.192589,0.657182,0.270394,-0.648324,-0.273267
6943,6.910264,6.977108,0.135394,-0.023918,-0.068367,0.076360,88.932144,-44.769878,-89.188988,0.657193,0.270410,-0.648277,-0.273336
6944,6.910178,6.969170,0.132397,-0.025489,-0.074424,0.065583,88.927574,-44.765850,-89.187996,0.657197,0.270412,-0.648254,-0.273379
6945,6.909121,6.966883,0.124670,-0.026998,-0.091225,0.057918,88.931633,-44.765675,-89.193405,0.657174,0.270406,-0.648276,-0.273388
6946,6.907696,6.960894,0.121162,-0.031501,-0.089773,0.057919,88.943474,-44.767761,-89.204552,0.657125,0.270399,-0.648336,-0.273373
6947,6.904713,6.959791,0.121231,-0.019212,-0.088328,0.053352,88.956360,-44.770557,-89.216301,0.657072,0.270390,-0.648401,-0.273352
6948,6.901818,6.956217,0.117571,-0.017601,-0.094516,0.053352,88.969910,-44.772457,-89.228424,0.657016,0.270389,-0.648466,-0.273334
6949,6.900311,6.958998,0.119707,-0.006844,-0.080857,0.053327,88.982361,-44.772713,-89.239525,0.656961,0.270396,-0.648523,-0.273326
6950,6.899583,6.958295,0.121021,-0.012907,-0.073268,0.050226,88.990028,-44.771221,-89.246964,0.656921,0.270406,-0.648555,-0.273333
6951,6.900316,6.966799,0.120051,-0.029664,-0.070243,0.042508,88.995331,-44.766975,-89.252876,0.656885,0.270427,-0.648571,-0.273361
6952,6.901036,6.969585,0.117166,-0.037252,-0.067228,0.036273,89.001831,-44.759632,-89.259850,0.656836,0.270467,-0.648585,-0.273406
6953,6.906630,6.968441,0.121247,-0.032647,-0.077935,0.031604,89.006630,-44.754700,-89.265755,0.656800,0.270489,-0.648598,-0.273441
6954,6.906136,6.970287,0.120390,-0.052481,-0.100826,0.034601,89.008583,-44.752266,-89.270226,0.656779,0.270489,-0.648608,-0.273469
6955,6.907299,6.968825,0.124392,-0.058602,-0.091653,0.033032,89.007614,-44.750553,-89.273117,0.656770,0.270477,-0.648608,-0.273501
6956,6.907401,6.965022,0.129464,-0.047987,-0.097691,0.026924,89.000305,-44.751244,-89.271446,0.656793,0.270440,-0.648588,-0.273529
6957,6.907440,6.966797,0.133437,-0.051146,-0.103689,0.029984,88.987801,-44.752663,-89.266174,0.656838,0.270390,-0.648550,-0.273562
6958,6.903435,6.972294,0.131424,-0.061932,-0.095955,0.031457,88.975418,-44.750111,-89.261131,0.656874,0.270362,-0.648502,-0.273617
6959,6.902896,6.970982,0.128404,-0.065045,-0.079107,0.028309,88.967979,-44.744633,-89.259445,0.656883,0.270361,-0.648467,-0.273681
6960,6.904010,6.971332,0.125531,-0.065064,-0.088241,0.028230,88.966034,-44.740345,-89.261566,0.656873,0.270362,-0.648456,-0.273728
6961,6.902286,6.970568,0.121043,-0.069617,-0.086739,0.035791,88.969955,-44.736973,-89.267967,0.656840,0.270367,-0.648473,-0.273762
6962,6.901151,6.966701,0.120428,-0.072619,-0.083736,0.029638,88.976952,-44.734886,-89.276566,0.656798,0.270371,-0.648504,-0.273784
6963,6.900578,6.965174,0.120059,-0.078674,-0.092938,0.021986,88.983604,-44.734291,-89.285110,0.656761,0.270364,-0.648539,-0.273798
6964,6.901677,6.967672,0.124653,-0.081710,-0.102110,0.017386,88.986397,-44.733547,-89.291252,0.656738,0.270349,-0.648558,-0.273822
6965,6.900667,6.969413,0.126560,-0.081732,-0.095984,0.031078,88.983986,-44.731594,-89.293800,0.656733,0.270332,-0.648554,-0.273861
6966,6.901581,6.966850,0.123810,-0.075647,-0.095965,0.018835,88.982117,-44.730152,-89.296593,0.656728,0.270314,-0.648552,-0.273896
6967,6.909897,6.967099,0.120345,-0.074104,-0.099034,0.026495,88.985008,-44.732937,-89.302689,0.656713,0.270280,-0.648580,-0.273899
6968,6.911180,6.968644,0.121329,-0.061868,-0.085331,0.023511,88.989594,-44.738396,-89.309685,0.656698,0.270236,-0.648621,-0.273882
6969,6.911848,6.963305,0.121835,-0.060325,-0.080770,0.035805,88.992416,-44.745293,-89.315056,0.656694,0.270182,-0.648658,-0.273857
6970,6.918939,6.968229,0.124122,-0.049647,-0.085347,0.031342,88.992897,-44.754086,-89.318642,0.656704,0.270115,-0.648689,-0.273825
6971,6.917802,6.972111,0.132891,-0.048183,-0.080709,0.039052,88.985847,-44.760605,-89.316772,0.656740,0.270048,-0.648684,-0.273817
6972,6.915103,6.975559,0.133798,-0.052867,-0.083656,0.028375,88.972725,-44.761898,-89.310646,0.656789,0.270000,-0.648641,-0.273849
6973,6.918203,6.976550,0.133973,-0.043811,-0.091186,0.045133,88.960838,-44.761257,-89.305466,0.656828,0.269964,-0.648599,-0.273890
6974,6.919544,6.971534,0.128946,-0.033188,-0.101810,0.043622,88.954948,-44.763767,-89.304482,0.656850,0.269922,-0.648589,-0.273904
6975,6.909005,6.970521,0.129239,-0.040842,-0.091104,0.045145,88.953743,-44.765038,-89.306755,0.656850,0.269895,-0.648594,-0.273917
6976,6.910132,6.969940,0.126369,-0.046952,-0.106356,0.045096,88.954712,-44.763332,-89.310791,0.656834,0.269887,-0.648602,-0.273944
6977,6.905347,6.970539,0.125075,-0.033202,-0.101794,0.048079,88.958878,-44.760468,-89.317108,0.656803,0.269892,-0.648620,-0.273973
6978,6.899491,6.972384,0.121952,-0.042322,-0.100300,0.052528,88.965630,-44.753620,-89.325119,0.656752,0.269924,-0.648638,-0.274019
6979,6.898572,6.987607,0.120817,-0.045322,-0.089666,0.030925,88.974197,-44.739136,-89.334412,0.656676,0.270003,-0.648645,-0.274107
6980,6.903571,6.986041,0.116452,-0.042197,-0.097363,0.016931,88.985382,-44.722614,-89.345512,0.656586,0.270099,-0.648657,-0.274201
6981,6.901364,6.990993,0.114955,-0.042107,-0.088293,0.019757,88.998985,-44.708324,-89.358253,0.656490,0.270186,-0.648684,-0.274278
6982,6.903526,6.987334,0.118377,-0.049672,-0.083777,0.028718,89.008873,-44.696331,-89.368317,0.656415,0.270254,-0.648702,-0.274348
6983,6.907678,6.987203,0.121586,-0.026767,-0.095998,0.016402,89.012596,-44.689907,-89.373947,0.656378,0.270280,-0.648709,-0.274396
6984,6.904210,6.983089,0.125148,-0.029848,-0.103598,0.017868,89.011177,-44.686497,-89.375969,0.656369,0.270280,-0.648702,-0.274435
6985,6.901154,6.978262,0.125705,-0.031426,-0.102020,0.023936,89.006653,-44.684807,-89.375938,0.656376,0.270264,-0.648687,-0.274470
6986,6.899531,6.972195,0.127859,-0.028437,-0.117216,0.020886,89.000885,-44.685680,-89.375160,0.656393,0.270230,-0.648673,-0.274493
6987,6.899273,6.974510,0.126764,-0.022396,-0.138517,0.014795,88.995956,-44.687115,-89.375313,0.656408,0.270193,-0.648665,-0.274514
6988,6.899845,6.967887,0.126910,-0.043811,-0.127785,0.016354,88.992439,-44.689873,-89.376770,0.656419,0.270149,-0.648667,-0.274526
6989,6.902791,6.966058,0.123834,-0.042316,-0.120126,0.022548,88.990891,-44.696533,-89.379616,0.656431,0.270086,-0.648686,-0.274513
6990,6.906464,6.969038,0.123894,-0.042329,-0.118589,0.025706,88.991714,-44.704475,-89.384010,0.656437,0.270021,-0.648718,-0.274489
6991,6.909713,6.975972,0.124540,-0.036241,-0.098739,0.036460,88.991989,-44.710423,-89.387680,0.656441,0.269967,-0.648742,-0.274474
6992,6.904848,6.978282,0.118662,-0.036229,-0.085018,0.028830,88.995399,-44.711555,-89.393097,0.656423,0.269950,-0.648766,-0.274480
6993,6.905881,6.985721,0.114446,-0.031588,-0.088131,0.034855,89.005432,-44.707478,-89.402985,0.656366,0.269975,-0.648803,-0.274503
6994,6.905241,6.988041,0.115032,-0.040668,-0.089728,0.039310,89.016937,-44.700638,-89.414017,0.656297,0.270017,-0.648840,-0.274540
6995,6.903574,6.985230,0.117057,-0.040621,-0.086721,0.036139,89.024681,-44.694088,-89.422493,0.656243,0.270051,-0.648862,-0.274581
6996,6.902402,6.983692,0.116678,-0.046699,-0.086745,0.029942,89.029510,-44.688984,-89.428947,0.656205,0.270071,-0.648877,-0.274620
6997,6.906198,6.980201,0.123021,-0.040608,-0.080627,0.032954,89.029037,-44.687389,-89.431618,0.656196,0.270062,-0.648878,-0.274647
6998,6.903681,6.974492,0.128773,-0.045266,-0.072919,0.026872,89.019630,-44.689819,-89.427811,0.656233,0.270016,-0.648852,-0.274665
6999,6.901816,6.968189,0.131283,-0.036229,-0.080434,0.022354,89.005310,-44.694550,-89.420509,0.656295,0.269948,-0.648812,-0.274677
7000,6.900424,6.970627,0.134145,-0.036359,-0.089461,0.030038,88.989662,-44.698902,-89.412354,0.656361,0.269880,-0.648766,-0.274694
7001,6.906206,6.966963,0.127268,-0.037976,-0.087847,0.027057,88.979332,-44.704536,-89.408051,0.656409,0.269813,-0.648745,-0.274696
7002,6.906619,6.965325,0.125110,-0.036478,-0.093925,0.036329,88.977371,-44.713463,-89.409683,0.656430,0.269742,-0.648766,-0.274666
7003,6.906372,6.966826,0.124138,-0.034956,-0.095448,0.025748,88.978745,-44.721279,-89.413712,0.656435,0.269682,-0.648798,-0.274637
7004,6.908009,6.965662,0.119711,-0.034932,-0.087844,0.024309,88.983795,-44.727898,-89.420250,0.656423,0.269636,-0.648842,-0.274608
7005,6.909972,6.963827,0.118305,-0.031830,-0.093999,0.032039,88.992294,-44.735714,-89.429146,0.656399,0.269590,-0.648903,-0.274566
7006,6.906072,6.963847,0.131370,-0.025745,-0.101612,0.044330,88.992035,-44.742565,-89.431953,0.656409,0.269534,-0.648925,-0.274545
7007,6.905636,6.961505,0.130644,-0.030411,-0.098473,0.045911,88.982712,-44.747635,-89.428391,0.656451,0.269472,-0.648907,-0.274549
7008,6.904068,6.964601,0.128199,-0.039632,-0.089252,0.061195,88.975906,-44.751060,-89.426628,0.656479,0.269423,-0.648895,-0.274557
7009,6.908811,6.969977,0.135022,-0.047339,-0.084598,0.055078,88.967056,-44.752094,-89.423439,0.656510,0.269384,-0.648869,-0.274583
7010,6.906140,6.968728,0.130155,-0.044365,-0.073839,0.045893,88.957870,-44.751785,-89.419907,0.656539,0.269354,-0.648838,-0.274617
7011,6.908005,6.967975,0.117657,-0.047393,-0.076914,0.041291,88.961952,-44.751698,-89.425621,0.656516,0.269345,-0.648861,-0.274627
7012,6.909807,6.967545,0.117811,-0.050354,-0.073952,0.038240,88.974808,-44.753265,-89.437584,0.656460,0.269342,-0.648924,-0.274614
7013,6.909441,6.967310,0.118528,-0.041122,-0.083183,0.038251,88.985847,-44.755386,-89.448280,0.656414,0.269333,-0.648980,-0.274601
7014,6.906399,6.960104,0.111861,-0.030350,-0.086326,0.050485,88.999428,-44.758801,-89.460670,0.656360,0.269321,-0.649050,-0.274575
7015,6.909389,6.964154,0.116847,-0.025689,-0.086409,0.045943,89.012383,-44.762962,-89.472473,0.656311,0.269304,-0.649119,-0.274546
7016,6.906633,6.965896,0.123542,-0.022630,-0.078786,0.042890,89.015190,-44.764389,-89.476952,0.656297,0.269287,-0.649140,-0.274547
7017,6.906427,6.974256,0.121230,-0.025707,-0.075708,0.053495,89.013618,-44.760960,-89.478218,0.656289,0.269290,-0.649131,-0.274583
7018,6.908864,6.971162,0.121522,-0.036402,-0.078744,0.047302,89.013161,-44.756752,-89.480431,0.656276,0.269299,-0.649125,-0.274622
7020,6.906198,6.971589,0.123160,-0.036425,-0.090926,0.041133,89.011604,-44.753807,-89.482185,0.656268,0.269297,-0.649118,-0.274658
7021,6.901625,6.972837,0.114639,-0.039464,-0.092464,0.042555,89.015121,-44.748352,-89.487701,0.656234,0.269317,-0.649126,-0.274701
7022,6.898920,6.977212,0.115062,-0.050092,-0.092515,0.039343,89.023888,-44.739166,-89.497101,0.656170,0.269367,-0.649147,-0.274757
7023,6.898920,6.979584,0.121203,-0.051604,-0.098630,0.029998,89.027092,-44.727695,-89.502792,0.656122,0.269418,-0.649140,-0.274837
7024,6.897374,6.980705,0.119244,-0.028730,-0.094033,0.032859,89.026878,-44.716103,-89.505859,0.656089,0.269466,-0.649118,-0.274921
7025,6.896472,6.987076,0.117285,-0.030253,-0.074196,0.040276,89.029137,-44.703209,-89.510117,0.656044,0.269528,-0.649102,-0.275006
7026,6.899324,6.987720,0.118420,-0.033297,-0.074200,0.049224,89.031456,-44.690907,-89.514229,0.656000,0.269588,-0.649087,-0.275086
7027,6.901487,6.989261,0.116528,-0.024134,-0.071153,0.049062,89.033974,-44.681839,-89.518379,0.655963,0.269631,-0.649081,-0.275147
7028,6.899383,6.983817,0.109632,-0.017979,-0.068150,0.052000,89.042221,-44.676003,-89.526306,0.655911,0.269666,-0.649105,-0.275179
7029,6.900933,6.983041,0.110988,-0.027062,-0.060590,0.036675,89.053055,-44.673161,-89.535950,0.655856,0.269690,-0.649146,-0.275189
7030,6.904367,6.980470,0.116600,-0.023987,-0.068243,0.038188,89.057404,-44.673637,-89.541122,0.655834,0.269683,-0.649170,-0.275192
7031,6.904757,6.973759,0.121201,-0.016396,-0.063627,0.035194,89.053627,-44.678734,-89.540489,0.655857,0.269636,-0.649172,-0.275180
7032,6.908026,6.970684,0.121990,-0.019519,-0.060509,0.038367,89.045952,-44.687943,-89.536964,0.655904,0.269559,-0.649168,-0.275151
7033,6.907360,6.970474,0.126920,-0.025714,-0.064998,0.044603,89.035149,-44.698109,-89.531372,0.655967,0.269471,-0.649154,-0.275123
7034,6.905942,6.970552,0.125327,-0.016655,-0.080163,0.066064,89.023949,-44.706436,-89.525688,0.656026,0.269392,-0.649134,-0.275106
7035,6.906828,6.971761,0.129317,-0.015224,-0.081595,0.073759,89.013405,-44.713070,-89.520523,0.656078,0.269323,-0.649113,-0.275099
7036,6.908759,6.972022,0.128147,-0.022951,-0.090655,0.064658,89.002831,-44.718895,-89.515541,0.656129,0.269257,-0.649090,-0.275097
7037,6.908204,6.963723,0.124781,-0.026064,-0.089072,0.073899,88.996956,-44.726940,-89.514091,0.656164,0.269186,-0.649092,-0.275076
7038,6.908618,6.957809,0.126850,-0.020005,-0.081400,0.060307,88.993065,-44.738579,-89.513878,0.656201,0.269098,-0.649111,-0.275031
7039,6.907753,6.952546,0.125520,-0.027678,-0.072204,0.058953,88.989052,-44.751995,-89.513405,0.656242,0.269001,-0.649133,-0.274975
7040,6.905029,6.952592,0.123060,-0.032275,-0.075240,0.042316,88.987930,-44.763599,-89.515045,0.656268,0.268919,-0.649162,-0.274924
7041,6.904154,6.962247,0.124469,-0.024655,-0.073705,0.048469,88.988152,-44.768375,-89.517609,0.656272,0.268879,-0.649181,-0.274911
7042,6.905009,6.969250,0.124831,-0.018567,-0.093525,0.040781,88.987968,-44.766037,-89.519951,0.656261,0.268878,-0.649180,-0.274938
7043,6.907003,6.974857,0.122324,-0.027727,-0.095044,0.048300,88.989708,-44.760185,-89.523933,0.656234,0.268899,-0.649179,-0.274985
7044,6.908854,6.974694,0.127179,-0.035373,-0.102655,0.040561,88.989639,-44.754463,-89.526947,0.656214,0.268914,-0.649172,-0.275035
7045,6.909080,6.970369,0.124059,-0.036927,-0.099575,0.046604,88.988121,-44.751919,-89.529106,0.656207,0.268908,-0.649167,-0.275070
7046,6.908711,6.963488,0.123103,-0.049142,-0.094991,0.026774,88.989029,-44.753643,-89.533035,0.656199,0.268881,-0.649183,-0.275078
7047,6.906869,6.966364,0.123305,-0.050670,-0.082782,0.029843,88.989967,-44.755775,-89.536964,0.656192,0.268852,-0.649199,-0.275083
7048,6.904199,6.963612,0.119888,-0.046079,-0.096527,0.028305,88.993019,-44.756023,-89.542358,0.656173,0.268837,-0.649220,-0.275095
7049,6.908045,6.972177,0.119095,-0.032313,-0.093507,0.029793,88.999184,-44.754505,-89.549858,0.656137,0.268839,-0.649249,-0.275112
7050,6.908290,6.975876,0.114994,-0.042940,-0.095085,0.028188,89.008087,-44.750347,-89.559227,0.656084,0.268860,-0.649282,-0.275139
7051,6.907888,6.981322,0.112564,-0.044388,-0.093635,0.032647,89.020126,-44.743557,-89.570953,0.656012,0.268902,-0.649322,-0.275176
7052,6.908603,6.983594,0.119080,-0.042817,-0.092151,0.023348,89.027664,-44.735043,-89.579468,0.655954,0.268945,-0.649339,-0.275230
7053,6.912227,6.989257,0.119977,-0.044348,-0.082988,0.027784,89.028412,-44.726471,-89.583076,0.655924,0.268978,-0.649328,-0.275296
7054,6.907108,6.988564,0.118078,-0.058086,-0.079929,0.029155,89.028763,-44.717205,-89.586441,0.655894,0.269014,-0.649314,-0.275366
7055,6.908930,6.991768,0.121719,-0.048945,-0.073808,0.024416,89.027611,-44.707352,-89.588699,0.655868,0.269050,-0.649293,-0.275441
7056,6.904998,6.991566,0.120202,-0.038288,-0.076833,0.041037,89.025406,-44.697536,-89.589943,0.655848,0.269087,-0.649267,-0.275516
7057,6.905688,6.983152,0.113725,-0.032166,-0.075324,0.050080,89.029129,-44.691647,-89.595169,0.655813,0.269112,-0.649273,-0.275559
7058,6.902297,6.976111,0.114764,-0.024492,-0.076893,0.047001,89.036499,-44.691544,-89.602806,0.655777,0.269112,-0.649309,-0.275561
7059,6.901536,6.977158,0.116676,-0.013789,-0.081492,0.051569,89.041267,-44.692570,-89.608459,0.655754,0.269101,-0.649336,-0.275561
7060,6.901045,6.975074,0.119564,-0.004644,-0.090635,0.057660,89.042290,-44.693596,-89.611404,0.655747,0.269084,-0.649348,-0.275566
7061,6.905441,6.967373,0.121589,-0.000108,-0.099751,0.043982,89.039871,-44.698986,-89.611992,0.655764,0.269036,-0.649357,-0.275552
7062,6.903967,6.970945,0.120470,-0.010835,-0.107338,0.044066,89.037086,-44.706051,-89.612610,0.655785,0.268977,-0.649369,-0.275532
7063,6.903933,6.973389,0.120464,-0.007819,-0.111880,0.036466,89.035637,-44.709373,-89.614380,0.655792,0.268939,-0.649377,-0.275531
7064,6.905381,6.973296,0.119887,-0.015478,-0.111851,0.031900,89.034966,-44.711315,-89.616821,0.655792,0.268910,-0.649386,-0.275538
7065,6.908678,6.965639,0.114782,-0.027685,-0.101171,0.024340,89.037796,-44.716957,-89.621834,0.655787,0.268866,-0.649419,-0.275518
7066,6.910656,6.966168,0.118432,-0.044464,-0.092023,0.030567,89.040527,-44.726196,-89.626869,0.655789,0.268800,-0.649460,-0.275479
7067,6.912780,6.965532,0.121485,-0.038392,-0.095045,0.032221,89.037918,-44.735744,-89.628212,0.655814,0.268723,-0.649480,-0.275447
7068,6.916038,6.968186,0.125877,-0.044567,-0.091925,0.044549,89.030228,-44.745079,-89.625969,0.655859,0.268639,-0.649479,-0.275425
7069,6.915454,6.965047,0.127922,-0.043139,-0.085727,0.046189,89.018753,-44.754124,-89.621002,0.655919,0.268550,-0.649462,-0.275410
7070,6.914653,6.970274,0.128499,-0.038660,-0.096311,0.058470,89.007271,-44.760670,-89.616020,0.655973,0.268475,-0.649438,-0.275410
7071,6.911187,6.970435,0.127592,-0.025010,-0.093177,0.063050,88.998390,-44.762871,-89.612732,0.656007,0.268430,-0.649415,-0.275429
7072,6.911931,6.971823,0.124469,-0.018955,-0.079395,0.056917,88.994041,-44.762871,-89.612198,0.656018,0.268408,-0.649403,-0.275450
7073,6.908703,6.967999,0.119116,-0.014373,-0.079398,0.044677,88.996536,-44.762409,-89.616203,0.656002,0.268402,-0.649417,-0.275462
7074,6.910534,6.967785,0.116981,-0.006701,-0.087070,0.038554,89.004601,-44.762615,-89.624077,0.655964,0.268403,-0.649456,-0.275460
7075,6.909322,6.974764,0.119474,-0.000562,-0.081000,0.021719,89.011879,-44.760365,-89.631271,0.655925,0.268417,-0.649484,-0.275473
7076,6.914284,6.975703,0.123660,-0.006674,-0.076412,0.007916,89.013222,-44.756310,-89.634155,0.655905,0.268431,-0.649485,-0.275504
7077,6.910799,6.973909,0.126131,-0.011301,-0.082467,0.004817,89.009148,-44.753265,-89.633377,0.655910,0.268429,-0.649466,-0.275540
7078,6.913336,6.972675,0.125939,-0.020515,-0.079357,-0.002843,89.003517,-44.751331,-89.631699,0.655923,0.268418,-0.649443,-0.275574
7079,6.912551,6.976046,0.127243,-0.019048,-0.074721,-0.010498,88.997719,-44.749428,-89.629913,0.655936,0.268406,-0.649420,-0.275607
7080,6.909650,6.970511,0.125997,-0.029780,-0.071617,-0.005948,88.992516,-44.747250,-89.628555,0.655946,0.268396,-0.649400,-0.275641
7081,6.909144,6.974329,0.124051,-0.034386,-0.074640,-0.002928,88.990135,-44.744968,-89.629364,0.655945,0.268391,-0.649390,-0.275672
7082,6.909288,6.972007,0.124662,-0.042031,-0.071572,-0.002965,88.989113,-44.742485,-89.631271,0.655937,0.268388,-0.649386,-0.275703
7083,6.908778,6.980164,0.127165,-0.046640,-0.071541,0.007654,88.986053,-44.738426,-89.631859,0.655933,0.268391,-0.649370,-0.275747
7084,6.907913,6.981316,0.127870,-0.054312,-0.079126,0.013649,88.981171,-44.731518,-89.631378,0.655930,0.268405,-0.649340,-0.275811
7085,6.907729,6.978164,0.127030,-0.051298,-0.077561,0.027292,88.977028,-44.726173,-89.631554,0.655927,0.268411,-0.649318,-0.275866
7086,6.906075,6.974593,0.120380,-0.043662,-0.083671,0.030294,88.978928,-44.723831,-89.635902,0.655907,0.268410,-0.649327,-0.275893
7087,6.900558,6.975877,0.119312,-0.037511,-0.079139,0.031754,88.986534,-44.720570,-89.644119,0.655862,0.268426,-0.649356,-0.275916
7088,6.896614,6.970536,0.115276,-0.035916,-0.086833,0.019459,88.996964,-44.715717,-89.654266,0.655801,0.268456,-0.649393,-0.275942
7089,6.895816,6.969922,0.112973,-0.044984,-0.076239,0.023966,89.010017,-44.711868,-89.666328,0.655733,0.268484,-0.649444,-0.275959
7090,6.896548,6.975075,0.115385,-0.040332,-0.079363,0.022357,89.020866,-44.707199,-89.676796,0.655672,0.268513,-0.649483,-0.275984
7091,6.891164,6.977687,0.120584,-0.046416,-0.079380,0.020694,89.024651,-44.698875,-89.682343,0.655630,0.268551,-0.649485,-0.276042
7092,6.898849,6.979443,0.117828,-0.044892,-0.079376,0.026668,89.025482,-44.690987,-89.685867,0.655601,0.268581,-0.649476,-0.276102
7093,6.901318,6.979630,0.121126,-0.035744,-0.073264,0.044911,89.025673,-44.687706,-89.688736,0.655586,0.268584,-0.649475,-0.276136
7094,6.901488,6.974985,0.122224,-0.037301,-0.073233,0.050997,89.022751,-44.688179,-89.689255,0.655593,0.268562,-0.649470,-0.276153
7095,6.900600,6.978229,0.122441,-0.035812,-0.073196,0.050987,89.019104,-44.689198,-89.689262,0.655604,0.268535,-0.649464,-0.276168
7096,6.905156,6.977159,0.123491,-0.037376,-0.071632,0.063189,89.015167,-44.690819,-89.689041,0.655618,0.268505,-0.649458,-0.276180
7097,6.903718,6.980543,0.128519,-0.052700,-0.080724,0.055557,89.007545,-44.692551,-89.686523,0.655645,0.268466,-0.649438,-0.276199
7098,6.901829,6.980146,0.126918,-0.057352,-0.077596,0.044835,88.998375,-44.691502,-89.683220,0.655672,0.268438,-0.649405,-0.276238
7099,6.905144,6.985084,0.124919,-0.048242,-0.083654,0.038675,88.993240,-44.689079,-89.682732,0.655680,0.268425,-0.649386,-0.276278
7100,6.905219,6.979500,0.125174,-0.060477,-0.088203,0.038643,88.990601,-44.688251,-89.684174,0.655681,0.268407,-0.649381,-0.276306
7101,6.905562,6.976564,0.120727,-0.062005,-0.080573,0.027979,88.991089,-44.690590,-89.687935,0.655676,0.268375,-0.649397,-0.276311
7102,6.903622,6.971856,0.118533,-0.045187,-0.071451,0.021922,88.996201,-44.694630,-89.694572,0.655657,0.268343,-0.649435,-0.276297
7103,6.903487,6.971399,0.120099,-0.037524,-0.074536,0.026554,89.001526,-44.699169,-89.701012,0.655640,0.268311,-0.649473,-0.276278
7104,6.899649,6.967514,0.124135,-0.032951,-0.073008,0.031178,89.002327,-44.703220,-89.704140,0.655640,0.268275,-0.649493,-0.276268
7105,6.901690,6.969284,0.122119,-0.011605,-0.066888,0.022059,89.001495,-44.706566,-89.705727,0.655646,0.268242,-0.649503,-0.276263
7106,6.903737,6.973309,0.126004,-0.004002,-0.079068,0.032759,89.000061,-44.708744,-89.706612,0.655652,0.268216,-0.649506,-0.276264
7107,6.906388,6.966703,0.123054,-0.014715,-0.088194,0.032808,88.998436,-44.713158,-89.707657,0.655663,0.268176,-0.649516,-0.276254
7108,6.909285,6.967441,0.120936,-0.022347,-0.091244,0.035961,89.000366,-44.721031,-89.711555,0.655668,0.268120,-0.649549,-0.276221
7109,6.909476,6.964866,0.118414,-0.042163,-0.088215,0.022338,89.004959,-44.729427,-89.717667,0.655662,0.268064,-0.649595,-0.276182
