seq,ax,ay,az,wroll,wpitch,wyaw,roll,pitch,yaw,q0,q1,q2,q3
6750,6.905532,6.969598,0.124398,-0.049173,-0.111820,0.069762,88.977478,-44.730888,-88.547249,0.658517,0.274518,-0.646762,-0.269618
6752,6.903683,6.977841,0.125270,-0.043070,-0.101138,0.071281,88.978622,-44.727016,-88.551353,0.658496,0.274524,-0.646765,-0.269657
6753,6.898309,6.979232,0.122398,-0.052224,-0.101139,0.074315,88.981850,-44.714329,-88.557106,0.658446,0.274582,-0.646754,-0.269744
6754,6.904925,6.978421,0.121555,-0.043065,-0.108772,0.077353,88.988907,-44.704521,-88.565651,0.658387,0.274630,-0.646767,-0.269809
6755,6.902829,6.970607,0.125029,-0.030858,-0.114875,0.072773,88.991852,-44.705524,-88.571205,0.658369,0.274610,-0.646790,-0.269819
6756,6.903217,6.969329,0.124316,-0.032386,-0.099614,0.071251,88.990005,-44.711933,-88.573158,0.658384,0.274552,-0.646806,-0.269804
6757,6.900571,6.969168,0.125112,-0.032389,-0.102663,0.074306,88.987656,-44.716816,-88.574631,0.658397,0.274502,-0.646816,-0.269798
6759,6.903163,6.969818,0.127689,-0.032393,-0.102658,0.077359,88.982033,-44.719856,-88.573830,0.658419,0.274457,-0.646809,-0.269808
6760,6.898554,6.961608,0.131238,-0.033928,-0.091968,0.060577,88.970047,-44.724697,-88.568451,0.658471,0.274391,-0.646780,-0.269817
6761,6.894258,6.964291,0.127178,-0.047669,-0.082807,0.045317,88.960464,-44.725864,-88.564713,0.658506,0.274351,-0.646751,-0.269843
6762,6.899569,6.970674,0.126657,-0.055299,-0.084331,0.039206,88.958984,-44.721188,-88.566841,0.658494,0.274357,-0.646741,-0.269890
6763,6.900682,6.982471,0.129423,-0.053775,-0.082803,0.022406,88.956741,-44.709805,-88.568497,0.658470,0.274399,-0.646711,-0.269977
6764,6.905511,6.976012,0.124946,-0.049197,-0.084328,0.016290,88.957245,-44.700722,-88.572029,0.658440,0.274434,-0.646698,-0.270046
6766,6.909297,6.977496,0.127060,-0.052248,-0.090434,0.023922,88.960785,-44.702541,-88.577766,0.658422,0.274411,-0.646725,-0.270049
6767,6.914230,6.977178,0.134622,-0.041572,-0.108739,0.039189,88.953049,-44.710125,-88.575775,0.658462,0.274335,-0.646721,-0.270038
6768,6.912101,6.975852,0.133863,-0.038530,-0.123988,0.046828,88.938736,-44.719299,-88.569389,0.658532,0.274237,-0.646695,-0.270030
6769,6.911985,6.962782,0.129672,-0.044637,-0.123984,0.048368,88.933189,-44.733368,-88.569374,0.658577,0.274125,-0.646717,-0.269981
6770,6.904821,6.969226,0.138205,-0.055326,-0.128556,0.042275,88.925056,-44.743603,-88.567787,0.658623,0.274029,-0.646719,-0.269959
6771,6.904274,6.969190,0.134579,-0.059913,-0.128547,0.046849,88.913086,-44.742050,-88.563744,0.658658,0.273992,-0.646678,-0.270012
6773,6.902532,6.967395,0.132382,-0.058390,-0.114812,0.040740,88.910446,-44.739029,-88.566124,0.658652,0.273980,-0.646669,-0.270058
6774,6.905552,6.963742,0.134374,-0.050762,-0.104128,0.040740,88.909737,-44.740463,-88.569481,0.658649,0.273949,-0.646679,-0.270073
6775,6.900502,6.972036,0.135710,-0.044661,-0.105651,0.048366,88.905807,-44.738323,-88.570297,0.658651,0.273934,-0.646667,-0.270112
6776,6.899370,6.971981,0.130989,-0.026350,-0.108702,0.066663,88.907143,-44.728321,-88.574585,0.658616,0.273974,-0.646655,-0.270186
6777,6.897533,6.965665,0.131573,-0.017192,-0.108704,0.055971,88.914017,-44.722179,-88.582489,0.658567,0.274004,-0.646675,-0.270228
6778,6.897548,6.966351,0.129764,-0.011085,-0.105654,0.057492,88.921242,-44.720379,-88.590408,0.658527,0.274011,-0.646706,-0.270243
6780,6.894262,6.976545,0.131610,-0.011084,-0.110233,0.049850,88.926788,-44.711349,-88.597107,0.658477,0.274057,-0.646713,-0.270302
6781,6.894752,6.974469,0.132949,-0.012612,-0.120912,0.037624,88.927246,-44.697128,-88.600426,0.658436,0.274122,-0.646686,-0.270399
6782,6.896186,6.969698,0.129490,-0.024820,-0.123963,0.025409,88.929146,-44.690929,-88.605080,0.658407,0.274141,-0.646686,-0.270451
6783,6.897933,6.978139,0.133240,-0.040081,-0.128540,0.031507,88.930130,-44.687256,-88.609512,0.658386,0.274143,-0.646690,-0.270491
6784,6.901777,6.972715,0.129585,-0.050765,-0.128538,0.026927,88.930313,-44.686550,-88.613739,0.658374,0.274124,-0.646699,-0.270519
6785,6.898416,6.966122,0.127972,-0.058392,-0.120910,0.022356,88.935760,-44.693634,-88.621788,0.658358,0.274070,-0.646749,-0.270494
6787,6.904946,6.965060,0.124960,-0.062965,-0.105656,0.037629,88.945061,-44.706356,-88.632431,0.658339,0.273991,-0.646828,-0.270430
6788,6.907182,6.971193,0.130290,-0.055333,-0.102606,0.037642,88.949432,-44.718704,-88.639343,0.658340,0.273907,-0.646886,-0.270375
6789,6.905461,6.970891,0.125077,-0.037022,-0.085822,0.031544,88.951942,-44.724293,-88.644409,0.658335,0.273861,-0.646918,-0.270358
6790,6.901761,6.975728,0.127650,-0.032442,-0.085824,0.028487,88.956772,-44.721390,-88.650642,0.658302,0.273870,-0.646937,-0.270383
6791,6.902177,6.978772,0.129097,-0.023288,-0.087348,0.033052,88.956291,-44.711571,-88.653000,0.658275,0.273910,-0.646917,-0.270455
6792,6.899517,6.980236,0.129287,-0.015662,-0.096500,0.040666,88.953850,-44.699810,-88.653900,0.658253,0.273957,-0.646884,-0.270541
6794,6.901062,6.976744,0.125225,-0.018713,-0.090396,0.028448,88.956406,-44.691586,-88.658295,0.658217,0.273994,-0.646880,-0.270599
6795,6.902795,6.976864,0.121159,-0.021760,-0.096505,0.031497,88.968231,-44.690018,-88.669289,0.658160,0.274009,-0.646930,-0.270604
6796,6.902870,6.977351,0.123931,-0.024806,-0.085829,0.031496,88.979347,-44.690605,-88.679802,0.658110,0.274010,-0.646983,-0.270598
6797,6.906906,6.972648,0.122930,-0.030907,-0.087357,0.022345,88.984772,-44.696026,-88.686310,0.658094,0.273973,-0.647025,-0.270574
6798,6.909297,6.970385,0.125629,-0.037012,-0.087357,0.010152,88.985565,-44.708057,-88.689728,0.658111,0.273890,-0.647065,-0.270521
6799,6.909195,6.972400,0.130926,-0.044649,-0.087351,0.020845,88.975952,-44.718990,-88.685982,0.658167,0.273794,-0.647060,-0.270491
6801,6.907336,6.966672,0.132471,-0.040082,-0.093443,0.020854,88.959579,-44.727791,-88.677582,0.658246,0.273697,-0.647024,-0.270485
6802,6.910367,6.961103,0.127116,-0.038562,-0.096490,0.020869,88.951332,-44.741112,-88.674950,0.658302,0.273589,-0.647031,-0.270441
6803,6.911781,6.965072,0.124843,-0.040086,-0.090388,0.023937,88.955353,-44.754959,-88.680901,0.658310,0.273500,-0.647089,-0.270373
6804,6.909804,6.964079,0.121555,-0.035503,-0.075134,0.023945,88.966240,-44.763008,-88.691399,0.658277,0.273457,-0.647160,-0.270326
6805,6.911837,6.966547,0.119417,-0.023288,-0.076668,0.023949,88.981400,-44.767174,-88.704552,0.658219,0.273446,-0.647238,-0.270292
6806,6.910947,6.964244,0.125311,-0.018706,-0.082775,0.027003,88.988914,-44.770199,-88.712212,0.658190,0.273429,-0.647281,-0.270277
6808,6.910739,6.966944,0.128917,-0.017186,-0.091926,0.030055,88.982513,-44.771339,-88.710175,0.658213,0.273397,-0.647264,-0.270295
6809,6.912645,6.965946,0.130762,-0.023298,-0.093442,0.039211,88.969742,-44.772053,-88.703842,0.658260,0.273356,-0.647220,-0.270326
6810,6.914610,6.960643,0.132737,-0.021783,-0.107167,0.042268,88.955261,-44.778599,-88.696526,0.658326,0.273277,-0.647185,-0.270329
6811,6.910743,6.958329,0.128695,-0.018737,-0.116315,0.037699,88.947350,-44.787460,-88.694054,0.658371,0.273195,-0.647183,-0.270309
6812,6.908647,6.967911,0.123213,-0.021787,-0.119369,0.040748,88.954063,-44.786465,-88.702026,0.658334,0.273194,-0.647215,-0.270322
6813,6.908494,6.966478,0.118513,-0.012621,-0.133112,0.051419,88.973358,-44.778637,-88.718994,0.658230,0.273253,-0.647282,-0.270355
6814,6.903071,6.965057,0.113356,-0.003453,-0.134652,0.048355,89.000954,-44.770672,-88.741768,0.658093,0.273329,-0.647381,-0.270376
6815,6.904229,6.968567,0.112767,-0.000386,-0.131614,0.034609,89.028816,-44.760990,-88.764565,0.657951,0.273415,-0.647477,-0.270404
6816,6.906899,6.968430,0.119082,-0.008011,-0.119411,0.037650,89.041893,-44.753853,-88.776817,0.657874,0.273461,-0.647520,-0.270442
6817,6.912226,6.962148,0.121724,-0.015644,-0.116354,0.031550,89.038101,-44.757393,-88.777214,0.657890,0.273417,-0.647520,-0.270445
6818,6.912205,6.961349,0.124015,-0.032437,-0.101087,0.019354,89.026413,-44.768322,-88.772102,0.657955,0.273317,-0.647508,-0.270420
6819,6.914678,6.960263,0.128280,-0.047710,-0.096498,0.020892,89.008362,-44.779499,-88.762665,0.658046,0.273203,-0.647470,-0.270404
6820,6.910277,6.962881,0.131690,-0.050775,-0.101061,0.028529,88.985313,-44.785580,-88.749908,0.658145,0.273108,-0.647401,-0.270426
6821,6.908473,6.966317,0.128637,-0.043157,-0.108680,0.036153,88.968048,-44.782299,-88.741310,0.658199,0.273076,-0.647331,-0.270493
6822,6.906744,6.973360,0.125215,-0.052316,-0.105624,0.045293,88.964317,-44.770790,-88.742325,0.658179,0.273114,-0.647296,-0.270585
6823,6.907359,6.980127,0.125814,-0.052316,-0.122409,0.055951,88.967209,-44.753063,-88.748260,0.658118,0.273198,-0.647273,-0.270704
6824,6.907013,6.979998,0.124964,-0.044686,-0.123936,0.045248,88.971069,-44.735783,-88.755013,0.658054,0.273281,-0.647255,-0.270820
6825,6.909910,6.978886,0.124658,-0.052314,-0.116307,0.052863,88.975197,-44.725636,-88.761879,0.658005,0.273323,-0.647256,-0.270893
6826,6.913466,6.974984,0.122923,-0.064520,-0.108679,0.045233,88.979874,-44.726097,-88.769188,0.657977,0.273306,-0.647286,-0.270906
6827,6.911491,6.969252,0.124226,-0.043155,-0.111733,0.033034,88.983704,-44.734138,-88.775734,0.657971,0.273245,-0.647331,-0.270877
6828,6.906215,6.960194,0.124873,-0.026371,-0.097998,0.026941,88.984200,-44.744987,-88.779366,0.657986,0.273166,-0.647367,-0.270833
6829,6.902395,6.957572,0.126376,-0.026374,-0.107151,0.040684,88.981552,-44.754742,-88.780540,0.658011,0.273089,-0.647388,-0.270799
6830,6.901893,6.959423,0.126122,-0.018748,-0.111725,0.040688,88.978073,-44.759701,-88.781197,0.658029,0.273037,-0.647394,-0.270794
6831,6.898964,6.955867,0.124871,-0.005017,-0.116300,0.037637,88.977692,-44.761509,-88.783882,0.658028,0.273009,-0.647404,-0.270801
6832,6.904722,6.961119,0.127857,-0.026383,-0.113246,0.039163,88.975769,-44.763004,-88.785606,0.658032,0.272980,-0.647407,-0.270813
6833,6.908713,6.970597,0.124293,-0.034014,-0.125451,0.034582,88.974823,-44.761127,-88.788452,0.658023,0.272969,-0.647407,-0.270846
6834,6.916193,6.971176,0.120330,-0.017226,-0.130032,0.033054,88.983719,-44.760178,-88.798325,0.657977,0.272970,-0.647449,-0.270858
6835,6.917350,6.973762,0.120707,-0.018747,-0.136140,0.026952,88.996117,-44.762749,-88.810616,0.657924,0.272957,-0.647514,-0.270844
6836,6.921304,6.962682,0.123454,-0.037056,-0.143771,0.026963,89.001617,-44.772923,-88.818443,0.657915,0.272886,-0.647571,-0.270800
6837,6.914367,6.963006,0.122002,-0.026377,-0.140718,0.023925,89.002800,-44.785736,-88.823380,0.657930,0.272792,-0.647617,-0.270748
6838,6.916544,6.957605,0.126030,-0.023329,-0.131560,0.036143,88.999947,-44.795582,-88.825157,0.657955,0.272710,-0.647639,-0.270718
6839,6.908316,6.960841,0.128284,-0.024863,-0.123922,0.036147,88.989708,-44.800056,-88.821518,0.657998,0.272646,-0.647618,-0.270730
6840,6.904666,6.960507,0.123880,-0.027921,-0.122390,0.040715,88.983665,-44.793945,-88.820778,0.658000,0.272650,-0.647586,-0.270795
6841,6.897802,6.969931,0.125181,-0.009611,-0.116284,0.054427,88.983849,-44.776905,-88.824150,0.657953,0.272729,-0.647553,-0.270910
6842,6.902342,6.961759,0.126004,-0.011139,-0.123911,0.055932,88.982712,-44.761292,-88.826408,0.657915,0.272799,-0.647516,-0.271018
6843,6.900655,6.963465,0.124885,-0.017246,-0.116278,0.042190,88.981804,-44.755543,-88.828926,0.657898,0.272812,-0.647506,-0.271071
6844,6.904279,6.961439,0.124955,-0.037084,-0.117802,0.037609,88.981857,-44.753845,-88.832352,0.657886,0.272803,-0.647510,-0.271100
6845,6.904385,6.960639,0.126767,-0.041665,-0.110170,0.037611,88.979286,-44.756958,-88.834152,0.657895,0.272760,-0.647516,-0.271107
6846,6.904315,6.966567,0.125788,-0.056927,-0.117796,0.036083,88.975876,-44.756863,-88.835587,0.657900,0.272733,-0.647511,-0.271135
6847,6.902879,6.967232,0.124917,-0.059981,-0.116268,0.031497,88.975410,-44.751545,-88.839386,0.657880,0.272739,-0.647506,-0.271190
6848,6.897676,6.970510,0.125057,-0.069136,-0.113217,0.046743,88.976135,-44.740963,-88.844109,0.657843,0.272777,-0.647493,-0.271273
6849,6.894741,6.972101,0.127531,-0.058458,-0.107110,0.051300,88.973755,-44.725323,-88.846519,0.657807,0.272839,-0.647454,-0.271389
6850,6.894807,6.967678,0.127301,-0.055409,-0.101002,0.046707,88.968948,-44.713310,-88.846916,0.657791,0.272877,-0.647414,-0.271487
6851,6.897116,6.968283,0.124449,-0.050832,-0.093371,0.042122,88.968597,-44.708733,-88.850197,0.657773,0.272883,-0.647409,-0.271534
6852,6.902956,6.972918,0.122255,-0.047778,-0.088797,0.042119,88.974869,-44.708214,-88.857910,0.657739,0.272878,-0.647441,-0.271546
6853,6.908153,6.977561,0.123062,-0.032515,-0.094903,0.034490,88.982445,-44.709393,-88.866341,0.657704,0.272867,-0.647482,-0.271545
6854,6.909778,6.979061,0.116822,-0.037087,-0.104066,0.032964,88.994934,-44.710827,-88.878281,0.657649,0.272863,-0.647544,-0.271535
6855,6.913432,6.983899,0.116395,-0.046234,-0.108653,0.039067,89.012451,-44.711441,-88.894089,0.657571,0.272871,-0.647624,-0.271523
6856,6.912332,6.984930,0.116855,-0.044701,-0.104081,0.026856,89.025681,-44.709763,-88.906967,0.657505,0.272884,-0.647682,-0.271532
6857,6.904357,6.979319,0.118410,-0.053853,-0.093402,0.040583,89.031731,-44.705559,-88.914703,0.657463,0.272899,-0.647705,-0.271566
6858,6.905107,6.975389,0.120240,-0.059959,-0.099504,0.031424,89.030602,-44.703537,-88.917511,0.657454,0.272888,-0.647704,-0.271600
6859,6.904736,6.975965,0.120473,-0.058437,-0.085768,0.029898,89.026100,-44.704365,-88.917923,0.657466,0.272855,-0.647696,-0.271623
6860,6.899697,6.970034,0.118225,-0.043179,-0.087292,0.028372,89.024712,-44.705257,-88.920166,0.657466,0.272829,-0.647700,-0.271638
6861,6.900538,6.969124,0.118966,-0.055386,-0.099499,0.039054,89.026054,-44.707596,-88.924461,0.657458,0.272799,-0.647719,-0.271642
6862,6.901712,6.968003,0.121882,-0.040129,-0.104075,0.031428,89.023430,-44.711864,-88.926140,0.657470,0.272750,-0.647728,-0.271642
6863,6.900185,6.962234,0.116925,-0.038605,-0.101022,0.040590,89.023537,-44.719044,-88.929550,0.657478,0.272691,-0.647754,-0.271620
6864,6.905088,6.967594,0.120859,-0.035553,-0.108652,0.049754,89.025337,-44.727154,-88.934151,0.657481,0.272629,-0.647789,-0.271590
6865,6.909226,6.968741,0.123824,-0.043188,-0.111698,0.058916,89.019058,-44.734856,-88.933243,0.657516,0.272554,-0.647791,-0.271577
6866,6.909318,6.963611,0.122391,-0.052350,-0.110167,0.058926,89.011292,-44.745262,-88.931503,0.657562,0.272460,-0.647794,-0.271551
6867,6.912592,6.965503,0.117867,-0.056927,-0.117796,0.058938,89.012245,-44.757015,-88.936119,0.657575,0.272373,-0.647837,-0.271506
6868,6.913385,6.965888,0.120772,-0.044718,-0.119323,0.049792,89.016388,-44.766567,-88.943016,0.657571,0.272303,-0.647887,-0.271467
6869,6.908375,6.960003,0.124913,-0.044722,-0.119319,0.037590,89.011719,-44.773403,-88.943588,0.657596,0.272234,-0.647894,-0.271458
6870,6.903754,6.958271,0.122784,-0.044728,-0.110159,0.028437,89.004486,-44.776318,-88.942245,0.657623,0.272184,-0.647881,-0.271475
6871,6.902893,6.962025,0.129147,-0.023374,-0.099469,0.020803,88.994064,-44.773121,-88.938179,0.657650,0.272165,-0.647838,-0.271528
6872,6.901005,6.963884,0.133688,-0.037120,-0.090299,0.017740,88.973366,-44.764790,-88.926544,0.657708,0.272160,-0.647741,-0.271626
6873,6.902155,6.961789,0.130701,-0.064600,-0.084184,0.025361,88.954300,-44.757828,-88.916367,0.657762,0.272147,-0.647655,-0.271715
6874,6.903640,6.961677,0.127474,-0.066130,-0.087232,0.031462,88.947540,-44.756176,-88.915154,0.657777,0.272125,-0.647632,-0.271756
6875,6.908727,6.969495,0.132973,-0.073763,-0.091805,0.026882,88.941940,-44.755119,-88.914963,0.657788,0.272100,-0.647615,-0.271792
6876,6.910028,6.977503,0.126230,-0.070713,-0.094856,0.028400,88.939911,-44.748951,-88.917419,0.657773,0.272109,-0.647601,-0.271853
6877,6.907587,6.975801,0.122453,-0.058499,-0.102492,0.040594,88.951782,-44.739811,-88.929611,0.657695,0.272160,-0.647635,-0.271908
6878,6.903620,6.978104,0.129486,-0.049340,-0.108599,0.049736,88.959053,-44.729057,-88.938477,0.657633,0.272213,-0.647647,-0.271979
6879,6.905912,6.971607,0.126409,-0.043237,-0.107071,0.043622,88.959244,-44.722576,-88.942230,0.657609,0.272230,-0.647640,-0.272036
6880,6.902000,6.964170,0.122257,-0.027976,-0.104022,0.045150,88.966789,-44.725697,-88.950859,0.657577,0.272207,-0.647686,-0.272025
6881,6.900224,6.953432,0.122971,-0.035600,-0.108605,0.043634,88.977005,-44.736576,-88.961288,0.657553,0.272145,-0.647762,-0.271966
6882,6.902366,6.954289,0.123249,-0.035598,-0.107082,0.042124,88.983292,-44.751392,-88.969086,0.657553,0.272052,-0.647833,-0.271890
6883,6.905581,6.950024,0.120545,-0.032543,-0.093351,0.031461,88.989799,-44.767525,-88.976830,0.657556,0.271954,-0.647906,-0.271806
6884,6.903120,6.952668,0.122423,-0.040171,-0.094879,0.040629,88.995148,-44.780636,-88.983658,0.657557,0.271871,-0.647968,-0.271740
6885,6.905056,6.955530,0.126790,-0.049329,-0.090299,0.049790,88.991318,-44.786327,-88.984177,0.657578,0.271814,-0.647974,-0.271733
6886,6.908129,6.956881,0.128530,-0.038655,-0.087239,0.055897,88.980118,-44.790016,-88.979401,0.657624,0.271756,-0.647945,-0.271748
6887,6.903806,6.963336,0.131089,-0.027984,-0.081126,0.046735,88.966408,-44.787014,-88.972496,0.657666,0.271733,-0.647889,-0.271803
6888,6.903014,6.969136,0.130459,-0.035621,-0.088748,0.052822,88.954315,-44.773689,-88.966713,0.657678,0.271772,-0.647813,-0.271914
6889,6.902463,6.977714,0.126935,-0.027995,-0.082640,0.054321,88.951057,-44.753677,-88.967171,0.657640,0.271865,-0.647757,-0.272049
6890,6.904491,6.980762,0.124555,-0.009681,-0.100953,0.048191,88.957718,-44.732498,-88.974449,0.657558,0.271983,-0.647738,-0.272173
6891,6.899354,6.980541,0.123498,-0.012728,-0.097906,0.054270,88.968445,-44.713711,-88.984589,0.657466,0.272094,-0.647741,-0.272278
6892,6.906699,6.973436,0.119791,-0.032559,-0.094860,0.060363,88.981628,-44.706394,-88.996651,0.657389,0.272143,-0.647783,-0.272314
6893,6.906792,6.974376,0.120755,-0.015767,-0.093340,0.063417,88.994354,-44.710915,-89.008377,0.657342,0.272124,-0.647852,-0.272284
6894,6.908961,6.969211,0.125144,-0.008137,-0.082659,0.061899,88.997299,-44.719582,-89.012787,0.657344,0.272067,-0.647891,-0.272243
6895,6.906708,6.962971,0.121140,-0.015768,-0.071977,0.066490,88.996994,-44.733013,-89.014656,0.657371,0.271978,-0.647928,-0.272179
6896,6.908205,6.967075,0.121399,-0.015767,-0.070452,0.069553,89.000305,-44.744282,-89.019020,0.657378,0.271908,-0.647974,-0.272121
6897,6.904792,6.974958,0.126020,-0.000510,-0.073501,0.071075,88.998032,-44.743973,-89.019287,0.657382,0.271895,-0.647968,-0.272137
6898,6.902302,6.972702,0.126341,-0.005094,-0.067392,0.068011,88.990105,-44.735283,-89.015404,0.657391,0.271921,-0.647919,-0.272209
6899,6.900354,6.976840,0.124248,-0.015780,-0.065861,0.063417,88.985336,-44.724056,-89.013847,0.657380,0.271967,-0.647876,-0.272291
6900,6.896960,6.984022,0.128268,-0.017309,-0.062805,0.060341,88.980095,-44.705780,-89.012047,0.657355,0.272051,-0.647814,-0.272415
6901,6.896886,6.980761,0.128274,-0.021893,-0.062799,0.045058,88.971512,-44.687012,-89.007927,0.657342,0.272132,-0.647737,-0.272546
6902,6.900339,6.975346,0.126902,-0.028001,-0.067373,0.038944,88.966209,-44.680183,-89.006310,0.657343,0.272149,-0.647704,-0.272606
6903,6.903838,6.974591,0.126003,-0.026476,-0.076527,0.038948,88.965515,-44.684582,-89.008148,0.657351,0.272110,-0.647718,-0.272595
6904,6.905933,6.971019,0.125567,-0.028002,-0.088735,0.049641,88.967499,-44.695332,-89.012123,0.657361,0.272038,-0.647758,-0.272546
6905,6.909544,6.969693,0.125877,-0.035631,-0.099416,0.046604,88.969574,-44.710278,-89.016533,0.657380,0.271939,-0.647811,-0.272474
6906,6.910676,6.971250,0.129027,-0.029529,-0.100940,0.060352,88.967224,-44.724380,-89.017998,0.657414,0.271837,-0.647844,-0.272416
6907,6.907143,6.969826,0.134510,-0.031064,-0.103983,0.071041,88.955009,-44.733196,-89.012512,0.657476,0.271748,-0.647823,-0.272403
6908,6.906049,6.970853,0.134488,-0.032601,-0.102446,0.067991,88.938461,-44.736340,-89.004028,0.657542,0.271683,-0.647772,-0.272430
6909,6.903244,6.968105,0.132153,-0.031082,-0.102439,0.063411,88.928658,-44.736397,-89.000267,0.657575,0.271648,-0.647740,-0.272464
6910,6.907351,6.966087,0.131991,-0.031085,-0.091754,0.064938,88.925255,-44.739521,-89.000877,0.657588,0.271607,-0.647741,-0.272469
6911,6.906230,6.966664,0.134379,-0.038719,-0.097854,0.063415,88.920883,-44.744762,-89.000832,0.657611,0.271552,-0.647743,-0.272463
6912,6.903153,6.971440,0.126721,-0.034141,-0.090225,0.066463,88.923805,-44.743313,-89.005936,0.657588,0.271549,-0.647759,-0.272484
6913,6.903000,6.972263,0.128283,-0.035662,-0.090229,0.075607,88.934059,-44.736431,-89.016083,0.657524,0.271589,-0.647790,-0.272524
6914,6.904004,6.972321,0.133604,-0.043293,-0.093280,0.063390,88.934364,-44.730598,-89.019363,0.657503,0.271606,-0.647784,-0.272574
6915,6.898456,6.971826,0.127960,-0.026509,-0.105487,0.057276,88.933937,-44.723854,-89.022209,0.657482,0.271626,-0.647773,-0.272631
6917,6.900144,6.973701,0.125336,-0.020401,-0.097861,0.055738,88.943634,-44.715771,-89.031967,0.657417,0.271672,-0.647799,-0.272678
6918,6.903054,6.970850,0.125877,-0.021922,-0.091761,0.045052,88.954277,-44.712887,-89.042183,0.657361,0.271692,-0.647842,-0.272693
6919,6.902478,6.969210,0.125870,-0.023445,-0.088713,0.042001,88.961136,-44.715294,-89.049652,0.657332,0.271675,-0.647882,-0.272683
6920,6.907158,6.968717,0.125956,-0.008186,-0.085663,0.051161,88.965500,-44.721523,-89.055138,0.657323,0.271634,-0.647920,-0.272655
6921,6.908496,6.963417,0.129969,-0.008188,-0.073452,0.054225,88.963387,-44.733604,-89.055702,0.657354,0.271550,-0.647947,-0.272601
6922,6.909761,6.959477,0.129157,0.000963,-0.073447,0.057294,88.956970,-44.750061,-89.052986,0.657413,0.271434,-0.647966,-0.272528
6923,6.911663,6.958597,0.131242,0.013164,-0.087176,0.046631,88.950752,-44.767006,-89.050316,0.657473,0.271317,-0.647986,-0.272452
6924,6.912004,6.957512,0.125105,0.017741,-0.088701,0.045120,88.951553,-44.781528,-89.052582,0.657499,0.271226,-0.648030,-0.272377
6925,6.906902,6.963460,0.123914,-0.003619,-0.094808,0.045124,88.961601,-44.786015,-89.061646,0.657463,0.271207,-0.648086,-0.272347
6926,6.908860,6.971511,0.121522,-0.020398,-0.097866,0.040534,88.974113,-44.777767,-89.073006,0.657388,0.271262,-0.648122,-0.272388
6927,6.905861,6.970994,0.122191,-0.026496,-0.102449,0.042043,88.985321,-44.765030,-89.083801,0.657307,0.271338,-0.648143,-0.272459
6928,6.906178,6.975066,0.121104,-0.031070,-0.102452,0.043552,88.993629,-44.751667,-89.092728,0.657236,0.271411,-0.648151,-0.272540
6929,6.902146,6.975837,0.125729,-0.034122,-0.107029,0.028273,88.995102,-44.736748,-89.097000,0.657188,0.271480,-0.648128,-0.272641
6930,6.903270,6.976705,0.130206,-0.015819,-0.096339,0.029782,88.984787,-44.722847,-89.092720,0.657191,0.271524,-0.648059,-0.272754
6931,6.903524,6.971965,0.133957,-0.009729,-0.102430,0.035877,88.966408,-44.716133,-89.082428,0.657244,0.271515,-0.647974,-0.272837
6932,6.908295,6.962238,0.128401,-0.021945,-0.102422,0.028255,88.953865,-44.723701,-89.076378,0.657305,0.271434,-0.647949,-0.272830
6933,6.906639,6.960809,0.128254,-0.026525,-0.100893,0.045057,88.951805,-44.739681,-89.077888,0.657343,0.271323,-0.647987,-0.272759
6934,6.913498,6.959653,0.127537,-0.038733,-0.094789,0.043550,88.952362,-44.757164,-89.081352,0.657373,0.271207,-0.648039,-0.272677
6935,6.911933,6.950722,0.119936,-0.046359,-0.100898,0.037470,88.962288,-44.778854,-89.091637,0.657374,0.271082,-0.648141,-0.272556
6936,6.915272,6.950216,0.121685,-0.052454,-0.094802,0.034444,88.977135,-44.801453,-89.105553,0.657358,0.270960,-0.648265,-0.272423
6937,6.911504,6.957860,0.126179,-0.047875,-0.084123,0.043611,88.981041,-44.813393,-89.111588,0.657361,0.270880,-0.648318,-0.272368
6938,6.912482,6.955326,0.127408,-0.057034,-0.073437,0.034458,88.975281,-44.815750,-89.110603,0.657382,0.270839,-0.648308,-0.272381
6939,6.910297,6.964027,0.129157,-0.038728,-0.070380,0.058867,88.966362,-44.811993,-89.107117,0.657403,0.270829,-0.648269,-0.272433
6940,6.912020,6.971555,0.135438,-0.031108,-0.067318,0.068004,88.950836,-44.799191,-89.098602,0.657431,0.270861,-0.648180,-0.272545
6941,6.908270,6.974737,0.134640,-0.017387,-0.070358,0.074084,88.932983,-44.781494,-89.088196,0.657458,0.270919,-0.648070,-0.272687
6942,6.911224,6.976663,0.135774,-0.020448,-0.076452,0.074062,88.919914,-44.764790,-89.081139,0.657468,0.270979,-0.647981,-0.272815
6943,6.910264,6.977108,0.135394,-0.020455,-0.071867,0.080148,88.910355,-44.752838,-89.076607,0.657474,0.271018,-0.647918,-0.272911
6944,6.910178,6.969170,0.132397,-0.021983,-0.077969,0.069459,88.907784,-44.748650,-89.077034,0.657469,0.271024,-0.647902,-0.272952
6945,6.909121,6.966883,0.124670,-0.023504,-0.094759,0.061830,88.919518,-44.751850,-89.087845,0.657423,0.271012,-0.647963,-0.272930
6946,6.907696,6.960894,0.121162,-0.028069,-0.093246,0.061835,88.943031,-44.758545,-89.107208,0.657337,0.271000,-0.648082,-0.272870
6947,6.904713,6.959791,0.121231,-0.015850,-0.091732,0.057263,88.965477,-44.765335,-89.125679,0.657255,0.270985,-0.648196,-0.272810
6948,6.901818,6.956217,0.117571,-0.014313,-0.097847,0.057265,88.985825,-44.769455,-89.142586,0.657176,0.270983,-0.648294,-0.272769
6949,6.900311,6.958998,0.119707,-0.003623,-0.084121,0.057263,89.001945,-44.769905,-89.156281,0.657106,0.270995,-0.648366,-0.272753
6950,6.899583,6.958295,0.121021,-0.009725,-0.076494,0.054207,89.008644,-44.767097,-89.163033,0.657068,0.271011,-0.648391,-0.272770
6951,6.900316,6.966799,0.120051,-0.026509,-0.073443,0.046566,89.011314,-44.759892,-89.167091,0.657036,0.271045,-0.648389,-0.272819
6952,6.901036,6.969585,0.117166,-0.034136,-0.070393,0.040446,89.016869,-44.748188,-89.173393,0.656981,0.271107,-0.648389,-0.272891
6953,6.906630,6.968441,0.121247,-0.029557,-0.081075,0.035860,89.019966,-44.741730,-89.178101,0.656947,0.271135,-0.648391,-0.272937
6954,6.906136,6.970287,0.120390,-0.049396,-0.103962,0.038908,89.018410,-44.740387,-89.180107,0.656943,0.271123,-0.648389,-0.272965
6955,6.907299,6.968825,0.124392,-0.055504,-0.094803,0.037381,89.012779,-44.740322,-89.179710,0.656957,0.271093,-0.648374,-0.272995
6956,6.907401,6.965022,0.129464,-0.044833,-0.100896,0.031280,88.997505,-44.744041,-89.172440,0.657019,0.271026,-0.648330,-0.273018
6957,6.907440,6.966797,0.133437,-0.047900,-0.106986,0.034336,88.974953,-44.748371,-89.160103,0.657112,0.270941,-0.648258,-0.273050
6958,6.903435,6.972294,0.131424,-0.058594,-0.099343,0.035857,88.955368,-44.745037,-89.149979,0.657175,0.270905,-0.648179,-0.273122
6959,6.902896,6.970982,0.128404,-0.061651,-0.082553,0.032795,88.947083,-44.736488,-89.147705,0.657180,0.270919,-0.648133,-0.273205
6960,6.904010,6.971332,0.125531,-0.061650,-0.091708,0.032786,88.949402,-44.730526,-89.152832,0.657149,0.270938,-0.648136,-0.273255
6961,6.902286,6.970568,0.121043,-0.066221,-0.090189,0.040409,88.961166,-44.726700,-89.164749,0.657084,0.270959,-0.648182,-0.273278
6962,6.901151,6.966701,0.120428,-0.069264,-0.087146,0.034302,88.976593,-44.725361,-89.179276,0.657010,0.270973,-0.648250,-0.273282
6963,6.900578,6.965174,0.120059,-0.075360,-0.096308,0.026673,88.989151,-44.726669,-89.191971,0.656953,0.270966,-0.648313,-0.273276
6964,6.901677,6.967672,0.124653,-0.078410,-0.105466,0.022095,88.992996,-44.727478,-89.198860,0.656929,0.270945,-0.648341,-0.273290
6965,6.900667,6.969413,0.126560,-0.078414,-0.099358,0.035826,88.987022,-44.725662,-89.198906,0.656939,0.270920,-0.648322,-0.273334
6966,6.901581,6.966850,0.123810,-0.072315,-0.099355,0.023615,88.982323,-44.724445,-89.199715,0.656945,0.270896,-0.648310,-0.273372
6967,6.909897,6.967099,0.120345,-0.070786,-0.102409,0.031251,88.986504,-44.730415,-89.206703,0.656933,0.270846,-0.648351,-0.273355
6968,6.911180,6.968644,0.121329,-0.058575,-0.088680,0.028210,88.993744,-44.740417,-89.215569,0.656917,0.270781,-0.648414,-0.273308
6969,6.911848,6.963305,0.121835,-0.057047,-0.084104,0.040428,88.997475,-44.751629,-89.221581,0.656920,0.270704,-0.648465,-0.273257
6970,6.918939,6.968229,0.124122,-0.046367,-0.088681,0.035864,88.996590,-44.764740,-89.224205,0.656945,0.270609,-0.648501,-0.273202
6971,6.917802,6.972111,0.132891,-0.044850,-0.084094,0.043502,88.982803,-44.772701,-89.217598,0.657012,0.270522,-0.648472,-0.273197
6972,6.915103,6.975559,0.133798,-0.049441,-0.087132,0.032818,88.959938,-44.771011,-89.204605,0.657093,0.270474,-0.648383,-0.273262
6973,6.918203,6.976550,0.133973,-0.040298,-0.094749,0.049595,88.941345,-44.766190,-89.194695,0.657149,0.270451,-0.648303,-0.273338
6974,6.919544,6.971534,0.128946,-0.029621,-0.105426,0.048069,88.934799,-44.767529,-89.193253,0.657171,0.270414,-0.648288,-0.273359
6975,6.909005,6.970521,0.129239,-0.037251,-0.094744,0.049593,88.937279,-44.767540,-89.198135,0.657154,0.270401,-0.648305,-0.273373
6976,6.910132,6.969940,0.126369,-0.043353,-0.110005,0.049586,88.943108,-44.762802,-89.205589,0.657112,0.270419,-0.648325,-0.273409
6977,6.905347,6.970539,0.125075,-0.029615,-0.105432,0.052627,88.952934,-44.756683,-89.215889,0.657050,0.270452,-0.648358,-0.273448
6978,6.899491,6.972384,0.121952,-0.038764,-0.103912,0.057189,88.965698,-44.744591,-89.228134,0.656963,0.270525,-0.648387,-0.273514
6979,6.898572,6.987607,0.120817,-0.041809,-0.093237,0.035796,88.980179,-44.720940,-89.241577,0.656843,0.270667,-0.648395,-0.273644
6980,6.903571,6.986041,0.116452,-0.038748,-0.100875,0.022033,88.997421,-44.696266,-89.256943,0.656709,0.270819,-0.648412,-0.273775
6981,6.901364,6.990993,0.114955,-0.038737,-0.091729,0.025062,89.017059,-44.678005,-89.273941,0.656580,0.270940,-0.648454,-0.273865
6982,6.903526,6.987334,0.118377,-0.046361,-0.087158,0.034200,89.028900,-44.665215,-89.285362,0.656495,0.271016,-0.648478,-0.273936
6983,6.907678,6.987203,0.121586,-0.023473,-0.099364,0.021989,89.028885,-44.662624,-89.288376,0.656482,0.271013,-0.648479,-0.273968
6984,6.904210,6.983089,0.125148,-0.026532,-0.106987,0.023517,89.019905,-44.664848,-89.285080,0.656516,0.270968,-0.648455,-0.273988
6985,6.901154,6.978262,0.125705,-0.028067,-0.105452,0.029624,89.007256,-44.668568,-89.279343,0.656568,0.270907,-0.648420,-0.274005
6986,6.899531,6.972195,0.127859,-0.025025,-0.120702,0.026579,88.994537,-44.675056,-89.273689,0.656627,0.270829,-0.648392,-0.274008
6987,6.899273,6.974510,0.126764,-0.018928,-0.142058,0.020481,88.984848,-44.681011,-89.270493,0.656671,0.270757,-0.648376,-0.274011
6988,6.899845,6.967887,0.126910,-0.040297,-0.131370,0.022015,88.979271,-44.687843,-89.270493,0.656700,0.270687,-0.648380,-0.274003
6989,6.902791,6.966058,0.123834,-0.038773,-0.123739,0.028132,88.978470,-44.700001,-89.273872,0.656722,0.270594,-0.648416,-0.273958
6990,6.906464,6.969038,0.123894,-0.038772,-0.122214,0.031198,88.981979,-44.712875,-89.280151,0.656728,0.270505,-0.648471,-0.273901
6991,6.909713,6.975972,0.124540,-0.032670,-0.102377,0.041886,88.984238,-44.720711,-89.285225,0.656728,0.270444,-0.648507,-0.273873
6992,6.904848,6.978282,0.118662,-0.032667,-0.088647,0.034253,88.991486,-44.719379,-89.293327,0.656689,0.270447,-0.648541,-0.273886
6993,6.905881,6.985721,0.114446,-0.028079,-0.091708,0.040343,89.009239,-44.709286,-89.308655,0.656587,0.270520,-0.648594,-0.273930
6994,6.905241,6.988041,0.115032,-0.037224,-0.093244,0.044903,89.027847,-44.695587,-89.324677,0.656473,0.270614,-0.648643,-0.273995
6995,6.903574,6.985230,0.117057,-0.037219,-0.090196,0.041836,89.038078,-44.684174,-89.334900,0.656399,0.270680,-0.648664,-0.274060
6996,6.902402,6.983692,0.116678,-0.043322,-0.090198,0.035723,89.042068,-44.677010,-89.340775,0.656359,0.270710,-0.648669,-0.274112
6997,6.906198,6.980201,0.123021,-0.037222,-0.084090,0.038773,89.036926,-44.676834,-89.340149,0.656372,0.270685,-0.648655,-0.274139
6998,6.903681,6.974492,0.128773,-0.041812,-0.076448,0.032676,89.017487,-44.683624,-89.329300,0.656459,0.270597,-0.648600,-0.274148
6999,6.901816,6.968189,0.131283,-0.032673,-0.084062,0.028109,88.991760,-44.693626,-89.313972,0.656580,0.270479,-0.648527,-0.274149
7000,6.900424,6.970627,0.134145,-0.032690,-0.093202,0.035747,88.966515,-44.701580,-89.299065,0.656693,0.270373,-0.648451,-0.274161
7001,6.906206,6.966963,0.127268,-0.034225,-0.091667,0.032704,88.953217,-44.710396,-89.292671,0.656760,0.270283,-0.648425,-0.274149
7002,6.906619,6.965325,0.125110,-0.032698,-0.097772,0.041874,88.955872,-44.723770,-89.297546,0.656773,0.270195,-0.648476,-0.274086
7003,6.906372,6.966826,0.124138,-0.031169,-0.099301,0.031202,88.963860,-44.734192,-89.306236,0.656757,0.270132,-0.648541,-0.274032
7004,6.908009,6.965662,0.119711,-0.031162,-0.091678,0.029685,88.976562,-44.741707,-89.318153,0.656716,0.270094,-0.648618,-0.273985
7005,6.909972,6.963827,0.118305,-0.028102,-0.097790,0.037323,88.993095,-44.750706,-89.332710,0.656662,0.270055,-0.648714,-0.273924
7006,6.906072,6.963847,0.131370,-0.022000,-0.105418,0.049537,88.992241,-44.757504,-89.335091,0.656674,0.269998,-0.648735,-0.273904
7007,6.905636,6.961505,0.130644,-0.026590,-0.102354,0.051065,88.974831,-44.760963,-89.325836,0.656745,0.269931,-0.648680,-0.273930
7008,6.904068,6.964601,0.128199,-0.035753,-0.093190,0.066323,88.963287,-44.761665,-89.320732,0.656786,0.269890,-0.648642,-0.273962
7009,6.908811,6.969977,0.135022,-0.043391,-0.088604,0.060213,88.950424,-44.758820,-89.314728,0.656825,0.269866,-0.648590,-0.274016
7010,6.906140,6.968728,0.130155,-0.040347,-0.077914,0.051051,88.938507,-44.754799,-89.309265,0.656857,0.269852,-0.648539,-0.274075
7011,6.908005,6.967975,0.117657,-0.043393,-0.080973,0.046468,88.950157,-44.752407,-89.320305,0.656797,0.269870,-0.648587,-0.274086
7012,6.909807,6.967545,0.117811,-0.046430,-0.077935,0.043416,88.976082,-44.753765,-89.341484,0.656689,0.269891,-0.648702,-0.274053
7013,6.909441,6.967310,0.118528,-0.037263,-0.087102,0.043417,88.995872,-44.756439,-89.358337,0.656608,0.269893,-0.648795,-0.274023
7014,6.906399,6.960104,0.111861,-0.026571,-0.090165,0.055627,89.016495,-44.761131,-89.375671,0.656529,0.269887,-0.648897,-0.273978
7015,6.909389,6.964154,0.116847,-0.021984,-0.090174,0.051054,89.033607,-44.766735,-89.390404,0.656466,0.269869,-0.648986,-0.273934
7016,6.906633,6.965896,0.123542,-0.018934,-0.082542,0.048001,89.031868,-44.767395,-89.391685,0.656468,0.269848,-0.648987,-0.273947
7017,6.906427,6.974256,0.121230,-0.021992,-0.079483,0.058671,89.022865,-44.759632,-89.387726,0.656481,0.269863,-0.648937,-0.274020
7018,6.908864,6.971162,0.121522,-0.032677,-0.082531,0.052555,89.017616,-44.751213,-89.386566,0.656477,0.269888,-0.648901,-0.274091
7020,6.906198,6.971589,0.123160,-0.032682,-0.094733,0.046444,89.012169,-44.746281,-89.385567,0.656481,0.269890,-0.648874,-0.274144
7021,6.901625,6.972837,0.114639,-0.035733,-0.096261,0.047959,89.016464,-44.738022,-89.391640,0.656437,0.269928,-0.648878,-0.274201
7022,6.898920,6.977212,0.115062,-0.046407,-0.096267,0.044888,89.030243,-44.724121,-89.404556,0.656342,0.270013,-0.648907,-0.274276
7023,6.898920,6.979584,0.121203,-0.047932,-0.102372,0.035712,89.033852,-44.707577,-89.410538,0.656281,0.270094,-0.648889,-0.274384
7024,6.897374,6.980705,0.119244,-0.025046,-0.097791,0.038744,89.030594,-44.692272,-89.411453,0.656252,0.270157,-0.648846,-0.274495
7025,6.896472,6.987076,0.117285,-0.026572,-0.077953,0.046353,89.031929,-44.675892,-89.415062,0.656202,0.270238,-0.648818,-0.274601
7026,6.899324,6.987720,0.118420,-0.029623,-0.077953,0.055489,89.034225,-44.661350,-89.419167,0.656153,0.270311,-0.648797,-0.274695
7027,6.901487,6.989261,0.116528,-0.020468,-0.074901,0.055477,89.036987,-44.653030,-89.423485,0.656117,0.270350,-0.648794,-0.274751
7028,6.899383,6.983817,0.109632,-0.014357,-0.071856,0.058523,89.049316,-44.650387,-89.434273,0.656056,0.270374,-0.648842,-0.274758
7029,6.900933,6.983041,0.110988,-0.023504,-0.064235,0.043264,89.065598,-44.652431,-89.447754,0.655990,0.270379,-0.648918,-0.274731
7030,6.904367,6.980470,0.116600,-0.020451,-0.071866,0.044797,89.069580,-44.659134,-89.452667,0.655985,0.270336,-0.648955,-0.274699
7031,6.904757,6.973759,0.121201,-0.012828,-0.067282,0.041758,89.058853,-44.672123,-89.447151,0.656053,0.270232,-0.648949,-0.274654
7032,6.908026,6.970684,0.121990,-0.015891,-0.064219,0.044830,89.042587,-44.690109,-89.437584,0.656156,0.270090,-0.648931,-0.274589
7033,6.907360,6.970474,0.126920,-0.022007,-0.068785,0.050951,89.023285,-44.707245,-89.426010,0.656268,0.269948,-0.648900,-0.274535
7034,6.905942,6.970552,0.125327,-0.012862,-0.084033,0.072326,89.005493,-44.718685,-89.415688,0.656361,0.269839,-0.648861,-0.274511
7035,6.906828,6.971761,0.129317,-0.011347,-0.085549,0.079961,88.990639,-44.725475,-89.407494,0.656431,0.269762,-0.648823,-0.274510
7036,6.908759,6.972022,0.128147,-0.018986,-0.094695,0.070809,88.977234,-44.730434,-89.400520,0.656491,0.269696,-0.648786,-0.274518
7037,6.908204,6.963723,0.124781,-0.022042,-0.093166,0.079971,88.972885,-44.739277,-89.400139,0.656523,0.269623,-0.648797,-0.274490
7038,6.908618,6.957809,0.126850,-0.015940,-0.085534,0.066253,88.972176,-44.754284,-89.402168,0.656554,0.269522,-0.648837,-0.274420
7039,6.907753,6.952546,0.125520,-0.023571,-0.076377,0.064745,88.970779,-44.771896,-89.403534,0.656594,0.269405,-0.648880,-0.274336
7040,6.905029,6.952592,0.123060,-0.028149,-0.079430,0.047974,88.973701,-44.785561,-89.408028,0.656608,0.269319,-0.648931,-0.274267
7041,6.904154,6.962247,0.124469,-0.020518,-0.077905,0.054077,88.977905,-44.786858,-89.413399,0.656588,0.269305,-0.648957,-0.274267
7042,6.905009,6.969250,0.124831,-0.014414,-0.097742,0.046432,88.979927,-44.776276,-89.417290,0.656550,0.269355,-0.648945,-0.274338
7043,6.907003,6.974857,0.122324,-0.023568,-0.099268,0.054043,88.984116,-44.761368,-89.422989,0.656492,0.269432,-0.648932,-0.274431
7044,6.908854,6.974694,0.127179,-0.031199,-0.106897,0.046396,88.984680,-44.749138,-89.426453,0.656454,0.269485,-0.648911,-0.274518
7045,6.909080,6.970369,0.124059,-0.032728,-0.103842,0.052492,88.982391,-44.744541,-89.428062,0.656445,0.269489,-0.648898,-0.274566
7046,6.908711,6.963488,0.123103,-0.044936,-0.099264,0.032658,88.984505,-44.748581,-89.432846,0.656438,0.269451,-0.648924,-0.274558
7047,6.906869,6.966364,0.123305,-0.046462,-0.087058,0.035714,88.986923,-44.753452,-89.437813,0.656432,0.269409,-0.648954,-0.274546
7048,6.904199,6.963612,0.119888,-0.041881,-0.100793,0.034188,88.992531,-44.754398,-89.445007,0.656404,0.269395,-0.648986,-0.274550
7049,6.908045,6.972177,0.119095,-0.028143,-0.097746,0.035710,89.002510,-44.751869,-89.455193,0.656350,0.269409,-0.649028,-0.274566
7050,6.908290,6.975876,0.114994,-0.038817,-0.099278,0.034175,89.016235,-44.744884,-89.467957,0.656271,0.269455,-0.649074,-0.274601
7051,6.907888,6.981322,0.112564,-0.040334,-0.097761,0.038738,89.034187,-44.733944,-89.483833,0.656166,0.269530,-0.649127,-0.274652
7052,6.908603,6.983594,0.119080,-0.038804,-0.096239,0.029565,89.042992,-44.721130,-89.493248,0.656093,0.269601,-0.649139,-0.274729
7053,6.912227,6.989257,0.119977,-0.040333,-0.087081,0.034129,89.039368,-44.709461,-89.493782,0.656073,0.269643,-0.649103,-0.274819
7054,6.907108,6.988564,0.118078,-0.054069,-0.084026,0.035638,89.035812,-44.697601,-89.494400,0.656053,0.269687,-0.649067,-0.274910
7055,6.908930,6.991768,0.121719,-0.044917,-0.077918,0.031046,89.031075,-44.685619,-89.494133,0.656037,0.269730,-0.649026,-0.275004
7056,6.904998,6.991566,0.120202,-0.034241,-0.080966,0.047816,89.025383,-44.674210,-89.492928,0.656027,0.269769,-0.648981,-0.275094
7057,6.905688,6.983152,0.113725,-0.028134,-0.079442,0.056963,89.030579,-44.669720,-89.499191,0.655989,0.269789,-0.648997,-0.275126
7058,6.902297,6.976111,0.114764,-0.020499,-0.080974,0.053915,89.042084,-44.675022,-89.509727,0.655949,0.269765,-0.649063,-0.275091
7059,6.901536,6.977158,0.116676,-0.009815,-0.085554,0.058498,89.048096,-44.681259,-89.516251,0.655934,0.269727,-0.649108,-0.275059
7060,6.901045,6.975074,0.119564,-0.000662,-0.094706,0.064605,89.046577,-44.685863,-89.517418,0.655945,0.269685,-0.649118,-0.275048
7061,6.905441,6.967373,0.121589,0.003910,-0.103856,0.050882,89.039040,-44.696747,-89.514412,0.655995,0.269597,-0.649120,-0.275011
7062,6.903967,6.970945,0.120470,-0.006779,-0.111480,0.050895,89.031830,-44.709332,-89.511917,0.656047,0.269498,-0.649127,-0.274966
7063,6.903933,6.973389,0.120464,-0.003731,-0.116053,0.043269,89.028221,-44.714085,-89.512169,0.656066,0.269449,-0.649131,-0.274961
7064,6.905381,6.973296,0.119887,-0.011363,-0.116050,0.038692,89.026871,-44.715652,-89.514130,0.656068,0.269421,-0.649136,-0.274971
7065,6.908678,6.965639,0.114782,-0.023569,-0.105371,0.031071,89.032181,-44.723473,-89.520882,0.656057,0.269369,-0.649184,-0.274935
7066,6.910656,6.966168,0.118432,-0.040352,-0.096217,0.037188,89.037659,-44.737190,-89.527855,0.656059,0.269282,-0.649247,-0.274866
7067,6.912780,6.965532,0.121485,-0.034252,-0.099265,0.038728,89.033539,-44.750401,-89.528137,0.656099,0.269182,-0.649270,-0.274816
7068,6.916038,6.968186,0.125877,-0.040365,-0.096205,0.050947,89.020592,-44.761932,-89.522194,0.656170,0.269076,-0.649253,-0.274790
7069,6.915454,6.965047,0.127922,-0.038851,-0.090090,0.052483,89.002319,-44.771961,-89.512436,0.656259,0.268969,-0.649211,-0.274781
7070,6.914653,6.970274,0.128499,-0.034284,-0.100760,0.064695,88.985619,-44.777111,-89.503769,0.656331,0.268893,-0.649163,-0.274796
7071,6.911187,6.970435,0.127592,-0.020559,-0.097701,0.069267,88.974800,-44.774754,-89.499115,0.656362,0.268871,-0.649121,-0.274844
7072,6.911931,6.971823,0.124469,-0.014457,-0.083965,0.063155,88.972672,-44.769516,-89.500137,0.656353,0.268883,-0.649105,-0.274892
7073,6.908703,6.967999,0.119116,-0.009875,-0.083969,0.050940,88.982140,-44.765095,-89.509064,0.656299,0.268912,-0.649138,-0.274914
7074,6.910534,6.967785,0.116981,-0.002237,-0.091608,0.044832,88.999557,-44.763344,-89.523521,0.656219,0.268940,-0.649209,-0.274909
7075,6.909322,6.974764,0.119474,0.003873,-0.085510,0.028040,89.013138,-44.758507,-89.535149,0.656148,0.268979,-0.649258,-0.274926
7076,6.914284,6.975703,0.123660,-0.002232,-0.080931,0.014297,89.014534,-44.751621,-89.538071,0.656122,0.269010,-0.649251,-0.274974
7077,6.910799,6.973909,0.126131,-0.006817,-0.087028,0.011241,89.005913,-44.747414,-89.534096,0.656142,0.269007,-0.649211,-0.275024
7078,6.913336,6.972675,0.125939,-0.015980,-0.083968,0.003609,88.995415,-44.745777,-89.528992,0.656176,0.268985,-0.649169,-0.275063
7079,6.912551,6.976046,0.127243,-0.014461,-0.079383,-0.004023,88.986130,-44.744488,-89.524742,0.656205,0.268963,-0.649134,-0.275099
7080,6.909650,6.970511,0.125997,-0.025147,-0.076326,0.000553,88.979256,-44.742653,-89.522209,0.656223,0.268949,-0.649107,-0.275134
7081,6.909144,6.974329,0.124051,-0.029727,-0.079377,0.003602,88.978073,-44.740417,-89.523865,0.656216,0.268945,-0.649103,-0.275163
7082,6.909288,6.972007,0.124662,-0.037356,-0.076324,0.003599,88.979431,-44.737740,-89.527451,0.656198,0.268948,-0.649108,-0.275191
7083,6.908778,6.980164,0.127165,-0.041936,-0.076322,0.014273,88.977005,-44.732296,-89.528473,0.656189,0.268959,-0.649091,-0.275241
7084,6.907913,6.981316,0.127870,-0.049570,-0.083948,0.020364,88.971107,-44.722034,-89.527290,0.656182,0.268991,-0.649049,-0.275326
7085,6.907729,6.978164,0.127030,-0.046522,-0.082418,0.034088,88.966522,-44.714867,-89.527145,0.656177,0.269006,-0.649020,-0.275392
7086,6.906075,6.974593,0.120380,-0.038889,-0.088525,0.037137,88.972244,-44.713367,-89.534187,0.656143,0.269008,-0.649047,-0.275408
7087,6.900558,6.975877,0.119312,-0.032779,-0.083954,0.038658,88.986992,-44.710365,-89.547432,0.656070,0.269035,-0.649106,-0.275418
7088,6.896614,6.970536,0.115276,-0.031242,-0.091592,0.026442,89.004883,-44.704666,-89.562836,0.655977,0.269082,-0.649171,-0.275437
7089,6.895816,6.969922,0.112973,-0.040387,-0.080922,0.031014,89.025246,-44.700809,-89.580025,0.655879,0.269123,-0.649251,-0.275442
7090,6.896548,6.975075,0.115385,-0.035801,-0.083982,0.029481,89.039925,-44.695671,-89.593185,0.655801,0.269162,-0.649305,-0.275463
7091,6.891164,6.977687,0.120584,-0.041906,-0.083982,0.027941,89.040947,-44.684425,-89.596802,0.655764,0.269212,-0.649288,-0.275542
7092,6.898849,6.979443,0.117828,-0.040383,-0.083978,0.034032,89.036934,-44.674370,-89.596916,0.655750,0.269245,-0.649254,-0.275623
7093,6.901318,6.979630,0.121126,-0.031231,-0.077871,0.052339,89.032814,-44.672577,-89.596764,0.655756,0.269233,-0.649239,-0.275655
7094,6.901488,6.974985,0.122224,-0.032763,-0.077865,0.058445,89.024666,-44.676964,-89.593605,0.655793,0.269179,-0.649223,-0.275658
7095,6.900600,6.978229,0.122441,-0.031243,-0.077860,0.058448,89.016708,-44.681469,-89.590584,0.655829,0.269125,-0.649208,-0.275661
7096,6.905156,6.977159,0.123491,-0.032774,-0.076329,0.070657,89.009567,-44.685795,-89.588104,0.655862,0.269073,-0.649195,-0.275662
7097,6.903718,6.980543,0.128519,-0.048041,-0.085477,0.063030,88.997391,-44.689384,-89.582375,0.655913,0.269016,-0.649161,-0.275678
7098,6.901829,6.980146,0.126918,-0.052627,-0.082416,0.052344,88.983795,-44.687809,-89.575966,0.655956,0.268983,-0.649110,-0.275727
7099,6.905144,6.985084,0.124919,-0.043475,-0.088516,0.046234,88.978264,-44.683914,-89.575203,0.655962,0.268978,-0.649085,-0.275777
7100,6.905219,6.979500,0.125174,-0.055684,-0.093092,0.046232,88.977592,-44.683075,-89.578026,0.655955,0.268963,-0.649088,-0.275801
7101,6.905562,6.976564,0.120727,-0.057207,-0.085465,0.035555,88.982193,-44.687973,-89.584686,0.655940,0.268924,-0.649127,-0.275785
7102,6.903622,6.971856,0.118533,-0.040416,-0.076315,0.029458,88.993828,-44.695587,-89.595917,0.655903,0.268883,-0.649200,-0.275741
7103,6.903487,6.971399,0.120099,-0.032781,-0.079373,0.034043,89.004074,-44.703182,-89.605804,0.655872,0.268842,-0.649266,-0.275696
7104,6.899649,6.967514,0.124135,-0.028204,-0.077846,0.038626,89.004852,-44.708920,-89.608910,0.655876,0.268797,-0.649289,-0.275677
7105,6.901690,6.969284,0.122119,-0.006844,-0.071741,0.029474,89.001968,-44.712833,-89.609055,0.655892,0.268757,-0.649292,-0.275672
7106,6.903737,6.973309,0.126004,0.000782,-0.083944,0.040156,88.997932,-44.714436,-89.608116,0.655907,0.268730,-0.649284,-0.275680
7107,6.906388,6.966703,0.123054,-0.009904,-0.093095,0.040160,88.994019,-44.719685,-89.607544,0.655930,0.268681,-0.649287,-0.275669
7108,6.909285,6.967441,0.120936,-0.017533,-0.096147,0.043224,88.996895,-44.730747,-89.612122,0.655938,0.268608,-0.649331,-0.275616
7109,6.909476,6.964866,0.118414,-0.037366,-0.093099,0.029503,89.004845,-44.742249,-89.620583,0.655925,0.268540,-0.649398,-0.275554
