seq,ax,ay,az,wroll,wpitch,wyaw,roll,pitch,yaw,q0,q1,q2,q3
61,-0.116691,-1.932035,9.720602,12.269623,9.631213,-35.447678,-11.241419,0.674578,-0.134074,0.995175,-0.097934,0.005973,-0.000588
62,-0.105364,-1.989696,9.565307,13.401816,12.501473,-38.510208,-11.099375,0.780795,-0.827761,0.995268,-0.096655,0.007480,-0.006531
63,-0.309290,-1.800108,9.725891,14.631721,13.507137,-40.022385,-10.646600,1.023414,-2.194457,0.995481,-0.092585,0.010667,-0.018237
64,-0.444758,-1.612274,10.118002,19.813948,12.375102,-39.764462,-9.955054,1.375323,-3.576054,0.995705,-0.086343,0.014658,-0.030041
65,-0.724622,-1.559147,10.582036,22.002388,11.137900,-35.261395,-9.083661,1.819956,-4.866477,0.995889,-0.078433,0.019179,-0.041060
66,-0.855216,-1.418848,10.598138,20.911602,9.841294,-28.460262,-8.207410,2.356427,-5.958833,0.995954,-0.070384,0.024201,-0.050363
67,-0.791670,-1.353313,10.761696,15.241470,8.352366,-23.136246,-7.479441,2.844299,-6.842302,0.995882,-0.063610,0.028613,-0.057914
68,-0.738335,-1.432978,10.740074,11.881461,6.884664,-18.692717,-7.004191,3.199539,-7.562050,0.995684,-0.059091,0.031831,-0.064093
69,-0.711840,-1.430583,10.524127,7.617954,5.523677,-14.424687,-6.769459,3.451000,-8.138137,0.995414,-0.056732,0.034170,-0.069030
70,-0.627730,-1.312937,10.186888,2.678424,4.649380,-11.955742,-6.713408,3.613015,-8.600453,0.995118,-0.055998,0.035770,-0.072976
71,-0.680348,-1.293101,9.782445,-2.142089,3.331012,-10.301641,-6.821773,3.726451,-8.991072,0.994783,-0.056738,0.037017,-0.076273
72,-0.755642,-1.338343,9.607059,-6.147802,0.558495,-7.950190,-7.108704,3.824389,-9.310051,0.994398,-0.059054,0.038222,-0.078893
73,-0.705413,-1.176292,9.102567,-7.901203,-1.748597,-7.698406,-7.450917,3.858071,-9.573305,0.994026,-0.061909,0.038892,-0.081043
74,-0.471030,-1.324735,8.917013,-12.202892,-4.194678,-6.015321,-7.883679,3.709667,-9.792904,0.993663,-0.065701,0.038037,-0.082892
75,-0.090987,-1.526239,8.903411,-10.294195,-7.240752,-2.446242,-8.454946,3.234355,-9.916462,0.993332,-0.070979,0.034408,-0.084087
76,0.231222,-1.516809,9.125296,-4.224299,-9.980429,-0.769358,-8.885532,2.422998,-9.934229,0.993171,-0.075330,0.027706,-0.084673
77,0.289270,-1.404640,9.129823,2.021243,-11.046256,-0.941902,-8.977362,1.480800,-9.909303,0.993212,-0.076851,0.019593,-0.085088
78,0.250578,-1.479230,9.424767,3.864578,-12.517839,0.913530,-8.865072,0.612993,-9.849119,0.993350,-0.076541,0.011948,-0.085174
79,0.079044,-1.374638,9.523958,5.808666,-13.484085,2.868189,-8.655824,-0.076835,-9.721275,0.993558,-0.075250,0.005728,-0.084541
80,-0.050541,-1.317621,9.611731,3.448184,-13.688620,4.772535,-8.402303,-0.553022,-9.528477,0.993826,-0.073404,0.001288,-0.083184
81,-0.048328,-1.279517,9.646266,-1.768813,-13.470312,9.895081,-8.264920,-0.884542,-9.221443,0.994098,-0.072446,-0.001881,-0.080729
82,0.131828,-1.289215,9.563278,-6.454811,-13.601462,17.527771,-8.315638,-1.202328,-8.704985,0.994379,-0.073085,-0.004932,-0.076447
83,0.310110,-1.470027,9.700450,-9.445601,-12.660008,24.809477,-8.579899,-1.565157,-7.942518,0.994640,-0.075560,-0.008407,-0.070075
84,0.432547,-1.554067,9.747574,-10.670983,-11.526374,30.519472,-8.996675,-1.925848,-6.967222,0.994857,-0.079292,-0.011958,-0.061883
85,0.345853,-1.565529,9.692645,-14.134890,-11.387601,36.078411,-9.495298,-2.193462,-5.807606,0.995027,-0.083612,-0.014858,-0.052058
86,0.162453,-1.623680,9.801761,-17.957338,-12.583831,41.214691,-10.087898,-2.290387,-4.469372,0.995103,-0.088612,-0.016466,-0.040590
87,-0.097008,-1.939502,9.969626,-20.263083,-14.132310,45.997002,-10.838743,-2.191376,-2.958506,0.994970,-0.094888,-0.016593,-0.027500
88,-0.120451,-2.024655,9.752857,-21.703705,-15.715753,48.612530,-11.717982,-1.989163,-1.314623,0.994540,-0.102257,-0.016095,-0.013182
89,-0.088902,-2.211907,9.632400,-23.225227,-17.062704,50.382698,-12.664259,-1.815708,0.412973,0.993774,-0.110220,-0.016145,0.001834
90,0.018012,-2.377252,9.492533,-21.464527,-16.479460,49.761726,-13.636866,-1.699289,2.166125,0.992674,-0.118411,-0.016965,0.017006
91,0.127648,-2.576341,9.312304,-21.505997,-14.436032,46.201797,-14.616732,-1.631931,3.846001,0.991278,-0.126651,-0.018385,0.031470
92,0.372529,-2.560997,9.221636,-21.965527,-11.538275,40.691696,-15.566614,-1.649344,5.361069,0.989692,-0.134598,-0.020577,0.044384
93,0.415154,-2.595179,9.344919,-22.752977,-8.860387,34.671894,-16.407816,-1.723390,6.665082,0.988106,-0.141574,-0.023154,0.055387
94,0.211519,-2.578586,9.564959,-22.818478,-6.498278,26.827101,-17.107658,-1.693007,7.718782,0.986674,-0.147402,-0.024586,0.064360
95,-0.058215,-2.613634,9.567256,-21.438780,-4.526579,19.800266,-17.656837,-1.467743,8.508324,0.985495,-0.152102,-0.024006,0.071336
96,-0.292026,-2.532925,9.396172,-18.876385,-2.121304,13.309102,-18.047419,-1.056614,9.057453,0.984612,-0.155628,-0.021462,0.076537
97,-0.540967,-2.631063,9.406825,-16.645065,1.069996,6.213730,-18.310860,-0.478172,9.362431,0.984013,-0.158245,-0.017091,0.079910
98,-0.800140,-2.825948,9.424027,-10.576124,4.942010,-1.241704,-18.495556,0.265940,9.403419,0.983648,-0.160351,-0.010890,0.081274
99,-0.798880,-2.868787,9.317625,-7.209682,9.628880,-7.705274,-18.594742,1.084458,9.182903,0.983530,-0.161780,-0.003623,0.080519
100,-0.866812,-3.143507,9.497546,-7.409442,14.768850,-14.393184,-18.739910,1.903777,8.703400,0.983472,-0.163561,0.003992,0.077553
101,-0.867412,-3.411859,9.485869,-5.659268,17.859394,-19.729164,-19.036610,2.692556,7.984707,0.983298,-0.166529,0.011605,0.072522
102,-0.770953,-3.383665,9.323791,-7.063282,18.612053,-22.025558,-19.423433,3.354800,7.118810,0.983039,-0.170085,0.018328,0.066096
103,-0.607209,-3.252044,8.952777,-12.897015,17.434202,-21.807301,-19.908016,3.810914,6.220562,0.982640,-0.174284,0.023328,0.059151
104,-0.454170,-3.463772,8.895555,-17.757244,14.069479,-20.063200,-20.602861,4.008642,5.373861,0.981904,-0.180134,0.025995,0.052342
105,-0.082767,-3.351045,8.703082,-20.255337,9.216681,-18.754101,-21.408337,3.832731,4.623473,0.981000,-0.186809,0.025344,0.045819
106,0.074406,-3.437239,8.831216,-23.931314,5.588952,-17.525965,-22.205349,3.318719,3.973842,0.980089,-0.193356,0.021724,0.039581
107,0.161916,-3.747948,8.981505,-22.223831,1.982529,-15.884335,-23.023344,2.651265,3.417275,0.979049,-0.200101,0.016710,0.033824
108,0.235825,-3.789783,9.377228,-16.567179,-1.686431,-14.477695,-23.649700,1.905213,2.958746,0.978229,-0.205244,0.010977,0.028671
109,0.288979,-3.820977,9.567213,-6.996333,-4.918918,-12.076126,-23.858631,1.127091,2.608343,0.978056,-0.206860,0.004916,0.024300
110,0.174914,-3.789356,9.608330,0.394074,-8.444237,-7.576352,-23.690517,0.417910,2.405170,0.978468,-0.205298,-0.000740,0.021289
111,0.269164,-3.877106,9.583613,4.720406,-11.986217,-1.486514,-23.338573,-0.221348,2.404637,0.979122,-0.202178,-0.006135,0.020159
112,0.417610,-3.871251,9.497965,7.365069,-14.681308,3.753380,-22.950455,-0.882882,2.612820,0.979762,-0.198714,-0.012084,0.020810
113,0.348287,-3.835298,9.097399,3.358094,-17.097095,8.164723,-22.696005,-1.510292,2.999588,0.980097,-0.196345,-0.018067,0.023067
114,0.307289,-4.027235,8.582196,-3.990957,-17.504633,11.848264,-22.879261,-2.011431,3.535025,0.979624,-0.197680,-0.023312,0.026747
115,0.310420,-4.270913,8.391102,-8.868359,-15.574366,13.291798,-23.552004,-2.367492,4.152540,0.978254,-0.203176,-0.027603,0.031246
116,0.326790,-4.239364,8.448443,-9.871490,-12.400409,12.151969,-24.368269,-2.587142,4.748146,0.976584,-0.209905,-0.030788,0.035720
117,0.357271,-4.288500,8.512615,-10.613544,-7.601320,9.130682,-25.095100,-2.686467,5.225332,0.975066,-0.215921,-0.032758,0.039395
118,0.294230,-4.664191,8.821316,-6.942596,-0.777281,5.399863,-25.743307,-2.612781,5.519317,0.973732,-0.221382,-0.032923,0.041852
119,0.186211,-4.432672,9.075727,-1.852364,5.151125,0.791670,-26.096336,-2.331708,5.588903,0.973045,-0.224489,-0.030802,0.042896
120,0.138562,-4.204786,9.243276,2.934578,9.185908,-2.276856,-25.983538,-1.920758,5.458128,0.973340,-0.223747,-0.027016,0.042624
121,-0.077267,-4.058708,9.219738,8.091001,12.265523,-4.493895,-25.534992,-1.387236,5.193194,0.974323,-0.220217,-0.021805,0.041508
122,-0.448945,-3.783865,9.246696,12.985101,13.831602,-5.761721,-24.811213,-0.645377,4.847230,0.975813,-0.214403,-0.014580,0.040091
123,-0.427179,-3.454525,9.149440,16.693716,13.360630,-5.242664,-23.822424,0.165382,4.492672,0.977704,-0.206292,-0.006679,0.038650
124,-0.386761,-3.443592,9.222328,17.249775,12.041103,-4.558872,-22.762117,0.838243,4.180323,0.979605,-0.197458,-0.000031,0.037197
125,-0.345642,-3.410851,9.231915,15.590053,11.031188,-3.661516,-21.831606,1.359120,3.915328,0.981188,-0.189640,0.005170,0.035785
126,-0.393031,-3.372772,9.332911,11.143876,9.363510,-2.469696,-21.095709,1.776810,3.703569,0.982379,-0.183432,0.009320,0.034601
127,-0.261927,-3.205150,9.278023,7.578291,7.340159,-0.769788,-20.386179,2.045579,3.566807,0.983485,-0.177399,0.012053,0.033782
128,-0.126960,-3.236566,9.293318,1.958845,5.611037,0.724018,-19.800186,2.040962,3.504944,0.984399,-0.172360,0.012279,0.033182
129,-0.011326,-3.243825,9.337971,-3.125234,4.595779,1.355574,-19.576565,1.775345,3.486729,0.984788,-0.170373,0.010088,0.032609
130,0.156041,-3.283720,9.265546,-4.426736,3.463021,-0.439097,-19.613253,1.464773,3.458645,0.984793,-0.170612,0.007450,0.031911
131,0.537900,-3.367708,9.158072,-5.212630,0.862271,-1.238886,-19.809284,1.036616,3.408235,0.984573,-0.172191,0.003792,0.030849
132,0.709062,-3.670981,9.327937,-7.896920,-2.036221,-2.614022,-20.177961,0.350242,3.354673,0.984095,-0.175190,-0.002120,0.029353
133,0.620962,-3.511979,9.474668,-5.615814,-4.199155,-5.032871,-20.524996,-0.387456,3.273449,0.983612,-0.177989,-0.008414,0.027503
134,0.648173,-3.482515,9.351215,-1.721657,-6.151376,-5.106323,-20.650223,-1.087647,3.177491,0.983431,-0.178898,-0.014303,0.025575
135,0.485186,-3.643416,9.219937,-1.569132,-8.423873,-3.168543,-20.758165,-1.699667,3.136018,0.983234,-0.179674,-0.019513,0.024242
136,-0.028603,-3.552150,9.043265,-1.627252,-9.247861,-0.766730,-20.919289,-1.988027,3.182442,0.982943,-0.180972,-0.022093,0.024155
137,-0.238606,-3.570842,8.753667,-1.334436,-8.489066,3.715075,-21.104307,-1.893113,3.337927,0.982626,-0.182555,-0.021566,0.025604
138,-0.186762,-3.911458,8.648396,-3.103359,-7.467725,8.056538,-21.486986,-1.639830,3.625421,0.981964,-0.185855,-0.019948,0.028409
139,-0.173253,-4.037521,8.675446,-4.425368,-6.585304,10.423435,-22.068798,-1.363608,4.008757,0.980922,-0.190859,-0.018366,0.032051
140,-0.017980,-4.140742,8.938910,-4.497607,-4.518886,11.104139,-22.643091,-1.122258,4.418858,0.979839,-0.195789,-0.017164,0.035879
141,0.219481,-4.264007,9.055090,-2.404484,-1.875884,9.266974,-23.121840,-0.999689,4.779510,0.978896,-0.199871,-0.016896,0.039103
142,0.326717,-4.203392,9.194026,-0.653057,0.469385,5.636772,-23.444887,-0.988763,5.022138,0.978244,-0.202598,-0.017341,0.041146
143,0.259540,-4.061953,9.148976,1.266354,1.993642,2.749664,-23.599142,-1.018309,5.137194,0.977928,-0.203885,-0.017854,0.042051
144,0.017665,-3.981544,9.125602,3.466660,3.319735,0.314317,-23.582855,-0.860691,5.149802,0.977951,-0.203807,-0.016525,0.042443
145,-0.272225,-3.543524,8.994601,4.912063,4.374669,-1.672217,-23.161604,-0.300100,5.075679,0.978702,-0.200438,-0.011452,0.042852
147,-0.221393,-3.647693,8.953952,4.782872,3.474999,-1.198916,-22.590065,0.346363,4.981360,0.979675,-0.195804,-0.005550,0.043206
148,-0.338115,-3.628303,9.068435,4.378798,2.039602,-1.194127,-22.200865,0.849102,4.912917,0.980301,-0.192659,-0.000987,0.043482
149,-0.290425,-3.591839,9.144167,3.333796,0.668176,-0.931508,-21.868015,1.208319,4.867662,0.980821,-0.189936,0.002289,0.043691
150,0.002637,-3.645086,9.319397,1.037489,-0.625868,-0.682801,-21.627405,1.148457,4.846018,0.981235,-0.187855,0.001904,0.043403
151,0.247258,-3.829867,9.405846,-0.105389,-2.573335,-0.853859,-21.579609,0.756867,4.842061,0.981370,-0.187309,-0.001426,0.042730
152,0.274780,-3.601668,9.427263,-0.282384,-3.159667,-2.402823,-21.576696,0.324184,4.826677,0.981428,-0.187132,-0.005105,0.041893
153,0.473946,-3.561336,9.340165,-1.364151,-3.779608,-2.494540,-21.512594,-0.170226,4.793733,0.981581,-0.186407,-0.009263,0.040809
154,0.372657,-3.735320,9.250284,-1.403806,-3.947848,-4.077079,-21.543100,-0.663947,4.739379,0.981568,-0.186495,-0.013414,0.039536
155,0.018818,-3.499849,9.019783,-1.219180,-3.125484,-5.709861,-21.594740,-0.927971,4.631142,0.981523,-0.186856,-0.015517,0.038171
156,-0.234461,-3.462129,8.980757,-2.972398,-1.790075,-4.975804,-21.605999,-0.877991,4.494805,0.981549,-0.186988,-0.014870,0.037083
157,-0.373328,-3.572693,9.078632,-3.941308,-1.395969,-2.744737,-21.677500,-0.615442,4.393844,0.981463,-0.187702,-0.012479,0.036641
158,-0.385238,-3.647859,9.063409,-1.602095,-0.839850,-1.577132,-21.794130,-0.089270,4.340081,0.981270,-0.188881,-0.007923,0.037035
159,-0.352606,-3.552351,9.119088,-0.761266,0.317580,0.516747,-21.798437,0.565989,4.326439,0.981214,-0.189128,-0.002290,0.037998
160,-0.169150,-3.693891,9.232404,0.697603,0.641472,1.910076,-21.732162,0.937259,4.358465,0.981269,-0.188677,0.000858,0.038883
161,-0.064594,-3.637073,9.216093,3.268801,0.696425,3.249846,-21.652906,1.006667,4.430410,0.981365,-0.188021,0.001362,0.039612
162,0.044435,-3.563314,9.180061,4.365995,1.938387,3.394753,-21.481892,0.966284,4.517810,0.981620,-0.186544,0.000933,0.040293
163,-0.169737,-3.517472,9.079667,4.572057,2.815697,4.221768,-21.281784,1.004148,4.607615,0.981907,-0.184843,0.001183,0.041122
164,-0.215432,-3.319172,9.018365,4.441031,3.015639,6.287892,-20.965267,1.197459,4.738886,0.982337,-0.182197,0.002745,0.042550
165,-0.183219,-3.245207,8.971902,2.810087,2.072651,10.754294,-20.623634,1.408420,4.978719,0.982750,-0.179348,0.004306,0.044927
166,-0.239653,-3.145146,9.040054,1.093630,-0.074334,14.251719,-20.380791,1.581058,5.361317,0.982941,-0.177344,0.005291,0.048465
167,-0.269616,-2.975631,9.014171,0.448460,-2.174003,17.387503,-20.103655,1.733279,5.875501,0.983109,-0.175053,0.005929,0.053095
168,-0.153350,-2.760778,9.234130,-2.154306,-3.469580,18.559406,-19.742519,1.797502,6.481818,0.983347,-0.172013,0.005738,0.058375
169,0.036742,-2.370918,9.211002,-1.720213,-3.527794,15.054296,-19.206104,1.685505,7.066062,0.983856,-0.167380,0.004196,0.063203
170,0.154275,-2.353571,9.223699,-0.230062,-2.749943,9.403689,-18.548391,1.409907,7.503550,0.984609,-0.161596,0.001572,0.066552
171,0.357988,-2.388810,9.016839,1.250801,-1.279448,3.243381,-17.954302,0.997783,7.736477,0.985371,-0.156259,-0.001945,0.067989
172,0.389956,-2.384832,9.015602,1.861741,0.584676,-3.818772,-17.446955,0.517481,7.736306,0.986124,-0.151620,-0.005778,0.067363
173,0.290364,-2.471408,8.921812,3.870284,0.662044,-5.553889,-17.012852,0.110655,7.582370,0.986825,-0.147660,-0.008828,0.065536
174,0.232439,-3.135035,9.164518,2.515113,-1.152703,-1.868908,-17.025023,-0.285670,7.465994,0.986906,-0.147550,-0.012098,0.064021
175,0.366770,-3.273127,9.272717,1.986429,-1.820064,-0.953514,-17.521072,-0.791857,7.439573,0.986296,-0.151538,-0.016696,0.063068
176,0.158819,-3.445654,9.589160,1.445663,-2.290353,0.633359,-17.935663,-1.112213,7.462140,0.985734,-0.154918,-0.019710,0.062765
177,0.299037,-3.916174,9.945512,1.564202,-2.500981,4.620595,-18.274115,-1.200539,7.577245,0.985210,-0.157757,-0.020813,0.063574
178,0.561835,-4.116836,9.940145,2.282266,-0.804337,1.648045,-18.730555,-1.371883,7.705139,0.984502,-0.161555,-0.022718,0.064345
179,0.399695,-4.155776,9.839204,2.276990,0.936536,-3.035073,-19.212574,-1.548179,7.696628,0.983816,-0.165591,-0.024489,0.063919
180,0.048234,-4.297346,9.810142,1.823074,1.533207,-4.318343,-19.714346,-1.515868,7.582385,0.983145,-0.169941,-0.024323,0.062879
181,0.079311,-4.290539,9.630539,1.843709,1.940808,-5.049178,-20.231527,-1.356882,7.430237,0.982452,-0.174501,-0.023012,0.061709
182,-0.070395,-4.169508,9.149146,1.264670,1.565647,-7.499716,-20.745632,-1.186219,7.226609,0.981767,-0.179043,-0.021509,0.060129
183,-0.277424,-4.205760,8.853255,0.871764,0.725212,-6.425316,-21.300600,-0.929896,7.006936,0.980996,-0.183975,-0.019254,0.058557
184,-0.284613,-4.111178,8.783495,-0.071960,0.170191,-5.039602,-21.847166,-0.625589,6.830845,0.980184,-0.188841,-0.016640,0.057462
185,-0.246164,-3.982655,8.699059,-0.994163,-0.676335,-3.742414,-22.298956,-0.374648,6.701595,0.979481,-0.192850,-0.014504,0.056715
186,-0.158652,-4.033353,8.783913,-1.777585,-1.335171,-2.140039,-22.843283,-0.128078,6.625378,0.978571,-0.197633,-0.012537,0.056420
187,-0.167156,-3.948955,8.928886,-2.373259,-1.997052,-0.363705,-23.362909,0.127472,6.607949,0.977647,-0.202196,-0.010581,0.056664
188,-0.125802,-3.939022,9.175077,-5.069728,-2.747592,-0.464324,-23.613688,0.236852,6.625511,0.977181,-0.204388,-0.009804,0.056986
189,0.095317,-3.950657,8.866051,-4.405972,-2.552288,-1.550791,-23.789982,0.128786,6.629937,0.976876,-0.205837,-0.010821,0.056814
190,0.143579,-4.062462,9.058665,-6.217310,-2.114482,-1.837723,-24.018257,-0.082308,6.609990,0.976496,-0.207681,-0.012697,0.056240
191,0.095004,-4.068400,9.057919,-4.454912,-0.898428,-3.031045,-24.231548,-0.256174,6.556870,0.976150,-0.209419,-0.014185,0.055446
192,0.137598,-4.083735,9.062101,-2.494113,0.592325,-5.614471,-24.359726,-0.386926,6.427860,0.975987,-0.210463,-0.015124,0.054091
193,0.101265,-4.017664,9.107321,0.898062,1.724506,-5.483267,-24.349726,-0.476830,6.243238,0.976097,-0.210360,-0.015546,0.052354
194,-0.042923,-4.068365,9.344622,4.020221,1.805420,-3.478183,-24.174625,-0.449682,6.082199,0.976489,-0.208902,-0.014941,0.051055
195,-0.100021,-3.931197,9.175165,9.144509,2.000950,-2.087973,-23.768904,-0.244972,5.970923,0.977257,-0.205550,-0.012815,0.050526
196,-0.139625,-3.803048,9.134865,9.575178,1.572482,-1.196694,-23.170624,0.064890,5.897679,0.978324,-0.200589,-0.009777,0.050510
197,-0.182924,-3.770047,9.146052,10.657382,0.976158,2.119278,-22.575531,0.383059,5.897706,0.979319,-0.195645,-0.006796,0.051103
198,-0.209740,-3.518711,9.061351,11.643482,0.654471,3.793339,-21.920271,0.691955,5.982673,0.980344,-0.190173,-0.004001,0.052379
199,-0.144251,-3.356349,9.168444,9.895301,0.437943,5.862563,-21.137161,0.902308,6.132214,0.981521,-0.183558,-0.002081,0.054021
200,-0.077172,-3.343200,9.218554,8.731523,0.231894,7.377796,-20.421284,0.951526,6.340385,0.982541,-0.177442,-0.001643,0.055894
201,0.011293,-3.301697,9.253802,7.535529,0.138581,8.444337,-19.881248,0.852499,6.588642,0.983259,-0.172759,-0.002604,0.057883
202,0.034753,-3.142303,9.215416,4.859362,0.222181,8.644118,-19.426153,0.677518,6.856501,0.983824,-0.168758,-0.004271,0.059936
203,0.112166,-3.398993,9.159698,1.392479,0.295050,8.877451,-19.303270,0.463575,7.128325,0.983888,-0.167580,-0.006442,0.061963
204,0.054117,-3.366620,9.120732,-0.472517,0.409162,6.840220,-19.538311,0.279800,7.369495,0.983433,-0.169482,-0.008503,0.063748
205,0.007291,-3.339562,9.056194,-2.744897,0.555478,5.218099,-19.812464,0.215274,7.552703,0.982929,-0.171784,-0.009484,0.065202
206,0.015403,-3.460585,9.035657,-4.528916,0.250219,4.156027,-20.103191,0.217752,7.694660,0.982408,-0.174267,-0.009844,0.066399
207,0.012626,-3.617881,9.118517,-4.825169,0.271535,2.584306,-20.437481,0.224997,7.796587,0.981835,-0.177127,-0.010133,0.067255
208,0.010818,-3.637269,9.164321,-3.888479,0.015134,0.711978,-20.765732,0.210232,7.845835,0.981297,-0.179926,-0.010530,0.067624
209,-0.016291,-3.759951,9.169538,-3.971108,-0.108497,-0.348552,-21.079395,0.184051,7.851517,0.980800,-0.182595,-0.010948,0.067602
210,-0.013078,-3.843051,9.075557,-4.554295,-0.395388,-0.939093,-21.448246,0.153534,7.833886,0.980222,-0.185735,-0.011398,0.067366
211,-0.058846,-3.825491,9.133009,-5.612024,-0.625796,-1.483846,-21.827702,0.128101,7.802017,0.979623,-0.188969,-0.011786,0.067013
212,-0.056739,-3.755436,9.159996,-5.801383,-0.824136,-1.537243,-22.134258,0.112676,7.763941,0.979138,-0.191584,-0.012033,0.066631
213,-0.066905,-3.644902,9.234868,-5.403106,-0.569270,-1.277821,-22.312357,0.105020,7.729173,0.978860,-0.193105,-0.012143,0.066302
214,-0.026841,-3.652246,9.206329,-4.933016,-0.410549,-0.633869,-22.400055,0.099388,7.706009,0.978726,-0.193853,-0.012203,0.066085
215,0.049015,-3.533354,9.259124,-4.475056,0.337129,-1.837834,-22.411160,0.060388,7.668642,0.978734,-0.193929,-0.012479,0.065699
216,0.123830,-3.525704,9.165147,-3.737793,1.788194,-3.539278,-22.355906,-0.018676,7.572512,0.978891,-0.193423,-0.012961,0.064750
217,0.136519,-3.650122,9.095294,-4.756957,2.917259,-5.379593,-22.373369,-0.106865,7.405260,0.978964,-0.193542,-0.013442,0.063171
218,0.134008,-3.590649,9.034979,-6.334664,3.835753,-7.953876,-22.478355,-0.185134,7.156943,0.978928,-0.194426,-0.013747,0.060904
219,0.040380,-3.518329,9.065045,-7.234797,4.822970,-9.797217,-22.572348,-0.214206,6.828148,0.978942,-0.195253,-0.013485,0.058035
220,-0.056564,-3.535491,9.207929,-9.427315,4.821483,-10.024567,-22.660036,-0.160166,6.460711,0.978969,-0.196070,-0.012439,0.054978
221,-0.052202,-3.504221,9.224323,-10.569948,3.803767,-10.683734,-22.764170,-0.093786,6.085992,0.978959,-0.197030,-0.011278,0.051880
222,-0.117918,-3.297221,9.248315,-9.588360,3.266737,-11.329161,-22.766403,-0.044098,5.701339,0.979120,-0.197107,-0.010193,0.048679
223,-0.165434,-3.438541,9.257181,-10.523293,2.774001,-11.306214,-22.732990,0.022062,5.314094,0.979331,-0.196881,-0.008948,0.045486
224,-0.063908,-3.322360,9.115233,-10.997431,2.253765,-12.626098,-22.752283,0.035641,4.913794,0.979450,-0.197081,-0.008151,0.042087
225,-0.025232,-3.421142,8.876367,-13.694901,2.737520,-13.334111,-22.871746,-0.023954,4.482814,0.979399,-0.198111,-0.007959,0.038292
226,-0.143984,-3.490059,8.797492,-18.823296,2.986323,-11.507546,-23.219687,-0.030998,4.064331,0.978927,-0.201110,-0.007401,0.034681
227,-0.162180,-3.740715,8.936927,-25.772217,2.684335,-7.935291,-23.847130,0.051707,3.728516,0.977903,-0.206512,-0.006280,0.031923
228,-0.108933,-4.234150,8.876986,-30.826172,1.436248,-2.943938,-24.867155,0.143929,3.533268,0.976073,-0.215243,-0.005412,0.030376
229,-0.201189,-4.417499,9.109273,-29.704840,0.352961,2.326662,-26.053072,0.270976,3.508986,0.973790,-0.225367,-0.004598,0.030362
230,-0.285313,-4.437881,9.272882,-21.104769,-2.066983,8.773780,-26.933756,0.481657,3.685021,0.971962,-0.232892,-0.003402,0.032246
231,-0.318506,-4.603288,9.293271,-8.350997,-3.963514,14.566290,-27.349882,0.742095,4.075897,0.970963,-0.236482,-0.002119,0.036083
232,-0.131223,-4.760735,8.894197,3.307053,-5.854041,18.101906,-27.440937,0.932152,4.633856,0.970560,-0.237303,-0.001692,0.041200
233,-0.154319,-4.415522,8.928159,11.731714,-7.180073,20.801268,-27.157829,1.033465,5.310298,0.970866,-0.234929,-0.002119,0.047143
234,-0.060323,-4.491952,8.756519,14.599021,-7.715728,23.969063,-26.629456,1.100383,6.089257,0.971584,-0.230461,-0.002900,0.053892
235,0.147751,-4.494298,8.632809,12.401616,-6.234251,23.173952,-26.222439,1.065274,6.894319,0.972001,-0.226966,-0.004602,0.060663
236,0.190394,-4.541152,8.639597,6.338917,-3.780871,22.235352,-26.055462,0.972390,7.643168,0.971932,-0.225464,-0.006775,0.066841
237,0.002310,-4.318548,9.021634,3.441099,-1.480011,19.448896,-25.949697,0.987456,8.304192,0.971735,-0.224534,-0.007881,0.072483
238,-0.033213,-4.187316,9.012008,7.024098,0.326549,15.579083,-25.664991,1.105278,8.839473,0.971914,-0.222155,-0.007739,0.077270
239,0.039039,-4.323539,8.989174,12.253529,2.770922,9.966656,-25.269243,1.192964,9.202160,0.972405,-0.218831,-0.007420,0.080541
240,-0.055560,-4.210020,9.089621,12.014027,3.944126,2.553601,-24.807695,1.177170,9.343644,0.973182,-0.214893,-0.007495,0.081742
241,-0.096254,-3.929651,9.118835,15.737479,5.373737,-5.077632,-24.192060,1.142648,9.242480,0.974402,-0.209645,-0.007164,0.080858
242,-0.093540,-3.890871,8.895142,12.536259,5.713926,-11.672721,-23.589985,1.117433,8.914126,0.975724,-0.204524,-0.006368,0.078055
243,-0.266291,-4.058564,8.970845,11.291087,7.853261,-14.932102,-23.215006,1.137806,8.416733,0.976713,-0.201368,-0.005065,0.073872
244,-0.316574,-3.844144,9.049206,13.256433,6.805038,-19.253489,-22.855700,1.215228,7.796265,0.977710,-0.198371,-0.003099,0.068728
245,-0.083320,-3.821852,8.985663,20.007130,2.674357,-23.759544,-22.314854,1.084614,7.073943,0.979074,-0.193701,-0.002669,0.062352
246,-0.407970,-3.635882,9.125027,27.418581,1.377363,-21.549986,-21.509581,0.903453,6.348796,0.980815,-0.186743,-0.002599,0.055870
247,-0.280907,-3.524469,9.115624,36.465874,0.521476,-16.377033,-20.390438,0.843443,5.750250,0.982880,-0.177138,-0.001643,0.050667
248,0.122878,-3.464459,9.239577,34.627148,-1.852928,-14.907591,-19.197861,0.592516,5.267912,0.984905,-0.166806,-0.002570,0.046172
250,-0.155710,-3.478811,9.382051,30.514675,-1.048863,-9.927007,-18.202248,0.330275,4.888593,0.986489,-0.158154,-0.003903,0.042566
251,-0.465296,-3.337967,9.433104,28.465153,2.142056,-1.686944,-17.382767,0.463976,4.698496,0.987653,-0.151148,-0.002195,0.041131
252,-0.324897,-3.357108,9.356646,21.993399,0.595064,2.007415,-16.784544,0.758826,4.691126,0.988402,-0.146092,0.000573,0.041453
253,-0.307439,-3.214751,9.412785,20.508305,-0.608697,4.882315,-16.369543,0.952890,4.799673,0.988862,-0.142581,0.002262,0.042628
254,-0.449783,-3.071382,9.400348,20.630062,-0.729031,7.310121,-15.933119,1.165674,4.998572,0.989294,-0.138895,0.004021,0.044592
255,-0.218291,-2.766578,9.434084,18.231131,-2.602726,9.031403,-15.421663,1.303054,5.274682,0.989774,-0.134541,0.005083,0.047119
256,-0.127932,-2.512979,9.488032,17.973263,-4.078332,10.583259,-14.799007,1.250802,5.619928,0.990352,-0.129155,0.004498,0.050016
257,0.188527,-2.542282,9.475526,16.798334,-3.671144,6.612740,-14.189030,1.003664,5.929062,0.990922,-0.123786,0.002293,0.052400
258,0.040660,-2.750224,9.535507,14.217815,-1.788441,1.863982,-13.811279,0.710257,6.083594,0.991288,-0.120389,-0.000236,0.053423
259,-0.077849,-2.531273,9.328956,14.383869,-0.784501,0.031310,-13.552104,0.576963,6.120370,0.991555,-0.118086,-0.001306,0.053605
260,-0.227643,-2.439475,9.284330,12.438005,0.147946,-1.393881,-13.352506,0.648968,6.098021,0.991762,-0.116392,-0.000567,0.053486
261,-0.459554,-2.556304,9.355950,7.559106,0.761831,-1.654710,-13.432849,1.031293,6.040547,0.991662,-0.117259,0.002763,0.053377
262,-0.625797,-2.584728,9.340226,4.218365,-0.717764,3.736509,-13.628252,1.492756,6.067369,0.991379,-0.119157,0.006638,0.054088
263,-0.450583,-2.422387,9.376286,-0.115576,-2.733104,8.328109,-13.803762,1.818151,6.269949,0.991039,-0.120836,0.009156,0.056189
264,-0.434685,-2.357095,9.484512,-3.492603,-3.532441,10.293557,-13.977649,1.995988,6.592289,0.990656,-0.122450,0.010264,0.059177
265,-0.347941,-2.526437,9.547094,-6.982478,-4.145801,11.193866,-14.205679,2.008997,6.968435,0.990208,-0.124460,0.009851,0.062462
266,-0.175034,-2.682754,9.470462,-8.235467,-4.197758,11.970534,-14.609133,1.906008,7.371628,0.989560,-0.127924,0.008291,0.065865
267,0.040101,-2.605073,9.557331,-7.683269,-2.604944,9.251265,-15.012824,1.678435,7.738658,0.988935,-0.131305,0.005673,0.068805
268,-0.030816,-2.516746,9.567407,-8.455418,-1.476051,6.362609,-15.298795,1.438315,8.008259,0.988487,-0.133644,0.003115,0.070868
269,-0.028058,-2.588241,9.605100,-9.709687,-0.859801,5.057884,-15.564093,1.266362,8.203990,0.988085,-0.135833,0.001236,0.072362
270,0.031597,-2.462258,9.515512,-9.560041,0.125728,3.014612,-15.797531,1.109221,8.339583,0.987748,-0.137750,-0.000429,0.073346
271,0.061973,-2.401827,9.553760,-11.284107,1.027314,1.311618,-15.960986,0.952837,8.408046,0.987532,-0.139061,-0.001965,0.073747
272,-0.125178,-2.467378,9.578955,-14.138847,1.939681,-0.212815,-16.171175,0.892357,8.416296,0.987280,-0.140834,-0.002632,0.073741
273,-0.184609,-2.504120,9.579890,-14.176743,2.618711,-1.116160,-16.441227,0.955672,8.377123,0.986960,-0.143201,-0.002211,0.073475
274,-0.236314,-2.438791,9.593742,-14.332079,3.161987,-2.051534,-16.671120,1.072256,8.302959,0.986699,-0.145254,-0.001261,0.072979
275,-0.230326,-2.515079,9.585594,-14.551468,2.869061,-1.744801,-16.877865,1.195106,8.218078,0.986467,-0.147109,-0.000226,0.072402
276,-0.350200,-2.596993,9.616748,-14.601513,2.534967,-1.358710,-17.116529,1.338037,8.146941,0.986176,-0.149249,0.000947,0.071973
277,-0.245117,-2.565445,9.596890,-14.154088,1.666786,-0.673542,-17.336143,1.454587,8.099321,0.985895,-0.151208,0.001875,0.071717
278,-0.234730,-2.634004,9.583502,-14.445199,0.873300,0.705902,-17.538610,1.493525,8.093764,0.985622,-0.152972,0.002090,0.071724
279,-0.159540,-2.594160,9.532836,-14.142707,-0.059096,1.883909,-17.728590,1.475005,8.138235,0.985343,-0.154596,0.001752,0.072085
280,-0.111763,-2.860758,9.540230,-14.148531,-0.761135,3.103094,-17.974554,1.394209,8.227657,0.984969,-0.156663,0.000780,0.072748
281,-0.044279,-2.805842,9.536506,-12.565930,-0.836063,3.136620,-18.242863,1.269915,8.339697,0.984553,-0.158894,-0.000614,0.073542
282,-0.080442,-2.798456,9.526313,-11.909492,-0.892678,3.457020,-18.418264,1.147555,8.458922,0.984255,-0.160324,-0.001944,0.074395
283,-0.051294,-2.859983,9.518670,-11.030263,-0.778367,3.389843,-18.560539,1.046903,8.581333,0.983994,-0.161480,-0.003074,0.075303
284,-0.048282,-3.029793,9.492128,-10.021415,-0.525193,2.803848,-18.739376,0.951310,8.689719,0.983687,-0.162951,-0.004166,0.076094
285,-0.127780,-2.816532,9.432709,-8.272456,-0.137686,2.591723,-18.844715,0.904780,8.782049,0.983483,-0.163822,-0.004768,0.076816
286,-0.110680,-2.921490,9.404705,-8.090564,-0.152984,2.524574,-18.869356,0.896550,8.868358,0.983391,-0.164024,-0.004978,0.077544
287,-0.056424,-3.010135,9.394810,-7.150369,0.059053,1.546437,-18.942957,0.861788,8.935932,0.983246,-0.164630,-0.005423,0.078071
288,-0.082517,-3.014523,9.370849,-6.483355,0.133748,0.870429,-19.022039,0.814608,8.975330,0.983113,-0.165275,-0.005939,0.078338
289,-0.139685,-3.065430,9.421144,-6.454186,0.037583,0.588125,-19.096777,0.799380,8.999491,0.982992,-0.165905,-0.006156,0.078519
290,-0.070659,-3.110805,9.451302,-6.508963,-0.078420,-0.681454,-19.187738,0.771623,9.000036,0.982864,-0.166667,-0.006457,0.078479
291,-0.117206,-3.128951,9.463513,-5.852668,0.006993,-1.273526,-19.276134,0.727094,8.971333,0.982762,-0.167397,-0.006858,0.078163
292,-0.175319,-3.172720,9.454488,-5.281837,-0.202045,-1.198749,-19.354355,0.722558,8.934941,0.982673,-0.168067,-0.006896,0.077840
293,-0.197598,-3.080105,9.411330,-4.106712,-0.632302,-1.011039,-19.380724,0.743951,8.906427,0.982650,-0.168309,-0.006689,0.077625
294,-0.072335,-3.178575,9.433956,-3.419878,-0.902384,-0.936263,-19.373608,0.715272,8.885982,0.982680,-0.168230,-0.006900,0.077408
295,-0.091745,-3.069483,9.460102,-1.647983,-1.085551,-1.459671,-19.221407,0.624089,8.862164,0.982933,-0.166866,-0.007545,0.077081
296,-0.078905,-3.002728,9.400531,0.935893,-1.396898,-0.292353,-18.846268,0.528474,8.852285,0.983495,-0.163585,-0.008099,0.076885
297,-0.092576,-2.981949,9.379990,4.017189,-1.790612,0.816991,-18.401218,0.460235,8.880959,0.984114,-0.159717,-0.008427,0.077067
298,-0.019334,-3.172258,9.460570,5.717249,-1.520578,0.725420,-18.095390,0.370739,8.923840,0.984520,-0.157028,-0.009049,0.077335
299,-0.084503,-2.963665,9.443959,8.731042,-1.285621,0.522460,-17.782816,0.301900,8.958254,0.984930,-0.154293,-0.009476,0.077563
300,-0.113659,-2.931961,9.362741,11.189486,-0.662969,1.509758,-17.308241,0.345144,9.001410,0.985526,-0.150238,-0.008839,0.078029
301,-0.032297,-3.059797,9.451035,8.107076,-0.665988,0.441622,-17.017931,0.360664,9.039163,0.985876,-0.147749,-0.008556,0.078396
302,-0.105609,-2.997915,9.649715,7.524048,-0.437105,-0.544129,-16.857615,0.337287,9.042243,0.986082,-0.146353,-0.008652,0.078405
303,-0.153852,-2.867215,9.530563,9.797675,-1.056524,1.084065,-16.569668,0.405009,9.058247,0.986427,-0.143920,-0.007892,0.078649
304,-0.182856,-2.850141,9.538553,9.898395,-1.802511,2.263662,-16.234531,0.534495,9.126041,0.986780,-0.141118,-0.006630,0.079414
305,-0.105014,-2.959417,9.560103,10.635244,-2.562308,2.671117,-16.028994,0.582707,9.224655,0.986956,-0.139375,-0.006192,0.080334
306,-0.161544,-2.961613,9.550165,14.460480,-2.446298,3.313540,-15.818361,0.561633,9.341611,0.987131,-0.137540,-0.006367,0.081327
307,-0.034142,-2.917118,9.404758,15.507048,-2.226566,3.455449,-15.491957,0.515726,9.469578,0.987434,-0.134688,-0.006681,0.082394
308,0.036278,-3.095823,9.623357,15.369400,-1.488104,1.857778,-15.226852,0.407248,9.568794,0.987685,-0.132320,-0.007540,0.083140
309,0.106568,-3.085776,9.738122,16.466150,-0.941961,-0.986588,-15.009134,0.256913,9.590466,0.987937,-0.130334,-0.008703,0.083170
310,-0.001271,-3.213069,10.007833,13.677855,-1.164846,-2.250084,-14.849833,0.125433,9.545077,0.988165,-0.128869,-0.009670,0.082644
311,0.008225,-2.522635,10.446471,9.348680,-0.386657,-4.310092,-14.567264,0.044709,9.445144,0.988559,-0.126383,-0.010052,0.081716
312,-0.291459,-2.476911,11.868157,-7.822223,1.688695,-1.085788,-14.271935,0.120912,9.353033,0.988940,-0.123896,-0.009085,0.081029
313,-0.935399,-4.072597,12.746128,-24.972151,7.869113,10.540345,-14.861839,0.661848,9.463559,0.988144,-0.129360,-0.004961,0.082542
314,-0.653574,-4.835466,14.315695,-30.331802,4.892492,9.058786,-16.261515,1.333475,9.709646,0.986190,-0.141891,-0.000491,0.085415
315,-0.488518,-5.919493,14.408462,-16.048441,5.152088,10.712924,-17.684589,1.741936,9.957307,0.984071,-0.154421,0.001625,0.088071
316,-0.409240,-6.671234,13.642727,12.244069,5.919662,6.576115,-18.701366,2.025789,10.145934,0.982440,-0.163357,0.003010,0.090097
317,-0.292112,-6.940639,12.001346,42.635818,6.586432,2.320233,-19.091791,2.206700,10.175878,0.981802,-0.166838,0.004210,0.090621
318,0.081606,-5.227456,11.612860,74.671257,6.781504,-7.749485,-18.236784,2.166156,9.977830,0.983186,-0.159469,0.004814,0.088833
319,-0.276483,-5.089493,10.281117,88.328712,11.740512,-5.913928,-16.413298,2.172234,9.629217,0.985863,-0.143789,0.006716,0.085754
320,-0.439873,-4.163973,9.964617,95.586349,10.438866,-6.728830,-14.316629,2.434850,9.287844,0.988511,-0.125881,0.010925,0.082953
321,-0.556392,-2.448856,9.459743,102.634064,6.773677,-5.384489,-11.456133,2.737094,9.012672,0.991461,-0.101337,0.015851,0.080531
322,-0.509889,-1.591347,9.365801,93.002556,3.961491,-5.094534,-8.100432,2.961807,8.821244,0.994076,-0.072381,0.020273,0.078506
323,-0.454290,-0.580560,8.384768,77.978790,-2.981435,-5.410369,-4.866092,2.989099,8.668708,0.995818,-0.044285,0.022777,0.076587
324,-0.445755,0.658183,7.495378,61.222233,-4.804873,-6.025253,-1.626855,2.885677,8.537465,0.996783,-0.016027,0.024051,0.074760
325,-0.361331,2.359983,6.865003,34.533245,-2.027646,-5.957982,1.955134,2.807004,8.441976,0.996874,0.015207,0.025679,0.073154
326,-0.811883,1.927043,7.219707,-9.810460,2.094179,-0.490463,4.557802,3.048628,8.449479,0.996219,0.037684,0.029436,0.072530
327,-1.045146,2.510030,7.178566,-27.905670,2.064359,1.137772,5.748231,3.669849,8.571188,0.995559,0.047586,0.035635,0.072995
328,-0.304326,1.937278,6.756522,-43.414654,0.668459,2.805704,6.208438,3.956203,8.742981,0.995177,0.051335,0.038492,0.074202
329,-0.241356,1.982066,6.376050,-44.854893,1.003931,5.207654,6.160703,3.773349,8.972907,0.995094,0.050971,0.036976,0.076304
330,-0.603577,0.705480,5.336255,-43.657543,0.822421,3.631436,5.520332,3.843122,9.179270,0.995206,0.045294,0.037236,0.078271
331,0.105584,-0.199283,4.566279,-32.590553,-1.193538,-0.648804,3.810410,3.666843,9.199789,0.995803,0.030558,0.034538,0.079051
332,0.154736,-0.929969,3.679688,-17.746962,-1.557627,-3.606113,1.254887,2.893348,9.038354,0.996535,0.008924,0.026029,0.078487
333,-0.198619,-0.767336,3.061348,-5.850524,-0.233547,-7.613321,-1.333561,2.525736,8.750709,0.996756,-0.013282,0.021086,0.076522
334,-0.323077,-1.299234,2.489028,4.986297,-2.578468,-8.507661,-4.047616,2.802405,8.353790,0.996361,-0.036990,0.021802,0.073630
335,-0.009926,-1.096099,2.742712,12.923666,-5.350915,-6.983433,-6.604355,2.760656,7.963662,0.995544,-0.059116,0.019992,0.070689
336,-0.087550,-0.712337,2.796563,16.562433,-7.514957,-5.915410,-7.795438,2.286589,7.699919,0.995146,-0.069145,0.015299,0.068329
337,0.051394,-0.932590,3.230755,16.277285,-8.751290,0.177507,-8.312940,1.728987,7.598059,0.994992,-0.073310,0.010213,0.067166
338,-0.005440,-1.159752,4.168485,20.945326,-11.184005,-0.191866,-8.723940,1.081185,7.613331,0.994812,-0.076511,0.004338,0.066911
339,-0.097179,-0.690001,5.797809,16.280132,-9.592608,0.900659,-8.454470,0.622482,7.664849,0.995008,-0.073908,0.000479,0.067055
340,0.381312,-0.168268,8.408246,8.213333,-6.393020,-2.956911,-7.431730,0.131177,7.672188,0.995656,-0.064740,-0.003196,0.066836
341,-0.032599,0.350344,10.624844,-4.844156,-4.455355,-6.373489,-6.271732,-0.278259,7.540348,0.996347,-0.054426,-0.006016,0.065523
342,-0.412964,0.585244,12.684373,-15.348639,-0.771591,-10.278314,-5.397256,-0.247922,7.271770,0.996885,-0.046851,-0.005143,0.063243
343,-0.233435,0.592149,14.643247,-30.577522,0.991127,-13.195861,-5.057783,-0.060720,6.878808,0.997228,-0.044012,-0.003175,0.059911
344,-0.494078,0.254520,15.907111,-36.042252,2.708042,-14.352492,-5.258438,0.158566,6.413250,0.997379,-0.045878,-0.001186,0.055941
345,-1.038930,0.037342,15.862666,-34.703064,-0.267063,-8.750780,-5.684319,0.523660,6.024743,0.997368,-0.049756,0.001952,0.052713
347,-0.921695,-1.423029,15.957852,-28.809446,-0.797558,-0.532093,-6.347645,0.913222,5.869973,0.997102,-0.055698,0.005112,0.051563
348,-0.161475,-1.726397,16.017179,-25.295177,-3.142703,-3.492369,-7.198363,1.001439,5.807826,0.996680,-0.063135,0.005530,0.051107
349,-0.718963,-1.936633,15.849817,-25.916193,-1.642617,-0.873866,-8.024329,0.995404,5.745553,0.996228,-0.070312,0.005148,0.050601
350,-0.099236,-2.735904,15.622885,-33.298759,-3.171515,-0.321474,-9.123151,0.975588,5.734331,0.995515,-0.079852,0.004498,0.050537
351,0.039041,-4.043590,15.235726,-41.073986,-2.977866,-3.748735,-10.872469,0.746094,5.678406,0.994229,-0.094941,0.001781,0.049925
352,0.193005,-3.855731,14.591225,-34.055534,-0.565588,-10.497954,-12.770219,0.467219,5.453448,0.992642,-0.111277,-0.001243,0.047730
353,-0.206334,-4.564129,13.335178,-26.844845,0.548249,-8.843875,-14.456232,0.318695,5.137523,0.991037,-0.125817,-0.002883,0.044812
354,0.000199,-4.977230,12.718940,-12.938645,3.388002,-5.419705,-15.987861,0.323043,4.885412,0.989362,-0.139060,-0.003138,0.042598
355,-0.208968,-4.597208,12.019924,14.791010,4.369197,-4.687259,-16.747105,0.418847,4.683512,0.988485,-0.145652,-0.002337,0.040956
356,-0.450743,-3.783705,11.371483,47.442211,7.476169,-0.471075,-16.150787,0.740551,4.543284,0.989249,-0.140616,0.000825,0.040150
357,-0.382318,-3.167500,10.804444,59.411415,6.518124,4.015214,-14.493198,1.177555,4.542397,0.991129,-0.126438,0.005187,0.040606
358,0.037741,-2.046206,10.477346,68.213226,7.433662,3.777174,-12.148431,1.422411,4.622637,0.993447,-0.106220,0.008066,0.041412
359,-0.244689,-0.528293,9.326319,75.163315,6.449331,3.185112,-8.938204,1.584651,4.709591,0.995978,-0.078415,0.010573,0.042035
360,-0.398849,0.409464,8.733043,59.719593,8.141670,4.587497,-5.330084,1.916644,4.845700,0.997853,-0.047155,0.014727,0.042999
361,-0.213448,1.168390,8.032469,37.006760,7.123928,3.928372,-2.048607,2.223686,5.026267,0.998675,-0.018707,0.018599,0.044180
362,-0.563543,1.971496,7.459449,12.170244,8.971958,6.925384,0.780731,2.602996,5.279663,0.998665,0.005758,0.023003,0.045890
363,-0.806678,2.651863,7.272095,-16.843809,6.611812,9.615717,3.076818,3.218791,5.675293,0.998057,0.025414,0.029370,0.048716
364,-0.781682,1.943083,7.724640,-44.565876,5.512119,10.976950,4.059776,3.792277,6.140117,0.997455,0.033580,0.034916,0.052324
365,-0.018459,1.536108,7.230675,-51.459965,2.370147,12.187113,3.743574,3.820827,6.611914,0.997311,0.030669,0.035146,0.056518
366,-0.116823,0.957447,6.622788,-55.409554,2.802981,12.756388,2.815876,3.456545,7.091634,0.997376,0.022648,0.031612,0.061060
367,-0.363808,0.358837,5.862707,-47.925987,0.994536,11.663869,1.463260,3.324614,7.529921,0.997365,0.010831,0.029782,0.065261
368,0.119464,-0.971522,4.926826,-30.975466,-1.711307,11.225881,-0.619272,3.008820,7.872485,0.997273,-0.007192,0.025821,0.068763
369,0.350600,-1.479636,3.559201,-9.500884,-2.586711,8.155568,-3.535607,2.109146,8.104970,0.996816,-0.032067,0.016170,0.071191
370,-0.323677,-1.693920,2.536211,5.491749,-0.173001,1.375715,-6.928178,1.824213,8.154693,0.995452,-0.061392,0.011554,0.071924
371,-0.207276,-1.558829,1.853915,11.614880,-3.874251,-1.731184,-10.633215,2.255534,8.002594,0.992951,-0.093783,0.013085,0.071285
372,0.276475,-1.649049,1.454159,15.683589,-6.888372,-0.820505,-14.587433,1.691878,7.838955,0.989352,-0.127646,0.005933,0.069664
373,-0.378288,-1.499504,1.884656,17.813536,-5.650949,-0.785558,-17.884794,1.371876,7.764886,0.985381,-0.155874,0.001275,0.068738
374,-0.395516,-1.614409,2.586658,18.930502,-8.521644,2.739558,-19.722054,2.048277,7.776989,0.982593,-0.172032,0.005957,0.069856
375,0.283054,-1.344780,4.536983,12.516152,-11.002744,0.349943,-19.901789,1.796984,7.909348,0.982303,-0.173437,0.003492,0.070625
376,-0.414386,-0.903479,6.944072,4.732177,-8.940006,2.316793,-18.572357,1.241702,8.090752,0.984255,-0.161709,-0.000716,0.071362
377,-0.485481,-0.625591,10.095802,-5.971449,-3.728740,-4.478010,-16.778063,1.240154,8.169493,0.986617,-0.146277,0.000288,0.072040
378,-0.484053,-1.396323,12.518880,-30.292601,-1.609043,-4.976880,-15.705882,1.277114,8.083870,0.987989,-0.137061,0.001383,0.071340
379,-0.568508,-0.998397,14.700284,-28.566467,-1.061092,-6.746869,-15.218657,1.310662,7.941410,0.988645,-0.132876,0.002141,0.070143
380,-0.712038,-0.607541,15.308439,-20.742525,-1.549212,-3.408047,-14.406898,1.381120,7.827527,0.989618,-0.125908,0.003371,0.069219
381,-0.342983,-1.263672,15.877362,-22.026997,-1.408738,-5.220776,-13.613887,1.381990,7.737040,0.990520,-0.119054,0.003952,0.068413
382,0.041721,-2.344446,15.494748,-17.707394,-3.905293,-2.118575,-13.290767,1.156491,7.662396,0.990933,-0.116129,0.002270,0.067530
383,-0.007578,-1.682962,14.951015,4.108222,-4.843956,-2.484827,-12.727608,0.820460,7.636702,0.991554,-0.111066,-0.000281,0.066973
384,0.362275,-2.145209,14.721896,-8.011263,-1.984647,-4.454841,-12.041478,0.462304,7.558786,0.992285,-0.104924,-0.002910,0.065973
385,0.135484,-2.965667,15.102651,-27.046736,0.581700,-5.629856,-12.269222,0.191838,7.403455,0.992186,-0.106749,-0.005238,0.064371
386,-0.037175,-3.887296,15.716832,-38.237926,5.662947,-5.393355,-13.404102,0.183724,7.203060,0.991192,-0.116576,-0.005742,0.062575
387,-0.233457,-4.708931,16.213947,-38.464134,6.859318,-3.830798,-14.977489,0.384670,7.002237,0.989588,-0.130291,-0.004637,0.060983
388,-0.255912,-5.431269,15.893603,-22.073200,9.433643,-4.422838,-16.433153,0.681694,6.792384,0.987929,-0.143011,-0.002589,0.059480
389,-0.470936,-5.256564,14.751390,3.502246,9.920537,-4.081001,-17.216921,1.051679,6.558026,0.986995,-0.149949,0.000498,0.057923
390,-0.928144,-5.455819,13.330910,23.088341,8.863368,1.513121,-17.323702,1.583676,6.415257,0.986835,-0.151117,0.005215,0.057389
391,-0.610043,-4.850554,11.411088,45.138599,6.794528,5.277655,-16.900335,2.125106,6.431172,0.987264,-0.147721,0.010072,0.058195
392,-0.528516,-3.609791,10.426614,50.756397,4.382194,7.644392,-15.821845,2.488748,6.572289,0.988450,-0.138608,0.013587,0.059748
393,-0.547093,-3.601175,10.613999,36.204746,4.649310,14.359994,-14.699034,2.792550,6.875129,0.989519,-0.129103,0.016455,0.062562
394,-0.501171,-3.490507,10.484914,37.600414,2.911297,17.778046,-13.886263,3.055987,7.343188,0.990070,-0.122288,0.018677,0.066762
395,-0.636086,-2.505825,10.044554,54.783543,1.071057,19.389414,-12.569899,3.280900,7.919527,0.990994,-0.111132,0.020831,0.071739
396,-0.297948,-1.419794,10.046349,63.133778,-2.597365,18.440287,-10.275713,3.304180,8.559789,0.992599,-0.091408,0.021954,0.076873
397,-0.188339,-0.958610,9.246524,67.707710,-1.164833,17.921453,-7.471299,3.085230,9.194374,0.994164,-0.067073,0.021557,0.081699
398,-0.315079,0.751746,7.571037,69.856133,-0.276983,11.443942,-3.996764,2.923349,9.734854,0.995388,-0.036897,0.022443,0.085658
399,-0.736049,1.638017,7.001719,42.010475,1.838138,8.927831,-0.126921,3.113848,10.177630,0.995687,-0.003513,0.026965,0.088697
400,-0.229665,1.688531,7.033805,2.689903,3.936433,6.703181,2.654895,3.319899,10.557911,0.995135,0.020394,0.030967,0.091273
401,-0.403706,1.789188,6.974017,-24.135302,4.389532,4.060396,3.985111,3.362108,10.836364,0.994598,0.031831,0.032469,0.093311
402,-0.778003,1.908079,6.636049,-41.289326,3.292655,1.499989,4.472451,3.688442,11.030174,0.994218,0.035728,0.035757,0.094735
403,-0.153223,1.454004,6.700622,-53.119709,1.876667,2.987863,4.216532,3.819600,11.192212,0.994128,0.033345,0.036730,0.096175
404,0.050232,0.889208,5.713655,-51.133453,-0.823244,3.824179,3.312383,3.385626,11.364219,0.994321,0.025824,0.032244,0.098075
405,-0.183350,-0.023870,5.186155,-39.203686,-2.682291,0.696073,1.881569,2.947573,11.452279,0.994589,0.013766,0.027225,0.099307
406,-0.102297,-0.718892,4.066285,-19.187876,-3.189135,0.256549,-0.117406,2.661200,11.419272,0.994768,-0.003329,0.023004,0.099484
407,0.202897,-0.987695,2.903456,-4.131025,-3.885605,-2.246087,-2.515404,2.022744,11.306041,0.994704,-0.023577,0.015399,0.098850
408,-0.301039,-1.509437,2.053218,9.353994,-5.431468,-3.808781,-5.761093,1.773055,11.102543,0.993858,-0.051507,0.010519,0.097377
409,-0.062047,-1.364321,2.148918,18.837421,-6.374074,-4.037813,-9.117750,1.876811,10.853765,0.992112,-0.080661,0.008736,0.095559
410,0.047081,-1.066020,2.084769,23.886148,-7.193738,-6.677817,-11.299398,1.409675,10.626441,0.990680,-0.099149,0.003074,0.093349
411,-0.224541,-1.606078,2.848942,21.698072,-6.137814,-5.731823,-12.905440,1.124440,10.407734,0.989422,-0.112799,-0.000483,0.091219
412,-0.174383,-1.007600,4.880247,19.639748,-9.003213,-8.957604,-13.322490,1.053167,10.196138,0.989184,-0.116346,-0.001215,0.089319
413,-0.685860,-0.438531,7.258599,8.985127,-7.225089,-8.968170,-12.115282,1.072981,9.980384,0.990518,-0.105934,0.000097,0.087480
414,0.076152,-0.702123,9.676340,-1.935970,-8.248762,-17.261492,-10.823685,0.922048,9.632028,0.991932,-0.094651,0.000064,0.084336
415,-0.760754,-0.510809,11.980259,-10.124255,-4.739039,-14.101261,-9.945820,0.693614,9.176741,0.992983,-0.086888,-0.000924,0.080217
416,-0.231434,0.155995,14.086135,-20.614944,-5.445302,-14.696303,-9.206964,0.644482,8.751951,0.993818,-0.080452,-0.000534,0.076504
417,-0.530256,-0.645755,14.882357,-28.444563,-0.951319,-12.039628,-8.880654,0.579439,8.343279,0.994316,-0.077581,-0.000604,0.072916
418,0.193637,-1.307540,15.217209,-31.895311,-3.206631,-10.318373,-9.178535,0.458139,7.994229,0.994339,-0.080095,-0.001602,0.069801
419,-0.473899,-1.242433,15.319302,-32.591953,0.284686,-4.359628,-9.687906,0.369970,7.766285,0.994117,-0.084466,-0.002509,0.067752
420,0.056408,-1.645920,14.676742,-32.666073,-0.565196,-2.960340,-10.255037,0.392181,7.650298,0.993753,-0.089400,-0.002561,0.066750
421,0.020876,-2.628411,14.217827,-31.915064,0.467768,-4.539687,-11.127450,0.296450,7.529672,0.993121,-0.096912,-0.003797,0.065602
422,-0.147138,-3.222927,14.069876,-29.548521,-0.992558,-2.037172,-12.285132,0.253175,7.424187,0.992155,-0.106920,-0.004736,0.064607
423,-0.031086,-2.983301,14.237474,-25.346230,-0.734663,-6.018310,-13.288671,0.205586,7.298879,0.991255,-0.115584,-0.005586,0.063431
424,-0.303161,-3.515674,14.394650,-24.731281,-1.167958,-6.215139,-14.122910,0.182588,7.107876,0.990493,-0.122795,-0.006042,0.061713
425,0.062054,-3.988263,14.975489,-24.143900,-0.366802,-6.740046,-15.019808,0.140427,6.904095,0.989613,-0.130533,-0.006657,0.059856
426,-0.258335,-3.868025,14.937341,-18.485794,1.136268,-8.829028,-15.749941,0.111096,6.650380,0.988894,-0.136837,-0.006988,0.057589
427,-0.323432,-3.682317,14.571690,-2.550383,3.353593,-7.609771,-15.963559,0.237902,6.366018,0.988766,-0.138758,-0.005657,0.055275
428,-0.379725,-4.035697,13.165832,14.082244,4.521123,-3.897138,-15.740170,0.476393,6.145867,0.989118,-0.136950,-0.003228,0.053670
429,-0.184745,-3.931653,12.032548,18.235529,5.102637,-1.620421,-15.431792,0.719779,6.013294,0.989518,-0.134400,-0.000826,0.052818
430,-0.216592,-3.405100,10.757634,23.241714,3.135780,-0.443920,-15.040531,0.892635,5.941263,0.989984,-0.131097,0.000930,0.052395
431,-0.422488,-3.047865,9.985225,18.599512,1.979276,6.750852,-14.612689,1.122409,6.018023,0.990400,-0.127503,0.003026,0.053308
432,0.050495,-3.168020,10.288233,3.562673,2.273783,9.282358,-14.534005,1.260853,6.254082,0.990355,-0.126893,0.003998,0.055498
433,-0.360983,-3.329953,10.882693,5.977799,2.934444,13.107828,-14.699380,1.383794,6.586287,0.989985,-0.128392,0.004609,0.058511
434,-0.175432,-2.584430,10.449549,29.783623,1.754913,13.139871,-14.204096,1.575682,6.988256,0.990286,-0.124227,0.006085,0.062170
435,-0.072089,-2.013715,10.514682,38.048378,2.652023,15.833105,-12.783169,1.649473,7.447325,0.991479,-0.112005,0.007045,0.066133
436,-0.013116,-1.057242,9.766286,53.079575,3.796239,14.061476,-10.587985,1.671591,7.927073,0.993154,-0.093040,0.008113,0.070162
437,-0.314269,-0.067521,8.422865,55.427837,4.319536,9.230412,-7.659224,1.792929,8.315321,0.994944,-0.067737,0.010728,0.073373
438,-0.118183,1.028762,7.552514,32.901180,4.244727,4.234595,-4.495127,1.931500,8.573927,0.996244,-0.040361,0.013863,0.075343
439,-0.501441,1.386203,7.015119,-0.442312,5.093242,4.957971,-1.905139,2.178515,8.784678,0.996721,-0.018029,0.017679,0.076876
440,-0.601623,1.859171,6.835662,-27.791838,5.218772,4.282104,-0.217866,2.678973,9.021102,0.996625,-0.003733,0.023154,0.078665
441,-0.278466,1.306771,7.418694,-52.996353,3.577061,3.996857,0.241654,2.974274,9.238456,0.996418,0.000011,0.026038,0.080452
442,0.170906,0.935600,7.299740,-61.143364,1.481567,6.261401,-0.504918,2.740038,9.466660,0.996286,-0.006363,0.023464,0.082599
443,0.147474,0.961746,6.953171,-59.108032,0.740810,6.601744,-1.472678,2.235914,9.739292,0.996097,-0.014458,0.018348,0.085116
444,0.178141,0.115903,6.380421,-48.707939,0.291543,4.009228,-2.538677,1.743967,9.957653,0.995838,-0.023387,0.013235,0.087092
445,0.406420,-1.162505,5.871553,-29.848011,-1.494575,0.639942,-4.252047,1.100718,10.039841,0.995402,-0.037794,0.006316,0.087793
446,0.007829,-1.225034,3.963783,-9.545834,-2.561758,0.723798,-6.335590,0.583765,10.054259,0.994594,-0.055493,0.000225,0.087773
447,-0.307598,-1.398191,3.236052,3.318309,-3.976019,-1.861120,-8.407545,0.688648,10.023037,0.993441,-0.073546,-0.000433,0.087558
448,0.132891,-2.159485,2.750916,16.478708,-4.644231,-6.493865,-11.085279,0.632412,9.865963,0.991577,-0.096700,-0.002833,0.086118
450,0.435638,-1.858243,3.151557,25.434998,-7.371883,-5.793663,-13.539973,-0.283425,9.689448,0.989501,-0.117255,-0.012403,0.083576
451,-0.138420,-1.840346,3.473445,32.921478,-7.834653,-3.900074,-14.775587,-0.906699,9.603430,0.988272,-0.127472,-0.018582,0.081996
452,0.133024,-1.671284,5.723537,29.592127,-10.155431,-5.744874,-14.780420,-1.109582,9.529726,0.988323,-0.127378,-0.020253,0.081132
453,-0.013753,-1.451755,7.725161,22.258747,-11.130430,-5.194001,-13.738725,-1.442334,9.436446,0.989502,-0.118163,-0.022291,0.080158
454,-0.607150,-0.709214,10.171152,11.761532,-12.469699,0.090373,-12.250642,-1.442221,9.426328,0.990961,-0.105306,-0.021238,0.080354
455,-0.384346,-1.091808,12.487684,-4.302001,-11.432938,-0.130769,-11.000644,-1.297590,9.490211,0.992010,-0.094584,-0.019161,0.081255
456,-0.227590,-0.388767,14.027705,-13.356984,-11.592713,1.340282,-10.190273,-1.311093,9.561746,0.992603,-0.087545,-0.018758,0.081998
457,0.437845,-0.487165,14.962092,-24.065987,-7.457298,-0.492357,-9.637958,-1.499002,9.606445,0.992973,-0.082614,-0.020023,0.082336
458,0.262351,-0.571314,15.550048,-26.246740,-4.692306,-0.701439,-9.422980,-1.692404,9.594846,0.993123,-0.080611,-0.021536,0.082133
459,1.080245,-1.401701,14.986485,-24.718323,-1.416295,-2.093135,-9.499333,-1.926864,9.544698,0.993086,-0.081110,-0.023586,0.081512
460,0.686033,-1.267306,14.369517,-19.517263,1.722273,-3.672533,-9.665164,-2.152426,9.431731,0.993027,-0.082406,-0.025577,0.080331
461,0.749594,-1.954997,13.856042,-21.382961,5.268385,-7.351581,-9.933652,-2.183294,9.217060,0.992976,-0.084758,-0.025874,0.078387
462,0.316187,-2.473410,12.820176,-14.467414,4.133087,-5.793614,-10.479091,-2.075989,8.972334,0.992737,-0.089614,-0.025126,0.076230
463,0.468370,-3.290681,12.408990,-15.249132,4.011074,-3.649662,-11.325153,-1.920761,8.804397,0.992172,-0.097085,-0.024203,0.074723
464,0.082180,-3.139440,13.371554,-17.549225,3.071228,-4.212685,-12.283911,-1.728293,8.665492,0.991428,-0.105541,-0.023034,0.073497
465,-0.213517,-3.594021,14.193414,-19.984919,3.860467,-2.787390,-13.159866,-1.365177,8.530910,0.990693,-0.113383,-0.020324,0.072521
466,-0.197787,-4.574995,14.674863,-19.706181,5.635494,-2.900210,-14.223859,-0.923209,8.406558,0.989678,-0.122885,-0.017047,0.071734
467,-0.676795,-4.872773,14.692052,-3.178048,6.643049,-0.855347,-15.155070,-0.373061,8.299263,0.988695,-0.131288,-0.012761,0.071301
468,-0.501350,-4.450977,13.938581,13.228146,6.489393,-0.955930,-15.432149,0.213912,8.214440,0.988381,-0.134052,-0.007771,0.071224
469,-0.338851,-4.611831,12.132681,22.811825,5.024795,-0.855140,-15.360242,0.632173,8.134436,0.988466,-0.133692,-0.004025,0.071025
470,0.002821,-4.598472,10.504234,30.353338,3.100657,-1.518913,-15.383391,0.795101,8.053049,0.988467,-0.133992,-0.002539,0.070511
471,0.035280,-3.483700,9.325036,30.195055,0.669731,-4.448739,-15.265639,0.720432,7.929564,0.988690,-0.132934,-0.002967,0.069362
472,0.156331,-3.252896,8.974947,10.277864,1.513356,-6.702599,-15.242900,0.530009,7.731862,0.988859,-0.132633,-0.004368,0.067438
473,0.125869,-3.413761,9.410868,-4.235988,2.811688,-4.378685,-15.766445,0.356177,7.528930,0.988380,-0.137060,-0.005933,0.065460
474,-0.219824,-3.781088,10.282106,4.825724,5.439296,-2.086763,-16.364799,0.427897,7.383846,0.987725,-0.142267,-0.005476,0.064266
475,-0.454280,-3.756550,10.930316,28.132124,6.924232,-0.435654,-16.284536,0.788350,7.282567,0.987836,-0.141775,-0.002198,0.063840
476,-0.455374,-3.344232,11.352901,54.481575,5.989100,7.335959,-15.088675,1.242714,7.336884,0.989163,-0.131704,0.002329,0.064846
477,-0.357972,-2.439481,11.539095,78.119942,4.573191,12.600451,-12.671004,1.621001,7.627561,0.991489,-0.111030,0.006689,0.067659
478,0.012998,-1.098764,10.509151,95.792496,3.385920,11.312571,-9.108444,1.746926,8.011475,0.994207,-0.080261,0.009613,0.070835
479,-0.080389,-0.115060,9.050578,87.996277,3.931958,11.523138,-5.036988,1.718987,8.392306,0.996196,-0.044916,0.011731,0.073750
480,-0.606897,1.418566,7.816519,61.468491,3.217943,9.615793,-0.976454,1.953300,8.781558,0.996873,-0.009800,0.016342,0.076689
481,-0.146964,1.866876,6.659042,27.166780,1.484659,8.117437,2.608799,2.159191,9.157859,0.996407,0.021184,0.020593,0.079370
482,-0.202147,2.403759,6.053555,-5.779603,2.279591,6.300165,5.312648,2.139975,9.485194,0.995403,0.044636,0.022421,0.081714
483,-0.650904,2.390800,6.566374,-38.137142,2.893268,1.856750,6.798246,2.407430,9.713712,0.994542,0.057290,0.025914,0.083258
484,-0.157666,2.483943,6.825751,-58.792824,-0.941195,3.666574,7.025703,2.571084,9.885108,0.994278,0.059100,0.027587,0.084604
485,0.704714,2.080909,7.051651,-67.885475,-2.020766,9.413381,6.417525,1.891403,10.163513,0.994454,0.054287,0.021372,0.087506
486,0.147512,1.892600,7.516036,-66.852531,0.432023,8.098199,5.314582,1.106543,10.508568,0.994722,0.045282,0.013851,0.091028
487,0.569828,0.562139,6.345516,-52.602818,0.373280,2.929985,3.823083,0.495168,10.723310,0.995075,0.032807,0.007417,0.093246
488,0.350940,-0.236823,5.160677,-28.968319,-1.164206,3.630452,2.018976,-0.227385,10.849018,0.995362,0.017727,-0.000310,0.094554
489,0.177753,-0.215803,4.113212,-10.572718,-0.423157,1.381266,0.597426,-0.696572,10.944969,0.995407,0.005769,-0.005554,0.095396
490,0.083110,-0.973066,3.061757,6.657649,-2.831323,-0.626824,-0.996532,-0.954520,10.980261,0.995347,-0.007859,-0.009123,0.095595
491,0.052232,-1.965310,2.187458,22.771376,-5.149296,-1.054014,-4.202023,-1.160619,11.019080,0.994696,-0.035518,-0.013594,0.095572
492,-0.417974,-1.617259,2.336455,36.003258,-7.284846,1.306750,-7.639517,-0.760206,11.108846,0.993115,-0.065663,-0.013036,0.096134
493,-0.288200,-1.614224,2.755139,36.380501,-7.463655,-1.053663,-9.818151,0.009751,11.162533,0.991608,-0.085177,-0.008238,0.096908
494,-0.451588,-1.684632,4.950784,32.897289,-9.538030,-4.080939,-10.726474,0.433990,11.126958,0.990891,-0.093394,-0.005309,0.096876
495,-0.666976,-1.344003,6.543461,26.997246,-8.028054,-9.418475,-10.381958,0.783923,10.956787,0.991267,-0.090711,-0.001856,0.095693
496,-1.359898,-0.524637,8.709469,11.910919,-7.209069,-8.092236,-9.340463,1.371387,10.729316,0.992152,-0.082173,0.004264,0.094147
497,-0.715454,-0.033987,11.382035,-7.865271,-11.196998,-4.631262,-8.213890,1.722035,10.603554,0.992953,-0.072689,0.008307,0.093225
498,-0.464064,0.268998,13.209694,-21.238470,-11.801060,2.607805,-7.468009,1.507681,10.661659,0.993396,-0.066057,0.007022,0.093554
499,-0.328650,-0.019584,14.040796,-33.667267,-11.587423,9.398213,-7.263716,1.157439,10.942649,0.993333,-0.064015,0.003995,0.095788
500,0.380576,-0.003536,15.113445,-41.169029,-10.420321,13.107737,-7.531133,0.659575,11.385467,0.992866,-0.065919,-0.000799,0.099354
501,1.315521,-0.484527,15.022355,-38.489952,-9.543596,10.414407,-7.998321,-0.166052,11.836079,0.992258,-0.069221,-0.008629,0.102754
502,1.351138,-0.969830,14.451265,-36.462711,-2.380269,4.550159,-8.598430,-1.046704,12.121735,0.991643,-0.073581,-0.016972,0.104603
503,1.189356,-1.579899,14.156931,-32.940346,1.005027,-0.912764,-9.333040,-1.651480,12.189698,0.991073,-0.079363,-0.022919,0.104646
504,1.109674,-1.815159,13.085491,-23.398428,5.481528,-8.667612,-10.023152,-2.029587,12.015146,0.990713,-0.085017,-0.026687,0.102705
505,0.580992,-2.410460,12.167855,-21.088156,7.841821,-10.875680,-10.735300,-2.122741,11.658768,0.990472,-0.091173,-0.027846,0.099380
506,0.496839,-2.669214,11.685766,-19.329041,10.219138,-9.996749,-11.615807,-1.955146,11.268663,0.990086,-0.099024,-0.026825,0.095943
507,-0.227589,-2.932647,11.304137,-17.286245,10.111023,-8.098435,-12.552191,-1.499211,10.913579,0.989553,-0.107578,-0.023340,0.093093
508,-0.122422,-3.009301,10.798306,-16.326935,9.514807,-4.402539,-13.503234,-0.881580,10.643437,0.988839,-0.116347,-0.018511,0.091202
509,-0.107522,-3.136603,10.556906,-15.884922,8.024263,-0.639531,-14.442453,-0.380951,10.495193,0.987943,-0.124872,-0.014781,0.090318
510,-0.254326,-3.203453,10.433414,-12.899158,5.496060,2.400181,-15.299916,0.054420,10.466657,0.986963,-0.132609,-0.011673,0.090463
511,-0.247432,-3.065821,10.119911,-9.881227,2.656554,5.055357,-15.957855,0.418585,10.548034,0.986074,-0.138553,-0.009157,0.091533
512,-0.154621,-3.135984,9.898348,-7.160766,0.221315,7.431259,-16.451918,0.637205,10.732140,0.985285,-0.142963,-0.007901,0.093347
513,-0.287327,-3.041536,9.667127,-3.796319,-1.322806,7.300061,-16.807249,0.784492,10.970433,0.984614,-0.146120,-0.007228,0.095556
514,-0.237882,-2.960817,9.573361,-3.483620,-2.618192,7.988289,-17.017447,0.899806,11.231735,0.984102,-0.148005,-0.006750,0.097935
515,-0.166344,-2.734861,9.518701,-2.891510,-2.822615,7.828083,-17.078711,0.932852,11.510887,0.983775,-0.148543,-0.006881,0.100370
516,-0.127141,-2.545543,9.404735,-2.666795,-2.753975,5.636853,-16.843964,0.888833,11.757868,0.983868,-0.146474,-0.007369,0.102449
517,-0.014202,-2.500524,9.409451,-3.847376,-1.724072,4.408462,-16.561388,0.786919,11.945623,0.984076,-0.143945,-0.008228,0.103953
518,0.190825,-2.455789,9.455362,-4.866364,-1.237520,3.292950,-16.440804,0.595468,12.086219,0.984134,-0.142726,-0.009938,0.104932
519,0.172234,-2.432667,9.535226,-4.579146,0.164525,0.178457,-16.322523,0.361109,12.149618,0.984262,-0.141492,-0.011921,0.105199
520,0.138288,-2.370070,9.593269,-5.317314,1.526955,-1.745797,-16.182878,0.196824,12.118677,0.984487,-0.140146,-0.013167,0.104748
521,0.099189,-2.510251,9.744238,-7.206061,2.788741,-2.589675,-16.113173,0.117531,12.030391,0.984663,-0.139486,-0.013677,0.103901
522,-0.024181,-2.447559,9.827651,-6.537383,3.029777,-4.143085,-16.084930,0.130074,11.896316,0.984817,-0.139270,-0.013380,0.102767
523,-0.121171,-2.263471,9.822449,-5.230755,3.141217,-4.819056,-15.932673,0.226305,11.725186,0.985140,-0.138066,-0.012211,0.101429
524,-0.093673,-2.183857,9.713467,-4.516092,3.016160,-3.639493,-15.671528,0.344842,11.563164,0.985578,-0.135940,-0.010768,0.100204
525,-0.132228,-2.227150,9.668523,-3.802988,3.002485,-4.048422,-15.414006,0.455992,11.415008,0.985993,-0.133834,-0.009413,0.099082
526,-0.209140,-1.964514,9.639884,-1.756173,2.509705,-3.903429,-15.068698,0.588547,11.266476,0.986500,-0.130985,-0.007804,0.097982
527,-0.184329,-1.814816,9.643118,-1.687974,1.832331,-2.079901,-14.280596,0.749401,11.160913,0.987442,-0.124339,-0.005629,0.097296
528,-0.063349,-1.881536,9.691259,-2.388617,1.774360,-1.171955,-13.323199,0.809435,11.106928,0.988483,-0.116137,-0.004243,0.096934
529,-0.045103,-1.848828,9.844311,-1.710110,1.615509,-0.187756,-12.594995,0.735136,11.081765,0.989233,-0.109792,-0.004244,0.096672
530,-0.046750,-1.766925,9.793840,0.010451,1.310156,1.411386,-11.949459,0.651609,11.098832,0.989833,-0.104147,-0.004437,0.096766
531,0.062203,-1.876686,9.743052,0.035434,1.485396,1.930156,-11.493010,0.511767,11.148024,0.990217,-0.100085,-0.005303,0.097087
532,0.127918,-2.179631,9.610832,1.079127,2.080137,0.724599,-11.505965,0.276751,11.178795,0.990206,-0.099997,-0.007372,0.097149
533,0.007845,-2.263372,9.461716,2.313062,3.105302,-0.973812,-11.880396,0.150175,11.155457,0.989907,-0.103127,-0.008762,0.096809
534,-0.113554,-2.561260,9.349346,0.345247,3.384579,-2.934622,-12.554352,0.268586,11.066831,0.989345,-0.109053,-0.008224,0.096103
535,0.016120,-2.817701,9.370493,-2.153615,3.244251,-5.783517,-13.322330,0.389038,10.897065,0.988719,-0.115793,-0.007657,0.094702
536,-0.033010,-2.967925,9.375254,-3.930493,2.960384,-8.575974,-13.986567,0.396052,10.637126,0.988242,-0.121546,-0.007870,0.092422
537,-0.179762,-2.996185,9.379887,-4.948948,2.931429,-8.818592,-14.667790,0.449834,10.328259,0.987741,-0.127483,-0.007612,0.089771
538,-0.227855,-3.161558,9.564974,-6.293900,2.626366,-8.505751,-15.347552,0.564343,10.020834,0.987188,-0.133447,-0.006800,0.087209
539,-0.146301,-3.051368,9.673203,-5.027864,3.015567,-8.371449,-15.924669,0.652934,9.720277,0.986716,-0.138500,-0.006113,0.084692
540,-0.314717,-2.957647,9.689329,-2.815539,3.760331,-6.476221,-16.272663,0.785536,9.448483,0.986468,-0.141604,-0.004893,0.082496
541,-0.335934,-2.949145,9.749055,-0.470326,4.409028,-3.619639,-16.437855,1.017542,9.246867,0.986367,-0.143193,-0.002763,0.081041
542,-0.243708,-2.738203,9.687454,1.568318,4.648715,-2.812389,-16.416035,1.230242,9.101485,0.986458,-0.143152,-0.000735,0.080053
543,-0.327504,-2.607857,9.548017,2.992251,4.302465,-1.440538,-16.147083,1.466941,8.996016,0.986817,-0.140994,0.001622,0.079433
544,-0.324465,-2.456869,9.410227,3.925032,3.245174,0.018310,-15.679646,1.729378,8.948216,0.987361,-0.137139,0.004265,0.079323
545,-0.197752,-2.446599,9.536016,4.139130,2.584423,-0.888083,-15.172552,1.801313,8.919303,0.987963,-0.132815,0.005270,0.079136
546,-0.261281,-2.519305,9.429594,6.664787,2.361500,-2.375892,-14.794189,1.753975,8.850767,0.988453,-0.129518,0.005200,0.078474
547,-0.288177,-2.570130,9.475377,7.298018,1.822793,-2.749759,-14.586912,1.754290,8.749390,0.988755,-0.127725,0.005458,0.077590
548,-0.133667,-2.557714,9.497552,8.407222,0.977262,-3.370858,-14.444085,1.634110,8.635128,0.989016,-0.126410,0.004643,0.076467
549,-0.275475,-2.643290,9.412755,8.992889,0.339268,-3.781382,-14.387609,1.492976,8.507161,0.989191,-0.125829,0.003603,0.075208
550,-0.308458,-2.718767,9.157108,7.878578,-0.208512,-2.975698,-14.418066,1.488229,8.389071,0.989235,-0.126085,0.003672,0.074184
551,-0.145799,-2.690939,9.163971,3.842165,-0.039152,-3.091682,-14.498158,1.441966,8.285050,0.989222,-0.126745,0.003336,0.073238
553,-0.265415,-2.602591,9.244500,2.392170,0.349934,-1.921313,-14.689370,1.403888,8.195469,0.989074,-0.128370,0.002985,0.072429
554,-0.270099,-2.586651,9.493577,-1.148273,0.662801,0.134115,-14.906387,1.453866,8.156363,0.988844,-0.130272,0.003324,0.072153
555,-0.102807,-2.695783,9.794870,-4.471870,1.312803,1.382307,-15.105339,1.456383,8.169638,0.988607,-0.131990,0.003205,0.072276
556,-0.256257,-2.708041,9.978652,-7.859472,1.689634,2.238331,-15.347045,1.459787,8.214062,0.988298,-0.134079,0.003030,0.072669
557,-0.369849,-2.653979,10.099980,-11.442300,1.006061,5.366490,-15.629416,1.572391,8.325167,0.987871,-0.136585,0.003689,0.073767
558,-0.120271,-3.257084,9.810684,-15.245082,1.215088,3.164568,-16.211483,1.624560,8.447817,0.987074,-0.141637,0.003612,0.074905
559,-0.207388,-3.685538,9.317730,-17.990896,1.869608,-0.328325,-17.304432,1.598445,8.464254,0.985673,-0.151029,0.002652,0.075043
560,-0.479903,-3.985296,8.896788,-20.293003,2.071101,-2.098405,-18.755100,1.701507,8.382682,0.983712,-0.163556,0.002703,0.074516
561,-0.402760,-4.258755,8.535872,-21.476807,1.387653,-3.171113,-20.423441,1.856566,8.249257,0.981275,-0.177950,0.003153,0.073642
562,-0.234055,-4.727027,8.142005,-23.469587,0.108969,-6.438156,-22.337498,1.842072,8.052627,0.978295,-0.194304,0.002132,0.071982
563,-0.567523,-4.686204,8.184663,-26.145960,-1.548076,-5.423418,-24.308958,1.821422,7.842363,0.974943,-0.211091,0.001105,0.070181
564,-0.605824,-4.854959,8.324626,-26.661304,-3.444527,-3.251945,-26.081861,1.910095,7.712286,0.971616,-0.226197,0.001028,0.069261
565,-0.391780,-4.986331,8.494627,-26.938353,-5.786647,-2.205111,-27.658644,1.874472,7.672924,0.968445,-0.239526,-0.000144,0.068862
566,-0.356063,-5.167515,8.719953,-25.828087,-7.207236,-0.639510,-29.023724,1.694834,7.715971,0.965547,-0.250949,-0.002573,0.068828
567,-0.411627,-5.200837,8.868807,-21.359015,-7.922836,1.275545,-30.096560,1.529458,7.839524,0.963126,-0.259884,-0.004888,0.069466
568,-0.141237,-5.218404,8.744696,-17.231560,-8.127317,0.941356,-30.875090,1.308243,8.002484,0.961297,-0.266290,-0.007595,0.070288
569,-0.024452,-5.217998,8.665595,-14.954954,-7.572016,0.167630,-31.469177,0.966895,8.153080,0.959896,-0.271063,-0.011176,0.070705
570,0.075871,-5.243846,8.402249,-12.782093,-6.368244,-0.616808,-31.975107,0.593651,8.269428,0.958704,-0.275067,-0.014891,0.070735
571,0.067472,-5.307817,8.228240,-12.771524,-4.181763,-1.952099,-32.490513,0.262536,8.327353,0.957490,-0.279170,-0.018118,0.070346
572,0.012332,-5.145119,8.465455,-14.813184,-0.501323,-4.204422,-32.927052,0.053373,8.284038,0.956486,-0.282697,-0.020025,0.069399
573,-0.001573,-4.807621,8.655050,-14.220702,2.284990,-6.053861,-33.072815,-0.039861,8.125318,0.956237,-0.283886,-0.020498,0.067818
574,-0.161349,-4.325705,8.706700,-11.734096,3.470700,-5.759314,-32.804642,-0.003165,7.907959,0.957020,-0.281706,-0.019498,0.066141
575,-0.362524,-4.034812,8.782867,-9.172364,4.290342,-4.297335,-32.171223,0.225514,7.698171,0.958643,-0.276575,-0.016713,0.065044
576,-0.153915,-3.756624,8.902168,-5.729954,4.166940,-3.984391,-31.264343,0.462336,7.512004,0.960864,-0.269134,-0.013775,0.064169
577,-0.158039,-3.728949,8.724167,1.038969,3.095820,-1.967059,-30.187645,0.594809,7.373673,0.963403,-0.260180,-0.011743,0.063433
578,-0.145600,-3.757426,8.695057,7.916029,1.775944,0.790331,-29.046246,0.708148,7.326779,0.965951,-0.250636,-0.010053,0.063398
579,0.178120,-3.797661,8.697168,16.903225,1.789564,0.627007,-27.816242,0.672390,7.327842,0.968592,-0.240234,-0.009676,0.063437
580,0.356031,-3.718452,8.923502,27.246832,2.834483,-1.597962,-26.372288,0.429665,7.281243,0.971608,-0.227885,-0.010841,0.062677
581,0.181112,-3.625529,8.993739,40.633053,4.004548,-4.051806,-24.602419,0.206771,7.144674,0.975117,-0.212747,-0.011515,0.061262
582,0.090795,-3.011657,8.883421,51.980682,4.976390,-6.858061,-22.375231,0.120858,6.915104,0.979199,-0.193731,-0.010669,0.059367
583,-0.330853,-2.846701,9.096508,53.090939,4.498862,-5.124575,-19.902565,0.269702,6.673193,0.983259,-0.172652,-0.007744,0.057732
584,-0.558484,-3.182765,9.109550,45.936344,2.321748,-2.162606,-17.879023,0.665085,6.531665,0.986181,-0.155463,-0.003128,0.057176
585,0.088307,-3.120732,9.579893,36.005661,0.901256,-3.072001,-16.483145,0.815553,6.439993,0.988028,-0.143513,-0.001019,0.056607
586,-0.639871,-2.609237,10.366830,24.526306,-0.072168,-0.076575,-15.329324,0.910410,6.388646,0.989436,-0.133602,0.000430,0.056281
587,-1.143557,-3.077036,10.758729,12.544885,-1.418957,6.935224,-14.594271,1.417929,6.512536,0.990134,-0.127497,0.005039,0.057907
588,-0.426609,-2.849030,10.308958,10.471029,-2.656017,7.754769,-14.302446,1.799458,6.768379,0.990253,-0.125176,0.008205,0.060516
589,-0.136528,-1.772016,10.199522,14.585222,-0.977516,7.351932,-13.637765,1.790032,7.035845,0.990821,-0.119445,0.008196,0.062770
590,-0.851595,-1.523489,10.095713,18.326056,-0.012979,12.863636,-12.446565,1.978824,7.388549,0.991773,-0.109268,0.010147,0.065911
591,-0.021521,-1.387648,9.519272,20.820183,0.261773,12.961346,-11.166148,2.146605,7.832755,0.992633,-0.098318,0.011955,0.069783
592,0.731687,-0.821551,9.510408,24.171976,0.863826,6.801077,-9.716475,1.667819,8.170362,0.993683,-0.085500,0.008432,0.072205
593,0.347272,-0.690175,10.033820,24.427801,1.482515,2.354406,-8.106550,1.053071,8.322824,0.994780,-0.071160,0.004013,0.073030
594,0.326070,-0.771660,10.208474,24.607132,0.989103,-2.231064,-6.653403,0.659684,8.321788,0.995643,-0.058292,0.001522,0.072767
595,0.415100,-0.587401,9.880689,23.393080,0.268374,-8.495042,-5.386879,0.265838,8.139723,0.996366,-0.047038,-0.001024,0.071003
596,0.463068,-0.762828,9.910769,21.403624,-1.885203,-13.492496,-4.358734,-0.192008,7.771911,0.996982,-0.037827,-0.004248,0.067658
597,0.311685,-0.926147,9.903100,21.800365,-3.536631,-17.656778,-3.635117,-0.621193,7.255976,0.997490,-0.031310,-0.007414,0.063074
598,0.293733,-0.836589,9.674335,21.144028,-3.564323,-21.445669,-3.063436,-0.958811,6.611245,0.997957,-0.026203,-0.009891,0.057416
599,0.073643,-1.016962,9.966836,15.625942,-3.463661,-23.816956,-2.708246,-1.152351,5.866786,0.998372,-0.023085,-0.011249,0.050921
600,-0.124565,-0.850543,10.076486,15.999386,-3.475669,-24.911026,-2.490615,-1.145850,5.067052,0.998746,-0.021269,-0.010948,0.043974
601,-0.339323,-0.724962,9.980232,18.396301,-1.409155,-22.901356,-2.155293,-0.929842,4.280468,0.999099,-0.018491,-0.008810,0.037185
602,-0.416210,-0.605900,9.923611,17.894022,-1.011881,-19.027008,-1.741868,-0.566303,3.589739,0.999384,-0.015038,-0.005415,0.031242
603,-0.347452,-0.640572,10.004711,19.666874,-0.962562,-14.942084,-1.329340,-0.222604,3.030396,0.999582,-0.011545,-0.002249,0.026418
604,-0.368486,-0.513457,9.897871,24.624310,-1.255132,-10.672532,-0.827808,0.059202,2.608697,0.999715,-0.007234,0.000352,0.022766
605,-0.297956,-0.598665,9.784148,26.624439,-1.799551,-6.383149,-0.261907,0.274743,2.328049,0.999788,-0.002334,0.002351,0.020320
606,-0.160726,-0.406254,9.729072,26.526379,-3.276451,-4.339933,0.302974,0.347171,2.150420,0.999816,0.002587,0.003079,0.018757
607,-0.011057,-0.329876,9.690156,24.562149,-4.092788,-1.802320,0.861918,0.251479,2.046026,0.999810,0.007481,0.002328,0.017837
608,0.045796,-0.194376,9.790526,19.820744,-4.324796,-0.712811,1.318154,0.058722,1.999764,0.999782,0.011492,0.000713,0.017443
609,0.169739,-0.158563,9.712317,14.351473,-4.434794,-0.395416,1.604307,-0.191983,1.976392,0.999751,0.014027,-0.001434,0.017268
610,0.206244,-0.217013,9.877603,9.103152,-4.105448,-0.180253,1.463658,-0.538535,1.964179,0.999759,0.012851,-0.004480,0.017198
611,0.213482,-0.219553,9.928109,7.429806,-3.832591,0.344679,0.993841,-0.897203,1.970484,0.999783,0.008806,-0.007679,0.017262
612,0.264884,-0.117365,9.972064,5.320244,-2.856218,-0.361811,0.620138,-1.184384,1.976971,0.999782,0.005589,-0.010240,0.017306
613,0.241319,-0.146793,9.955437,4.591856,-2.120860,-0.416733,0.367969,-1.377699,1.971490,0.999774,0.003417,-0.011965,0.017241
614,0.176731,-0.219751,9.984441,3.501830,-1.013011,-0.953847,0.090947,-1.408610,1.957822,0.999778,0.001003,-0.012277,0.017093
615,0.189696,-0.117797,9.965880,1.789343,-0.465091,-2.560638,-0.139061,-1.342368,1.906682,0.999793,-0.001018,-0.011733,0.016623
616,0.028794,-0.350744,9.946393,-3.183933,0.235460,-4.483297,-0.387458,-1.225866,1.794324,0.999815,-0.003213,-0.010749,0.015621
617,0.063455,-0.342405,9.979418,-9.022411,0.022000,-7.442059,-0.817423,-1.087851,1.599832,0.999833,-0.007000,-0.009592,0.013892
618,0.090838,-0.417695,9.735711,-17.920351,-0.247971,-10.791457,-1.475298,-1.003330,1.299294,0.999816,-0.012773,-0.008900,0.011224
619,0.141064,-0.384945,9.873557,-30.971788,-1.035287,-13.237512,-2.442867,-0.989155,0.901733,0.999706,-0.021247,-0.008797,0.007683
620,0.051123,-0.549154,9.853510,-33.768940,-1.021481,-11.707004,-3.614842,-0.986928,0.489137,0.999457,-0.031502,-0.008743,0.003995
621,0.191977,-0.571633,9.679702,-35.664181,-0.754399,-9.398276,-4.800019,-1.006130,0.139958,0.999084,-0.041863,-0.008823,0.000853
622,0.226463,-0.805667,9.619177,-40.570007,-0.037254,-6.219778,-6.049179,-1.076359,-0.117913,0.998562,-0.052772,-0.009325,-0.001523
623,0.351263,-1.148081,9.997003,-40.893543,0.162538,-3.250336,-7.436273,-1.177215,-0.272718,0.997838,-0.064869,-0.010097,-0.003041
624,0.260868,-1.392778,9.714681,-31.532097,0.307395,-1.185769,-8.723207,-1.264650,-0.343121,0.997036,-0.076079,-0.010776,-0.003825
625,0.353567,-1.334461,9.627898,-34.030029,0.273729,-0.921798,-9.807705,-1.338451,-0.378128,0.996263,-0.085516,-0.011355,-0.004286
626,0.366391,-1.391866,10.078341,-29.601561,0.436877,3.575078,-10.684166,-1.421857,-0.339306,0.995572,-0.093131,-0.012078,-0.004103
627,0.385051,-1.640804,10.297490,0.131393,1.657502,11.921863,-10.943240,-1.434009,-0.096826,0.995364,-0.095356,-0.012376,-0.002034
628,0.227582,-1.562634,9.968130,36.454826,2.408213,18.986879,-10.101037,-1.310766,0.391281,0.996050,-0.087989,-0.011694,0.002394
629,0.197215,-1.399637,9.909358,55.124866,2.699693,23.595173,-8.316309,-1.092516,1.072139,0.997285,-0.072414,-0.010187,0.008640
630,0.241294,-1.476854,10.066268,63.296364,2.646280,24.654161,-6.221718,-0.908337,1.855643,0.998371,-0.054131,-0.008793,0.015738
631,0.206928,-1.288435,9.856977,64.008865,1.828338,19.459906,-4.195400,-0.803881,2.581109,0.999058,-0.036436,-0.007833,0.022250
632,0.034848,-0.868576,9.601026,46.538364,0.075075,10.414225,-2.506765,-0.722908,3.078144,0.999384,-0.021696,-0.006892,0.026714
633,0.070513,-0.551203,9.789398,20.267893,-0.593205,3.101997,-1.508840,-0.663725,3.306489,0.999483,-0.012994,-0.006169,0.028771
634,0.160508,-0.455434,10.028076,6.866973,-0.678673,-1.419317,-1.250204,-0.697316,3.337692,0.999500,-0.010728,-0.006400,0.029054
635,0.110227,-0.269231,9.912855,6.735511,-0.913697,-4.237700,-1.208589,-0.751519,3.246125,0.999524,-0.010357,-0.006854,0.028253
636,0.112291,-0.209856,9.825631,7.879902,-0.962501,-4.849595,-1.005765,-0.764697,3.095824,0.999576,-0.008593,-0.006908,0.026953
637,0.106453,-0.137564,9.878378,6.643934,-1.435497,-5.054068,-0.735767,-0.774574,2.931148,0.999631,-0.006246,-0.006921,0.025532
638,0.093974,-0.068380,9.937639,5.820026,-1.877952,-4.947253,-0.452520,-0.780836,2.764260,0.999679,-0.003783,-0.006907,0.024093
639,0.101740,0.005235,9.908085,6.816593,-2.178488,-4.846543,-0.129770,-0.792558,2.600178,0.999718,-0.000975,-0.006940,0.022680
640,0.139416,0.125856,9.912223,6.418549,-2.302058,-4.338413,0.271668,-0.843109,2.444772,0.999742,0.002527,-0.007305,0.021350
641,0.175561,0.214996,9.929059,5.021107,-2.102192,-3.895900,0.707943,-0.939672,2.303353,0.999744,0.006341,-0.008074,0.020149
642,0.218505,0.270991,9.930430,4.211143,-1.426289,-3.529681,1.107182,-1.061836,2.174527,0.999729,0.009835,-0.009081,0.019063
643,0.229475,0.276195,9.895190,4.032835,-0.651217,-3.117684,1.426334,-1.172201,2.059411,0.999707,0.012628,-0.010003,0.018096
644,0.248224,0.307334,9.920160,3.079271,0.044517,-2.717891,1.658896,-1.249915,1.959386,0.999687,0.014660,-0.010657,0.017253
645,0.214910,0.313747,9.912913,3.019844,0.599912,-2.456959,1.829379,-1.270147,1.871896,0.999675,0.016142,-0.010820,0.016508
646,0.196879,0.328744,9.909901,3.257926,0.923432,-2.363880,1.965661,-1.223289,1.791754,0.999671,0.017317,-0.010404,0.015815
647,0.180603,0.355527,9.906651,2.682679,0.879232,-2.312000,2.087624,-1.148885,1.714526,0.999669,0.018364,-0.009750,0.015141
648,0.158307,0.334242,9.936543,1.864771,0.642783,-2.385247,2.155385,-1.065146,1.637470,0.999675,0.018938,-0.009024,0.014461
649,0.128315,0.267799,9.953866,2.769516,0.265973,-2.437130,2.130659,-0.971897,1.559664,0.999696,0.018705,-0.008226,0.013765
650,0.164658,0.325230,9.911613,3.982483,-0.254309,-2.467647,2.129131,-0.922353,1.480024,0.999710,0.018681,-0.007807,0.013062
651,0.178121,0.336856,9.957019,3.205712,-0.767035,-2.592772,2.191301,-0.946996,1.396078,0.999707,0.019220,-0.008029,0.012338
652,0.179830,0.317687,9.957094,4.247826,-0.970013,-2.917791,2.243065,-0.997588,1.304365,0.999704,0.019670,-0.008480,0.011550
653,0.183417,0.382082,9.918569,5.816411,-1.034127,-3.142100,2.359177,-1.046675,1.202949,0.999689,0.020680,-0.008915,0.010683
654,0.189782,0.464090,9.894996,5.376993,-0.953271,-3.383196,2.586331,-1.089971,1.092077,0.999653,0.022657,-0.009294,0.009742
656,0.183202,0.463613,9.911628,3.968633,-0.703024,-3.438131,2.800008,-1.114676,0.976127,0.999616,0.024513,-0.009516,0.008753
657,0.170347,0.483725,9.893393,4.090722,-0.455797,-3.102429,2.948568,-1.106974,0.866072,0.999592,0.025799,-0.009462,0.007804
658,0.166889,0.507924,9.884838,3.356751,-0.103263,-2.569883,3.073438,-1.075259,0.771251,0.999572,0.026879,-0.009199,0.006979
659,0.193849,0.523064,9.896017,2.609039,0.089020,-2.057172,3.166980,-1.058550,0.694405,0.999556,0.027688,-0.009066,0.006312
660,0.191983,0.595651,9.896055,2.003285,0.262959,-1.559721,3.275594,-1.062139,0.633960,0.999532,0.028631,-0.009107,0.005795
661,0.176111,0.618665,9.901979,1.389959,0.488795,-1.256064,3.409941,-1.047635,0.586394,0.999501,0.029798,-0.008986,0.005387
662,0.156485,0.549156,9.935405,1.345716,0.803168,-1.159932,3.463327,-0.998145,0.547360,0.999493,0.030259,-0.008562,0.005037
663,0.141561,0.591205,9.897319,2.459593,0.940555,-0.984453,3.488491,-0.923407,0.514156,0.999493,0.030473,-0.007918,0.004730
664,0.125739,0.627084,9.912373,1.495223,1.106944,-0.833390,3.566366,-0.837043,0.485893,0.999479,0.031147,-0.007169,0.004465
665,0.114530,0.575869,9.925543,1.028270,1.227555,-0.763202,3.593491,-0.746529,0.462008,0.999478,0.031379,-0.006385,0.004234
666,0.107159,0.550963,9.912091,1.496620,1.215398,-0.795248,3.548148,-0.663598,0.439785,0.999496,0.030980,-0.005669,0.004015
667,0.110193,0.614170,9.871511,1.067768,1.035364,-0.862388,3.537838,-0.604004,0.415202,0.999502,0.030887,-0.005157,0.003784
