seq,ax,ay,az,wroll,wpitch,wyaw,roll,pitch,yaw
3914,0.012187,-7.169659,6.678892,-1.344684,0.446668,0.178103,-47.029610,-0.071262,0.031007
3915,0.016672,-7.133729,6.686125,-0.852515,0.370366,0.109431,-47.066219,-0.058476,0.024306
3916,0.005805,-7.111881,6.691102,-0.856165,0.357650,0.111973,-47.094688,-0.047511,0.017933
3917,0.013689,-7.104817,6.688116,-0.735770,0.225401,0.088446,-47.121223,-0.038450,0.013088
3918,0.016197,-7.100881,6.682670,-0.596281,0.165870,0.065154,-47.143414,-0.032137,0.010049
3919,0.017471,-7.092337,6.685807,-0.335069,0.095648,0.034604,-47.158936,-0.027954,0.007985
3921,0.017653,-7.092596,6.681593,-0.214219,-0.163792,0.029991,-47.168091,-0.027937,0.009549
3922,0.031695,-7.106098,6.676937,0.104977,-0.531593,0.008570,-47.169918,-0.035345,0.018486
3923,0.041037,-7.103662,6.683609,0.265469,-0.635438,0.006955,-47.163746,-0.048379,0.032925
3924,0.045507,-7.096655,6.691146,0.213889,-0.548556,0.016006,-47.155773,-0.061516,0.047655
3925,0.047974,-7.081384,6.687903,0.173021,-0.492197,0.023529,-47.149342,-0.072829,0.060820
3926,0.050251,-7.081742,6.696864,0.116918,-0.213052,0.026472,-47.144524,-0.080212,0.070004
3928,0.046534,-7.078515,6.702212,-0.009357,0.160705,0.026370,-47.142723,-0.080160,0.071243
3929,0.038906,-7.077640,6.698215,-0.161568,0.372732,0.043071,-47.145573,-0.073265,0.065512
3930,0.036032,-7.086078,6.697941,-0.170358,0.383348,0.061312,-47.151096,-0.063419,0.057457
3931,0.044270,-7.102553,6.699814,-0.150183,0.387851,0.068860,-47.156433,-0.053088,0.049509
3932,0.045853,-7.097852,6.701881,-0.039986,0.375550,0.056551,-47.159584,-0.042904,0.041601
3933,0.047103,-7.096583,6.696960,-0.093055,0.389182,0.076278,-47.161797,-0.032614,0.033760
3935,0.046560,-7.092803,6.706222,0.139237,0.376867,0.050222,-47.161022,-0.022387,0.025832
3936,0.045554,-7.089331,6.706075,0.331880,0.364549,0.016532,-47.153175,-0.013168,0.017528
3937,0.036804,-7.083195,6.708313,0.408565,0.347663,-0.001889,-47.140820,-0.004916,0.008992
3938,0.039063,-7.077827,6.704245,0.302145,0.358248,0.010215,-47.128986,0.003189,0.000463
3939,0.035260,-7.070513,6.711631,0.291872,0.355097,-0.002100,-47.119091,0.011378,-0.008157
3940,0.036113,-7.080564,6.703715,0.057277,0.370258,0.014580,-47.113255,0.019757,-0.016874
3942,0.038057,-7.073485,6.711809,-0.036944,0.374730,0.028199,-47.112926,0.028729,-0.025487
3943,0.045088,-7.066221,6.716019,-0.146387,0.389867,0.043327,-47.115993,0.038275,-0.034013
3944,0.041585,-7.080726,6.715384,-0.280250,0.400418,0.053869,-47.123108,0.048425,-0.042562
3945,0.045274,-7.082783,6.710876,-0.374464,0.403334,0.049145,-47.134029,0.058797,-0.051212
3946,0.049848,-7.075597,6.710823,-0.363385,0.403182,0.047457,-47.146328,0.069120,-0.059970
3947,0.050255,-7.081105,6.704455,-0.428599,0.421331,0.056437,-47.159550,0.079735,-0.068867
3949,0.047558,-7.086447,6.697066,-0.699839,0.828588,0.086779,-47.178368,0.095648,-0.082522
3950,0.044376,-7.078038,6.693254,-0.726933,1.156500,0.085079,-47.202198,0.120232,-0.104847
3951,0.024973,-7.086793,6.692318,-0.572435,1.394403,0.086452,-47.223915,0.151210,-0.134106
3952,0.014404,-7.102820,6.692765,-0.428637,1.401917,0.071070,-47.240696,0.184784,-0.166536
3953,0.011245,-7.108235,6.692719,-0.327579,1.368236,0.055693,-47.253418,0.217678,-0.199003
3954,0.000685,-7.110393,6.695666,0.072563,0.951551,0.006749,-47.257778,0.244684,-0.226691
3956,-0.003068,-7.110098,6.698007,0.162952,0.618797,0.002062,-47.253933,0.262556,-0.245812
3957,0.012019,-7.099806,6.697415,0.071774,0.369943,0.015659,-47.250076,0.273959,-0.257712
3958,0.014395,-7.098017,6.697093,-0.153673,0.372837,0.047536,-47.251472,0.283136,-0.266088
3959,0.012413,-7.098892,6.694046,-0.324192,0.403192,0.067199,-47.259483,0.293318,-0.274289
3960,0.015801,-7.085779,6.695645,-0.363463,0.424386,0.076175,-47.270992,0.304433,-0.282799
3961,0.015049,-7.084390,6.696592,-0.309623,0.437942,0.086667,-47.282261,0.316178,-0.291516
3963,0.017318,-7.090644,6.694960,-0.303087,0.459119,0.086470,-47.292526,0.328440,-0.300544
3964,0.014938,-7.076939,6.697056,-0.211081,0.460454,0.074060,-47.301151,0.340800,-0.309993
3965,0.016703,-7.070357,6.701291,-0.184647,0.458733,0.087586,-47.307793,0.353169,-0.319425
3966,0.020269,-7.098776,6.689367,-0.391716,0.460051,0.111779,-47.317459,0.365994,-0.328429
3967,0.024189,-7.095333,6.688467,-0.241764,0.424731,0.082549,-47.328075,0.378371,-0.337075
3968,0.020280,-7.091672,6.689954,0.053168,0.368043,0.044156,-47.331276,0.388879,-0.345359
3970,0.021990,-7.104952,6.683989,0.085626,0.360182,0.045434,-47.329002,0.398203,-0.353271
3971,0.022231,-7.108013,6.678456,0.160772,0.353839,0.036024,-47.324959,0.407268,-0.361100
3972,0.020706,-7.102159,6.687213,0.287806,0.341391,0.014404,-47.317543,0.415740,-0.369049
3973,0.019731,-7.115696,6.684936,0.121857,0.354883,0.033983,-47.310764,0.424201,-0.377033
3974,0.020694,-7.108570,6.686022,-0.141766,0.392786,0.068817,-47.311161,0.433909,-0.385031
3975,0.018697,-7.098683,6.690182,-0.199361,0.389486,0.079234,-47.316910,0.444562,-0.392942
3977,0.019670,-7.100868,6.691410,-0.211159,0.386182,0.068284,-47.323818,0.455133,-0.400780
3978,0.019821,-7.094002,6.690795,-0.178692,0.384398,0.072586,-47.330376,0.465565,-0.408631
3979,0.019622,-7.089343,6.691745,-0.187406,0.390239,0.063151,-47.336548,0.475978,-0.416592
3980,0.020179,-7.099949,6.688404,-0.286156,0.396074,0.064392,-47.344509,0.486422,-0.424789
3981,0.022439,-7.108571,6.681233,-0.281179,0.417161,0.050363,-47.354038,0.497012,-0.433462
3982,0.018449,-7.109322,6.684416,-0.231964,0.427564,0.053117,-47.362671,0.507818,-0.442651
3984,0.020651,-7.110690,6.682652,-0.269720,0.404393,0.061972,-47.371101,0.518620,-0.451553
3985,0.021844,-7.111936,6.684363,-0.122838,0.381214,0.043350,-47.377728,0.528779,-0.459999
3986,0.010037,-7.099008,6.684120,0.098838,0.332102,0.015584,-47.378204,0.537552,-0.468082
3987,0.008162,-7.098079,6.688663,0.244244,-0.066431,0.024454,-47.372509,0.541042,-0.470888
3988,0.012900,-7.098369,6.684412,0.287413,-0.295595,0.016533,-47.363605,0.537458,-0.465986
3989,0.015060,-7.086535,6.689487,0.330594,-0.309611,0.004023,-47.353226,0.530877,-0.458334
3991,0.018954,-7.079497,6.686770,0.152539,-0.497590,0.057123,-47.345081,0.522512,-0.447748
3992,0.033670,-7.090939,6.691762,-0.068252,-0.554360,0.104096,-47.343548,0.512608,-0.433033
3993,0.042544,-7.089271,6.689871,-0.194448,-0.218995,0.097632,-47.347820,0.506348,-0.421274
3994,0.041426,-7.087308,6.690691,-0.227558,-0.011814,0.088108,-47.354809,0.506018,-0.416347
3995,0.037883,-7.097632,6.688720,-0.123344,0.025998,0.084696,-47.360641,0.508297,-0.414570
3996,0.041812,-7.090665,6.692151,0.041910,0.227082,0.044661,-47.362019,0.512740,-0.416213
3998,0.045593,-7.091321,6.688244,0.063737,0.322866,0.027502,-47.360310,0.519834,-0.422141
3999,0.042206,-7.090560,6.689627,0.018418,0.353032,0.034756,-47.359013,0.528228,-0.429725
4000,0.044212,-7.095767,6.688590,-0.013172,0.358781,0.043533,-47.358990,0.537224,-0.437568
4001,0.049481,-7.093817,6.686994,-0.049350,0.366043,0.041612,-47.360104,0.546451,-0.445494
4002,0.050018,-7.105915,6.686549,-0.126743,0.365664,0.042734,-47.363117,0.555746,-0.453514
4003,0.046435,-7.101075,6.689245,-0.017979,0.369861,0.030119,-47.365612,0.564943,-0.461710
4005,0.044267,-7.100417,6.689324,0.121317,0.377115,0.008354,-47.363979,0.573847,-0.470435
4006,0.041208,-7.091484,6.693347,0.172129,0.373689,-0.011883,-47.359180,0.582280,-0.479681
4007,0.035593,-7.089403,6.689866,0.114612,0.361116,-0.009222,-47.354500,0.590317,-0.488928
4008,0.032061,-7.077824,6.690740,0.110515,0.362283,-0.014182,-47.350842,0.598199,-0.498061
4009,0.029338,-7.074249,6.693214,0.158323,0.351248,-0.025240,-47.346458,0.605773,-0.507253
4010,0.029744,-7.072008,6.696229,0.132898,0.353945,-0.025616,-47.341702,0.613114,-0.516472
4012,0.032765,-7.078496,6.692442,0.141034,0.356635,-0.022950,-47.337223,0.620544,-0.525730
4013,0.038961,-7.077837,6.703038,0.178162,0.353205,-0.030981,-47.332005,0.627900,-0.535039
4014,0.039597,-7.083221,6.697277,0.177138,0.357393,-0.034448,-47.326191,0.635126,-0.544486
4015,0.044404,-7.082674,6.695916,0.173042,0.361570,-0.021142,-47.320457,0.642567,-0.553925
4016,0.050341,-7.079298,6.696498,0.138428,0.348944,-0.007855,-47.315372,0.650240,-0.562958
4017,0.056759,-7.078109,6.699264,0.047362,0.348505,0.009990,-47.312374,0.658147,-0.571479
4019,0.055551,-7.080499,6.693824,0.073784,0.351108,0.007985,-47.310448,0.666273,-0.579848
4020,0.051553,-7.079799,6.704596,0.152092,0.333878,0.016665,-47.306782,0.674316,-0.587961
4021,0.053214,-7.079759,6.705832,0.164801,0.336483,0.005509,-47.301594,0.682164,-0.595922
4022,0.049837,-7.079465,6.706975,0.267541,0.336036,-0.030064,-47.294491,0.689465,-0.604438
4023,0.043524,-7.077810,6.710954,0.377915,0.321863,-0.051893,-47.283833,0.695899,-0.613421
4024,0.041459,-7.068298,6.711860,0.370809,0.316855,-0.061506,-47.271469,0.701733,-0.622525
4026,0.048728,-7.071436,6.709588,0.333184,0.307259,-0.057396,-47.259846,0.707336,-0.631511
4027,0.048263,-7.076422,6.713568,0.318432,0.290022,-0.054824,-47.249096,0.712719,-0.640091
4028,0.044929,-7.074123,6.718202,0.299103,0.288046,-0.033938,-47.238907,0.718173,-0.648170
4029,0.048302,-7.075109,6.718024,0.221789,0.289120,-0.028315,-47.230312,0.723943,-0.655937
4030,0.045617,-7.081668,6.719436,0.130727,0.284086,-0.008962,-47.224537,0.729975,-0.663373
4031,0.040415,-7.085732,6.718387,0.086951,0.295845,-0.009437,-47.221001,0.736314,-0.670676
4033,0.037714,-7.080318,6.717482,0.046224,0.299983,-0.008378,-47.218880,0.742841,-0.678167
4034,0.037592,-7.084078,6.712909,-0.035713,0.285811,-0.004265,-47.218807,0.749317,-0.685477
4035,0.036812,-7.086088,6.710730,-0.067311,0.282318,0.021208,-47.220612,0.755955,-0.692235
4036,0.037737,-7.087209,6.714244,-0.037873,0.272718,0.010055,-47.222446,0.762621,-0.698672
4037,0.037572,-7.078229,6.716993,-0.034358,0.273795,0.005002,-47.223740,0.768991,-0.705188
4038,0.039260,-7.079128,6.717146,-0.001832,0.277920,-0.001583,-47.224434,0.775277,-0.711899
4040,0.038342,-7.075638,6.719291,0.061219,0.283566,-0.002068,-47.223537,0.781588,-0.718810
4041,0.035107,-7.070554,6.722596,0.099875,0.283111,-0.022386,-47.220947,0.787704,-0.726020
4042,0.038818,-7.063949,6.724818,0.141605,0.293333,-0.025924,-47.217033,0.793638,-0.733619
4043,0.039639,-7.070457,6.724124,0.169603,0.295918,-0.035574,-47.211952,0.799557,-0.741523
4044,0.038585,-7.072454,6.724350,0.157911,0.287818,-0.033019,-47.206612,0.805327,-0.749440
4045,0.042199,-7.066325,6.725487,0.065348,0.287342,-0.019790,-47.202984,0.811193,-0.757073
4047,0.042393,-7.064795,6.727174,0.068931,0.282281,-0.017250,-47.200859,0.817191,-0.764459
4048,0.040959,-7.064478,6.726545,0.093878,0.274165,-0.016237,-47.198246,0.823082,-0.771644
4049,0.040559,-7.063772,6.728705,0.082205,0.255369,-0.003016,-47.195412,0.828844,-0.778338
4050,0.040015,-7.065251,6.734845,0.027815,0.259460,0.005625,-47.193668,0.834706,-0.784604
4051,0.045614,-7.077153,6.732201,0.035974,0.263541,-0.007106,-47.192699,0.840611,-0.791016
4052,0.042614,-7.073856,6.729126,-0.006244,0.264565,0.004570,-47.192299,0.846561,-0.797503
4054,0.045704,-7.077775,6.726419,-0.075938,0.259483,0.017769,-47.193760,0.852770,-0.803659
4055,0.046679,-7.074236,6.730286,-0.043394,0.265073,0.018751,-47.195839,0.859157,-0.809660
4056,0.051074,-7.082345,6.724237,-0.032220,0.263024,0.015146,-47.197193,0.865552,-0.815734
4057,0.042168,-7.072032,6.724896,-0.037835,0.257927,0.013070,-47.198452,0.871796,-0.821786
4058,0.047631,-7.083697,6.723213,-0.038875,0.261986,0.024728,-47.199818,0.878146,-0.827716
4059,0.049398,-7.082839,6.724569,0.011953,0.255352,0.015011,-47.200363,0.884491,-0.833594
4060,0.051809,-7.077138,6.717852,-0.018092,0.251761,0.011387,-47.200554,0.890556,-0.839497
4061,0.050514,-7.070758,6.718296,-0.067965,0.243587,0.018442,-47.202080,0.896530,-0.845217
4062,0.058644,-7.073890,6.714473,-0.069010,0.243032,0.031586,-47.204433,0.902652,-0.850603
4063,0.059129,-7.069316,6.717967,-0.045636,0.240936,0.023352,-47.206432,0.908804,-0.855900
4064,0.054587,-7.066519,6.714263,-0.061925,0.251051,0.019699,-47.208309,0.914901,-0.861430
4065,0.055774,-7.073255,6.713336,-0.003456,0.258115,0.008418,-47.209499,0.921009,-0.867340
4066,0.051646,-7.068915,6.712649,0.128254,0.254499,-0.027277,-47.207523,0.926583,-0.873824
4067,0.046580,-7.061537,6.716035,0.314916,0.249367,-0.056856,-47.200253,0.931259,-0.880940
4068,0.051742,-7.049766,6.720683,0.437524,0.242705,-0.078809,-47.187836,0.935173,-0.888494
4069,0.051255,-7.046359,6.726331,0.445717,0.239086,-0.071779,-47.173241,0.938790,-0.896091
4070,0.046883,-7.050518,6.726019,0.313521,0.232421,-0.049482,-47.160694,0.942651,-0.903228
4071,0.048467,-7.049516,6.731710,0.272876,0.233386,-0.028710,-47.151035,0.946975,-0.909808
4072,0.050835,-7.058994,6.734787,0.160506,0.231293,-0.004894,-47.143913,0.951831,-0.915867
4073,0.045364,-7.069695,6.733988,0.025217,0.232254,0.009769,-47.140911,0.957146,-0.921476
4074,0.047821,-7.073955,6.734042,0.010451,0.228639,0.006123,-47.140411,0.962565,-0.926928
4075,0.049183,-7.068460,6.733934,0.042990,0.231121,0.005521,-47.139610,0.967919,-0.932413
4076,0.044035,-7.076363,6.732894,-0.011454,0.235132,0.023233,-47.139175,0.973556,-0.937784
4077,0.043302,-7.077179,6.734690,-0.043021,0.237621,0.018061,-47.140175,0.979421,-0.943093
4078,0.042561,-7.081403,6.731914,-0.088330,0.235533,0.025096,-47.142456,0.985312,-0.948385
4079,0.037462,-7.079733,6.734831,-0.129062,0.244131,0.036714,-47.146168,0.991504,-0.953545
4080,0.041038,-7.089886,6.737931,-0.195735,0.243573,0.042227,-47.151672,0.997997,-0.958611
4081,0.051670,-7.085275,6.735945,-0.244102,0.241467,0.033985,-47.159092,1.004425,-0.963675
4082,0.050712,-7.082058,6.732666,-0.303141,0.246975,0.045562,-47.168297,1.010932,-0.968744
4083,0.053961,-7.080848,6.730553,-0.238577,0.254002,0.031192,-47.177422,1.017547,-0.973999
4084,0.054963,-7.078424,6.725022,-0.146547,0.248814,0.019863,-47.183937,1.023867,-0.979568
4085,0.053176,-7.064705,6.727490,-0.095693,0.251253,0.016164,-47.188080,1.029971,-0.985275
4086,0.048875,-7.065256,6.727052,-0.081438,0.255223,0.026203,-47.191135,1.036226,-0.990988
4087,0.045245,-7.065653,6.729879,0.003014,0.251571,0.019465,-47.192543,1.042524,-0.996669
4088,0.044389,-7.060169,6.734070,0.009663,0.254025,0.023413,-47.192432,1.048775,-1.002366
4089,0.048608,-7.067558,6.731270,-0.046251,0.259525,0.022775,-47.193150,1.055156,-1.008123
4090,0.048655,-7.070123,6.730554,-0.019784,0.254334,0.002290,-47.194363,1.061282,-1.014124
4091,0.050719,-7.068711,6.727213,0.015832,0.246086,-0.004467,-47.194542,1.066923,-1.020269
4092,0.054935,-7.073210,6.721756,-0.061487,0.257664,0.007075,-47.195419,1.072659,-1.026400
4093,0.053447,-7.068706,6.720755,-0.076251,0.263132,0.000298,-47.197830,1.078647,-1.032686
4094,0.054707,-7.066456,6.722701,-0.091003,0.259443,-0.000377,-47.200741,1.084564,-1.039078
4095,0.052248,-7.067919,6.720008,-0.087443,0.278641,0.014206,-47.203835,1.090826,-1.045503
4096,0.046984,-7.069757,6.721122,-0.077785,0.279535,0.002857,-47.206715,1.097355,-1.052138
4097,0.045749,-7.068491,6.722423,-0.054388,0.271279,-0.019167,-47.209053,1.103392,-1.059060
4098,0.041689,-7.067882,6.720660,-0.043194,0.252346,-0.021351,-47.210812,1.108825,-1.065925
4099,0.038287,-7.064802,6.720833,-0.007581,0.247154,-0.032681,-47.211784,1.113819,-1.072647
4100,0.042662,-7.070528,6.722371,0.037187,0.237380,-0.047067,-47.211426,1.118330,-1.079478
4101,0.047336,-7.064948,6.725336,0.124686,0.235221,-0.052313,-47.208862,1.122465,-1.086384
4102,0.047084,-7.057605,6.727364,0.152698,0.233054,-0.048413,-47.204369,1.126535,-1.093253
4103,0.052775,-7.060993,6.726752,0.136464,0.236982,-0.041469,-47.199688,1.130759,-1.100021
4104,0.055074,-7.065814,6.730058,0.159893,0.236320,-0.039116,-47.194881,1.135133,-1.106722
4105,0.054847,-7.058715,6.730520,0.184853,0.231076,-0.033718,-47.189270,1.139536,-1.113263
4106,0.054125,-7.058843,6.730869,0.145732,0.227356,-0.037474,-47.183887,1.143858,-1.119676
4107,0.055633,-7.058558,6.734150,0.179856,0.220580,-0.048865,-47.178593,1.147877,-1.126131
4108,0.053940,-7.053668,6.738809,0.204839,0.222959,-0.055679,-47.172298,1.151624,-1.132739
4109,0.054180,-7.050543,6.735672,0.152011,0.225338,-0.056388,-47.166489,1.155334,-1.139489
4110,0.052449,-7.057428,6.737825,0.140371,0.213983,-0.057097,-47.161755,1.158925,-1.146146
4111,0.053802,-7.058806,6.736768,0.116511,0.214835,-0.042547,-47.157600,1.162567,-1.152517
4112,0.051518,-7.071333,6.732778,0.028533,0.214161,-0.021896,-47.155304,1.166641,-1.158491
4113,0.053574,-7.078183,6.729817,0.010710,0.198227,-0.019557,-47.154766,1.170808,-1.164001
4114,0.050923,-7.085567,6.729665,-0.008665,0.191448,-0.009590,-47.154839,1.174869,-1.169095
4115,0.052786,-7.086952,6.726448,-0.050944,0.192297,-0.007254,-47.155930,1.179012,-1.173976
4116,0.053513,-7.082143,6.729584,-0.033708,0.182461,-0.024760,-47.157433,1.182868,-1.178919
4117,0.055206,-7.075818,6.730685,-0.008820,0.175670,-0.034643,-47.158253,1.186201,-1.183970
4118,0.049271,-7.072431,6.731655,0.011505,0.182617,-0.044520,-47.158321,1.189294,-1.189247
4119,0.049987,-7.060738,6.737185,0.106633,0.177360,-0.052865,-47.156467,1.192183,-1.194751
4120,0.046414,-7.060008,6.734829,0.099544,0.172106,-0.055103,-47.153145,1.194825,-1.200246
4121,0.041430,-7.061861,6.733055,0.080238,0.185173,-0.052753,-47.150265,1.197556,-1.205835
4122,0.046712,-7.067720,6.729910,0.121950,0.190610,-0.053457,-47.147018,1.200518,-1.211632
4123,0.048825,-7.071070,6.727907,0.160588,0.186880,-0.046543,-47.142433,1.203575,-1.217379
4124,0.051311,-7.066847,6.725894,0.151915,0.193824,-0.051845,-47.137337,1.206689,-1.223147
4125,0.054853,-7.065944,6.728848,0.164610,0.187025,-0.052579,-47.132187,1.209732,-1.228985
4126,0.056708,-7.069867,6.728771,0.180355,0.177166,-0.044167,-47.126556,1.212679,-1.234531
4127,0.052413,-7.065391,6.731334,0.189995,0.171886,-0.054063,-47.120502,1.215438,-1.239910
4128,0.054909,-7.058454,6.734377,0.163032,0.175763,-0.063959,-47.114738,1.217940,-1.245495
4129,0.050847,-7.065933,6.740948,0.111665,0.176588,-0.067749,-47.110268,1.220327,-1.251293
4130,0.048572,-7.058404,6.741734,0.090822,0.180472,-0.071532,-47.107025,1.222677,-1.257234
4131,0.044974,-7.051361,6.743340,0.091363,0.179784,-0.073779,-47.104122,1.224990,-1.263283
4133,0.043196,-7.036837,6.744361,0.076676,0.188259,-0.068392,-47.101452,1.227429,-1.269391
4134,0.041169,-7.045494,6.743741,-0.018879,0.186055,-0.047740,-47.100620,1.230258,-1.275280
4135,0.041165,-7.040985,6.739512,-0.070196,0.174697,-0.034717,-47.102215,1.233344,-1.280621
4136,0.042784,-7.042834,6.737015,-0.077267,0.177069,-0.027801,-47.104782,1.236571,-1.285627
4137,0.046939,-7.047534,6.736137,0.004154,0.180958,-0.049888,-47.106113,1.239684,-1.290881
4138,0.046739,-7.062643,6.739902,0.026043,0.172634,-0.056723,-47.105732,1.242394,-1.296409
4139,0.047364,-7.060564,6.736053,0.058596,0.170411,-0.060509,-47.104443,1.244854,-1.301929
4140,0.046420,-7.059202,6.733622,0.095721,0.168188,-0.049035,-47.101986,1.247358,-1.307307
4141,0.044980,-7.057435,6.740461,0.135908,0.172071,-0.048241,-47.098244,1.250030,-1.312566
4142,0.041748,-7.053045,6.744249,0.083035,0.171380,-0.035234,-47.094704,1.252908,-1.317707
4143,0.040619,-7.049574,6.744342,0.039331,0.172220,-0.028325,-47.092773,1.256031,-1.322624
4144,0.040401,-7.048489,6.750241,0.045995,0.170008,-0.036674,-47.091461,1.259121,-1.327541
4145,0.039981,-7.053204,6.759283,0.125918,0.175425,-0.057233,-47.088715,1.261894,-1.332825
4146,0.036019,-7.058074,6.756088,0.169213,0.173216,-0.074733,-47.083923,1.264240,-1.338579
4147,0.045108,-7.056852,6.756371,0.154512,0.166422,-0.075458,-47.078659,1.266262,-1.344430
4148,0.043301,-7.056535,6.756699,0.084876,0.174877,-0.070089,-47.074783,1.268359,-1.350249
4149,0.043848,-7.060025,6.755391,0.042700,0.172651,-0.057092,-47.072784,1.270752,-1.355935
4150,0.050581,-7.061703,6.747081,-0.014760,0.164311,-0.036475,-47.072437,1.273435,-1.361111
4151,0.054210,-7.051244,6.751342,-0.023383,0.160533,-0.032660,-47.073177,1.276278,-1.365861
4152,0.049196,-7.060078,6.750185,-0.100667,0.164386,-0.022741,-47.075344,1.279290,-1.370456
4153,0.055794,-7.059956,6.749702,-0.124557,0.156028,-0.021981,-47.079197,1.282381,-1.374876
4154,0.056651,-7.053532,6.750547,-0.206420,0.161391,-0.012078,-47.084812,1.285568,-1.379138
4155,0.055579,-7.054018,6.750529,-0.289797,0.159124,-0.025064,-47.093182,1.288752,-1.383473
4156,0.050050,-7.060416,6.749478,-0.335031,0.166021,-0.033466,-47.103699,1.291726,-1.388108
4157,0.049188,-7.047763,6.746904,-0.302435,0.166820,-0.040332,-47.114433,1.294600,-1.393010
4158,0.047639,-7.044677,6.743133,-0.237775,0.164569,-0.042620,-47.123550,1.297346,-1.398000
4159,0.045567,-7.043081,6.743936,-0.112068,0.168425,-0.067793,-47.129498,1.299773,-1.403320
4160,0.041907,-7.031962,6.745893,-0.016854,0.167710,-0.082276,-47.131783,1.301752,-1.409129
4161,0.036105,-7.005516,6.748261,-0.002455,0.154798,-0.067754,-47.132233,1.303576,-1.414771
4162,0.033916,-7.019877,6.747891,-0.041442,0.160205,-0.063903,-47.133087,1.305539,-1.420114
4163,0.030298,-7.022592,6.752170,0.064516,0.157991,-0.079881,-47.132828,1.307391,-1.425632
4164,0.033309,-7.030808,6.750917,0.155204,0.149672,-0.079074,-47.129295,1.308937,-1.431194
4165,0.037821,-7.037812,6.752461,0.168050,0.161182,-0.072176,-47.124031,1.310615,-1.436707
4166,0.051256,-7.058547,6.747086,0.162537,0.165037,-0.063779,-47.118649,1.312654,-1.442235
4167,0.052412,-7.099840,6.731893,0.335443,0.145985,-0.075241,-47.110474,1.314484,-1.447611
4168,0.053929,-7.083721,6.735741,0.695981,0.120827,-0.124859,-47.093407,1.315068,-1.453141
4169,0.052344,-7.084084,6.738003,0.775772,0.104821,-0.148535,-47.069000,1.314292,-1.458999
4170,0.050306,-7.083313,6.737241,0.768574,0.088822,-0.152368,-47.043404,1.312820,-1.464780
4171,0.048764,-7.082828,6.744081,0.799518,0.074354,-0.154670,-47.017384,1.310929,-1.470259
4172,0.053619,-7.048018,6.764580,0.716086,0.069035,-0.155449,-46.992252,1.308778,-1.475533
4173,0.049209,-7.060425,6.766697,0.318357,0.077449,-0.104344,-46.975124,1.307278,-1.480273
4174,0.051739,-7.045470,6.767795,0.189186,0.078237,-0.080702,-46.966755,1.306794,-1.484275
4175,0.052861,-7.047667,6.766976,0.116484,0.068338,-0.064696,-46.961742,1.306690,-1.487716
4176,0.047718,-7.040775,6.767711,0.057517,0.075231,-0.074623,-46.958920,1.306626,-1.491050
4177,0.043422,-7.029710,6.763752,0.039767,0.079083,-0.063174,-46.957378,1.306703,-1.494498
4178,0.049852,-7.029974,6.758567,-0.014606,0.084458,-0.056305,-46.957039,1.307108,-1.497851
4179,0.045751,-7.036280,6.766702,0.007313,0.085252,-0.064700,-46.957237,1.307564,-1.501295
4180,0.045223,-7.031296,6.765114,0.056706,0.086053,-0.070035,-46.956257,1.307872,-1.504915
4181,0.054041,-7.040816,6.761439,0.046573,0.082265,-0.063176,-46.954613,1.308164,-1.508482
4182,0.054339,-7.039624,6.764575,0.089836,0.079990,-0.063960,-46.952419,1.308462,-1.511905
4183,0.055072,-7.047074,6.762556,0.114779,0.086869,-0.069324,-46.949089,1.308737,-1.515455
4184,0.055016,-7.047107,6.758096,0.110708,0.093749,-0.064006,-46.945415,1.309168,-1.519173
4185,0.054907,-7.054973,6.765222,0.105103,0.097576,-0.077000,-46.941914,1.309628,-1.523108
4186,0.052609,-7.066107,6.760746,0.078109,0.095303,-0.082362,-46.938953,1.309882,-1.527272
4187,0.052645,-7.069244,6.761356,0.057193,0.100662,-0.092299,-46.936787,1.309985,-1.531646
4188,0.053878,-7.062938,6.761123,0.117154,0.080079,-0.099185,-46.933987,1.309711,-1.536027
4189,0.052257,-7.064731,6.758808,0.097768,0.065601,-0.101493,-46.930500,1.308925,-1.540086
4190,0.050177,-7.060241,6.757314,0.147045,0.069439,-0.094640,-46.926510,1.308075,-1.543964
4191,0.048697,-7.049555,6.758107,0.190234,0.067178,-0.113723,-46.920979,1.307093,-1.548000
4192,0.047360,-7.038471,6.765289,0.183106,0.066446,-0.116014,-46.914852,1.305818,-1.552243
4193,0.050699,-7.066031,6.760108,0.154592,0.073342,-0.104575,-46.909317,1.304724,-1.556457
4194,0.053715,-7.062748,6.755455,0.161122,0.069549,-0.108405,-46.904156,1.303759,-1.560622
4195,0.051153,-7.063582,6.759509,0.149342,0.068808,-0.127495,-46.899078,1.302464,-1.564993
4196,0.047185,-7.069605,6.757883,0.189432,0.071129,-0.114529,-46.893536,1.301112,-1.569454
4197,0.049132,-7.074845,6.752506,0.173036,0.061245,-0.096982,-46.887589,1.300046,-1.573475
4198,0.040235,-7.039271,6.769862,0.185686,0.060526,-0.111469,-46.881691,1.298898,-1.577332
4199,0.043947,-7.042089,6.772948,0.141945,0.061339,-0.096954,-46.876316,1.297750,-1.581189
4200,0.044261,-7.036165,6.770289,0.035643,0.046887,-0.056504,-46.873428,1.297117,-1.584255
4201,0.047131,-7.031540,6.774670,0.013282,0.033958,-0.060309,-46.872665,1.296617,-1.586570
4202,0.051780,-7.033234,6.769696,-0.010605,0.033226,-0.061073,-46.872662,1.295905,-1.588770
4203,0.053906,-7.037168,6.767333,-0.014672,0.029434,-0.055743,-46.873135,1.295198,-1.590864
4204,0.057912,-7.041047,6.767655,0.016345,0.025634,-0.070258,-46.873161,1.294294,-1.592970
4205,0.061950,-7.052514,6.764862,0.088535,0.032506,-0.089363,-46.871468,1.293014,-1.595497
4206,0.065025,-7.047637,6.771415,0.099686,0.046998,-0.084063,-46.868397,1.291811,-1.598441
4207,0.061277,-7.052490,6.770032,0.091005,0.050811,-0.092493,-46.865292,1.290778,-1.601643
4208,0.060883,-7.049822,6.769778,0.056376,0.062258,-0.100918,-46.862919,1.289714,-1.605223
4209,0.053919,-7.044224,6.773496,0.043124,0.072191,-0.095599,-46.861343,1.288856,-1.609099
4210,0.053407,-7.038670,6.770220,0.077190,0.072978,-0.108578,-46.859432,1.288028,-1.613192
4211,0.054487,-7.039805,6.771327,0.050222,0.072238,-0.110877,-46.857407,1.287014,-1.617460
4212,0.053303,-7.035730,6.774671,0.081248,0.073025,-0.117752,-46.855312,1.285889,-1.621834
4213,0.054755,-7.048543,6.769543,0.032908,0.073812,-0.101740,-46.853504,1.284893,-1.626122
4214,0.056712,-7.050375,6.768619,0.045577,0.077647,-0.123880,-46.852299,1.283876,-1.630537
4215,0.057363,-7.057785,6.772383,0.024665,0.070797,-0.117030,-46.851231,1.282639,-1.635089
4216,0.055486,-7.062409,6.765610,0.011362,0.059374,-0.110178,-46.850723,1.281360,-1.639263
4217,0.060661,-7.066136,6.767881,-0.081306,0.060154,-0.098754,-46.851974,1.280182,-1.643098
4218,0.061362,-7.062300,6.765355,-0.053428,0.047193,-0.096492,-46.854301,1.279031,-1.646630
4219,0.058013,-7.058030,6.769021,-0.019431,0.051021,-0.088123,-46.855587,1.277905,-1.649929
4220,0.057779,-7.048501,6.767549,-0.040345,0.056380,-0.079748,-46.856651,1.277088,-1.653149
4221,0.060393,-7.049017,6.769767,-0.073452,0.049528,-0.086633,-46.858624,1.276272,-1.656334
4222,0.054599,-7.037719,6.769757,0.023163,0.047259,-0.096567,-46.859531,1.275147,-1.659600
4223,0.055178,-7.035271,6.768798,0.038922,0.043471,-0.101915,-46.858570,1.273767,-1.662966
4224,0.058554,-7.037474,6.761031,0.033306,0.036626,-0.096585,-46.857430,1.272266,-1.666203
4225,0.056548,-7.036542,6.766416,0.030736,0.045040,-0.114147,-46.856445,1.270634,-1.669599
4226,0.056994,-7.039120,6.762814,0.032745,0.062612,-0.104238,-46.855469,1.269205,-1.673398
4227,0.055819,-7.049616,6.763177,0.056092,0.063401,-0.111113,-46.854076,1.268023,-1.677386
4228,0.054066,-7.046953,6.765791,0.076381,0.068773,-0.119509,-46.851963,1.266725,-1.681623
4229,0.053683,-7.052210,6.764229,0.052415,0.068044,-0.120272,-46.849915,1.265369,-1.686020
4230,0.053649,-7.043118,6.766016,0.081859,0.059686,-0.119510,-46.847771,1.263909,-1.690308
4231,0.053419,-7.041972,6.764202,0.074695,0.060485,-0.130951,-46.845257,1.262234,-1.694625
4232,0.054977,-7.032405,6.763124,0.044650,0.049074,-0.128661,-46.843365,1.260326,-1.698918
4233,0.057101,-7.032926,6.766056,0.032930,0.045289,-0.137056,-46.842148,1.258171,-1.703095
4234,0.057811,-7.036028,6.769812,0.024266,0.041503,-0.136299,-46.841293,1.255838,-1.707268
4236,0.059191,-7.043375,6.764310,-0.011883,0.040765,-0.137070,-46.841179,1.253452,-1.711385
4237,0.059470,-7.041480,6.768167,0.009943,0.040027,-0.150051,-46.841305,1.250882,-1.715642
4238,0.061037,-7.047062,6.764592,0.065335,0.046917,-0.140142,-46.840145,1.248345,-1.720008
4239,0.060104,-7.050274,6.757472,0.076449,0.055334,-0.142442,-46.837879,1.246076,-1.724474
4240,0.057135,-7.037395,6.759559,0.113507,0.048498,-0.153892,-46.834812,1.243657,-1.729116
4241,0.055069,-7.035109,6.759275,0.167372,0.047773,-0.156175,-46.830235,1.240986,-1.733823
4242,0.047630,-7.030793,6.763952,0.161739,0.048587,-0.143186,-46.824848,1.238446,-1.738409
4243,0.048266,-7.030045,6.769144,0.116450,0.047886,-0.156125,-46.820312,1.235908,-1.742996
4244,0.047581,-7.027819,6.772983,0.077276,0.039555,-0.132442,-46.817177,1.233399,-1.747351
4245,0.047078,-7.026892,6.773695,0.051845,0.038858,-0.119435,-46.815109,1.231232,-1.751178
4246,0.046513,-7.038191,6.774071,0.043185,0.036636,-0.114056,-46.813602,1.229256,-1.754759
4247,0.049581,-7.050887,6.764755,0.013115,0.017629,-0.108682,-46.812737,1.227168,-1.757960
4248,0.048561,-7.044981,6.763156,0.013539,0.015405,-0.100257,-46.812340,1.225006,-1.760745
4249,0.051211,-7.038637,6.764396,0.061282,0.022335,-0.111670,-46.811161,1.222861,-1.763622
4250,0.053320,-7.046899,6.759150,0.040348,0.021630,-0.100201,-46.809532,1.220788,-1.766573
4251,0.061435,-7.039794,6.754581,-0.023326,0.025490,-0.100952,-46.809307,1.218881,-1.769441
4252,0.064317,-7.028873,6.760273,0.033573,0.032388,-0.109347,-46.809193,1.216986,-1.772544
4253,0.064154,-7.043190,6.760664,0.021809,0.027076,-0.119272,-46.808342,1.214886,-1.775875
4254,0.060852,-7.047556,6.761216,0.035960,0.027874,-0.135294,-46.807457,1.212420,-1.779447
4255,0.059133,-7.047452,6.763956,0.077578,0.040886,-0.154359,-46.805649,1.209685,-1.783588
4256,0.047431,-7.056479,6.769789,0.106986,0.035606,-0.155094,-46.802670,1.206797,-1.788049
4257,0.041633,-7.052290,6.768711,0.145549,0.036456,-0.160380,-46.798553,1.203786,-1.792525
4258,0.040570,-7.037288,6.769622,0.159721,0.046471,-0.153446,-46.793564,1.200920,-1.797114
4259,0.037131,-7.044482,6.765599,0.088443,0.041234,-0.135824,-46.789524,1.198407,-1.801481
4260,0.035371,-7.038118,6.765071,0.072090,0.034478,-0.139556,-46.786934,1.195926,-1.805544
4261,0.041996,-7.031538,6.756138,0.066418,0.042978,-0.140242,-46.784710,1.193411,-1.809679
4262,0.044761,-7.038484,6.754034,0.053100,0.045361,-0.139414,-46.782806,1.191023,-1.813944
4263,0.044946,-7.040825,6.751753,0.096221,0.044690,-0.159952,-46.780415,1.188414,-1.818456
4264,0.052358,-7.037670,6.750072,0.174432,0.048589,-0.169820,-46.776005,1.185474,-1.823354
4265,0.055735,-7.043164,6.754123,0.177871,0.046371,-0.164441,-46.770226,1.182498,-1.828323
4266,0.051790,-7.029079,6.764746,0.199650,0.041103,-0.162111,-46.764042,1.179532,-1.833115
4267,0.046827,-7.022561,6.761629,0.134486,0.040424,-0.139930,-46.758560,1.176795,-1.837554
4268,0.044940,-7.027581,6.764498,0.060163,0.036705,-0.119264,-46.755394,1.174529,-1.841451
4269,0.042623,-7.021304,6.769504,-0.003466,0.026888,-0.103168,-46.754520,1.172555,-1.844763
4270,0.037746,-7.021821,6.758811,-0.059470,0.024711,-0.087061,-46.755627,1.170835,-1.847563
4271,0.041720,-7.030831,6.758060,-0.034627,0.027115,-0.092316,-46.757252,1.169248,-1.850241
4272,0.047781,-7.037454,6.759871,0.022242,0.021876,-0.111316,-46.757523,1.167336,-1.853161
4273,0.045447,-7.036489,6.754404,0.018060,0.027316,-0.113537,-46.756912,1.165167,-1.856326
4274,0.044075,-7.038222,6.759926,0.056604,0.040391,-0.134062,-46.755741,1.162934,-1.859976
4275,0.049723,-7.041705,6.762447,0.081418,0.042779,-0.146963,-46.753525,1.160472,-1.864196
4276,0.046778,-7.043867,6.760952,-0.002116,0.040588,-0.136978,-46.752289,1.157977,-1.868451
4277,0.050051,-7.032146,6.763637,0.002867,0.046027,-0.139199,-46.752357,1.155614,-1.872657
4278,0.056638,-7.042943,6.766432,-0.010452,0.042297,-0.129225,-46.752571,1.153363,-1.876796
4279,0.055313,-7.042733,6.766648,-0.039040,0.046192,-0.123837,-46.753475,1.151302,-1.880760
4280,0.056256,-7.039703,6.764730,-0.069153,0.050087,-0.124550,-46.755356,1.149386,-1.884766
4281,0.058687,-7.053201,6.758899,-0.067244,0.053980,-0.134422,-46.757717,1.147430,-1.888988
4282,0.053230,-7.061769,6.763399,-0.019590,0.051775,-0.145815,-46.759251,1.145235,-1.893472
4283,0.053798,-7.056195,6.760022,0.011280,0.046525,-0.146519,-46.759480,1.142808,-1.898005
4284,0.054569,-7.060428,6.752091,0.013143,0.038224,-0.131965,-46.759155,1.140394,-1.902214
4285,0.051815,-7.052270,6.760700,0.080628,0.043658,-0.134192,-46.757675,1.138098,-1.906248
4286,0.053953,-7.049562,6.759408,0.143559,0.046043,-0.136417,-46.754025,1.135837,-1.910428
4287,0.049246,-7.046399,6.758471,0.157663,0.048432,-0.132533,-46.749084,1.133650,-1.914647
4288,0.050550,-7.020700,6.767838,0.205386,0.052352,-0.163739,-46.743122,1.131205,-1.919255
4289,0.049604,-7.020146,6.766374,0.228737,0.050167,-0.172055,-46.735989,1.128300,-1.924335
4290,0.051156,-7.024042,6.770750,0.180365,0.041881,-0.160534,-46.729267,1.125316,-1.929253
4291,0.049336,-7.018458,6.775163,0.135056,0.018335,-0.153588,-46.724098,1.122192,-1.933573
4292,0.055167,-7.019889,6.771175,0.056176,0.016149,-0.145121,-46.720982,1.118961,-1.937405
4293,0.053828,-7.039617,6.766856,0.039817,0.018537,-0.121399,-46.719452,1.116123,-1.940872
4294,0.050436,-7.043422,6.764633,0.027994,0.023984,-0.131240,-46.718384,1.113544,-1.944275
4295,0.047892,-7.052476,6.758581,0.083281,0.026389,-0.141072,-46.716602,1.110815,-1.947998
4296,0.048979,-7.047199,6.761240,0.127877,0.036428,-0.140218,-46.713161,1.108121,-1.951976
4297,0.050212,-7.049388,6.761026,0.109914,0.032731,-0.124109,-46.709263,1.105704,-1.955836
4298,0.047449,-7.050246,6.762304,0.099577,0.033616,-0.140039,-46.705849,1.103258,-1.959660
4299,0.049640,-7.041087,6.767746,0.136561,0.023820,-0.131553,-46.701984,1.100620,-1.963462
4300,0.049454,-7.043776,6.766665,0.086581,0.012497,-0.129172,-46.698334,1.097872,-1.966883
4301,0.049120,-7.045760,6.766783,0.059479,0.007279,-0.135944,-46.695965,1.094883,-1.970154
4302,0.048505,-7.041603,6.763751,0.084255,0.006642,-0.162550,-46.693634,1.091422,-1.973736
4303,0.047405,-7.042483,6.757586,0.044932,0.010586,-0.144901,-46.691555,1.087890,-1.977460
4304,0.050754,-7.048833,6.755973,0.019320,0.017581,-0.144039,-46.690552,1.084708,-1.981106
4305,0.053819,-7.039327,6.758659,0.041017,0.030673,-0.141659,-46.689613,1.081794,-1.984957
4306,0.049221,-7.042688,6.756535,0.024574,0.049872,-0.137750,-46.688602,1.079327,-1.989130
4307,0.050072,-7.045452,6.758484,0.047796,0.050765,-0.138411,-46.687485,1.077128,-1.993508
4308,0.052311,-7.044813,6.760572,0.083227,0.050130,-0.149756,-46.685383,1.074787,-1.998027
4309,0.053240,-7.041775,6.759618,0.112561,0.035759,-0.176365,-46.682209,1.071815,-2.002798
4310,0.053016,-7.048497,6.748180,0.109826,0.039699,-0.202974,-46.678600,1.068078,-2.008052
4311,0.055864,-7.045886,6.747623,0.055184,0.037533,-0.202118,-46.675957,1.064049,-2.013622
4312,0.055505,-7.045777,6.747496,0.020380,0.041470,-0.204316,-46.674801,1.060025,-2.019228
4313,0.056641,-7.041563,6.747748,0.051196,0.022519,-0.212616,-46.673710,1.055701,-2.024773
4314,0.053537,-7.039949,6.753715,0.022515,0.037142,-0.190392,-46.672585,1.051498,-2.030106
4315,0.050125,-7.034146,6.760388,0.047270,0.022783,-0.172736,-46.671513,1.047780,-2.034986
4316,0.049760,-7.029236,6.764348,0.145299,0.014534,-0.182538,-46.668373,1.043900,-2.039502
4317,0.046680,-7.018443,6.768004,0.185372,0.012395,-0.166393,-46.662937,1.039978,-2.043820
4318,0.043994,-7.030147,6.766174,0.129311,0.017895,-0.154814,-46.657768,1.036431,-2.047862
4319,0.041999,-7.036855,6.761332,0.111360,0.009670,-0.153909,-46.653828,1.033004,-2.051729
4320,0.042195,-7.035789,6.763382,0.078136,0.015183,-0.149949,-46.650738,1.029606,-2.055507
4321,0.041071,-7.044576,6.758319,0.029634,0.019173,-0.141408,-46.648998,1.026468,-2.059257
4322,0.042316,-7.052032,6.754020,-0.012800,0.023164,-0.148125,-46.648788,1.023443,-2.063083
4323,0.041687,-7.046945,6.750984,0.002736,0.022578,-0.147212,-46.649033,1.020387,-2.067017
4324,0.044522,-7.050860,6.749357,0.016743,0.017414,-0.153931,-46.648781,1.017195,-2.070948
4325,0.041289,-7.048265,6.746521,0.050577,0.012251,-0.166751,-46.647728,1.013648,-2.074977
4326,0.045285,-7.045954,6.749842,0.061530,0.005563,-0.176518,-46.645931,1.009692,-2.079122
4327,0.043879,-7.053453,6.746579,0.025171,0.000399,-0.181710,-46.644562,1.005419,-2.083293
4328,0.045005,-7.055421,6.745158,0.019310,0.008971,-0.194529,-46.643894,1.000967,-2.087712
4329,0.046042,-7.053300,6.746016,0.080589,0.019068,-0.199719,-46.642303,0.996510,-2.092563
4330,0.049653,-7.059887,6.743083,0.099132,0.020005,-0.203389,-46.639408,0.992072,-2.097651
4331,0.045471,-7.051823,6.742507,0.168026,0.023997,-0.216212,-46.635044,0.987492,-2.102986
4333,0.043917,-7.054744,6.745136,0.282705,0.009688,-0.235126,-46.627625,0.982409,-2.108561
4334,0.040769,-7.043108,6.752767,0.376043,-0.006140,-0.240299,-46.616741,0.976690,-2.114047
4335,0.038746,-7.040435,6.757545,0.307665,-0.025009,-0.231728,-46.605434,0.970617,-2.119075
4336,0.035447,-7.031160,6.761200,0.251514,-0.022507,-0.220094,-46.596191,0.964601,-2.123674
4337,0.032953,-7.035671,6.755501,0.181628,-0.029149,-0.202345,-46.589035,0.958894,-2.127887
4338,0.035349,-7.029208,6.757699,0.130043,-0.025107,-0.175438,-46.583908,0.953699,-2.131558
4339,0.036469,-7.035971,6.753035,0.038778,-0.025645,-0.160741,-46.581146,0.949048,-2.134795
4340,0.037469,-7.029788,6.752437,0.057368,-0.012451,-0.171985,-46.579601,0.944584,-2.138145
4341,0.043103,-7.037254,6.751350,0.068322,-0.008419,-0.169502,-46.577564,0.940211,-2.141805
4342,0.046855,-7.040784,6.752390,0.126565,-0.012026,-0.179240,-46.574375,0.935755,-2.145554
4343,0.044477,-7.041186,6.751384,0.187852,-0.008004,-0.192028,-46.569199,0.931032,-2.149566
4344,0.043409,-7.038146,6.756058,0.296449,-0.002450,-0.204809,-46.561207,0.926110,-2.153987
