seq,ax,ay,az,wroll,wpitch,wyaw,roll,pitch,yaw,q0,q1,q2,q3
2874,0.047173,-0.089431,9.914555,0.009777,-0.131702,-0.076029,-0.516804,-0.272596,0.002459,0.999987,-0.004510,-0.002379,0.000011
2876,0.031015,-0.139438,9.917021,-2.037045,0.581765,-0.070366,-0.550580,-0.265118,-0.000051,0.999986,-0.004805,-0.002314,-0.000012
2877,0.030694,-0.126632,9.918430,-1.267221,0.538172,-0.064955,-0.605640,-0.246477,-0.002494,0.999984,-0.005285,-0.002151,-0.000033
2878,0.035469,-0.132600,9.917326,-1.130073,0.226800,-0.079494,-0.645585,-0.233754,-0.005039,0.999982,-0.005634,-0.002040,-0.000055
2879,0.039186,-0.134495,9.919206,-0.914094,-0.007616,-0.078488,-0.679643,-0.230132,-0.007715,0.999980,-0.005931,-0.002008,-0.000079
2880,0.034431,-0.134720,9.916589,-0.692519,0.168089,-0.069823,-0.706410,-0.227487,-0.010220,0.999979,-0.006165,-0.001985,-0.000101
2881,0.033081,-0.126697,9.919317,-0.167216,0.212234,-0.060659,-0.720730,-0.221176,-0.012473,0.999978,-0.006290,-0.001929,-0.000121
2882,0.024376,-0.132432,9.921824,-0.321939,0.521844,-0.065393,-0.728874,-0.208969,-0.014728,0.999978,-0.006361,-0.001823,-0.000140
2883,0.027583,-0.122359,9.922340,0.145470,0.299330,-0.063702,-0.731807,-0.195311,-0.017054,0.999978,-0.006386,-0.001703,-0.000160
2884,0.028655,-0.121641,9.922117,0.184269,0.168081,-0.067115,-0.726304,-0.187549,-0.019333,0.999979,-0.006338,-0.001636,-0.000179
2885,0.025082,-0.127731,9.926526,-0.084340,0.241878,-0.074190,-0.724630,-0.180747,-0.021774,0.999979,-0.006324,-0.001576,-0.000200
2886,0.030965,-0.126468,9.924581,-0.049100,-0.045124,-0.085569,-0.726846,-0.177502,-0.024478,0.999979,-0.006343,-0.001548,-0.000223
2887,0.033434,-0.128536,9.921618,-0.101929,-0.168012,-0.070129,-0.729355,-0.181087,-0.027028,0.999979,-0.006365,-0.001579,-0.000246
2888,0.030230,-0.138381,9.920619,-0.472216,-0.013555,-0.063904,-0.738917,-0.184141,-0.029223,0.999978,-0.006449,-0.001605,-0.000265
2889,0.030304,-0.141535,9.918579,-0.537118,-0.004559,-0.071068,-0.755732,-0.184472,-0.031468,0.999977,-0.006595,-0.001608,-0.000285
2890,0.034246,-0.140067,9.918044,-0.360481,-0.152526,-0.072160,-0.770684,-0.187122,-0.033820,0.999976,-0.006726,-0.001631,-0.000306
2891,0.027684,-0.146910,9.922762,-0.534339,0.128819,-0.069315,-0.785590,-0.187549,-0.036173,0.999975,-0.006856,-0.001634,-0.000327
2892,0.028920,-0.142686,9.924341,-0.261535,0.082091,-0.070805,-0.798847,-0.184067,-0.038556,0.999974,-0.006972,-0.001604,-0.000348
2893,0.026944,-0.139459,9.925261,-0.048551,0.133124,-0.072257,-0.804008,-0.180513,-0.040991,0.999974,-0.007017,-0.001573,-0.000369
2894,0.023867,-0.139074,9.922071,-0.003262,0.233843,-0.061852,-0.804864,-0.174429,-0.043311,0.999974,-0.007024,-0.001519,-0.000389
2895,0.020936,-0.134133,9.920922,0.210973,0.308170,-0.058353,-0.801396,-0.165425,-0.045441,0.999974,-0.006994,-0.001441,-0.000407
2896,0.023756,-0.135613,9.917964,0.135963,0.127891,-0.065153,-0.795608,-0.158186,-0.047601,0.999975,-0.006943,-0.001378,-0.000425
2897,0.019980,-0.137563,9.915611,0.013774,0.237390,-0.078668,-0.793105,-0.152132,-0.050082,0.999975,-0.006922,-0.001325,-0.000446
2898,0.022950,-0.144487,9.915922,-0.260710,0.078038,-0.081665,-0.797214,-0.146913,-0.052827,0.999975,-0.006958,-0.001279,-0.000470
2899,0.027673,-0.147195,9.915291,-0.337338,-0.149551,-0.084640,-0.807174,-0.148143,-0.055582,0.999974,-0.007044,-0.001289,-0.000494
2900,0.026936,-0.148587,9.917932,-0.320872,-0.118487,-0.091771,-0.818137,-0.152652,-0.058458,0.999974,-0.007140,-0.001328,-0.000520
2901,0.027515,-0.150243,9.912523,-0.331269,-0.107903,-0.084033,-0.828998,-0.156467,-0.061334,0.999973,-0.007235,-0.001362,-0.000545
2902,0.035294,-0.145985,9.917715,-0.078434,-0.405854,-0.078179,-0.835819,-0.165068,-0.063913,0.999972,-0.007295,-0.001436,-0.000568
2903,0.037506,-0.141288,9.917624,0.145436,-0.435182,-0.079316,-0.834695,-0.179122,-0.066333,0.999972,-0.007285,-0.001559,-0.000590
2904,0.032968,-0.132135,9.924268,0.517400,-0.152499,-0.070265,-0.823640,-0.188951,-0.068685,0.999973,-0.007189,-0.001645,-0.000611
2905,0.035304,-0.135817,9.923837,0.272788,-0.165962,-0.056225,-0.810463,-0.194288,-0.070717,0.999973,-0.007074,-0.001691,-0.000629
2906,0.035511,-0.131116,9.929976,0.384542,-0.122375,-0.054621,-0.799502,-0.199120,-0.072497,0.999974,-0.006978,-0.001733,-0.000645
2907,0.026456,-0.132586,9.927526,0.248728,0.282964,-0.053168,-0.788941,-0.196468,-0.074330,0.999975,-0.006886,-0.001710,-0.000660
2908,0.026062,-0.129456,9.926787,0.294802,0.286422,-0.058010,-0.779876,-0.187005,-0.076314,0.999975,-0.006807,-0.001627,-0.000677
2909,0.028944,-0.132583,9.921063,0.106563,0.103142,-0.070559,-0.773179,-0.180542,-0.078544,0.999976,-0.006748,-0.001571,-0.000696
2910,0.027291,-0.126674,9.921864,0.303560,0.120262,-0.084612,-0.766336,-0.176853,-0.081180,0.999976,-0.006689,-0.001539,-0.000719
2911,0.024856,-0.124737,9.922538,0.341986,0.177713,-0.095942,-0.755567,-0.171927,-0.084255,0.999977,-0.006595,-0.001495,-0.000745
2912,0.028028,-0.129674,9.923571,0.075308,0.009092,-0.101856,-0.748602,-0.168858,-0.087592,0.999977,-0.006534,-0.001469,-0.000774
2913,0.023857,-0.138954,9.922673,-0.341352,0.148462,-0.092587,-0.753027,-0.166274,-0.090867,0.999977,-0.006572,-0.001446,-0.000802
2914,0.019521,-0.139835,9.925007,-0.361530,0.315020,-0.096612,-0.764732,-0.158592,-0.094122,0.999976,-0.006675,-0.001378,-0.000831
2915,0.029047,-0.141184,9.922411,-0.337198,-0.114733,-0.091834,-0.776369,-0.155297,-0.097308,0.999976,-0.006776,-0.001349,-0.000858
2916,0.027581,-0.144262,9.918897,-0.402122,-0.066750,-0.085158,-0.788683,-0.158361,-0.100216,0.999975,-0.006884,-0.001376,-0.000884
2917,0.028199,-0.150039,9.923381,-0.552941,-0.066720,-0.080206,-0.804593,-0.160624,-0.102941,0.999974,-0.007023,-0.001395,-0.000908
2918,0.033535,-0.143667,9.921173,-0.185470,-0.262251,-0.080982,-0.816893,-0.166144,-0.105550,0.999973,-0.007130,-0.001443,-0.000931
2919,0.031358,-0.142544,9.921372,-0.047794,-0.143266,-0.071961,-0.820773,-0.172939,-0.108002,0.999973,-0.007164,-0.001502,-0.000953
2920,0.023190,-0.143153,9.923154,-0.038111,0.225444,-0.061983,-0.822198,-0.171601,-0.110254,0.999973,-0.007176,-0.001491,-0.000973
2921,0.027332,-0.146111,9.921428,-0.121248,0.039404,-0.068761,-0.824847,-0.167219,-0.112496,0.999973,-0.007200,-0.001452,-0.000992
2922,0.028470,-0.142073,9.913125,0.040412,-0.042789,-0.067351,-0.826188,-0.167308,-0.114764,0.999972,-0.007211,-0.001453,-0.001012
2923,0.023357,-0.132596,9.917709,0.438731,0.165124,-0.067032,-0.818196,-0.165301,-0.117033,0.999973,-0.007142,-0.001435,-0.001032
2924,0.025995,-0.140118,9.916690,0.076605,0.041296,-0.073837,-0.809600,-0.161895,-0.119429,0.999974,-0.007066,-0.001405,-0.001052
2925,0.029365,-0.142372,9.917961,-0.073972,-0.115608,-0.087892,-0.809548,-0.163171,-0.122107,0.999973,-0.007066,-0.001416,-0.001076
2926,0.028632,-0.140992,9.917583,-0.026400,-0.075564,-0.082925,-0.811213,-0.166397,-0.124909,0.999973,-0.007081,-0.001444,-0.001100
2927,0.027874,-0.139717,9.919013,0.045248,-0.009963,-0.085406,-0.810891,-0.167862,-0.127694,0.999973,-0.007078,-0.001457,-0.001125
2928,0.030586,-0.153052,9.918612,-0.490284,-0.113973,-0.097434,-0.818299,-0.169971,-0.130711,0.999973,-0.007143,-0.001475,-0.001151
2929,0.030562,-0.150382,9.917641,-0.337289,-0.090747,-0.091569,-0.832083,-0.173428,-0.133812,0.999972,-0.007263,-0.001505,-0.001179
2930,0.029047,-0.151010,9.915204,-0.284557,-0.010159,-0.072221,-0.842439,-0.175150,-0.136517,0.999971,-0.007353,-0.001520,-0.001203
2931,0.031106,-0.147340,9.918487,-0.072400,-0.090113,-0.076979,-0.848380,-0.176857,-0.138979,0.999971,-0.007405,-0.001534,-0.001224
2932,0.032359,-0.144626,9.920431,0.073958,-0.134674,-0.073443,-0.848347,-0.180641,-0.141430,0.999971,-0.007405,-0.001567,-0.001246
2933,0.031685,-0.132754,9.922319,0.534857,-0.083771,-0.060433,-0.838193,-0.184314,-0.143608,0.999971,-0.007317,-0.001599,-0.001265
2934,0.035379,-0.132674,9.923832,0.486269,-0.201045,-0.063582,-0.821168,-0.189090,-0.145606,0.999972,-0.007168,-0.001641,-0.001282
2935,0.035794,-0.136854,9.924090,0.195371,-0.182856,-0.082231,-0.809799,-0.195522,-0.147944,0.999973,-0.007069,-0.001697,-0.001303
2936,0.037168,-0.137663,9.920984,0.090557,-0.195382,-0.069791,-0.805025,-0.201861,-0.150389,0.999973,-0.007027,-0.001752,-0.001325
2937,0.037300,-0.145354,9.919317,-0.254716,-0.155103,-0.080237,-0.807753,-0.207737,-0.152807,0.999973,-0.007051,-0.001803,-0.001346
2938,0.038449,-0.149989,9.918987,-0.412587,-0.168126,-0.079682,-0.818865,-0.213162,-0.155395,0.999972,-0.007148,-0.001850,-0.001369
2939,0.035669,-0.148412,9.919053,-0.280250,-0.022346,-0.073462,-0.830403,-0.216373,-0.157902,0.999971,-0.007249,-0.001878,-0.001392
2940,0.032631,-0.149143,9.922736,-0.222278,0.121936,-0.063896,-0.838769,-0.214747,-0.160215,0.999970,-0.007322,-0.001864,-0.001412
2941,0.025153,-0.150188,9.927062,-0.194188,0.433104,-0.062731,-0.845702,-0.205528,-0.162461,0.999970,-0.007383,-0.001783,-0.001431
2942,0.023868,-0.149246,9.932219,-0.095360,0.411947,-0.061676,-0.850520,-0.191476,-0.164743,0.999970,-0.007425,-0.001660,-0.001450
2943,0.022113,-0.144850,9.933261,0.113399,0.393810,-0.071931,-0.850212,-0.178081,-0.167168,0.999970,-0.007422,-0.001543,-0.001470
2944,0.022611,-0.142017,9.937601,0.225094,0.280447,-0.069370,-0.844563,-0.166880,-0.169689,0.999971,-0.007372,-0.001445,-0.001492
2945,0.022572,-0.135873,9.934212,0.436250,0.211007,-0.072623,-0.833533,-0.158724,-0.172175,0.999972,-0.007276,-0.001374,-0.001513
2946,0.025476,-0.128144,9.933042,0.669020,0.032046,-0.081902,-0.815105,-0.154711,-0.174809,0.999973,-0.007115,-0.001339,-0.001535
2947,0.029517,-0.125739,9.933108,0.626620,-0.151550,-0.084517,-0.793503,-0.156741,-0.177554,0.999974,-0.006927,-0.001357,-0.001559
2948,0.029944,-0.135531,9.929645,0.078285,-0.161133,-0.078469,-0.781748,-0.161989,-0.180198,0.999975,-0.006824,-0.001403,-0.001582
2949,0.030028,-0.139616,9.927728,-0.223477,-0.135680,-0.094084,-0.784159,-0.166975,-0.183006,0.999974,-0.006845,-0.001446,-0.001607
2950,0.033354,-0.145144,9.926958,-0.505161,-0.239833,-0.091781,-0.796294,-0.173276,-0.186017,0.999973,-0.006951,-0.001501,-0.001634
2951,0.031856,-0.156702,9.925753,-0.915441,-0.141508,-0.090695,-0.819962,-0.179674,-0.188968,0.999972,-0.007158,-0.001556,-0.001660
2952,0.025595,-0.147446,9.918386,-0.313255,0.153936,-0.083491,-0.840431,-0.179509,-0.191874,0.999970,-0.007337,-0.001554,-0.001686
2953,0.026675,-0.138699,9.918025,0.206346,0.115239,-0.090204,-0.842204,-0.175066,-0.194834,0.999970,-0.007352,-0.001515,-0.001711
2954,0.024869,-0.134221,9.914125,0.457269,0.158334,-0.064210,-0.831136,-0.170544,-0.197473,0.999971,-0.007256,-0.001476,-0.001734
2955,0.025383,-0.135962,9.913415,0.367058,0.108918,-0.067587,-0.817390,-0.166122,-0.199734,0.999972,-0.007136,-0.001437,-0.001753
2956,0.031918,-0.135810,9.917390,0.216693,-0.184325,-0.062398,-0.807655,-0.167409,-0.201882,0.999973,-0.007051,-0.001448,-0.001772
2957,0.034545,-0.150261,9.924099,-0.521686,-0.279101,-0.057267,-0.812732,-0.175161,-0.203767,0.999972,-0.007095,-0.001516,-0.001789
2958,0.031422,-0.149739,9.924041,-0.407197,-0.089548,-0.062473,-0.828208,-0.181333,-0.205674,0.999971,-0.007230,-0.001569,-0.001806
2959,0.034310,-0.152117,9.925665,-0.421497,-0.161297,-0.086436,-0.842012,-0.185549,-0.208094,0.999970,-0.007351,-0.001606,-0.001828
2960,0.033763,-0.147934,9.926248,-0.198313,-0.115729,-0.083488,-0.852333,-0.190208,-0.210858,0.999969,-0.007441,-0.001646,-0.001852
2961,0.029042,-0.149157,9.930744,-0.191070,0.103553,-0.093981,-0.858813,-0.190455,-0.213813,0.999969,-0.007498,-0.001648,-0.001878
2962,0.029259,-0.138219,9.929879,0.396212,0.093407,-0.098738,-0.855383,-0.187220,-0.217073,0.999969,-0.007468,-0.001620,-0.001906
2963,0.031849,-0.137800,9.932817,0.363405,-0.041048,-0.094495,-0.842712,-0.186395,-0.220306,0.999970,-0.007357,-0.001612,-0.001934
2964,0.032096,-0.137567,9.932098,0.239554,-0.059940,-0.094469,-0.832652,-0.188124,-0.223431,0.999970,-0.007269,-0.001627,-0.001962
2965,0.031883,-0.140821,9.933428,0.058420,-0.032961,-0.105725,-0.827675,-0.189721,-0.226744,0.999971,-0.007226,-0.001641,-0.001991
2966,0.031322,-0.138076,9.927989,0.050504,0.004755,-0.100917,-0.825848,-0.190241,-0.230181,0.999971,-0.007210,-0.001646,-0.002021
2967,0.034402,-0.138058,9.922019,-0.082359,-0.112265,-0.098045,-0.826368,-0.192080,-0.233471,0.999971,-0.007215,-0.001661,-0.002049
2968,0.036613,-0.146769,9.918465,-0.504598,-0.195400,-0.105617,-0.836140,-0.197257,-0.236791,0.999970,-0.007300,-0.001706,-0.002079
2969,0.036554,-0.142003,9.917850,-0.163009,-0.156900,-0.101385,-0.847255,-0.203179,-0.240154,0.999969,-0.007397,-0.001758,-0.002109
2970,0.036658,-0.153553,9.913541,-0.516738,-0.115736,-0.096433,-0.858572,-0.207771,-0.243383,0.999968,-0.007496,-0.001797,-0.002137
2971,0.037371,-0.143653,9.912566,0.055411,-0.108012,-0.095060,-0.866250,-0.211548,-0.246518,0.999967,-0.007563,-0.001830,-0.002165
2973,0.038085,-0.154676,9.915497,-0.356254,-0.135955,-0.104352,-0.871251,-0.215664,-0.249780,0.999967,-0.007607,-0.001865,-0.002194
2974,0.043439,-0.169118,9.915869,-0.802854,-0.317514,-0.100553,-0.890557,-0.223273,-0.253078,0.999965,-0.007776,-0.001931,-0.002224
2975,0.042075,-0.179121,9.920568,-1.110156,-0.203752,-0.097804,-0.922428,-0.232012,-0.256246,0.999963,-0.008054,-0.002007,-0.002252
2976,0.040365,-0.163880,9.924598,-0.476070,-0.091128,-0.079191,-0.948854,-0.236975,-0.259115,0.999961,-0.008285,-0.002049,-0.002278
2977,0.041474,-0.183870,9.925508,-1.284258,-0.154444,-0.040149,-0.978184,-0.241100,-0.261035,0.999959,-0.008541,-0.002084,-0.002296
2978,0.038153,-0.183142,9.922193,-1.104053,0.012674,-0.001680,-1.017987,-0.243475,-0.261691,0.999956,-0.008888,-0.002104,-0.002302
2979,0.028467,-0.175766,9.921638,-0.692655,0.408522,0.036817,-1.047934,-0.236446,-0.261231,0.999953,-0.009149,-0.002042,-0.002298
2980,0.030985,-0.174678,9.920476,-0.490210,0.240765,0.034831,-1.067652,-0.225604,-0.260236,0.999952,-0.009321,-0.001948,-0.002289
2981,0.037327,-0.191081,9.920750,-0.908066,-0.111158,0.003431,-1.090959,-0.223432,-0.259639,0.999950,-0.009525,-0.001928,-0.002284
2982,0.033936,-0.179628,9.920180,0.187511,0.103730,-0.051603,-1.102965,-0.223572,-0.260440,0.999949,-0.009629,-0.001929,-0.002291
2983,0.038894,-0.180711,9.918223,0.459903,-0.045602,-0.092182,-1.092166,-0.222649,-0.262855,0.999950,-0.009535,-0.001921,-0.002312
2984,0.041716,-0.181209,9.922614,0.500260,-0.137942,-0.132248,-1.076149,-0.225778,-0.266537,0.999951,-0.009396,-0.001948,-0.002344
2985,0.039413,-0.178350,9.921601,0.847863,0.036335,-0.145344,-1.053662,-0.227557,-0.271131,0.999953,-0.009199,-0.001964,-0.002384
2986,0.032947,-0.154492,9.922634,2.072005,0.371283,-0.143519,-1.004978,-0.220851,-0.276067,0.999957,-0.008775,-0.001906,-0.002426
2987,0.035671,-0.155176,9.917141,1.700338,0.186031,-0.129685,-0.942088,-0.211641,-0.280778,0.999961,-0.008226,-0.001827,-0.002465
2988,0.030337,-0.155363,9.921624,1.241787,0.319487,-0.108752,-0.893038,-0.203280,-0.284886,0.999965,-0.007798,-0.001755,-0.002500
2989,0.027400,-0.147993,9.918421,1.208161,0.365629,-0.089512,-0.852193,-0.191913,-0.288364,0.999968,-0.007441,-0.001656,-0.002529
2990,0.030761,-0.146198,9.916308,0.793703,0.107239,-0.075387,-0.818820,-0.184073,-0.291227,0.999970,-0.007150,-0.001588,-0.002553
2991,0.035305,-0.153099,9.915564,-0.017028,-0.145236,-0.058890,-0.805868,-0.184738,-0.293456,0.999971,-0.007037,-0.001594,-0.002572
2992,0.032125,-0.145557,9.921031,0.096698,-0.021971,-0.065301,-0.804533,-0.187554,-0.295486,0.999971,-0.007025,-0.001619,-0.002590
2993,0.030378,-0.132323,9.921089,0.594816,0.065312,-0.087103,-0.793000,-0.186867,-0.298036,0.999971,-0.006924,-0.001613,-0.002612
2994,0.031138,-0.124641,9.919036,0.816003,0.031065,-0.106670,-0.769476,-0.185305,-0.301287,0.999973,-0.006719,-0.001599,-0.002640
2995,0.027176,-0.123673,9.918480,0.626207,0.177212,-0.119525,-0.745427,-0.181884,-0.305103,0.999974,-0.006509,-0.001570,-0.002673
2996,0.025100,-0.128838,9.917852,0.251814,0.229551,-0.154228,-0.730778,-0.175164,-0.309753,0.999975,-0.006381,-0.001511,-0.002713
2997,0.030804,-0.131191,9.915190,0.125940,-0.045368,-0.209112,-0.724464,-0.172171,-0.315847,0.999975,-0.006326,-0.001485,-0.002766
2998,0.033290,-0.128470,9.914746,0.215929,-0.179143,-0.241372,-0.718743,-0.176007,-0.323307,0.999975,-0.006276,-0.001518,-0.002831
2999,0.033215,-0.128551,9.920168,0.006040,-0.139400,-0.259152,-0.715018,-0.181420,-0.331582,0.999975,-0.006244,-0.001565,-0.002903
3000,0.038226,-0.120757,9.922530,0.262605,-0.293071,-0.297197,-0.710511,-0.188743,-0.340764,0.999975,-0.006205,-0.001629,-0.002984
3001,0.034314,-0.097677,9.921803,1.050757,-0.088441,-0.325031,-0.688587,-0.195228,-0.351056,0.999976,-0.006014,-0.001685,-0.003074
3002,0.033856,-0.102089,9.924697,0.140522,-0.057726,-0.352216,-0.668694,-0.197797,-0.362315,0.999977,-0.005841,-0.001708,-0.003172
3003,0.059246,-0.270124,9.924706,-7.214203,-1.027295,-1.879750,-0.786455,-0.216352,-0.399282,0.999969,-0.006870,-0.001864,-0.003497
3004,0.047451,-0.214554,9.914843,-1.762004,0.023420,-8.392820,-0.935383,-0.235661,-0.570220,0.999952,-0.008173,-0.002016,-0.004993
3005,0.040952,-0.234835,9.911519,-1.935004,0.292309,-10.895586,-0.995699,-0.235678,-0.891735,0.999930,-0.008705,-0.001989,-0.007799
3006,0.044376,-0.254915,9.909821,-2.088443,0.267230,-12.547039,-1.061161,-0.233359,-1.282548,0.999892,-0.009282,-0.001933,-0.011210
3007,0.041101,-0.256519,9.905667,-1.383138,0.386053,-13.908037,-1.117231,-0.230851,-1.723591,0.999837,-0.009779,-0.001868,-0.015059
3008,0.014695,-0.100497,9.904704,2.214520,0.949905,-14.871182,-1.101498,-0.217847,-2.203581,0.999767,-0.009647,-0.001716,-0.019246
3009,0.030026,-0.158688,9.912951,0.134565,0.454258,-11.912756,-1.060726,-0.202747,-2.650334,0.999688,-0.009295,-0.001555,-0.023142
3010,0.037329,-0.154441,9.917893,0.079459,0.302933,-13.634401,-1.055658,-0.198052,-3.076277,0.999595,-0.009255,-0.001480,-0.026857
3011,0.039478,-0.174970,9.922077,-0.575975,0.353251,-17.045925,-1.062166,-0.196569,-3.587726,0.999465,-0.009318,-0.001424,-0.031318
3012,0.043959,-0.169994,9.922388,-0.638665,0.440631,-22.054691,-1.080178,-0.195545,-4.239523,0.999269,-0.009483,-0.001357,-0.037003
3013,0.040332,-0.169933,9.924491,-0.620890,0.660004,-26.050055,-1.098454,-0.192442,-5.041444,0.998984,-0.009650,-0.001256,-0.043995
3014,0.032930,-0.194304,9.921280,-1.228965,0.906775,-29.337402,-1.126256,-0.184248,-5.964851,0.998595,-0.009899,-0.001094,-0.052043
3015,0.033514,-0.183940,9.920423,-0.660099,0.965431,-32.056866,-1.154554,-0.173449,-6.988434,0.998088,-0.010149,-0.000897,-0.060960
3016,0.030060,-0.168297,9.920203,0.276947,1.050834,-32.954693,-1.157768,-0.161667,-8.072323,0.997467,-0.010177,-0.000696,-0.070397
3017,0.021813,-0.172395,9.922594,0.510023,1.161115,-32.359768,-1.141727,-0.146578,-9.161313,0.996755,-0.010034,-0.000479,-0.079871
3018,0.027337,-0.156690,9.923140,1.397159,0.903667,-30.186102,-1.107412,-0.132612,-10.204123,0.995990,-0.009728,-0.000293,-0.088937
3019,0.034851,-0.108849,9.920393,2.980376,0.545573,-25.726860,-1.032341,-0.125791,-11.136216,0.995240,-0.009073,-0.000218,-0.097035
3020,0.030928,-0.134658,9.918454,1.907390,0.468041,-21.882875,-0.949146,-0.122489,-11.929832,0.994550,-0.008349,-0.000202,-0.103925
3021,0.032213,-0.122885,9.917485,1.230060,0.383077,-21.118574,-0.895341,-0.119880,-12.646626,0.993884,-0.007881,-0.000179,-0.110143
3022,0.040317,-0.113519,9.920021,0.734430,0.172089,-20.582382,-0.861134,-0.121314,-13.341676,0.993200,-0.007587,-0.000179,-0.116170
3023,0.040843,-0.135377,9.921647,-0.664232,0.192460,-21.133450,-0.858455,-0.125695,-14.036926,0.992477,-0.007569,-0.000173,-0.122194
3024,0.035680,-0.173384,9.926342,-2.364685,0.399379,-23.974277,-0.907276,-0.127487,-14.788754,0.991651,-0.007995,-0.000084,-0.128703
3025,0.037690,-0.168363,9.923234,-2.066095,0.439521,-25.925785,-0.979280,-0.127281,-15.620500,0.990686,-0.008617,0.000061,-0.135897
3026,0.043761,-0.182444,9.923377,-1.628568,0.311524,-25.668812,-1.038926,-0.129881,-16.480446,0.989633,-0.009135,0.000178,-0.143328
3027,0.040593,-0.194039,9.921659,-1.580012,0.387458,-25.832676,-1.090414,-0.134156,-17.338825,0.988527,-0.009583,0.000277,-0.150737
3028,0.041759,-0.206022,9.918937,-1.728573,0.412133,-26.348766,-1.143495,-0.137782,-18.208557,0.987350,-0.010043,0.000392,-0.158236
3029,0.048250,-0.212323,9.915455,-1.369570,0.332895,-26.539291,-1.192967,-0.143346,-19.090044,0.986099,-0.010474,0.000493,-0.165826
3030,0.048073,-0.208138,9.915321,-0.864717,0.366510,-26.954910,-1.227912,-0.150502,-19.981607,0.984776,-0.010781,0.000566,-0.173494
3031,0.045792,-0.201649,9.917555,-0.897164,0.489654,-27.735605,-1.254839,-0.155949,-20.893152,0.983362,-0.011016,0.000647,-0.181322
3032,0.051707,-0.204908,9.917911,-0.775504,0.439468,-27.524466,-1.280177,-0.160840,-21.814211,0.981870,-0.011235,0.000736,-0.189221
3033,0.048769,-0.200658,9.917968,0.038538,0.499078,-27.024511,-1.289865,-0.165582,-22.723423,0.980337,-0.011320,0.000801,-0.197005
3034,0.046459,-0.176123,9.921242,1.277709,0.507627,-26.255657,-1.265343,-0.168554,-23.611523,0.978783,-0.011109,0.000819,-0.204598
3035,0.046764,-0.175051,9.924016,1.336827,0.484566,-25.564026,-1.219214,-0.170664,-24.475292,0.977217,-0.010713,0.000800,-0.211970
3036,0.046584,-0.219412,9.921706,0.008309,0.502929,-25.932718,-1.194227,-0.172279,-25.333681,0.975604,-0.010497,0.000818,-0.219285
3037,0.046759,-0.210823,9.917714,0.362713,0.466417,-26.280697,-1.185412,-0.174280,-26.204002,0.973911,-0.010420,0.000864,-0.226688
3038,0.051282,-0.184772,9.919422,1.156629,0.345447,-25.221849,-1.157447,-0.178278,-27.062420,0.972188,-0.010184,0.000851,-0.233978
3039,0.051913,-0.206333,9.913218,0.335122,0.295580,-23.175251,-1.130031,-0.183645,-27.869047,0.970519,-0.009957,0.000819,-0.240816
3040,0.049113,-0.217231,9.910180,-0.441900,0.347691,-23.531132,-1.129282,-0.188317,-28.647509,0.968861,-0.009955,0.000846,-0.247404
3041,0.042155,-0.211813,9.905101,-0.758384,0.603453,-25.512049,-1.146599,-0.188745,-29.465017,0.967070,-0.010096,0.000952,-0.254310
3042,0.035572,-0.232286,9.907921,-1.325991,0.753608,-26.214752,-1.178548,-0.183639,-30.327362,0.965126,-0.010346,0.001144,-0.261579
3043,0.032129,-0.253058,9.909353,-2.161765,0.851268,-28.494049,-1.233820,-0.176126,-31.239487,0.963009,-0.010783,0.001419,-0.269252
3044,0.041771,-0.222673,9.917771,-1.009818,0.713050,-30.952070,-1.283669,-0.171870,-32.230515,0.960639,-0.011178,0.001668,-0.277569
3045,0.045468,-0.211150,9.924560,0.909594,0.584346,-27.204786,-1.282416,-0.171864,-33.199963,0.958257,-0.011153,0.001760,-0.285686
3046,0.053512,-0.162918,9.926400,3.105507,0.122848,-19.952496,-1.213104,-0.177060,-33.985943,0.956281,-0.010575,0.001616,-0.292253
3047,0.056345,-0.153769,9.928841,2.784753,-0.062543,-15.461876,-1.113036,-0.187874,-34.576054,0.954772,-0.009761,0.001321,-0.297176
3048,0.082113,-0.147383,9.922786,1.161086,-0.591970,-15.077688,-1.045507,-0.208350,-35.084740,0.953448,-0.009247,0.001016,-0.301414
3049,0.075522,-0.176984,9.918276,-2.020149,-0.276673,-16.097025,-1.057808,-0.232419,-35.603951,0.952071,-0.009409,0.000891,-0.305732
3050,0.065163,-0.292109,9.926672,-6.294512,0.091267,-18.446201,-1.193989,-0.246940,-36.179478,0.950511,-0.010573,0.001187,-0.310510
3051,0.067339,-0.338255,9.929109,-8.045047,0.122904,-22.831770,-1.429954,-0.259278,-36.867321,0.948605,-0.012553,0.001799,-0.316208
3052,0.071936,-0.355757,9.926702,-7.775998,0.146235,-26.102095,-1.689814,-0.277005,-37.682678,0.946299,-0.014736,0.002475,-0.322946
3053,0.055652,-0.372142,9.924758,-5.998125,0.597760,-25.117043,-1.915138,-0.291383,-38.536247,0.943836,-0.016615,0.003115,-0.329982
3054,0.056508,-0.376064,9.927554,-3.646446,0.577794,-23.921894,-2.071683,-0.300138,-39.353706,0.941434,-0.017904,0.003621,-0.336703
3055,0.069516,-0.290486,9.913854,-0.580386,0.397443,-25.057880,-2.137753,-0.313749,-40.170055,0.939000,-0.018460,0.003835,-0.343401
3056,0.068570,-0.249186,9.914102,1.355914,0.642693,-24.697273,-2.120178,-0.327042,-40.999344,0.936492,-0.018329,0.003806,-0.350190
3057,0.065965,-0.218505,9.915067,2.326128,0.847176,-24.451605,-2.054114,-0.331943,-41.818821,0.933973,-0.017778,0.003692,-0.356881
3058,0.068121,-0.238460,9.918164,1.791406,0.938592,-26.487547,-1.980581,-0.332026,-42.668297,0.931313,-0.017153,0.003589,-0.363797
3059,0.074041,-0.254437,9.913851,1.287329,0.894829,-28.453444,-1.923958,-0.332725,-43.584454,0.928383,-0.016667,0.003537,-0.371233
3060,0.077843,-0.250650,9.912466,1.232549,0.862803,-29.219425,-1.876348,-0.335359,-44.546047,0.925242,-0.016261,0.003498,-0.379012
3061,0.078150,-0.272638,9.912764,0.719585,0.824547,-28.277044,-1.838175,-0.338315,-45.504681,0.922044,-0.015934,0.003481,-0.386741
3062,0.082586,-0.281744,9.913348,0.436042,0.713160,-27.519114,-1.813390,-0.342361,-46.434902,0.918877,-0.015720,0.003493,-0.394214
3063,0.084293,-0.250978,9.914513,0.947587,0.625696,-26.053341,-1.784943,-0.348109,-47.327995,0.915781,-0.015485,0.003470,-0.401365
3064,0.081571,-0.253243,9.914227,0.561293,0.725044,-26.249895,-1.754462,-0.352492,-48.199959,0.912704,-0.015231,0.003444,-0.408323
3065,0.055942,-0.253972,9.913281,0.389307,1.369560,-28.529190,-1.733061,-0.345405,-49.113541,0.909423,-0.015008,0.003544,-0.415587
3066,0.063550,-0.281885,9.911798,-0.184884,1.285399,-30.402964,-1.723890,-0.330817,-50.096577,0.905827,-0.014850,0.003754,-0.423372
3067,0.060443,-0.315354,9.910614,-0.854570,1.269536,-30.082546,-1.735483,-0.318724,-51.105423,0.902064,-0.014863,0.004023,-0.431328
3068,0.056298,-0.344413,9.910606,-1.354164,1.237776,-28.561560,-1.766953,-0.306875,-52.083588,0.898346,-0.015029,0.004363,-0.439010
3069,0.054980,-0.343108,9.917809,-0.924411,1.078822,-25.471424,-1.800185,-0.296352,-52.984840,0.894862,-0.015213,0.004693,-0.446059
3070,0.081464,-0.339075,9.922860,-0.743153,0.324789,-21.620819,-1.823904,-0.297769,-53.770023,0.891781,-0.015370,0.004880,-0.452179
3071,0.077300,-0.332986,9.923012,-0.752393,0.404546,-21.454496,-1.844993,-0.308599,-54.487942,0.888927,-0.015546,0.004976,-0.457758
3072,0.077792,-0.323100,9.920708,-0.508055,0.538828,-23.614389,-1.861902,-0.317179,-55.239178,0.885904,-0.015679,0.005080,-0.463576
3073,0.081129,-0.321062,9.920041,-0.318137,0.507350,-23.968786,-1.871227,-0.325566,-56.032352,0.882672,-0.015750,0.005162,-0.469697
3074,0.083720,-0.330007,9.915289,-0.388451,0.472777,-23.916918,-1.878397,-0.335338,-56.830524,0.879377,-0.015809,0.005226,-0.475835
3076,0.082052,-0.317560,9.919086,0.067566,0.499953,-23.150341,-1.879086,-0.344857,-57.615059,0.876098,-0.015818,0.005265,-0.481845
3077,0.083645,-0.302173,9.918235,0.679371,0.369567,-19.949310,-1.862260,-0.353795,-58.333458,0.873061,-0.015694,0.005224,-0.487330
3078,0.085690,-0.289076,9.921616,1.470065,0.276046,-15.696558,-1.822722,-0.362107,-58.927589,0.870528,-0.015402,0.005073,-0.491853
3079,0.077715,-0.258103,9.929111,2.533580,0.444290,-12.537725,-1.753009,-0.364743,-59.398296,0.868509,-0.014865,0.004814,-0.495428
3080,0.075725,-0.229613,9.931177,3.219916,0.403817,-9.199289,-1.654830,-0.361335,-59.760841,0.866950,-0.014092,0.004460,-0.498177
3081,0.074017,-0.221540,9.925223,3.293243,0.280356,-6.001703,-1.544691,-0.356968,-60.014416,0.865859,-0.013230,0.004044,-0.500097
3082,0.071294,-0.206697,9.924898,4.609329,-0.008020,-3.638031,-1.411981,-0.356549,-60.175148,0.865171,-0.012221,0.003485,-0.501316
3083,0.068539,-0.183691,9.927204,4.326655,-0.091570,-1.994096,-1.262459,-0.360361,-60.268948,0.864775,-0.011106,0.002811,-0.502028
3084,0.072145,-0.191719,9.917528,2.449736,-0.366188,-0.977405,-1.149205,-0.369015,-60.318310,0.864569,-0.010289,0.002254,-0.502404
3085,0.071530,-0.196982,9.915359,1.337352,-0.376204,-0.410116,-1.085935,-0.381835,-60.341190,0.864473,-0.009867,0.001882,-0.502578
3086,0.071873,-0.196736,9.916329,0.819727,-0.316976,-0.307811,-1.049904,-0.393608,-60.352940,0.864424,-0.009647,0.001636,-0.502668
3087,0.076848,-0.184071,9.916389,1.088694,-0.443434,-0.247465,-1.018034,-0.406447,-60.361958,0.864386,-0.009463,0.001400,-0.502737
3088,0.086111,-0.208243,9.912758,0.252922,-0.718786,-0.227007,-0.995618,-0.425953,-60.369522,0.864354,-0.009379,0.001155,-0.502796
3089,0.084634,-0.223567,9.922407,-0.107830,-0.501039,-0.244604,-0.993143,-0.446417,-60.377029,0.864320,-0.009450,0.000991,-0.502853
3090,0.084820,-0.207240,9.926831,0.588108,-0.333397,-0.248027,-0.985075,-0.460464,-60.384987,0.864284,-0.009451,0.000850,-0.502914
3091,0.085562,-0.184292,9.927755,1.413055,-0.246503,-0.222937,-0.951660,-0.470260,-60.392677,0.864253,-0.009242,0.000630,-0.502973
3092,0.081571,-0.183542,9.929488,0.931349,-0.008632,-0.209592,-0.912528,-0.474629,-60.399818,0.864224,-0.008966,0.000426,-0.503027
3093,0.072572,-0.158221,9.930230,1.043907,0.371811,-0.188096,-0.879552,-0.468680,-60.406540,0.864198,-0.008691,0.000327,-0.503077
3094,0.076643,-0.114334,9.920561,2.145973,0.146056,-0.155274,-0.826340,-0.460135,-60.412395,0.864176,-0.008252,0.000158,-0.503121
3095,0.078182,-0.117822,9.916862,1.058837,-0.006145,-0.122338,-0.772889,-0.457867,-60.417057,0.864160,-0.007839,-0.000059,-0.503156
3096,0.081197,-0.133955,9.914785,-0.240247,-0.159915,-0.099224,-0.759216,-0.460684,-60.420704,0.864145,-0.007748,-0.000140,-0.503184
3097,0.080647,-0.137457,9.914783,-0.466925,-0.119506,-0.084534,-0.770978,-0.465382,-60.423714,0.864130,-0.007858,-0.000124,-0.503207
3098,0.084462,-0.143096,9.913420,-0.496018,-0.235288,-0.075815,-0.787006,-0.471331,-60.426308,0.864118,-0.008005,-0.000098,-0.503227
3099,0.080906,-0.150465,9.917952,-0.642588,-0.049855,-0.083951,-0.805962,-0.476120,-60.428902,0.864104,-0.008169,-0.000051,-0.503246
3100,0.080117,-0.133513,9.914403,0.286369,0.012908,-0.077563,-0.811876,-0.476774,-60.431587,0.864092,-0.008216,-0.000030,-0.503267
3101,0.075424,-0.127409,9.918038,0.675805,0.232868,-0.078727,-0.795818,-0.472715,-60.434242,0.864082,-0.008077,-0.000069,-0.503287
3102,0.074744,-0.120101,9.916443,0.844499,0.236097,-0.083346,-0.770457,-0.464936,-60.437057,0.864072,-0.007852,-0.000122,-0.503307
3103,0.075304,-0.127989,9.918641,0.271455,0.155142,-0.062073,-0.751837,-0.458448,-60.439560,0.864062,-0.007683,-0.000155,-0.503326
3104,0.071811,-0.115622,9.915897,0.658208,0.257822,-0.054662,-0.736327,-0.451591,-60.441612,0.864055,-0.007536,-0.000171,-0.503341
3105,0.072807,-0.122671,9.920390,0.372214,0.187719,-0.067966,-0.719136,-0.444192,-60.443733,0.864047,-0.007374,-0.000191,-0.503357
3106,0.074250,-0.127212,9.916089,0.050862,0.070223,-0.077713,-0.712066,-0.439924,-60.446232,0.864037,-0.007302,-0.000189,-0.503376
3107,0.070448,-0.128572,9.915059,-0.069462,0.199935,-0.076917,-0.712356,-0.435454,-60.448868,0.864025,-0.007284,-0.000154,-0.503395
3108,0.067817,-0.128857,9.914892,-0.140137,0.275067,-0.077451,-0.715829,-0.427570,-60.451538,0.864014,-0.007276,-0.000079,-0.503415
3109,0.071362,-0.143097,9.915833,-0.761476,0.058526,-0.080405,-0.730836,-0.422044,-60.454227,0.864001,-0.007365,0.000029,-0.503436
3110,0.069929,-0.146017,9.918344,-0.767098,0.069392,-0.074006,-0.756293,-0.419945,-60.456837,0.863988,-0.007547,0.000156,-0.503455
3111,0.070011,-0.138195,9.921702,-0.223623,0.050868,-0.059529,-0.772788,-0.417971,-60.459095,0.863978,-0.007663,0.000244,-0.503472
3112,0.073879,-0.135767,9.925502,0.028642,-0.119639,-0.057256,-0.776024,-0.419143,-60.461025,0.863969,-0.007693,0.000249,-0.503487
3113,0.074898,-0.129939,9.923940,0.356112,-0.153092,-0.073327,-0.769596,-0.423718,-60.463139,0.863960,-0.007664,0.000187,-0.503503
3114,0.076472,-0.139222,9.923629,0.028940,-0.175642,-0.070649,-0.763161,-0.429228,-60.465469,0.863950,-0.007640,0.000117,-0.503520
3115,0.073535,-0.154565,9.917706,-0.697882,-0.018666,-0.062004,-0.774294,-0.432496,-60.467632,0.863939,-0.007738,0.000142,-0.503537
3116,0.073553,-0.153533,9.915415,-0.601233,-0.000242,-0.074754,-0.795928,-0.432842,-60.469910,0.863928,-0.007903,0.000234,-0.503554
3117,0.071681,-0.143939,9.911020,-0.139315,0.073586,-0.071612,-0.808252,-0.431654,-60.472370,0.863916,-0.007991,0.000297,-0.503573
3118,0.070296,-0.144049,9.915816,-0.211905,0.119671,-0.065431,-0.814089,-0.428466,-60.474693,0.863906,-0.008020,0.000347,-0.503590
3119,0.068732,-0.135696,9.916370,-0.170196,0.154704,-0.066145,-0.820440,-0.423925,-60.476952,0.863896,-0.008048,0.000410,-0.503607
3120,0.070660,-0.118788,9.915764,0.304500,0.035675,-0.068487,-0.818185,-0.420784,-60.479233,0.863886,-0.008018,0.000423,-0.503624
3121,0.070984,-0.131190,9.922185,-0.660892,-0.037207,-0.046829,-0.824110,-0.420837,-60.481171,0.863877,-0.008062,0.000449,-0.503638
3122,0.079021,-0.178663,9.918344,-2.832133,-0.397954,-0.017861,-0.882320,-0.428105,-60.482136,0.863868,-0.008533,0.000650,-0.503646
3123,0.079229,-0.188931,9.913914,-2.257532,-0.323356,-0.033997,-0.967143,-0.440140,-60.482807,0.863858,-0.009226,0.000933,-0.503651
3124,0.076877,-0.166169,9.913336,-0.101467,-0.115157,-0.051756,-1.006449,-0.447472,-60.484112,0.863848,-0.009554,0.001050,-0.503661
3125,0.081753,-0.169641,9.919578,-0.230978,-0.294043,-0.050817,-1.011978,-0.454320,-60.485703,0.863840,-0.009626,0.001023,-0.503673
3126,0.068421,-0.179648,9.922975,-1.340428,0.357803,-0.031489,-1.038157,-0.453283,-60.487095,0.863832,-0.009819,0.001146,-0.503683
3127,0.055163,-0.267481,9.931133,-5.789344,0.994849,-0.018025,-1.156977,-0.430758,-60.488350,0.863817,-0.010615,0.001838,-0.503690
3128,0.056161,-0.260835,9.930171,-5.353465,0.739057,0.029806,-1.342687,-0.401863,-60.488796,0.863800,-0.011888,0.002872,-0.503687
3129,0.060591,-0.304383,9.931678,-6.236935,0.288479,1.030873,-1.535978,-0.384300,-60.471546,0.863855,-0.013269,0.003852,-0.503550
3130,0.054287,-0.324292,9.931129,-5.226113,0.404844,1.960365,-1.727357,-0.371342,-60.422054,0.864051,-0.014657,0.004785,-0.503169
3131,0.069929,-0.334427,9.920109,-3.540197,-0.435720,2.486100,-1.873940,-0.369545,-60.347954,0.864357,-0.015757,0.005432,-0.502603
3132,0.080973,-0.260710,9.913148,1.605122,-1.024797,2.598726,-1.906764,-0.391093,-60.262459,0.864725,-0.016104,0.005401,-0.501959
3133,0.077667,-0.275073,9.915411,1.789886,-0.651217,2.561927,-1.850796,-0.416224,-60.175583,0.865110,-0.015795,0.004954,-0.501308
3134,0.074520,-0.279800,9.913799,1.428498,-0.266445,1.610976,-1.797670,-0.429298,-60.105583,0.865422,-0.015454,0.004614,-0.500783
3135,0.077490,-0.282793,9.910245,1.194350,-0.206212,0.665883,-1.754243,-0.435997,-60.067398,0.865594,-0.015157,0.004368,-0.500497
3136,0.070357,-0.270704,9.910931,1.960122,0.249760,0.087224,-1.701764,-0.434896,-60.054882,0.865656,-0.014756,0.004146,-0.500405
3137,0.069911,-0.245183,9.917009,2.881526,0.319789,-0.068745,-1.621070,-0.425401,-60.054855,0.865667,-0.014105,0.003865,-0.500406
3138,0.074917,-0.250565,9.915908,1.742903,-0.018053,-0.072048,-1.543978,-0.420440,-60.057335,0.865666,-0.013501,0.003566,-0.500427
3139,0.078069,-0.243298,9.914622,1.308313,-0.211240,-0.111068,-1.493103,-0.424341,-60.060287,0.865659,-0.013133,0.003315,-0.500451
3140,0.080958,-0.238105,9.917072,0.993825,-0.335152,-0.099988,-1.454709,-0.433536,-60.063576,0.865648,-0.012883,0.003078,-0.500478
3141,0.087330,-0.241923,9.919607,0.314012,-0.561149,-0.083311,-1.432891,-0.448546,-60.066242,0.865637,-0.012784,0.002870,-0.500500
3142,0.085389,-0.241487,9.920775,0.067225,-0.403347,-0.065376,-1.426521,-0.464678,-60.068325,0.865628,-0.012806,0.002720,-0.500517
3143,0.088068,-0.258101,9.917489,-0.577258,-0.390781,-0.035082,-1.435010,-0.477951,-60.069668,0.865620,-0.012928,0.002657,-0.500528
3144,0.084116,-0.271182,9.921785,-0.628318,-0.112335,-0.053775,-1.455092,-0.486371,-60.070927,0.865611,-0.013117,0.002681,-0.500538
3145,0.080658,-0.256229,9.922531,0.754710,0.056032,-0.085454,-1.452966,-0.487368,-60.073223,0.865601,-0.013105,0.002665,-0.500555
3146,0.075305,-0.235603,9.924435,1.817474,0.264624,-0.074550,-1.410073,-0.482092,-60.076035,0.865594,-0.012758,0.002518,-0.500577
3147,0.076887,-0.214663,9.918751,2.060678,0.188002,-0.075739,-1.345415,-0.474610,-60.078705,0.865590,-0.012237,0.002292,-0.500598
3148,0.066757,-0.184310,9.926691,2.081299,0.560977,-0.084596,-1.276357,-0.462192,-60.081669,0.865586,-0.011661,0.002085,-0.500621
3149,0.070583,-0.188336,9.922914,0.500491,0.184227,0.030878,-1.233319,-0.449794,-60.082844,0.865586,-0.011282,0.001990,-0.500630
3150,0.069031,-0.210966,9.919564,-1.621069,0.140934,0.116201,-1.252013,-0.444323,-60.080505,0.865595,-0.011399,0.002113,-0.500611
3151,0.076708,-0.249372,9.915215,-3.203858,-0.202788,0.374570,-1.332492,-0.445169,-60.072308,0.865622,-0.012011,0.002457,-0.500548
3152,0.074200,-0.285257,9.916457,-3.314745,-0.009556,0.411462,-1.441239,-0.448390,-60.059116,0.865668,-0.012847,0.002907,-0.500446
3153,0.079452,-0.281217,9.914013,-1.215515,-0.122092,0.360132,-1.516844,-0.450252,-60.046204,0.865715,-0.013426,0.003221,-0.500346
3154,0.077623,-0.264245,9.916230,0.413951,0.072486,0.285688,-1.530288,-0.450794,-60.035427,0.865761,-0.013530,0.003275,-0.500265
3155,0.081577,-0.267520,9.919683,0.593072,-0.051849,0.304716,-1.513581,-0.450190,-60.025597,0.865806,-0.013402,0.003205,-0.500191
3156,0.076994,-0.246210,9.917260,1.438500,0.163381,0.038175,-1.479767,-0.448183,-60.019936,0.865834,-0.013138,0.003072,-0.500149
3157,0.077990,-0.233263,9.918694,1.331403,0.022514,-0.006672,-1.433605,-0.445073,-60.019485,0.865842,-0.012775,0.002894,-0.500146
3158,0.077962,-0.252958,9.914884,-0.288857,-0.100107,0.032085,-1.416232,-0.446355,-60.019024,0.865846,-0.012650,0.002808,-0.500143
3159,0.081544,-0.261264,9.915690,-0.620309,-0.232653,0.010943,-1.431392,-0.451882,-60.018177,0.865847,-0.012788,0.002833,-0.500137
3160,0.081468,-0.246837,9.915174,0.196507,-0.151427,-0.075834,-1.438448,-0.458308,-60.019096,0.865842,-0.012870,0.002815,-0.500144
3161,0.077466,-0.247815,9.919441,0.071826,0.032249,-0.089053,-1.433954,-0.460363,-60.021797,0.865830,-0.012845,0.002780,-0.500165
3162,0.076453,-0.244110,9.919536,0.147468,0.075399,-0.105412,-1.430273,-0.458650,-60.025085,0.865817,-0.012809,0.002777,-0.500190
3163,0.076482,-0.237824,9.919641,0.398751,0.069932,-0.113674,-1.421140,-0.456319,-60.028786,0.865802,-0.012730,0.002756,-0.500218
3164,0.073451,-0.233126,9.917406,0.527218,0.173928,-0.093735,-1.405679,-0.452342,-60.032352,0.865788,-0.012596,0.002718,-0.500245
3165,0.072327,-0.239772,9.918727,0.067839,0.169050,-0.093405,-1.395736,-0.446703,-60.035610,0.865776,-0.012496,0.002718,-0.500269
3166,0.079790,-0.239299,9.916090,-0.047751,-0.197250,-0.096771,-1.395376,-0.447250,-60.038757,0.865762,-0.012496,0.002713,-0.500293
3167,0.080259,-0.248012,9.917083,-0.337369,-0.195293,-0.088268,-1.401772,-0.453866,-60.041687,0.865748,-0.012573,0.002691,-0.500316
3168,0.082281,-0.251838,9.913513,-0.327367,-0.218201,-0.085195,-1.412829,-0.460827,-60.044407,0.865734,-0.012687,0.002687,-0.500336
3169,0.081166,-0.250917,9.915177,-0.021895,-0.116244,-0.132617,-1.418622,-0.466489,-60.047890,0.865718,-0.012755,0.002670,-0.500363
3170,0.079530,-0.236404,9.914632,0.823007,-0.001504,-0.136613,-1.405234,-0.468561,-60.052338,0.865700,-0.012663,0.002596,-0.500397
3171,0.073523,-0.237090,9.916211,0.628394,0.286855,-0.117124,-1.381009,-0.463909,-60.056683,0.865684,-0.012459,0.002526,-0.500430
3172,0.074943,-0.235320,9.915751,0.336185,0.193745,-0.088089,-1.364903,-0.455983,-60.060284,0.865670,-0.012303,0.002516,-0.500457
3173,0.078286,-0.236175,9.917622,0.109841,-0.008454,-0.085395,-1.357446,-0.452965,-60.063255,0.865658,-0.012233,0.002507,-0.500479
3174,0.077664,-0.234095,9.917123,-0.067817,-0.012231,-0.058088,-1.356727,-0.453366,-60.065636,0.865648,-0.012230,0.002501,-0.500498
3175,0.079218,-0.248396,9.914775,-0.850121,-0.076040,-0.044212,-1.372012,-0.454878,-60.067307,0.865639,-0.012352,0.002556,-0.500510
3176,0.080578,-0.251396,9.914806,-0.403668,-0.117370,-0.060414,-1.392896,-0.458142,-60.068970,0.865629,-0.012524,0.002623,-0.500522
3177,0.077290,-0.278829,9.911919,-0.730509,0.016140,-0.071804,-1.411781,-0.459883,-60.071136,0.865618,-0.012674,0.002692,-0.500538
3179,0.078379,-0.262283,9.911659,0.216590,-0.026434,-0.091152,-1.420325,-0.460122,-60.073853,0.865605,-0.012739,0.002728,-0.500559
3180,0.079902,-0.249349,9.909728,0.986524,-0.103747,-0.100359,-1.400248,-0.462369,-60.076984,0.865593,-0.012598,0.002624,-0.500583
3181,0.080791,-0.236064,9.909834,1.539069,-0.134656,-0.117782,-1.358126,-0.466428,-60.080528,0.865582,-0.012297,0.002410,-0.500611
3182,0.084793,-0.214106,9.910096,1.855040,-0.274216,-0.115092,-1.301527,-0.473331,-60.084244,0.865571,-0.011900,0.002111,-0.500641
3183,0.090597,-0.161253,9.913091,3.092699,-0.442951,-0.132133,-1.219032,-0.485372,-60.088100,0.865561,-0.011329,0.001660,-0.500672
3184,0.080266,-0.165021,9.918455,1.773465,0.094304,-0.112252,-1.137896,-0.491265,-60.092056,0.865552,-0.010742,0.001261,-0.500703
3185,0.076518,-0.180566,9.919268,-0.207753,0.325404,-0.072634,-1.111773,-0.484332,-60.095272,0.865540,-0.010514,0.001199,-0.500727
3186,0.076254,-0.191656,9.915071,-1.272323,0.313755,-0.049796,-1.136422,-0.473721,-60.097527,0.865529,-0.010654,0.001388,-0.500743
3187,0.073788,-0.210569,9.913383,-1.937702,0.340312,-0.045779,-1.189908,-0.462855,-60.099339,0.865517,-0.011010,0.001704,-0.500756
3188,0.067230,-0.228511,9.911860,-2.298041,0.538330,-0.040329,-1.260490,-0.448245,-60.101097,0.865504,-0.011480,0.002123,-0.500767
3189,0.076177,-0.230343,9.908291,-1.629826,0.065663,-0.045783,-1.325942,-0.438214,-60.102745,0.865490,-0.011930,0.002484,-0.500777
3190,0.080402,-0.232127,9.908010,-0.789476,-0.201425,-0.045184,-1.366252,-0.440511,-60.104206,0.865479,-0.012245,0.002643,-0.500788
3191,0.080303,-0.228267,9.911132,-0.055253,-0.194041,-0.054304,-1.380319,-0.447140,-60.105713,0.865471,-0.012380,0.002655,-0.500799
3192,0.079860,-0.230142,9.910406,0.014087,-0.136088,-0.043855,-1.380993,-0.452680,-60.107216,0.865464,-0.012409,0.002616,-0.500811
3193,0.076559,-0.243120,9.910978,-0.355949,0.033311,-0.052412,-1.386679,-0.454431,-60.108780,0.865456,-0.012460,0.002628,-0.500823
3194,0.072569,-0.249132,9.910920,0.069278,0.159644,-0.055738,-1.391442,-0.451260,-60.110657,0.865448,-0.012482,0.002673,-0.500837
3195,0.070329,-0.218330,9.911410,2.169781,0.197757,-0.096196,-1.354104,-0.445366,-60.113335,0.865441,-0.012174,0.002555,-0.500857
3196,0.071492,-0.210835,9.914909,2.610004,0.089154,-0.112454,-1.274412,-0.440664,-60.116905,0.865433,-0.011551,0.002242,-0.500886
3197,0.075168,-0.204331,9.919781,2.391129,-0.092459,-0.129720,-1.191029,-0.440806,-60.120945,0.865424,-0.010922,0.001877,-0.500918
3198,0.081843,-0.188697,9.923842,2.495989,-0.369139,-0.125065,-1.109546,-0.448584,-60.125038,0.865413,-0.010341,0.001462,-0.500950
3199,0.085794,-0.173708,9.926168,2.308679,-0.429422,-0.131739,-1.029436,-0.461970,-60.129066,0.865402,-0.009794,0.001012,-0.500982
3200,0.090217,-0.192690,9.929065,0.293864,-0.486005,-0.114653,-0.986028,-0.477297,-60.132904,0.865387,-0.009533,0.000706,-0.501012
3201,0.088979,-0.191539,9.930726,-0.313329,-0.313018,-0.106287,-0.986324,-0.490676,-60.136356,0.865371,-0.009594,0.000607,-0.501039
3202,0.085720,-0.177430,9.926658,0.316287,-0.080113,-0.111689,-0.986244,-0.497290,-60.139877,0.865356,-0.009622,0.000557,-0.501066
3203,0.084562,-0.170594,9.925415,0.433759,0.009473,-0.104819,-0.973712,-0.498529,-60.143459,0.865341,-0.009533,0.000493,-0.501093
3204,0.078931,-0.175153,9.921227,-0.015083,0.235127,-0.084716,-0.966706,-0.494506,-60.146687,0.865328,-0.009463,0.000493,-0.501117
3205,0.076907,-0.173234,9.918294,0.017399,0.290969,-0.085634,-0.966642,-0.485787,-60.149673,0.865315,-0.009424,0.000559,-0.501139
3206,0.075882,-0.173395,9.914660,-0.086792,0.282543,-0.087463,-0.967773,-0.476279,-60.152721,0.865302,-0.009391,0.000636,-0.501162
3207,0.072543,-0.174507,9.914482,-0.226270,0.344948,-0.075350,-0.972967,-0.465868,-60.155617,0.865290,-0.009385,0.000737,-0.501183
3208,0.074121,-0.172522,9.911132,0.083261,0.234810,-0.092364,-0.975327,-0.456254,-60.158577,0.865278,-0.009360,0.000821,-0.501205
3209,0.075499,-0.159925,9.911247,0.755948,0.117972,-0.097140,-0.961314,-0.450429,-60.161839,0.865265,-0.009229,0.000803,-0.501230
3210,0.074768,-0.156466,9.908575,0.750399,0.102922,-0.088500,-0.936183,-0.446799,-60.164982,0.865253,-0.009023,0.000721,-0.501253
3211,0.077380,-0.154092,9.908014,0.574157,-0.045147,-0.077843,-0.914086,-0.445881,-60.167774,0.865243,-0.008853,0.000632,-0.501275
3212,0.079776,-0.165894,9.911459,-0.096966,-0.152017,-0.077618,-0.906113,-0.449207,-60.170303,0.865232,-0.008807,0.000572,-0.501294
3213,0.076407,-0.153814,9.917274,0.437174,0.007824,-0.072351,-0.900423,-0.451650,-60.172779,0.865222,-0.008775,0.000529,-0.501313
3214,0.078670,-0.153418,9.917917,0.224573,-0.077048,-0.079448,-0.889374,-0.452843,-60.175293,0.865211,-0.008696,0.000472,-0.501332
3215,0.076775,-0.160169,9.923081,-0.268819,0.001892,-0.063152,-0.890093,-0.454132,-60.177643,0.865201,-0.008708,0.000465,-0.501350
3216,0.078164,-0.155957,9.922374,0.020355,-0.040843,-0.074422,-0.894216,-0.454817,-60.179928,0.865191,-0.008742,0.000478,-0.501367
3217,0.082080,-0.150547,9.919781,0.174691,-0.198218,-0.069625,-0.890947,-0.458838,-60.182259,0.865180,-0.008735,0.000434,-0.501385
3218,0.083083,-0.159044,9.916686,-0.457625,-0.230006,-0.057733,-0.895646,-0.466008,-60.184265,0.865171,-0.008801,0.000400,-0.501400
3219,0.081900,-0.171269,9.919343,-0.953860,-0.140286,-0.055488,-0.919156,-0.472208,-60.186050,0.865161,-0.009006,0.000457,-0.501414
3220,0.084512,-0.168202,9.918057,-0.487803,-0.183065,-0.081702,-0.943166,-0.477634,-60.188255,0.865149,-0.009211,0.000521,-0.501430
3221,0.080456,-0.167364,9.915813,-0.231010,0.030363,-0.073967,-0.955125,-0.480222,-60.190804,0.865137,-0.009313,0.000554,-0.501450
3222,0.078158,-0.165433,9.915285,-0.022298,0.148896,-0.068867,-0.959326,-0.477274,-60.193230,0.865126,-0.009331,0.000595,-0.501468
3223,0.077280,-0.175834,9.911438,-0.446781,0.164132,-0.059238,-0.967126,-0.472094,-60.195457,0.865116,-0.009368,0.000668,-0.501484
3224,0.074141,-0.164729,9.910391,0.091376,0.265289,-0.058811,-0.973032,-0.464971,-60.197548,0.865107,-0.009381,0.000748,-0.501500
3225,0.072625,-0.171134,9.913873,-0.358963,0.264144,-0.033916,-0.977478,-0.456175,-60.199242,0.865099,-0.009376,0.000834,-0.501512
3226,0.073656,-0.192013,9.921170,-1.271876,0.164660,-0.030727,-1.004650,-0.449048,-60.200447,0.865092,-0.009550,0.001007,-0.501521
3227,0.076388,-0.180333,9.919747,-0.449149,0.014677,-0.053996,-1.033322,-0.446084,-60.201908,0.865084,-0.009753,0.001155,-0.501531
3228,0.075722,-0.161357,9.922462,0.614947,0.029366,-0.084293,-1.030540,-0.445392,-60.204227,0.865074,-0.009729,0.001148,-0.501549
3229,0.078455,-0.175280,9.921098,0.117476,-0.081771,-0.084889,-1.018311,-0.446315,-60.207035,0.865063,-0.009641,0.001088,-0.501570
3230,0.079070,-0.166549,9.919764,0.882846,-0.085359,-0.101023,-1.001616,-0.449155,-60.210083,0.865050,-0.009527,0.000993,-0.501593
3231,0.073148,-0.143174,9.916710,2.133400,0.188221,-0.099932,-0.951318,-0.447498,-60.213459,0.865040,-0.009141,0.000786,-0.501619
3232,0.071996,-0.149460,9.919716,1.475824,0.217980,-0.096271,-0.891139,-0.440781,-60.216839,0.865030,-0.008657,0.000574,-0.501645
3233,0.074376,-0.156861,9.919896,0.638123,0.064127,-0.070229,-0.855884,-0.436122,-60.219685,0.865021,-0.008370,0.000455,-0.501666
3234,0.073482,-0.143964,9.919368,0.665145,0.061385,-0.063168,-0.834146,-0.434063,-60.221935,0.865012,-0.008197,0.000375,-0.501683
3235,0.074158,-0.148611,9.918548,-0.168226,0.002614,-0.052069,-0.825849,-0.433025,-60.223873,0.865005,-0.008130,0.000347,-0.501698
3236,0.078569,-0.154353,9.917556,-0.756670,-0.197041,-0.040352,-0.841253,-0.436287,-60.225361,0.864997,-0.008261,0.000390,-0.501709
3237,0.074749,-0.147903,9.918436,-0.401356,-0.021026,-0.040568,-0.860544,-0.439942,-60.226654,0.864990,-0.008422,0.000447,-0.501719
3238,0.074109,-0.159974,9.924959,-0.684495,0.033945,-0.034019,-0.878632,-0.439745,-60.227905,0.864983,-0.008558,0.000527,-0.501728
3239,0.074287,-0.161327,9.930751,-0.169373,0.043947,-0.040782,-0.892853,-0.438466,-60.229168,0.864976,-0.008660,0.000599,-0.501738
3240,0.071890,-0.142417,9.928735,1.205220,0.148016,-0.056688,-0.875576,-0.435292,-60.230854,0.864970,-0.008515,0.000548,-0.501750
3241,0.075161,-0.135841,9.928177,1.345108,-0.017139,-0.067799,-0.833055,-0.433142,-60.232956,0.864964,-0.008185,0.000378,-0.501766
3242,0.076330,-0.142912,9.928937,0.687654,-0.077677,-0.039865,-0.799162,-0.434748,-60.234730,0.864959,-0.007936,0.000218,-0.501780
3243,0.074450,-0.123779,9.924038,1.091001,0.000342,-0.044213,-0.769507,-0.436056,-60.236115,0.864955,-0.007718,0.000078,-0.501791
3244,0.074649,-0.128668,9.923329,0.139329,-0.024713,-0.033517,-0.748992,-0.436479,-60.237400,0.864950,-0.007565,-0.000015,-0.501800
3245,0.075570,-0.150652,9.922555,-1.247136,-0.079051,-0.029168,-0.767447,-0.438222,-60.238419,0.864945,-0.007712,0.000053,-0.501808
3246,0.071704,-0.149439,9.923446,-0.972446,0.091193,-0.037404,-0.804432,-0.438035,-60.239529,0.864937,-0.007990,0.000216,-0.501816
3247,0.072930,-0.150932,9.922989,-0.681227,0.041796,-0.054785,-0.831981,-0.435841,-60.241104,0.864929,-0.008189,0.000354,-0.501828
3248,0.074186,-0.154981,9.923021,-0.401834,-0.009004,-0.063557,-0.850017,-0.435323,-60.243080,0.864919,-0.008322,0.000437,-0.501843
3249,0.072853,-0.156214,9.916735,-0.063998,0.054660,-0.074057,-0.857763,-0.434597,-60.245388,0.864908,-0.008378,0.000476,-0.501860
3250,0.070732,-0.143441,9.918353,0.603725,0.138892,-0.080220,-0.848748,-0.431409,-60.248005,0.864897,-0.008296,0.000461,-0.501880
3251,0.068522,-0.141608,9.920237,0.565507,0.212601,-0.082380,-0.829240,-0.425591,-60.250805,0.864887,-0.008123,0.000420,-0.501901
3252,0.062735,-0.135576,9.916502,0.567007,0.407955,-0.085019,-0.810343,-0.415290,-60.253746,0.864876,-0.007935,0.000415,-0.501923
3253,0.060130,-0.137607,9.916219,0.146505,0.432056,-0.087659,-0.798430,-0.401331,-60.256828,0.864864,-0.007784,0.000468,-0.501946
3254,0.059437,-0.134454,9.919693,0.076573,0.357217,-0.081383,-0.794691,-0.388217,-60.259830,0.864852,-0.007698,0.000551,-0.501968
3255,0.058145,-0.134722,9.918104,-0.185579,0.303633,-0.074041,-0.796489,-0.377240,-60.262562,0.864840,-0.007664,0.000642,-0.501988
3256,0.062446,-0.139431,9.915301,-0.429047,0.049207,-0.073269,-0.806717,-0.371394,-60.265102,0.864829,-0.007715,0.000731,-0.502007
3257,0.065493,-0.138067,9.918968,-0.211731,-0.115462,-0.068757,-0.817381,-0.372532,-60.267452,0.864818,-0.007801,0.000769,-0.502025
3258,0.073883,-0.138254,9.919242,-0.161253,-0.448149,-0.047989,-0.823585,-0.381953,-60.269264,0.864809,-0.007889,0.000726,-0.502039
3259,0.077731,-0.131309,9.919898,0.230482,-0.539180,-0.033191,-0.822424,-0.398426,-60.270390,0.864803,-0.007952,0.000596,-0.502048
3260,0.081660,-0.133071,9.923589,0.266146,-0.575475,-0.002866,-0.814144,-0.417010,-60.270721,0.864801,-0.007971,0.000420,-0.502051
3261,0.084890,-0.143121,9.925599,-0.317226,-0.586015,0.070648,-0.815006,-0.436350,-60.269318,0.864806,-0.008063,0.000277,-0.502041
3262,0.087793,-0.154117,9.926280,-0.730617,-0.569312,0.152086,-0.832501,-0.455550,-60.265320,0.864821,-0.008279,0.000209,-0.502012
3263,0.082676,-0.152961,9.922448,-0.238935,-0.215855,0.224388,-0.848712,-0.468543,-60.258854,0.864848,-0.008458,0.000181,-0.501963
3264,0.083958,-0.156444,9.920070,0.072474,-0.151610,0.327465,-0.851563,-0.474530,-60.249569,0.864888,-0.008506,0.000148,-0.501893
3265,0.085438,-0.145398,9.914527,0.856007,-0.150117,0.433235,-0.836194,-0.479372,-60.236824,0.864944,-0.008411,0.000043,-0.501797
3266,0.080394,-0.136300,9.914535,1.305643,0.098425,0.625297,-0.800314,-0.479982,-60.219162,0.865024,-0.008143,-0.000120,-0.501664
3267,0.078830,-0.133437,9.912089,1.103408,0.149906,1.118654,-0.760405,-0.475448,-60.190163,0.865154,-0.007822,-0.000262,-0.501445
3268,0.074662,-0.128848,9.914052,0.913110,0.244678,2.204552,-0.727252,-0.468151,-60.134861,0.865399,-0.007539,-0.000356,-0.501027
3269,0.072713,-0.117022,9.912904,0.995601,0.198908,4.102506,-0.696290,-0.459449,-60.029842,0.865860,-0.007267,-0.000432,-0.500233
3270,0.066149,-0.105833,9.916615,1.121825,0.320691,6.759609,-0.662435,-0.448640,-59.848923,0.866652,-0.006963,-0.000509,-0.498865
3271,0.066269,-0.106177,9.916980,1.089418,0.157975,9.418596,-0.627666,-0.437622,-59.579376,0.867825,-0.006651,-0.000593,-0.496825
3272,0.060230,-0.076044,9.915475,1.785274,-0.062110,11.826851,-0.582447,-0.432277,-59.225323,0.869359,-0.006283,-0.000768,-0.494141
3273,0.063048,-0.071108,9.914671,1.731444,-0.189729,13.579623,-0.527037,-0.432384,-58.801849,0.871182,-0.005859,-0.001029,-0.490924
3274,0.060203,-0.075223,9.916557,1.563038,-0.131536,13.861260,-0.475590,-0.433728,-58.344471,0.873137,-0.005469,-0.001282,-0.487443
3276,0.063597,-0.074252,9.912881,1.258680,-0.203514,14.282827,-0.432118,-0.435589,-57.875374,0.875127,-0.005139,-0.001502,-0.483864
3277,0.062099,-0.069050,9.911878,0.894261,-0.172875,14.702910,-0.399923,-0.438343,-57.392239,0.877161,-0.004898,-0.001680,-0.480169
3278,0.067825,-0.076730,9.913084,0.568420,-0.288018,15.138951,-0.379368,-0.442628,-56.894817,0.879237,-0.004751,-0.001819,-0.476357
3279,0.067578,-0.070084,9.915474,0.316883,-0.250872,15.716881,-0.368616,-0.448240,-56.380501,0.881367,-0.004683,-0.001928,-0.472406
3280,0.068045,-0.070994,9.917292,-0.314189,-0.289209,17.809402,-0.372967,-0.453615,-55.821690,0.883659,-0.004729,-0.001975,-0.468102
3281,0.063893,-0.075602,9.918794,-0.246977,-0.239602,19.945486,-0.387328,-0.458227,-55.192390,0.886216,-0.004848,-0.001978,-0.463243
3282,0.063853,-0.080380,9.917960,-0.096659,-0.250152,21.343813,-0.398576,-0.461675,-54.504196,0.888981,-0.004937,-0.001989,-0.457912
3283,0.053643,-0.079119,9.926689,-0.125056,-0.041291,21.804186,-0.408064,-0.461478,-53.785057,0.891837,-0.004997,-0.001981,-0.452325
3284,0.052916,-0.081902,9.930057,0.482654,-0.058847,22.019714,-0.407953,-0.457944,-53.054676,0.894702,-0.004970,-0.001986,-0.446631
3285,0.050213,-0.078223,9.930964,1.356237,0.008011,20.955843,-0.383006,-0.453880,-52.338432,0.897478,-0.004747,-0.002081,-0.441030
3286,0.054701,-0.067645,9.933671,1.565257,-0.027736,18.582582,-0.339511,-0.450102,-51.679485,0.900001,-0.004379,-0.002244,-0.435861
3287,0.056943,-0.045565,9.939565,1.869989,-0.042699,16.978867,-0.286905,-0.448054,-51.086788,0.902245,-0.003945,-0.002448,-0.431199
3288,0.062702,-0.039795,9.933390,1.893395,-0.125554,16.426012,-0.228539,-0.448374,-50.530022,0.904331,-0.003474,-0.002687,-0.426809
3289,0.062337,-0.027258,9.929739,2.018354,-0.088468,16.312435,-0.167626,-0.450058,-49.984371,0.906355,-0.002985,-0.002942,-0.422496
3290,0.068880,-0.020580,9.918033,1.712222,-0.211716,16.545809,-0.109769,-0.453741,-49.436718,0.908365,-0.002526,-0.003196,-0.418158
3291,0.064947,-0.016099,9.920482,0.922926,-0.086887,16.769461,-0.070273,-0.457832,-48.881466,0.910381,-0.002211,-0.003384,-0.413751
3292,0.060869,-0.003288,9.916281,0.266952,0.030779,17.003414,-0.054936,-0.458119,-48.318573,0.912403,-0.002074,-0.003451,-0.409273
3293,0.064157,-0.019086,9.911436,-0.620614,-0.039837,17.714264,-0.065450,-0.457635,-47.739948,0.914458,-0.002138,-0.003421,-0.404661
3294,0.060026,-0.026940,9.914753,-1.436893,0.022698,18.643152,-0.104580,-0.456985,-47.133987,0.916584,-0.002431,-0.003290,-0.399821
3295,0.049531,-0.029419,9.921920,-1.294782,0.206059,20.057632,-0.155219,-0.451676,-46.488979,0.918819,-0.002800,-0.003087,-0.394657
3296,0.057682,-0.047989,9.923556,-1.291350,-0.037982,22.018497,-0.203810,-0.446689,-45.787731,0.921216,-0.003155,-0.002899,-0.389028
3297,0.060466,-0.074072,9.930778,-1.450540,-0.159545,23.350407,-0.255416,-0.446957,-45.031590,0.923761,-0.003553,-0.002750,-0.382942
3298,0.060148,-0.065197,9.935933,-1.131390,-0.201822,24.052923,-0.304631,-0.449115,-44.241528,0.926378,-0.003939,-0.002630,-0.376565
3299,0.065026,-0.065723,9.930600,-0.845427,-0.311655,24.158308,-0.343906,-0.453145,-43.437992,0.928994,-0.004251,-0.002563,-0.370061
3300,0.065587,-0.074189,9.933281,-1.208177,-0.309978,23.374460,-0.384441,-0.458487,-42.645752,0.931529,-0.004580,-0.002507,-0.363631
3301,0.052391,-0.074377,9.925692,-0.880571,-0.025609,21.909071,-0.425293,-0.458724,-41.891018,0.933902,-0.004897,-0.002412,-0.357488
3302,0.049416,-0.077161,9.918414,-0.497449,0.039308,21.033342,-0.453939,-0.453019,-41.175343,0.936115,-0.005098,-0.002308,-0.351649
3303,0.039172,-0.077676,9.922809,-0.092576,0.219332,20.840616,-0.469226,-0.443105,-40.477512,0.938239,-0.005180,-0.002212,-0.345942
3304,0.042121,-0.075516,9.924062,0.621257,0.068870,21.606848,-0.465811,-0.432550,-39.770123,0.940357,-0.005106,-0.002167,-0.340144
3305,0.042725,-0.064699,9.921396,1.482189,-0.007809,22.389196,-0.436255,-0.425796,-39.036900,0.942516,-0.004830,-0.002230,-0.334119
3306,0.055643,-0.070047,9.920197,1.462805,-0.246771,22.026661,-0.392671,-0.424728,-38.296623,0.944656,-0.004453,-0.002377,-0.328022
3307,0.053977,-0.059624,9.917372,1.325322,-0.159072,20.796261,-0.351521,-0.426857,-37.582886,0.946683,-0.004104,-0.002538,-0.322131
3308,0.061548,-0.080238,9.911170,0.204986,-0.219959,18.786566,-0.330942,-0.429242,-36.923168,0.948522,-0.003926,-0.002639,-0.316675
3309,0.056340,-0.105914,9.915233,-1.269274,0.004150,15.870956,-0.353011,-0.429341,-36.345531,0.950106,-0.004095,-0.002599,-0.311891
3310,0.057698,-0.120760,9.918787,-1.920407,0.041621,13.429593,-0.409805,-0.425262,-35.857204,0.951424,-0.004545,-0.002430,-0.307840
3311,0.045646,-0.108763,9.919866,-1.286869,0.255941,12.746120,-0.466464,-0.416934,-35.420990,0.952587,-0.004985,-0.002228,-0.304217
3312,0.042521,-0.106390,9.918117,-0.600150,0.254861,13.295917,-0.501018,-0.404774,-34.987034,0.953731,-0.005232,-0.002055,-0.300608
3313,0.044856,-0.100074,9.916216,0.291931,0.143701,14.218340,-0.509352,-0.394112,-34.528534,0.954926,-0.005265,-0.001965,-0.296789
3314,0.037276,-0.086739,9.913276,0.939626,0.236689,15.488437,-0.492189,-0.383475,-34.033493,0.956201,-0.005086,-0.001943,-0.292661
3315,0.041437,-0.083985,9.912983,0.689546,0.080310,17.350397,-0.468650,-0.373624,-33.486244,0.957589,-0.004856,-0.001944,-0.288090
3316,0.046267,-0.073969,9.917506,0.383202,-0.094061,19.309145,-0.454737,-0.368917,-32.875267,0.959112,-0.004717,-0.001965,-0.282980
3317,0.057463,-0.074993,9.923616,0.211001,-0.380383,20.775526,-0.449159,-0.371538,-32.207165,0.960746,-0.004665,-0.002028,-0.277383
3318,0.058063,-0.079259,9.927855,-0.077141,-0.404165,21.299562,-0.451535,-0.379092,-31.505842,0.962425,-0.004690,-0.002114,-0.271498
3319,0.066940,-0.081289,9.929467,-0.013435,-0.559837,21.255857,-0.457803,-0.389515,-30.796488,0.964087,-0.004754,-0.002216,-0.265536
3320,0.064843,-0.085172,9.929076,0.097852,-0.476481,20.643459,-0.461224,-0.401189,-30.098068,0.965687,-0.004796,-0.002336,-0.259656
3321,0.053166,-0.106293,9.919634,-0.163171,-0.162646,19.479763,-0.467022,-0.406429,-29.429289,0.967185,-0.004843,-0.002395,-0.254015
3322,0.046893,-0.104428,9.920601,-0.344666,0.010152,18.752752,-0.479976,-0.403692,-28.792089,0.968582,-0.004933,-0.002371,-0.248634
3323,0.041303,-0.091493,9.921554,-0.156817,0.124451,18.179321,-0.492623,-0.396216,-28.176601,0.969903,-0.005011,-0.002307,-0.243428
3324,0.039233,-0.086200,9.918490,-0.241139,0.146123,18.045761,-0.503373,-0.386467,-27.572914,0.971172,-0.005070,-0.002229,-0.238315
3325,0.037296,-0.077963,9.920124,-0.174044,0.156013,17.908731,-0.514279,-0.376106,-26.973743,0.972405,-0.005130,-0.002145,-0.233233
3326,0.047145,-0.074145,9.923427,-0.045938,-0.081945,17.854128,-0.521823,-0.369486,-26.377741,0.973605,-0.005169,-0.002100,-0.228172
3327,0.049703,-0.079838,9.917703,0.059878,-0.157307,17.498562,-0.525394,-0.368094,-25.788517,0.974765,-0.005186,-0.002108,-0.223163
3328,0.051885,-0.077727,9.913881,0.242683,-0.218841,17.784655,-0.524137,-0.368982,-25.200439,0.975897,-0.005166,-0.002145,-0.218158
3329,0.043968,-0.086256,9.914240,0.044523,-0.070761,17.990227,-0.523189,-0.368367,-24.604176,0.977019,-0.005146,-0.002168,-0.213077
3330,0.043405,-0.094895,9.911839,-0.054631,-0.078432,18.586563,-0.527254,-0.365256,-23.994572,0.978139,-0.005163,-0.002161,-0.207876
3331,0.040792,-0.099233,9.914454,0.000518,-0.075812,19.672375,-0.532203,-0.361927,-23.356936,0.979281,-0.005187,-0.002153,-0.202430
3332,0.034743,-0.094929,9.914092,0.216178,-0.000123,20.992701,-0.532842,-0.356896,-22.679216,0.980461,-0.005171,-0.002139,-0.196635
3333,0.034904,-0.089571,9.914324,0.334453,-0.054407,22.030975,-0.528092,-0.351177,-21.962189,0.981672,-0.005108,-0.002131,-0.190496
3334,0.040357,-0.084005,9.913084,0.558388,-0.193852,22.761593,-0.517773,-0.348506,-21.215658,0.982893,-0.005001,-0.002158,-0.184096
3335,0.040890,-0.065816,9.916547,0.962449,-0.202909,22.644880,-0.497036,-0.348428,-20.458872,0.984088,-0.004808,-0.002222,-0.177601
3336,0.043795,-0.054562,9.920308,1.003546,-0.244717,22.241964,-0.468828,-0.349605,-19.710743,0.985228,-0.004553,-0.002306,-0.171172
3337,0.044952,-0.079775,9.923039,0.230913,-0.245354,22.086645,-0.452780,-0.351834,-18.971910,0.986312,-0.004403,-0.002377,-0.164816
3338,0.042957,-0.095785,9.919065,-0.123640,-0.195987,22.356308,-0.455550,-0.353277,-18.231176,0.987356,-0.004414,-0.002414,-0.158437
3339,0.043794,-0.097964,9.921374,-0.131678,-0.204515,22.440378,-0.464411,-0.353939,-17.484554,0.988367,-0.004475,-0.002437,-0.152001
3340,0.039634,-0.124935,9.920398,-0.740740,-0.113544,22.340551,-0.483556,-0.353065,-16.738209,0.989336,-0.004623,-0.002434,-0.145560
3341,0.037173,-0.143041,9.917503,-1.100261,-0.079187,22.762556,-0.518843,-0.349668,-15.986509,0.990268,-0.004908,-0.002392,-0.139068
3342,0.036141,-0.129559,9.917693,-0.654045,-0.083800,23.012226,-0.552705,-0.345232,-15.223627,0.991170,-0.005180,-0.002347,-0.132473
3343,0.031622,-0.136135,9.921723,-0.685859,0.001576,22.839317,-0.579600,-0.339077,-14.459480,0.992031,-0.005390,-0.002299,-0.125861
3344,0.025812,-0.126336,9.924367,-0.319952,0.080959,23.027952,-0.600820,-0.329825,-13.695102,0.992847,-0.005549,-0.002233,-0.119241
3345,0.026851,-0.101849,9.928185,0.236033,0.008132,23.623966,-0.606624,-0.320169,-12.917655,0.993634,-0.005574,-0.002181,-0.112502
3346,0.028220,-0.095548,9.926749,0.378774,-0.053252,23.355526,-0.600705,-0.312703,-12.134726,0.994379,-0.005501,-0.002159,-0.105710
3347,0.026144,-0.089559,9.923444,0.577676,-0.020703,22.523489,-0.588897,-0.306006,-11.370131,0.995063,-0.005378,-0.002148,-0.099072
3348,0.021478,-0.063240,9.921972,1.316829,0.071595,21.218372,-0.561162,-0.297854,-10.641169,0.995675,-0.005117,-0.002134,-0.092740
3349,0.025514,-0.062162,9.915174,1.486536,-0.008203,19.973862,-0.517960,-0.290375,-9.954692,0.996215,-0.004723,-0.002132,-0.086772
3350,0.021093,-0.066588,9.910043,1.413115,0.086981,18.740875,-0.472869,-0.283495,-9.309498,0.996689,-0.004314,-0.002131,-0.081161
3351,0.017464,-0.065600,9.911421,1.341183,0.163994,18.479097,-0.429980,-0.274426,-8.689228,0.997116,-0.003923,-0.002104,-0.075763
3352,0.018493,-0.068099,9.917471,0.743146,0.113331,18.550957,-0.398145,-0.265342,-8.072124,0.997511,-0.003629,-0.002065,-0.070392
3353,0.028833,-0.079303,9.918046,-0.101332,-0.127389,18.764172,-0.390309,-0.261270,-7.450231,0.997878,-0.003547,-0.002054,-0.064977
3354,0.029938,-0.091605,9.920023,-1.004342,-0.172941,19.051996,-0.411625,-0.261827,-6.819956,0.998220,-0.003722,-0.002067,-0.059488
3355,0.035076,-0.088841,9.918422,-1.274051,-0.302369,19.702358,-0.452568,-0.264836,-6.174023,0.998538,-0.004068,-0.002095,-0.053861
3356,0.036555,-0.093109,9.919785,-1.616647,-0.364311,20.126318,-0.503852,-0.270396,-5.510158,0.998831,-0.004505,-0.002146,-0.048076
3357,0.033579,-0.117507,9.917256,-1.793695,-0.313810,20.470503,-0.563915,-0.275378,-4.833487,0.999095,-0.005018,-0.002193,-0.042179
3358,0.029652,-0.143777,9.916041,-1.761101,-0.230716,20.509956,-0.626452,-0.277350,-4.150439,0.999326,-0.005551,-0.002221,-0.036224
3359,0.027753,-0.137060,9.916473,-0.947174,-0.170028,19.970512,-0.674844,-0.276369,-3.475750,0.999519,-0.005960,-0.002232,-0.030341
3360,0.028662,-0.150543,9.916521,-0.812491,-0.158174,18.629805,-0.707259,-0.274118,-2.832408,0.999672,-0.006229,-0.002239,-0.024729
3361,0.029470,-0.159123,9.918845,-0.545371,-0.104339,16.232756,-0.732655,-0.271195,-2.251369,0.999784,-0.006439,-0.002241,-0.019660
3362,0.034528,-0.152970,9.919525,0.002117,-0.119018,12.984790,-0.744001,-0.268650,-1.764409,0.999857,-0.006528,-0.002244,-0.015412
3363,0.033067,-0.126344,9.919919,0.871181,0.248357,9.831584,-0.731207,-0.261617,-1.384197,0.999904,-0.006408,-0.002206,-0.012093
3364,0.033769,-0.115630,9.918943,1.163979,0.228722,6.697718,-0.698507,-0.250256,-1.108829,0.999932,-0.006116,-0.002125,-0.009689
3365,0.031324,-0.105309,9.920442,1.122710,0.317021,4.008272,-0.661156,-0.239058,-0.930515,0.999948,-0.005786,-0.002039,-0.008132
3366,0.029007,-0.093024,9.919407,1.037206,0.371961,1.974743,-0.625559,-0.226463,-0.830933,0.999957,-0.005473,-0.001937,-0.007262
3367,0.028700,-0.080051,9.911177,0.936221,0.307562,0.657360,-0.592835,-0.214676,-0.787188,0.999961,-0.005186,-0.001838,-0.006879
3368,0.031905,-0.083674,9.917027,0.065330,0.103836,-0.017894,-0.576181,-0.207714,-0.776600,0.999963,-0.005040,-0.001779,-0.006786
3369,0.031650,-0.109389,9.918408,-1.357495,0.068683,-0.226161,-0.597702,-0.204881,-0.780697,0.999962,-0.005228,-0.001752,-0.006822
3370,0.030174,-0.123501,9.918174,-1.461805,0.110073,-0.260818,-0.644661,-0.201990,-0.788846,0.999959,-0.005638,-0.001724,-0.006894
3371,0.034226,-0.120870,9.917276,-0.523744,-0.066449,-0.239872,-0.677724,-0.201359,-0.797198,0.999957,-0.005926,-0.001716,-0.006967
3372,0.033365,-0.128851,9.926800,-0.127924,-0.022527,-0.249863,-0.688557,-0.202939,-0.805343,0.999956,-0.006021,-0.001729,-0.007038
3373,0.028071,-0.123163,9.922472,1.039102,0.179049,-0.301622,-0.673338,-0.200439,-0.814565,0.999956,-0.005888,-0.001707,-0.007119
3374,0.028163,-0.087893,9.923115,3.115230,0.135092,-0.384391,-0.604059,-0.195330,-0.826056,0.999959,-0.005284,-0.001667,-0.007218
3375,0.029094,-0.066535,9.929227,3.574791,0.039585,-0.473647,-0.492511,-0.192555,-0.840383,0.999962,-0.004310,-0.001649,-0.007341
3376,0.022363,-0.049431,9.930390,3.329755,0.289135,-0.553874,-0.377378,-0.187207,-0.857549,0.999965,-0.003305,-0.001609,-0.007489
3377,0.024549,-0.044144,9.931623,2.121384,0.177347,-0.555051,-0.286467,-0.179540,-0.876078,0.999966,-0.002512,-0.001548,-0.007649
3379,0.027912,-0.051596,9.938691,0.180075,0.029923,-0.489364,-0.248055,-0.176168,-0.893501,0.999966,-0.002177,-0.001520,-0.007800
3380,0.028415,-0.091013,9.942527,-2.393834,0.027686,-0.396952,-0.284905,-0.175279,-0.908277,0.999964,-0.002498,-0.001510,-0.007930
3381,0.031200,-0.086467,9.935940,-1.938456,-0.064232,-0.343929,-0.357072,-0.175961,-0.920622,0.999962,-0.003128,-0.001510,-0.008039
3382,0.035861,-0.108044,9.933062,-2.296671,-0.249556,-0.299717,-0.427624,-0.181264,-0.931313,0.999959,-0.003744,-0.001551,-0.008133
3383,0.035303,-0.090044,9.929033,-0.504134,-0.214937,-0.271182,-0.474274,-0.189080,-0.940768,0.999956,-0.004152,-0.001616,-0.008216
3384,0.035755,-0.084127,9.925051,0.236955,-0.185187,-0.245320,-0.478698,-0.195819,-0.949322,0.999955,-0.004191,-0.001674,-0.008291
3385,0.030849,-0.059951,9.917193,1.203318,0.050079,-0.236034,-0.454666,-0.198136,-0.957326,0.999956,-0.003982,-0.001696,-0.008361
3386,0.029674,-0.064146,9.919713,0.648083,0.112623,-0.184095,-0.423785,-0.195477,-0.964349,0.999956,-0.003712,-0.001675,-0.008422
3387,0.031166,-0.042355,9.919569,1.194102,0.048965,-0.142769,-0.393064,-0.192823,-0.969817,0.999957,-0.003444,-0.001654,-0.008469
3388,0.025999,-0.049440,9.919009,0.164760,0.260638,-0.129095,-0.370401,-0.187693,-0.974382,0.999957,-0.003246,-0.001610,-0.008508
3389,0.024703,-0.030635,9.915567,0.627433,0.267700,-0.108122,-0.357185,-0.178913,-0.978392,0.999958,-0.003130,-0.001535,-0.008543
3390,0.031409,-0.045473,9.922472,-0.263614,-0.057978,-0.071276,-0.351112,-0.175436,-0.981403,0.999958,-0.003077,-0.001505,-0.008569
3391,0.033578,-0.061851,9.921103,-1.046199,-0.180870,-0.054503,-0.372936,-0.179430,-0.983474,0.999957,-0.003268,-0.001538,-0.008587
3392,0.032081,-0.083177,9.921126,-1.654879,-0.115300,-0.048701,-0.417948,-0.184378,-0.985160,0.999955,-0.003661,-0.001578,-0.008603
3393,0.031255,-0.095972,9.924516,-1.439296,-0.062097,-0.027685,-0.469514,-0.187345,-0.986410,0.999953,-0.004111,-0.001600,-0.008615
3394,0.030957,-0.140971,9.931243,-2.932766,-0.013169,-0.027158,-0.542378,-0.188607,-0.987313,0.999950,-0.004747,-0.001605,-0.008624
3395,0.029832,-0.135537,9.929041,-2.026489,0.048492,-0.044171,-0.625029,-0.188031,-0.988507,0.999946,-0.005468,-0.001594,-0.008635
3396,0.026363,-0.134798,9.927771,-1.374874,0.189063,-0.055213,-0.681713,-0.184091,-0.990208,0.999944,-0.005963,-0.001555,-0.008650
3397,0.025921,-0.142221,9.932600,-1.369968,0.202803,-0.056992,-0.727454,-0.177583,-0.992158,0.999941,-0.006361,-0.001495,-0.008668
3398,0.032214,-0.122481,9.925559,-0.405993,-0.079385,-0.070279,-0.757046,-0.175554,-0.994305,0.999939,-0.006619,-0.001475,-0.008687
3399,0.031815,-0.105767,9.920090,0.756512,-0.075132,-0.077564,-0.751197,-0.178161,-0.996736,0.999939,-0.006569,-0.001498,-0.008708
3400,0.028991,-0.107580,9.918114,0.778974,0.052464,-0.067885,-0.725598,-0.178570,-0.999155,0.999941,-0.006345,-0.001503,-0.008729
3401,0.028413,-0.112918,9.921972,0.424044,0.091364,-0.064836,-0.705541,-0.176200,-1.001397,0.999942,-0.006170,-0.001484,-0.008748
3402,0.029731,-0.104340,9.913421,0.684839,0.008277,-0.066347,-0.687053,-0.174566,-1.003604,0.999942,-0.006009,-0.001471,-0.008767
3403,0.027389,-0.117356,9.922566,0.012007,0.094137,-0.077073,-0.675431,-0.172888,-1.006014,0.999943,-0.005907,-0.001457,-0.008788
3404,0.032218,-0.118553,9.921331,-0.136626,-0.119036,-0.085246,-0.677500,-0.173335,-1.008714,0.999943,-0.005925,-0.001461,-0.008811
3405,0.033253,-0.119783,9.925691,-0.189588,-0.157176,-0.093230,-0.682928,-0.177974,-1.011634,0.999942,-0.005973,-0.001500,-0.008837
3406,0.032133,-0.120305,9.920610,-0.176719,-0.089300,-0.104567,-0.689023,-0.182121,-1.014881,0.999941,-0.006027,-0.001536,-0.008866
3407,0.030303,-0.121017,9.923593,-0.159857,0.011017,-0.101847,-0.694622,-0.183467,-1.018306,0.999941,-0.006076,-0.001547,-0.008896
3408,0.028787,-0.122569,9.922122,-0.159720,0.069342,-0.084123,-0.699938,-0.182165,-1.021421,0.999940,-0.006122,-0.001535,-0.008923
3409,0.024439,-0.122520,9.924453,-0.108698,0.234714,-0.073047,-0.704403,-0.177130,-1.024103,0.999940,-0.006161,-0.001491,-0.008946
3410,0.022388,-0.119895,9.922723,0.030834,0.271580,-0.075918,-0.705693,-0.168723,-1.026689,0.999940,-0.006171,-0.001417,-0.008968
3411,0.025928,-0.118760,9.925556,0.079501,0.070028,-0.067866,-0.703847,-0.163060,-1.029155,0.999940,-0.006155,-0.001368,-0.008990
3412,0.026517,-0.119091,9.926652,0.058346,0.014361,-0.062456,-0.701543,-0.161680,-1.031344,0.999940,-0.006135,-0.001356,-0.009009
3413,0.026248,-0.122607,9.923763,-0.118035,0.016804,-0.065047,-0.702532,-0.161186,-1.033475,0.999940,-0.006143,-0.001351,-0.009027
3414,0.028984,-0.120580,9.923206,-0.026427,-0.098796,-0.069745,-0.704933,-0.162581,-1.035705,0.999939,-0.006164,-0.001363,-0.009047
3415,0.031634,-0.121808,9.923498,-0.048409,-0.193059,-0.064749,-0.706174,-0.167472,-1.037887,0.999939,-0.006175,-0.001406,-0.009066
3416,0.028250,-0.119547,9.923190,0.062191,-0.022123,-0.050731,-0.705939,-0.171082,-1.039767,0.999939,-0.006174,-0.001437,-0.009083
3417,0.029521,-0.116032,9.923084,0.205635,-0.049753,-0.063687,-0.701470,-0.172303,-1.041659,0.999939,-0.006135,-0.001448,-0.009099
3418,0.032852,-0.115494,9.924348,0.216581,-0.181766,-0.059103,-0.694427,-0.176186,-1.043658,0.999939,-0.006074,-0.001482,-0.009117
3419,0.031394,-0.114472,9.924681,0.213366,-0.091073,-0.061089,-0.687255,-0.180757,-1.045606,0.999939,-0.006012,-0.001523,-0.009134
3420,0.031481,-0.118558,9.922643,-0.005939,-0.053704,-0.052454,-0.683792,-0.183193,-1.047470,0.999939,-0.005982,-0.001544,-0.009150
3421,0.033635,-0.119093,9.923407,-0.049906,-0.125141,-0.072980,-0.684716,-0.186198,-1.049525,0.999939,-0.005990,-0.001570,-0.009168
3422,0.033508,-0.127704,9.924026,-0.389606,-0.111109,-0.082239,-0.692033,-0.190167,-1.052064,0.999938,-0.006054,-0.001604,-0.009191
3423,0.032323,-0.129235,9.924611,-0.412240,-0.030797,-0.095003,-0.705387,-0.192568,-1.054989,0.999937,-0.006171,-0.001624,-0.009217
3424,0.033590,-0.133521,9.924042,-0.496920,-0.075937,-0.101240,-0.720529,-0.194387,-1.058237,0.999936,-0.006303,-0.001638,-0.009245
3425,0.031610,-0.127634,9.922546,-0.153901,0.015099,-0.116487,-0.731363,-0.195447,-1.061853,0.999935,-0.006398,-0.001646,-0.009277
3426,0.029110,-0.119194,9.921397,0.262496,0.124977,-0.104299,-0.729541,-0.193159,-1.065562,0.999935,-0.006382,-0.001626,-0.009309
3427,0.030730,-0.114742,9.921055,0.434191,0.046532,-0.095213,-0.717918,-0.190343,-1.068923,0.999935,-0.006280,-0.001603,-0.009338
3428,0.031186,-0.112296,9.920214,0.460586,0.006773,-0.095748,-0.702995,-0.189494,-1.072117,0.999936,-0.006150,-0.001596,-0.009366
3429,0.029890,-0.110366,9.916692,0.437246,0.060439,-0.093576,-0.688020,-0.188412,-1.075285,0.999937,-0.006019,-0.001588,-0.009393
3430,0.032466,-0.115547,9.917714,0.111261,-0.057260,-0.087803,-0.678869,-0.188395,-1.078309,0.999937,-0.005939,-0.001588,-0.009419
3431,0.039994,-0.117357,9.921229,-0.019708,-0.359701,-0.098590,-0.677333,-0.195381,-1.081333,0.999937,-0.005927,-0.001649,-0.009446
3432,0.035332,-0.114678,9.917644,0.074636,-0.115300,-0.094584,-0.676406,-0.203335,-1.084459,0.999936,-0.005919,-0.001718,-0.009474
3433,0.031437,-0.111024,9.918167,0.219229,0.104049,-0.094109,-0.671497,-0.203560,-1.087601,0.999936,-0.005876,-0.001721,-0.009501
3434,0.034141,-0.106035,9.925435,0.385226,0.008006,-0.092928,-0.661412,-0.201728,-1.090740,0.999936,-0.005788,-0.001705,-0.009528
3435,0.026740,-0.101047,9.926735,0.525968,0.292870,-0.080924,-0.646215,-0.196747,-1.093695,0.999937,-0.005655,-0.001663,-0.009554
3436,0.019899,-0.106663,9.924455,0.200972,0.541913,-0.080146,-0.634090,-0.182865,-1.096535,0.999938,-0.005548,-0.001543,-0.009578
3437,0.025266,-0.111749,9.931553,-0.084644,0.237859,-0.078188,-0.632143,-0.169899,-1.099318,0.999938,-0.005530,-0.001430,-0.009601
3438,0.025432,-0.112809,9.929269,-0.165039,0.135634,-0.079120,-0.636296,-0.163703,-1.102008,0.999937,-0.005566,-0.001375,-0.009624
3439,0.022190,-0.116162,9.924518,-0.264515,0.218247,-0.070214,-0.643448,-0.157834,-1.104563,0.999937,-0.005628,-0.001323,-0.009647
3440,0.031139,-0.119845,9.922641,-0.356622,-0.164825,-0.080562,-0.653794,-0.156972,-1.107086,0.999936,-0.005718,-0.001315,-0.009669
3441,0.033916,-0.120611,9.921969,-0.336930,-0.287805,-0.083584,-0.665346,-0.164547,-1.109735,0.999935,-0.005820,-0.001380,-0.009692
3442,0.027857,-0.121792,9.919332,-0.300600,-0.007013,-0.083287,-0.675963,-0.169492,-1.112458,0.999934,-0.005913,-0.001422,-0.009716
3443,0.031199,-0.128253,9.918323,-0.478930,-0.104581,-0.074736,-0.688948,-0.171383,-1.115070,0.999933,-0.006026,-0.001437,-0.009739
3444,0.034044,-0.130379,9.922717,-0.458033,-0.213415,-0.082080,-0.704556,-0.176715,-1.117619,0.999932,-0.006163,-0.001482,-0.009762
3445,0.028184,-0.127896,9.927787,-0.238245,0.046036,-0.082415,-0.716152,-0.179538,-1.120326,0.999931,-0.006265,-0.001506,-0.009786
3446,0.025915,-0.125863,9.925090,-0.056538,0.151099,-0.069293,-0.721057,-0.176285,-1.122895,0.999931,-0.006307,-0.001477,-0.009808
3447,0.031841,-0.114910,9.927462,0.426064,-0.107724,-0.067943,-0.714891,-0.175590,-1.125191,0.999931,-0.006253,-0.001471,-0.009828
3448,0.028017,-0.115335,9.927032,0.368677,0.037260,-0.068933,-0.701639,-0.176793,-1.127457,0.999932,-0.006138,-0.001482,-0.009848
3449,0.025701,-0.107501,9.921910,0.578032,0.137205,-0.062299,-0.685853,-0.173912,-1.129680,0.999932,-0.006000,-0.001459,-0.009867
3450,0.032895,-0.105862,9.920109,0.531606,-0.175483,-0.065914,-0.667353,-0.174575,-1.131809,0.999933,-0.005838,-0.001466,-0.009885
3451,0.033271,-0.104880,9.926500,0.452276,-0.189785,-0.080991,-0.650948,-0.180690,-1.134187,0.999934,-0.005696,-0.001520,-0.009906
3452,0.028893,-0.112678,9.921740,0.026382,0.032370,-0.084781,-0.642961,-0.183345,-1.136920,0.999934,-0.005626,-0.001544,-0.009930
3453,0.033781,-0.109914,9.920858,0.084856,-0.148258,-0.080878,-0.641098,-0.185307,-1.139659,0.999934,-0.005610,-0.001561,-0.009954
3454,0.032561,-0.111083,9.923491,0.008978,-0.081820,-0.086081,-0.639526,-0.189173,-1.142399,0.999933,-0.005597,-0.001595,-0.009978
3455,0.029201,-0.123282,9.918999,-0.503417,0.082021,-0.071914,-0.647757,-0.189199,-1.145032,0.999933,-0.005669,-0.001594,-0.010001
3456,0.036069,-0.121088,9.914298,-0.367148,-0.194621,-0.075514,-0.662259,-0.191104,-1.147468,0.999932,-0.005796,-0.001610,-0.010023
3457,0.037706,-0.120112,9.916253,-0.223749,-0.251812,-0.067462,-0.672099,-0.198572,-1.149764,0.999931,-0.005882,-0.001674,-0.010043
3458,0.036136,-0.120945,9.917913,-0.193887,-0.132783,-0.069281,-0.679052,-0.205008,-1.151967,0.999930,-0.005943,-0.001729,-0.010063
3459,0.040338,-0.126128,9.914145,-0.349149,-0.241493,-0.067122,-0.688095,-0.211273,-1.154166,0.999929,-0.006023,-0.001783,-0.010083
3460,0.034572,-0.117274,9.914623,0.061787,0.026479,-0.089755,-0.692875,-0.214887,-1.156737,0.999929,-0.006065,-0.001814,-0.010105
3461,0.022412,-0.124588,9.917192,-0.206914,0.556127,-0.071835,-0.695283,-0.205211,-1.159548,0.999929,-0.006085,-0.001729,-0.010129
3462,0.024443,-0.123621,9.916744,-0.177160,0.415506,-0.073859,-0.701675,-0.189048,-1.162174,0.999928,-0.006140,-0.001588,-0.010152
3463,0.027063,-0.120558,9.914856,-0.000338,0.196303,-0.078610,-0.704625,-0.178883,-1.164840,0.999928,-0.006165,-0.001498,-0.010174
3464,0.027385,-0.127989,9.916446,-0.270276,0.090989,-0.074175,-0.709127,-0.174126,-1.167445,0.999928,-0.006203,-0.001456,-0.010197
3465,0.035921,-0.134543,9.921315,-0.488994,-0.276097,-0.065951,-0.721775,-0.177240,-1.169742,0.999927,-0.006314,-0.001482,-0.010217
3466,0.044211,-0.130927,9.916276,-0.255561,-0.597990,-0.069127,-0.734177,-0.191836,-1.171808,0.999926,-0.006424,-0.001608,-0.010236
3467,0.045975,-0.138968,9.926810,-0.483447,-0.568357,-0.074090,-0.746486,-0.211304,-1.173944,0.999924,-0.006533,-0.001777,-0.010256
3468,0.043596,-0.135843,9.930857,-0.270430,-0.326211,-0.080950,-0.759042,-0.226246,-1.176332,0.999923,-0.006644,-0.001906,-0.010278
3469,0.042623,-0.126665,9.931179,0.180581,-0.165544,-0.082375,-0.760529,-0.234478,-1.178945,0.999923,-0.006658,-0.001978,-0.010301
3470,0.035132,-0.119613,9.928255,0.472872,0.195659,-0.086464,-0.749627,-0.234013,-1.181766,0.999923,-0.006562,-0.001975,-0.010326
3471,0.031371,-0.124344,9.927716,0.203757,0.339730,-0.088043,-0.738337,-0.225128,-1.184790,0.999924,-0.006463,-0.001898,-0.010351
3472,0.025361,-0.118498,9.914459,0.369799,0.509884,-0.084837,-0.728766,-0.211006,-1.187853,0.999924,-0.006378,-0.001775,-0.010377
3473,0.026359,-0.119076,9.912310,0.266252,0.361396,-0.069487,-0.718156,-0.196518,-1.190608,0.999925,-0.006285,-0.001650,-0.010400
3474,0.022534,-0.121927,9.914416,0.077734,0.393662,-0.074276,-0.712414,-0.183965,-1.193161,0.999925,-0.006233,-0.001541,-0.010422
3475,0.026617,-0.118849,9.910748,0.170973,0.132702,-0.063984,-0.708262,-0.175221,-1.195574,0.999925,-0.006196,-0.001464,-0.010442
3476,0.026828,-0.118368,9.912316,0.163692,0.066230,-0.061752,-0.702677,-0.171932,-1.197710,0.999925,-0.006147,-0.001436,-0.010461
3477,0.023768,-0.119205,9.917685,0.087280,0.182823,-0.061829,-0.698488,-0.167806,-1.199820,0.999925,-0.006110,-0.001400,-0.010479
3478,0.025535,-0.127883,9.920026,-0.270364,0.091944,-0.055845,-0.701534,-0.163251,-1.201838,0.999925,-0.006137,-0.001360,-0.010496
3479,0.029861,-0.125726,9.917088,-0.158833,-0.107531,-0.055648,-0.708682,-0.163534,-1.203693,0.999925,-0.006199,-0.001362,-0.010513
3480,0.030502,-0.130473,9.918918,-0.321192,-0.128208,-0.076910,-0.716676,-0.167490,-1.205853,0.999924,-0.006269,-0.001396,-0.010532
3482,0.029081,-0.129006,9.916238,-0.208923,-0.038818,-0.063965,-0.725504,-0.170303,-1.208165,0.999923,-0.006346,-0.001419,-0.010552
3483,0.034703,-0.130280,9.918391,-0.196019,-0.261452,-0.068141,-0.732247,-0.175335,-1.210303,0.999923,-0.006406,-0.001462,-0.010571
3484,0.030299,-0.124657,9.919022,0.077297,-0.060330,-0.087627,-0.734218,-0.180731,-1.212831,0.999922,-0.006424,-0.001509,-0.010594
3485,0.028949,-0.126517,9.923099,0.016486,0.040138,-0.081681,-0.732646,-0.181104,-1.215648,0.999922,-0.006410,-0.001512,-0.010618
3486,0.026475,-0.123059,9.925094,0.153877,0.146025,-0.063992,-0.729799,-0.178032,-1.218116,0.999922,-0.006385,-0.001486,-0.010640
3487,0.029837,-0.117507,9.927672,0.365665,-0.007916,-0.077315,-0.721132,-0.175761,-1.220500,0.999922,-0.006309,-0.001467,-0.010660
3488,0.030496,-0.113998,9.928399,0.451751,-0.036611,-0.070460,-0.707501,-0.176533,-1.222953,0.999923,-0.006190,-0.001475,-0.010681
3489,0.030013,-0.111463,9.926095,0.442526,-0.004346,-0.074759,-0.692589,-0.177245,-1.225365,0.999923,-0.006060,-0.001482,-0.010702
3490,0.029070,-0.110680,9.924148,0.368997,0.024779,-0.084707,-0.679055,-0.176937,-1.228026,0.999924,-0.005942,-0.001480,-0.010725
3491,0.032177,-0.113159,9.927343,0.184784,-0.099462,-0.085632,-0.669817,-0.178215,-1.230851,0.999924,-0.005862,-0.001492,-0.010750
3492,0.030309,-0.116802,9.927438,-0.030030,-0.025736,-0.076350,-0.667229,-0.180333,-1.233526,0.999924,-0.005839,-0.001511,-0.010773
3493,0.024560,-0.113561,9.923832,0.076536,0.213361,-0.086035,-0.666446,-0.177237,-1.236268,0.999924,-0.005832,-0.001484,-0.010797
3494,0.028872,-0.113477,9.924030,0.085238,0.012937,-0.082202,-0.663741,-0.173499,-1.239116,0.999924,-0.005808,-0.001451,-0.010822
3495,0.028119,-0.114053,9.927031,0.045961,0.029763,-0.072867,-0.661546,-0.172817,-1.241708,0.999923,-0.005789,-0.001445,-0.010844
3496,0.027113,-0.115032,9.922797,-0.015506,0.065185,-0.076867,-0.661031,-0.171263,-1.244222,0.999923,-0.005784,-0.001432,-0.010866
3497,0.033595,-0.118034,9.925211,-0.139291,-0.204271,-0.085747,-0.663603,-0.173613,-1.246905,0.999923,-0.005807,-0.001452,-0.010890
3498,0.039422,-0.118999,9.920981,-0.160839,-0.423998,-0.076015,-0.668597,-0.184114,-1.249480,0.999922,-0.005852,-0.001543,-0.010913
3499,0.035798,-0.119864,9.923810,-0.161027,-0.200606,-0.073451,-0.673954,-0.194553,-1.251849,0.999922,-0.005900,-0.001633,-0.010934
3500,0.037771,-0.117079,9.917091,-0.006591,-0.219021,-0.067922,-0.676740,-0.201574,-1.254122,0.999921,-0.005925,-0.001694,-0.010954
3501,0.035798,-0.114316,9.918254,0.129767,-0.093002,-0.071446,-0.674679,-0.206801,-1.256384,0.999921,-0.005907,-0.001740,-0.010974
3502,0.029898,-0.113606,9.919351,0.150688,0.197552,-0.072843,-0.669996,-0.205087,-1.258809,0.999921,-0.005866,-0.001725,-0.010995
3503,0.031721,-0.117398,9.921441,-0.037435,0.113694,-0.079299,-0.668099,-0.199930,-1.261405,0.999921,-0.005849,-0.001680,-0.011018
3504,0.031791,-0.121996,9.912536,-0.248654,0.067538,-0.082118,-0.672858,-0.196941,-1.264131,0.999920,-0.005890,-0.001654,-0.011041
3505,0.032113,-0.119544,9.912777,-0.117602,0.051959,-0.089079,-0.678952,-0.194983,-1.267007,0.999920,-0.005943,-0.001636,-0.011066
3506,0.033071,-0.121722,9.914968,-0.174205,-0.003242,-0.084965,-0.683806,-0.194206,-1.269917,0.999919,-0.005986,-0.001628,-0.011092
3507,0.032904,-0.119275,9.915923,-0.037770,-0.014000,-0.077769,-0.687329,-0.194525,-1.272626,0.999919,-0.006017,-0.001631,-0.011115
3508,0.027447,-0.121834,9.914384,-0.121953,0.213363,-0.073298,-0.689983,-0.191233,-1.275184,0.999918,-0.006039,-0.001602,-0.011138
3509,0.030868,-0.121510,9.918060,-0.077795,0.060084,-0.079921,-0.693303,-0.186707,-1.277792,0.999918,-0.006068,-0.001562,-0.011160
3510,0.026685,-0.131363,9.918489,-0.457335,0.194560,-0.080088,-0.702213,-0.182496,-1.280511,0.999917,-0.006145,-0.001524,-0.011184
3511,0.026463,-0.130683,9.916556,-0.370128,0.186113,-0.085200,-0.715996,-0.176186,-1.283344,0.999917,-0.006265,-0.001467,-0.011208
3512,0.028817,-0.132640,9.913109,-0.363897,0.050965,-0.099191,-0.728220,-0.172273,-1.286466,0.999916,-0.006371,-0.001432,-0.011236
3513,0.032272,-0.132796,9.914739,-0.289933,-0.117489,-0.110720,-0.739106,-0.173427,-1.289951,0.999915,-0.006466,-0.001441,-0.011266
3514,0.029668,-0.122805,9.919368,0.189616,0.002558,-0.090886,-0.740768,-0.175386,-1.293286,0.999914,-0.006481,-0.001457,-0.011295
3515,0.034443,-0.121086,9.919088,0.261505,-0.176824,-0.102616,-0.733240,-0.178331,-1.296473,0.999914,-0.006416,-0.001484,-0.011323
3516,0.037359,-0.124517,9.919752,0.076587,-0.275570,-0.089526,-0.727595,-0.185911,-1.299579,0.999914,-0.006367,-0.001550,-0.011351
3517,0.036686,-0.120102,9.920573,0.214466,-0.196767,-0.075212,-0.722735,-0.193818,-1.302225,0.999914,-0.006326,-0.001620,-0.011374
3518,0.032948,-0.118197,9.920259,0.261941,0.000453,-0.062090,-0.714787,-0.197118,-1.304472,0.999914,-0.006257,-0.001649,-0.011394
3519,0.033576,-0.128198,9.919692,-0.193667,-0.009537,-0.071236,-0.713642,-0.197297,-1.306692,0.999914,-0.006247,-0.001651,-0.011413
3520,0.033369,-0.126772,9.924505,-0.141592,-0.000781,-0.065185,-0.719222,-0.197498,-1.308964,0.999913,-0.006296,-0.001652,-0.011433
3521,0.034634,-0.123948,9.925486,0.007476,-0.050349,-0.067859,-0.721449,-0.198378,-1.311170,0.999913,-0.006315,-0.001659,-0.011453
3522,0.034000,-0.124117,9.919569,0.013257,-0.017868,-0.076645,-0.721095,-0.199545,-1.313564,0.999913,-0.006312,-0.001669,-0.011473
3523,0.035722,-0.125262,9.917555,-0.024326,-0.067401,-0.087931,-0.721270,-0.201000,-1.316289,0.999913,-0.006314,-0.001682,-0.011497
3524,0.034914,-0.125639,9.915733,-0.028604,-0.032438,-0.090394,-0.722142,-0.202702,-1.319240,0.999912,-0.006322,-0.001696,-0.011523
3525,0.032911,-0.125579,9.913166,-0.015293,0.058613,-0.086200,-0.722863,-0.202302,-1.322188,0.999912,-0.006328,-0.001692,-0.011549
3526,0.029136,-0.127529,9.910812,-0.081208,0.203704,-0.080994,-0.724462,-0.197966,-1.325030,0.999912,-0.006342,-0.001654,-0.011573
3527,0.030141,-0.130017,9.918549,-0.165091,0.136740,-0.073955,-0.728558,-0.192325,-1.327684,0.999911,-0.006377,-0.001605,-0.011596
3528,0.031855,-0.126014,9.920499,0.027924,0.017561,-0.071406,-0.730836,-0.189785,-1.330140,0.999911,-0.006396,-0.001582,-0.011618
3529,0.031909,-0.122282,9.921454,0.176911,0.011466,-0.063055,-0.727414,-0.189329,-1.332387,0.999911,-0.006367,-0.001578,-0.011637
3530,0.033875,-0.127122,9.922948,-0.038820,-0.072503,-0.058802,-0.725106,-0.190372,-1.334404,0.999911,-0.006347,-0.001587,-0.011655
3531,0.031408,-0.125517,9.926273,0.029888,0.041023,-0.071340,-0.725248,-0.190924,-1.336567,0.999910,-0.006348,-0.001592,-0.011674
3532,0.035325,-0.129065,9.924063,-0.092266,-0.122828,-0.086555,-0.726279,-0.192321,-1.339181,0.999910,-0.006357,-0.001604,-0.011697
3533,0.030923,-0.135060,9.927732,-0.303967,0.068332,-0.071178,-0.732874,-0.193263,-1.341798,0.999909,-0.006415,-0.001611,-0.011720
3534,0.028274,-0.138861,9.923838,-0.399898,0.173880,-0.073921,-0.744597,-0.189257,-1.344268,0.999909,-0.006517,-0.001575,-0.011741
3535,0.027530,-0.136320,9.923096,-0.250766,0.177405,-0.077546,-0.755433,-0.183436,-1.346869,0.999908,-0.006611,-0.001523,-0.011764
3536,0.028931,-0.135872,9.916733,-0.189387,0.064079,-0.071490,-0.762761,-0.179445,-1.349406,0.999907,-0.006674,-0.001487,-0.011786
3537,0.025086,-0.134438,9.915937,-0.129409,0.194633,-0.070133,-0.768066,-0.175165,-1.351823,0.999907,-0.006720,-0.001449,-0.011807
3538,0.028382,-0.125793,9.911518,0.247457,0.024812,-0.084169,-0.766091,-0.171542,-1.354444,0.999907,-0.006703,-0.001418,-0.011829
3539,0.031199,-0.115943,9.914439,0.635169,-0.111090,-0.094798,-0.751372,-0.173019,-1.357407,0.999907,-0.006574,-0.001432,-0.011855
3540,0.029054,-0.108419,9.914503,0.810733,-0.020095,-0.095660,-0.727264,-0.175246,-1.360553,0.999908,-0.006364,-0.001454,-0.011882
3541,0.028489,-0.106192,9.918344,0.666778,0.029482,-0.088877,-0.702629,-0.175128,-1.363630,0.999909,-0.006149,-0.001455,-0.011909
3542,0.027847,-0.098901,9.914097,0.642659,0.055671,-0.064559,-0.680797,-0.173740,-1.366205,0.999910,-0.005959,-0.001445,-0.011931
3543,0.029066,-0.095940,9.918209,0.478680,0.007826,-0.034657,-0.662103,-0.172701,-1.367871,0.999911,-0.005795,-0.001438,-0.011945
3544,0.026338,-0.088782,9.917420,0.634141,0.119945,0.007258,-0.643555,-0.170577,-1.368351,0.999912,-0.005633,-0.001421,-0.011949
3545,0.028769,-0.102218,9.920026,-0.025545,0.013201,0.035450,-0.633413,-0.168350,-1.367665,0.999912,-0.005545,-0.001403,-0.011943
3546,0.026188,-0.105530,9.919384,0.036403,0.100372,0.000419,-0.633234,-0.166451,-1.367088,0.999912,-0.005543,-0.001387,-0.011938
3547,0.025369,-0.112490,9.924929,0.226302,0.114686,-0.053469,-0.628853,-0.162876,-1.368011,0.999913,-0.005504,-0.001356,-0.011945
3548,0.025667,-0.117483,9.925790,0.340636,0.056381,-0.117322,-0.619396,-0.160056,-1.370889,0.999913,-0.005422,-0.001332,-0.011970
3549,0.028033,-0.127884,9.929955,-0.009458,-0.075248,-0.205748,-0.613861,-0.160429,-1.376269,0.999913,-0.005373,-0.001336,-0.012017
3550,0.027150,-0.119557,9.924737,0.456275,-0.037558,-0.308401,-0.606390,-0.162400,-1.384818,0.999912,-0.005308,-0.001353,-0.012092
3551,0.028496,-0.104172,9.924364,0.968943,-0.090397,-0.380621,-0.582604,-0.164652,-1.396279,0.999912,-0.005101,-0.001375,-0.012192
3552,0.029473,-0.095435,9.922795,0.649827,-0.121945,-0.463794,-0.555584,-0.168330,-1.410317,0.999911,-0.004866,-0.001409,-0.012314
3553,0.026390,-0.101694,9.918175,-0.345044,0.041640,-0.575477,-0.550453,-0.169836,-1.427624,0.999910,-0.004822,-0.001422,-0.012465
3554,0.028074,-0.116345,9.915467,-1.302824,-0.005520,-0.774066,-0.577851,-0.169457,-1.450121,0.999906,-0.005061,-0.001415,-0.012662
3555,0.027486,-0.109599,9.916405,-1.083612,0.002000,-1.086496,-0.617533,-0.169840,-1.481129,0.999901,-0.005408,-0.001412,-0.012933
3556,0.036334,-0.138318,9.912776,-2.555387,-0.289584,-2.859248,-0.677985,-0.175375,-1.546833,0.999890,-0.005937,-0.001450,-0.013507
3557,0.040471,-0.150811,9.912398,-1.993786,-0.041002,-7.720415,-0.753252,-0.183086,-1.723080,0.999864,-0.006597,-0.001499,-0.015046
3558,0.040977,-0.138908,9.915633,-1.027957,0.091953,-10.956946,-0.802616,-0.186429,-2.034351,0.999816,-0.007032,-0.001502,-0.017763
3559,0.041851,-0.107236,9.915455,-0.034681,0.201893,-14.530494,-0.818943,-0.187509,-2.459166,0.999743,-0.007180,-0.001483,-0.021470
3560,0.042016,-0.147133,9.918202,-0.818497,0.332244,-18.204056,-0.831384,-0.186430,-3.004807,0.999628,-0.007295,-0.001436,-0.026230
3561,0.038205,-0.137970,9.924257,0.020818,0.436455,-19.072031,-0.842680,-0.182722,-3.626182,0.999471,-0.007400,-0.001361,-0.031650
3562,0.036207,-0.125659,9.926121,0.883355,0.370877,-16.034445,-0.825773,-0.177749,-4.211407,0.999297,-0.007258,-0.001285,-0.036753
3563,0.036804,-0.137553,9.921218,0.596359,0.293713,-14.675806,-0.799541,-0.173893,-4.723340,0.999125,-0.007034,-0.001229,-0.041217
3564,0.035533,-0.171121,9.917418,-0.056150,0.243039,-13.241919,-0.789133,-0.171406,-5.188707,0.998950,-0.006947,-0.001183,-0.045274
3565,0.035394,-0.141812,9.914936,0.792081,0.165217,-11.456813,-0.775640,-0.170245,-5.600403,0.998782,-0.006833,-0.001153,-0.048862
3566,0.034887,-0.132851,9.916352,0.602936,0.168423,-12.099517,-0.751223,-0.169889,-5.993044,0.998610,-0.006624,-0.001138,-0.052284
3567,0.033051,-0.132520,9.918729,0.070084,0.242581,-13.850529,-0.738728,-0.168669,-6.425592,0.998406,-0.006519,-0.001108,-0.056053
3568,0.032839,-0.126238,9.918951,0.017585,0.250223,-14.778522,-0.735872,-0.166615,-6.902804,0.998164,-0.006498,-0.001065,-0.060210
3569,0.034954,-0.111959,9.924740,0.293012,0.212873,-15.376604,-0.729239,-0.165325,-7.405441,0.997891,-0.006444,-0.001029,-0.064587
3570,0.034369,-0.100650,9.929403,0.452025,0.261672,-16.300268,-0.715303,-0.164061,-7.933437,0.997583,-0.006326,-0.000996,-0.069184
3571,0.031771,-0.119559,9.928556,0.277633,0.330999,-16.586794,-0.701588,-0.160956,-8.481625,0.997242,-0.006210,-0.000948,-0.073956
3572,0.034393,-0.122681,9.924273,0.707228,0.251598,-16.674221,-0.683634,-0.157955,-9.036039,0.996873,-0.006056,-0.000904,-0.078779
3573,0.036626,-0.109035,9.922234,1.314867,0.220200,-17.636763,-0.648359,-0.156722,-9.607929,0.996469,-0.005753,-0.000889,-0.083753
3574,0.030455,-0.102421,9.919696,1.437499,0.355654,-18.335714,-0.600861,-0.153638,-10.207525,0.996020,-0.005342,-0.000869,-0.088965
3575,0.034721,-0.089312,9.918538,1.954192,0.229520,-18.567345,-0.542709,-0.150021,-10.822627,0.995531,-0.004838,-0.000857,-0.094310
3576,0.040225,-0.033720,9.914532,3.178131,0.063989,-18.079401,-0.455565,-0.150428,-11.433408,0.995017,-0.004087,-0.000910,-0.099614
3577,0.039393,-0.029174,9.918000,2.565759,0.054976,-17.635746,-0.358255,-0.152615,-12.028643,0.994490,-0.003249,-0.000997,-0.104781
3578,0.043094,-0.034182,9.924105,1.645393,-0.020898,-17.517071,-0.286495,-0.155367,-12.614502,0.993943,-0.002634,-0.001073,-0.109863
3579,0.050779,-0.025778,9.923260,1.323036,-0.156061,-18.460207,-0.235363,-0.161085,-13.214088,0.993355,-0.002202,-0.001160,-0.115062
3580,0.049874,-0.027439,9.921079,0.504687,-0.070791,-19.685915,-0.203075,-0.167316,-13.849822,0.992702,-0.001935,-0.001236,-0.120571
3581,0.046821,-0.060644,9.924355,-0.880310,0.061775,-21.332634,-0.207327,-0.169955,-14.533438,0.991965,-0.001982,-0.001242,-0.126491
3582,0.043684,-0.043702,9.925824,-0.524580,0.178699,-23.039417,-0.228562,-0.168829,-15.272955,0.991128,-0.002173,-0.001195,-0.132890
3583,0.037787,-0.036694,9.928954,-0.435109,0.307810,-24.100222,-0.242281,-0.163926,-16.058605,0.990193,-0.002293,-0.001121,-0.139682
3585,0.036041,-0.029297,9.926375,-0.773416,0.379095,-25.583946,-0.260116,-0.156102,-16.886681,0.989158,-0.002445,-0.001014,-0.146834
3586,0.034519,-0.043965,9.929996,-1.171755,0.420827,-26.805576,-0.290228,-0.146983,-17.759844,0.988010,-0.002700,-0.000876,-0.154367
3587,0.034388,-0.051186,9.929528,-1.056591,0.391484,-26.689724,-0.325147,-0.138255,-18.651438,0.986778,-0.002995,-0.000731,-0.162049
3588,0.038744,-0.086147,9.927641,-1.857483,0.288031,-26.971395,-0.371600,-0.132361,-19.545792,0.985482,-0.003392,-0.000588,-0.169746
3589,0.044146,-0.091539,9.924015,-1.691702,0.203664,-28.364315,-0.428626,-0.130658,-20.468027,0.984082,-0.003884,-0.000457,-0.177672
3590,0.044753,-0.111990,9.926966,-1.457704,0.194774,-28.793190,-0.478928,-0.131545,-21.420610,0.982569,-0.004320,-0.000351,-0.185846
3591,0.047764,-0.111477,9.925452,-0.867422,0.126125,-28.818899,-0.515447,-0.134511,-22.380751,0.980976,-0.004640,-0.000279,-0.194073
3592,0.049528,-0.089119,9.922420,0.039522,0.098909,-29.450985,-0.526917,-0.139553,-23.351839,0.979296,-0.004750,-0.000262,-0.202379
3593,0.055471,-0.069794,9.923688,0.694741,-0.003544,-29.302019,-0.512231,-0.146778,-24.330956,0.977531,-0.004640,-0.000310,-0.210739
3594,0.053292,-0.069363,9.924732,1.042932,0.029118,-27.842396,-0.480760,-0.154558,-25.283262,0.975747,-0.004389,-0.000398,-0.218856
3595,0.058394,-0.030750,9.923771,2.051808,-0.127883,-25.232203,-0.426732,-0.163181,-26.167734,0.974031,-0.003950,-0.000544,-0.226380
3596,0.058199,-0.017598,9.924459,1.986853,-0.139615,-23.292274,-0.357041,-0.173096,-26.976381,0.972411,-0.003382,-0.000742,-0.233248
3597,0.062920,-0.018340,9.921896,1.570918,-0.234362,-21.515158,-0.295421,-0.183575,-27.723089,0.970872,-0.002887,-0.000938,-0.239579
3598,0.055555,-0.018974,9.917788,1.031179,-0.090647,-20.385256,-0.249758,-0.192329,-28.421366,0.969395,-0.002525,-0.001092,-0.245491
3599,0.055776,-0.016187,9.916339,0.053452,-0.063232,-20.065594,-0.229393,-0.197736,-29.095510,0.967934,-0.002371,-0.001167,-0.251189
3600,0.046795,-0.040462,9.914425,-1.486925,0.184344,-20.959986,-0.250920,-0.198631,-29.779255,0.966418,-0.002562,-0.001113,-0.256960
3601,0.047504,-0.076796,9.909100,-3.143801,0.265646,-22.947651,-0.325597,-0.194888,-30.511049,0.964755,-0.003189,-0.000893,-0.263127
3602,0.031098,-0.104684,9.910313,-5.242721,0.793650,-30.791510,-0.462414,-0.183470,-31.406759,0.962665,-0.004318,-0.000449,-0.270661
3603,0.031517,-0.149495,9.908497,-8.514087,1.190681,-40.124683,-0.688140,-0.162324,-32.588863,0.959812,-0.006161,0.000325,-0.280576
3604,0.042410,-0.211468,9.903658,-10.271266,0.892818,-44.091759,-0.997407,-0.148375,-33.992634,0.956283,-0.008702,0.001306,-0.292310
3605,0.045946,-0.267953,9.905058,-9.843288,0.867216,-44.806801,-1.328719,-0.149210,-35.474312,0.952395,-0.011440,0.002292,-0.304644
3606,0.046269,-0.285036,9.907755,-8.121710,0.963075,-45.143997,-1.624081,-0.157278,-36.973507,0.948295,-0.013876,0.003192,-0.317072
3607,0.064260,-0.320763,9.908888,-6.207657,0.656677,-40.908161,-1.858737,-0.173681,-38.407600,0.944221,-0.015816,0.003904,-0.328909
3608,0.065384,-0.318972,9.912399,-2.315965,0.491890,-34.869808,-1.996670,-0.196904,-39.670303,0.940518,-0.016973,0.004296,-0.339291
3609,0.055866,-0.304912,9.918701,0.423407,0.871417,-32.758862,-2.024165,-0.213442,-40.797428,0.937131,-0.017205,0.004411,-0.348527
3610,0.061403,-0.297131,9.917819,1.224295,0.690585,-32.104496,-1.992600,-0.225090,-41.878639,0.933804,-0.016941,0.004380,-0.357356
3611,0.064270,-0.279502,9.917830,1.635048,0.587810,-31.028711,-1.940664,-0.239840,-42.930874,0.930490,-0.016526,0.004250,-0.365920
3612,0.070525,-0.264945,9.918754,1.606291,0.418400,-28.982277,-1.882307,-0.256405,-43.930977,0.927268,-0.016070,0.004069,-0.374031
3613,0.079451,-0.270523,9.928929,0.866479,0.396702,-27.185608,-1.836761,-0.273197,-44.866993,0.924187,-0.015725,0.003913,-0.381596
3614,0.084388,-0.269746,9.926607,0.569136,0.425414,-26.520712,-1.808452,-0.288015,-45.762032,0.921181,-0.015516,0.003821,-0.388806
3615,0.082369,-0.273955,9.929473,0.243472,0.657159,-26.280231,-1.790414,-0.297632,-46.642132,0.918170,-0.015375,0.003800,-0.395871
3616,0.083381,-0.271591,9.931895,0.051036,0.670622,-25.852406,-1.780968,-0.302609,-47.511242,0.915142,-0.015288,0.003844,-0.402824
3617,0.079250,-0.275169,9.930864,-0.075969,0.740537,-25.334452,-1.776856,-0.305596,-48.364635,0.912117,-0.015237,0.003919,-0.409629
3618,0.076110,-0.256666,9.922450,0.686219,0.583998,-24.407860,-1.762242,-0.309139,-49.193924,0.909130,-0.015105,0.003948,-0.416220
3619,0.067907,-0.266795,9.927748,0.401566,0.684851,-23.221403,-1.739799,-0.312211,-49.987980,0.906227,-0.014911,0.003946,-0.422510
3620,0.073616,-0.241293,9.930924,0.619842,0.539532,-22.947636,-1.718570,-0.315048,-50.757710,0.903371,-0.014728,0.003944,-0.428589
3621,0.073264,-0.255637,9.927698,0.283657,0.536150,-22.064589,-1.699350,-0.319488,-51.508087,0.900547,-0.014567,0.003933,-0.434497
3622,0.070876,-0.257189,9.928622,0.374952,0.577031,-21.262508,-1.684329,-0.322280,-52.230419,0.897792,-0.014435,0.003945,-0.440165
3623,0.070691,-0.284325,9.926393,-0.131846,0.574893,-20.884840,-1.676319,-0.323682,-52.933109,0.895077,-0.014354,0.003991,-0.445663
3624,0.078598,-0.260593,9.919974,0.376898,0.431257,-21.366455,-1.668233,-0.327496,-53.637466,0.892321,-0.014281,0.004018,-0.451157
3625,0.075477,-0.280705,9.914903,-0.013155,0.523560,-21.816458,-1.658017,-0.332451,-54.357334,0.889471,-0.014196,0.004028,-0.456754
3626,0.077535,-0.279404,9.912166,0.007904,0.527766,-22.601381,-1.653787,-0.336349,-55.097801,0.886501,-0.014153,0.004073,-0.462493
3627,0.078844,-0.271919,9.913859,0.180495,0.531892,-23.132030,-1.646142,-0.340641,-55.860195,0.883405,-0.014084,0.004102,-0.468381
3628,0.082411,-0.252071,9.913034,0.516458,0.465386,-22.862728,-1.629932,-0.345930,-56.626911,0.880253,-0.013953,0.004089,-0.474283
3629,0.081492,-0.267713,9.908836,0.014700,0.465043,-21.940752,-1.616530,-0.351562,-57.373749,0.877144,-0.013847,0.004080,-0.480011
3630,0.084310,-0.296760,9.908112,-0.630675,0.407724,-21.400713,-1.622327,-0.357463,-58.096218,0.874099,-0.013891,0.004147,-0.485531
3631,0.085949,-0.311505,9.908658,-0.886923,0.436433,-22.208090,-1.643040,-0.364141,-58.823120,0.870998,-0.014050,0.004273,-0.491066
3632,0.082334,-0.326475,9.908025,-1.195491,0.636476,-24.454704,-1.672772,-0.368780,-59.601009,0.867641,-0.014266,0.004462,-0.496967
3633,0.081664,-0.343619,9.904678,-1.497047,0.787721,-27.128880,-1.712106,-0.370457,-60.461033,0.863882,-0.014536,0.004729,-0.503463
3634,0.083491,-0.351920,9.910996,-1.464976,0.875164,-29.784941,-1.755332,-0.371463,-61.409954,0.859677,-0.014825,0.005035,-0.510598
3635,0.082443,-0.314331,9.913661,-0.554018,1.022287,-32.244049,-1.782272,-0.371752,-62.444195,0.855030,-0.014981,0.005288,-0.518335
3636,0.076068,-0.270922,9.914167,0.440775,1.220787,-33.137630,-1.777125,-0.368154,-63.534439,0.850061,-0.014876,0.005433,-0.526446
3637,0.080913,-0.260798,9.917485,0.537787,1.055816,-32.374649,-1.753851,-0.363789,-64.626877,0.845007,-0.014631,0.005498,-0.534526
3638,0.081639,-0.252754,9.917480,0.725916,0.970828,-30.993385,-1.726087,-0.362086,-65.683472,0.840046,-0.014368,0.005514,-0.542296
3639,0.078331,-0.230011,9.916764,1.600981,1.042148,-28.919901,-1.681024,-0.358221,-66.682518,0.835293,-0.013973,0.005451,-0.549601
3640,0.071811,-0.211040,9.918048,1.966460,1.090255,-26.767473,-1.615846,-0.349325,-67.611221,0.830820,-0.013412,0.005312,-0.556355
3641,0.076342,-0.231806,9.915046,1.293189,0.840366,-24.590549,-1.556371,-0.340820,-68.467712,0.826646,-0.012901,0.005182,-0.562551
3642,0.072578,-0.223995,9.910621,1.494438,0.869118,-23.148052,-1.505217,-0.333627,-69.263809,0.822724,-0.012462,0.005069,-0.568282
3643,0.074368,-0.215115,9.910753,1.701266,0.806134,-22.403133,-1.447594,-0.325260,-70.023430,0.818946,-0.011975,0.004923,-0.573725
3644,0.066575,-0.208616,9.912887,1.601634,0.872065,-22.133509,-1.388391,-0.315653,-70.766144,0.815217,-0.011473,0.004770,-0.579023
3645,0.071592,-0.226833,9.906874,1.201985,0.617026,-21.283323,-1.337729,-0.308059,-71.490120,0.811548,-0.011045,0.004638,-0.584163
3646,0.068834,-0.230122,9.910206,1.455662,0.564212,-20.479877,-1.289703,-0.304354,-72.186424,0.807988,-0.010659,0.004484,-0.589085
3647,0.070054,-0.222538,9.909608,1.802334,0.422612,-19.982931,-1.231829,-0.302733,-72.860985,0.804512,-0.010218,0.004258,-0.593834
3648,0.062404,-0.186225,9.914205,2.447495,0.466854,-19.626642,-1.157511,-0.301657,-73.521294,0.801083,-0.009668,0.003936,-0.598462
3649,0.070084,-0.184349,9.911689,1.891827,0.195956,-18.844095,-1.081809,-0.303109,-74.162552,0.797728,-0.009126,0.003582,-0.602938
3650,0.066980,-0.184241,9.919224,0.676712,0.298295,-19.375025,-1.035600,-0.306664,-74.799568,0.794367,-0.008805,0.003363,-0.607365
3651,0.070543,-0.183925,9.921336,-0.274375,0.289293,-20.292116,-1.025348,-0.308820,-75.460739,0.790850,-0.008726,0.003344,-0.611939
3652,0.073519,-0.183743,9.922595,-0.736443,0.294787,-20.485085,-1.038515,-0.311373,-76.140404,0.787205,-0.008810,0.003449,-0.616618
3653,0.077575,-0.204867,9.919704,-1.338106,0.250237,-20.318106,-1.069374,-0.314822,-76.820496,0.783529,-0.009019,0.003645,-0.621279
3654,0.082745,-0.213041,9.918251,-1.499785,0.172754,-20.859921,-1.112862,-0.320872,-77.506798,0.779791,-0.009326,0.003895,-0.625959
3655,0.083561,-0.216656,9.915020,-0.967466,0.164569,-20.848444,-1.150035,-0.328983,-78.201904,0.775976,-0.009599,0.004102,-0.630677
3656,0.083216,-0.208636,9.914392,-0.060640,0.201228,-20.712381,-1.163145,-0.336843,-78.894554,0.772148,-0.009706,0.004179,-0.635355
3657,0.087190,-0.184123,9.914046,1.249790,0.117656,-20.847967,-1.139204,-0.345399,-79.587166,0.768295,-0.009567,0.004047,-0.640012
3658,0.086994,-0.156175,9.916990,2.513467,0.136648,-20.471571,-1.072275,-0.354385,-80.275764,0.764440,-0.009147,0.003668,-0.644620
3659,0.086112,-0.123690,9.921477,3.772006,0.136167,-18.840010,-0.963428,-0.361412,-80.930916,0.760749,-0.008443,0.003057,-0.648984
3660,0.090681,-0.106965,9.920798,4.429589,-0.000550,-16.500841,-0.822988,-0.368262,-81.519897,0.757413,-0.007538,0.002255,-0.652889
3661,0.092574,-0.081314,9.922339,4.263250,-0.097163,-14.987783,-0.674693,-0.376698,-82.044624,0.754424,-0.006600,0.001384,-0.656353
3662,0.078013,-0.097514,9.925608,2.467093,0.152181,-13.158181,-0.559418,-0.380823,-82.513718,0.751737,-0.005861,0.000721,-0.659437
3663,0.077374,-0.111147,9.925025,0.828332,0.083214,-11.736854,-0.501746,-0.380789,-82.928650,0.749347,-0.005481,0.000409,-0.662154
3664,0.077301,-0.115217,9.925756,-0.328490,0.044941,-11.307463,-0.490857,-0.382023,-83.312729,0.747124,-0.005416,0.000356,-0.664662
3665,0.074250,-0.120739,9.926678,-1.366156,0.078939,-11.395874,-0.516573,-0.383317,-83.691132,0.744924,-0.005590,0.000515,-0.667126
3666,0.071451,-0.148051,9.922956,-2.547831,0.087559,-11.749354,-0.579223,-0.384260,-84.076889,0.742671,-0.005999,0.000894,-0.669629
3667,0.081070,-0.164181,9.920034,-2.844920,-0.094845,-12.959193,-0.666323,-0.388889,-84.488670,0.740255,-0.006586,0.001397,-0.672293
3668,0.078849,-0.161649,9.922037,-2.340515,0.050451,-14.008025,-0.749666,-0.395183,-84.938095,0.737607,-0.007154,0.001873,-0.675190
3669,0.080140,-0.172245,9.917626,-2.289092,0.070065,-14.933554,-0.823483,-0.399773,-85.420425,0.734753,-0.007647,0.002311,-0.678287
3670,0.087729,-0.164202,9.915456,-1.511983,-0.028035,-15.819161,-0.883227,-0.406699,-85.932938,0.731708,-0.008059,0.002656,-0.681566
3671,0.088938,-0.146209,9.922184,-0.174175,0.052255,-15.461924,-0.907590,-0.414410,-86.454224,0.728597,-0.008248,0.002789,-0.684887
3672,0.081425,-0.148277,9.930005,0.239452,0.259743,-14.487565,-0.902883,-0.417046,-86.953415,0.725607,-0.008221,0.002780,-0.688055
3673,0.093196,-0.163901,9.927002,-0.149904,-0.019659,-13.890580,-0.897942,-0.420463,-87.426376,0.722761,-0.008199,0.002763,-0.691044
3674,0.093364,-0.168660,9.928342,0.231511,0.005845,-13.274624,-0.893221,-0.427783,-87.879082,0.720025,-0.008203,0.002721,-0.693894
3675,0.085891,-0.155952,9.935527,0.794269,0.157579,-12.069639,-0.872959,-0.431557,-88.301483,0.717464,-0.008089,0.002604,-0.696544
3676,0.090913,-0.147528,9.928007,0.793423,0.003899,-10.956197,-0.843601,-0.434596,-88.685249,0.715129,-0.007916,0.002433,-0.698943
3677,0.100206,-0.120392,9.921846,1.215853,-0.214179,-10.322667,-0.807394,-0.443207,-89.039803,0.712965,-0.007735,0.002183,-0.701154
3678,0.097029,-0.100773,9.923430,1.515057,-0.154765,-9.625836,-0.759271,-0.453889,-89.372185,0.710931,-0.007496,0.001843,-0.703220
3679,0.093513,-0.133301,9.924889,0.055153,-0.085839,-9.201085,-0.730595,-0.461968,-89.685898,0.709004,-0.007363,0.001637,-0.705164
3680,0.096416,-0.151059,9.923778,-1.177957,-0.111923,-11.153852,-0.746552,-0.469670,-90.025078,0.706912,-0.007504,0.001710,-0.707259
3682,0.091866,-0.152189,9.924541,-1.190596,0.022291,-11.355547,-0.782931,-0.476198,-90.400200,0.704590,-0.007763,0.001920,-0.709569
3683,0.092922,-0.160884,9.926388,-1.021741,-0.004868,-10.143620,-0.816814,-0.480910,-90.758492,0.702366,-0.007994,0.002126,-0.711768
3684,0.087723,-0.157378,9.926044,-0.518224,0.096699,-8.738184,-0.839830,-0.483928,-91.073196,0.700406,-0.008147,0.002273,-0.713694
3685,0.089290,-0.129670,9.923116,0.249353,0.053699,-7.938231,-0.841962,-0.485491,-91.351128,0.698673,-0.008165,0.002296,-0.715391
3686,0.087119,-0.117163,9.920035,0.890362,0.090259,-6.221537,-0.820964,-0.486502,-91.587143,0.697200,-0.008038,0.002175,-0.716829
3687,0.087596,-0.110737,9.922318,1.133574,0.049440,-5.430135,-0.785584,-0.486883,-91.781372,0.695986,-0.007822,0.001965,-0.718010
3688,0.085844,-0.103800,9.920584,1.808768,0.035045,-4.735296,-0.735103,-0.487718,-91.950806,0.694927,-0.007518,0.001655,-0.719039
3689,0.085860,-0.096814,9.920929,1.465110,0.014369,-4.234089,-0.679265,-0.488728,-92.100296,0.693992,-0.007184,0.001308,-0.719946
3690,0.086256,-0.081914,9.920419,1.469154,-0.039051,-3.157140,-0.629308,-0.490548,-92.223465,0.693221,-0.006892,0.000990,-0.720692
3691,0.083701,-0.126734,9.925538,-1.217439,0.003901,-1.858627,-0.624395,-0.492045,-92.307060,0.692695,-0.006871,0.000955,-0.721197
3692,0.079699,-0.257055,9.957461,-6.539183,0.264172,-2.903966,-0.752992,-0.488547,-92.386490,0.692187,-0.007625,0.001791,-0.721676
3693,0.076713,-0.219897,9.953465,-3.704194,0.416838,-3.888859,-0.922759,-0.478875,-92.499863,0.691461,-0.008587,0.002927,-0.722357
3694,0.074471,-0.234809,9.957436,-3.331675,0.433219,-4.187544,-1.038911,-0.466978,-92.634689,0.690603,-0.009208,0.003742,-0.723166
3695,0.073904,-0.229692,9.958498,-2.040698,0.364135,-3.972536,-1.127352,-0.456255,-92.770912,0.689736,-0.009669,0.004376,-0.723983
3696,0.072736,-0.146217,9.949123,2.886969,0.357966,-3.197492,-1.112304,-0.446547,-92.890640,0.688981,-0.009512,0.004349,-0.724704
3697,0.080413,-0.029041,9.924769,6.878283,-0.146338,-1.089126,-0.948995,-0.444262,-92.962128,0.688542,-0.008514,0.003336,-0.725139
3698,0.099204,-0.143566,9.922606,-0.879039,-1.255251,0.171753,-0.848887,-0.467813,-92.977043,0.688453,-0.008061,0.002562,-0.725231
3699,0.066961,-0.046101,9.935289,4.342720,0.479817,0.534532,-0.791255,-0.480566,-92.965073,0.688532,-0.007796,0.002120,-0.725161
3700,0.053604,-0.018935,9.945708,5.071301,1.130497,0.404701,-0.634478,-0.453538,-92.949760,0.688641,-0.006683,0.001289,-0.725071
3701,0.058739,0.048270,9.939259,6.217852,0.737445,0.247617,-0.446405,-0.422307,-92.939186,0.688719,-0.005355,0.000286,-0.725008
3702,0.057115,0.058847,9.924744,5.682631,0.600919,0.171362,-0.248114,-0.399962,-92.932343,0.688772,-0.004022,-0.000834,-0.724967
3703,0.039564,0.133381,9.930036,8.624664,1.420174,-0.034504,-0.009674,-0.366273,-92.930122,0.688793,-0.002375,-0.002140,-0.724951
3704,0.072162,0.039855,9.913734,1.348477,-0.388597,-0.022153,0.156550,-0.349083,-92.931053,0.688790,-0.001267,-0.003089,-0.724953
3705,0.086950,-0.003694,9.903258,-1.589063,-1.120188,-0.029814,0.152547,-0.374227,-92.931984,0.688784,-0.001451,-0.003214,-0.724958
3706,0.087221,-0.109293,9.913391,-5.667018,-0.951724,-0.018854,0.031618,-0.408758,-92.932831,0.688776,-0.002396,-0.002657,-0.724965
3707,0.082607,-0.121777,9.921651,-5.174718,-0.523819,-0.024737,-0.149072,-0.433351,-92.933525,0.688766,-0.003638,-0.001662,-0.724973
3708,0.080711,-0.123442,9.921741,-3.972260,-0.282720,-0.030911,-0.301515,-0.446797,-92.934395,0.688755,-0.004639,-0.000778,-0.724979
3709,0.078677,-0.124754,9.922791,-2.961624,-0.118269,-0.046726,-0.417070,-0.453488,-92.935638,0.688741,-0.005376,-0.000087,-0.724987
3710,0.078771,-0.115782,9.924097,-1.770351,-0.074783,-0.058496,-0.495922,-0.456719,-92.937363,0.688726,-0.005870,0.000392,-0.724997
3711,0.078922,-0.116025,9.922173,-1.224925,-0.052748,-0.074790,-0.545826,-0.458864,-92.939568,0.688710,-0.006184,0.000695,-0.725010
3712,0.078601,-0.108132,9.919979,-0.550183,-0.011697,-0.076769,-0.575391,-0.459963,-92.942101,0.688692,-0.006368,0.000876,-0.725025
3713,0.084378,-0.099422,9.918136,0.027872,-0.229015,-0.078919,-0.584076,-0.464001,-92.944641,0.688675,-0.006446,0.000907,-0.725041
3714,0.087097,-0.103340,9.916266,-0.072072,-0.308345,-0.071362,-0.584792,-0.472982,-92.947052,0.688660,-0.006507,0.000858,-0.725055
3715,0.086163,-0.107531,9.918669,-0.244674,-0.214550,-0.067441,-0.590053,-0.481720,-92.949280,0.688645,-0.006594,0.000838,-0.725069
3716,0.087383,-0.106189,9.924352,-0.146611,-0.206826,-0.061957,-0.596557,-0.488765,-92.951363,0.688631,-0.006678,0.000837,-0.725081
3717,0.091483,-0.110977,9.927450,-0.308461,-0.335801,-0.068009,-0.604124,-0.497831,-92.953438,0.688617,-0.006781,0.000831,-0.725093
3718,0.086133,-0.115493,9.928809,-0.451093,-0.063426,-0.065449,-0.616764,-0.504508,-92.955582,0.688602,-0.006899,0.000871,-0.725106
3719,0.088685,-0.115808,9.926688,-0.365750,-0.123570,-0.060566,-0.630360,-0.507647,-92.957649,0.688588,-0.007000,0.000938,-0.725119
3720,0.092229,-0.110283,9.924811,-0.046770,-0.236322,-0.066238,-0.637217,-0.513669,-92.959702,0.688574,-0.007080,0.000946,-0.725131
3721,0.090646,-0.107180,9.923450,0.103125,-0.132271,-0.054421,-0.636260,-0.519834,-92.961655,0.688561,-0.007113,0.000903,-0.725143
3722,0.086283,-0.101577,9.921188,0.332639,0.089451,-0.063147,-0.628980,-0.520569,-92.963600,0.688549,-0.007074,0.000852,-0.725154
3723,0.090544,-0.097308,9.920774,0.452632,-0.068610,-0.073740,-0.615871,-0.520246,-92.965889,0.688536,-0.006993,0.000771,-0.725168
3724,0.093094,-0.100743,9.921912,0.214958,-0.172006,-0.075824,-0.604722,-0.524283,-92.968346,0.688521,-0.006951,0.000677,-0.725183
3725,0.090020,-0.103827,9.921985,0.009295,-0.019507,-0.070829,-0.600962,-0.527500,-92.970749,0.688505,-0.006949,0.000634,-0.725198
3726,0.089847,-0.105828,9.919214,-0.077727,0.009000,-0.068010,-0.602082,-0.527700,-92.973061,0.688491,-0.006957,0.000640,-0.725212
3727,0.096285,-0.110832,9.918259,-0.278756,-0.244150,-0.055203,-0.608004,-0.531640,-92.975067,0.688477,-0.007018,0.000654,-0.725224
3728,0.092777,-0.112039,9.921692,-0.273914,-0.076519,-0.045711,-0.617200,-0.537003,-92.976700,0.688466,-0.007107,0.000680,-0.725233
3729,0.089175,-0.102684,9.921244,0.182071,0.106450,-0.058546,-0.618715,-0.536523,-92.978447,0.688455,-0.007113,0.000692,-0.725244
3730,0.091269,-0.099146,9.922236,0.337654,0.032586,-0.065507,-0.610033,-0.534228,-92.980537,0.688443,-0.007046,0.000651,-0.725256
3731,0.091772,-0.101806,9.923216,0.157643,0.002669,-0.075004,-0.601756,-0.533665,-92.982880,0.688428,-0.006993,0.000602,-0.725271
3732,0.088835,-0.099868,9.925569,0.177495,0.110650,-0.077044,-0.596147,-0.531803,-92.985451,0.688413,-0.006947,0.000578,-0.725286
3733,0.091176,-0.105287,9.926467,-0.094032,-0.001187,-0.083405,-0.594731,-0.530006,-92.988144,0.688396,-0.006927,0.000580,-0.725302
3734,0.092460,-0.111199,9.926384,-0.358108,-0.059556,-0.086354,-0.602241,-0.531048,-92.990959,0.688377,-0.006979,0.000622,-0.725319
3735,0.092565,-0.109456,9.925659,-0.232470,-0.072039,-0.076777,-0.612058,-0.533270,-92.993660,0.688359,-0.007052,0.000671,-0.725335
3736,0.094798,-0.116270,9.927161,-0.436864,-0.146123,-0.080225,-0.623190,-0.536934,-92.996231,0.688342,-0.007142,0.000719,-0.725351
3737,0.092523,-0.119378,9.921584,-0.490355,-0.027635,-0.078489,-0.638619,-0.539859,-92.998856,0.688325,-0.007253,0.000799,-0.725366
3738,0.090095,-0.117675,9.922018,-0.307315,0.094207,-0.075752,-0.651889,-0.538779,-93.001427,0.688307,-0.007326,0.000890,-0.725382
3739,0.089095,-0.108369,9.924148,0.162585,0.123301,-0.070605,-0.654278,-0.535182,-93.003899,0.688292,-0.007318,0.000927,-0.725396
3740,0.087526,-0.115271,9.923292,-0.098432,0.161259,-0.061597,-0.653188,-0.530464,-93.006165,0.688278,-0.007281,0.000949,-0.725410
3741,0.083179,-0.111871,9.922121,0.038418,0.298990,-0.055078,-0.654169,-0.522816,-93.008194,0.688265,-0.007239,0.001001,-0.725422
3742,0.085670,-0.106320,9.926973,0.273291,0.140442,-0.063513,-0.648956,-0.515515,-93.010254,0.688253,-0.007161,0.001012,-0.725435
3743,0.086994,-0.109361,9.921100,0.102237,0.027703,-0.054090,-0.642679,-0.512735,-93.012245,0.688241,-0.007106,0.000989,-0.725447
3744,0.085550,-0.116032,9.919642,-0.210494,0.067645,-0.058481,-0.644466,-0.511167,-93.014137,0.688229,-0.007107,0.001010,-0.725458
3745,0.083678,-0.110715,9.919597,0.012331,0.133895,-0.067413,-0.647750,-0.507832,-93.016266,0.688216,-0.007105,0.001051,-0.725471
3746,0.084509,-0.099541,9.917417,0.480097,0.076251,-0.069200,-0.639522,-0.504355,-93.018578,0.688202,-0.007034,0.001020,-0.725485
3747,0.088528,-0.104813,9.918223,0.214352,-0.105712,-0.071943,-0.627928,-0.504872,-93.020935,0.688188,-0.006968,0.000943,-0.725499
3748,0.087365,-0.101326,9.920726,0.292057,-0.048094,-0.088693,-0.619464,-0.507465,-93.023582,0.688171,-0.006933,0.000874,-0.725515
3749,0.089240,-0.097455,9.919907,0.396670,-0.104519,-0.084088,-0.607960,-0.510039,-93.026421,0.688154,-0.006880,0.000786,-0.725532
3750,0.090890,-0.102554,9.918503,0.114079,-0.156796,-0.088165,-0.599422,-0.514424,-93.029259,0.688136,-0.006857,0.000706,-0.725549
3751,0.086628,-0.108902,9.921091,-0.190504,0.042537,-0.084719,-0.600670,-0.516359,-93.032104,0.688118,-0.006877,0.000702,-0.725566
3752,0.083664,-0.099207,9.917521,0.205592,0.182331,-0.085396,-0.600393,-0.512641,-93.034988,0.688100,-0.006851,0.000723,-0.725583
3753,0.089030,-0.095509,9.915802,0.352567,-0.068885,-0.083148,-0.591065,-0.510779,-93.037819,0.688083,-0.006783,0.000675,-0.725600
3754,0.088204,-0.097958,9.917358,0.193500,-0.044906,-0.082986,-0.581939,-0.512704,-93.040558,0.688066,-0.006741,0.000606,-0.725617
3755,0.091087,-0.094380,9.921862,0.282185,-0.140246,-0.087815,-0.573986,-0.515818,-93.043373,0.688048,-0.006713,0.000537,-0.725634
3756,0.096818,-0.093336,9.922445,0.255258,-0.348363,-0.091324,-0.565002,-0.523991,-93.046280,0.688030,-0.006711,0.000432,-0.725651
3757,0.095832,-0.102184,9.924737,-0.167287,-0.253531,-0.086510,-0.563510,-0.534051,-93.049149,0.688011,-0.006765,0.000362,-0.725669
3758,0.090702,-0.106801,9.927668,-0.369173,0.031326,-0.078855,-0.572425,-0.537782,-93.051872,0.687993,-0.006842,0.000396,-0.725685
3759,0.090566,-0.107143,9.929112,-0.332242,0.054336,-0.077433,-0.584091,-0.536381,-93.054482,0.687976,-0.006904,0.000479,-0.725701
3760,0.088283,-0.106952,9.929311,-0.241330,0.129212,-0.059104,-0.593629,-0.533345,-93.056793,0.687961,-0.006942,0.000557,-0.725714
3761,0.088922,-0.102740,9.930758,0.006791,0.082729,-0.060251,-0.597519,-0.529834,-93.058823,0.687948,-0.006943,0.000603,-0.725727
3762,0.084722,-0.102587,9.930923,0.044850,0.221749,-0.060563,-0.596639,-0.524780,-93.060890,0.687935,-0.006905,0.000628,-0.725739
3763,0.082693,-0.098699,9.926418,0.190852,0.266865,-0.061459,-0.592692,-0.516658,-93.063004,0.687923,-0.006830,0.000652,-0.725752
3764,0.079524,-0.097058,9.919971,0.234645,0.336031,-0.062592,-0.585581,-0.506632,-93.065178,0.687910,-0.006724,0.000667,-0.725765
3765,0.079874,-0.098088,9.921666,0.140903,0.256911,-0.077915,-0.579300,-0.496774,-93.067635,0.687895,-0.006624,0.000687,-0.725779
3766,0.079214,-0.107434,9.918302,-0.291437,0.204406,-0.083852,-0.581785,-0.489113,-93.070404,0.687878,-0.006590,0.000749,-0.725796
3767,0.080889,-0.104627,9.915675,-0.172411,0.082249,-0.084700,-0.589492,-0.484364,-93.073257,0.687860,-0.006607,0.000826,-0.725813
3768,0.082580,-0.108877,9.919090,-0.282774,-0.019722,-0.092371,-0.597053,-0.483353,-93.076218,0.687841,-0.006645,0.000880,-0.725831
3769,0.085175,-0.111812,9.925049,-0.359592,-0.125061,-0.092982,-0.607733,-0.485798,-93.079285,0.687820,-0.006725,0.000933,-0.725849
3770,0.079744,-0.110685,9.917958,-0.244094,0.116828,-0.086908,-0.617770,-0.485968,-93.082275,0.687801,-0.006786,0.000996,-0.725867
3771,0.078766,-0.109769,9.918421,-0.138169,0.169963,-0.081244,-0.624117,-0.481218,-93.085121,0.687783,-0.006794,0.001065,-0.725884
3772,0.078013,-0.115489,9.918059,-0.319114,0.162527,-0.081215,-0.631715,-0.475707,-93.087891,0.687765,-0.006805,0.001146,-0.725901
3773,0.080418,-0.114638,9.916655,-0.229190,0.027818,-0.077335,-0.640831,-0.472564,-93.090569,0.687748,-0.006840,0.001223,-0.725917
3774,0.078954,-0.115405,9.910725,-0.191604,0.064662,-0.078712,-0.647823,-0.471052,-93.093193,0.687731,-0.006872,0.001277,-0.725932
3775,0.082617,-0.115194,9.914285,-0.143173,-0.094441,-0.082497,-0.653380,-0.471579,-93.095871,0.687714,-0.006909,0.001309,-0.725948
3776,0.079090,-0.110845,9.913487,0.091098,0.045549,-0.071918,-0.654227,-0.472423,-93.098434,0.687697,-0.006919,0.001309,-0.725964
3777,0.081912,-0.108799,9.915341,0.198950,-0.062059,-0.076936,-0.649373,-0.472726,-93.100906,0.687682,-0.006892,0.001277,-0.725978
3778,0.083162,-0.114464,9.917426,-0.061621,-0.115895,-0.081419,-0.647062,-0.475722,-93.103516,0.687665,-0.006897,0.001245,-0.725994
3779,0.083552,-0.112679,9.922008,-0.005054,-0.116780,-0.081819,-0.648151,-0.479630,-93.106194,0.687648,-0.006928,0.001228,-0.726010
3780,0.085957,-0.114256,9.923019,-0.048500,-0.187809,-0.074510,-0.649022,-0.484736,-93.108734,0.687631,-0.006966,0.001203,-0.726026
3781,0.088140,-0.119081,9.926083,-0.249669,-0.237693,-0.082656,-0.653970,-0.491857,-93.111282,0.687615,-0.007041,0.001192,-0.726041
3782,0.087780,-0.114637,9.930162,-0.035173,-0.159671,-0.077636,-0.658695,-0.498510,-93.113876,0.687597,-0.007111,0.001182,-0.726056
3783,0.086995,-0.108494,9.928688,0.251434,-0.072783,-0.086815,-0.655067,-0.502415,-93.116577,0.687580,-0.007114,0.001136,-0.726073
3785,0.085294,-0.115740,9.929036,-0.069475,0.024901,-0.078365,-0.652010,-0.503245,-93.119324,0.687563,-0.007101,0.001112,-0.726089
3786,0.080537,-0.116888,9.927506,-0.141042,0.223882,-0.084674,-0.655495,-0.499130,-93.122086,0.687546,-0.007096,0.001159,-0.726106
3787,0.084216,-0.116338,9.929621,-0.096521,0.050299,-0.082526,-0.659429,-0.494592,-93.124916,0.687528,-0.007091,0.001211,-0.726123
3788,0.082726,-0.117787,9.926223,-0.141361,0.076068,-0.075829,-0.663371,-0.492517,-93.127579,0.687511,-0.007101,0.001249,-0.726139
3789,0.080551,-0.116779,9.926422,-0.080610,0.146458,-0.066408,-0.667050,-0.488836,-93.129990,0.687495,-0.007100,0.001294,-0.726153
3790,0.081982,-0.116633,9.926809,-0.048792,0.072210,-0.069168,-0.669187,-0.485218,-93.132301,0.687481,-0.007090,0.001329,-0.726167
3791,0.081903,-0.113534,9.920775,0.088565,0.031304,-0.061457,-0.668506,-0.483518,-93.134499,0.687467,-0.007075,0.001335,-0.726180
3792,0.084606,-0.115132,9.917695,0.025404,-0.086324,-0.051601,-0.666590,-0.484457,-93.136368,0.687455,-0.007069,0.001318,-0.726191
3793,0.087879,-0.120751,9.920780,-0.206059,-0.209478,-0.055607,-0.669587,-0.489407,-93.138100,0.687444,-0.007119,0.001307,-0.726202
3794,0.091653,-0.117645,9.922047,-0.075759,-0.331520,-0.058227,-0.674268,-0.498446,-93.139893,0.687432,-0.007204,0.001283,-0.726212
3795,0.095824,-0.109058,9.923668,0.310891,-0.437791,-0.067360,-0.670332,-0.511291,-93.141838,0.687419,-0.007262,0.001181,-0.726224
3796,0.096116,-0.110984,9.930427,0.208631,-0.344911,-0.060970,-0.661655,-0.524360,-93.143822,0.687406,-0.007292,0.001048,-0.726236
3797,0.090614,-0.109592,9.928154,0.198568,-0.041301,-0.081724,-0.654848,-0.530824,-93.146133,0.687391,-0.007292,0.000966,-0.726250
