seq,ax,ay,az,wroll,wpitch,wyaw
1,0.415495,-9.957416,-0.208043,1.991464,-1.825870,-0.050245
2,0.366309,-9.948359,-0.323681,1.785965,-1.315862,0.039957
3,0.469479,-9.933336,-0.314248,2.708887,-1.582661,0.282170
4,0.379949,-9.853866,-0.261807,1.550052,-1.730022,0.058914
5,0.286747,-9.782573,-0.127329,1.919867,-2.433394,0.359542
6,0.271449,-9.902512,-0.521330,0.964007,-3.740963,0.318237
7,0.804141,-9.490535,-0.313228,-1.510210,-3.839705,0.787471
8,0.864021,-9.845498,-0.916570,-11.131171,-1.985705,0.871397
9,0.997475,-9.720448,-1.286720,-13.076726,1.005109,-0.494306
10,0.219736,-9.606941,-0.003545,-21.606649,3.065108,-3.050231
11,0.400950,-9.199008,0.387570,-38.101902,-5.647926,-4.377787
12,0.685382,-10.484475,0.401272,-56.565601,-12.423036,-4.034453
13,1.176206,-10.266048,-1.328430,-59.281750,-9.485629,-6.651415
14,1.408170,-9.141107,-1.567995,-55.146492,-5.495333,-5.690083
15,1.611708,-9.549110,-1.319805,-44.884640,-0.597113,-2.722157
16,1.820946,-9.624786,-1.399081,-32.951904,3.187182,2.481249
17,1.088420,-9.580867,-0.924579,-24.757685,5.567626,7.005618
18,0.733987,-9.718615,-1.259181,-25.749537,-2.458742,10.484728
19,-0.133348,-10.060927,-2.359822,-29.709312,-10.919999,14.917542
20,-0.735488,-10.255406,-3.629821,-25.696129,-21.311550,15.802578
21,-0.604949,-7.917944,-2.994006,-31.586201,-24.783031,17.954132
22,-1.456969,-8.697056,-3.449503,-45.395828,-34.823620,11.529986
23,-0.550710,-10.796766,-4.646722,-47.265087,-46.313839,-1.867639
24,0.803204,-9.487028,-3.467212,-36.293682,-31.184288,3.457841
25,-0.043132,-8.894662,-3.809840,-36.637016,-16.939774,14.001987
26,-1.522041,-8.658753,-4.066086,-39.437088,-14.925553,14.093541
27,-1.171131,-8.677258,-4.104061,-30.708794,-7.395112,9.416580
28,-0.647095,-8.692245,-4.386643,-23.910795,-0.459780,3.618063
29,-0.744021,-8.704014,-3.986316,-16.830502,5.247180,-4.133638
30,-0.976947,-9.496708,-3.899770,-6.850950,12.403771,-13.579117
31,0.089027,-10.033272,-5.047670,5.631121,23.924509,-24.230078
32,0.349128,-8.627501,-5.302597,5.798973,32.126358,-29.845484
33,0.805789,-6.738071,-4.353128,-8.895690,12.319845,-19.858301
34,0.631198,-9.387033,-4.556447,-15.106208,18.194660,-2.874750
35,-0.664514,-9.918799,-4.712549,-9.872283,19.728214,1.405471
36,0.884094,-7.858337,-4.603452,-5.561543,2.859108,-4.614305
37,0.986828,-7.737354,-4.373049,-10.681024,-2.130668,2.893249
38,1.113572,-8.284226,-5.105886,-2.067173,4.018812,13.391616
39,-0.100938,-9.270658,-5.564555,4.212009,4.667329,14.360578
40,-0.585120,-6.673732,-5.154088,-7.369765,-1.299039,7.730432
41,0.067292,-8.248832,-5.044075,-25.184944,1.333183,12.682060
42,0.174466,-8.532995,-5.148887,-27.382275,0.821998,8.699396
43,0.487757,-8.641949,-4.735398,-21.530352,1.989331,4.236063
44,0.450130,-8.639171,-4.869393,-19.645834,7.070662,6.669914
45,0.140573,-8.136870,-4.519727,-23.536943,11.457698,11.438432
46,-0.061359,-8.321809,-5.301489,-26.481981,11.106735,13.338208
47,-0.230325,-8.019503,-5.132226,-27.573017,8.566069,10.850950
48,-0.204374,-8.097007,-5.094536,-36.270794,5.064071,8.478136
49,0.269432,-8.667123,-5.343417,-38.124790,4.247700,8.501025
50,-0.137513,-8.471991,-5.702845,-36.865902,3.988293,7.707542
51,0.016548,-7.652538,-5.780607,-30.571461,0.722813,4.739619
52,0.072975,-7.823278,-5.956418,-32.005829,2.721775,4.686211
53,-0.083291,-7.129671,-5.830339,-32.158424,-2.062001,0.665397
54,-0.168918,-7.636530,-6.043211,-38.872494,-4.640816,0.634879
55,-0.038575,-7.351460,-6.543123,-39.459976,-5.678445,-0.868158
56,-0.405548,-7.716065,-6.851965,-33.508865,-4.099113,-2.996824
57,-0.579938,-7.579397,-7.736083,-21.454056,-2.741038,-3.851342
58,0.533169,-6.717400,-7.944780,-2.868284,-1.421113,-2.264380
59,-0.042955,-5.926557,-6.852699,4.118201,-1.433560,-1.533370
60,-0.381556,-6.221254,-7.191155,-2.344094,-3.470670,-1.823296
61,-0.517292,-6.781802,-7.304526,3.193584,-2.087614,-0.545903
62,-0.736907,-6.687388,-7.023655,5.929992,-2.085589,-1.339751
63,-0.308188,-6.530732,-7.304005,2.112250,-5.876693,-2.107574
64,0.034539,-6.742890,-7.252352,-5.051970,-3.290249,-3.236758
65,-0.179930,-6.981499,-6.860856,-0.576719,-3.270936,-1.566191
66,-0.317691,-6.932724,-6.394806,-2.331534,-0.966789,-3.710116
67,0.076938,-7.488502,-6.794848,-6.535459,2.878543,-3.382042
68,-0.145846,-7.066853,-7.024879,-6.527829,4.846988,-3.717746
69,-0.013104,-6.884109,-6.947952,-2.613830,6.601802,1.020253
70,-0.170771,-6.807360,-6.784486,-0.118942,5.579432,3.202326
71,-0.064824,-6.634744,-6.348382,-3.887978,4.259506,1.600104
72,-0.308818,-6.873367,-6.709275,-11.525234,6.968023,2.996325
73,-0.128964,-6.937028,-7.030105,-10.953012,4.312913,2.065512
74,-0.005671,-6.856703,-7.022483,-10.876717,3.374469,0.196253
75,0.117709,-6.662039,-7.331622,-12.387383,3.107431,0.036031
76,-0.110802,-6.637820,-7.508983,-10.518124,2.497062,0.272549
77,-0.001627,-6.445370,-7.069462,-6.642273,1.894321,0.379364
78,-0.010050,-6.393989,-6.804045,-8.282643,-0.913381,-0.063154
79,0.099617,-6.767782,-7.344042,-9.785679,-1.416936,0.814253
80,-0.034184,-6.740655,-7.603989,-2.063231,-1.636146,-0.075844
81,-0.053865,-6.601611,-7.557606,3.096264,-0.733865,-0.826065
82,0.051207,-6.236078,-7.079786,3.157106,0.293806,-2.178950
83,0.149611,-6.293543,-7.186908,-3.137336,0.820251,-2.285764
84,0.227677,-6.864593,-7.298450,-2.504078,2.079139,-0.782728
85,0.202654,-6.838601,-7.198436,1.171832,4.106754,0.239165
86,-0.078852,-6.704979,-7.122105,2.720006,2.274834,-0.204066
87,0.125723,-6.703496,-7.218875,4.003421,2.089564,-0.101443
88,-0.007499,-6.962350,-7.125371,5.045514,2.729491,-0.363779
89,0.065678,-6.849550,-7.017096,3.027848,3.156574,-0.912695
90,-0.096366,-6.802879,-7.125256,0.862323,2.337277,-1.222230
91,-0.192026,-6.705959,-7.130661,1.608900,-1.156056,-1.174781
92,0.192316,-6.597824,-7.118242,3.555998,-4.106853,-1.579037
93,0.112731,-6.429322,-6.790399,4.752970,-5.573565,-2.287359
94,-0.079954,-6.871971,-6.913235,3.741127,-5.818853,-2.603483
95,-0.358852,-7.101383,-7.212595,5.701942,-7.039593,-4.892371
96,0.076123,-6.728900,-6.872831,7.067644,-7.031964,-6.250445
98,-0.084356,-7.485558,-6.787477,-4.170796,-3.903817,-3.992076
99,0.069506,-7.091953,-6.553319,-2.759315,-1.721743,-2.992594
100,0.234701,-7.471173,-6.404984,-2.853342,-0.993763,-0.842985
101,0.163737,-7.362132,-6.703864,-1.025616,1.208389,-0.911282
102,0.059753,-7.089343,-6.284682,-0.384727,5.480980,-0.834986
103,0.146928,-7.701535,-6.657625,-4.161393,7.739350,-0.422986
104,0.239699,-7.558758,-6.718516,-1.758060,9.639127,-0.087282
105,0.247480,-7.471618,-7.012831,4.246457,7.228165,1.171606
106,0.363810,-6.973695,-6.776035,7.099938,8.738831,4.742272
107,0.011761,-7.144411,-6.760638,5.688456,5.168166,5.917235
108,0.578684,-6.837750,-6.492385,6.107085,1.515610,5.892973
109,0.215965,-6.502421,-5.812645,0.773975,4.498794,7.960602
110,-0.029073,-7.518611,-6.321249,-10.121133,0.096499,11.538898
111,-0.104393,-7.644799,-6.503374,-9.396317,-0.254464,14.781489
112,0.067435,-8.292195,-6.327464,11.058712,6.719016,15.506304
113,-0.035584,-7.336225,-6.188207,42.714035,8.252570,14.316082
114,-0.911141,-7.355133,-6.640077,43.759296,8.176274,12.813046
115,-0.279810,-7.198660,-6.455679,24.448709,4.933683,11.165046
116,-0.162408,-7.924999,-6.451347,15.720416,4.849757,14.583119
117,-0.492731,-7.283854,-6.148424,16.040861,-4.549944,11.149787
118,-0.478094,-6.905113,-5.620049,10.944269,-6.129277,8.532825
119,-0.188629,-7.364738,-5.396050,1.530829,-6.098064,6.725528
120,-0.478067,-8.523061,-5.448888,5.315124,-6.708434,7.900491
121,-0.812761,-8.277766,-5.696719,6.825789,-10.584285,0.942271
122,-0.108694,-7.800739,-5.972264,11.586679,-4.999398,-1.873062
123,-0.465049,-7.217972,-5.327275,6.703716,8.001487,0.293752
124,-0.577287,-7.738704,-5.494590,-3.069837,10.938893,3.223529
125,0.186973,-8.094841,-5.513612,-1.612577,10.069117,3.582122
126,0.057142,-7.635826,-6.049370,-1.170059,12.800523,4.078048
127,-0.880651,-7.363878,-5.243436,1.652903,13.319338,7.030714
128,-0.361914,-7.382514,-5.324172,3.659495,5.148006,5.756567
129,-0.000117,-7.539423,-5.718858,5.650058,4.381496,4.638027
130,-0.599175,-7.415541,-5.830084,8.663761,3.961866,2.883212
131,-1.079549,-7.357418,-6.346505,8.239519,-0.248882,1.792456
132,-0.194957,-7.826623,-6.891986,9.282946,-2.535747,0.427522
133,-0.536070,-7.746425,-6.934553,17.423759,-5.694413,-0.236255
134,-0.608700,-7.417198,-5.581778,20.048349,-4.900930,-3.059218
135,-0.536487,-7.004834,-6.464828,15.531611,-2.703599,-3.181292
136,0.028509,-7.685228,-6.786855,14.219316,5.032843,0.664041
137,-0.872165,-7.289144,-5.684874,16.073315,6.970769,0.786115
138,-1.071216,-8.059648,-5.895189,11.899909,4.346177,-3.600922
139,-0.820798,-8.177105,-6.257943,10.938577,0.996771,-7.194476
140,-0.237310,-8.134837,-5.812980,8.802280,1.713956,-7.598846
141,-0.552533,-8.374634,-5.163871,7.551020,2.240400,-4.920847
142,-0.522070,-8.079939,-5.414955,8.619169,1.218030,-4.752995
143,-0.496650,-8.161664,-5.640851,8.954873,4.857362,-1.357810
144,-0.441146,-8.418719,-5.116049,12.784945,0.569511,1.190485
145,-0.354596,-8.409320,-3.511885,15.180650,-0.971673,-3.043958
146,0.301852,-9.198884,-5.239630,14.684724,-2.459451,-3.188921
147,-0.378072,-8.611871,-4.257527,23.992867,3.148326,-1.182329
148,-0.309398,-9.105979,-4.518745,21.131758,-3.176636,-6.652772
149,0.101429,-8.741374,-4.386550,23.557978,-0.040859,-5.782994
150,1.151798,-8.617366,-5.045836,18.575832,6.032325,-2.517514
151,-0.718802,-9.443280,-4.300213,15.432427,8.244917,-0.381218
152,-0.978659,-9.442915,-4.615921,15.897834,0.134623,-1.342551
153,-0.208582,-9.254547,-5.692997,12.853612,-1.719377,-2.052106
154,-0.387186,-9.383007,-4.294291,10.106947,2.858400,-2.540402
155,-0.003008,-9.815362,-4.298522,3.904059,10.045508,-2.013958
156,-0.646475,-9.565057,-4.025661,5.780946,14.569878,-3.188921
157,-0.649050,-9.082832,-4.212330,8.710725,14.997137,-2.960032
158,0.053206,-8.526487,-3.559731,17.126204,21.787506,-1.189960
159,-0.820207,-7.836489,-3.585826,16.431908,24.496023,2.304410
160,-0.585776,-8.892905,-3.920310,3.949836,13.005804,5.463077
161,-0.474549,-9.438129,-3.807942,-3.042588,-2.762554,-1.261640
162,0.671154,-9.399569,-2.645774,2.038322,-5.018667,-2.585485
163,0.439934,-9.457492,-2.670743,18.785355,-3.454593,2.076216
164,-0.430046,-8.805972,-2.893192,22.821426,3.495996,0.313772
165,0.058889,-9.517568,-4.268548,23.637796,4.739626,0.588439
166,0.748781,-7.922115,-2.259345,16.824539,13.017772,3.396142
167,0.346965,-8.978554,-3.420077,1.698456,3.802016,5.779074
168,-0.471649,-10.113087,-3.072364,-5.778579,6.159571,-1.217294
169,-0.547873,-8.788972,-2.978773,-7.335023,0.734906,-4.093664
170,-1.906479,-9.216613,-3.670404,-10.951466,-2.248278,-5.817960
171,-1.028551,-9.859748,-3.408291,-13.415834,-15.005015,-8.251811
172,1.413493,-9.526524,-3.770091,-14.537392,-20.528866,-10.182108
173,0.354477,-10.321006,-2.868354,-13.850725,-1.126723,-14.637810
174,0.146926,-9.534508,-2.838164,-7.060356,-3.522426,-10.822996
175,-0.312271,-9.891195,-3.568960,-1.855108,-1.753940,-0.801032
176,2.363252,-10.540895,-2.470581,3.516150,9.217464,2.304226
177,-2.963947,-7.808643,-2.640066,2.715038,22.889757,1.350523
178,1.010969,-8.985125,-4.946489,-12.612884,4.723614,10.567112
179,-0.653393,-9.212020,-2.803305,-17.923103,2.076133,3.647040
180,0.389034,-10.132521,-4.193414,-27.704285,1.656504,-1.937847
181,0.464583,-9.068168,-3.985735,-30.443323,-3.760531,0.206078
182,0.090319,-9.617079,-2.774086,-30.229692,2.076133,0.480745
183,0.272041,-8.384648,-3.041537,-20.967325,-1.097792,-0.984144
184,0.286198,-8.502042,-2.633122,-17.305103,-4.088606,-0.968884
185,0.954526,-8.149106,-3.175011,-11.422662,-9.932900,-3.463772
186,0.197347,-8.703488,-3.671558,-5.807255,-5.591642,-1.945477
187,0.240376,-9.286844,-3.648681,-4.632293,-6.568234,-1.937847
188,0.608839,-9.274799,-3.626011,0.913985,-6.234830,-3.032897
189,0.118598,-9.515109,-3.783276,2.212331,-2.739171,-1.664195
190,-0.141518,-9.188468,-4.222853,2.789198,-4.464728,-1.941713
191,0.434062,-9.530531,-4.066931,2.055741,-4.488085,-3.213745
192,0.015154,-9.151409,-3.905883,1.840756,-4.643507,-4.606423
193,-0.362752,-9.010524,-3.532343,1.765650,-0.277582,-2.595773
194,0.451145,-8.517691,-4.184139,1.028851,-3.766364,-4.148923
195,-0.789014,-9.148596,-3.789176,1.851143,-5.059751,-3.828418
196,0.609406,-9.116679,-3.508962,5.310476,2.714390,-2.736193
197,0.043316,-9.066371,-3.651055,4.686229,-3.137987,0.253653
198,0.534077,-9.311820,-3.546883,2.038325,2.130537,1.913104
199,-0.394688,-9.066080,-3.575632,3.693954,11.598905,3.103326
201,0.180503,-8.978557,-3.940574,0.970177,9.187943,3.919696
202,0.011931,-9.072001,-3.726100,2.412177,7.753572,3.019399
203,0.121929,-9.089360,-3.595859,0.643191,3.484933,1.038640
204,0.108620,-9.398903,-3.894829,-1.473673,4.617819,-0.973116
205,0.162223,-9.200459,-2.867521,0.227647,5.411005,0.328060
206,0.020762,-9.450194,-3.836219,-2.761132,0.097480,0.737936
207,0.458129,-8.880166,-3.511735,-1.349682,-1.337339,0.942508
208,0.205424,-9.624992,-3.462557,-4.973755,2.019697,-2.170380
209,0.464786,-9.005516,-3.471174,-2.168835,-3.204785,-2.682206
210,0.042017,-8.717857,-3.806520,-4.472983,2.814991,-1.804799
211,0.176863,-8.930809,-2.872006,-7.700315,0.480325,-0.034726
212,-0.130222,-9.519927,-3.909616,-8.226760,-1.533897,0.377274
213,-0.685169,-9.062861,-3.163395,-5.815797,6.584027,0.545126
214,0.753965,-9.342098,-2.934959,-9.310167,-2.212934,-0.828207
215,-0.508527,-9.228417,-2.764346,-8.592982,1.739213,-1.957391
216,-0.053923,-8.370253,-3.797363,-4.923131,2.235139,-3.269687
217,0.319933,-8.899437,-3.549157,-17.260239,0.434547,-1.247836
218,0.072697,-9.559925,-3.463796,-17.130535,3.997583,0.621422
219,-0.356525,-8.762668,-3.387289,-23.928532,2.670028,-0.568799
220,1.468444,-8.031951,-3.712990,-20.754606,3.059139,2.254163
221,-0.224543,-8.393764,-3.580500,-29.139568,10.475136,2.788237
222,0.555975,-5.810915,-5.052098,-32.572899,-6.363450,-4.269168
223,1.726841,-6.447202,-3.966272,-48.251785,18.959282,-5.421242
224,-0.969288,-6.510408,-2.957703,-56.514671,-0.366564,1.842163
225,0.852274,-6.119403,-5.331195,-57.895634,3.219361,-2.315984
226,-0.308114,-7.332659,-4.713065,-59.825928,1.418769,3.612236
227,0.893207,-7.569853,-4.325366,-57.163189,6.393286,5.359421
228,-0.805645,-8.902940,-6.058300,-63.373703,3.852620,8.403643
229,-0.102047,-7.188718,-4.943463,-51.685116,5.355657,6.702236
230,1.874679,-6.408476,-7.136859,-59.482597,-3.555748,4.581199
231,0.076342,-7.558113,-7.712633,-55.095558,5.950768,4.810088
232,-0.057077,-6.787460,-6.666651,-45.001564,-5.302932,-1.995540
233,1.324298,-7.046266,-6.911387,-41.034157,0.396399,-1.324133
234,-0.537939,-6.686893,-6.554914,-42.964451,5.637953,2.864533
235,-1.607604,-6.192169,-6.841780,-44.856602,-6.790710,0.659571
236,1.703609,-5.486736,-7.220957,-45.718746,-1.610193,-1.163910
237,-1.474511,-7.138941,-6.936882,-55.599113,-0.481008,-0.332281
238,-0.701981,-5.764913,-7.772435,-49.030006,-6.050636,-1.621688
239,1.009918,-6.884013,-8.764324,-50.693264,-3.983007,-7.801686
240,0.645711,-6.337111,-8.574872,-27.972235,1.968102,-0.881614
241,-0.153144,-6.127574,-7.356189,-27.087198,8.445655,1.247052
242,-0.765449,-6.476025,-10.138284,-28.544456,-7.126414,-1.842947
243,0.900370,-6.074125,-7.502268,-16.390461,6.042323,-1.720873
244,-1.094928,-6.453585,-9.280018,-13.430165,4.333287,4.504903
245,1.324636,-6.356381,-8.455276,-15.246017,3.448250,4.405718
246,-0.566277,-5.586472,-9.775743,-13.826905,4.897879,3.673273
247,0.417590,-5.930184,-8.441792,-6.815279,5.294620,4.359940
248,-0.529824,-6.492543,-8.929700,-2.665954,2.538217,3.914444
249,0.682897,-5.700952,-8.325991,-3.877345,3.347923,1.749372
250,0.143872,-5.482841,-8.901661,-4.922604,5.194293,4.373964
251,0.058658,-5.670326,-8.317183,-1.023864,6.094589,5.800704
252,0.986400,-6.024032,-9.638318,-5.319344,-0.001483,4.442631
253,1.599651,-5.264184,-12.325483,-13.978971,-0.718668,5.609963
254,-0.646534,-9.727373,-7.745847,-65.616287,4.942515,8.249814
255,0.192955,-7.525360,-10.588165,-103.169312,-22.707254,-3.248034
256,2.184687,-9.919835,-10.891497,-109.616348,-14.154441,-7.574033
257,-1.895844,-5.940981,-11.177251,-68.691032,-4.472445,-9.077069
258,-0.005646,-3.111444,-11.911852,-36.234592,-18.869551,-11.983957
259,0.880289,-5.988260,-12.952231,0.006135,-17.458071,-9.672180
260,-1.639316,-5.738524,-10.466724,57.449600,-12.567480,-5.384329
261,0.106097,-0.572113,-10.635939,62.149456,-28.200584,-7.505366
262,0.273736,-5.537368,-10.087062,58.220192,-25.843031,10.958332
263,-1.690011,-5.082885,-10.299379,104.417587,-30.779400,-6.841588
264,-0.028733,-0.567350,-7.833751,133.730621,-11.621407,-1.432182
265,-0.010039,-1.243901,-8.174973,84.977295,-16.061848,7.395296
266,-0.401800,-6.602049,-2.701244,97.703514,8.398736,7.013815
267,0.312195,-3.826606,-8.138818,110.727287,-2.992297,4.801223
268,-1.760535,-2.950134,-5.224292,92.172035,5.591034,2.313964
269,-0.062737,-3.774207,-3.313014,60.470932,26.137621,-0.043590
270,-0.399289,-4.297451,-4.235841,45.577900,23.879251,4.061149
271,-0.159617,-4.926043,-4.770436,42.220863,6.697330,1.802779
272,-0.088857,-7.096722,-3.113161,36.834347,20.850288,2.634409
273,-0.785449,-9.209508,-5.077616,28.144199,31.524139,1.787520
274,-1.031626,-9.840174,-5.631373,42.320049,22.536436,1.680705
275,-0.151108,-7.585241,-4.580307,58.052341,34.522583,0.597298
276,-1.162499,-9.508978,-3.887520,26.725090,16.829475,1.230557
277,-0.150827,-8.267389,-5.914576,13.113835,12.976513,-3.988108
278,-1.035082,-8.027271,-4.390488,16.249611,9.482142,-0.241961
279,-0.325678,-7.884142,-3.636565,3.653097,12.968884,2.046928
280,-0.526088,-8.120962,-5.468285,-1.005058,0.647962,0.393230
281,-0.573138,-8.494220,-4.672893,8.531977,9.933218,-2.368697
282,1.026029,-7.234733,-4.272181,10.553829,9.269441,-3.703880
283,-1.191566,-8.876438,-5.188921,-0.883554,5.209387,1.347052
284,0.012343,-9.180988,-3.693918,3.676425,1.688311,0.077894
285,-0.759340,-7.766831,-5.279077,-6.791424,2.436014,-0.013662
286,-0.188891,-8.373575,-4.980610,-20.463715,-2.439318,-5.148401
287,-0.341750,-8.910203,-5.046175,-18.396086,-0.112281,-5.903734
288,0.403617,-7.781106,-4.160441,-15.275569,1.474681,-1.623513
289,-1.829303,-7.169262,-6.163696,-20.158531,-6.460131,-3.508031
290,0.444741,-6.775860,-4.247459,-25.178825,4.282384,-0.303588
291,0.625969,-6.918200,-4.192390,-32.381195,6.586531,-0.654551
292,-0.131442,-6.423419,-4.350509,-35.440678,11.019345,-1.364106
293,-0.947954,-5.646360,-4.838734,-42.101341,3.847495,-3.240994
294,2.175981,-5.055546,-5.185202,-51.935928,9.150087,-1.379365
295,-2.210593,-7.303195,-4.296898,-67.874222,1.306829,1.611449
296,0.978342,-6.111660,-5.422526,-71.734810,-0.852355,-10.901140
297,1.598667,-8.494257,-6.135042,-76.373627,13.941493,7.081891
298,-1.596315,-7.549727,-6.021040,-63.876297,4.984309,4.304707
299,0.953897,-6.294141,-7.903575,-53.217709,2.481793,1.405449
300,0.642494,-7.672969,-7.087691,-31.938677,7.914087,6.936929
301,0.476997,-6.190760,-5.778961,-23.546085,10.874383,9.424188
302,-1.317926,-6.857245,-7.388554,-32.594826,-0.280133,2.305745
304,0.373539,-6.043537,-6.751993,-41.017933,11.507642,6.135818
305,-0.787853,-5.669610,-7.878312,-52.859116,9.333198,2.580411
306,0.612615,-7.355225,-8.517288,-53.004078,2.191866,1.283375
307,0.391854,-5.689275,-7.908004,-45.275265,5.236088,1.641967
308,-0.955975,-5.761064,-9.390365,-46.709637,0.650681,0.909523
309,0.012569,-5.887709,-8.622651,-39.102898,-14.997684,-5.377290
310,1.419368,-5.602137,-9.828470,-33.281490,-10.511463,-5.217068
311,0.178988,-5.473083,-8.577518,-19.357420,-4.972353,-2.645883
312,-1.310464,-5.891644,-10.010735,-19.342159,-9.458574,-4.728772
313,1.361378,-4.417295,-9.891269,-17.282162,-8.016576,-5.209438
314,-0.546213,-6.045695,-9.149557,-16.305569,2.733569,0.558560
315,-0.697524,-5.600709,-9.409224,-7.928239,-1.882355,5.861151
316,-0.018545,-5.286403,-9.640487,-8.187646,-0.707392,0.108412
317,-0.370157,-5.316568,-10.067719,-5.318905,-3.438799,0.993449
318,0.857071,-5.767023,-10.240760,-12.277125,-2.767392,-2.752698
319,0.180021,-6.423154,-11.631215,-68.728737,6.189791,-8.337585
320,0.058408,-12.337936,-10.219522,-156.904343,27.949488,-4.972920
321,-2.238554,-3.776571,-9.628711,-114.849838,9.539198,11.095076
322,2.498238,-6.467325,-13.827538,-19.166679,-1.149911,18.991741
323,0.572621,0.932959,-11.657470,51.010632,-2.065466,2.160782
324,-0.435132,-2.364137,-12.587413,75.867958,-15.356277,1.756412
325,-0.139853,-4.390946,-12.339128,39.955303,-18.225018,0.367819
326,0.691857,-5.059541,-10.952314,78.721436,-9.672204,13.651000
327,1.311660,-2.307481,-9.323088,74.578552,-4.674798,17.473444
328,0.004475,-2.326126,-8.369168,68.505371,-9.916352,4.220781
329,0.686074,-7.989705,-6.669197,92.706543,-7.047613,5.922188
330,-1.310325,-1.746806,-6.324359,114.733276,-12.006869,-0.082328
331,0.424265,-2.751074,-6.729460,75.875587,-17.301832,0.695893
332,-1.065416,-4.733518,-4.186795,69.672699,-10.511463,-1.661661
333,0.355734,-3.947956,-5.062930,68.627441,5.587050,7.921151
334,-0.639709,-4.274940,-4.462878,62.195667,-8.855833,1.413078
335,-1.763873,-3.086951,-3.978713,37.017895,-11.617759,-7.597512
336,-1.174750,-6.555962,-4.453910,31.379602,-19.689905,-13.914844
337,-0.461598,-6.581002,-4.217239,31.021009,-18.102943,-19.057211
338,-1.126585,-7.102945,-6.879274,25.466640,-13.235240,-18.759655
339,0.416521,-8.144236,-7.597935,27.511381,-4.873168,-21.079062
340,0.802346,-7.830232,-4.813530,40.420708,6.433939,-15.921435
341,-1.022420,-7.303307,-6.984720,20.682865,5.449717,-4.064994
342,0.269393,-7.631623,-6.729086,10.710942,-4.026279,-7.467808
343,-0.271597,-9.023206,-5.160439,5.614350,6.632309,-0.250180
344,-0.873386,-8.652094,-5.723232,19.019606,0.574385,-2.264402
345,-0.074588,-8.512856,-3.876497,14.884347,14.300085,2.839819
346,-0.510792,-8.873298,-5.262638,5.430289,-1.680433,3.875782
347,-1.005443,-8.361729,-4.445228,16.104139,12.434378,-1.571772
348,0.712049,-7.080036,-5.227755,40.595242,17.698820,7.263336
349,-1.798545,-8.442294,-4.600651,21.124434,-3.908284,1.274079
350,0.043856,-8.975630,-5.041265,20.193619,-5.914876,-3.921697
351,-1.431313,-9.107325,-4.782250,19.712952,-4.488136,-9.308214
352,0.545532,-8.909806,-3.915451,15.966806,-1.703322,-5.005105
353,0.250784,-8.173773,-5.017809,10.000437,3.622158,0.572153
354,1.427646,-8.775809,-4.958589,3.759402,9.939489,1.724227
355,-1.478310,-8.194306,-4.281426,-6.532966,20.567560,5.325411
356,-0.678555,-8.715573,-4.558747,-11.263335,16.630672,9.231780
357,-0.811368,-8.997390,-3.456630,-4.358521,11.572229,6.416448
358,-1.007165,-8.756001,-3.782082,-3.831899,-1.448234,-1.195546
359,-0.238634,-8.970165,-4.895405,-5.098417,7.150356,2.031787
360,-0.911430,-9.292115,-3.242953,0.072029,-2.884034,-1.193249
361,-0.262931,-8.643261,-4.420373,3.803694,-4.442492,-3.382737
362,0.032052,-9.092533,-4.364509,-1.420240,2.684155,1.879052
363,-0.624050,-8.417641,-3.750904,-0.842355,-1.447807,-0.721098
364,-0.077552,-9.346017,-4.367768,-5.176023,-0.942813,0.180703
365,0.187199,-8.381010,-3.693174,-5.343874,7.411629,1.348036
366,-1.087147,-9.236011,-4.579849,-14.919057,4.619185,3.232553
367,0.416426,-9.140033,-3.915169,-12.965871,5.481333,2.149146
368,-1.069061,-8.406264,-4.144128,-14.690167,5.069333,2.957887
369,-0.222305,-7.412835,-5.096680,-13.896686,-1.469257,0.569813
370,0.273548,-8.096279,-4.939932,-18.649944,4.672592,-3.763815
371,-0.711632,-8.377556,-4.554141,-13.438909,6.320592,2.057591
372,0.316385,-7.685707,-5.527339,-16.094021,-8.297774,0.791073
373,0.471765,-6.681573,-3.393932,-33.993122,8.990961,0.272258
374,0.624917,-5.925896,-5.506788,-51.258972,16.155182,-0.773001
375,-1.778143,-8.440155,-4.557797,-47.718822,1.010372,0.966554
376,0.559499,-6.320958,-3.093892,-43.240231,10.692369,-2.680408
377,-1.858413,-6.594626,-6.459162,-69.364075,3.718889,2.042332
378,1.049542,-6.576766,-7.954502,-49.588081,-6.184367,-9.859887
379,-0.534422,-4.909793,-3.043623,-47.200008,3.222964,-4.877740
380,0.396516,-7.603595,-8.189766,-52.853561,-12.127847,-11.385813
381,-0.149817,-6.194363,-6.258186,-25.753128,10.722887,-4.984556
382,-0.423550,-6.217500,-6.166661,-24.982536,-0.378220,-0.536482
383,1.697593,-7.509025,-6.345345,-43.553047,4.146149,3.484331
384,-1.567241,-6.318740,-7.321377,-46.726971,14.781849,4.842404
385,-0.951144,-7.649572,-6.095312,-59.125118,9.006221,3.881072
386,1.229937,-5.289646,-7.776613,-60.345856,7.770221,-3.359445
387,0.092171,-7.818113,-8.242986,-60.269562,14.789478,6.749812
388,-0.421773,-5.623415,-7.441022,-50.557045,2.688890,0.493517
389,-1.390359,-6.417431,-8.993795,-58.781784,1.407112,-2.207371
390,1.961913,-5.706910,-7.904649,-38.235195,6.602888,0.203591
391,-1.534554,-6.366096,-10.063542,-36.930531,2.025112,1.821072
392,0.132457,-5.398650,-6.992056,-28.507423,-3.117257,-3.863000
393,-1.143747,-5.374985,-10.648878,-36.671124,-2.064368,-6.418925
394,0.643396,-5.535097,-7.528928,-21.274536,5.488963,-1.246038
395,0.038701,-4.605048,-9.748243,-21.472908,7.777852,2.652702
396,-1.040011,-5.206152,-8.236048,-16.300020,3.421334,3.888700
397,0.970599,-4.449165,-9.287514,-14.980094,0.476298,2.744257
398,1.214589,-6.065902,-9.540565,-6.900319,7.777852,5.574849
399,-1.334446,-5.368247,-8.726452,-0.608151,1.479053,4.786965
400,0.766237,-6.169892,-11.890596,-11.282001,3.256756,1.407040
401,2.341045,-7.205935,-9.078834,-15.203629,7.453052,3.192373
402,-1.538382,-10.537026,-10.757634,-25.061106,13.297346,5.046372
403,0.842046,-9.959352,-10.121413,-34.041180,17.730160,-1.072589
404,0.023924,-8.246195,-10.710381,-43.761326,0.273572,1.101855
405,0.136708,-3.968844,-12.106897,-19.682219,-11.956720,7.373408
407,2.080353,-5.925368,-9.717017,55.408573,-38.195007,7.823556
408,-2.130920,-5.654354,-11.010890,62.404945,-39.301304,-5.123921
409,-1.041621,0.054316,-11.376184,102.368935,-33.846123,-25.075397
410,1.748403,-3.057690,-7.509736,97.463081,-25.766346,-3.323329
411,-2.714187,-5.923273,-7.624750,91.374641,-34.616714,-4.360959
412,-0.417261,-2.950482,-6.290863,87.903160,-28.406197,-17.918808
413,2.906550,-4.895869,-5.955008,62.809311,-8.286870,-0.515626
414,0.015303,-7.028649,-2.824177,74.627609,-0.153687,3.352595
415,-0.658791,-3.420190,-5.995472,64.030052,-5.700426,1.170521
416,-1.830418,-4.656035,-4.816442,10.737105,5.049719,-4.284662
417,0.637811,-2.776421,-4.051919,23.509102,13.579642,-3.582737
418,-0.980860,-5.240447,-4.396996,15.932881,10.344680,-4.956070
419,-1.102661,-6.412748,-4.747382,18.893177,6.865571,-7.466217
420,-1.212036,-7.632029,-5.769311,17.611401,5.393053,-12.089771
421,-0.566295,-8.991000,-5.269289,18.473547,17.012974,-0.210441
422,-1.303319,-8.321637,-5.848359,28.956656,8.872162,-7.840069
423,-0.522635,-9.336424,-5.266659,26.805099,13.266828,-0.912367
424,-1.574238,-7.689823,-5.983576,30.246065,-1.992427,-6.535402
425,-0.617585,-6.233513,-6.533370,32.626507,5.255719,-6.192069
426,-1.737242,-8.982631,-5.107258,7.448735,0.143868,-10.365476
427,-0.559674,-6.984975,-4.846539,14.811326,7.155496,-4.315181
428,-0.703243,-8.488008,-5.087993,10.111476,2.982090,0.666966
429,-1.439599,-9.230092,-4.784473,10.126735,-2.061094,-3.430144
430,-0.321602,-8.120398,-4.668913,21.899250,6.079720,-1.057330
431,-0.237665,-8.948396,-5.112007,15.635325,2.501423,-1.194663
432,-0.975621,-7.591816,-4.772336,33.847244,6.217053,-1.400663
433,0.190230,-8.585510,-3.517136,12.209622,9.329940,3.055039
434,-0.508543,-8.672617,-4.967785,-4.010965,3.371201,-0.286738
435,0.104613,-8.755959,-4.414320,-3.942299,5.843200,1.712225
436,0.262809,-8.409263,-4.109345,-11.175185,13.198161,5.733038
437,-0.696834,-8.201452,-4.365950,-11.373555,14.350235,7.289483
438,-0.735093,-7.899205,-4.496781,-20.895330,10.924532,5.702520
439,-0.863023,-8.073277,-4.693550,-25.877476,13.274457,4.649631
440,0.054857,-7.163472,-4.781777,-31.889624,10.787198,4.085039
441,0.831738,-8.362610,-5.513995,-34.491329,17.676752,8.502593
442,-1.940947,-8.647736,-3.634828,-28.708069,7.323349,5.603335
443,-0.790386,-9.128145,-5.622936,-35.033031,9.780087,1.948743
444,0.355282,-8.662271,-5.178875,-31.363180,15.479420,2.154743
445,1.061162,-7.624641,-5.067785,-24.588070,6.926608,5.778816
446,-1.535810,-7.613656,-5.318827,-30.493402,2.531942,5.702520
447,0.041196,-6.847146,-5.918356,-36.497921,8.841643,1.429929
448,0.507512,-6.470323,-5.798565,-33.751255,13.091346,4.115558
449,-0.892867,-5.556207,-6.314603,-29.135328,6.697720,1.094225
450,-0.703923,-5.272936,-5.321951,-45.401695,6.964756,-8.999772
451,0.818111,-5.576243,-5.470006,-51.612213,18.126900,0.407558
452,-1.342154,-5.703400,-6.011435,-52.260731,1.837646,0.148151
453,1.348138,-6.152807,-5.462311,-55.037914,9.368088,2.177632
454,0.018846,-5.561577,-7.724564,-51.238361,7.872681,2.040299
455,-0.755492,-7.266949,-6.369448,-51.139175,9.604607,-2.178885
456,1.394219,-6.830889,-7.022097,-42.784733,10.161569,1.925854
457,-1.984922,-6.857104,-7.607878,-39.214066,7.414904,-0.179923
458,0.959729,-6.946788,-7.395621,-32.034588,5.522757,2.551484
459,0.437674,-5.299458,-6.521379,-17.362812,8.422014,6.228964
460,-0.583066,-5.631739,-7.614546,-27.983253,0.418535,0.712744
461,0.446061,-5.674593,-8.166601,-29.158216,3.539053,-3.201255
462,0.939946,-5.755433,-8.501678,-26.953255,-1.839835,-7.397551
463,0.035514,-5.208356,-7.789522,-27.288958,8.635644,3.077928
464,0.083755,-5.710700,-9.157865,-35.567104,-18.380867,-3.285181
465,0.572813,-6.103614,-8.485929,-29.486290,-1.679613,-8.816661
466,-0.996168,-5.757127,-8.790050,-15.035777,-4.395760,-9.091328
467,0.258109,-5.625988,-9.196432,-3.530299,2.104683,-4.620366
468,-0.501789,-7.157588,-8.139009,-9.840001,-2.015316,8.380519
469,0.223972,-5.754968,-10.514218,-7.848668,-7.867239,3.833261
470,-0.069157,-4.912609,-9.674286,-2.720889,2.721977,3.117232
471,-0.114155,-4.862199,-8.560555,1.080200,-2.436976,-0.984651
472,0.899387,-5.393669,-8.707447,-0.962437,-3.788705,-3.668026
473,0.329302,-5.778669,-8.490494,-0.725918,-4.948408,-5.842470
474,-0.489420,-4.727931,-8.677468,3.012599,-3.636112,-6.315507
475,0.107150,-5.929267,-8.655473,0.626190,-5.575787,-3.894610
476,0.395321,-5.775929,-9.384807,10.048781,-4.789935,-2.361055
477,-0.761263,-5.721569,-13.417212,0.649079,-6.727860,-4.588906
478,0.846797,-7.587526,-8.905747,-67.597939,2.626063,-13.988607
479,-0.458637,-12.211517,-9.896838,-143.474579,-0.692825,-15.407717
480,0.266857,-10.077423,-11.229071,-117.655922,-3.660750,-7.068535
481,-0.749045,-7.688960,-12.886703,-66.636604,-11.267488,5.146498
482,0.487339,-6.471188,-11.752448,0.481228,-12.686599,-0.125574
483,-1.911154,-5.459116,-11.099393,54.186172,-18.477486,-4.993277
484,-0.353930,-4.113879,-11.717248,53.888618,-20.590893,-15.163568
485,-0.763248,-4.931296,-9.394721,96.744240,-16.745560,-13.034904
486,-1.156650,-1.168929,-10.008299,146.794601,-18.424080,-7.282165
487,0.373259,2.033820,-9.561184,110.767494,-15.173857,6.863164
488,-0.170041,-7.256581,-5.119451,71.879280,7.440359,9.915015
489,-1.189887,-3.710532,-10.097926,101.146530,-3.424231,8.427238
490,1.524957,0.540991,-5.425285,63.990250,11.247541,8.984200
491,-0.418385,-8.842978,-2.652386,33.181808,23.195538,6.336720
492,-0.241608,-2.870478,-5.238293,88.038834,13.009986,-2.948536
493,0.694379,-5.230955,-7.186722,55.010174,31.267685,0.011759
494,-2.368818,-7.580436,-1.688737,40.567287,16.748503,6.123090
495,0.074653,-1.171388,-2.516542,18.586332,-0.288454,4.047832
496,-0.290804,-5.774139,-6.721735,13.619447,14.787689,3.216202
497,-0.403920,-9.715674,-4.458748,37.988476,7.913395,-2.963796
498,-0.307628,-6.362911,-5.352848,57.260914,-0.090084,-1.208982
499,0.247822,-7.522689,-4.882107,17.930185,16.916355,3.254350
500,-0.543045,-12.732736,-6.180543,36.020031,17.206282,-2.971426
501,-1.900686,-6.711776,-3.541476,66.240990,6.471395,-3.314759
502,0.009476,-7.898727,-5.991445,36.973736,7.409840,-5.390017
503,-1.151373,-9.393898,-3.542446,37.469662,15.192059,-0.865648
504,-0.080108,-8.860075,-4.509657,21.012554,5.548211,-3.459722
505,-1.118551,-8.622041,-3.528511,35.394402,-0.265566,-2.544166
506,-0.076886,-8.706500,-3.736714,24.911293,13.574578,0.782351
507,0.101123,-8.079330,-3.664309,33.342033,-4.316898,1.606351
508,-0.614085,-8.843687,-2.928454,16.411888,5.212507,-0.400241
510,-0.139538,-9.052293,-2.912713,14.473964,-4.576305,0.568722
511,-0.850489,-8.751238,-3.879209,6.607818,-7.681563,-2.872240
512,-0.254327,-9.063738,-3.029464,8.693591,1.130486,1.634863
513,-0.570506,-9.100203,-3.298278,-3.750331,-6.262622,-1.737432
514,-0.288139,-9.066679,-3.778423,-5.291516,-1.692476,-1.668766
515,-0.703609,-9.978532,-2.726251,-6.390182,3.411745,0.391234
516,-0.412340,-8.717141,-3.676132,3.434799,-2.124037,-0.337403
517,-0.276036,-9.419370,-2.228470,-6.857567,0.965962,-3.351106
518,-0.823394,-9.035211,-3.491513,-5.697865,-7.602110,-3.389254
519,-0.235401,-8.715755,-3.513899,-10.771566,-5.420036,-5.639994
520,-0.196219,-9.237815,-3.073126,-16.287786,-0.819371,-4.106439
521,-0.387598,-8.948033,-3.281281,-8.558975,-2.818333,-1.336884
522,0.305108,-8.974592,-3.338272,-13.708973,6.161738,1.142744
523,-0.500629,-8.985471,-3.421096,-14.067566,13.562476,3.897040
524,0.165526,-8.789584,-3.117014,-16.844749,11.914477,0.410300
525,-0.474295,-7.690895,-3.828110,-20.362009,9.236478,2.821262
526,0.038667,-7.235087,-3.579954,-31.096895,8.275145,1.623411
527,0.611632,-7.286144,-4.222136,-44.509777,4.483220,1.150374
528,-0.559540,-7.954144,-3.953038,-52.597183,2.171443,0.250078
529,-0.658783,-7.508883,-4.207056,-57.625107,-0.254778,-1.588662
530,-0.335333,-7.221706,-4.627645,-75.714951,-0.056408,-4.953328
531,0.356005,-8.684334,-5.591283,-71.503395,2.034110,-2.969625
532,-0.227993,-7.519369,-5.351512,-49.972591,3.483739,0.112745
533,-0.606630,-9.209052,-5.558350,-39.909111,4.155146,0.601041
534,0.163396,-8.000241,-6.211257,-39.527630,6.360109,4.499781
535,-0.533160,-8.787093,-8.259905,-6.849938,4.193294,4.667632
536,0.963373,-7.175213,-5.590064,8.394058,17.590919,4.866003
537,-1.906374,-6.938252,-4.848737,-6.209050,11.029440,5.339040
538,-0.879678,-8.324214,-5.206547,-40.786518,8.916034,-1.718365
539,1.271490,-6.699875,-6.053555,-34.240299,14.951069,4.476892
540,-0.846974,-6.977471,-5.673154,-57.358070,8.832108,-1.092736
541,-0.076777,-6.941247,-5.849551,-45.440590,8.427737,0.013560
542,-0.477316,-7.076136,-6.608684,-45.654221,-0.720186,2.050670
543,0.074027,-5.816095,-6.113945,-39.756519,2.171443,2.157485
544,0.157273,-6.738247,-7.407735,-38.665482,0.508184,3.210373
545,0.586218,-6.161149,-6.183250,-22.727194,5.070701,3.446892
546,0.030272,-5.097573,-7.605340,-26.633562,5.238553,2.332966
547,0.111931,-6.299460,-5.883531,-40.389778,11.441441,5.865484
548,-0.104259,-6.813383,-7.298162,-40.412666,4.269591,5.697632
549,-0.987786,-5.661014,-7.039588,-37.177704,3.972035,4.499781
550,0.194692,-7.662334,-8.853685,-38.390816,-3.382926,2.485559
551,1.094774,-5.381331,-8.355235,-24.352304,3.491369,-2.321106
552,-0.538070,-8.930788,-9.200536,-39.497112,-1.315297,2.348226
553,0.851212,-6.953139,-8.120963,-11.168307,0.347962,5.850224
554,-0.359750,-7.688906,-11.126555,-8.108827,7.054404,12.983926
555,-0.056201,-7.135500,-9.153059,5.372725,16.301514,15.448296
556,-0.012507,-5.800296,-8.797140,3.038059,11.876328,17.996592
557,-1.206915,-7.235946,-7.180157,1.664726,4.528998,15.272814
558,0.084891,-6.541063,-7.900442,21.707756,-4.542629,10.176223
559,-0.073161,-6.486750,-8.834890,17.442795,-1.628111,3.607114
560,0.070213,-5.218738,-7.837667,13.956057,-0.666778,1.615781
561,-0.254909,-6.469018,-9.104416,0.421096,-3.039592,-0.123774
562,-0.222153,-4.867788,-10.763940,-25.038971,-4.168777,-2.580515
563,0.188334,-9.088852,-5.961795,-99.519394,11.143885,-12.201474
564,0.698760,-12.456313,-10.268153,-137.835388,10.075737,-13.017844
565,-0.787725,-9.445831,-10.580886,-81.719467,-6.953591,-5.792587
566,-0.633861,-6.886094,-11.077965,-32.775410,-20.732698,1.104596
567,-0.614236,-8.352390,-10.573457,22.791164,-34.565212,-0.070366
568,-3.169406,-8.398140,-12.609186,74.672630,-33.596249,-21.112879
569,2.020710,-2.465765,-10.964558,150.648453,-11.653442,-21.692730
570,1.424811,-3.349788,-9.459228,119.557732,-23.357290,-2.694958
571,-2.093572,-2.689667,-7.737563,80.539818,-22.182327,-14.398808
572,0.255567,-4.706690,-7.466393,59.833008,-10.676849,-10.843400
573,0.113057,-5.070534,-6.735154,68.027229,2.736036,1.318226
574,-2.771168,-4.541128,-4.975450,51.806637,-7.464776,-1.313996
575,1.180848,-5.823596,-6.402901,32.427387,-7.953072,0.509485
576,-0.799883,-5.877445,-4.858172,83.255966,11.677958,0.250078
577,-0.920488,-5.980364,-3.424200,58.307079,7.588479,-5.510290
578,0.573933,-5.993449,-4.383633,21.181313,7.649516,-0.436588
579,-0.839166,-7.104078,-4.612478,18.411758,10.914996,6.643706
580,-0.049214,-6.172372,-4.830158,21.120275,8.580330,-2.031182
581,-0.862113,-7.261353,-4.799209,29.482347,15.073143,5.232224
582,-0.418959,-9.051835,-5.406878,25.705681,29.699139,-3.435033
583,-0.893345,-7.343141,-3.942674,43.993900,25.975880,6.445336
584,-0.278422,-7.991284,-3.481884,12.674278,25.968250,-0.757033
585,-1.986833,-10.289459,-6.006736,21.944275,7.741071,1.974374
586,0.583785,-7.721833,-4.211523,37.104347,14.760329,-4.457402
587,-1.379274,-8.575278,-4.882096,24.370497,1.644999,1.417411
588,0.095885,-8.979938,-3.382967,32.435017,14.684031,-5.632365
589,-1.109072,-8.152424,-3.859759,26.346571,1.393221,0.578152
590,-0.843770,-9.070479,-3.272280,26.140570,-0.071667,-1.344514
591,-0.153504,-8.999937,-3.823444,21.379683,-3.978037,-2.679700
592,-0.933134,-9.570535,-2.662452,20.776943,-1.124556,-1.130884
593,-0.958793,-9.191505,-3.099655,9.897095,-4.725740,-3.984365
594,-0.365150,-9.364590,-3.460123,10.209909,2.591073,-2.191404
595,-0.916389,-9.423450,-3.277057,11.041538,-0.506556,-4.518439
596,-0.974681,-9.225363,-3.790451,6.222335,-3.766447,-2.643504
597,0.385765,-9.273159,-3.107732,4.078412,6.235995,-4.192320
598,-0.238282,-9.184889,-3.182528,-1.117365,2.405922,-5.306245
599,-0.049354,-8.856248,-4.179735,2.712329,1.943312,-2.586359
600,0.346521,-10.107347,-2.771634,-3.780484,14.219383,-1.228284
601,-0.875873,-9.060637,-4.468782,6.260105,10.511385,-1.243544
602,0.115768,-9.011243,-2.700375,-0.064856,14.097310,-2.265913
603,-1.167481,-10.125894,-3.384674,-5.916780,5.231682,-1.579248
604,-0.063598,-10.406660,-2.804179,-3.414262,-0.185354,-8.171246
605,-0.079684,-9.018630,-3.255127,4.558698,1.500794,-6.118876
606,-0.070559,-11.008835,-1.679994,3.986477,-4.106981,-6.294357
607,0.580808,-10.170744,-3.847907,16.544844,-6.960463,-7.507468
608,0.983508,-9.420388,-1.908785,28.988768,-1.665501,-5.401690
609,-0.774976,-8.978003,-3.128453,20.939508,8.176719,-0.747619
610,0.656552,-7.518228,-2.372122,9.807883,-1.055130,3.059566
611,-0.453110,-8.993735,-2.720096,-9.914704,-10.599794,2.006677
613,0.419619,-8.615739,-3.068549,-20.939516,-5.350612,0.457864
614,-0.183128,-9.136250,-1.014201,-19.322035,4.476348,0.366307
615,-0.377540,-9.507563,-2.598151,-17.635887,-4.915722,-0.091470
616,-0.026851,-9.795885,-2.591793,-10.433519,-1.230613,2.830678
617,-0.281498,-10.044902,-3.100041,-9.754482,-6.525574,1.762529
618,-0.309797,-9.690465,-2.993041,-9.044928,-1.963056,0.679123
619,0.371694,-9.563770,-2.528165,-14.187296,-7.181722,-0.762878
620,0.456173,-9.400100,-3.253900,-12.325666,3.370053,1.075863
621,-0.105617,-9.574479,-2.566309,-15.743740,-0.322686,1.861714
622,0.863782,-8.818092,-2.932394,-17.323072,5.033311,3.975121
623,0.001134,-8.750640,-2.939451,-9.617149,16.363310,11.406379
624,0.963327,-9.091796,-2.486940,-3.933077,12.113605,11.543712
625,-1.007445,-7.925354,-3.360684,-2.140114,12.327236,14.648971
626,0.255508,-7.975791,-4.052532,-2.803892,18.263086,9.361639
627,-0.369988,-7.675570,-4.195734,-18.337812,24.176048,7.004084
628,-0.195504,-9.457248,-3.893256,-33.703880,27.739084,9.170897
629,-0.516889,-8.644322,-4.009737,-33.406326,24.176048,12.581342
630,-0.032707,-9.533568,-3.316440,-39.815212,23.390196,10.948601
631,-0.821336,-9.553755,-3.898150,-55.234688,21.719307,6.889638
632,0.770017,-11.041128,-5.887198,-56.829281,13.784495,8.491860
633,-0.640354,-8.745231,-4.577016,-34.833065,23.779306,9.842305
634,0.209297,-9.315274,-3.937706,-28.561514,20.231529,8.629193
635,-0.167811,-9.629247,-5.090856,-30.362106,16.096272,2.060085
636,-0.120846,-8.065337,-5.332904,-32.979065,11.526125,6.492898
637,0.180455,-8.493199,-6.381529,-31.628626,20.147604,6.698898
638,-0.226392,-8.707548,-4.058449,-23.815886,21.276789,7.591564
639,-1.376159,-8.486148,-5.650188,-11.989964,12.579014,6.836231
640,0.141238,-8.602914,-4.902894,2.636033,10.030718,4.799120
641,-0.547942,-7.876944,-5.121238,5.153809,6.460052,3.189270
642,0.251725,-8.099465,-4.925779,7.595291,7.886793,1.922751
643,0.249256,-7.542557,-5.639588,-3.206396,3.931104,2.922364
644,0.637958,-8.705791,-6.139141,-2.290841,6.853251,1.953402
645,-0.480395,-7.983096,-5.935052,3.995973,8.455473,3.067327
646,0.593783,-7.914072,-5.958642,5.895750,6.670141,4.112586
647,0.510012,-7.740853,-5.966091,-2.008544,12.148212,6.859251
648,-0.021735,-7.990542,-6.334153,-5.418988,7.059252,5.730067
649,-0.556769,-7.759524,-5.737291,-9.538986,4.243918,1.999179
650,-0.314897,-8.625194,-5.602764,-0.282309,-4.440672,-2.892554
651,-0.490396,-8.735186,-4.787198,25.994127,-7.111042,-4.510035
652,0.278162,-6.535898,-4.181882,43.374420,7.888805,-0.710480
653,1.391816,-6.303133,-6.285006,6.920059,6.904583,3.081444
654,-0.641245,-8.538321,-7.319827,-24.369043,6.561251,4.828629
655,-0.704487,-8.326005,-5.644855,-21.797859,10.444730,2.883074
656,-0.400042,-8.160429,-5.392867,-28.031263,5.912732,-1.206406
657,0.600919,-8.363134,-5.467776,-29.084152,-0.458008,-3.197739
658,-0.191464,-8.556692,-4.980564,-37.301262,-6.058154,-2.900184
659,-0.611032,-7.905056,-5.265399,-40.185261,-10.933486,-6.707368
660,0.311562,-8.216264,-5.713480,-37.255486,-13.901411,-8.584256
661,0.177578,-8.321693,-5.201490,-35.157337,-10.956375,-11.720033
662,-0.319681,-8.452587,-5.516757,-38.117630,-13.146078,-14.802402
663,0.289949,-8.111073,-5.988115,-36.164448,-13.039263,-13.711366
664,0.230062,-7.642365,-5.440837,-35.172596,-12.222893,-12.437218
665,0.098065,-7.503242,-5.717231,-36.851112,-12.604374,-12.559292
666,-0.126599,-7.818047,-5.782786,-35.676151,-15.412077,-12.444847
667,0.381975,-7.211239,-5.667845,-33.761116,-16.495483,-14.764254
668,0.286378,-7.082414,-5.942892,-35.020004,-14.557558,-14.054699
669,0.372985,-7.124284,-6.429752,-35.088669,-13.123189,-12.345662
670,-0.067048,-6.635939,-6.361800,-30.045486,-11.658300,-13.139143
671,0.408627,-6.554777,-6.095484,-31.670597,-14.321039,-12.154922
672,0.467566,-6.640394,-7.212778,-38.773781,-13.786966,-11.536921
673,0.196225,-5.354248,-7.091813,-32.700596,-3.509857,-6.783664
674,0.477166,-6.239248,-7.451028,-40.871925,-1.678748,0.350038
675,-0.422293,-6.917324,-8.096664,-44.640965,-5.829265,1.380037
676,0.021920,-7.358140,-7.904169,-40.574371,-9.552524,-1.046184
677,0.300221,-7.604617,-7.568957,-28.267782,-10.002671,-4.716035
678,-0.207876,-7.746384,-7.722004,-14.076675,-8.759042,-4.601590
679,-0.567009,-7.386240,-7.483454,-2.154826,-4.206537,-0.480562
680,0.102500,-6.709958,-6.811940,1.760536,5.074569,0.833985
681,-0.558243,-7.388786,-7.215591,4.026536,13.581603,1.261244
682,0.107586,-6.898311,-7.189368,2.142017,15.214343,2.314132
683,0.075902,-6.131078,-6.559810,-3.374204,16.053604,4.595391
684,0.273058,-6.052319,-6.648526,-7.959610,15.588195,8.539907
685,0.147809,-6.556094,-7.914266,-7.082202,12.635530,10.378648
686,-0.128331,-6.038153,-8.090117,-2.428129,5.753606,7.319168
687,-0.245541,-5.620584,-7.439419,-0.326543,5.210763,3.359949
688,0.194240,-6.250306,-7.417952,0.377835,4.242949,-1.288594
689,0.059828,-6.082039,-7.876150,6.351834,5.013542,-6.827704
690,1.199862,-5.925028,-7.637229,14.431609,12.353243,-6.827704
691,0.941775,-5.049634,-6.826532,13.676276,22.943165,-5.462000
692,1.211328,-5.752459,-6.665248,-3.055497,27.940571,-1.494594
693,0.748082,-7.420722,-7.904409,-16.331049,34.036644,2.465182
694,-0.019085,-7.064943,-8.061758,0.690650,33.121086,0.084739
695,0.150783,-6.505947,-7.056821,1.835094,25.758497,-2.539853
696,0.218382,-6.908766,-7.193579,-0.057053,20.471167,1.389405
697,0.581702,-7.172360,-7.335537,11.807017,15.771316,3.983478
698,0.754913,-7.487938,-7.479023,26.532196,6.455542,1.801405
699,1.266979,-7.403894,-6.985669,36.267605,8.172208,1.145257
700,1.007727,-7.312270,-6.659565,42.287380,11.330873,3.113701
701,1.027838,-7.601973,-6.716543,52.701820,7.729689,2.144738
702,0.984844,-7.767005,-6.510232,51.587894,10.293243,-0.281483
703,1.122478,-7.800190,-5.976091,45.919083,12.894947,-3.623260
704,1.363968,-7.831379,-5.069885,43.553898,8.767319,-4.973704
705,1.180676,-8.471050,-5.120193,48.116413,2.488135,-3.218890
706,1.151646,-8.488788,-5.458714,51.549747,-2.074382,-1.509853
707,1.292382,-7.900494,-5.035282,52.266933,-1.631863,0.954516
708,1.103247,-8.172409,-4.518545,49.154045,0.084803,5.593330
709,1.088982,-7.969626,-5.258654,49.588932,-1.067271,9.904069
710,0.087209,-8.161361,-4.585171,44.713600,-2.226974,9.667551
711,1.348786,-7.552974,-4.651955,32.300198,-7.613492,7.294737
712,0.373070,-7.731421,-4.536696,18.528717,-4.187789,8.584144
713,0.380415,-8.205262,-4.594395,14.866498,-6.240159,14.001180
714,0.123980,-8.772547,-4.401615,11.349240,-6.804750,13.840958
716,-0.205509,-8.847812,-4.360840,13.699164,-13.045786,9.713329
717,0.208120,-9.285150,-4.206195,19.367977,-12.656675,7.577033
718,0.272983,-8.875205,-3.341316,27.539307,-13.495934,5.120293
719,0.270212,-9.313245,-3.368614,25.387753,-16.044230,4.815108
720,0.340955,-9.661304,-2.994771,26.692419,-14.617490,2.900071
721,0.402528,-9.567684,-2.932558,27.020493,-12.038675,-1.471705
722,0.295871,-9.548939,-2.958582,27.669012,-8.452750,-3.882667
723,0.596294,-9.384329,-2.635090,28.409086,-6.125714,-3.562223
724,0.168703,-9.386177,-2.619971,30.537752,-4.462455,-1.525112
725,-0.164773,-9.528652,-2.236648,31.140493,-3.661344,-1.364890
726,-0.024645,-9.268174,-2.096106,24.670568,-4.714233,-1.387779
727,-0.022394,-9.654495,-2.384939,19.360348,-3.768159,-2.005779
728,0.119939,-9.477769,-2.229230,20.321680,-2.135419,-1.700594
729,0.038855,-9.352672,-1.923230,14.942794,-2.387196,-1.570890
730,0.243144,-9.781137,-1.918122,9.777537,-1.120678,-1.136002
731,0.238804,-9.524966,-1.907748,10.487092,1.923543,-0.571409
732,0.249012,-9.537631,-2.091349,6.672278,5.517097,0.817183
733,0.173939,-9.930017,-1.707187,-1.682164,8.469763,0.130516
734,0.451777,-9.845951,-1.477259,-5.222311,13.161983,-0.632446
735,0.320553,-9.743117,-1.547393,-13.347863,15.008353,0.328887
736,0.539733,-9.375441,-1.847164,-23.853863,17.526129,2.129479
737,0.074932,-10.395130,-1.949698,-28.301935,18.754499,0.534887
738,0.339436,-9.609226,-1.859857,-21.069048,16.839462,-2.471186
739,0.601461,-9.474503,-1.732994,-21.603123,11.826799,-3.157853
740,1.009319,-10.195611,-1.876188,-13.584382,8.195096,-0.838446
741,0.278569,-9.446702,-2.141454,-6.908459,6.798875,3.983478
742,0.396821,-9.442356,-1.683008,-8.945570,4.120876,0.763776
743,0.338130,-9.940812,-2.733371,-5.123126,0.626506,-2.104964
744,0.303605,-9.718931,-1.384367,27.974195,-6.110455,-1.319113
745,0.708585,-9.594502,-1.458952,58.958115,-20.431267,1.145257
746,0.495426,-9.844105,-1.637626,64.375145,-23.666229,0.244961
747,0.355380,-9.832932,-1.810878,48.970932,-15.746675,0.573035
748,0.138225,-9.768380,-1.139876,35.107899,-6.186751,2.259182
749,0.135703,-9.750288,-1.410054,16.636570,-1.647123,3.823256
750,0.168636,-9.782816,-0.634099,5.641789,2.923130,1.727589
751,0.282446,-9.913507,-0.759044,2.586205,-1.157631,0.401678
752,0.251622,-9.914310,-0.826548,-0.273272,-1.296788,-0.157574
753,0.204542,-9.787481,-0.804462,-0.470940,2.472372,0.349398
754,0.255514,-9.847297,-0.738485,-0.219357,1.247496,0.618365
755,0.307980,-9.754202,-0.456479,-1.223157,-0.748968,0.192219
756,0.236174,-10.136896,-1.057492,-2.363776,0.441546,0.872212
757,0.119632,-9.880486,-0.783914,3.831322,0.449209,0.747684
