seq,ax,ay,az,wroll,wpitch,wyaw,roll,pitch,yaw,q0,q1,q2,q3
60,-0.380289,-9.198348,-0.138554,-17.891817,4.755882,28.682390,-90.863029,2.367218,-110.036530,0.414302,-0.396473,0.591890,-0.566418
61,-1.216242,-7.753992,-6.004651,-6.715102,3.549319,30.571690,-93.355469,3.314769,-110.216934,0.409562,-0.399701,0.607829,-0.550493
62,-1.495001,-7.833527,-6.066038,-0.050516,3.655554,30.521986,-97.349152,4.945887,-110.657280,0.401943,-0.403373,0.633253,-0.524140
63,-1.491213,-7.920238,-6.043715,1.893291,2.223840,24.971096,-100.876839,6.411370,-111.191467,0.394878,-0.405536,0.655210,-0.500312
64,-1.636768,-8.135528,-5.620360,3.985252,3.972873,8.635609,-105.147141,7.562511,-111.901390,0.382930,-0.410465,0.678993,-0.473129
65,-1.866574,-8.056460,-5.178855,5.276844,9.490704,-5.705570,-108.706940,8.136703,-112.617981,0.370433,-0.415238,0.697371,-0.451697
66,-1.992251,-8.232866,-4.673650,10.838892,14.453458,-17.849127,-110.099174,8.073695,-113.107376,0.363102,-0.416982,0.704447,-0.445013
67,-1.956672,-8.486922,-4.433456,23.542421,14.052112,-30.194302,-110.603165,7.588880,-113.433296,0.357195,-0.418703,0.706465,-0.444979
68,-1.955039,-8.940786,-4.434537,35.014626,14.700366,-35.677589,-110.397705,6.805205,-113.604851,0.352721,-0.420458,0.704453,-0.450054
69,-1.857968,-9.048836,-5.015153,38.090805,17.136999,-28.753607,-110.020370,6.022082,-113.833954,0.348635,-0.421337,0.701931,-0.456313
70,-1.717622,-9.331059,-5.505888,32.008354,14.138455,-21.703075,-109.972694,5.434916,-114.157639,0.344080,-0.421787,0.701508,-0.459990
71,-1.505529,-9.219924,-5.876218,20.567080,11.077513,-16.496128,-110.439697,5.019221,-114.465408,0.338678,-0.423107,0.703507,-0.459735
72,-1.186215,-8.717283,-5.952936,3.092711,13.722213,-10.628924,-111.586075,4.684101,-114.831139,0.330983,-0.425651,0.708630,-0.455099
73,-1.039195,-8.070827,-6.282796,-11.938356,13.975956,-5.531149,-113.496017,4.420164,-115.305511,0.320406,-0.429247,0.717284,-0.445634
74,-0.912891,-7.724104,-5.920167,-18.759985,9.839601,-1.301778,-115.773636,4.283887,-115.762337,0.309250,-0.433188,0.727426,-0.433086
75,-0.776097,-7.633500,-5.986944,-15.080454,6.507380,1.462389,-117.874664,4.243262,-116.125710,0.299670,-0.436612,0.736545,-0.420796
76,-0.728249,-7.454711,-6.014450,-11.401505,3.417807,3.425157,-119.681755,4.264655,-116.411919,0.291860,-0.439343,0.744233,-0.409771
77,-0.708272,-7.249949,-5.995525,-7.347917,0.316005,5.142154,-121.217537,4.370108,-116.628441,0.285863,-0.441398,0.750705,-0.399864
78,-0.687422,-7.232543,-5.756473,-1.924356,-0.730413,6.758333,-122.379562,4.541586,-116.802254,0.281878,-0.442489,0.755729,-0.391947
79,-0.765369,-7.265174,-5.986163,4.459933,-1.940168,5.316545,-123.181412,4.737363,-116.938759,0.279577,-0.442822,0.759355,-0.386168
80,-0.791277,-7.323397,-6.020358,7.754574,-2.342748,2.135240,-123.755592,4.891366,-117.010536,0.278111,-0.443175,0.761846,-0.381891
81,-0.695837,-7.724301,-5.925748,9.077593,-1.760770,-1.733190,-124.270218,4.845634,-117.024292,0.275776,-0.444495,0.763522,-0.378689
82,-0.637258,-8.205916,-5.771247,7.159800,-0.617134,-7.228690,-124.475609,4.581185,-116.947449,0.273516,-0.446460,0.763411,-0.378240
83,-0.423250,-8.442614,-5.330594,2.815941,0.338699,-13.933024,-124.214493,4.096374,-116.738594,0.272082,-0.448983,0.760817,-0.381501
84,-0.121284,-8.746973,-4.768648,-0.140231,0.624927,-21.732132,-123.692917,3.271746,-116.387672,0.269969,-0.453054,0.756083,-0.387554
85,0.095973,-8.817575,-4.385079,-1.202582,0.157579,-25.861897,-122.945686,2.182592,-115.919609,0.267499,-0.458310,0.749451,-0.395879
86,0.399210,-8.765658,-4.075671,-0.863342,-1.064890,-25.849085,-122.079971,0.978103,-115.408424,0.265006,-0.463971,0.741784,-0.405289
87,0.483898,-8.769910,-3.981579,0.245103,-3.167764,-22.293058,-121.176918,-0.156207,-114.910347,0.263179,-0.469188,0.733964,-0.414604
88,0.624039,-8.641832,-3.854976,2.758633,-5.397392,-15.674204,-120.272247,-1.062258,-114.465324,0.262729,-0.473221,0.726687,-0.423039
89,0.707011,-8.568842,-3.998003,3.705768,-7.270032,-6.184886,-119.453087,-1.671543,-114.114304,0.263545,-0.475765,0.720693,-0.429876
90,0.757032,-8.401514,-3.921207,3.020793,-8.500356,1.214093,-118.786041,-1.978465,-113.862617,0.265319,-0.476921,0.716361,-0.434718
91,0.673377,-8.294741,-3.850673,3.505745,-9.186095,6.989764,-118.200264,-2.023010,-113.687881,0.268140,-0.476811,0.713289,-0.438144
92,0.727416,-8.174660,-4.055067,5.305178,-10.505206,10.916130,-117.726791,-1.883807,-113.552231,0.271506,-0.476025,0.711268,-0.440207
93,0.529085,-8.407166,-4.363115,5.203643,-11.758890,14.351393,-117.432533,-1.563122,-113.424500,0.275231,-0.474923,0.710433,-0.440434
94,0.165915,-8.659208,-4.684833,5.626097,-12.619408,18.642082,-117.294189,-0.929723,-113.316139,0.280182,-0.472887,0.711075,-0.438462
95,-0.210887,-8.870893,-4.955678,6.777211,-13.367541,22.527884,-117.255661,0.036982,-113.242432,0.286647,-0.469598,0.713063,-0.434572
96,-0.621813,-9.011225,-5.079333,6.574441,-13.908570,24.990831,-117.268349,1.271044,-113.199501,0.294416,-0.465189,0.715977,-0.429297
97,-1.234991,-9.070756,-4.958249,5.665339,-13.453674,26.443111,-117.269905,2.762912,-113.188919,0.303663,-0.459495,0.719506,-0.423041
98,-1.916953,-9.024738,-4.782866,6.033938,-12.637803,25.481174,-117.193611,4.511270,-113.201164,0.314651,-0.452355,0.723302,-0.416177
99,-2.257055,-8.721281,-4.625982,6.337142,-11.535474,20.213909,-117.066467,6.316125,-113.193016,0.326170,-0.444852,0.726800,-0.409245
100,-2.539737,-8.576076,-4.523238,4.342276,-9.479494,14.051087,-116.966896,7.956042,-113.146057,0.336630,-0.438216,0.729741,-0.402647
101,-2.925237,-8.312691,-4.516266,2.950944,-6.211807,7.134446,-117.051079,9.947074,-113.101860,0.348400,-0.430561,0.733888,-0.393247
102,-3.090397,-8.070623,-4.616590,1.149208,-2.426352,0.518006,-117.452904,12.179465,-113.118370,0.360124,-0.422390,0.739532,-0.380775
103,-2.906055,-7.991917,-4.531849,-1.015376,2.192687,-4.909025,-117.872940,13.410937,-113.172455,0.365690,-0.418193,0.743301,-0.372678
104,-2.899858,-7.928954,-4.447532,-2.028155,6.976714,-8.429423,-118.133102,13.705713,-113.252335,0.366225,-0.417264,0.744942,-0.369908
105,-2.876301,-7.894727,-4.443690,-0.509153,10.772109,-10.720386,-118.354607,13.762136,-113.402977,0.365268,-0.416753,0.746300,-0.368691
106,-2.618211,-7.999237,-4.500702,-0.061229,12.745851,-10.878744,-118.535858,13.612878,-113.613449,0.363046,-0.416584,0.747397,-0.368854
107,-2.227470,-8.132529,-4.542346,-0.025125,13.958756,-9.837417,-118.687157,13.213075,-113.868553,0.359291,-0.417069,0.748140,-0.370474
108,-1.918401,-8.209629,-4.782866,-0.593464,14.592473,-9.050533,-118.886116,12.593860,-114.170250,0.353879,-0.418295,0.748834,-0.372889
110,-1.428339,-8.282184,-4.949980,-3.715105,15.716736,-10.503303,-119.225281,11.716044,-114.504509,0.346252,-0.420770,0.749659,-0.375597
111,-0.833517,-8.339211,-4.961227,-9.436932,17.119524,-11.832404,-119.707558,10.483779,-114.842812,0.335859,-0.425018,0.750340,-0.378878
112,-0.333445,-8.411933,-4.842327,-12.371855,18.898310,-13.374910,-120.225288,8.929132,-115.170532,0.323273,-0.430598,0.750490,-0.383203
113,0.126120,-8.431809,-4.947937,-12.436075,19.617004,-14.382662,-120.705803,7.149148,-115.487793,0.309310,-0.436853,0.749993,-0.388584
114,0.585231,-8.323101,-4.851894,-11.323581,19.275549,-13.990197,-121.117912,5.233505,-115.792160,0.294633,-0.443333,0.748852,-0.394802
115,0.844095,-8.293999,-4.842444,-7.873032,17.017645,-11.164041,-121.383598,3.350721,-116.077957,0.280636,-0.449247,0.747071,-0.401629
116,0.859343,-8.441162,-4.960640,-3.740234,13.805687,-8.518815,-121.485336,1.722128,-116.334564,0.268887,-0.453865,0.745002,-0.408261
117,0.877451,-8.328367,-5.160006,-3.257829,9.567761,-6.458558,-121.568245,0.421643,-116.532356,0.259458,-0.457532,0.743246,-0.413439
118,1.013505,-8.354486,-4.834771,-4.357618,5.987193,-4.266509,-121.624428,-0.637878,-116.658012,0.251909,-0.460678,0.741576,-0.417593
119,1.005734,-8.437871,-4.888944,-4.947141,2.960267,-3.030764,-121.601509,-1.498820,-116.721756,0.246167,-0.463303,0.739774,-0.421292
120,0.983465,-8.449685,-4.768095,-6.699202,0.586088,-2.301011,-121.580513,-2.161330,-116.730034,0.241902,-0.465564,0.738182,-0.424054
121,1.077735,-8.349896,-4.718296,-6.761874,-1.658546,-1.273411,-121.558548,-2.700528,-116.691696,0.238613,-0.467674,0.736665,-0.426227
122,1.087021,-8.482672,-4.674076,-5.965274,-3.346299,0.227403,-121.495354,-3.135584,-116.623734,0.236281,-0.469513,0.735107,-0.428191
123,0.927112,-8.463991,-4.897902,-5.316911,-5.023715,1.562449,-121.448669,-3.386391,-116.532616,0.235174,-0.470882,0.733950,-0.429280
124,0.761455,-8.337681,-4.906142,-4.238808,-6.648197,2.980618,-121.474930,-3.418293,-116.413940,0.235302,-0.471808,0.733482,-0.428993
125,0.538133,-8.270720,-4.922642,-2.124841,-7.842811,5.958987,-121.489914,-3.217407,-116.291374,0.237010,-0.471919,0.733523,-0.427859
126,0.287022,-8.173324,-5.005390,-0.971003,-8.300877,9.037274,-121.504570,-2.763415,-116.194885,0.240270,-0.470971,0.734279,-0.425783
127,0.041623,-8.110819,-5.049994,0.522748,-8.605240,11.087729,-121.537849,-2.095985,-116.129021,0.244722,-0.469107,0.735727,-0.422794
128,-0.316433,-8.102020,-5.144840,3.008053,-8.484313,11.532084,-121.554977,-1.246910,-116.080635,0.250344,-0.466435,0.737587,-0.419203
129,-0.594520,-8.108010,-5.276881,4.426372,-8.295115,11.650526,-121.570122,-0.261623,-116.040886,0.256808,-0.463191,0.739745,-0.415068
130,-0.746071,-8.175157,-5.548556,4.634062,-8.391363,9.797643,-121.657196,0.732896,-115.989388,0.263064,-0.460123,0.742081,-0.410367
131,-0.998987,-8.200372,-5.618398,3.999026,-7.991712,6.492159,-121.822533,1.665911,-115.902824,0.268717,-0.457668,0.744361,-0.405287
132,-1.343471,-8.051284,-5.591617,3.784055,-6.645764,5.161901,-122.190987,2.966421,-115.815002,0.275910,-0.454348,0.748052,-0.397315
133,-1.600663,-8.017469,-5.561537,3.038824,-4.910494,6.669010,-122.711082,4.690260,-115.795013,0.284962,-0.449387,0.753225,-0.386652
134,-1.698146,-8.058142,-5.501755,2.468445,-3.005531,7.435495,-123.103134,6.302291,-115.853584,0.293525,-0.443987,0.757825,-0.377385
135,-1.876431,-7.913778,-5.354578,2.765834,-0.389000,7.091731,-123.326378,7.699875,-115.973145,0.301165,-0.438519,0.761530,-0.370233
136,-1.792338,-7.917005,-5.295926,3.364591,1.714039,6.562045,-123.410942,8.782862,-116.140175,0.307176,-0.433522,0.764297,-0.365446
137,-1.625681,-8.032625,-5.309865,2.619627,2.890859,3.701302,-123.391960,9.274942,-116.308113,0.309829,-0.430469,0.765689,-0.363898
138,-1.370607,-8.041063,-5.231831,0.913848,3.606762,-2.070180,-123.313080,9.151369,-116.408813,0.309023,-0.430057,0.765612,-0.365231
139,-1.230669,-8.054552,-5.212872,-1.286183,4.101871,-6.435508,-123.260254,8.721521,-116.428780,0.306433,-0.431427,0.764801,-0.367489
140,-0.833680,-8.283441,-5.261772,-5.018189,4.195942,-9.682775,-123.287926,8.088379,-116.385391,0.302449,-0.434203,0.763650,-0.369907
141,-0.641334,-8.320969,-5.194689,-7.733631,3.905905,-12.152538,-123.362549,7.231645,-116.278717,0.297057,-0.438348,0.761992,-0.372796
142,-0.305765,-8.366512,-5.100528,-9.069250,3.104937,-12.819118,-123.432938,6.249848,-116.119995,0.291038,-0.443260,0.759845,-0.376104
143,0.061434,-8.369784,-5.107475,-8.767309,1.828285,-11.260003,-123.478462,5.168516,-115.938301,0.284538,-0.448582,0.757274,-0.379931
144,0.299291,-8.310608,-5.083535,-7.514702,0.632802,-8.892542,-123.499863,4.078485,-115.762634,0.278041,-0.453786,0.754551,-0.383959
145,0.344845,-8.162941,-4.993279,-4.882656,-1.032728,-5.468999,-123.460190,3.122154,-115.605843,0.272573,-0.458187,0.751887,-0.387859
146,0.512030,-8.130969,-5.022614,-2.554356,-2.324517,-2.280228,-123.356850,2.327453,-115.474930,0.268311,-0.461659,0.749380,-0.391548
147,0.625132,-8.008419,-5.184370,-1.468694,-3.079161,-0.417449,-123.292618,1.625340,-115.369461,0.264401,-0.464706,0.747259,-0.394645
148,0.507488,-7.928456,-5.363829,-3.586793,-3.541077,0.681285,-123.395058,1.064381,-115.279617,0.260668,-0.467516,0.746047,-0.396100
149,0.561289,-8.006671,-5.531012,-6.817853,-4.210821,0.889360,-123.685165,0.631716,-115.186897,0.256999,-0.470296,0.745734,-0.395795
150,0.631001,-8.089309,-5.725612,-8.836074,-3.928448,1.222673,-124.111076,0.233113,-115.092964,0.252982,-0.473242,0.745949,-0.394465
151,0.491815,-8.113867,-5.998728,-10.068815,-3.252627,3.353903,-124.657280,-0.061685,-115.034859,0.249000,-0.475830,0.746940,-0.392002
152,0.031205,-8.059478,-6.100843,-10.120781,-2.234247,9.301097,-125.275398,-0.019328,-115.078224,0.246560,-0.476739,0.749315,-0.387885
153,-0.411418,-8.060911,-5.959568,-7.308198,-0.273868,16.125645,-125.780632,0.481488,-115.290138,0.247028,-0.474746,0.752960,-0.382943
154,-0.939101,-7.958512,-5.866593,-3.143024,1.944936,20.276621,-126.066696,1.382961,-115.670494,0.250496,-0.469806,0.757338,-0.378119
155,-1.472607,-7.789663,-5.673379,-0.492697,3.637848,21.744808,-126.180077,2.607004,-116.160561,0.256454,-0.462618,0.762130,-0.373329
156,-2.036484,-7.746669,-5.521152,1.601102,4.745427,19.757969,-126.151939,4.058208,-116.680649,0.264389,-0.454040,0.766859,-0.368611
157,-2.168986,-7.729797,-5.424302,3.065048,5.597848,14.341255,-126.011307,5.481982,-117.147926,0.272753,-0.445538,0.770794,-0.364661
158,-2.094608,-7.612080,-5.538187,2.447384,5.660470,8.266606,-125.900581,7.014361,-117.516113,0.282004,-0.437268,0.774463,-0.359830
159,-2.318072,-7.465233,-5.462690,0.973229,6.721439,4.167573,-125.902809,8.293166,-117.808754,0.289393,-0.430616,0.777631,-0.355123
160,-2.392652,-7.434920,-5.619924,0.058349,7.798135,2.222703,-126.077545,9.358495,-118.093636,0.294773,-0.425189,0.780855,-0.350126
161,-2.267128,-7.506467,-5.660017,-0.475555,8.786125,2.579342,-126.376663,10.460026,-118.410950,0.299848,-0.419701,0.784518,-0.344200
162,-2.208284,-7.526382,-5.690113,0.610075,9.742336,2.879970,-126.581718,10.997324,-118.747765,0.301575,-0.415922,0.787097,-0.341380
163,-2.059783,-7.693009,-5.742702,2.567559,10.454228,1.146049,-126.639427,11.073647,-119.073784,0.300891,-0.413547,0.788551,-0.341514
164,-1.494424,-7.951916,-5.902712,3.077184,9.824301,-3.947853,-126.598251,10.754208,-119.322906,0.298216,-0.412919,0.788899,-0.343806
165,-1.039619,-8.115045,-5.824068,1.456972,9.010859,-10.544891,-126.484123,9.947648,-119.422699,0.293066,-0.414946,0.787813,-0.348255
166,-0.605019,-8.047858,-5.588349,1.279302,9.434112,-16.807331,-126.279099,8.744952,-119.373558,0.286097,-0.419224,0.785284,-0.354582
167,-0.153741,-8.169478,-5.556379,0.111681,9.206345,-20.328527,-126.018524,7.232573,-119.225769,0.277600,-0.425153,0.781620,-0.362291
168,0.152540,-8.201978,-5.464105,-1.997220,8.910227,-20.210855,-125.774864,5.580409,-119.041565,0.268231,-0.431834,0.777454,-0.370319
169,0.415907,-8.130626,-5.348390,-3.153813,9.163479,-15.532235,-125.572701,3.982933,-118.910912,0.258884,-0.437994,0.773516,-0.377907
170,0.590790,-8.078981,-5.314006,-2.555627,9.169428,-8.460778,-125.396736,2.578809,-118.907722,0.250275,-0.442614,0.770336,-0.384757
171,0.786481,-8.084774,-5.329241,-4.148810,7.997235,-3.011147,-125.266418,1.402485,-119.018730,0.242592,-0.445729,0.768068,-0.390572
172,0.963173,-8.093321,-5.269258,-5.658083,7.133223,-0.175311,-125.188698,0.380673,-119.187096,0.235508,-0.448007,0.766433,-0.395483
173,1.018357,-8.080213,-5.242741,-4.820414,6.548316,0.706042,-125.107323,-0.529707,-119.375710,0.229086,-0.449736,0.765036,-0.399971
174,0.964683,-8.117775,-5.292431,-3.660839,5.309957,0.962301,-125.001289,-1.294199,-119.554939,0.223750,-0.450966,0.763776,-0.403995
175,0.981509,-8.177411,-5.312352,-3.109519,3.715031,0.808948,-124.762177,-2.175393,-119.703903,0.218244,-0.452536,0.761637,-0.409254
176,1.004676,-8.114808,-5.445835,-2.155427,1.702431,1.861992,-124.509361,-3.139702,-119.817299,0.212348,-0.454603,0.759066,-0.414805
177,0.948864,-8.120231,-5.520703,-3.358590,-0.568869,3.207600,-124.458298,-3.789013,-119.888557,0.207915,-0.456244,0.757711,-0.417716
178,0.926390,-8.163907,-5.361704,-5.781177,-3.218166,4.722635,-124.506622,-4.016989,-119.917679,0.206077,-0.456911,0.757488,-0.418303
179,0.860596,-8.140027,-5.412601,-5.583654,-5.372235,6.484379,-124.577614,-3.936222,-119.913460,0.206355,-0.456793,0.757913,-0.417524
180,0.726900,-8.001009,-5.421858,-4.077121,-6.876512,7.549114,-124.662964,-3.708255,-119.883537,0.207663,-0.456375,0.758617,-0.416050
181,0.388053,-8.144320,-5.502263,-2.865180,-7.528267,9.142489,-124.718369,-3.279769,-119.848534,0.210461,-0.455257,0.759635,-0.414006
182,-0.079751,-8.075094,-5.542363,1.455005,-7.640630,9.558973,-124.692352,-2.576828,-119.821251,0.215399,-0.452998,0.760980,-0.411468
183,-0.460770,-7.918465,-5.755580,6.365078,-7.975004,8.911388,-124.625526,-1.650245,-119.779053,0.222043,-0.449969,0.762572,-0.408301
184,-0.890705,-7.770495,-5.840004,8.957951,-8.799810,8.057122,-124.582085,-0.551111,-119.701668,0.229853,-0.446584,0.764423,-0.404212
185,-1.273346,-7.697312,-5.930505,9.230851,-9.635804,6.523047,-124.587669,0.689931,-119.580940,0.238542,-0.443046,0.766501,-0.399105
186,-1.486437,-7.460780,-5.924198,9.069882,-10.729891,4.040222,-124.676346,1.969156,-119.403656,0.247321,-0.439884,0.768638,-0.393103
187,-1.677077,-7.353991,-5.909349,7.579487,-11.227317,2.091527,-124.846733,3.208982,-119.174278,0.255662,-0.437362,0.770687,-0.386514
188,-1.830807,-7.353706,-5.914549,6.072286,-11.036438,1.412319,-125.064903,4.393391,-118.927284,0.263472,-0.435251,0.772635,-0.379703
189,-1.756665,-7.450456,-5.804406,4.611274,-10.199712,-0.106676,-125.255173,5.425073,-118.678001,0.270353,-0.433637,0.774129,-0.373621
190,-1.791273,-7.643924,-5.680585,4.413053,-8.999369,-1.955988,-125.319405,6.244244,-118.417046,0.276321,-0.432568,0.774749,-0.369181
191,-1.617681,-7.738878,-5.551892,4.816869,-8.675961,-4.002930,-125.229599,6.835686,-118.126488,0.281452,-0.432147,0.774355,-0.366617
192,-1.381664,-7.885345,-5.471713,3.602277,-9.122452,-5.831227,-125.040077,7.149337,-117.784935,0.285297,-0.432829,0.772982,-0.365736
193,-1.092136,-8.146287,-5.313897,1.137168,-9.201999,-7.625605,-124.773834,7.176131,-117.385429,0.287754,-0.434755,0.770664,-0.366418
194,-0.832208,-8.203492,-5.148297,-0.600877,-9.341970,-7.350340,-124.447861,6.971326,-116.953369,0.289059,-0.437593,0.767626,-0.368385
195,-0.469355,-8.255206,-5.147016,-1.531514,-9.766656,-5.354795,-124.135559,6.599029,-116.532661,0.289219,-0.440997,0.764356,-0.370992
196,-0.260056,-8.449578,-5.070826,-2.539800,-9.212716,-2.455164,-123.834038,6.127054,-116.159035,0.288570,-0.444471,0.761085,-0.374063
197,-0.194450,-8.446914,-5.204001,-1.848307,-8.123020,-0.192058,-123.565895,5.663351,-115.860695,0.287622,-0.447488,0.758190,-0.377061
198,-0.296843,-8.223175,-5.436179,-2.329739,-6.581778,1.363391,-123.482735,5.294086,-115.653664,0.286267,-0.450010,0.756411,-0.378662
199,-0.516516,-8.285070,-5.753447,-5.565098,-5.249980,3.185143,-123.673141,5.099130,-115.536743,0.284656,-0.451972,0.756208,-0.377943
200,-0.645888,-8.217354,-5.819577,-6.985178,-3.985743,3.222287,-124.047264,5.052678,-115.482231,0.283060,-0.453429,0.757135,-0.375535
201,-0.871745,-7.935680,-6.033645,-6.762466,-2.483842,1.810477,-124.554550,5.096634,-115.464165,0.281391,-0.454638,0.758801,-0.371948
202,-1.059240,-7.837046,-5.927258,-7.347267,-0.985436,0.971591,-125.122612,5.226603,-115.472900,0.279943,-0.455504,0.760910,-0.367646
203,-1.195704,-7.904285,-5.915961,-5.656413,-0.488403,1.396619,-125.586250,5.432736,-115.498993,0.279346,-0.455725,0.762871,-0.363743
204,-1.220548,-7.721583,-5.781875,-2.137476,0.270600,0.062933,-125.959877,5.760111,-115.534576,0.279863,-0.455233,0.764781,-0.359930
205,-1.255976,-7.667022,-5.635873,-1.464069,1.363391,-0.371509,-126.208054,6.152579,-115.573601,0.281292,-0.454184,0.766404,-0.356674
206,-1.246102,-7.748111,-5.574531,-1.341920,1.906945,0.374777,-126.246376,6.475561,-115.616997,0.283093,-0.452837,0.767256,-0.355127
207,-1.153021,-7.718815,-5.736191,-0.247764,2.502928,1.349200,-126.269699,6.647413,-115.692726,0.283876,-0.451774,0.767923,-0.354414
208,-1.000392,-7.617258,-5.439271,-0.469024,3.125470,2.142728,-126.294510,6.649101,-115.803497,0.283446,-0.451087,0.768439,-0.354515
209,-0.897454,-7.600661,-5.359718,0.157214,3.208144,2.703775,-126.207298,6.553720,-115.924858,0.282797,-0.450398,0.768483,-0.355812
210,-0.902867,-7.469395,-5.481830,1.746043,2.822472,1.923432,-126.129440,6.432767,-116.045502,0.281945,-0.449830,0.768507,-0.357152
211,-0.872644,-7.614928,-5.404785,1.912599,2.293365,0.206191,-126.037819,6.289809,-116.131477,0.281110,-0.449540,0.768311,-0.358592
213,-0.732300,-7.744359,-5.272517,2.423101,1.410349,-1.290055,-125.820534,6.069180,-116.155075,0.280460,-0.449640,0.767338,-0.361051
214,-0.741851,-7.981707,-5.540013,2.819605,0.987049,-3.464464,-125.503677,5.676922,-116.118011,0.279283,-0.450522,0.765496,-0.364757
215,-0.738347,-8.157063,-5.578945,2.340388,1.285691,-4.963165,-125.157127,5.178141,-116.043381,0.277660,-0.451968,0.763191,-0.369012
216,-0.676597,-8.339627,-5.609694,1.813574,1.867776,-4.094574,-124.879959,4.783259,-115.981644,0.276401,-0.453127,0.761321,-0.372383
217,-0.651109,-8.223138,-5.749285,1.453838,2.840219,-2.374004,-124.758621,4.510143,-115.978935,0.275124,-0.453833,0.760403,-0.374339
218,-0.788222,-8.058493,-5.728780,-0.983522,3.604924,-0.237955,-124.836250,4.356257,-116.048859,0.273592,-0.454107,0.760643,-0.374641
219,-0.780934,-7.952346,-5.697323,-2.836945,3.890235,2.312049,-125.076424,4.342885,-116.184265,0.272112,-0.453827,0.761939,-0.373424
220,-0.730378,-7.905934,-5.519858,-2.696977,3.696394,3.015626,-125.253807,4.365625,-116.344879,0.271035,-0.453097,0.763194,-0.372529
221,-0.638514,-7.686785,-5.470140,-0.020463,3.327215,2.710299,-125.303261,4.345897,-116.495422,0.270222,-0.452281,0.763913,-0.372638
222,-0.664252,-7.505636,-5.373181,2.906104,2.894003,1.373398,-125.292427,4.299331,-116.621841,0.269550,-0.451579,0.764290,-0.373204
223,-0.626542,-7.540724,-5.300234,7.137460,2.204409,-0.338862,-125.137077,4.227088,-116.701950,0.269430,-0.450937,0.763964,-0.374731
224,-0.598799,-7.391684,-5.180781,13.390802,1.797143,-2.116799,-124.779694,4.106245,-116.732170,0.269950,-0.450327,0.762683,-0.377688
225,-0.623679,-7.363355,-5.392298,17.798759,1.569926,-2.464863,-124.337410,3.974994,-116.740913,0.270805,-0.449697,0.761004,-0.381196
226,-0.715343,-7.656684,-5.347607,19.124115,1.179289,-2.496823,-123.839851,3.893136,-116.740936,0.272224,-0.448814,0.759184,-0.384837
227,-0.692869,-8.052518,-5.260719,20.846916,0.713762,-2.113642,-123.167358,3.848584,-116.724174,0.274623,-0.447483,0.756760,-0.389430
228,-0.679888,-8.275143,-5.244058,21.602743,0.245211,-1.890778,-122.371605,3.804112,-116.695305,0.277537,-0.445921,0.753836,-0.394790
229,-0.624881,-8.781869,-5.194039,19.181953,-0.098139,-1.869496,-121.539719,3.739285,-116.654144,0.280496,-0.444407,0.750660,-0.400418
230,-0.679558,-9.053659,-5.081728,15.652289,-0.641391,-1.402690,-120.723160,3.681931,-116.600273,0.283480,-0.442967,0.747461,-0.405858
231,-0.725821,-9.163313,-5.108581,9.542227,-1.583006,-0.693096,-120.077446,3.687047,-116.536087,0.286234,-0.441760,0.744926,-0.409883
232,-0.644964,-9.169081,-4.953580,1.108001,-1.953890,0.028670,-119.704941,3.714529,-116.466942,0.288091,-0.441170,0.743381,-0.412016
233,-0.546750,-9.060027,-4.989047,-4.781221,-1.587578,-0.069258,-119.613319,3.694595,-116.405663,0.288538,-0.441414,0.742774,-0.412537
234,-0.589787,-8.369854,-5.000475,-9.238573,-2.319863,-0.428113,-119.865082,3.666056,-116.346191,0.287600,-0.442542,0.743389,-0.410872
235,-0.580923,-7.588274,-4.557363,-11.902100,-3.572581,-0.969833,-120.349197,3.686840,-116.258064,0.286174,-0.444247,0.744820,-0.407423
236,-0.497575,-6.799227,-4.030854,-6.160518,-4.256168,-0.898097,-120.725624,3.726511,-116.134956,0.285400,-0.445835,0.745758,-0.404504
237,-0.526435,-6.100919,-3.711385,5.556765,-5.370147,-0.766742,-120.778137,3.808221,-115.985909,0.286240,-0.446626,0.745532,-0.403453
238,-0.536278,-5.730940,-3.007367,21.784285,-6.890258,-0.474910,-120.164070,3.976889,-115.788666,0.290397,-0.445721,0.742945,-0.406246
239,-0.411877,-5.783655,-2.286673,43.624138,-7.282786,-0.560270,-118.379387,4.122222,-115.525543,0.299170,-0.442264,0.735827,-0.416483
240,-0.423691,-6.286692,-1.903962,68.491158,-6.778038,-1.094717,-115.328262,4.170877,-115.221130,0.312294,-0.435867,0.723433,-0.434899
241,-0.593080,-7.567486,-1.587971,88.434074,-6.421496,-1.972395,-111.253540,4.202893,-114.894936,0.329092,-0.426364,0.706381,-0.459280
242,-0.854907,-9.333930,-1.115148,100.256950,-5.718843,-3.052566,-106.488548,4.264417,-114.554733,0.348335,-0.414073,0.685611,-0.486974
243,-1.168341,-11.893501,-1.393347,98.261360,-4.599633,-4.892239,-101.772675,4.313291,-114.242134,0.366751,-0.400971,0.664039,-0.513583
244,-1.666821,-14.405583,-1.850225,72.561844,-2.921738,-6.252285,-98.092087,4.356506,-114.011612,0.380747,-0.390075,0.646545,-0.533716
245,-2.082244,-16.655752,-2.850998,26.765181,-0.845299,-7.646910,-96.265831,4.419242,-113.895576,0.387800,-0.384289,0.637754,-0.543326
246,-2.212373,-18.205872,-3.813040,-39.692764,0.871336,-8.650802,-96.895508,4.444129,-113.893753,0.385824,-0.386300,0.640797,-0.539714
247,-2.348938,-18.460428,-4.655790,-108.557419,2.803291,-8.874944,-100.110580,4.436381,-113.978561,0.374407,-0.396524,0.655957,-0.521832
248,-1.760256,-14.705358,-4.258617,-169.707153,6.898981,-7.345870,-105.520561,4.409711,-114.157379,0.354358,-0.412812,0.680428,-0.490952
249,-0.491400,-10.589259,-4.344609,-212.383896,11.651077,-5.079710,-112.630554,4.120290,-114.451485,0.325191,-0.433387,0.709980,-0.449838
250,-0.635893,-7.318903,-4.243272,-238.568909,12.202411,-2.307539,-120.955780,3.728145,-114.795631,0.289205,-0.455097,0.741304,-0.399646
251,0.171186,-3.640315,-2.223491,-233.734329,17.072815,-0.883906,-129.259644,3.065268,-115.165314,0.250011,-0.474534,0.768624,-0.348611
252,0.827670,-0.055109,-1.635022,-229.764648,18.163622,0.110216,-139.202469,0.704473,-115.491280,0.190884,-0.498390,0.793782,-0.291685
253,0.408595,0.063123,-2.163954,-213.778580,17.985205,3.235463,-150.928391,-1.961304,-115.551567,0.119799,-0.519724,0.816479,-0.221128
254,-0.338276,0.438206,-2.375280,-205.139084,12.711567,0.528858,-162.108109,-2.445121,-115.584885,0.065029,-0.529192,0.833872,-0.142778
255,0.376816,2.274423,-3.235410,-179.704681,7.985411,-1.856016,-173.171936,-2.442732,-115.534416,0.013757,-0.533367,0.843518,-0.061711
256,0.126021,3.074140,-5.506427,-155.264389,2.509591,0.646562,176.718018,-2.765760,-115.302010,-0.035698,-0.534116,0.844582,0.011277
257,0.040313,3.177954,-6.925211,-118.996040,0.120450,0.029268,169.018738,-2.602794,-115.175903,-0.070359,-0.531573,0.841290,0.068638
258,0.348885,3.841383,-7.892409,-92.456825,-2.521701,-3.915863,163.432831,-2.391945,-115.046371,-0.094768,-0.528704,0.836240,0.110424
259,0.261672,3.983548,-8.858583,-61.230114,-2.929391,-2.544471,159.568497,-2.206061,-114.920120,-0.111351,-0.526384,0.831335,0.139295
260,0.090087,3.397296,-8.658247,-43.181293,1.002174,-0.956366,157.326355,-2.008652,-114.861771,-0.120287,-0.524828,0.828027,0.156386
261,-0.198418,3.723368,-8.706900,-36.139637,2.715818,-3.754009,155.915909,-1.751102,-114.768776,-0.125026,-0.524393,0.825393,0.167654
262,-0.406550,3.860868,-8.510241,-30.645046,3.645886,-1.318103,154.753357,-1.378386,-114.654472,-0.127849,-0.524540,0.822780,0.177611
263,-0.296627,3.755610,-8.839502,-22.784367,3.353716,2.340055,153.973740,-1.060300,-114.629539,-0.129182,-0.524379,0.821125,0.184642
264,-0.221495,3.411716,-9.046167,-18.919725,-0.946495,4.576314,153.722397,-0.825509,-114.727348,-0.128494,-0.523794,0.820928,0.187633
265,-0.262021,3.410611,-8.924953,-20.112482,-3.517604,4.429179,153.698563,-0.547498,-114.905571,-0.126321,-0.522963,0.821418,0.189277
266,-0.148865,2.938301,-9.328493,-13.233476,-5.587920,7.295880,153.969116,-0.275506,-115.156830,-0.122724,-0.521912,0.822728,0.188852
267,-0.172657,3.000101,-9.651172,-13.940248,-6.472246,5.114978,154.538437,-0.028598,-115.436203,-0.117902,-0.520909,0.824676,0.186178
268,-0.464949,3.167108,-9.347053,-20.861271,-6.641300,4.395708,154.858841,0.333225,-115.674248,-0.113454,-0.520101,0.825905,0.185753
269,-0.472799,3.291963,-8.956456,-17.166170,-0.945065,5.980391,154.903732,0.679058,-115.882507,-0.110415,-0.519192,0.826563,0.187196
270,-0.220133,3.365770,-9.096888,-13.570899,2.086017,7.307477,154.956940,0.750377,-116.069916,-0.109352,-0.518003,0.827423,0.187313
271,-0.211667,3.795028,-8.945179,-17.943447,3.808460,4.786466,154.829056,0.641350,-116.205879,-0.110496,-0.516726,0.827942,0.187877
272,-0.131701,3.773539,-8.941388,-16.390135,4.124142,5.538641,154.509155,0.485096,-116.301849,-0.112909,-0.515470,0.828011,0.189580
273,-0.031703,3.792357,-8.970467,-15.309684,3.675575,3.657184,154.263916,0.292245,-116.381187,-0.115274,-0.514339,0.828162,0.190567
274,-0.102338,4.142665,-8.774580,-18.336107,3.056048,0.561072,153.880249,0.161416,-116.393921,-0.117920,-0.513640,0.827714,0.192766
275,-0.260014,4.318751,-8.590350,-15.822946,2.141511,-0.234184,153.304764,0.180468,-116.360626,-0.120417,-0.513314,0.826566,0.196971
276,-0.343110,4.268408,-8.572219,-13.317491,-0.096469,-0.056135,152.799026,0.342348,-116.342377,-0.121547,-0.513189,0.825429,0.201321
277,-0.377860,4.403281,-8.393133,-13.016967,-1.115393,0.092831,152.345078,0.582353,-116.353996,-0.121829,-0.513041,0.824406,0.205672
278,-0.376318,4.439208,-8.402468,-8.349388,-1.380452,1.009357,151.949158,0.822033,-116.391579,-0.121806,-0.512771,0.823581,0.209627
279,-0.195609,4.324640,-8.573048,-4.363308,-1.938011,1.413407,151.799835,0.970247,-116.453094,-0.121293,-0.512433,0.823408,0.211424
280,-0.022124,4.330512,-8.708853,-5.163405,-2.246096,1.096078,151.817413,0.983170,-116.520088,-0.120998,-0.511993,0.823725,0.211426
281,0.064748,4.369397,-8.728214,-5.255370,-1.052166,0.688987,151.838394,0.889128,-116.568977,-0.121492,-0.511497,0.824092,0.210909
282,0.158234,4.468271,-8.758320,-3.762108,0.181721,-0.555682,151.846756,0.715755,-116.575211,-0.122693,-0.511153,0.824337,0.210087
283,0.150193,4.514016,-8.701214,-4.414581,0.779362,-1.575998,151.819763,0.519840,-116.534729,-0.124299,-0.511066,0.824334,0.209367
284,0.041399,4.534987,-8.683353,-3.606921,1.115761,-1.674817,151.764618,0.380233,-116.471062,-0.125667,-0.511214,0.824109,0.209074
285,-0.084510,4.556313,-8.684844,-2.651123,1.294453,-2.213387,151.760498,0.344297,-116.394157,-0.126084,-0.511698,0.823800,0.208859
286,-0.103985,4.501825,-8.549265,-1.046694,1.347636,-2.546165,151.818695,0.387985,-116.302666,-0.125676,-0.512498,0.823447,0.208535
287,-0.142125,4.407138,-8.520936,0.492307,1.023712,-2.398386,151.962051,0.477482,-116.210220,-0.124559,-0.513478,0.823191,0.207803
288,-0.134266,4.240064,-8.400262,1.793369,0.965359,-2.079673,152.171249,0.556725,-116.127197,-0.123201,-0.514441,0.823106,0.206565
289,-0.384495,4.047375,-7.767618,4.830480,2.046566,-3.480834,152.373886,0.689369,-116.020676,-0.121527,-0.515654,0.822839,0.205590
290,-0.382793,3.524367,-6.688474,12.455579,3.430877,-2.523199,152.672379,0.897531,-115.888756,-0.118920,-0.517274,0.822540,0.204241
291,-0.386116,2.808962,-5.868775,27.138561,4.326733,-0.187738,153.426620,1.077236,-115.785797,-0.114397,-0.519084,0.823198,0.199528
292,-0.484539,1.923527,-5.105716,42.496494,4.900095,-0.257425,155.034698,1.320557,-115.696632,-0.105490,-0.521657,0.825248,0.188972
293,-0.491700,1.195494,-4.503565,57.127789,4.264266,0.890234,157.623138,1.683735,-115.607101,-0.091179,-0.525053,0.828534,0.171861
294,-0.210181,0.611532,-4.619767,70.710632,2.390323,6.825096,161.187775,1.862354,-115.627014,-0.073476,-0.527693,0.833415,0.146837
295,-0.300311,0.194045,-5.455389,76.070915,-2.331503,8.043740,165.440628,1.919618,-115.795471,-0.053254,-0.528872,0.839027,0.116154
296,-0.398672,0.043626,-6.272383,76.708221,-5.767268,7.690635,169.750702,2.172299,-116.010925,-0.031306,-0.529062,0.843660,0.085744
297,-0.206139,0.133558,-7.200222,76.123878,-8.927806,10.671909,173.629349,2.439529,-116.293060,-0.011265,-0.527819,0.847272,0.058404
298,0.093444,0.038211,-8.103995,71.728180,-8.531375,9.994344,176.963196,2.487923,-116.631927,0.004553,-0.525416,0.850156,0.033942
299,-0.047224,-0.460892,-9.108445,74.623802,-8.209169,4.333142,-179.910080,2.452344,-116.864410,0.018643,-0.523373,0.851835,0.010534
300,0.484307,-0.478699,-10.550331,75.127121,-0.316189,0.678465,-176.928635,2.174817,-116.941292,0.030182,-0.522220,0.852179,-0.012918
301,0.187273,-0.868871,-10.884264,80.957474,19.071905,-2.053054,-174.096558,1.383025,-116.956383,0.037195,-0.521562,0.851573,-0.037591
302,0.029630,-0.793455,-10.345160,78.958511,18.174698,-6.292192,-171.433731,0.476768,-116.908363,0.042609,-0.521450,0.849997,-0.061477
303,0.401358,-0.920084,-11.344074,84.273010,20.304701,-6.336597,-169.031601,-0.424721,-116.823242,0.046918,-0.521714,0.847743,-0.083343
304,0.520049,-1.195958,-11.545528,91.574646,31.729301,-2.026120,-166.624146,-1.571253,-116.880165,0.049345,-0.521140,0.845380,-0.106354
305,0.981571,-2.090348,-10.543817,91.470001,31.560274,1.003920,-163.984985,-2.933477,-117.137436,0.050991,-0.519264,0.842810,-0.132041
306,1.416983,-2.822476,-11.951317,87.613899,11.824762,-2.060818,-161.273010,-4.053544,-117.345215,0.054730,-0.517594,0.839310,-0.157034
307,1.578376,-3.441135,-12.970493,86.522202,15.615604,-3.607332,-158.747910,-4.881665,-117.410164,0.059930,-0.516783,0.835010,-0.179169
308,1.303011,-3.705511,-12.165940,78.929558,12.960040,-2.623713,-156.458603,-5.574630,-117.469383,0.065056,-0.515966,0.830660,-0.198871
309,1.911487,-4.043856,-12.303052,56.876759,0.747596,-6.744478,-154.761017,-6.071513,-117.376480,0.069228,-0.516313,0.826530,-0.213251
310,1.105301,-3.552048,-12.215315,55.706226,-4.492076,-10.646943,-153.750214,-6.247122,-117.006317,0.073211,-0.518598,0.822697,-0.221056
311,0.838935,-2.945258,-10.819880,62.831814,-7.513057,-4.219967,-152.973877,-6.011986,-116.566971,0.079300,-0.520884,0.819531,-0.225303
312,1.325585,-3.201414,-10.209507,76.150955,-7.757748,3.892829,-151.867615,-5.749386,-116.314285,0.086739,-0.521482,0.816559,-0.231871
313,1.249948,-3.393517,-9.333776,89.153648,-7.387980,5.849654,-150.139923,-5.606143,-116.231171,0.095801,-0.520463,0.812813,-0.243463
314,0.594956,-3.954885,-7.608635,102.410469,-5.193902,7.701861,-147.552109,-5.304306,-116.257607,0.109633,-0.517420,0.807718,-0.260476
316,0.683492,-5.048174,-7.042818,108.422874,-3.764789,21.833881,-143.967117,-4.764819,-116.577553,0.128805,-0.510370,0.801539,-0.283667
317,0.892002,-6.349637,-6.061377,98.113586,0.831595,25.511593,-139.701370,-4.258485,-117.233292,0.149485,-0.499478,0.794236,-0.312034
318,0.359785,-7.312412,-5.726199,87.894058,-0.771997,25.260466,-135.293442,-3.633854,-117.957420,0.170770,-0.486725,0.785967,-0.340870
319,-0.183876,-8.231774,-5.900093,82.040024,-3.284932,26.722643,-131.203613,-2.568509,-118.568298,0.193391,-0.473009,0.778010,-0.365462
320,-0.002914,-8.273276,-5.837787,79.432823,-7.856526,27.621819,-127.593933,-1.330497,-119.022301,0.215039,-0.459618,0.770519,-0.385759
321,-0.035895,-8.555572,-5.638054,79.936722,-11.473752,19.439407,-124.344513,-0.267550,-119.227432,0.234346,-0.448270,0.762322,-0.403734
322,-0.235832,-8.830420,-5.516200,84.264900,-14.347645,19.841581,-121.228661,0.697043,-119.214935,0.252816,-0.438245,0.753093,-0.420566
323,-0.179597,-8.962559,-5.239162,88.103706,-16.694862,16.671223,-118.164703,1.589751,-119.059799,0.270778,-0.428849,0.742968,-0.436768
324,-0.190593,-9.366658,-4.468048,86.618645,-17.645506,12.616752,-115.036583,2.268183,-118.759933,0.287847,-0.420431,0.731212,-0.453554
325,-0.298968,-9.818977,-4.311101,86.243065,-18.933247,13.335083,-111.908165,2.836922,-118.367607,0.304334,-0.412442,0.718487,-0.470159
326,-0.529363,-10.527592,-3.649781,84.355347,-20.614765,7.751459,-108.800423,3.349463,-117.864220,0.320631,-0.404853,0.704951,-0.486142
327,-0.486797,-10.513270,-3.716162,82.906418,-20.842052,-0.104320,-105.853859,3.620657,-117.237289,0.335276,-0.399009,0.690732,-0.501269
328,-0.820009,-10.670151,-2.554054,75.703094,-20.663525,-1.502135,-103.068687,3.757150,-116.554283,0.348735,-0.394134,0.676369,-0.515332
329,-0.959327,-10.505891,-1.923966,75.562874,-20.120567,-1.855518,-100.207306,3.957118,-115.853088,0.362830,-0.388384,0.661477,-0.529113
330,-1.096151,-10.125488,-2.345961,75.381241,-17.912769,-2.559371,-97.655472,4.182921,-115.207375,0.375673,-0.382739,0.648029,-0.540777
331,-1.031330,-10.030278,-3.386750,63.372227,-14.856204,-0.078536,-96.103409,4.411578,-114.708771,0.384431,-0.379248,0.639668,-0.546999
332,-1.287370,-9.909671,-2.467785,41.252304,-11.005997,3.398992,-95.418427,4.761531,-114.362526,0.390206,-0.377089,0.636282,-0.548350
333,-1.249362,-9.892098,-2.793216,28.025705,-7.448755,6.818791,-95.292633,5.255456,-114.154221,0.394220,-0.375305,0.636454,-0.546501
334,-1.056135,-10.339782,-3.408891,16.955111,-4.251354,11.528742,-95.875008,5.733902,-114.108765,0.395048,-0.375132,0.640468,-0.541307
335,-1.201242,-10.647281,-2.873487,5.694137,-0.548799,13.377028,-96.779411,6.210689,-114.198479,0.394186,-0.375328,0.646379,-0.534734
336,-1.380799,-10.402551,-2.361203,5.321389,3.826478,17.371012,-97.494728,6.813499,-114.409439,0.394070,-0.373552,0.652086,-0.529105
337,-1.153988,-10.641427,-2.932171,7.492791,7.505992,17.861040,-98.124992,7.393302,-114.771172,0.393451,-0.370730,0.657753,-0.524516
338,-0.962139,-11.029440,-3.159873,2.198757,11.329226,14.280213,-98.935417,7.682059,-115.276909,0.390078,-0.369132,0.663856,-0.520457
339,-0.862428,-10.859002,-3.090618,-8.655439,15.842312,6.569427,-99.976135,7.611127,-115.894157,0.383546,-0.369406,0.670369,-0.516756
340,-1.007157,-10.872254,-3.176842,-21.395170,19.317730,-1.106244,-101.328682,7.255309,-116.588295,0.374098,-0.371556,0.677774,-0.512463
341,-0.867679,-10.773494,-2.674818,-35.859299,21.428791,-7.883004,-102.880516,6.657368,-117.286133,0.362586,-0.375313,0.685455,-0.507763
342,-0.956984,-10.731882,-3.280011,-41.579159,22.549397,-13.330458,-104.631645,5.873593,-117.957016,0.349377,-0.380476,0.693453,-0.502292
343,-1.145033,-10.716002,-3.460598,-48.901455,23.358536,-15.410822,-106.627037,5.098065,-118.609169,0.335342,-0.386105,0.702444,-0.495017
344,-1.190049,-10.571321,-3.806390,-53.981857,21.693861,-14.432364,-108.763008,4.447124,-119.210930,0.321642,-0.391494,0.712092,-0.486008
345,-0.880910,-10.588532,-4.223101,-59.825138,19.536276,-11.158905,-111.053841,3.865164,-119.744850,0.307984,-0.397040,0.722200,-0.475323
346,-0.595892,-10.602858,-4.965132,-64.341148,17.815302,-7.881459,-113.559532,3.277823,-120.228653,0.293615,-0.403083,0.732836,-0.462889
347,-0.331197,-10.490700,-5.130017,-72.597054,16.738462,-7.091775,-116.242889,2.656794,-120.663971,0.278441,-0.409565,0.743712,-0.449021
348,-0.264513,-10.400676,-5.982536,-76.195709,16.027899,-7.826621,-119.095039,2.005403,-121.041580,0.262506,-0.416436,0.754694,-0.433716
349,-0.419703,-10.710337,-6.544845,-84.529259,16.739275,-6.801602,-122.131409,1.430880,-121.395096,0.246296,-0.423027,0.766092,-0.416521
350,-0.209788,-10.750248,-6.889798,-91.230545,16.675316,-8.127780,-125.231552,0.881624,-121.723335,0.229922,-0.429253,0.777270,-0.398408
351,-0.615357,-10.822673,-7.121724,-93.728027,15.408525,-8.653864,-128.235397,0.416543,-121.984489,0.214541,-0.434896,0.787594,-0.380175
352,-0.442861,-10.329391,-7.626216,-93.058464,11.817336,-5.624002,-131.132950,0.141779,-122.188087,0.200927,-0.439635,0.797261,-0.361559
353,0.074574,-10.310405,-7.555537,-96.701653,9.583158,1.297879,-133.903717,-0.089385,-122.405968,0.187962,-0.443524,0.806232,-0.343433
354,-0.189927,-9.863029,-7.378457,-99.570992,6.941660,4.261340,-136.474091,-0.189695,-122.665131,0.176517,-0.446071,0.814586,-0.326055
355,-0.410894,-8.996082,-7.590667,-99.284233,0.834161,4.169001,-139.006012,-0.006892,-122.862976,0.167399,-0.447953,0.822635,-0.307552
356,0.095217,-8.513561,-7.828675,-98.158440,-0.814245,6.320962,-141.555344,0.203834,-123.005089,0.158560,-0.450004,0.830120,-0.288542
357,-0.215644,-8.484065,-7.617480,-93.328140,2.179500,2.663392,-143.813904,0.300881,-123.136436,0.150056,-0.451851,0.836287,-0.271913
358,-0.811906,-7.357926,-7.614778,-90.813728,1.045920,-7.922512,-145.868500,0.496050,-123.098442,0.143447,-0.454306,0.841110,-0.256052
359,-0.332020,-6.546598,-7.758832,-96.058311,0.388275,-14.199132,-148.174896,0.592386,-122.810913,0.135583,-0.459018,0.845051,-0.238346
360,-0.006052,-6.330268,-7.483617,-101.464439,6.229268,-16.922787,-150.624115,0.281169,-122.419098,0.124193,-0.465323,0.848045,-0.221068
361,-0.172981,-5.643829,-7.000453,-113.586563,9.128419,-26.690239,-153.167450,-0.270447,-121.892448,0.110671,-0.472855,0.850040,-0.203942
362,-0.398989,-4.596685,-6.753458,-136.163116,6.603386,-32.622440,-156.352280,-0.703048,-121.118507,0.095483,-0.482180,0.851753,-0.181392
363,-0.185590,-3.685464,-6.101480,-163.850662,8.481764,-31.698465,-160.494949,-1.025131,-120.240807,0.076740,-0.492274,0.853755,-0.151263
364,-0.139599,-2.931148,-5.850434,-155.186188,8.958035,-30.031548,-164.974655,-1.348937,-119.378876,0.055906,-0.501648,0.855056,-0.118755
365,-0.174670,-2.124881,-5.350938,-143.905029,9.305803,-29.339695,-169.175385,-1.558733,-118.521927,0.036567,-0.509906,0.854937,-0.087984
366,-0.381528,-1.406844,-5.069450,-130.499069,8.181417,-24.172197,-173.106003,-1.475569,-117.732956,0.020082,-0.516719,0.853945,-0.058106
367,0.061443,-0.946988,-4.536131,-106.445770,9.357347,-16.729794,-176.508347,-1.456509,-117.126526,0.005049,-0.521603,0.852550,-0.032618
368,0.181837,-0.592883,-4.741554,-68.175774,8.551670,-12.620388,-178.933441,-1.775549,-116.669357,-0.008301,-0.524994,0.850914,-0.016054
369,0.418011,-0.223966,-4.858150,-56.114658,8.726914,-12.489147,179.283936,-2.290715,-116.256050,-0.020274,-0.527801,0.849110,-0.005249
370,0.213633,0.118515,-5.732323,-46.146954,6.245227,-9.690610,177.627213,-2.703977,-115.874382,-0.030979,-0.530173,0.847308,0.005019
371,0.608896,0.582177,-6.525645,-34.554031,3.542105,-6.945483,176.082703,-2.994076,-115.576515,-0.040304,-0.531801,0.845777,0.014990
372,0.665994,0.888964,-7.596470,-25.511688,1.347833,-5.535537,174.750610,-3.325898,-115.340172,-0.048975,-0.532885,0.844451,0.023175
373,0.728166,1.091518,-8.539589,-18.996048,-1.193190,-3.318364,173.721008,-3.517147,-115.172882,-0.055211,-0.533551,0.843438,0.029788
374,0.726746,1.231651,-9.159806,-12.882796,-2.915128,-0.153580,172.987701,-3.587394,-115.108757,-0.059159,-0.533617,0.842936,0.034823
375,0.851949,1.306933,-9.239410,-6.168001,-3.428495,1.093154,172.531097,-3.636444,-115.127495,-0.061639,-0.533208,0.842881,0.037961
376,0.718817,1.381059,-9.496620,0.154556,-3.364958,1.653236,172.280319,-3.700758,-115.177177,-0.063260,-0.532665,0.843032,0.039532
377,0.740167,1.263396,-9.319423,1.116880,-2.644024,0.858288,172.211105,-3.729290,-115.225914,-0.063774,-0.532250,0.843237,0.039935
378,0.598508,0.794134,-9.063023,7.613666,-0.702778,-4.560176,172.515259,-3.714651,-115.182686,-0.062268,-0.532745,0.843138,0.037742
379,0.605868,0.893628,-8.611840,16.573814,0.565361,-9.880971,173.156067,-3.701319,-114.960258,-0.059254,-0.534728,0.842299,0.032974
380,0.436286,0.655721,-8.076680,22.370527,1.555569,-10.450073,174.002609,-3.679105,-114.633049,-0.055216,-0.537567,0.840988,0.026697
381,0.310787,0.539038,-7.755137,27.631796,1.574732,-11.794397,175.058670,-3.578710,-114.272697,-0.049584,-0.540742,0.839505,0.019263
382,0.331670,0.280879,-7.309502,33.167908,0.505790,-8.521263,176.328812,-3.449592,-113.946571,-0.042673,-0.543695,0.838132,0.010447
383,0.099361,0.318666,-7.160285,36.878719,-3.256830,-1.195301,177.712112,-3.183737,-113.796967,-0.034165,-0.545340,0.837517,0.001549
384,0.075383,-0.144202,-7.180849,39.903091,-6.235655,6.367180,179.262375,-2.723403,-113.895638,-0.023428,-0.545109,0.838004,-0.007567
385,0.243574,-0.034504,-7.266140,42.285015,-7.658947,5.358586,-179.100159,-2.295050,-114.097855,-0.012534,-0.543929,0.838856,-0.017481
386,0.195706,-0.198946,-7.166247,46.402531,-8.674199,5.105308,-177.517151,-1.928267,-114.265678,-0.002374,-0.542795,0.839417,-0.027324
387,0.260306,-0.183794,-7.308629,53.072235,-8.492820,2.868300,-175.876602,-1.598827,-114.379761,0.007773,-0.541875,0.839573,-0.037789
388,0.580170,-0.286950,-6.934570,54.406490,-5.067551,-4.498973,-174.249664,-1.567760,-114.330833,0.015714,-0.542059,0.838731,-0.049551
389,0.450280,-0.691524,-7.052027,61.425110,-2.671633,-6.546927,-172.435837,-1.766136,-114.138252,0.022947,-0.543232,0.836847,-0.063717
390,0.447057,-1.886494,-7.088342,70.917229,-0.233461,-10.795176,-169.822693,-1.984069,-113.867294,0.033935,-0.544665,0.833773,-0.083730
391,0.374868,-2.131717,-7.565306,77.899567,0.038996,-18.414104,-166.611862,-2.223929,-113.423317,0.047855,-0.546899,0.828822,-0.108002
392,-0.133406,-3.531370,-8.426831,78.226479,0.595264,-24.959955,-163.173172,-2.286285,-112.759308,0.064562,-0.550050,0.821983,-0.132743
393,0.005279,-3.675450,-9.876996,85.413300,1.863174,-23.598215,-159.727234,-2.272075,-112.017601,0.082190,-0.553124,0.814071,-0.156801
394,-0.318700,-3.724928,-10.197149,72.647018,-0.059907,-21.745024,-156.926392,-2.216862,-111.316772,0.097153,-0.555820,0.806673,-0.175797
395,-0.606130,-3.688850,-11.225393,66.523308,-6.129823,-14.044139,-154.925278,-1.835554,-110.699890,0.110543,-0.557794,0.800944,-0.187442
396,-0.010578,-4.792561,-11.805970,58.181515,-4.201708,-4.806862,-153.315201,-1.409051,-110.311775,0.122020,-0.558211,0.796876,-0.196216
397,0.534068,-3.653719,-12.093733,58.253548,-2.694404,2.360420,-152.123627,-1.277769,-110.198631,0.128934,-0.557477,0.794411,-0.203732
398,-0.045624,-4.174618,-11.579695,49.497944,-7.713365,8.963050,-151.367111,-1.010538,-110.258850,0.134358,-0.555737,0.793689,-0.207755
399,0.599846,-4.650249,-11.677737,57.374378,-6.109594,6.788472,-150.454636,-0.696757,-110.358665,0.140769,-0.553398,0.792907,-0.212681
400,1.297779,-4.454412,-11.202319,58.884724,-0.602005,3.414943,-149.372437,-0.933282,-110.441505,0.144193,-0.551911,0.790940,-0.221398
401,0.996182,-3.696208,-10.233129,65.887154,-0.423754,4.182305,-148.367188,-1.422395,-110.534843,0.145461,-0.550914,0.788718,-0.230779
402,1.399141,-4.698224,-8.794323,73.705856,1.666764,2.727672,-146.862564,-2.012117,-110.640976,0.148390,-0.549394,0.785232,-0.244044
403,1.253248,-4.866072,-8.206960,84.495224,7.036798,0.523572,-144.566650,-2.801802,-110.781815,0.153621,-0.546999,0.779552,-0.263614
404,1.247884,-5.951447,-7.228215,84.214958,8.185616,4.974329,-141.652145,-3.546604,-111.042480,0.161745,-0.542819,0.772480,-0.287159
405,0.113100,-6.885005,-6.234167,90.057625,9.980833,7.488913,-137.941574,-3.757097,-111.462456,0.176662,-0.535012,0.764327,-0.313620
406,0.169827,-8.172023,-5.607018,93.783890,9.720349,11.253389,-133.523529,-3.450482,-111.985184,0.197642,-0.523539,0.754724,-0.342397
407,-0.710046,-8.671268,-5.881742,90.948639,6.550531,18.069344,-129.101440,-2.679093,-112.560661,0.220923,-0.509482,0.745272,-0.369039
408,-0.327955,-9.258818,-5.208989,87.120308,4.105185,19.508358,-125.014343,-1.606456,-113.089630,0.244094,-0.494378,0.736456,-0.391970
409,-0.516120,-9.040756,-5.064092,95.458534,2.388430,17.298244,-121.069008,-0.635415,-113.511848,0.265621,-0.479571,0.726657,-0.414037
410,-0.094250,-8.909945,-4.950459,95.204758,0.306068,16.573484,-117.442696,0.161369,-113.809074,0.284510,-0.466058,0.716394,-0.434309
411,-0.649861,-9.111731,-4.893070,94.074448,0.200058,17.284391,-114.222366,0.932550,-114.049728,0.301270,-0.453320,0.706834,-0.451801
412,-0.211106,-9.243406,-4.258190,93.575043,-0.955627,14.709723,-111.177704,1.642935,-114.230072,0.316740,-0.441089,0.697135,-0.468102
413,-0.230694,-9.942578,-3.858654,96.182663,-2.278587,13.925352,-108.052734,2.101641,-114.336525,0.330897,-0.429649,0.685743,-0.485454
414,-0.705080,-10.251447,-3.706996,92.684631,-4.440918,14.858082,-105.017021,2.663104,-114.368317,0.345255,-0.417997,0.674308,-0.501384
415,-0.431839,-10.448443,-3.631687,88.855629,-7.743067,16.652964,-102.337845,3.290474,-114.305984,0.358747,-0.407228,0.663948,-0.514430
416,-0.267849,-10.550662,-3.179121,81.769417,-10.255951,14.529687,-99.984535,3.725051,-114.141609,0.370187,-0.398618,0.653920,-0.525788
417,-0.416696,-10.766543,-2.409861,77.998039,-11.740314,11.771241,-97.715904,4.015247,-113.878677,0.380808,-0.391256,0.643338,-0.536674
419,-0.514932,-10.443340,-2.338289,71.234154,-13.586369,12.612654,-95.642990,4.305736,-113.542152,0.390968,-0.384703,0.633269,-0.546002
420,-0.360813,-10.842571,-2.095966,63.137276,-13.062596,9.977722,-93.968376,4.506529,-113.179611,0.399345,-0.379900,0.624637,-0.553197
421,-0.494951,-10.260592,-1.273473,53.452492,-11.228101,9.713896,-92.486366,4.614954,-112.836830,0.406457,-0.375989,0.616646,-0.559618
422,-0.517555,-9.964615,-1.242037,45.707382,-11.220202,6.450344,-91.255722,4.698369,-112.511513,0.412498,-0.372900,0.609808,-0.564735
423,-0.825800,-10.251887,-1.931052,34.177433,-10.105873,6.194940,-90.711784,4.813697,-112.227425,0.416247,-0.371839,0.606569,-0.566171
424,-0.890692,-10.253983,-1.277535,18.990788,-6.824702,3.982367,-90.720345,4.989674,-112.022850,0.418108,-0.372032,0.606510,-0.564733
425,-0.904151,-9.637415,-0.888428,10.597660,-3.598458,4.455699,-91.113693,5.183549,-111.928261,0.418264,-0.372956,0.608754,-0.561585
426,-1.001015,-10.790189,-1.213336,4.786760,-0.504991,4.011938,-91.689934,5.374376,-111.937752,0.417296,-0.374013,0.612205,-0.557838
427,-0.798808,-10.926644,-0.869773,-5.050525,3.451993,0.978040,-92.175201,5.391659,-112.033234,0.415333,-0.375175,0.614929,-0.555522
428,-0.923160,-10.614714,-0.199148,-11.455417,7.272982,-1.802734,-92.569695,5.275933,-112.221001,0.412544,-0.376189,0.617093,-0.554513
429,-0.849208,-10.859267,-0.933747,-12.861204,9.568028,-4.049305,-93.072632,5.092704,-112.503807,0.408590,-0.377409,0.619885,-0.553497
430,-1.098436,-11.017268,-1.013094,-21.137794,13.010654,-6.417615,-93.934929,4.881410,-112.893410,0.402778,-0.379429,0.624677,-0.550983
431,-0.868522,-10.695375,-0.943999,-30.627085,14.921203,-6.742523,-95.026703,4.645001,-113.359085,0.395688,-0.381884,0.630738,-0.547508
432,-1.430074,-10.623963,-1.369967,-34.447609,16.737066,-4.649573,-96.351219,4.561237,-113.884964,0.388319,-0.383925,0.638543,-0.542284
433,-1.182229,-10.425771,-1.906747,-40.362656,17.081940,-2.143929,-98.010574,4.656166,-114.467888,0.380517,-0.385745,0.648575,-0.534564
434,-1.116238,-10.311502,-1.923530,-46.314411,18.014320,1.398836,-99.884438,4.740164,-115.082558,0.371805,-0.387974,0.659555,-0.525570
435,-0.873082,-10.327934,-2.601846,-48.262215,16.828793,1.472567,-101.905357,4.757002,-115.700027,0.362226,-0.390781,0.670882,-0.515752
436,-0.824444,-10.431415,-3.246495,-54.201252,14.729411,-2.772658,-104.215126,4.588049,-116.255470,0.350870,-0.395489,0.682625,-0.504482
437,-0.484722,-10.407592,-3.586107,-62.668930,12.651567,-6.080076,-106.785439,4.177082,-116.701462,0.337600,-0.402433,0.694304,-0.491951
438,-0.355674,-10.599923,-4.224873,-73.545906,10.212247,-10.302140,-109.640053,3.538289,-117.011314,0.322360,-0.411623,0.705904,-0.477859
439,-0.404367,-10.498117,-4.854654,-86.464706,7.640152,-13.884652,-112.900955,2.825332,-117.168869,0.305515,-0.422647,0.718124,-0.460790
440,-0.488413,-10.269367,-5.322696,-98.927094,5.618690,-13.996582,-116.550621,2.196972,-117.197105,0.287846,-0.434495,0.731125,-0.440244
441,-0.422629,-10.049397,-6.011409,-106.912148,5.226715,-8.800910,-120.490250,1.745149,-117.192757,0.269853,-0.445862,0.744839,-0.416655
442,-0.554082,-10.042366,-6.687660,-114.623627,5.858394,-1.589129,-124.616241,1.544197,-117.269745,0.252047,-0.455484,0.759256,-0.390560
443,-0.486713,-9.598468,-7.125618,-114.794708,8.261470,2.934211,-128.739441,1.519834,-117.484810,0.234653,-0.462885,0.773639,-0.363536
444,-0.543261,-9.663168,-7.711412,-110.406761,11.100874,8.893435,-132.604126,1.563877,-117.866852,0.218086,-0.467778,0.787097,-0.337787
445,-0.254348,-9.501213,-8.148551,-102.713852,13.113437,14.080203,-136.043152,1.592454,-118.423332,0.202622,-0.470154,0.799217,-0.314884
446,-0.284841,-9.398440,-8.248758,-96.104347,12.837358,15.048959,-138.978027,1.563981,-119.060532,0.188676,-0.470771,0.809607,-0.295488
447,-0.227478,-9.566937,-8.049581,-82.030777,11.548063,16.701267,-141.168427,1.547853,-119.703293,0.177956,-0.469753,0.817732,-0.281029
448,-0.336294,-9.217293,-8.232762,-67.656593,8.809037,14.999631,-142.616852,1.581743,-120.298004,0.170839,-0.467612,0.823701,-0.271420
449,0.080012,-8.578656,-7.977861,-61.465687,9.389292,6.681288,-143.672501,1.444939,-120.737556,0.164528,-0.466325,0.827789,-0.265022
450,-0.103857,-8.253979,-7.674312,-54.509842,9.493703,-2.377318,-144.423309,1.066817,-120.947006,0.158266,-0.466770,0.829894,-0.261445
451,-0.723401,-7.919142,-7.897815,-52.870399,5.852280,-3.024094,-145.039566,0.908580,-120.995461,0.154500,-0.467629,0.831291,-0.257696
452,-0.324671,-6.665732,-8.179214,-64.589531,3.823326,-16.393642,-146.198318,0.797262,-120.808304,0.149364,-0.470778,0.832954,-0.249493
453,-0.565130,-6.356375,-7.492615,-77.853889,5.738933,-16.776064,-147.943741,0.558303,-120.426582,0.141226,-0.476288,0.834801,-0.237301
454,-0.841644,-6.109829,-7.478685,-82.669739,0.623586,-13.590257,-149.819717,0.610073,-120.049355,0.134523,-0.481191,0.837051,-0.222944
455,-0.427079,-5.186814,-7.599241,-94.757416,-0.486095,-19.659292,-152.112686,0.716578,-119.573753,0.126501,-0.487078,0.839437,-0.205176
456,-0.149177,-4.480867,-6.852467,-113.231720,2.726798,-26.278395,-155.022003,0.480883,-118.908974,0.113432,-0.495411,0.841301,-0.184158
457,-0.674689,-4.056626,-6.640423,-123.637672,1.173465,-20.502123,-158.280548,0.392240,-118.223763,0.099605,-0.503613,0.843129,-0.159957
458,-0.196701,-3.012671,-6.917485,-148.553299,-1.317020,-21.973894,-162.327682,0.481855,-117.575424,0.083155,-0.511503,0.845430,-0.129221
459,0.026898,-1.881002,-6.189318,-176.973312,2.555665,-22.332426,-167.678452,0.293837,-116.877487,0.058344,-0.520151,0.847301,-0.090110
460,-0.414458,-1.488335,-5.894575,-170.188675,-0.013412,-12.116174,-173.384064,0.327575,-116.327835,0.032862,-0.526470,0.848229,-0.047516
461,-0.263920,-0.601097,-5.897889,-152.617310,-0.367810,-7.518221,-178.686111,0.652195,-116.030457,0.010900,-0.529595,0.848154,-0.006710
462,0.183086,-0.239229,-5.493447,-131.493805,4.426764,-5.416959,176.613602,0.568830,-115.826355,-0.011492,-0.531090,0.846786,0.027669
463,0.016320,0.200058,-5.088994,-94.524429,6.767111,-4.243536,172.988327,0.205436,-115.637184,-0.031054,-0.531697,0.844722,0.052708
464,0.000662,0.384359,-5.593408,-57.142433,6.230306,-3.714024,170.708649,-0.046110,-115.470085,-0.043576,-0.532054,0.842828,0.068273
465,0.174084,0.860757,-5.848163,-48.440269,7.943005,-4.139663,169.181961,-0.364174,-115.297874,-0.053114,-0.532467,0.841180,0.077940
466,0.290002,1.370582,-6.497480,-37.491814,7.497149,-3.892243,167.737885,-0.809757,-115.110344,-0.063226,-0.532768,0.839465,0.086360
467,0.283985,1.907162,-7.334283,-29.263636,5.847235,-4.659568,166.423523,-1.197065,-114.914200,-0.072324,-0.533090,0.837698,0.094056
468,0.329137,1.914338,-8.226163,-20.310116,4.134393,-4.103963,165.486084,-1.461285,-114.727547,-0.078771,-0.533583,0.836167,0.099544
469,0.269490,2.225000,-8.866512,-9.156827,1.638386,-4.520435,165.043274,-1.591553,-114.564133,-0.081926,-0.534334,0.835082,0.102049
470,0.251873,2.436867,-9.148216,-2.204554,0.120141,-5.196403,164.876694,-1.587279,-114.400581,-0.082819,-0.535410,0.834167,0.103164
471,0.128143,2.462427,-9.385862,3.850613,-0.692211,-5.603966,164.951370,-1.430447,-114.230545,-0.081484,-0.536861,0.833356,0.103237
472,0.087335,2.466077,-9.266471,7.775671,-2.191791,-4.385044,165.208237,-1.138337,-114.083168,-0.078292,-0.538405,0.832740,0.102644
473,0.025720,2.526989,-9.105896,8.491188,-2.969388,-3.259154,165.452744,-0.859614,-113.980446,-0.075212,-0.539587,0.832323,0.102114
474,-0.079288,2.395447,-8.683567,8.725650,-3.934527,-0.943006,165.646271,-0.593874,-113.939270,-0.072409,-0.540263,0.832155,0.101937
475,-0.171129,2.189456,-7.954508,13.907057,-4.854148,1.426487,165.912430,-0.270427,-113.980995,-0.068769,-0.540422,0.832407,0.101557
476,-0.095780,1.517089,-7.001412,26.165091,-5.129725,3.185647,166.628738,0.037298,-114.093475,-0.063057,-0.540288,0.833388,0.097867
477,-0.168308,0.781205,-6.107245,43.841000,-5.185489,2.968765,168.257492,0.332426,-114.227707,-0.053119,-0.540370,0.835181,0.087468
478,-0.253277,0.515447,-5.423352,58.301739,-6.315928,1.807246,170.679184,0.731430,-114.330811,-0.038709,-0.540848,0.837163,0.071717
479,-0.377889,0.010145,-5.141013,65.321564,-6.760343,5.046390,173.636169,1.269908,-114.450493,-0.020743,-0.540987,0.839124,0.052657
480,-0.042089,-0.898387,-5.219322,73.324234,-6.802414,7.258667,177.400757,1.634703,-114.629715,-0.000244,-0.540101,0.841174,0.026789
481,-0.229794,-1.039894,-5.812137,80.816887,-8.215361,7.162315,-178.377106,1.871716,-114.828796,0.021387,-0.538238,0.842515,-0.003136
482,-0.333380,-1.008916,-6.823658,74.969902,-11.463041,7.845735,-174.662262,2.300874,-115.021019,0.041923,-0.535666,0.842907,-0.028495
483,-0.581235,-1.873440,-7.578676,73.830536,-10.031169,9.569914,-171.305649,2.857265,-115.226265,0.061581,-0.532330,0.842772,-0.050673
484,-0.163614,-2.320871,-8.577817,83.703667,-8.113178,3.687225,-167.820068,3.202795,-115.343643,0.080192,-0.529037,0.841488,-0.074751
485,-0.149790,-2.285856,-9.801952,73.728096,-5.351446,-1.194589,-164.767899,3.189229,-115.317635,0.094176,-0.526919,0.839073,-0.097176
486,-0.073615,-1.999995,-10.161659,52.991249,-3.002899,-11.082936,-162.828918,2.968273,-115.103287,0.101682,-0.527086,0.836214,-0.112196
487,0.023744,-2.137053,-10.392263,52.937687,2.855524,-14.838619,-161.607086,2.499943,-114.728363,0.104304,-0.529303,0.832973,-0.122942
488,0.524892,-2.067072,-10.493473,51.618092,5.224947,-20.439436,-160.591232,1.695379,-114.257874,0.103727,-0.532831,0.829139,-0.133646
489,0.547610,-2.002266,-10.153396,52.954235,6.258156,-23.431150,-159.736237,0.686256,-113.676071,0.101160,-0.537586,0.824634,-0.144035
490,0.483115,-2.144419,-9.677405,75.233536,6.269910,-30.068216,-158.527420,-0.302049,-112.945961,0.100734,-0.543069,0.818759,-0.156725
491,0.198658,-3.104379,-9.198560,108.197632,10.054045,-26.902399,-156.096008,-1.172205,-112.191231,0.107206,-0.547446,0.810753,-0.177453
492,0.340099,-4.242650,-8.940284,128.522522,11.865831,-24.751055,-152.248596,-1.975436,-111.586830,0.120959,-0.549111,0.800439,-0.207711
493,0.796024,-4.897653,-8.651401,138.576385,13.357685,-23.504858,-147.635330,-2.940045,-111.120277,0.137243,-0.548852,0.787740,-0.243703
494,0.016935,-5.823336,-7.940242,137.670334,14.367862,-19.886715,-142.729797,-3.716138,-110.815857,0.156025,-0.546212,0.773764,-0.280355
495,-0.189743,-7.387784,-7.440741,123.182411,12.780512,-8.049994,-137.732681,-3.920115,-110.761765,0.178458,-0.539746,0.760142,-0.314660
496,0.277001,-8.214258,-7.357080,113.434685,10.213761,1.909926,-133.005814,-3.846983,-110.974457,0.200409,-0.530343,0.747666,-0.345786
497,0.504925,-8.610338,-7.132344,105.588379,6.749164,8.081777,-128.802704,-3.690047,-111.314583,0.219645,-0.519989,0.736398,-0.372942
498,-0.240551,-9.167581,-6.957431,104.373886,3.050624,16.099108,-124.996849,-3.108551,-111.690231,0.239249,-0.508171,0.726709,-0.395495
499,0.373822,-9.694775,-7.409712,102.469269,0.172969,22.151039,-121.582443,-2.243975,-112.059921,0.258444,-0.495543,0.718400,-0.414180
500,0.435531,-9.323755,-7.260516,105.638763,0.216836,20.225655,-118.612556,-1.553186,-112.390343,0.274286,-0.484128,0.710615,-0.430597
501,0.481504,-9.386522,-6.937192,95.767426,-0.811660,19.047352,-116.075386,-1.010149,-112.655113,0.287266,-0.474254,0.703439,-0.444675
502,0.244134,-9.852325,-6.825695,81.164948,-0.619344,20.015970,-114.082413,-0.469391,-112.891220,0.297837,-0.465627,0.698004,-0.455274
503,0.294220,-9.908369,-6.213106,71.997765,-0.716911,18.318762,-112.496674,0.058511,-113.113060,0.306550,-0.457989,0.693946,-0.463371
504,0.237514,-10.104351,-5.716846,69.621490,-1.012669,14.771829,-111.010277,0.452476,-113.290260,0.314098,-0.451280,0.689644,-0.471254
505,0.252284,-10.211782,-5.235161,67.053566,-1.888172,13.397592,-109.498306,0.738429,-113.414299,0.321204,-0.445147,0.684631,-0.479533
506,0.135474,-10.631736,-4.715128,62.530262,-4.013393,10.100631,-107.953903,0.959671,-113.457764,0.328290,-0.439565,0.678887,-0.487977
507,-0.020703,-10.002052,-4.086913,63.767948,-5.975449,3.108146,-106.354195,1.088429,-113.374962,0.335502,-0.434857,0.672057,-0.496666
508,0.068210,-10.080991,-3.493088,59.027611,-5.309882,1.018433,-104.714783,1.071593,-113.222183,0.342267,-0.430975,0.664261,-0.505838
509,-0.270196,-10.075946,-3.105559,53.689724,-3.390134,2.261733,-103.135818,1.098169,-113.103050,0.348858,-0.426780,0.656862,-0.514479
510,-0.264716,-10.176111,-2.404986,47.771328,-2.390698,2.754854,-101.593719,1.244077,-113.029274,0.355725,-0.421788,0.650043,-0.522492
511,-0.198611,-9.752037,-2.067369,49.358109,-0.925826,1.113039,-100.005554,1.332166,-112.986961,0.362221,-0.416639,0.642853,-0.530988
512,-0.229278,-10.150048,-1.557514,46.788757,-0.014846,3.484276,-98.350525,1.401075,-112.982330,0.368599,-0.411059,0.635313,-0.539947
513,-0.590514,-10.167417,-1.860463,47.295116,-1.203623,3.332283,-96.825470,1.622103,-112.977310,0.375254,-0.405067,0.628744,-0.547527
514,-0.102973,-9.924070,-1.372224,43.001671,-3.162934,2.751183,-95.497574,1.779668,-112.917870,0.381051,-0.400236,0.622648,-0.554005
515,-0.421347,-9.811314,-1.691328,40.305111,-3.481779,2.984529,-94.416733,1.862374,-112.825829,0.385695,-0.396706,0.617340,-0.559244
516,-0.682043,-9.891464,-1.655503,32.713573,-2.665383,7.876019,-93.741837,2.207076,-112.752754,0.390192,-0.393086,0.614890,-0.561377
517,-0.618518,-9.715933,-1.438940,27.088823,-1.554478,8.431082,-93.311035,2.683403,-112.717911,0.394320,-0.389392,0.614183,-0.561841
518,-0.554307,-9.687059,-1.294324,21.557411,-0.710556,9.452590,-93.022240,3.098326,-112.718071,0.397451,-0.386285,0.614090,-0.561880
519,-0.814892,-9.901811,-1.318795,17.158279,0.972650,10.822067,-92.894295,3.560759,-112.765762,0.400038,-0.383224,0.615091,-0.561045
520,-0.723804,-10.141685,-0.880124,12.582882,2.246886,12.118279,-92.789452,4.061504,-112.860207,0.402505,-0.379784,0.616471,-0.560105
522,-0.796996,-10.414272,-0.916726,8.971115,2.918375,8.967517,-92.688980,4.455688,-112.979752,0.404278,-0.376758,0.617608,-0.559619
523,-0.718101,-10.497803,-0.979086,3.132833,4.980025,6.318432,-92.783463,4.689045,-113.145142,0.404358,-0.374995,0.619337,-0.558834
524,-0.707285,-10.643349,-0.681030,-5.209041,6.145947,4.979717,-93.039421,4.783035,-113.356628,0.402974,-0.374267,0.621565,-0.557846
525,-0.834450,-10.543607,-0.919393,-11.965246,6.846444,1.378148,-93.508911,4.808317,-113.592850,0.400423,-0.374498,0.624696,-0.556028
526,-0.787897,-10.478085,-1.116325,-21.090250,7.865902,0.944528,-94.344048,4.783119,-113.862617,0.396252,-0.376054,0.629543,-0.552489
527,-0.631864,-10.216650,-1.188454,-30.171120,8.371161,0.531941,-95.504562,4.679367,-114.157524,0.390468,-0.378937,0.635774,-0.547478
528,-0.861509,-10.195313,-1.289193,-37.136761,7.597654,2.054441,-96.880920,4.625930,-114.444740,0.384248,-0.382256,0.643108,-0.540967
529,-0.631488,-10.115559,-1.939895,-42.454967,8.456943,3.314545,-98.560852,4.620080,-114.748199,0.377162,-0.386152,0.651978,-0.532504
530,-0.500709,-10.188173,-2.301752,-49.920971,7.824037,3.934645,-100.597984,4.519636,-115.070374,0.368216,-0.391421,0.662165,-0.522250
531,-0.624906,-10.007814,-2.824032,-56.754105,6.197801,-0.640999,-102.937454,4.353495,-115.347076,0.357980,-0.398017,0.673204,-0.510127
532,-0.833671,-9.799267,-3.310919,-66.081116,5.818163,-2.560815,-105.631104,4.204073,-115.573799,0.346686,-0.405652,0.685424,-0.495430
533,-0.634330,-9.709688,-3.835552,-79.024818,6.459374,-4.654449,-108.737679,4.001063,-115.783905,0.333488,-0.414520,0.698856,-0.478079
534,-0.627645,-9.810364,-4.193088,-90.715294,5.658629,-8.112547,-112.172943,3.651269,-115.938454,0.318181,-0.424855,0.712613,-0.458740
535,-1.059904,-9.538880,-4.722736,-101.997787,6.761861,-8.456905,-115.884560,3.395314,-116.049294,0.302248,-0.435269,0.726937,-0.436749
536,-0.518418,-9.316209,-5.510916,-109.734123,9.070587,-3.457462,-119.934402,3.176147,-116.229233,0.284643,-0.445349,0.742149,-0.412137
537,-0.472526,-9.474899,-6.425170,-116.567131,10.285602,0.413466,-124.233292,2.876834,-116.501183,0.264882,-0.454984,0.757573,-0.385889
538,-0.611591,-9.458408,-7.413803,-117.879044,9.712101,5.686919,-128.619873,2.715889,-116.848389,0.245124,-0.462982,0.772899,-0.358036
539,-0.855057,-8.986160,-8.213071,-115.902473,9.510497,13.625211,-132.977921,2.828200,-117.323486,0.226742,-0.468360,0.788088,-0.328854
540,-0.305833,-9.173467,-8.764210,-112.128830,10.365128,22.475609,-137.069656,3.010998,-117.997765,0.209370,-0.470924,0.802381,-0.300963
541,-0.640305,-9.416016,-8.868525,-100.407173,12.591787,23.500599,-140.472519,3.136709,-118.809113,0.194212,-0.470846,0.814485,-0.277848
542,-0.851700,-9.490679,-8.797956,-78.274422,11.007616,22.502588,-142.831635,3.335698,-119.618279,0.184045,-0.468440,0.823602,-0.261478
543,-0.595101,-9.456312,-8.862911,-54.574112,12.164073,15.534964,-144.082108,3.405985,-120.302116,0.177916,-0.465308,0.829278,-0.253243
544,-0.230537,-9.230776,-8.946596,-39.415169,12.132603,3.888205,-144.533752,3.093856,-120.734055,0.172894,-0.463630,0.831674,-0.251937
545,-0.842216,-8.764012,-8.522926,-34.365269,9.805729,-1.904798,-144.596375,2.732268,-120.906166,0.169661,-0.463347,0.832101,-0.253245
546,-1.031112,-8.235957,-8.484203,-39.670712,3.392740,0.634694,-144.729965,2.726218,-120.960175,0.168958,-0.463167,0.832607,-0.252380
547,-0.458400,-7.962418,-8.039075,-49.752583,6.250113,-6.990219,-145.164642,2.645618,-120.916115,0.166714,-0.464316,0.833290,-0.249490
548,-0.758316,-6.987812,-8.115597,-58.614651,6.885998,-15.106612,-146.071152,2.318578,-120.694496,0.161143,-0.467987,0.833975,-0.243941
549,-1.019369,-6.412271,-7.741128,-85.369438,1.075355,-11.307804,-147.785278,2.253584,-120.373627,0.154301,-0.472830,0.836141,-0.231280
550,-0.570076,-5.642000,-7.492202,-97.913643,-1.100475,-15.514031,-150.215561,2.300014,-119.975845,0.145317,-0.478818,0.839246,-0.212796
551,-0.267957,-4.850268,-7.318297,-100.497269,0.976063,-28.466051,-153.000977,1.993750,-119.315865,0.132506,-0.487625,0.841106,-0.192886
552,-0.489237,-3.899496,-7.609638,-104.844856,-0.887340,-25.945166,-156.169128,1.645069,-118.491035,0.117639,-0.497744,0.842279,-0.170231
553,-0.194559,-3.585030,-7.091564,-123.833977,-3.757925,-17.883568,-159.775101,1.505292,-117.783722,0.101779,-0.506610,0.844012,-0.143637
554,0.076827,-3.047214,-6.659026,-127.902672,3.756437,-20.342171,-163.523590,1.171357,-117.162643,0.083324,-0.514632,0.845294,-0.117000
555,0.156206,-2.366512,-6.560241,-136.668076,8.030450,-23.711946,-167.468719,0.533708,-116.478119,0.061384,-0.522794,0.845431,-0.090357
556,-0.096680,-1.534637,-6.419153,-146.888840,8.385141,-19.386181,-171.936020,0.013147,-115.803551,0.037460,-0.530050,0.845046,-0.059504
557,-0.014216,-0.898630,-5.991477,-155.619705,7.525905,-14.994544,-176.889191,-0.278109,-115.258537,0.012483,-0.535252,0.844253,-0.024224
558,-0.201008,-0.001708,-5.714139,-146.271225,7.935576,-13.850057,177.934372,-0.397188,-114.787216,-0.012632,-0.538721,0.842284,0.013317
559,-0.232686,0.394700,-5.641288,-124.638351,6.504105,-9.090696,173.134476,-0.313595,-114.408333,-0.034729,-0.540536,0.839183,0.048853
560,-0.094202,0.650738,-5.721676,-96.421455,5.903085,-7.215421,169.364334,-0.243445,-114.128166,-0.052166,-0.541194,0.835772,0.076634
561,0.084230,1.018588,-5.985004,-73.355118,6.728377,-7.183390,166.614838,-0.359360,-113.857185,-0.066205,-0.541656,0.832476,0.095961
562,0.055900,1.760933,-6.387558,-57.060108,7.467146,-8.526163,164.378510,-0.562758,-113.543411,-0.078540,-0.542328,0.829089,0.111013
563,0.191739,1.910378,-6.949032,-42.460648,7.787940,-8.381108,162.612839,-0.790031,-113.199158,-0.088894,-0.543279,0.825806,0.122432
564,0.002028,2.379012,-7.526435,-28.267984,7.096759,-10.772224,161.434021,-0.938819,-112.817955,-0.095979,-0.544896,0.822802,0.129895
565,-0.148708,2.802256,-8.144598,-16.570431,5.093890,-10.023280,160.647354,-0.861234,-112.425117,-0.099627,-0.547136,0.819962,0.135570
566,-0.138836,2.802967,-8.677403,-4.135322,3.742290,-9.385835,160.357819,-0.678807,-112.073578,-0.100131,-0.549626,0.817792,0.138209
567,-0.251867,2.801361,-9.205684,9.722994,1.793975,-11.043407,160.690598,-0.424667,-111.724541,-0.097139,-0.552718,0.816311,0.136761
568,-0.356958,2.983349,-9.459744,15.419253,-0.182043,-10.833333,161.371780,-0.060073,-111.371071,-0.091666,-0.556232,0.815114,0.133387
569,-0.199600,2.994662,-9.673338,18.992521,-1.699972,-8.697433,162.134399,0.285808,-111.069572,-0.085840,-0.559360,0.814248,0.129414
570,-0.187719,3.076078,-9.730551,15.829863,-2.309435,-6.698675,162.818359,0.540734,-110.843132,-0.080934,-0.561740,0.813703,0.125636
571,-0.161582,2.986893,-9.453437,12.204253,-3.005626,-4.844794,163.285629,0.749273,-110.684265,-0.077330,-0.563406,0.813270,0.123231
572,-0.008460,2.920217,-9.099238,10.772458,-2.419575,-4.263382,163.586761,0.861406,-110.565460,-0.075178,-0.564561,0.812921,0.121565
573,-0.044435,2.801545,-8.774137,12.070230,-1.430369,-4.588272,163.830872,0.889560,-110.444092,-0.073902,-0.565608,0.812558,0.119893
574,-0.128333,2.477466,-8.568604,18.240654,0.008784,-4.879656,164.265289,0.917806,-110.300255,-0.071704,-0.566931,0.812275,0.116861
575,-0.174208,2.112532,-8.554004,34.004097,1.281361,-5.525146,165.249924,0.951299,-110.125443,-0.066759,-0.568796,0.812359,0.109941
576,-0.310200,1.924873,-8.386969,45.715279,1.705146,-5.844197,166.796722,1.025985,-109.924721,-0.058719,-0.571128,0.812723,0.099233
577,-0.436529,1.483142,-7.943939,54.528980,1.041871,-2.382150,168.729294,1.195457,-109.771927,-0.047988,-0.573233,0.813422,0.086293
578,-0.467554,1.014040,-7.362707,63.250130,0.570437,3.318356,171.044098,1.426003,-109.766678,-0.034761,-0.574237,0.814864,0.070996
579,-0.416833,0.322443,-6.497377,62.351475,-0.248973,9.301162,173.685959,1.662287,-109.949455,-0.019744,-0.573661,0.817112,0.053407
580,-0.532614,0.108995,-5.635339,52.293274,-2.323146,11.360807,176.242126,2.021589,-110.264626,-0.004275,-0.571762,0.819575,0.036977
581,-0.398217,0.044874,-5.145440,34.744892,-3.077459,16.219076,178.165848,2.445590,-110.698799,0.008455,-0.568649,0.822148,0.025295
582,-0.279162,-0.335825,-5.190592,26.288080,-3.455370,22.389746,179.666046,2.717568,-111.317436,0.017936,-0.564017,0.825417,0.015783
583,-0.014183,-0.652434,-5.866005,24.366421,-3.338756,22.189663,-178.813339,2.722642,-112.027916,0.025485,-0.558599,0.829033,0.004695
584,-0.115152,-0.600159,-6.428174,32.239220,-2.281398,16.615278,-177.268646,2.589586,-112.647720,0.032011,-0.553751,0.832035,-0.007302
585,0.281976,-1.147336,-7.523615,47.471310,-2.032077,16.265600,-175.376480,2.323993,-113.172218,0.039122,-0.549439,0.834314,-0.022505
586,0.108801,-2.037814,-7.928123,77.503685,0.324987,9.303951,-172.396362,1.946128,-113.573975,0.050491,-0.545527,0.835295,-0.046184
587,0.080838,-2.184781,-8.844708,100.919762,-2.047553,2.018792,-168.498917,1.687084,-113.741524,0.067022,-0.542485,0.833941,-0.075895
588,-0.081186,-3.014170,-8.926812,116.658043,-1.886161,-6.020108,-164.095093,1.525414,-113.655418,0.086728,-0.540307,0.829914,-0.108580
589,0.042506,-3.467682,-9.621340,126.011055,-2.539856,-6.649131,-159.408508,1.359745,-113.426910,0.107844,-0.538179,0.823582,-0.142988
590,0.073334,-4.636332,-9.411514,125.716690,-1.359230,-11.361628,-154.659103,1.098076,-113.128136,0.128655,-0.535807,0.815301,-0.177883
591,0.045406,-5.159029,-10.217204,123.808594,-2.063282,-14.374250,-150.089722,0.771996,-112.727669,0.148361,-0.533696,0.805316,-0.211246
592,0.096415,-6.209660,-10.214431,115.812164,3.275155,-17.070969,-145.933151,0.330581,-112.303192,0.165451,-0.531860,0.794550,-0.241745
593,-0.071802,-6.162350,-10.635134,104.263092,4.590858,-9.974094,-142.420578,-0.110166,-112.020531,0.179311,-0.529508,0.784777,-0.267570
594,0.435296,-6.416041,-10.467362,91.886009,3.976418,-9.597575,-139.739868,-0.538384,-111.860809,0.189138,-0.527313,0.776842,-0.287549
595,-0.154136,-6.095005,-10.209362,84.922653,4.799054,-6.678623,-137.696014,-0.864533,-111.751823,0.196598,-0.525430,0.770502,-0.302654
596,0.019704,-6.320467,-9.309988,77.781593,3.205431,0.817114,-136.004486,-0.910863,-111.756546,0.204008,-0.522563,0.765885,-0.314212
597,0.397125,-6.712335,-8.279764,81.856049,1.151597,5.977632,-134.104126,-0.910678,-111.875984,0.212306,-0.518315,0.761110,-0.327090
598,0.241973,-7.759765,-7.121265,85.665154,0.598062,2.943698,-131.509064,-0.916936,-111.999504,0.223576,-0.512580,0.754048,-0.344509
599,-0.039626,-8.627123,-6.469662,92.579659,3.935132,11.577588,-128.176041,-0.736776,-112.218224,0.238866,-0.503876,0.745066,-0.365963
600,0.258385,-9.590627,-5.637169,96.073555,3.291111,18.220100,-124.312187,-0.378523,-112.615997,0.256662,-0.491785,0.734842,-0.390230
601,0.235141,-10.085230,-5.857319,96.378128,4.568614,17.899311,-120.416016,-0.020919,-113.060295,0.273881,-0.478685,0.723877,-0.414550
602,-0.277975,-10.179555,-5.878098,90.170654,4.414417,15.961573,-117.045502,0.436083,-113.465881,0.289138,-0.466158,0.714170,-0.434806
603,0.036354,-10.172808,-6.176317,88.191788,2.914302,18.969391,-114.301506,0.951745,-113.826088,0.301955,-0.454830,0.706308,-0.450647
604,-0.022816,-10.105466,-6.153568,82.366646,-1.185607,9.222893,-112.119598,1.287567,-114.049606,0.311685,-0.446251,0.699345,-0.463281
605,-0.162856,-9.702525,-6.386364,77.367752,-2.334344,2.615287,-110.519203,1.418693,-114.090057,0.318504,-0.441057,0.693308,-0.472597
606,-0.103728,-9.890720,-5.891998,71.235565,-3.899627,1.162251,-109.287773,1.436169,-114.044403,0.323521,-0.437808,0.688061,-0.479823
607,-0.039284,-9.934656,-5.690692,65.561401,-5.759333,0.735919,-108.210388,1.396470,-113.934189,0.327856,-0.435577,0.682993,-0.486110
608,-0.021609,-9.398249,-4.826054,59.294064,-6.560026,0.251470,-107.256561,1.330922,-113.774025,0.331774,-0.434068,0.678137,-0.491570
609,-0.201912,-9.570445,-4.250874,51.093113,-6.517028,5.388830,-106.323410,1.398080,-113.616119,0.336372,-0.431984,0.673705,-0.496353
610,-0.011620,-10.170174,-3.344062,41.708878,-7.020374,9.227583,-105.271927,1.603535,-113.478645,0.342108,-0.428761,0.669188,-0.501312
611,-0.197791,-9.767879,-2.562100,38.705421,-7.079709,11.158824,-104.003639,1.885693,-113.341293,0.349050,-0.424461,0.663897,-0.507186
612,-0.281308,-9.957673,-1.853173,36.350735,-6.727196,11.428655,-102.512611,2.259587,-113.197556,0.357294,-0.418978,0.657800,-0.513904
613,-0.398381,-10.397659,-1.976942,36.396717,-5.909328,8.385818,-100.990776,2.602338,-113.048500,0.365409,-0.413429,0.651386,-0.520816
614,-0.493775,-10.452749,-1.684398,35.670048,-5.646916,3.470789,-99.573555,2.828945,-112.885300,0.372488,-0.408713,0.644988,-0.527444
615,-0.654963,-9.667594,-2.024994,38.201416,-4.984713,-1.066971,-98.358406,2.956502,-112.716805,0.378277,-0.405062,0.639148,-0.533218
616,-0.685278,-9.916117,-2.083167,33.417252,-4.197337,-2.653299,-97.492065,3.026467,-112.571449,0.382387,-0.402655,0.634801,-0.537287
617,-0.706080,-9.831064,-2.130016,28.996965,-3.126084,-3.044808,-96.924385,3.059700,-112.461884,0.385071,-0.401196,0.631851,-0.539932
618,-0.747706,-9.524303,-1.933019,22.476660,-2.283709,0.009366,-96.601402,3.157290,-112.393967,0.387041,-0.400003,0.630390,-0.541116
619,-0.634814,-9.397707,-1.810764,18.312525,-1.864000,3.606651,-96.433434,3.341546,-112.359489,0.388768,-0.398716,0.630044,-0.541230
620,-0.552555,-9.628945,-1.665334,14.840021,-1.876085,6.687692,-96.326088,3.550957,-112.341736,0.390336,-0.397414,0.630119,-0.540972
621,-0.609552,-9.649930,-1.529188,12.228678,-3.012777,8.019813,-96.224747,3.799095,-112.308617,0.392156,-0.396022,0.630287,-0.540480
622,-0.462810,-9.489190,-1.376272,8.959437,-3.893017,8.078663,-96.258873,3.959129,-112.248528,0.393167,-0.395676,0.630730,-0.539481
623,-0.420279,-9.856628,-1.243898,6.058210,-5.111914,6.432026,-96.346046,3.916236,-112.148651,0.393109,-0.396737,0.630664,-0.538821
625,-0.589515,-9.926707,-1.013151,3.531002,-4.313685,1.956644,-96.225288,3.830737,-112.010895,0.393724,-0.397503,0.629356,-0.539336
626,-0.650110,-9.862797,-0.808702,2.189553,-3.884947,-1.561026,-95.881058,3.780912,-111.859718,0.395368,-0.397394,0.627056,-0.540892
627,-0.573935,-9.948764,-0.828569,1.518383,-2.998462,-3.578684,-95.501198,3.641456,-111.716484,0.396631,-0.397555,0.624329,-0.542998
628,-0.615719,-9.933859,-0.778992,0.347554,-1.498511,-5.375065,-95.274635,3.436585,-111.615623,0.396824,-0.398338,0.622261,-0.544654
629,-0.732667,-9.905746,-0.563311,-0.473911,-0.326682,-6.404843,-95.096924,3.283684,-111.556587,0.396924,-0.398803,0.620729,-0.545989
630,-0.783058,-9.746188,-0.592674,0.934735,-0.262796,-4.706896,-94.781723,3.297918,-111.512329,0.398305,-0.397877,0.619116,-0.547487
631,-0.862140,-10.051808,-0.407220,0.756564,0.408381,-2.546324,-94.421371,3.422573,-111.484573,0.400334,-0.396149,0.617692,-0.548868
632,-0.750993,-9.744079,-0.172267,2.702143,2.631377,-3.114318,-93.826004,3.533586,-111.494774,0.402911,-0.393450,0.615221,-0.551691
633,-0.954445,-10.047424,-0.257916,6.034752,3.793856,-1.016422,-93.152649,3.683803,-111.562881,0.405657,-0.389950,0.612683,-0.554978
634,-0.863722,-10.041540,-0.415828,5.611584,5.304394,-0.955877,-92.785706,3.824927,-111.699898,0.406959,-0.387199,0.611819,-0.556900
635,-0.846622,-10.259447,-0.722773,1.467017,7.027136,-0.599633,-92.708427,3.912148,-111.905777,0.406665,-0.385380,0.612416,-0.557721
636,-0.664922,-9.947384,-1.068697,-2.991758,8.753051,-1.208212,-93.023788,3.914113,-112.186127,0.404251,-0.384985,0.614899,-0.557017
637,-0.885896,-10.044167,-1.446038,-10.113045,7.210517,-0.486112,-93.760498,3.927331,-112.485229,0.400391,-0.385893,0.619518,-0.554050
638,-0.827749,-9.889298,-1.798657,-19.933199,6.296717,-0.085672,-94.958359,4.010252,-112.757797,0.395466,-0.388152,0.626457,-0.548175
639,-0.651799,-9.909842,-2.211391,-27.187555,5.703447,2.160683,-96.582031,4.052218,-113.019318,0.388919,-0.392059,0.635184,-0.539975
640,-0.494794,-9.987660,-2.472262,-35.226498,4.910369,4.052346,-98.504906,4.038085,-113.267944,0.381060,-0.397200,0.644977,-0.530123
641,-0.377220,-10.046022,-3.026352,-43.383148,3.485660,4.338211,-100.732613,3.963437,-113.487587,0.371862,-0.403633,0.655721,-0.518486
642,-0.133210,-10.403427,-3.618783,-54.346359,4.449197,2.152981,-103.342667,3.737676,-113.696457,0.360384,-0.411831,0.667485,-0.504957
643,-0.057784,-10.173293,-4.176359,-66.611420,4.788793,-2.107952,-106.379036,3.310483,-113.895821,0.346036,-0.421971,0.680221,-0.489387
644,-0.366179,-9.686028,-4.507363,-82.525002,4.530116,-4.675986,-109.887650,2.877737,-114.052650,0.329754,-0.433280,0.694365,-0.470520
645,-0.560838,-9.198582,-5.229261,-97.921547,4.268067,-4.938700,-113.957039,2.606201,-114.177032,0.312028,-0.445053,0.710453,-0.447016
646,-0.577846,-9.039208,-5.868484,-112.678879,5.864373,-0.722246,-118.554276,2.483382,-114.339096,0.292567,-0.456651,0.728177,-0.419086
647,-0.742878,-8.778174,-6.696805,-121.519890,6.317518,6.406027,-123.493073,2.566903,-114.612915,0.272230,-0.466751,0.746850,-0.387620
648,-1.055862,-8.625422,-7.712891,-135.594574,4.112056,14.972325,-128.776581,2.985295,-115.021133,0.251925,-0.474704,0.766403,-0.351875
649,-0.557975,-8.828197,-8.289026,-145.822495,5.591945,22.161732,-134.224396,3.472575,-115.602806,0.230768,-0.480706,0.785504,-0.314088
650,-0.428494,-8.646845,-8.745732,-137.537033,9.150892,22.689323,-139.301041,3.698973,-116.328201,0.209044,-0.484775,0.802045,-0.279316
651,-1.086829,-8.462070,-9.273978,-119.404266,5.902217,20.676535,-143.589035,3.941650,-117.041382,0.190910,-0.486594,0.815270,-0.249229
652,-1.185168,-8.429659,-9.499852,-97.179932,5.927371,23.089451,-146.848434,4.351588,-117.733009,0.178542,-0.485919,0.825402,-0.225203
653,-0.798261,-8.556176,-9.087648,-72.525093,11.778883,21.282612,-148.847748,4.544776,-118.456886,0.170087,-0.483292,0.832455,-0.210993
654,-1.419378,-8.593021,-9.047136,-40.306938,14.859011,17.157787,-149.487549,4.579302,-119.136246,0.166409,-0.479209,0.836506,-0.207180
655,-1.337208,-8.846364,-9.086387,-24.999462,11.006189,16.350607,-149.128235,4.706861,-119.719475,0.167762,-0.474147,0.838389,-0.210106
656,-0.931095,-8.664717,-8.678771,-20.397320,17.170164,12.637620,-148.333954,4.634364,-120.247154,0.169524,-0.469275,0.839018,-0.217006
657,-1.099237,-8.055508,-8.185206,-31.074535,18.130919,4.798453,-147.677994,4.330230,-120.679344,0.169171,-0.465825,0.839243,-0.223739
658,-1.167568,-7.578483,-7.965112,-35.098110,16.291067,0.615853,-147.415070,4.054622,-120.953819,0.167703,-0.464054,0.839581,-0.227229
659,-0.657108,-7.219600,-7.680014,-35.805038,12.179547,-3.473825,-147.343689,3.710342,-121.076553,0.165253,-0.463833,0.839606,-0.229374
660,-0.764551,-6.289313,-7.239358,-43.141525,13.354149,-13.087431,-147.558380,3.230583,-120.997894,0.161060,-0.465796,0.839246,-0.229697
661,-0.709375,-5.729917,-7.027939,-55.678120,7.736449,-15.923998,-148.318146,2.802001,-120.721565,0.155396,-0.469813,0.839199,-0.225549
662,-0.257303,-5.217595,-6.742933,-53.754265,7.028244,-18.477020,-149.381073,2.307693,-120.318832,0.148200,-0.475222,0.839108,-0.219314
663,-0.326578,-4.630507,-6.677234,-51.452835,6.132746,-24.257542,-150.524323,1.700000,-119.783928,0.140011,-0.481810,0.838421,-0.212853
664,-0.583570,-3.733237,-6.898484,-64.786880,4.113183,-28.873083,-152.264328,1.275269,-119.082298,0.130806,-0.489814,0.838168,-0.201116
665,-0.130115,-3.354325,-6.859327,-75.460114,3.209193,-26.560915,-154.744888,0.886449,-118.319473,0.118549,-0.498779,0.838674,-0.183825
666,0.000487,-3.056940,-6.710397,-75.656242,5.081867,-26.750290,-157.396622,0.331590,-117.565544,0.103997,-0.507747,0.838915,-0.166128
667,-0.149808,-2.589842,-7.028604,-80.161812,2.384052,-29.438984,-160.173630,-0.127423,-116.738029,0.089354,-0.516779,0.838630,-0.147155
668,0.281407,-2.114408,-7.107686,-87.320290,0.876829,-27.975744,-163.295822,-0.550503,-115.846031,0.073111,-0.526011,0.837968,-0.125603
669,0.345875,-1.821885,-7.041765,-88.156784,1.808976,-28.546890,-166.548996,-1.083011,-114.935379,0.055064,-0.534984,0.836654,-0.103780
670,-0.143588,-1.607981,-7.289981,-77.781563,0.385270,-27.309418,-169.518204,-1.310512,-114.023956,0.040178,-0.543028,0.834654,-0.082813
671,-0.179735,-1.143758,-7.598760,-77.265251,-1.650370,-27.261805,-172.289566,-1.152364,-113.129395,0.028672,-0.550285,0.832205,-0.061634
672,-0.125582,-0.867602,-7.413570,-83.421822,-1.110236,-24.339424,-175.153275,-0.923081,-112.279991,0.016875,-0.556932,0.829442,-0.039595
673,-0.438687,-0.793330,-7.420509,-79.371941,-1.904314,-19.820944,-177.861206,-0.544435,-111.558296,0.006568,-0.562353,0.826673,-0.018104
674,-0.337683,-0.377595,-7.647395,-73.270645,-3.066461,-14.370168,179.707123,-0.042696,-111.007996,-0.001755,-0.566346,0.824163,0.001895
675,-0.225964,0.230962,-7.670405,-77.303909,-3.469379,-10.225718,177.156601,0.357227,-110.615990,-0.011559,-0.569050,0.821922,0.022174
676,-0.155749,0.587854,-7.771186,-72.077065,-3.876112,-3.426208,174.500351,0.643171,-110.407669,-0.022773,-0.570214,0.820075,0.042595
677,-0.001221,0.903546,-8.072423,-51.950897,-4.767305,0.345892,172.296707,0.802016,-110.377289,-0.032613,-0.569959,0.818893,0.059137
678,0.163517,1.191268,-8.509095,-33.310577,-4.648974,1.620149,170.808197,0.805593,-110.430687,-0.039956,-0.569108,0.818320,0.069805
679,0.091656,1.275500,-8.888491,-19.177202,-4.005477,1.833935,169.976776,0.747021,-110.507149,-0.044452,-0.568222,0.818199,0.075480
680,0.127386,1.276216,-9.154275,-3.329432,-3.714587,0.984143,169.782349,0.694889,-110.572136,-0.045745,-0.567651,0.818417,0.076636
681,-0.029088,1.365539,-9.523046,9.104348,-3.486373,-2.195759,170.240280,0.666253,-110.568939,-0.043683,-0.567835,0.818715,0.073222
682,-0.110505,1.457334,-9.656447,11.649830,-3.295281,-2.319317,170.895523,0.728303,-110.510460,-0.040027,-0.568527,0.818803,0.068826
683,-0.344101,1.713303,-9.643689,8.274229,-3.312906,-4.162766,171.184570,1.002677,-110.421371,-0.036683,-0.569403,0.818412,0.068091
684,-0.422071,1.717920,-9.601975,8.561099,-3.807600,-2.014527,171.199081,1.457707,-110.341621,-0.033407,-0.570203,0.817815,0.070221
685,-0.552568,1.616294,-9.750517,8.756652,-4.059975,0.399185,171.261932,1.966737,-110.339355,-0.029457,-0.570478,0.817594,0.072297
686,-0.458228,1.643576,-9.701029,0.353916,-4.073796,2.455913,171.237701,2.378356,-110.412033,-0.026588,-0.570139,0.817729,0.074527
687,-0.579295,1.729699,-9.719814,-13.224794,-3.622912,3.465993,170.838318,2.628453,-110.537178,-0.026701,-0.569266,0.817948,0.078644
688,-0.546062,1.876473,-9.809690,-24.693119,-3.505911,6.282818,170.023178,2.804904,-110.726303,-0.029347,-0.567802,0.818199,0.085380
689,-0.432794,2.107549,-9.862038,-36.509609,-2.689603,6.232514,168.773209,2.876942,-110.961807,-0.034828,-0.565809,0.818336,0.094726
690,-0.387109,2.382545,-9.601927,-47.197258,-1.817994,5.579557,167.088348,2.851593,-111.183243,-0.043119,-0.563639,0.817964,0.106707
691,-0.420146,2.635218,-9.441401,-45.578514,0.184337,3.890516,165.220306,2.779622,-111.356972,-0.052634,-0.561565,0.817027,0.119756
692,-0.369758,2.594793,-10.043628,-31.624723,1.744189,1.931359,163.790680,2.656135,-111.447411,-0.060417,-0.560110,0.816018,0.129389
693,-0.196589,2.794439,-9.908157,-14.167889,5.086707,-0.844103,163.072281,2.407626,-111.428757,-0.065725,-0.559616,0.815319,0.133290
694,-0.278371,1.959936,-10.415010,7.244608,8.154627,3.108185,163.350006,2.042278,-111.384338,-0.067030,-0.559743,0.815733,0.129518
695,-0.356227,1.029985,-11.847871,10.969234,7.201364,7.987992,164.691711,1.676252,-111.454399,-0.063017,-0.559667,0.817818,0.118218
696,0.039948,1.072238,-11.932363,-1.700919,6.758068,8.531182,166.107529,1.256493,-111.623520,-0.058949,-0.558853,0.820330,0.106149
697,-0.097139,1.550974,-10.241342,-19.198153,6.943563,10.313550,166.652618,0.810806,-111.853302,-0.059287,-0.557125,0.822227,0.100198
698,-0.438632,1.608047,-9.438859,-37.881653,3.754035,14.924760,166.218506,0.602292,-112.210297,-0.062575,-0.554158,0.823704,0.102497
699,-0.291300,2.682710,-8.293076,-60.671509,0.038919,12.779063,164.544006,0.606536,-112.643326,-0.070202,-0.550078,0.824200,0.114808
700,0.026970,3.816246,-6.694252,-64.236038,-0.681506,11.025802,161.396713,0.529086,-113.039551,-0.085363,-0.545012,0.822689,0.137326
701,-0.168370,3.696693,-6.680286,-51.022022,-3.234383,13.690138,158.053375,0.442776,-113.460831,-0.101251,-0.539160,0.820402,0.161233
702,0.164400,3.761614,-7.556236,-37.025066,-4.641055,11.718798,155.720551,0.350945,-113.909187,-0.112165,-0.533647,0.819139,0.177910
703,0.545429,3.805491,-7.886832,-25.843555,-2.731984,5.887455,154.323120,0.020326,-114.223206,-0.120512,-0.529463,0.818716,0.186684
704,0.492043,3.870070,-8.281632,-13.189339,0.415067,-0.518920,153.623917,-0.393255,-114.314278,-0.126539,-0.527373,0.818423,0.189868
705,0.272454,3.925491,-8.074385,-4.532405,4.589806,-6.065011,153.390305,-0.678427,-114.176735,-0.129876,-0.527608,0.817703,0.190064
706,0.018490,4.491258,-7.972824,-0.683274,8.806175,-10.836473,153.162857,-0.797036,-113.822639,-0.132357,-0.529668,0.815816,0.190731
707,-0.114768,4.587710,-7.961971,0.578227,11.218059,-9.548925,152.811020,-0.819005,-113.364243,-0.134910,-0.532477,0.813127,0.192594
708,-0.463750,4.933167,-7.326108,7.524008,9.599019,-6.148489,152.366119,-0.695759,-112.965828,-0.136786,-0.534989,0.810382,0.195850
709,-0.537931,4.185617,-8.325036,16.021479,5.530128,0.713899,152.418503,-0.421182,-112.765076,-0.134948,-0.536952,0.809226,0.196531
710,-0.473365,4.408941,-8.759761,23.117634,1.197428,6.642542,153.176483,-0.158720,-112.820229,-0.129446,-0.537889,0.810478,0.192471
711,-0.230271,4.535357,-7.469522,35.114792,-2.241917,10.830463,153.939087,0.009705,-113.083809,-0.124238,-0.537146,0.812796,0.188152
712,-0.158284,3.703054,-8.590924,45.423382,-8.067155,13.567577,155.182022,0.142945,-113.520943,-0.116770,-0.535559,0.816700,0.180398
713,0.033023,3.754495,-9.358667,47.973579,-7.916275,11.821822,157.068924,0.252558,-114.013084,-0.106432,-0.534043,0.821755,0.167898
714,0.206324,4.452761,-7.848101,46.113777,-0.658398,8.748865,158.421722,0.145032,-114.387032,-0.100378,-0.532424,0.825518,0.158012
715,0.121084,3.868408,-8.727469,52.138203,-0.038127,4.429289,159.537369,-0.065102,-114.600525,-0.096429,-0.531561,0.828186,0.149170
716,0.109572,4.028913,-8.811802,53.681816,2.802072,0.387289,160.925903,-0.219694,-114.663132,-0.091024,-0.532048,0.830343,0.138454
717,0.083814,4.122014,-7.472862,62.278843,3.878145,-1.373536,162.049545,-0.373763,-114.611008,-0.086980,-0.533115,0.831529,0.129549
718,0.483678,3.351396,-6.933960,79.309937,1.594975,-1.138203,163.384048,-0.656381,-114.541512,-0.082890,-0.534291,0.832841,0.118487
719,0.094189,3.038366,-6.489860,106.876480,-4.272665,-1.307287,165.538605,-0.796688,-114.513344,-0.073877,-0.535826,0.834866,0.102132
720,0.235939,1.802693,-4.269692,139.070938,-7.319200,3.032563,168.655472,-0.745424,-114.578697,-0.058857,-0.537198,0.837620,0.079664
721,0.057398,-0.696575,-5.071818,177.715439,-14.685707,7.590717,174.537491,-0.529599,-114.826202,-0.029553,-0.537775,0.841728,0.037663
722,-0.474353,-2.380159,-5.862372,210.487534,-19.867844,7.293167,-176.394012,0.321502,-115.091766,0.019250,-0.536282,0.843448,-0.025044
723,-1.011598,-5.707901,-7.927601,229.514923,-28.920048,12.998594,-165.835739,1.766057,-115.214241,0.078956,-0.529967,0.838871,-0.095902
724,-0.458954,-8.716887,-9.655793,227.246597,-37.165184,14.899731,-154.994186,3.275432,-115.140366,0.139599,-0.518112,0.827014,-0.167690
725,-1.154602,-10.188267,-11.084501,206.681107,-34.283451,8.365367,-145.259811,4.566724,-114.764023,0.192825,-0.504026,0.809645,-0.230761
726,-1.149004,-11.276021,-11.310456,173.287704,-29.033312,5.110157,-137.337921,5.560523,-114.165909,0.235370,-0.490789,0.790618,-0.280445
728,-0.876203,-11.611275,-10.100425,130.472610,-20.112381,1.492759,-131.290878,6.045193,-113.583748,0.265732,-0.480057,0.773080,-0.318245
729,-0.826281,-10.484625,-8.148321,91.126808,-8.363409,-4.674866,-126.997856,6.022492,-113.144333,0.284710,-0.472759,0.758769,-0.345989
730,-1.444576,-9.751544,-6.804753,60.773399,-0.187286,-8.439824,-124.122978,5.834419,-112.875618,0.296150,-0.467906,0.748396,-0.365052
731,-0.893283,-9.353283,-6.001448,38.361771,-1.136461,-6.148055,-122.250710,5.622664,-112.700172,0.303011,-0.464928,0.741195,-0.377697
732,-0.864322,-8.956098,-5.578282,19.649933,-2.942807,-6.313494,-121.164925,5.354656,-112.524521,0.306331,-0.464175,0.736318,-0.385408
733,-0.905135,-8.843640,-5.798359,8.610810,-5.039136,-7.043255,-120.775185,5.151066,-112.305412,0.307390,-0.465302,0.733687,-0.388213
734,-0.812279,-8.796948,-5.782323,-0.593577,-5.714797,-9.556724,-120.885460,4.936174,-112.033119,0.306533,-0.468147,0.732494,-0.387721
735,-0.455110,-8.331184,-5.589668,-7.967150,-5.311291,-10.999517,-121.322426,4.559019,-111.725014,0.303444,-0.472685,0.731897,-0.385768
736,-0.402276,-7.786760,-5.213530,-9.735980,-2.615615,-13.764153,-121.911407,4.018506,-111.419327,0.298672,-0.478172,0.731441,-0.383590
737,-0.315965,-7.332741,-4.825487,-5.203758,-0.914942,-14.841030,-122.369392,3.409672,-111.130554,0.293927,-0.483404,0.730435,-0.382614
738,0.058777,-7.157953,-4.481809,3.374625,0.164935,-13.669202,-122.451080,2.678998,-110.868996,0.289899,-0.487890,0.727983,-0.384659
739,0.160353,-6.475094,-4.198860,14.013311,0.805670,-10.581362,-122.164772,1.881000,-110.668434,0.286819,-0.491275,0.724351,-0.389488
740,0.498247,-6.805876,-4.785553,25.383356,-1.069554,-5.932903,-121.705910,1.115102,-110.529839,0.284485,-0.493714,0.720400,-0.395396
741,0.266553,-7.516551,-5.992399,31.990408,0.499049,-5.156899,-121.318855,0.496361,-110.442741,0.282598,-0.495489,0.717204,-0.400310
742,0.105169,-8.318765,-6.676464,31.289837,4.773877,-5.620286,-121.095200,0.078453,-110.437767,0.280977,-0.496445,0.715383,-0.403512
743,-0.054167,-8.629971,-7.198115,25.408129,4.807618,-4.178518,-121.090096,-0.193971,-110.494827,0.279097,-0.497036,0.714945,-0.404863
744,-0.121193,-9.266364,-7.623462,16.120249,4.168084,-3.194022,-121.390892,-0.320116,-110.558006,0.276779,-0.497814,0.715971,-0.403684
745,-0.517941,-9.351158,-7.242084,5.713125,4.318509,-2.886298,-121.882423,-0.270897,-110.622543,0.274724,-0.498421,0.718096,-0.400550
746,-0.271670,-8.692621,-6.329237,-1.230290,-0.743794,1.885025,-122.421158,-0.051793,-110.663300,0.273616,-0.498695,0.720675,-0.396315
747,-0.225673,-8.370603,-5.968009,-3.866450,-4.827712,5.718999,-122.928192,0.281482,-110.653839,0.273540,-0.498816,0.723169,-0.391645
748,-0.240956,-8.420712,-5.512309,-1.769416,-2.951256,8.869182,-123.217514,0.695858,-110.678650,0.274807,-0.497927,0.725230,-0.388061
749,-0.437850,-8.477179,-5.391511,3.312075,-0.852111,10.267734,-123.165726,1.166096,-110.799637,0.277584,-0.495413,0.726664,-0.386617
750,-0.632436,-8.532217,-5.086548,8.190757,2.499086,11.208044,-122.659981,1.845633,-111.008957,0.283322,-0.490474,0.727407,-0.387353
751,-0.771137,-8.782031,-5.048114,11.823424,6.811470,12.888616,-121.903046,2.537598,-111.338089,0.289755,-0.484030,0.727803,-0.389948
752,-0.867103,-8.604367,-5.025807,14.582228,8.164041,15.394025,-121.229897,3.096473,-111.784676,0.294539,-0.477449,0.728629,-0.392923
753,-0.872199,-8.520931,-5.182145,16.096453,5.537146,15.480695,-120.656166,3.673097,-112.239151,0.298938,-0.470944,0.729815,-0.395244
754,-0.722696,-8.408225,-5.015329,16.316111,2.643574,15.192997,-120.155540,4.187818,-112.615616,0.302877,-0.465302,0.730752,-0.397193
755,-0.740368,-8.252842,-5.065659,17.949863,-0.252725,12.786843,-119.695122,4.615026,-112.889465,0.306431,-0.460709,0.731188,-0.399012
756,-0.732164,-8.423312,-4.932078,21.434401,-3.176331,8.788903,-119.168549,4.948298,-113.025780,0.310122,-0.457144,0.730617,-0.401301
757,-0.944614,-8.466953,-4.595653,25.781771,-5.895584,5.953829,-118.379250,5.255783,-113.010887,0.315203,-0.453890,0.728449,-0.404961
758,-1.116659,-8.464633,-4.203652,28.744463,-6.454483,5.621764,-117.307655,5.647211,-112.902908,0.322203,-0.450049,0.725070,-0.409774
759,-1.168585,-8.651281,-3.869404,30.897722,-5.686010,7.713054,-116.003647,6.103791,-112.788940,0.330470,-0.445218,0.720939,-0.415714
760,-0.931269,-8.610671,-3.481031,29.525236,-3.278479,10.592668,-114.576180,6.502164,-112.738335,0.338552,-0.439732,0.716414,-0.422811
761,-1.098965,-8.362617,-3.330048,25.286945,0.545255,11.926253,-113.275810,6.868227,-112.805946,0.345428,-0.433895,0.712668,-0.429556
762,-0.692060,-8.346533,-3.238953,19.143665,3.598716,12.769406,-112.274727,7.104503,-112.998100,0.349860,-0.428658,0.710156,-0.435349
763,-0.693354,-8.404301,-3.157021,14.701409,5.854555,10.306454,-111.527153,7.102718,-113.267105,0.351605,-0.424712,0.708296,-0.440807
764,-0.522268,-8.343403,-3.407837,13.282627,6.703732,4.225151,-111.037498,6.874840,-113.548393,0.350995,-0.422465,0.706910,-0.445650
765,-0.813339,-8.395793,-3.447821,12.900494,7.371309,-3.941766,-110.742836,6.472650,-113.786964,0.348796,-0.421851,0.705691,-0.449870
766,-0.678579,-8.386423,-3.407560,11.871143,7.599236,-10.246553,-110.501793,5.933999,-113.957062,0.345858,-0.422427,0.704085,-0.454095
767,-0.855784,-8.167907,-3.531305,6.841815,8.861625,-15.458351,-110.448250,5.284147,-114.091515,0.341704,-0.424274,0.702802,-0.457493
768,-0.636760,-8.284878,-3.278100,-0.233701,11.271374,-19.284307,-110.581818,4.529154,-114.226151,0.336215,-0.427118,0.701992,-0.460147
769,-1.072391,-8.251869,-3.157144,-4.174135,13.715809,-21.479727,-110.753204,3.816242,-114.384094,0.330713,-0.429722,0.701511,-0.462439
770,-0.725509,-8.728790,-3.374716,-11.314185,14.524212,-20.448780,-111.066154,3.170932,-114.578560,0.324904,-0.432187,0.701899,-0.463670
771,-0.238739,-9.815975,-2.858564,-14.694158,14.624993,-20.498014,-111.250168,2.288836,-114.771294,0.318137,-0.435267,0.701155,-0.466598
772,0.031501,-10.847326,-2.455646,4.897045,13.940176,-20.305614,-110.644287,1.235940,-114.939606,0.313416,-0.437022,0.696601,-0.474899
773,-0.334544,-11.469407,-2.507712,32.218212,12.989609,-18.655252,-109.052200,0.355261,-115.116653,0.313443,-0.435346,0.688248,-0.488407
774,-0.110263,-12.186744,-2.110096,56.782276,12.365365,-15.031029,-106.551262,-0.275133,-115.335220,0.318183,-0.429890,0.676483,-0.506285
775,-0.191935,-12.037506,-1.472420,85.027290,12.028004,-11.507241,-103.095848,-0.728097,-115.613197,0.327096,-0.420570,0.660608,-0.528892
776,-0.551373,-11.592293,-1.481185,108.961960,10.494117,-6.195523,-98.969368,-0.820370,-115.920616,0.340022,-0.407240,0.641951,-0.553570
777,-0.726704,-11.106568,-1.204970,114.574120,8.841083,-2.735164,-94.747116,-0.542819,-116.201508,0.354896,-0.391528,0.622963,-0.576777
778,-0.545157,-10.441210,-0.862808,111.497269,5.741608,0.056893,-90.820831,-0.131034,-116.410904,0.369186,-0.375898,0.604867,-0.597109
779,-0.782482,-9.844118,-0.432770,104.266876,2.917000,5.060075,-87.326561,0.432586,-116.525047,0.382748,-0.360855,0.588611,-0.613861
780,-0.333648,-9.962908,-0.050430,92.936852,-2.112443,12.729899,-84.313759,1.087003,-116.494690,0.395513,-0.347206,0.574383,-0.626978
781,0.192079,-9.642816,0.373011,86.425110,-5.544270,16.967148,-81.697159,1.520223,-116.309280,0.406455,-0.336547,0.560856,-0.637943
782,-0.238553,-9.196526,0.447665,83.033043,-8.147504,19.572672,-79.388374,1.953104,-116.003548,0.416906,-0.327266,0.548521,-0.646693
783,-0.436174,-8.953605,0.916485,77.702614,-8.586820,20.705153,-77.293030,2.601991,-115.613724,0.427997,-0.317633,0.537811,-0.653214
784,0.048784,-8.973825,1.316120,71.289169,-10.308108,20.853998,-75.319572,3.080119,-115.165443,0.438098,-0.309451,0.526981,-0.659242
785,-0.270789,-8.528625,1.498954,71.615753,-11.173483,18.162399,-73.439613,3.367394,-114.679329,0.447176,-0.302696,0.515857,-0.665057
786,-1.273047,-7.722058,1.514557,70.933365,-13.692158,24.366684,-71.613846,4.185293,-114.101944,0.458727,-0.293145,0.506732,-0.668475
787,-1.098342,-7.883518,1.818636,60.631321,-14.867494,34.980888,-69.981384,5.511642,-113.351311,0.472592,-0.281760,0.500240,-0.668601
788,-0.422840,-8.285156,1.667223,45.466625,-17.453474,31.804090,-68.936813,6.423823,-112.517685,0.483577,-0.275448,0.495538,-0.666876
789,-0.531095,-8.141038,1.770362,23.092335,-21.939751,24.598337,-68.704239,6.757547,-111.668915,0.490348,-0.276079,0.493407,-0.663241
790,-0.842377,-8.033905,1.933409,-3.003386,-24.051476,25.604111,-69.213135,7.055827,-110.756645,0.495505,-0.280387,0.495258,-0.656184
791,-1.053595,-9.175452,2.390389,-9.842583,-21.832449,31.021990,-70.106071,7.584598,-109.799759,0.500760,-0.285226,0.499995,-0.646444
792,-1.432494,-9.320962,2.304683,-4.775922,-25.645229,25.299679,-70.912453,8.219746,-108.820168,0.506646,-0.289253,0.504486,-0.636503
793,-2.118281,-9.056183,2.062910,8.057721,-32.994473,30.384119,-71.380402,9.107875,-107.680901,0.515103,-0.291078,0.507587,-0.626337
794,-1.970593,-9.125998,1.637969,18.897757,-35.307793,33.390846,-71.536514,10.198036,-106.373482,0.525857,-0.291123,0.509312,-0.615892
795,-1.439004,-9.579922,2.405668,25.722147,-33.167675,24.835114,-71.279610,10.818059,-105.081749,0.535678,-0.291999,0.507064,-0.608829
796,-1.161960,-9.368847,2.695794,27.479256,-36.553932,8.733080,-70.566437,10.622440,-103.854721,0.543314,-0.295180,0.499362,-0.606891
797,-1.242287,-9.301786,3.243550,37.819515,-36.026604,2.620874,-69.432770,9.952675,-102.672195,0.550172,-0.298789,0.487561,-0.608539
798,-0.973049,-9.319775,4.464948,48.468998,-27.416971,-7.261890,-67.554214,9.026574,-101.667465,0.557259,-0.299331,0.471021,-0.614819
799,-0.911410,-9.671991,5.047951,70.404442,-22.242617,-13.802988,-64.892189,7.855819,-100.968864,0.564052,-0.295974,0.449699,-0.626112
800,-1.518981,-9.276553,4.397583,100.028992,-21.391867,-14.521196,-61.686485,6.889992,-100.498405,0.571708,-0.287582,0.426452,-0.639207
801,-1.567152,-8.614238,4.242005,110.831947,-16.805939,-16.832138,-58.247849,6.290722,-100.217522,0.579894,-0.274890,0.403605,-0.652121
802,-1.030040,-8.347575,4.446343,103.906914,-13.208779,-23.394571,-55.003414,5.591813,-100.196213,0.585589,-0.262673,0.381580,-0.665195
803,-0.672168,-8.002002,4.658571,95.891472,-11.847695,-26.669769,-52.185490,4.587472,-100.405525,0.587903,-0.253679,0.360660,-0.678190
804,-0.788570,-7.016431,5.783871,90.700775,-5.893639,-29.735708,-49.285084,3.613153,-100.794930,0.589243,-0.243582,0.339364,-0.691587
805,-0.369485,-6.992138,6.458880,86.266136,-1.468749,-33.343193,-46.157269,2.693220,-101.399902,0.589658,-0.231483,0.316950,-0.705876
806,0.419969,-6.533280,7.288659,88.570854,2.971653,-43.017548,-42.913094,1.437154,-102.318878,0.587218,-0.220301,0.292214,-0.721979
807,1.017477,-5.391286,8.056122,92.499969,9.291997,-54.887478,-39.138035,-0.210039,-103.695335,0.581588,-0.208270,0.262321,-0.741327
808,1.020824,-4.582347,8.651144,86.897377,12.427494,-61.558605,-34.948406,-1.853094,-105.504318,0.573392,-0.194001,0.229660,-0.762130
809,0.749854,-4.259989,8.842739,76.570572,12.931991,-63.611240,-30.962364,-3.112183,-107.544853,0.563495,-0.178802,0.199774,-0.781405
810,0.396432,-3.050011,9.462647,70.111061,17.207331,-66.970428,-27.100719,-3.831062,-109.765251,0.552522,-0.161287,0.172851,-0.799267
811,0.114640,-2.144928,9.650759,65.334869,19.386208,-62.711475,-23.100061,-3.968479,-112.072800,0.541275,-0.139927,0.147012,-0.815983
812,-0.069264,-2.041631,10.171005,56.224613,17.946672,-49.963413,-19.427048,-3.636874,-114.129570,0.531132,-0.117937,0.124529,-0.829748
813,-0.203407,-2.006465,10.613746,62.322872,15.801112,-35.016315,-16.180550,-3.009484,-115.701134,0.523523,-0.096874,0.105278,-0.839914
814,0.029302,-0.979366,10.124405,77.561073,13.360579,-24.708263,-12.678420,-2.346790,-116.822716,0.518579,-0.075162,0.083374,-0.847629
815,0.507424,-0.735340,9.976822,77.080643,6.732739,-14.019233,-8.969538,-2.003763,-117.554405,0.515532,-0.055434,0.057822,-0.853118
816,0.595642,-0.828964,9.977797,72.475029,1.156388,-8.538384,-5.728832,-2.032821,-117.973511,0.513752,-0.040928,0.033694,-0.856299
817,0.435337,-0.430290,9.519423,74.819763,-0.718094,-4.825985,-2.838820,-2.156257,-118.216759,0.512767,-0.028857,0.011596,-0.857964
818,0.405388,0.167209,8.942570,70.891319,-1.382207,-0.674055,0.002308,-2.251848,-118.325943,0.512499,-0.016862,-0.010090,-0.858463
819,0.681838,-0.280044,9.561745,56.925278,-2.066575,2.246531,2.260379,-2.440679,-118.309395,0.512867,-0.008171,-0.027848,-0.857978
820,0.583546,-0.269395,10.079784,50.729733,-3.620866,0.014190,3.734276,-2.694457,-118.268272,0.513273,-0.003460,-0.040015,-0.857285
821,0.303568,-0.213883,9.943708,41.456821,-6.590291,-2.097568,4.762449,-2.858683,-118.293800,0.513126,-0.000095,-0.048439,-0.856945
822,0.311701,-0.159013,9.574027,30.376577,-8.756454,-4.903621,5.344010,-2.991991,-118.401070,0.512349,0.001461,-0.053383,-0.857115
823,0.313963,-0.099891,9.652257,20.721231,-8.668765,-9.945141,5.531155,-3.136019,-118.639687,0.510595,0.001104,-0.055426,-0.858032
824,-0.253083,0.225208,9.626750,17.231127,-6.345910,-13.186213,5.594966,-3.013138,-119.016312,0.507742,0.002128,-0.055366,-0.859726
825,-0.446689,0.518932,9.383114,14.351032,-3.795696,-12.482979,5.756203,-2.535250,-119.437302,0.504446,0.006233,-0.054491,-0.861699
826,-0.252372,0.757729,9.415967,11.474996,0.528976,-11.767581,5.993361,-1.977271,-119.832642,0.501285,0.011292,-0.053866,-0.863530
827,-0.388419,0.717087,9.908377,9.130172,5.336863,-12.581143,6.172687,-1.354445,-120.217407,0.498150,0.016598,-0.052557,-0.865337
828,-0.637642,0.866035,9.920979,9.425191,7.564722,-13.663321,6.311679,-0.555334,-120.622375,0.494764,0.023063,-0.050221,-0.867269
829,-0.573984,0.940517,9.811582,5.827913,6.804708,-14.307570,6.449358,0.253441,-121.055481,0.491114,0.029598,-0.047886,-0.869275
831,-0.585237,0.942077,9.629777,2.685467,7.222109,-14.458899,6.487837,0.953278,-121.504692,0.487375,0.034893,-0.045313,-0.871318
832,-0.680567,0.831702,9.887987,2.040681,7.187531,-12.104638,6.409503,1.601743,-121.919853,0.483932,0.039336,-0.042097,-0.873207
833,-0.731341,0.825405,10.027104,3.126016,4.868426,-9.114058,6.287758,2.162691,-122.254425,0.481148,0.042979,-0.038919,-0.874720
834,-0.561283,0.653941,10.023480,3.478615,2.183982,-7.292282,6.139149,2.518720,-122.522720,0.478977,0.044984,-0.036389,-0.875919
835,-0.479135,0.616347,9.879612,4.651874,0.713411,-6.236459,5.966126,2.665816,-122.754684,0.477198,0.045314,-0.034541,-0.876947
836,-0.481729,0.602417,10.044204,6.185258,-0.610990,-5.470532,5.840139,2.706961,-122.962372,0.475637,0.045043,-0.033486,-0.877849
837,-0.522459,0.567061,9.907138,6.475015,-2.170365,-5.455364,5.745147,2.701804,-123.162392,0.474144,0.044552,-0.032858,-0.878706
838,-0.288985,0.426850,9.854824,3.943092,-2.196551,-6.770781,5.569097,2.608031,-123.388580,0.472520,0.043042,-0.031982,-0.879687
839,-0.321624,0.434225,9.900970,-2.950090,-2.383309,-10.278922,5.204079,2.455621,-123.695534,0.470363,0.040288,-0.029919,-0.881045
840,-0.342346,0.347194,9.961771,-13.212497,-2.910170,-16.037817,4.550661,2.333060,-124.155785,0.467091,0.036561,-0.025547,-0.883084
841,-0.209796,0.217136,9.838795,-25.719616,-4.139076,-22.214808,3.497746,2.167396,-124.814934,0.462370,0.030887,-0.018287,-0.885960
842,-0.016089,0.017968,9.971591,-37.482147,-4.962613,-27.222910,2.025834,1.869766,-125.657379,0.456264,0.022585,-0.008275,-0.889519
843,-0.112926,-0.085371,9.920428,-39.599052,-5.334510,-28.707649,0.369211,1.525576,-126.599609,0.449242,0.013341,0.003104,-0.893305
844,-0.026457,-0.250844,9.734159,-39.666115,-3.771299,-26.902508,-1.228280,1.216274,-127.528450,0.442118,0.004782,0.014306,-0.896830
845,-0.000650,-0.428775,9.850965,-36.610725,-2.697907,-21.886822,-2.695682,0.930083,-128.337540,0.435759,-0.002945,0.024707,-0.899720
846,0.053298,-0.564375,9.918777,-28.302666,-0.132117,-14.858449,-3.892429,0.704742,-128.944870,0.430877,-0.009089,0.033294,-0.901750
847,0.153257,-0.605996,9.799704,-23.204620,0.588702,-10.386021,-4.767319,0.515055,-129.362381,0.427449,-0.013727,0.039516,-0.903071
848,0.050191,-0.681182,9.933212,-25.670118,0.787799,-7.839305,-5.514229,0.370553,-129.664062,0.424920,-0.017533,0.044909,-0.903946
849,0.211534,-0.711972,10.118291,-17.192823,1.444686,-2.935048,-6.093512,0.251114,-129.843964,0.423357,-0.020546,0.049068,-0.904400
850,0.357527,-0.695456,9.863749,-7.468444,0.100582,1.660914,-6.297591,0.047700,-129.865585,0.423062,-0.022896,0.049932,-0.904434
851,0.312263,-0.607569,9.823077,3.613823,-0.900904,6.761868,-5.920476,-0.303599,-129.724716,0.424102,-0.024333,0.045628,-0.904137
852,0.421143,-0.597710,9.921673,27.794771,0.316372,17.539267,-4.934576,-0.616368,-129.325912,0.427330,-0.023279,0.036608,-0.903054
853,0.495895,-0.360184,9.814264,54.138588,0.379003,28.267897,-3.269079,-0.806117,-128.574585,0.433491,-0.018711,0.022648,-0.900679
854,0.060993,-0.294292,9.773443,62.859177,1.304634,34.728592,-1.079661,-0.844648,-127.536156,0.441912,-0.010776,0.005193,-0.896979
855,-0.011703,-0.093460,10.104242,61.044025,4.381353,34.330326,1.092115,-0.669915,-126.386642,0.451003,-0.000920,-0.011142,-0.892452
856,-0.177903,0.181406,10.155896,56.158173,5.021577,30.562811,3.062850,-0.401540,-125.297264,0.459362,0.009167,-0.025347,-0.887840
857,-0.421295,0.515134,10.096597,39.812389,4.603432,22.151850,4.646379,-0.040618,-124.403831,0.465986,0.018591,-0.036023,-0.883863
858,-0.373836,0.687283,10.069341,20.466415,4.542515,13.417346,5.601410,0.346817,-123.793823,0.470364,0.025683,-0.041677,-0.881113
859,-0.160510,0.945767,10.068873,8.547087,2.372028,5.876145,6.030881,0.588062,-123.460121,0.472726,0.029428,-0.043903,-0.879623
860,-0.155554,1.038008,9.828104,6.734209,0.339787,3.791702,6.273508,0.666840,-123.294769,0.473897,0.031099,-0.045395,-0.878860
861,-0.041108,1.004189,9.804833,3.583030,-0.128710,3.246949,6.421839,0.650679,-123.177956,0.474759,0.031636,-0.046567,-0.878313
862,-0.078783,0.992686,9.844424,1.804742,-0.022168,3.260706,6.410496,0.588451,-123.071640,0.475605,0.031156,-0.046710,-0.877865
863,-0.092008,0.977369,9.836990,0.700565,-0.226808,3.286656,6.289969,0.543177,-122.965347,0.476472,0.030351,-0.045946,-0.877464
864,-0.040702,0.977305,9.888291,0.083170,-0.376590,3.262259,6.142778,0.478951,-122.859444,0.477349,0.029289,-0.045059,-0.877069
865,-0.042641,1.017388,9.883583,-0.802475,-0.674505,3.408781,6.025300,0.386570,-122.751572,0.478242,0.028135,-0.044519,-0.876647
866,-0.070564,1.045921,9.828784,-2.458247,-0.988985,3.118869,5.946329,0.323066,-122.646431,0.479092,0.027360,-0.044155,-0.876226
867,-0.013892,1.003841,9.864615,-4.995874,-1.217940,2.513083,5.820349,0.265312,-122.556808,0.479830,0.026426,-0.043412,-0.875888
868,0.009784,0.847640,9.897944,-5.537931,-0.882424,1.736405,5.583130,0.190541,-122.490005,0.480423,0.024885,-0.041898,-0.875682
869,-0.063604,0.880985,9.772298,-5.683347,-0.215641,0.930720,5.317060,0.159913,-122.447708,0.480814,0.023550,-0.039984,-0.875594
870,-0.023345,0.882395,9.780738,-7.197262,-0.114878,0.019736,5.067802,0.162170,-122.432564,0.480979,0.022527,-0.038067,-0.875616
871,0.067308,0.898325,9.865130,-8.891048,-0.151691,-1.143002,4.798059,0.125818,-122.451515,0.480897,0.021111,-0.036162,-0.875777
872,0.061522,0.823104,9.960156,-9.133651,0.171463,-3.112942,4.501107,0.071838,-122.521919,0.480429,0.019431,-0.034131,-0.876154
873,0.004087,0.874780,9.849457,-9.380684,0.001894,-5.812287,4.221555,0.052584,-122.669746,0.479349,0.018070,-0.032098,-0.876851
874,0.095285,0.688579,9.885045,-10.618097,-0.361508,-8.139305,3.907759,0.022389,-122.901901,0.477627,0.016466,-0.029856,-0.877901
875,0.041973,0.520532,9.983522,-9.538126,-0.456403,-8.975493,3.504197,-0.023333,-123.187134,0.475506,0.014366,-0.026991,-0.879181
876,-0.019849,0.442300,9.948963,-6.644075,-0.837927,-9.065519,3.124861,-0.034802,-123.488388,0.473240,0.012641,-0.024161,-0.880511
877,-0.041091,0.445890,9.836141,-4.818038,-1.478678,-8.165231,2.847185,-0.034335,-123.777222,0.471048,0.011442,-0.022054,-0.881757
878,0.012113,0.368606,9.975020,-3.951732,-1.998939,-6.218154,2.627732,-0.066803,-124.019508,0.469210,0.010247,-0.020521,-0.882789
