seq,ax,ay,az,wroll,wpitch,wyaw,roll,pitch,yaw
69,0.033767,-9.628616,0.219644,0.047996,0.075063,-0.002636,-88.693138,-0.200890,8.737771
71,0.031458,-9.632813,0.203701,-0.648968,0.078775,0.123093,-88.703148,-0.198824,8.735252
72,0.031337,-9.631775,0.202732,-0.619275,0.069510,0.120485,-88.724281,-0.194710,8.732873
73,0.030810,-9.623610,0.206440,-0.307481,0.059780,0.089076,-88.739723,-0.191171,8.730798
74,0.033952,-9.618765,0.208294,-0.113466,0.058297,-0.083043,-88.746727,-0.191027,8.728832
75,0.032708,-9.615183,0.207902,-0.079545,0.070296,-0.047437,-88.749931,-0.193154,8.726640
76,0.032850,-9.618544,0.209720,0.022454,0.066282,-0.040370,-88.750877,-0.194568,8.724333
78,0.034839,-9.614552,0.209145,0.012316,0.064512,-0.120763,-88.750290,-0.197205,8.722095
79,0.035765,-9.622668,0.211108,0.084609,0.071957,-0.141016,-88.748665,-0.201518,8.719727
80,0.033116,-9.625948,0.215285,0.251009,0.060600,0.003953,-88.743073,-0.203753,8.717468
81,0.031090,-9.624258,0.212714,0.088341,0.063932,0.110880,-88.737404,-0.201794,8.715436
82,0.028445,-9.622686,0.211698,0.009685,0.072018,0.217096,-88.735771,-0.196279,8.713291
83,0.025282,-9.629024,0.212860,0.039966,0.077411,0.325322,-88.734932,-0.187186,8.711000
85,0.024066,-9.624008,0.217527,0.256099,0.074720,0.320002,-88.729980,-0.176377,8.708701
86,0.028647,-9.628502,0.211715,-0.035581,0.079671,0.042762,-88.726295,-0.170276,8.706263
87,0.031415,-9.641807,0.215771,0.118146,0.061120,-0.124529,-88.724915,-0.171586,8.703886
88,0.032114,-9.643632,0.219042,0.251615,0.061050,-0.151686,-88.718742,-0.176143,8.701748
89,0.030408,-9.632727,0.218625,0.191720,0.048055,-0.049175,-88.711349,-0.179449,8.699856
90,0.031827,-9.628760,0.215991,0.022756,0.049701,-0.098925,-88.707771,-0.181880,8.698172
92,0.033231,-9.620566,0.218770,0.115982,0.036793,-0.143064,-88.705452,-0.185880,8.696639
93,0.033056,-9.617768,0.219845,0.146375,0.053006,-0.101122,-88.701073,-0.189915,8.695050
94,0.030017,-9.619713,0.216300,-0.045190,0.057662,0.063594,-88.699371,-0.190498,8.693191
95,0.035797,-9.624472,0.219187,0.078353,0.059922,-0.192359,-88.698807,-0.192599,8.691183
96,0.030718,-9.628534,0.217899,0.011042,0.062168,0.055198,-88.697319,-0.194839,8.689098
97,0.025779,-9.633876,0.216495,-0.063615,0.081038,0.286853,-88.698181,-0.189085,8.686842
99,0.026095,-9.631884,0.217581,-0.018910,0.064668,0.226356,-88.699554,-0.180479,8.684608
100,0.032263,-9.630232,0.220582,0.125320,0.058942,-0.108871,-88.697769,-0.178475,8.682592
101,0.028747,-9.632651,0.217269,-0.047395,0.070813,0.031704,-88.696465,-0.179712,8.680401
102,0.034123,-9.632887,0.218814,0.011475,0.074910,-0.191058,-88.697052,-0.182312,8.677913
103,0.036630,-9.633412,0.220066,0.081837,0.069952,-0.272586,-88.695488,-0.189983,8.675323
104,0.034192,-9.629508,0.219049,0.031771,0.085753,-0.105484,-88.693581,-0.196223,8.672585
106,0.031349,-9.628539,0.215620,-0.143640,0.079978,0.067968,-88.695427,-0.196785,8.669808
107,0.037004,-9.633065,0.218746,0.014273,0.077906,-0.176246,-88.697578,-0.198529,8.667136
108,0.034757,-9.635203,0.218710,0.017459,0.077485,-0.073334,-88.697037,-0.202629,8.664453
109,0.034707,-9.632406,0.219426,0.042048,0.078332,-0.049973,-88.696037,-0.204625,8.661809
110,0.034751,-9.633930,0.217863,-0.027546,0.075300,-0.033676,-88.695786,-0.205961,8.659219
111,0.039270,-9.630706,0.217215,-0.050530,0.073879,-0.234874,-88.697083,-0.210378,8.656631
113,0.035511,-9.627404,0.216898,-0.056192,0.076901,-0.039245,-88.698853,-0.214888,8.654015
114,0.035969,-9.626345,0.217386,-0.017052,0.072751,-0.016880,-88.700066,-0.215767,8.651501
115,0.035669,-9.633430,0.220289,0.118889,0.073725,0.011893,-88.698357,-0.215795,8.649057
116,0.037525,-9.631052,0.222246,0.191231,0.076708,-0.078688,-88.693184,-0.216851,8.646524
117,0.030924,-9.633599,0.225386,0.291313,0.087036,0.222444,-88.685127,-0.214393,8.643851
118,0.033318,-9.632397,0.224462,0.186400,0.080756,0.092543,-88.677155,-0.209080,8.641176
120,0.033062,-9.624821,0.226490,0.228058,0.087847,0.052296,-88.670235,-0.206601,8.638424
121,0.035476,-9.616518,0.225551,0.136877,0.090682,-0.061636,-88.664154,-0.206688,8.635446
122,0.034713,-9.621078,0.224704,0.053209,0.085084,-0.021595,-88.660973,-0.208006,8.632485
123,0.039670,-9.620659,0.221298,-0.120712,0.077978,-0.220867,-88.662079,-0.211982,8.629672
124,0.035992,-9.621788,0.219667,-0.174135,0.079212,-0.017529,-88.666985,-0.215893,8.626960
125,0.036753,-9.622951,0.217875,-0.226163,0.077401,-0.020452,-88.673653,-0.216466,8.624336
127,0.035921,-9.629271,0.215223,-0.296311,0.071998,0.008291,-88.682350,-0.216611,8.621842
128,0.036776,-9.619263,0.212565,-0.339794,0.075516,-0.019789,-88.692940,-0.216746,8.619378
129,0.033837,-9.621714,0.219386,0.044757,0.079988,0.125036,-88.697861,-0.214933,8.616828
130,0.034336,-9.623101,0.219399,0.077694,0.079303,0.086342,-88.695801,-0.211351,8.614254
131,0.034123,-9.632541,0.218451,0.008918,0.072592,0.076594,-88.694351,-0.208578,8.611786
132,0.036309,-9.626444,0.218839,0.012353,0.074499,-0.032006,-88.693985,-0.207780,8.609351
134,0.037793,-9.632333,0.221530,0.119080,0.067177,-0.118441,-88.691795,-0.210232,8.606935
135,0.040901,-9.629612,0.219411,0.007838,0.076229,-0.245267,-88.689667,-0.216237,8.604406
136,0.041170,-9.632742,0.220508,0.033054,0.078625,-0.200979,-88.688980,-0.223614,8.601655
137,0.043489,-9.626186,0.219451,-0.008001,0.091047,-0.247350,-88.688553,-0.231019,8.598657
138,0.040021,-9.619493,0.220699,0.066557,0.088434,-0.049036,-88.687561,-0.235889,8.595554
139,0.035628,-9.612718,0.219399,-0.001171,0.099602,0.182504,-88.686447,-0.233594,8.592469
141,0.033236,-9.616871,0.214665,-0.228129,0.096188,0.271303,-88.690262,-0.225957,8.589380
142,0.031984,-9.608024,0.218117,-0.037947,0.099953,0.271716,-88.694687,-0.216835,8.586318
143,0.026246,-9.612300,0.221277,0.133593,0.088101,0.449679,-88.693085,-0.204743,8.583460
144,0.025722,-9.615353,0.218984,0.019080,0.095302,0.384357,-88.690529,-0.190776,8.580721
145,0.027303,-9.623601,0.217103,-0.084809,0.090968,0.210084,-88.691620,-0.180801,8.577845
146,0.028066,-9.621698,0.220607,0.081694,0.084443,0.091847,-88.691658,-0.175703,8.575036
147,0.029836,-9.629053,0.212943,-0.258234,0.079188,-0.038098,-88.694595,-0.174744,8.572330
148,0.030242,-9.623692,0.212818,-0.233476,0.093926,-0.059571,-88.702782,-0.176307,8.569408
149,0.025644,-9.630058,0.213712,-0.143098,0.091516,0.155056,-88.709038,-0.174646,8.566355
150,0.023318,-9.629499,0.216561,0.039122,0.087987,0.253926,-88.710770,-0.167764,8.563517
151,0.022082,-9.621932,0.220137,0.216249,0.088571,0.261281,-88.706497,-0.159113,8.560768
152,0.019888,-9.617155,0.226474,0.461466,0.091541,0.309191,-88.695206,-0.149540,8.557983
153,0.015104,-9.617251,0.225785,0.350473,0.085307,0.448049,-88.681664,-0.136854,8.555326
154,0.021679,-9.615731,0.225540,0.235005,0.077658,0.071389,-88.671898,-0.128137,8.552810
155,0.027897,-9.616530,0.227462,0.245265,0.080395,-0.267024,-88.663887,-0.131336,8.550102
156,0.029807,-9.621867,0.224857,0.066348,0.066329,-0.329153,-88.658691,-0.141212,8.547425
157,0.030028,-9.618155,0.222443,-0.067391,0.070490,-0.268560,-88.658707,-0.151118,8.544912
158,0.038228,-9.620685,0.221512,-0.109981,0.057424,-0.555456,-88.661652,-0.164797,8.542460
159,0.033079,-9.628010,0.219989,-0.160253,0.068104,-0.235675,-88.666153,-0.177931,8.540061
160,0.028914,-9.626255,0.216053,-0.308036,0.072724,0.033085,-88.673958,-0.181251,8.537637
161,0.027435,-9.628287,0.212415,-0.410851,0.089731,0.127287,-88.685928,-0.178517,8.534991
162,0.028710,-9.629744,0.217021,-0.123168,0.087344,0.037896,-88.694817,-0.175698,8.532104
163,0.029140,-9.631042,0.213296,-0.230038,0.081542,-0.002247,-88.700691,-0.175039,8.529303
164,0.036128,-9.625899,0.214135,-0.152607,0.073082,-0.322741,-88.707054,-0.180396,8.526603
165,0.035519,-9.625674,0.214605,-0.079133,0.071781,-0.252413,-88.710907,-0.189926,8.523973
166,0.035726,-9.626925,0.218227,0.110107,0.064654,-0.186956,-88.710373,-0.197196,8.521535
167,0.034831,-9.633044,0.211235,-0.216374,0.059597,-0.079334,-88.712151,-0.201586,8.519365
168,0.032203,-9.629339,0.215397,-0.013879,0.071285,0.064099,-88.715973,-0.201791,8.517179
169,0.029869,-9.626003,0.216070,0.049724,0.076908,0.175390,-88.715363,-0.197745,8.514799
170,0.029541,-9.627874,0.215707,0.022508,0.073433,0.169115,-88.714149,-0.191948,8.512424
171,0.030145,-9.619369,0.215337,0.009968,0.083980,0.102110,-88.713608,-0.187370,8.509902
172,0.030732,-9.613859,0.219192,0.191237,0.087752,0.037739,-88.710236,-0.184976,8.507091
173,0.028984,-9.615304,0.217115,0.065686,0.093298,0.114864,-88.705956,-0.182365,8.504132
174,0.027371,-9.617387,0.223116,0.300950,0.093714,0.167612,-88.699829,-0.177587,8.501122
175,0.033849,-9.611545,0.225390,0.361209,0.084973,-0.164518,-88.688789,-0.177467,8.498148
176,0.032881,-9.615664,0.221646,0.103795,0.071400,-0.141381,-88.681030,-0.182505,8.495424
177,0.033408,-9.616949,0.219609,-0.055853,0.062084,-0.134587,-88.680229,-0.187052,8.493095
178,0.037636,-9.618504,0.218846,-0.096028,0.059907,-0.308895,-88.682747,-0.194395,8.490891
179,0.039720,-9.625020,0.213595,-0.314997,0.055251,-0.356405,-88.689590,-0.205436,8.488717
180,0.034586,-9.628825,0.215921,-0.166767,0.058335,-0.045460,-88.697609,-0.212089,8.486672
181,0.034825,-9.627257,0.222911,0.211355,0.060582,0.005713,-88.696854,-0.212706,8.484676
182,0.034346,-9.626804,0.222420,0.187386,0.076332,0.028591,-88.690208,-0.212082,8.482409
183,0.035115,-9.623404,0.223993,0.198969,0.075522,-0.001784,-88.683762,-0.211578,8.479888
184,0.031172,-9.623137,0.222836,0.106905,0.082163,0.174959,-88.678650,-0.208631,8.477326
185,0.029438,-9.617594,0.221226,0.016165,0.093736,0.234100,-88.676590,-0.201748,8.474553
186,0.028707,-9.619627,0.215553,-0.250101,0.104570,0.207800,-88.680481,-0.194309,8.471420
187,0.033789,-9.624640,0.217223,-0.146878,0.084702,-0.067984,-88.687080,-0.191906,8.468317
188,0.032551,-9.629096,0.216005,-0.145491,0.080976,-0.023981,-88.691940,-0.193376,8.465522
189,0.035641,-9.628447,0.217265,-0.070481,0.075336,-0.146325,-88.695534,-0.196154,8.462852
190,0.037339,-9.630620,0.218023,-0.016498,0.069720,-0.213087,-88.696976,-0.202087,8.460299
191,0.037975,-9.631552,0.216350,-0.088910,0.059179,-0.192238,-88.698715,-0.208793,8.457998
192,0.033221,-9.632933,0.214820,-0.150002,0.057297,0.076340,-88.702698,-0.210679,8.456014
193,0.031942,-9.630489,0.218046,0.032267,0.061063,0.141057,-88.704659,-0.207012,8.454123
194,0.033741,-9.625426,0.221441,0.214190,0.069904,0.041699,-88.700546,-0.203918,8.452010
195,0.032696,-9.627196,0.220824,0.161644,0.073274,0.074559,-88.694267,-0.201926,8.449669
196,0.034035,-9.624347,0.225060,0.300454,0.070551,-0.005133,-88.686562,-0.200714,8.447299
197,0.034655,-9.618160,0.225901,0.292769,0.090994,-0.042876,-88.676674,-0.201452,8.444589
198,0.038195,-9.620954,0.232721,0.507894,0.074543,-0.188818,-88.663315,-0.205249,8.441742
199,0.037157,-9.621919,0.230776,0.318397,0.066450,-0.123011,-88.649536,-0.210389,8.439270
200,0.038196,-9.627486,0.230686,0.183702,0.079601,-0.132913,-88.641144,-0.214596,8.436735
201,0.037409,-9.637643,0.228646,0.022173,0.088230,-0.056880,-88.637711,-0.217692,8.433865
202,0.034879,-9.632715,0.224612,-0.184397,0.073894,0.063027,-88.640396,-0.217525,8.431165
203,0.034104,-9.631491,0.218810,-0.409453,0.087510,0.094617,-88.650291,-0.214835,8.428537
204,0.029982,-9.634957,0.217056,-0.413992,0.088298,0.252641,-88.664001,-0.208980,8.425743
205,0.033328,-9.631422,0.214216,-0.422050,0.056222,0.063632,-88.677925,-0.203655,8.423458
206,0.032156,-9.625041,0.214422,-0.305207,0.046253,0.061282,-88.690048,-0.201534,8.421798
207,0.033324,-9.630435,0.222048,0.121909,0.059940,0.000195,-88.693092,-0.200469,8.420053
208,0.031425,-9.629556,0.219842,0.045781,0.061423,0.067622,-88.690292,-0.199293,8.418056
209,0.035875,-9.622947,0.220631,0.056018,0.047581,-0.133139,-88.688591,-0.200343,8.416214
210,0.033760,-9.625204,0.219875,0.005714,0.054335,-0.027471,-88.687553,-0.202980,8.414455
211,0.032689,-9.622163,0.224790,0.221952,0.059684,0.059472,-88.683754,-0.202404,8.412567
212,0.029411,-9.622496,0.219549,-0.042315,0.060496,0.206100,-88.680748,-0.197932,8.410666
213,0.030306,-9.620366,0.221971,0.042399,0.059116,0.135396,-88.680748,-0.192197,8.408805
214,0.023292,-9.624573,0.221973,0.051830,0.074488,0.389212,-88.679161,-0.183404,8.406778
215,0.023359,-9.617318,0.227020,0.271339,0.085805,0.321064,-88.673775,-0.171508,8.404383
216,0.029938,-9.622680,0.224861,0.124309,0.084142,-0.064226,-88.667175,-0.167162,8.401650
217,0.034510,-9.620231,0.229760,0.297601,0.076063,-0.305842,-88.660133,-0.173266,8.398837
218,0.030805,-9.619612,0.228365,0.184718,0.088276,-0.105459,-88.652077,-0.180055,8.395938
219,0.035209,-9.616740,0.227716,0.101438,0.090675,-0.234866,-88.647301,-0.185656,8.392822
220,0.035642,-9.627346,0.224614,-0.071761,0.084535,-0.218106,-88.646790,-0.193134,8.389725
221,0.033230,-9.619119,0.225877,0.001603,0.083982,-0.066395,-88.647957,-0.197808,8.386806
222,0.030408,-9.618737,0.221607,-0.172344,0.081046,0.090021,-88.650787,-0.197349,8.384066
223,0.031840,-9.621887,0.216699,-0.374950,0.083351,0.029221,-88.659904,-0.195299,8.381373
224,0.032807,-9.618522,0.212732,-0.492615,0.081617,-0.037465,-88.674347,-0.195372,8.378618
225,0.031996,-9.615140,0.215844,-0.248045,0.087888,-0.002737,-88.686676,-0.195977,8.375780
226,0.028800,-9.621868,0.211221,-0.380878,0.100017,0.145464,-88.697151,-0.193527,8.372703
227,0.032830,-9.623040,0.215635,-0.108079,0.090320,-0.055665,-88.705292,-0.191959,8.369567
228,0.030027,-9.623648,0.219563,0.126154,0.084524,0.057761,-88.704987,-0.191858,8.366654
229,0.027740,-9.618772,0.223849,0.335427,0.087450,0.161508,-88.697273,-0.188140,8.363871
230,0.028840,-9.616566,0.220128,0.115293,0.077344,0.088812,-88.689758,-0.183906,8.361220
232,0.030178,-9.617244,0.219430,0.031609,0.070404,0.003521,-88.687294,-0.182312,8.358792
233,0.029635,-9.620288,0.218463,-0.037667,0.078121,0.017765,-88.687393,-0.181900,8.356326
234,0.033211,-9.618823,0.218404,-0.041184,0.066757,-0.139097,-88.688698,-0.183866,8.353866
235,0.038489,-9.628725,0.219607,-0.006044,0.052755,-0.361326,-88.689484,-0.192158,8.351685
236,0.038080,-9.629054,0.223457,0.165119,0.062819,-0.279347,-88.686821,-0.202790,8.349513
237,0.040853,-9.626060,0.227839,0.337680,0.057867,-0.323905,-88.678444,-0.212795,8.347271
238,0.041079,-9.626049,0.228807,0.301244,0.057777,-0.260516,-88.667778,-0.222488,8.345119
239,0.040537,-9.627475,0.226149,0.104303,0.054688,-0.161871,-88.661011,-0.229482,8.343080
240,0.038032,-9.626372,0.224173,-0.036495,0.057965,0.015854,-88.659866,-0.231871,8.341146
241,0.035378,-9.630057,0.220517,-0.224150,0.055879,0.149738,-88.664207,-0.229068,8.339314
242,0.034431,-9.630775,0.220381,-0.189271,0.068686,0.169557,-88.671089,-0.223699,8.337361
243,0.034853,-9.628949,0.214118,-0.393812,0.072525,0.116301,-88.680801,-0.218882,8.335118
244,0.034942,-9.631590,0.218946,-0.111375,0.075769,0.065960,-88.689217,-0.215788,8.332718
245,0.032726,-9.627904,0.219380,-0.014513,0.080857,0.131871,-88.691307,-0.212432,8.330182
246,0.034521,-9.626713,0.218446,-0.028639,0.078354,0.023399,-88.692017,-0.209785,8.327589
247,0.032859,-9.620798,0.219849,0.036172,0.067639,0.075275,-88.691879,-0.208085,8.325194
248,0.025904,-9.621506,0.220688,0.056632,0.069992,0.371598,-88.690323,-0.200587,8.323071
249,0.026211,-9.619278,0.222255,0.111117,0.073184,0.306009,-88.687523,-0.189241,8.320945
250,0.025260,-9.625370,0.219239,-0.062984,0.068633,0.261095,-88.686722,-0.179738,8.318798
251,0.025346,-9.625351,0.221651,0.046235,0.064193,0.182968,-88.686996,-0.172288,8.316754
252,0.024024,-9.629249,0.217297,-0.143779,0.063678,0.194182,-88.688614,-0.165955,8.314767
253,0.026272,-9.632026,0.213608,-0.286747,0.070547,0.054410,-88.695778,-0.161762,8.312625
254,0.032490,-9.627278,0.209974,-0.381300,0.060171,-0.236709,-88.706909,-0.164750,8.310379
255,0.035833,-9.615360,0.207478,-0.382532,0.070974,-0.360882,-88.719627,-0.174658,8.307969
256,0.037019,-9.612557,0.205565,-0.376033,0.073011,-0.337037,-88.732262,-0.186234,8.305312
257,0.042764,-9.617414,0.211103,-0.038594,0.071887,-0.507539,-88.739166,-0.200253,8.302586
258,0.040144,-9.616256,0.217199,0.288138,0.064217,-0.287191,-88.734993,-0.213446,8.300025
259,0.033869,-9.623693,0.219150,0.339526,0.078935,0.082474,-88.724525,-0.216804,8.297564
260,0.028133,-9.630513,0.224725,0.504258,0.073659,0.358448,-88.710457,-0.209400,8.295186
261,0.023266,-9.635021,0.225852,0.441245,0.078646,0.512890,-88.694702,-0.194824,8.292977
262,0.016745,-9.629457,0.223673,0.228614,0.080577,0.681704,-88.683525,-0.174858,8.290778
263,0.018703,-9.628862,0.220212,-0.008881,0.074478,0.432474,-88.679855,-0.156234,8.288621
264,0.018901,-9.626642,0.220934,-0.012646,0.066540,0.276212,-88.680214,-0.144372,8.286544
265,0.021098,-9.629972,0.221463,0.014783,0.062305,0.097222,-88.680168,-0.138101,8.284540
266,0.022850,-9.621881,0.225213,0.202385,0.059826,-0.015053,-88.676544,-0.136684,8.282537
267,0.026387,-9.617624,0.225147,0.178217,0.055857,-0.184077,-88.670197,-0.139958,8.280532
268,0.029742,-9.613224,0.229296,0.325170,0.051747,-0.309975,-88.661797,-0.148148,8.278548
269,0.029315,-9.603490,0.224326,0.065585,0.048305,-0.230835,-88.655281,-0.157120,8.276670
270,0.031691,-9.603087,0.225453,0.052262,0.051949,-0.275996,-88.653305,-0.165526,8.274799
271,0.030026,-9.603880,0.216747,-0.358814,0.049427,-0.144518,-88.658417,-0.172493,8.272947
272,0.031786,-9.609666,0.216792,-0.328900,0.062625,-0.162512,-88.669876,-0.177565,8.270961
273,0.031517,-9.614456,0.215110,-0.326036,0.066866,-0.096515,-88.680786,-0.181831,8.268703
274,0.032236,-9.620281,0.212485,-0.374871,0.080472,-0.089682,-88.692459,-0.184877,8.266177
275,0.036244,-9.623699,0.212204,-0.294130,0.072569,-0.229964,-88.703598,-0.190145,8.263505
276,0.035512,-9.628560,0.217986,0.050174,0.081456,-0.155493,-88.707649,-0.196510,8.260792
277,0.035859,-9.635888,0.217767,0.067990,0.076164,-0.126623,-88.705666,-0.201152,8.258060
278,0.033025,-9.631858,0.219153,0.109844,0.083018,0.038456,-88.702698,-0.202561,8.255374
279,0.032228,-9.631949,0.224803,0.348601,0.081826,0.081529,-88.695045,-0.200499,8.252674
280,0.026940,-9.629499,0.223255,0.210997,0.084879,0.281739,-88.685715,-0.194383,8.250035
281,0.027748,-9.624384,0.220366,0.012784,0.079308,0.190060,-88.681984,-0.186459,8.247480
282,0.026057,-9.616143,0.221523,0.043336,0.076725,0.215809,-88.681038,-0.179636,8.245035
283,0.019865,-9.616628,0.219001,-0.073830,0.084593,0.444339,-88.681541,-0.168574,8.242600
284,0.019387,-9.618139,0.220442,-0.020976,0.063555,0.379868,-88.683113,-0.154785,8.240448
285,0.019832,-9.615456,0.220203,-0.007960,0.063778,0.264013,-88.683586,-0.144007,8.238573
286,0.017910,-9.621213,0.217771,-0.124931,0.062105,0.275660,-88.685791,-0.134967,8.236682
287,0.018915,-9.624106,0.217434,-0.112607,0.056484,0.158707,-88.689743,-0.127684,8.234871
288,0.026075,-9.622569,0.218163,-0.051923,0.045020,-0.229349,-88.692490,-0.128823,8.233154
289,0.025642,-9.625605,0.217921,-0.039148,0.057895,-0.198092,-88.694008,-0.135906,8.231277
290,0.029793,-9.624002,0.219439,0.038495,0.048960,-0.335018,-88.694016,-0.144749,8.229294
291,0.035469,-9.622006,0.223032,0.188752,0.040521,-0.519327,-88.690208,-0.158950,8.227476
292,0.032424,-9.623256,0.219123,-0.032264,0.054664,-0.284404,-88.687599,-0.172305,8.225583
293,0.032232,-9.626982,0.219489,-0.027097,0.061703,-0.175154,-88.688583,-0.179918,8.223470
294,0.029882,-9.617629,0.215208,-0.204468,0.066354,-0.014535,-88.692429,-0.183030,8.221264
295,0.026842,-9.623503,0.215648,-0.169434,0.074704,0.140717,-88.698662,-0.180874,8.218961
296,0.028086,-9.628010,0.217006,-0.052944,0.081030,0.074203,-88.702354,-0.177234,8.216447
297,0.029458,-9.626217,0.219919,0.115731,0.070357,-0.002325,-88.701302,-0.175980,8.213953
298,0.028537,-9.626715,0.217734,0.009828,0.066172,0.026377,-88.699196,-0.175527,8.211687
299,0.029290,-9.638335,0.218497,0.023962,0.059285,-0.010557,-88.698631,-0.175216,8.209601
300,0.029280,-9.635788,0.216683,-0.063154,0.060508,-0.000581,-88.699280,-0.175356,8.207603
301,0.026107,-9.639693,0.216032,-0.098883,0.065194,0.142380,-88.701973,-0.172947,8.205562
302,0.027167,-9.636312,0.213995,-0.172186,0.063500,0.073616,-88.706482,-0.169299,8.203499
303,0.027061,-9.638865,0.215565,-0.078592,0.058724,0.052839,-88.710648,-0.167146,8.201509
304,0.030369,-9.632652,0.212719,-0.177165,0.066968,-0.113107,-88.714920,-0.168104,8.199394
305,0.032170,-9.635393,0.215289,-0.019670,0.070341,-0.193466,-88.718185,-0.173160,8.196992
306,0.035183,-9.634305,0.213051,-0.093798,0.069488,-0.288528,-88.720078,-0.181139,8.194483
307,0.036230,-9.640108,0.212601,-0.106963,0.071285,-0.277483,-88.723404,-0.190518,8.191925
308,0.038357,-9.639821,0.214567,0.015100,0.080265,-0.283686,-88.724922,-0.199813,8.189191
309,0.035686,-9.642805,0.211392,-0.116376,0.079439,-0.096040,-88.726601,-0.206081,8.186389
310,0.032738,-9.636353,0.209998,-0.158130,0.083212,0.085867,-88.731171,-0.206190,8.183677
311,0.027348,-9.631888,0.213747,0.047642,0.080117,0.312642,-88.733002,-0.199490,8.181102
312,0.022391,-9.629187,0.214013,0.083551,0.083975,0.481672,-88.730812,-0.186194,8.178660
313,0.025638,-9.622599,0.215142,0.117940,0.066474,0.225716,-88.727440,-0.174352,8.176414
314,0.029606,-9.623162,0.223410,0.470296,0.073817,-0.044678,-88.717628,-0.171283,8.174144
315,0.030856,-9.625360,0.221992,0.332756,0.076197,-0.114007,-88.704239,-0.173870,8.171586
316,0.031317,-9.619796,0.217649,0.053349,0.095105,-0.108354,-88.697800,-0.177511,8.168647
317,0.036185,-9.617947,0.219180,0.061507,0.095413,-0.301772,-88.695869,-0.184272,8.165318
318,0.034625,-9.622774,0.215546,-0.126163,0.106734,-0.191338,-88.696938,-0.192412,8.161761
319,0.032808,-9.618524,0.212612,-0.254072,0.097327,-0.046814,-88.703270,-0.196303,8.158273
320,0.039123,-9.612375,0.209218,-0.352234,0.094278,-0.308388,-88.713364,-0.202149,8.154946
321,0.041807,-9.614313,0.207825,-0.348309,0.068213,-0.396345,-88.725029,-0.213832,8.151976
322,0.038008,-9.614750,0.205587,-0.356718,0.070838,-0.135935,-88.736763,-0.222649,8.149462
323,0.036843,-9.617101,0.205571,-0.274700,0.076797,-0.014329,-88.747276,-0.225099,8.146947
324,0.038910,-9.618925,0.205372,-0.197326,0.076964,-0.084903,-88.755142,-0.226696,8.144349
325,0.035406,-9.630016,0.209913,0.052062,0.081658,0.092985,-88.757553,-0.226505,8.141709
326,0.033434,-9.631182,0.214941,0.299332,0.092117,0.193427,-88.751686,-0.221669,8.138917
327,0.034408,-9.637296,0.220034,0.494583,0.104818,0.117773,-88.738441,-0.216411,8.135749
328,0.033870,-9.631206,0.226639,0.709752,0.106733,0.102916,-88.718353,-0.212656,8.132306
329,0.033498,-9.629127,0.225422,0.507088,0.108764,0.089521,-88.698059,-0.209368,8.128789
330,0.035739,-9.627679,0.226544,0.412584,0.104043,-0.039885,-88.682724,-0.208460,8.125261
331,0.036229,-9.621203,0.219308,-0.020205,0.103303,-0.068111,-88.676178,-0.210180,8.121765
332,0.034498,-9.621155,0.214456,-0.298094,0.084566,0.022056,-88.681473,-0.210875,8.118617
333,0.037266,-9.621571,0.214145,-0.278788,0.074300,-0.099284,-88.691063,-0.212102,8.115939
335,0.035725,-9.617041,0.216879,-0.084756,0.070703,-0.020535,-88.697121,-0.214043,8.113478
336,0.030685,-9.613203,0.213405,-0.196836,0.071164,0.212461,-88.701805,-0.210791,8.111185
337,0.031062,-9.615108,0.222575,0.239921,0.071860,0.163890,-88.701080,-0.204466,8.108945
338,0.030058,-9.612100,0.222791,0.250300,0.071798,0.162437,-88.692902,-0.198974,8.106676
339,0.027318,-9.613839,0.214791,-0.173327,0.075255,0.254620,-88.691605,-0.191970,8.104383
340,0.028754,-9.621499,0.214111,-0.214919,0.066381,0.152723,-88.698067,-0.185128,8.102179
341,0.027640,-9.625608,0.212172,-0.267764,0.058604,0.148640,-88.706116,-0.180059,8.100209
342,0.031933,-9.637078,0.208298,-0.373084,0.050020,-0.071599,-88.716789,-0.178735,8.098429
343,0.036421,-9.635573,0.211510,-0.140806,0.055192,-0.283348,-88.725342,-0.184611,8.096543
344,0.037644,-9.637643,0.211898,-0.055261,0.046090,-0.293480,-88.728600,-0.194184,8.094641
345,0.042221,-9.632537,0.213778,0.048871,0.052670,-0.434326,-88.728699,-0.206276,8.092727
346,0.046504,-9.631862,0.215421,0.135737,0.055287,-0.534821,-88.725616,-0.222384,8.090569
347,0.040900,-9.628802,0.218687,0.250642,0.064000,-0.163231,-88.719177,-0.233970,8.088323
348,0.038020,-9.628738,0.218875,0.190934,0.064096,0.042942,-88.711792,-0.235927,8.086142
349,0.035731,-9.632589,0.223542,0.333772,0.076518,0.158838,-88.703049,-0.232511,8.083874
350,0.034177,-9.634531,0.216649,-0.035021,0.069898,0.204376,-88.698059,-0.226405,8.081572
351,0.034092,-9.636053,0.215687,-0.121451,0.065600,0.170268,-88.700661,-0.220111,8.079455
352,0.034481,-9.635136,0.212679,-0.224471,0.080490,0.096446,-88.706421,-0.215612,8.077122
353,0.028815,-9.641644,0.212952,-0.161823,0.082593,0.329897,-88.712837,-0.208447,8.074563
354,0.031190,-9.639853,0.212750,-0.116281,0.080667,0.167086,-88.717468,-0.200105,8.072028
355,0.031341,-9.639228,0.218416,0.166947,0.093864,0.085519,-88.716621,-0.195830,8.069215
356,0.029809,-9.634009,0.219823,0.227042,0.105545,0.111864,-88.710045,-0.192467,8.065968
357,0.032379,-9.636067,0.218187,0.085914,0.092837,-0.024556,-88.704826,-0.190937,8.062695
358,0.032945,-9.630377,0.214810,-0.110341,0.094424,-0.069748,-88.705215,-0.192438,8.059539
359,0.027028,-9.631160,0.218681,0.062933,0.102755,0.207023,-88.705994,-0.190077,8.056305
360,0.020124,-9.636053,0.220133,0.116340,0.106482,0.509892,-88.702995,-0.178053,8.053089
361,0.017552,-9.643877,0.223358,0.240215,0.093674,0.542681,-88.697044,-0.160439,8.050152
362,0.019785,-9.637110,0.219768,0.042559,0.077150,0.310590,-88.692322,-0.146156,8.047628
363,0.030145,-9.640408,0.219481,0.012398,0.061013,-0.254692,-88.691399,-0.145172,8.045347
364,0.036041,-9.636147,0.213553,-0.257468,0.041939,-0.520915,-88.695480,-0.158057,8.043338
365,0.034703,-9.633042,0.211835,-0.288274,0.036182,-0.372838,-88.704567,-0.172919,8.041698
366,0.029206,-9.626044,0.212081,-0.206831,0.050556,-0.024907,-88.712807,-0.179514,8.040103
367,0.023689,-9.627765,0.214033,-0.056552,0.063740,0.273953,-88.717201,-0.175322,8.038292
368,0.017263,-9.623572,0.214992,0.014157,0.066626,0.533463,-88.717896,-0.161820,8.036420
369,0.016375,-9.620329,0.215210,0.033884,0.075975,0.467075,-88.717094,-0.145095,8.034418
370,0.012870,-9.625757,0.214194,-0.010691,0.068914,0.495468,-88.716705,-0.129003,8.032363
371,0.018017,-9.627159,0.216098,0.082128,0.056694,0.143769,-88.715515,-0.118304,8.030509
372,0.020711,-9.626151,0.219640,0.245965,0.058611,-0.053678,-88.710045,-0.116760,8.028622
373,0.023386,-9.626236,0.217037,0.088744,0.056861,-0.187662,-88.704453,-0.120738,8.026606
374,0.027277,-9.627809,0.214701,-0.058930,0.060916,-0.334313,-88.703957,-0.129391,8.024446
375,0.035396,-9.627986,0.217139,0.033669,0.054403,-0.630103,-88.704369,-0.145417,8.022161
376,0.041557,-9.629281,0.215084,-0.071467,0.056780,-0.776959,-88.704994,-0.168820,8.019778
377,0.042561,-9.629978,0.212573,-0.197788,0.051748,-0.658397,-88.709473,-0.192696,8.017430
378,0.041501,-9.633244,0.214489,-0.097266,0.061780,-0.433041,-88.714386,-0.210839,8.015130
379,0.039121,-9.627227,0.215758,0.002137,0.062977,-0.198111,-88.715958,-0.221309,8.012815
380,0.039731,-9.626065,0.213839,-0.075113,0.072998,-0.131786,-88.717163,-0.226756,8.010425
381,0.032808,-9.624477,0.210094,-0.225509,0.078673,0.217712,-88.722160,-0.225267,8.007930
382,0.031400,-9.625152,0.217180,0.138213,0.075099,0.283232,-88.723610,-0.216863,8.005553
383,0.030983,-9.624437,0.220546,0.310695,0.080800,0.238743,-88.716125,-0.208108,8.003151
384,0.032521,-9.634050,0.223126,0.364328,0.068837,0.112030,-88.704865,-0.202207,8.000789
385,0.027953,-9.632628,0.222557,0.257552,0.072043,0.260587,-88.694504,-0.195945,7.998582
386,0.030108,-9.632817,0.222959,0.185325,0.067079,0.123702,-88.687103,-0.189489,7.996410
387,0.027837,-9.632401,0.222073,0.081629,0.081709,0.174985,-88.682648,-0.184456,7.994046
388,0.031171,-9.626664,0.217903,-0.116701,0.066043,-0.018329,-88.683220,-0.181788,7.991642
389,0.025883,-9.625716,0.217925,-0.116538,0.084765,0.208170,-88.687096,-0.178567,7.989203
390,0.029272,-9.623875,0.222321,0.116700,0.082968,0.035616,-88.687080,-0.174442,7.986501
391,0.025107,-9.627090,0.223337,0.175405,0.083598,0.190940,-88.682205,-0.170603,7.983813
392,0.022784,-9.627748,0.218717,-0.061836,0.080027,0.270459,-88.680313,-0.162852,7.981263
393,0.018348,-9.629104,0.220085,-0.024061,0.078827,0.418007,-88.681740,-0.151320,7.978880
394,0.017248,-9.631832,0.215853,-0.204865,0.062241,0.373226,-88.685547,-0.138082,7.976833
395,0.018333,-9.640311,0.215410,-0.209084,0.061959,0.235485,-88.692444,-0.127892,7.974995
396,0.019956,-9.642162,0.212671,-0.287345,0.070635,0.086954,-88.700714,-0.122469,7.972908
397,0.022540,-9.643243,0.217541,-0.011068,0.058564,-0.080905,-88.705688,-0.122319,7.970757
398,0.024626,-9.645655,0.216500,-0.034727,0.074739,-0.179255,-88.706444,-0.126604,7.968439
399,0.026331,-9.641068,0.218570,0.070810,0.080065,-0.225148,-88.705833,-0.133284,7.965707
400,0.026096,-9.633618,0.219272,0.095925,0.086073,-0.171609,-88.703049,-0.139832,7.962789
401,0.026535,-9.625670,0.222637,0.221075,0.076372,-0.147648,-88.697762,-0.145090,7.959961
402,0.027897,-9.626360,0.220253,0.083481,0.083154,-0.162817,-88.692673,-0.150203,7.957186
403,0.030134,-9.626298,0.223065,0.172426,0.066712,-0.213626,-88.688400,-0.156418,7.954545
404,0.032469,-9.628363,0.221063,0.050459,0.058960,-0.264808,-88.684685,-0.164342,7.952268
405,0.031634,-9.628959,0.221411,0.052778,0.051973,-0.171133,-88.682961,-0.171563,7.950253
406,0.033944,-9.629278,0.219405,-0.027115,0.055117,-0.232198,-88.682518,-0.178242,7.948314
407,0.036644,-9.625731,0.219928,-0.003439,0.058124,-0.309272,-88.683029,-0.187221,7.946220
408,0.037960,-9.625243,0.219589,-0.006683,0.055224,-0.308406,-88.683182,-0.197470,7.944095
409,0.038664,-9.625915,0.221411,0.073571,0.059592,-0.262876,-88.682060,-0.206945,7.941963
410,0.038650,-9.627240,0.215147,-0.221764,0.057145,-0.194044,-88.684525,-0.214514,7.939843
411,0.043001,-9.629719,0.215111,-0.216541,0.055552,-0.327877,-88.691818,-0.223167,7.937766
412,0.035430,-9.634189,0.212453,-0.284797,0.055338,0.075395,-88.700165,-0.227331,7.935822
413,0.031981,-9.636579,0.212878,-0.208683,0.067450,0.263799,-88.708389,-0.221633,7.933906
414,0.026853,-9.630965,0.213857,-0.091777,0.072039,0.447431,-88.713387,-0.209730,7.931848
415,0.025774,-9.629136,0.212025,-0.129603,0.077050,0.390861,-88.717079,-0.195707,7.929677
416,0.023679,-9.629494,0.216447,0.093385,0.071471,0.396010,-88.717667,-0.182540,7.927495
417,0.029031,-9.628216,0.218229,0.163382,0.064174,0.055371,-88.713387,-0.174968,7.925404
418,0.030000,-9.624851,0.214142,-0.049264,0.056684,-0.057301,-88.711479,-0.174955,7.923389
419,0.034356,-9.629066,0.215435,-0.007038,0.058547,-0.257225,-88.712410,-0.180152,7.921351
420,0.033565,-9.627658,0.219154,0.179465,0.059232,-0.174051,-88.709534,-0.187294,7.919227
421,0.032778,-9.629433,0.217215,0.081843,0.071566,-0.083606,-88.705162,-0.191538,7.916951
422,0.032747,-9.623639,0.213586,-0.091777,0.073188,-0.039073,-88.705322,-0.193528,7.914493
423,0.031856,-9.624091,0.217789,0.105683,0.081158,0.030937,-88.705086,-0.193605,7.911918
424,0.032670,-9.624525,0.219974,0.196383,0.082200,-0.000165,-88.700043,-0.193030,7.909208
425,0.030787,-9.619432,0.220892,0.183399,0.082493,0.083411,-88.693703,-0.191581,7.906494
426,0.030765,-9.619537,0.222580,0.186689,0.076262,0.059814,-88.687531,-0.189133,7.903904
427,0.030285,-9.621511,0.224624,0.221982,0.076482,0.057076,-88.680710,-0.187128,7.901404
428,0.026989,-9.622182,0.220950,-0.001487,0.066615,0.177059,-88.677025,-0.183171,7.899110
429,0.025620,-9.625016,0.218883,-0.118174,0.060868,0.207329,-88.679016,-0.176718,7.897133
430,0.031153,-9.633881,0.217918,-0.143061,0.057035,-0.069882,-88.683365,-0.174383,7.895223
