seq,ax,ay,az,wroll,wpitch,wyaw,roll,pitch,yaw,q0,q1,q2,q3
60,-0.380289,-9.198348,-0.138554,-22.954113,0.502596,8.498020,-90.863029,2.367218,-110.036530,0.414302,-0.396473,0.591890,-0.566418
61,-1.216242,-7.753992,-6.004651,-236.916595,12.539247,65.590027,-95.206841,3.587864,-110.319138,0.403985,-0.404367,0.617879,-0.539916
62,-1.495001,-7.833527,-6.066038,-205.383850,13.081387,68.954857,-102.617386,5.728776,-111.089096,0.385394,-0.415284,0.660465,-0.492745
63,-1.491213,-7.920238,-6.043715,-157.314636,12.941645,50.207993,-108.745956,7.517955,-112.038902,0.369057,-0.421653,0.693912,-0.452208
64,-1.636768,-8.135528,-5.620360,-134.121780,14.975317,32.928902,-113.721855,8.638390,-112.982689,0.353523,-0.426626,0.718928,-0.419708
65,-1.866574,-8.056460,-5.178855,-53.495537,10.894485,13.293940,-116.955292,9.148813,-113.713524,0.341863,-0.429657,0.734274,-0.399206
66,-1.992251,-8.232866,-4.673650,-6.270970,8.515482,-0.094481,-118.013229,9.196032,-114.107567,0.336817,-0.430062,0.739504,-0.393364
67,-1.956672,-8.486922,-4.433456,26.381720,6.187452,-16.391083,-117.691879,8.839352,-114.197594,0.335550,-0.429998,0.738038,-0.397250
68,-1.955039,-8.940786,-4.434537,43.623447,6.470548,-22.879469,-116.508453,8.161110,-114.086555,0.336279,-0.430029,0.732106,-0.407445
69,-1.857968,-9.048836,-5.015153,21.765762,13.125069,-15.467592,-115.420647,7.443743,-114.100838,0.335987,-0.429722,0.726746,-0.417482
70,-1.717622,-9.331059,-5.505888,-1.772738,13.507125,-10.097023,-115.115417,6.868259,-114.321236,0.332861,-0.429832,0.725219,-0.422499
71,-1.505529,-9.219924,-5.876218,-28.355595,13.466630,-7.714241,-115.650085,6.406932,-114.601143,0.327031,-0.431510,0.727244,-0.421860
72,-1.186215,-8.717283,-5.952936,-54.495090,19.325571,-7.364818,-117.071686,5.938644,-114.980438,0.317411,-0.435005,0.732873,-0.415835
73,-1.039195,-8.070827,-6.282796,-83.785355,20.730003,-2.330193,-119.426888,5.480350,-115.493721,0.303743,-0.439907,0.742304,-0.403989
74,-0.912891,-7.724104,-5.920167,-72.332268,14.542097,0.816516,-122.073349,5.157912,-115.986221,0.289787,-0.444785,0.752724,-0.389354
75,-0.776097,-7.633500,-5.986944,-55.388027,11.582333,0.208557,-124.233948,4.933983,-116.360458,0.278678,-0.448501,0.760980,-0.376954
76,-0.728249,-7.454711,-6.014450,-42.577766,7.807663,1.750384,-125.890228,4.775151,-116.644753,0.270222,-0.451143,0.767183,-0.367261
77,-0.708272,-7.249949,-5.995525,-32.087852,3.810761,3.830126,-127.151993,4.734678,-116.856148,0.264310,-0.452808,0.771946,-0.359451
78,-0.687422,-7.232543,-5.756473,-11.016356,1.828665,4.620037,-127.883698,4.789127,-117.016678,0.261276,-0.453214,0.774955,-0.354650
79,-0.765369,-7.265174,-5.986163,-6.221126,-0.656205,5.115811,-128.180771,4.905086,-117.132263,0.260510,-0.452710,0.776527,-0.352412
80,-0.791277,-7.323397,-6.020358,-0.498445,-1.230580,1.859235,-128.296890,5.015860,-117.179611,0.260638,-0.452274,0.777258,-0.351264
81,-0.695837,-7.724301,-5.925748,16.332565,2.911928,-8.685188,-128.028809,4.909095,-117.131142,0.261140,-0.452358,0.776061,-0.353422
82,-0.637258,-8.205916,-5.771247,26.760365,3.331207,-15.017111,-127.297485,4.532813,-116.971527,0.262046,-0.453065,0.772503,-0.359587
83,-0.423250,-8.442614,-5.330594,36.665863,6.743752,-26.778297,-126.219666,3.874365,-116.688454,0.262892,-0.454788,0.766769,-0.368947
84,-0.121284,-8.746973,-4.768648,51.114826,10.353061,-40.898369,-124.732285,2.790788,-116.264862,0.263127,-0.458002,0.758134,-0.382401
85,0.095973,-8.817575,-4.385079,54.579620,10.682961,-45.828907,-122.952461,1.395622,-115.750626,0.262973,-0.462258,0.747134,-0.398691
86,0.399210,-8.765658,-4.075671,53.091671,11.576750,-47.783257,-121.152855,-0.122706,-115.237106,0.262309,-0.466917,0.735289,-0.415371
87,0.483898,-8.769910,-3.981579,45.627544,6.525491,-38.160652,-119.514870,-1.510610,-114.773849,0.261839,-0.471163,0.724047,-0.430350
88,0.624039,-8.641832,-3.854976,39.644711,2.987180,-28.535278,-118.107864,-2.560411,-114.377487,0.262474,-0.474279,0.714417,-0.442466
89,0.707011,-8.568842,-3.998003,24.594549,-0.986905,-15.994391,-117.053131,-3.233470,-114.063683,0.263813,-0.476289,0.707245,-0.450951
90,0.757032,-8.401514,-3.921207,16.759512,-3.408956,-7.080602,-116.377884,-3.543852,-113.825233,0.265611,-0.477350,0.702750,-0.455775
91,0.673377,-8.294741,-3.850673,13.501541,-6.636625,3.209021,-115.884468,-3.527995,-113.646446,0.268479,-0.477235,0.700080,-0.458316
92,0.727416,-8.174660,-4.055067,2.031495,-7.662862,4.562507,-115.634880,-3.307784,-113.488205,0.271529,-0.476785,0.699023,-0.458602
93,0.529085,-8.407166,-4.363115,-6.781800,-12.712682,14.704570,-115.723038,-2.871092,-113.321289,0.274554,-0.476367,0.699866,-0.455941
94,0.165915,-8.659208,-4.684833,-12.431499,-19.018499,29.806295,-116.049530,-1.972720,-113.169472,0.279394,-0.474689,0.702933,-0.449994
95,-0.210887,-8.870893,-4.955678,-14.315089,-23.388742,41.346249,-116.497475,-0.596570,-113.060593,0.286518,-0.471238,0.707815,-0.441407
96,-0.621813,-9.011225,-5.079333,-12.955224,-26.243553,49.253628,-116.951416,1.123814,-113.000603,0.295541,-0.466179,0.713618,-0.431372
97,-1.234991,-9.070756,-4.958249,-5.720147,-30.638834,60.715523,-117.262093,3.186708,-112.991379,0.307027,-0.459064,0.719678,-0.420782
98,-1.916953,-9.024738,-4.782866,1.734777,-35.379204,70.123093,-117.329903,5.628153,-113.012306,0.321608,-0.449495,0.725537,-0.410022
99,-2.257055,-8.721281,-4.625982,2.399413,-33.601429,63.750523,-117.261002,8.136860,-113.012451,0.337061,-0.439195,0.730633,-0.399591
100,-2.539737,-8.576076,-4.523238,0.879143,-29.220592,53.444984,-117.200546,10.351676,-112.974602,0.350686,-0.430156,0.734710,-0.390110
101,-2.925237,-8.312691,-4.516266,-8.092579,-32.457279,62.622246,-117.315323,12.541291,-112.946426,0.363340,-0.421545,0.739100,-0.379493
102,-3.090397,-8.070623,-4.616590,-19.237972,-22.527599,49.335232,-117.782997,14.618682,-112.999756,0.373683,-0.413911,0.744443,-0.367211
103,-2.906055,-7.991917,-4.531849,-11.975847,-4.511574,13.969406,-118.330002,15.761377,-113.104149,0.378080,-0.410159,0.748414,-0.358750
104,-2.899858,-7.928954,-4.447532,-7.887085,2.260793,3.825931,-118.691994,16.039892,-113.217987,0.378063,-0.409422,0.750386,-0.355476
105,-2.876301,-7.894727,-4.443690,-4.647810,6.728357,-0.829876,-118.945465,16.011477,-113.379822,0.376489,-0.409317,0.751705,-0.354478
106,-2.618211,-7.999237,-4.500702,-2.594926,13.693956,-11.067484,-119.123291,15.672982,-113.589264,0.373210,-0.409958,0.752484,-0.355552
107,-2.227470,-8.132529,-4.542346,-0.338631,21.360405,-22.920095,-119.235985,14.893620,-113.831909,0.367432,-0.412012,0.752493,-0.359158
108,-1.918401,-8.209629,-4.782866,-6.837808,27.513254,-28.715561,-119.429100,13.744459,-114.129868,0.358936,-0.415469,0.752345,-0.364042
110,-1.428339,-8.282184,-4.949980,-12.951673,35.319214,-40.636749,-119.836906,12.222086,-114.476913,0.347162,-0.420727,0.752407,-0.369257
111,-0.833517,-8.339211,-4.961227,-15.357273,42.733814,-53.901939,-120.374756,10.206878,-114.818039,0.331759,-0.428239,0.751956,-0.375647
112,-0.333445,-8.411933,-4.842327,-9.319645,46.462093,-61.485413,-120.833115,7.795750,-115.122261,0.314095,-0.437070,0.750247,-0.383983
113,0.126120,-8.431809,-4.947937,-9.495338,48.699883,-63.892918,-121.178635,5.189171,-115.408218,0.295438,-0.446165,0.747482,-0.393603
114,0.585231,-8.323101,-4.851894,-4.944505,48.951275,-64.159927,-121.438202,2.521579,-115.690186,0.276485,-0.454988,0.743991,-0.403757
115,0.844095,-8.293999,-4.842444,-0.003243,43.208435,-54.687798,-121.526772,0.031743,-115.966408,0.259148,-0.462515,0.739951,-0.413997
116,0.859343,-8.441162,-4.960640,3.636364,31.595736,-37.549629,-121.462158,-1.929403,-116.227135,0.245753,-0.467724,0.736243,-0.422831
117,0.877451,-8.328367,-5.160006,-5.320860,20.732634,-24.866104,-121.481331,-3.271543,-116.428627,0.236179,-0.471212,0.733924,-0.428409
118,1.013505,-8.354486,-4.834771,5.260131,16.046850,-19.673136,-121.473534,-4.224734,-116.563179,0.229469,-0.473666,0.732109,-0.432436
119,1.005734,-8.437871,-4.888944,4.408381,9.407664,-12.273173,-121.305542,-4.900066,-116.648994,0.225409,-0.475130,0.730139,-0.436279
120,0.983465,-8.449685,-4.768095,5.889838,4.621719,-6.895644,-121.130814,-5.294446,-116.683594,0.223413,-0.475934,0.728616,-0.438968
121,1.077735,-8.349896,-4.718296,4.412193,3.122191,-7.222817,-120.960106,-5.562586,-116.672897,0.222403,-0.476598,0.727230,-0.441053
122,1.087021,-8.482672,-4.674076,8.162997,0.754925,-3.971838,-120.754478,-5.755872,-116.632454,0.222146,-0.477125,0.725770,-0.443012
123,0.927112,-8.463991,-4.897902,-0.573522,-5.798924,3.762031,-120.635391,-5.715968,-116.558113,0.223191,-0.477226,0.725104,-0.443470
124,0.761455,-8.337681,-4.906142,-3.077966,-10.743109,10.084839,-120.707779,-5.376772,-116.438271,0.225575,-0.476947,0.725760,-0.441486
125,0.538133,-8.270720,-4.922642,-2.400986,-15.381160,18.563055,-120.810570,-4.743792,-116.307831,0.229788,-0.475773,0.727230,-0.438148
126,0.287022,-8.173324,-5.005390,-5.417883,-19.097202,26.384932,-120.948914,-3.805978,-116.198746,0.235751,-0.473461,0.729660,-0.433419
127,0.041623,-8.110819,-5.049994,-5.854941,-21.319176,31.432440,-121.141144,-2.633072,-116.118576,0.242895,-0.470233,0.732927,-0.427435
128,-0.316433,-8.102020,-5.144840,-5.504478,-24.597469,37.413498,-121.332375,-1.255300,-116.059196,0.251274,-0.466116,0.736664,-0.420622
129,-0.594520,-8.108010,-5.276881,-7.111611,-25.251808,38.992107,-121.542946,0.264263,-116.014404,0.260411,-0.461400,0.740727,-0.413062
130,-0.746071,-8.175157,-5.548556,-12.932392,-22.637346,33.139259,-121.876122,1.706239,-115.967430,0.268534,-0.457227,0.744895,-0.404925
131,-0.998987,-8.200372,-5.618398,-12.973542,-21.939602,29.860977,-122.305038,2.990284,-115.896545,0.275328,-0.454002,0.748820,-0.396667
132,-1.343471,-8.051284,-5.591617,-18.170084,-28.821966,42.366119,-122.819946,4.459912,-115.831398,0.282939,-0.450270,0.753284,-0.386996
133,-1.600663,-8.017469,-5.561537,-13.952660,-27.471365,44.084820,-123.355110,6.178949,-115.831909,0.291832,-0.445234,0.758342,-0.376188
134,-1.698146,-8.058142,-5.501755,-5.988594,-20.510612,35.688011,-123.695320,7.728683,-115.899490,0.300171,-0.439868,0.762486,-0.367463
135,-1.876431,-7.913778,-5.354578,-0.544548,-16.886627,32.641106,-123.820778,9.021685,-116.014694,0.307535,-0.434551,0.765520,-0.361340
136,-1.792338,-7.917005,-5.295926,3.804515,-6.526459,18.737730,-123.791641,9.950271,-116.168518,0.313040,-0.429903,0.767521,-0.357913
137,-1.625681,-8.032625,-5.309865,4.835293,3.955612,1.415182,-123.674210,10.253421,-116.321396,0.314917,-0.427393,0.768207,-0.357798
138,-1.370607,-8.041063,-5.231831,6.472159,13.366627,-18.527472,-123.500183,9.856141,-116.405174,0.312793,-0.427883,0.767341,-0.360920
139,-1.230669,-8.054552,-5.212872,2.684173,13.019545,-21.154661,-123.347778,9.061994,-116.407700,0.308330,-0.430500,0.765571,-0.365381
140,-0.833680,-8.283441,-5.261772,1.197364,18.966433,-33.929630,-123.274147,8.002075,-116.348129,0.302073,-0.434742,0.763316,-0.370271
141,-0.641334,-8.320969,-5.194689,1.006542,18.646563,-36.855782,-123.221519,6.671914,-116.224403,0.294206,-0.440449,0.760321,-0.375978
142,-0.305765,-8.366512,-5.100528,3.431952,19.917871,-41.164761,-123.129295,5.232047,-116.049896,0.285938,-0.446741,0.756670,-0.382247
143,0.061434,-8.369784,-5.107475,2.986671,21.516258,-43.405487,-123.007439,3.674318,-115.859215,0.277067,-0.453433,0.752471,-0.389127
144,0.299291,-8.310608,-5.083535,3.027310,20.014221,-39.984215,-122.898376,2.131907,-115.683769,0.268176,-0.459924,0.748236,-0.395846
145,0.344845,-8.162941,-4.993279,4.934237,14.027977,-29.440310,-122.761803,0.852267,-115.533234,0.260991,-0.465178,0.744415,-0.401671
146,0.512030,-8.130969,-5.022614,4.655192,11.887338,-24.583364,-122.601166,-0.138720,-115.410889,0.255667,-0.469128,0.741156,-0.406498
147,0.625132,-8.008419,-5.184370,-3.518332,10.034941,-20.954523,-122.583237,-0.974920,-115.309959,0.250683,-0.472686,0.738777,-0.409799
148,0.507488,-7.928456,-5.363829,-13.588638,3.797553,-11.142417,-122.870438,-1.549494,-115.214180,0.246106,-0.475929,0.738081,-0.410074
149,0.561289,-8.006671,-5.531012,-18.633701,1.932719,-9.233427,-123.410576,-1.885975,-115.107788,0.242044,-0.478924,0.738783,-0.407733
150,0.631001,-8.089309,-5.725612,-21.413015,2.251430,-8.925362,-124.081886,-2.176333,-114.997360,0.237724,-0.482028,0.740024,-0.404352
151,0.491815,-8.113867,-5.998728,-26.114988,-1.436992,-0.445723,-124.877022,-2.312710,-114.920021,0.233748,-0.484621,0.742172,-0.399608
152,0.031205,-8.059478,-6.100843,-25.197933,-10.979069,20.754396,-125.731186,-1.916775,-114.946205,0.232647,-0.484881,0.746136,-0.392488
153,-0.411418,-8.060911,-5.959568,-12.249635,-17.222328,39.375050,-126.350182,-0.829694,-115.154358,0.236492,-0.481212,0.751507,-0.384374
154,-0.939101,-7.958512,-5.866593,-3.368452,-23.045805,54.205723,-126.610245,0.823611,-115.540077,0.245013,-0.473729,0.757452,-0.376583
155,-1.472607,-7.789663,-5.673379,3.214605,-27.974241,64.185432,-126.628807,2.914265,-116.033318,0.257068,-0.463415,0.763659,-0.368765
156,-2.036484,-7.746669,-5.521152,9.267832,-32.346310,68.980484,-126.457687,5.295216,-116.547195,0.271690,-0.451299,0.769530,-0.361024
157,-2.168986,-7.729797,-5.424302,12.308725,-25.658443,55.195881,-126.148590,7.534591,-116.995026,0.286059,-0.439515,0.774093,-0.354650
158,-2.094608,-7.612080,-5.538187,3.493387,-21.015598,44.544933,-125.936882,9.335920,-117.346893,0.297431,-0.429987,0.777606,-0.349249
159,-2.318072,-7.465233,-5.462690,-0.611649,-11.790419,30.150427,-125.939842,10.664287,-117.640205,0.305088,-0.423047,0.780660,-0.344271
160,-2.392652,-7.434920,-5.619924,-9.669354,-10.433899,30.497158,-126.169388,11.699266,-117.941673,0.310000,-0.417709,0.783885,-0.339033
161,-2.267128,-7.506467,-5.660017,-7.654741,0.117460,16.962244,-126.528763,12.437998,-118.280136,0.312452,-0.413573,0.787138,-0.334284
162,-2.208284,-7.526382,-5.690113,-2.910098,7.423923,7.322353,-126.780769,12.687712,-118.631256,0.312132,-0.410900,0.789448,-0.332425
163,-2.059783,-7.693009,-5.742702,2.908014,12.741662,-2.033171,-126.852608,12.556999,-118.961189,0.310072,-0.409314,0.790676,-0.333390
164,-1.494424,-7.951916,-5.902712,4.893322,25.595850,-25.656063,-126.773064,11.804818,-119.201668,0.304780,-0.410276,0.790359,-0.337811
165,-1.039619,-8.115045,-5.824068,8.811172,31.434151,-43.109230,-126.559212,10.318141,-119.281006,0.295641,-0.414734,0.788039,-0.345812
166,-0.605019,-8.047858,-5.588349,13.181964,34.900696,-54.784363,-126.179306,8.349390,-119.202850,0.284402,-0.421603,0.783760,-0.356492
167,-0.153741,-8.169478,-5.556379,13.268385,37.271717,-61.977066,-125.716766,6.068799,-119.033264,0.271691,-0.429983,0.778054,-0.368687
168,0.152540,-8.201978,-5.464105,11.811056,35.051853,-59.090580,-125.282295,3.727276,-118.842064,0.258534,-0.438716,0.771829,-0.380747
169,0.415907,-8.130626,-5.348390,10.016316,32.485729,-49.991650,-124.912781,1.593583,-118.717491,0.246265,-0.446319,0.766063,-0.391535
170,0.590790,-8.078981,-5.314006,8.150738,28.561382,-36.784283,-124.610619,-0.174134,-118.728706,0.235673,-0.451805,0.761491,-0.400576
171,0.786481,-8.084774,-5.329241,4.133990,25.134708,-27.822203,-124.404533,-1.568225,-118.856216,0.226750,-0.455377,0.758315,-0.407644
172,0.963173,-8.093321,-5.269258,3.406058,23.063402,-23.024227,-124.272270,-2.721005,-119.041328,0.218908,-0.457857,0.756051,-0.413320
173,1.018357,-8.080213,-5.242741,3.945301,19.479834,-17.560329,-124.138382,-3.678938,-119.247765,0.212271,-0.459511,0.754233,-0.418237
174,0.964683,-8.117775,-5.292431,3.362915,13.275142,-10.012542,-124.002983,-4.365380,-119.443092,0.207485,-0.460308,0.752943,-0.422070
175,0.981509,-8.177411,-5.312352,5.842839,11.230244,-9.143292,-123.836678,-4.858208,-119.604424,0.204239,-0.460619,0.751827,-0.425292
176,1.004676,-8.114808,-5.445835,-2.333897,6.744267,-5.721334,-123.768372,-5.230689,-119.716087,0.201588,-0.461024,0.751144,-0.427319
177,0.948864,-8.120231,-5.520703,-7.226295,0.566568,0.836336,-123.922523,-5.366228,-119.771965,0.199844,-0.461385,0.751623,-0.426907
178,0.926390,-8.163907,-5.361704,-1.507122,-2.705574,4.643542,-124.066124,-5.270612,-119.793419,0.199832,-0.461173,0.752469,-0.425649
179,0.860596,-8.140027,-5.412601,-2.529185,-6.061086,7.970207,-124.133698,-5.014612,-119.790192,0.201302,-0.460452,0.753308,-0.424251
180,0.726900,-8.001009,-5.421858,-3.931683,-9.586375,11.534007,-124.244164,-4.599179,-119.757004,0.203785,-0.459466,0.754550,-0.421921
181,0.388053,-8.144320,-5.502263,-1.435015,-16.329971,22.242682,-124.336578,-3.890750,-119.717194,0.208339,-0.457500,0.756353,-0.418591
182,-0.079751,-8.075094,-5.542363,0.673724,-24.275761,33.785225,-124.351067,-2.738024,-119.684952,0.216156,-0.453810,0.758858,-0.414086
183,-0.460770,-7.918465,-5.755580,-4.742080,-29.087456,38.830959,-124.420601,-1.237170,-119.634300,0.226131,-0.449100,0.762151,-0.407797
184,-0.890705,-7.770495,-5.840004,-7.805873,-33.753460,43.806488,-124.630341,0.490803,-119.552605,0.237148,-0.444026,0.766140,-0.399539
185,-1.273346,-7.697312,-5.930505,-10.646570,-36.200470,45.265015,-124.935143,2.374666,-119.442162,0.248889,-0.438740,0.770445,-0.389840
186,-1.486437,-7.460780,-5.924198,-14.269861,-35.010895,40.473789,-125.341949,4.225756,-119.294189,0.260100,-0.434011,0.774645,-0.379350
187,-1.677077,-7.353991,-5.909349,-15.143926,-32.714520,35.281757,-125.816170,5.908876,-119.110733,0.270016,-0.430272,0.778399,-0.368853
188,-1.830807,-7.353706,-5.914549,-13.573643,-29.426151,30.361111,-126.272369,7.402492,-118.916115,0.278746,-0.427260,0.781534,-0.359102
189,-1.756665,-7.450456,-5.804406,-6.160878,-21.596087,17.783812,-126.572227,8.552816,-118.706329,0.285816,-0.425229,0.783444,-0.351717
190,-1.791273,-7.643924,-5.680585,4.189914,-17.415430,9.441632,-126.565781,9.304415,-118.451134,0.291523,-0.424198,0.783588,-0.347938
191,-1.617681,-7.738878,-5.551892,10.870175,-10.823973,-2.772474,-126.262680,9.673044,-118.133492,0.296005,-0.424228,0.782029,-0.347623
192,-1.381664,-7.885345,-5.471713,13.594987,-4.593404,-14.884711,-125.790596,9.586051,-117.746712,0.298371,-0.425962,0.779029,-0.350208
193,-1.092136,-8.146287,-5.313897,18.894777,0.871809,-26.726320,-125.175049,9.057335,-117.287224,0.298677,-0.429447,0.774611,-0.355451
194,-0.832208,-8.203492,-5.148297,19.816301,4.059893,-32.017452,-124.455582,8.206585,-116.789841,0.297486,-0.434108,0.769114,-0.362650
195,-0.469355,-8.255206,-5.147016,15.309588,8.964819,-36.950981,-123.807716,7.133421,-116.320198,0.294590,-0.439590,0.763421,-0.370360
196,-0.260056,-8.449578,-5.070826,16.537861,9.853641,-35.224968,-123.231026,5.957600,-115.914177,0.290631,-0.445199,0.757843,-0.378161
197,-0.194450,-8.446914,-5.204001,8.932867,8.792479,-28.073227,-122.776848,4.903640,-115.598930,0.286727,-0.450049,0.753093,-0.384830
198,-0.296843,-8.223175,-5.436179,-6.895679,5.357149,-16.466887,-122.726852,4.151885,-115.394669,0.282813,-0.454042,0.750636,-0.387826
199,-0.516516,-8.285070,-5.753447,-19.270760,0.030502,-3.205154,-123.155731,3.828145,-115.290657,0.279388,-0.456961,0.751022,-0.386127
200,-0.645888,-8.217354,-5.819577,-21.358143,-2.608493,2.857860,-123.830162,3.847218,-115.250824,0.276949,-0.458791,0.753160,-0.381523
201,-0.871745,-7.935680,-6.033645,-29.591421,-5.558653,9.141196,-124.679245,4.089187,-115.250557,0.275104,-0.459970,0.756435,-0.374902
202,-1.059240,-7.837046,-5.927258,-23.474241,-7.976685,13.088322,-125.565720,4.522046,-115.278992,0.274246,-0.460370,0.760245,-0.367255
203,-1.195704,-7.904285,-5.915961,-13.910442,-9.318020,14.854677,-126.192017,5.068329,-115.318024,0.275143,-0.459686,0.763401,-0.360838
204,-1.220548,-7.721583,-5.781875,-7.694761,-10.720772,15.908124,-126.555359,5.679213,-115.352852,0.277534,-0.458181,0.765773,-0.355861
205,-1.255976,-7.667022,-5.635873,0.714686,-8.672567,12.789864,-126.674385,6.255892,-115.378510,0.280712,-0.456266,0.767252,-0.352627
206,-1.246102,-7.748111,-5.574531,7.080482,-5.191030,8.351522,-126.547226,6.676532,-115.403008,0.283859,-0.454299,0.767682,-0.351711
207,-1.153021,-7.718815,-5.736191,-0.793215,1.695583,2.537618,-126.449646,6.857079,-115.464302,0.285223,-0.453003,0.767933,-0.351731
208,-1.000392,-7.617258,-5.439271,5.741944,5.555818,-2.412443,-126.378883,6.786965,-115.563530,0.284745,-0.452412,0.767989,-0.352757
209,-0.897454,-7.600661,-5.359718,8.167855,7.540814,-4.792538,-126.159294,6.561068,-115.669189,0.283827,-0.451967,0.767340,-0.355470
210,-0.902867,-7.469395,-5.481830,1.053086,6.851541,-3.462983,-126.018311,6.308601,-115.782684,0.282399,-0.451761,0.766911,-0.357784
211,-0.872644,-7.614928,-5.404785,6.352402,5.744735,-5.384563,-125.903923,6.065904,-115.866394,0.281019,-0.451788,0.766459,-0.359800
213,-0.732300,-7.744359,-5.272517,13.584111,6.759122,-10.709966,-125.572906,5.726510,-115.879028,0.280091,-0.452109,0.764863,-0.363499
214,-0.741851,-7.981707,-5.540013,10.121480,7.509336,-13.852759,-125.173637,5.255110,-115.835815,0.278760,-0.453114,0.762565,-0.368070
215,-0.738347,-8.157063,-5.578945,9.603517,5.828314,-12.580131,-124.838638,4.766798,-115.764687,0.277163,-0.454526,0.760297,-0.372203
216,-0.676597,-8.339627,-5.609694,8.011016,4.969673,-9.468477,-124.540161,4.362245,-115.703362,0.275937,-0.455665,0.758314,-0.375750
217,-0.651109,-8.223138,-5.749285,-1.285064,5.494567,-5.875461,-124.428001,4.052695,-115.702339,0.274389,-0.456514,0.757346,-0.377799
218,-0.788222,-8.058493,-5.728780,-9.683691,1.536007,3.856316,-124.616287,3.958544,-115.779823,0.272775,-0.456788,0.758093,-0.377137
219,-0.780934,-7.952346,-5.697323,-11.732861,1.293977,7.142265,-124.983353,4.082132,-115.923317,0.271642,-0.456269,0.760106,-0.374524
220,-0.730378,-7.905934,-5.519858,-2.073068,2.368351,4.821504,-125.225395,4.210178,-116.088295,0.270972,-0.455291,0.761794,-0.372767
221,-0.638514,-7.686785,-5.470140,-1.361691,4.721699,0.892605,-125.293777,4.219835,-116.240128,0.270270,-0.454408,0.762637,-0.372630
222,-0.664252,-7.505636,-5.373181,0.939422,3.413757,0.876419,-125.310127,4.165547,-116.368187,0.269435,-0.453787,0.763096,-0.373051
223,-0.626542,-7.540724,-5.300234,8.609230,3.193149,-1.934250,-125.156746,4.087640,-116.448181,0.269275,-0.453171,0.762766,-0.374588
224,-0.598799,-7.391684,-5.180781,14.345152,2.873791,-3.778165,-124.776138,3.951735,-116.476562,0.269802,-0.452572,0.761372,-0.377756
225,-0.623679,-7.363355,-5.392298,8.205419,2.269032,-2.324378,-124.401161,3.819398,-116.489441,0.270380,-0.452077,0.759928,-0.380828
226,-0.715343,-7.656684,-5.347607,15.642068,-0.771641,0.748726,-124.004097,3.783635,-116.495308,0.271694,-0.451228,0.758558,-0.383622
227,-0.692869,-8.052518,-5.260719,26.618282,-0.878613,-0.450906,-123.298454,3.803036,-116.475266,0.274660,-0.449607,0.756141,-0.388157
228,-0.679888,-8.275143,-5.244058,27.966749,-0.732706,-1.187841,-122.386261,3.794676,-116.437744,0.278306,-0.447684,0.752864,-0.394108
229,-0.624881,-8.781869,-5.194039,31.252247,0.263347,-3.949656,-121.395943,3.726126,-116.385712,0.281908,-0.445860,0.749088,-0.400754
230,-0.679558,-9.053659,-5.081728,29.781559,-1.505563,-1.769068,-120.374504,3.654992,-116.318703,0.285657,-0.444037,0.745078,-0.407540
231,-0.725821,-9.163313,-5.108581,17.917625,-3.084707,0.794562,-119.574806,3.679183,-116.244370,0.289170,-0.442421,0.741980,-0.412443
232,-0.644964,-9.169081,-4.953580,9.218617,-1.955109,-1.042507,-119.117683,3.716819,-116.169151,0.291442,-0.441604,0.740120,-0.415055
233,-0.546750,-9.060027,-4.989047,-2.835557,0.566831,-4.213591,-119.007271,3.651532,-116.106209,0.291685,-0.441982,0.739337,-0.415875
234,-0.589787,-8.369854,-5.000475,-21.587593,-1.019682,-1.164729,-119.411171,3.577026,-116.055687,0.289837,-0.443622,0.740445,-0.413444
235,-0.580923,-7.588274,-4.557363,-22.424633,-3.597837,0.397456,-120.140068,3.604214,-115.982193,0.287444,-0.445829,0.742831,-0.408430
236,-0.497575,-6.799227,-4.030854,-9.586918,-4.066928,-0.810905,-120.666328,3.662848,-115.868164,0.286168,-0.447663,0.744376,-0.404487
237,-0.526435,-6.100919,-3.711385,1.286136,-7.044943,2.577336,-120.795303,3.782644,-115.723679,0.286933,-0.448471,0.744515,-0.402791
238,-0.536278,-5.730940,-3.007367,42.703602,-11.398612,4.371788,-120.047989,4.038037,-115.516640,0.292200,-0.446954,0.741602,-0.406052
239,-0.411877,-5.783655,-2.286673,100.438538,-10.065037,-3.776042,-117.640442,4.218774,-115.206802,0.303786,-0.441981,0.732110,-0.419978
240,-0.423691,-6.286692,-1.903962,140.633911,-10.074712,-6.286246,-113.598259,4.211754,-114.828949,0.320610,-0.433383,0.715401,-0.444510
241,-0.593080,-7.567486,-1.587971,166.808762,-12.422366,-2.670427,-108.453140,4.206114,-114.424561,0.341384,-0.421030,0.693233,-0.474993
242,-0.854907,-9.333930,-1.115148,177.836288,-13.433743,2.023430,-102.691833,4.310864,-114.008232,0.364546,-0.405275,0.667305,-0.507507
243,-1.168341,-11.893501,-1.393347,138.525177,-9.469277,2.893058,-97.405769,4.457490,-113.648682,0.385319,-0.389323,0.642402,-0.535982
244,-1.666821,-14.405583,-1.850225,73.216476,-4.792280,7.712870,-93.866135,4.655955,-113.429794,0.399251,-0.377416,0.625427,-0.554073
245,-2.082244,-16.655752,-2.850998,-12.139161,1.225052,8.666394,-92.845528,4.931606,-113.388397,0.404215,-0.372644,0.621181,-0.558462
246,-2.212373,-18.205872,-3.813040,-99.371170,5.372435,4.476479,-94.714874,5.142703,-113.514801,0.398580,-0.377418,0.631260,-0.547906
247,-2.348938,-18.460428,-4.655790,-171.194839,7.333071,4.759181,-99.241592,5.269228,-113.746307,0.382993,-0.390926,0.653557,-0.522835
248,-1.760256,-14.705358,-4.258617,-215.668350,9.642637,2.168466,-105.701889,5.320041,-114.048485,0.359366,-0.409852,0.683194,-0.485925
249,-0.491400,-10.589259,-4.344609,-256.578705,20.773159,-22.335846,-113.573181,4.834743,-114.414162,0.326069,-0.433301,0.715192,-0.440943
250,-0.635893,-7.318903,-4.243272,-282.213104,16.947666,-3.966271,-122.529526,4.155334,-114.775307,0.285715,-0.457588,0.747511,-0.387565
251,0.171186,-3.640315,-2.223491,-226.184235,39.980164,-37.834801,-130.967545,3.040894,-115.104301,0.242929,-0.478697,0.773436,-0.337093
252,0.827670,-0.055109,-1.635022,-482.151276,150.762527,-132.166946,-142.693497,-1.183425,-115.241020,0.163010,-0.510157,0.798347,-0.275337
253,0.408595,0.063123,-2.163954,-452.715363,67.176079,-40.472145,-158.047348,-5.672556,-114.594086,0.061869,-0.537678,0.819986,-0.186270
254,-0.338276,0.438206,-2.375280,-409.329956,-74.031784,13.599477,-172.200531,-5.598354,-114.034340,-0.003890,-0.545265,0.834085,-0.083505
255,0.376816,2.274423,-3.235410,-440.500854,13.420869,-28.427164,173.829590,-4.559809,-113.636169,-0.062679,-0.544281,0.836234,0.023268
256,0.126021,3.074140,-5.506427,-305.825775,-16.683168,-13.527869,161.537521,-4.410979,-113.059258,-0.120093,-0.538810,0.826163,0.112769
257,0.040313,3.177954,-6.925211,-160.485168,-24.989510,-11.748692,153.833939,-3.603085,-112.908913,-0.150548,-0.532059,0.815344,0.171647
258,0.348885,3.841383,-7.892409,-90.940376,-10.611963,-7.802732,149.657532,-2.925564,-112.891006,-0.165137,-0.527725,0.807747,0.204405
259,0.261672,3.983548,-8.858583,-19.908783,-11.961567,-5.400908,147.812393,-2.491125,-112.899170,-0.170576,-0.525863,0.803879,0.219430
260,0.090087,3.397296,-8.658247,29.077141,-11.491809,-5.121197,147.967575,-2.066432,-112.956215,-0.166797,-0.526585,0.803932,0.220409
261,-0.198418,3.723368,-8.706900,23.612925,-16.981148,-13.549095,148.845169,-1.499038,-112.938255,-0.158829,-0.529123,0.804841,0.216872
262,-0.406550,3.860868,-8.510241,14.884636,-19.952785,-14.206357,149.485001,-0.733160,-112.857361,-0.150659,-0.532070,0.804745,0.215845
263,-0.296627,3.755610,-8.839502,27.761274,-11.497135,-5.674949,150.195633,-0.113514,-112.834839,-0.143048,-0.534322,0.805210,0.213716
264,-0.221495,3.411716,-9.046167,42.626015,-9.362946,-0.115827,151.368668,0.236792,-112.919113,-0.134950,-0.535793,0.807330,0.207199
265,-0.262021,3.410611,-8.924953,31.928602,-11.343680,-0.099637,152.610138,0.542861,-113.077240,-0.126698,-0.536629,0.809912,0.200048
266,-0.148865,2.938301,-9.328493,53.419930,-7.331477,5.670174,154.029846,0.779041,-113.300331,-0.117991,-0.536955,0.813110,0.191334
267,-0.172657,3.000101,-9.651172,44.689049,-7.401588,3.764571,155.661148,0.934409,-113.546005,-0.108840,-0.537064,0.816740,0.180700
268,-0.464949,3.167108,-9.347053,17.100330,-17.265959,-1.100818,156.686707,1.292546,-113.752892,-0.101149,-0.537051,0.818924,0.175238
269,-0.472799,3.291963,-8.956456,4.064218,-10.349183,1.395670,157.034332,1.713451,-113.939880,-0.096214,-0.536605,0.819890,0.174869
270,-0.220133,3.365770,-9.096888,4.504053,4.842880,7.878952,157.171844,1.737684,-114.118256,-0.095125,-0.535476,0.820908,0.174146
271,-0.211667,3.795028,-8.945179,-18.903551,6.833339,6.081807,156.928207,1.467764,-114.256531,-0.097993,-0.533904,0.821464,0.174760
272,-0.131701,3.773539,-8.941388,-14.979034,8.414886,7.316842,156.361191,1.145655,-114.360374,-0.102787,-0.532202,0.821411,0.177428
273,-0.031703,3.792357,-8.970467,-10.312634,9.636553,6.146360,155.938278,0.779822,-114.444130,-0.107247,-0.530674,0.821521,0.178849
274,-0.102338,4.142665,-8.774580,-26.387472,4.083834,1.128384,155.326492,0.521483,-114.460365,-0.111906,-0.529579,0.820901,0.182058
275,-0.260014,4.318751,-8.590350,-29.308962,-4.222409,-3.034732,154.398560,0.536958,-114.431953,-0.116126,-0.528883,0.819252,0.188742
276,-0.343110,4.268408,-8.572219,-19.057449,-9.349638,-4.442039,153.592682,0.794879,-114.418518,-0.118022,-0.528575,0.817553,0.195669
277,-0.377860,4.403281,-8.393133,-21.498133,-10.172712,-4.284451,152.916534,1.150930,-114.434555,-0.118568,-0.528353,0.816043,0.202137
278,-0.376318,4.439208,-8.402468,-13.388537,-8.146710,-2.347093,152.334167,1.472892,-114.476837,-0.118877,-0.527991,0.814810,0.207796
279,-0.195609,4.324640,-8.573048,1.809460,-0.045280,2.217183,152.139572,1.594770,-114.538467,-0.118791,-0.527558,0.814590,0.209799
280,-0.022124,4.330512,-8.708853,4.545251,6.607519,5.461285,152.243881,1.438401,-114.600655,-0.119314,-0.526957,0.815258,0.208410
281,0.064748,4.369397,-8.728214,2.712594,9.892307,6.213176,152.363892,1.104494,-114.645111,-0.121068,-0.526197,0.816082,0.206081
282,0.158234,4.468271,-8.758320,0.449677,12.327994,5.702131,152.416550,0.684300,-114.649368,-0.123819,-0.525501,0.816692,0.203793
283,0.150193,4.514016,-8.701214,-3.189110,10.124645,3.278446,152.371292,0.283345,-114.608528,-0.126961,-0.525048,0.816887,0.202239
284,0.041399,4.534987,-8.683353,-3.135692,4.253549,-0.047183,152.266098,0.046128,-114.544769,-0.129247,-0.524970,0.816680,0.201832
285,-0.084510,4.556313,-8.684844,-2.073588,-2.276390,-4.104013,152.179382,0.049215,-114.468147,-0.129757,-0.525423,0.816172,0.202377
286,-0.103985,4.501825,-8.549265,-0.475752,-3.174233,-4.945555,152.137131,0.199973,-114.377167,-0.129039,-0.526289,0.815507,0.203267
287,-0.142125,4.407138,-8.520936,5.236392,-4.137050,-5.157602,152.216965,0.386323,-114.285095,-0.127508,-0.527359,0.815010,0.203451
288,-0.134266,4.240064,-8.400262,8.661455,-1.594681,-3.492669,152.449265,0.537831,-114.201691,-0.125507,-0.528471,0.814861,0.202403
289,-0.384495,4.047375,-7.767618,5.139237,-9.780277,-9.665631,152.680527,0.807107,-114.094299,-0.122710,-0.529946,0.814459,0.201880
290,-0.382793,3.524367,-6.688474,9.425357,-9.135801,-8.977670,152.925659,1.229586,-113.962257,-0.118797,-0.531852,0.813781,0.201944
291,-0.386116,2.808962,-5.868775,37.339077,-8.602507,-7.052585,153.707687,1.613652,-113.856117,-0.112607,-0.534022,0.814196,0.198052
292,-0.484539,1.923527,-5.105716,80.516212,-15.614715,-11.597017,155.675217,2.110985,-113.746773,-0.100036,-0.537384,0.816408,0.186251
293,-0.491700,1.195494,-4.503565,120.402962,-19.006966,-12.197394,159.028198,2.795521,-113.602592,-0.079549,-0.541955,0.820127,0.165376
294,-0.210181,0.611532,-4.619767,160.461380,4.812973,3.052530,163.706940,3.067164,-113.532669,-0.055475,-0.545502,0.825627,0.133005
295,-0.300311,0.194045,-5.455389,171.144547,-2.049082,2.810764,169.218048,2.996291,-113.606995,-0.029641,-0.546960,0.831467,0.092843
296,-0.398672,0.043626,-6.272383,146.292953,-9.662372,3.232239,174.488251,3.174346,-113.737076,-0.003101,-0.546835,0.835401,0.055369
297,-0.206139,0.133558,-7.200222,106.179390,1.474261,9.991938,178.674423,3.296584,-113.968391,0.017817,-0.544887,0.837936,0.025367
298,0.093444,0.038211,-8.103995,78.949318,18.154425,10.186475,-178.261826,2.968311,-114.302979,0.029981,-0.541845,0.839942,0.001309
299,-0.047224,-0.460892,-9.108445,82.539413,9.791236,3.365998,-175.583572,2.514753,-114.549294,0.039272,-0.539370,0.840902,-0.020553
300,0.484307,-0.478699,-10.550331,62.982277,34.263187,-1.468633,-173.163528,1.789083,-114.654366,0.045302,-0.538031,0.840670,-0.041770
301,0.187273,-0.868871,-10.884264,65.733597,37.686848,-3.818736,-171.020432,0.589935,-114.726593,0.046539,-0.537309,0.839729,-0.063152
302,0.029630,-0.793455,-10.345160,48.084255,23.234413,-6.785009,-169.124191,-0.439887,-114.727211,0.047890,-0.537181,0.838118,-0.081865
303,0.401358,-0.920084,-11.344074,42.366947,30.729908,-8.684282,-167.617828,-1.371732,-114.656532,0.048195,-0.537725,0.836111,-0.097199
304,0.520049,-1.195958,-11.545528,48.157120,39.429821,-4.799896,-166.107895,-2.561147,-114.702225,0.046548,-0.537672,0.834146,-0.113769
305,0.981571,-2.090348,-10.543817,73.583099,48.782940,-4.100883,-164.066513,-4.020028,-114.937202,0.045201,-0.536342,0.831832,-0.135459
306,1.416983,-2.822476,-11.951317,70.015587,28.132200,-8.026223,-161.659546,-5.303670,-115.123650,0.046843,-0.535190,0.828337,-0.158858
307,1.578376,-3.441135,-12.970493,63.387012,23.994337,-8.673622,-159.433670,-6.213186,-115.153496,0.050562,-0.534948,0.824144,-0.179054
308,1.303011,-3.705511,-12.165940,54.829391,9.812165,-4.273012,-157.463379,-6.815850,-115.159958,0.055363,-0.534662,0.820177,-0.195912
309,1.911487,-4.043856,-12.303052,28.210432,9.396107,-14.072410,-156.098602,-7.230271,-115.005791,0.059000,-0.535579,0.816482,-0.207441
310,1.105301,-3.552048,-12.215315,4.667114,-20.699377,-10.577567,-155.607941,-7.225202,-114.549088,0.062170,-0.538561,0.813453,-0.210667
311,0.838935,-2.945258,-10.819880,1.986898,-28.253260,-3.315904,-155.562286,-6.576872,-113.998192,0.068066,-0.541619,0.811701,-0.207742
312,1.325585,-3.201414,-10.209507,29.594831,-6.706270,-2.510756,-155.072159,-6.087954,-113.664825,0.074506,-0.543036,0.809923,-0.208773
313,1.249948,-3.393517,-9.333776,56.340317,-2.094334,-0.499113,-153.651825,-5.978500,-113.553841,0.082226,-0.542697,0.806907,-0.218218
314,0.594956,-3.954885,-7.608635,109.986755,-17.000483,14.405479,-150.874878,-5.589752,-113.610596,0.098002,-0.539526,0.802255,-0.235994
316,0.683492,-5.048174,-7.042818,152.008942,-7.856409,28.967411,-146.475616,-4.861863,-114.016556,0.122834,-0.531172,0.795727,-0.263792
317,0.892002,-6.349637,-6.061377,183.194031,10.782703,27.570755,-140.835999,-4.348413,-114.803223,0.150321,-0.517934,0.786320,-0.301411
318,0.359785,-7.312412,-5.726199,173.189621,-7.271886,38.890007,-134.852402,-3.653485,-115.655632,0.179380,-0.501779,0.774689,-0.340438
319,-0.183876,-8.231774,-5.900093,143.986954,-22.589064,51.703960,-129.549042,-2.203270,-116.309425,0.210049,-0.484184,0.764003,-0.371141
320,-0.002914,-8.273276,-5.837787,108.794563,-16.508026,39.843441,-125.336212,-0.598887,-116.729355,0.236870,-0.467992,0.755086,-0.393347
321,-0.035895,-8.555572,-5.638054,93.212273,-14.489986,23.907131,-121.973984,0.569826,-116.887955,0.257523,-0.455598,0.746448,-0.411009
322,-0.235832,-8.830420,-5.516200,84.245308,-16.955759,23.995852,-119.018608,1.524197,-116.839287,0.275462,-0.445484,0.737567,-0.426216
323,-0.179597,-8.962559,-5.239162,79.501625,-14.755796,13.625551,-116.285698,2.324687,-116.663040,0.291706,-0.436716,0.728368,-0.440075
324,-0.190593,-9.366658,-4.468048,92.004646,-14.042390,4.808065,-113.415611,2.805339,-116.354767,0.306734,-0.429204,0.717108,-0.455471
325,-0.298968,-9.818977,-4.311101,84.397400,-15.611869,5.874156,-110.457504,3.155058,-115.960426,0.321440,-0.422058,0.704527,-0.471365
326,-0.529363,-10.527592,-3.649781,93.452354,-20.062241,4.817362,-107.466072,3.516921,-115.456085,0.336621,-0.414947,0.691091,-0.486722
327,-0.486797,-10.513270,-3.716162,69.537910,-18.003157,-6.406483,-104.713020,3.667786,-114.838287,0.350064,-0.409702,0.677402,-0.500726
328,-0.820009,-10.670151,-2.554054,84.207687,-22.232920,2.311154,-102.109070,3.758089,-114.167130,0.362804,-0.405109,0.663738,-0.513529
329,-0.959327,-10.505891,-1.923966,87.272255,-22.821579,7.050598,-99.204193,4.049809,-113.458580,0.377817,-0.398383,0.648898,-0.526761
330,-1.096151,-10.125488,-2.345961,49.780457,-18.260521,10.903977,-96.874161,4.441445,-112.822105,0.390913,-0.392216,0.637049,-0.536211
331,-1.031330,-10.030278,-3.386750,-14.902536,-9.801514,8.781605,-96.258400,4.821697,-112.395317,0.397024,-0.390575,0.633849,-0.536711
332,-1.287370,-9.909671,-2.467785,-10.052251,-8.473041,19.999170,-96.652229,5.334229,-112.147301,0.399531,-0.390764,0.636375,-0.531700
333,-1.249362,-9.892098,-2.793216,-32.442364,-3.138608,18.604582,-97.348831,5.996368,-112.032562,0.401165,-0.390546,0.641154,-0.524844
334,-1.056135,-10.339782,-3.408891,-55.329727,3.583075,10.154719,-98.819603,6.470241,-112.108948,0.398295,-0.392907,0.649460,-0.514964
335,-1.201242,-10.647281,-2.873487,-36.023769,4.353526,12.652062,-100.364357,6.823318,-112.305763,0.393990,-0.395400,0.658009,-0.505426
336,-1.380799,-10.402551,-2.361203,-10.690226,5.038016,21.408215,-101.175018,7.352076,-112.566826,0.392901,-0.394114,0.663913,-0.499522
337,-1.153988,-10.641427,-2.932171,-20.548733,12.845319,9.517500,-101.747993,7.798601,-112.963356,0.391631,-0.391610,0.668957,-0.495745
338,-0.962139,-11.029440,-3.159873,-25.922878,19.205751,-4.659938,-102.595726,7.765018,-113.508400,0.386200,-0.391454,0.674388,-0.492761
339,-0.862428,-10.859002,-3.090618,-30.489948,23.733398,-15.076112,-103.617599,7.282362,-114.137009,0.377339,-0.393452,0.679681,-0.490759
340,-1.007157,-10.872254,-3.176842,-39.095314,25.006973,-14.973536,-104.857666,6.597148,-114.806602,0.366361,-0.396724,0.685544,-0.488281
341,-0.867679,-10.773494,-2.674818,-29.640537,24.418921,-21.955406,-106.071381,5.784154,-115.439560,0.354814,-0.400526,0.690863,-0.486204
342,-0.956984,-10.731882,-3.280011,-47.649235,24.842316,-19.071394,-107.414047,4.893244,-116.032333,0.342423,-0.405101,0.696409,-0.483378
343,-1.145033,-10.716002,-3.460598,-52.023357,21.770840,-9.465584,-109.121719,4.197659,-116.621231,0.329782,-0.409633,0.703952,-0.477384
344,-1.190049,-10.571321,-3.806390,-58.425388,17.914791,-2.551347,-111.000862,3.782668,-117.173508,0.318264,-0.413355,0.712698,-0.468943
345,-0.880910,-10.588532,-4.223101,-64.700974,18.296352,-7.046232,-113.083862,3.407679,-117.672417,0.306404,-0.417515,0.722062,-0.458720
346,-0.595892,-10.602858,-4.965132,-77.742317,19.848946,-10.636099,-115.481941,2.877423,-118.131645,0.292500,-0.423074,0.732018,-0.446768
347,-0.331197,-10.490700,-5.130017,-76.368530,20.543797,-14.655918,-118.067162,2.197782,-118.543068,0.277000,-0.429578,0.741986,-0.433810
348,-0.264513,-10.400676,-5.982536,-88.487961,19.404612,-13.179105,-120.824226,1.466786,-118.895508,0.260554,-0.436559,0.752021,-0.419515
349,-0.419703,-10.710337,-6.544845,-88.483337,15.268773,-4.163900,-123.778610,0.913819,-119.228279,0.244391,-0.442898,0.762757,-0.402884
350,-0.209788,-10.750248,-6.889798,-83.533295,16.461821,-8.054624,-126.647438,0.443287,-119.540581,0.229016,-0.448374,0.772915,-0.386155
351,-0.615357,-10.822673,-7.121724,-71.363029,6.090106,3.556136,-129.228531,0.153155,-119.791725,0.216074,-0.452646,0.781868,-0.370278
352,-0.442861,-10.329391,-7.626216,-74.122597,3.990074,3.857769,-131.652832,0.138364,-119.996956,0.205714,-0.455747,0.790317,-0.354083
353,0.074574,-10.310405,-7.555537,-60.058281,11.624833,-1.155288,-133.888382,-0.005485,-120.218178,0.195129,-0.458560,0.797716,-0.339554
354,-0.189927,-9.863029,-7.378457,-51.727566,2.775934,8.574211,-135.750473,-0.086375,-120.477081,0.186347,-0.460085,0.804037,-0.327294
355,-0.410894,-8.996082,-7.590667,-61.486084,-9.216315,14.015214,-137.637375,0.250153,-120.675644,0.180580,-0.460765,0.810641,-0.312964
356,0.095217,-8.513561,-7.828675,-64.078972,2.671215,2.918787,-139.730637,0.517633,-120.814056,0.173678,-0.462298,0.817173,-0.297228
357,-0.215644,-8.484065,-7.617480,-40.653194,-1.076253,4.776802,-141.476532,0.578307,-120.932518,0.166755,-0.463888,0.822171,-0.284669
358,-0.811906,-7.357926,-7.614778,-53.775604,-19.295717,7.773410,-143.049484,0.974840,-120.889503,0.163325,-0.465478,0.826347,-0.271671
359,-0.332020,-6.546598,-7.758832,-74.323753,-4.696706,-10.855766,-145.178650,1.267667,-120.612007,0.157383,-0.469768,0.830473,-0.254681
360,-0.006052,-6.330268,-7.483617,-64.917572,12.556385,-22.326481,-147.491837,0.851513,-120.228416,0.145647,-0.476540,0.833379,-0.239115
361,-0.172981,-5.643829,-7.000453,-70.586296,7.320843,-26.314423,-149.745316,0.146462,-119.712822,0.132115,-0.484479,0.834971,-0.225055
362,-0.398989,-4.596685,-6.753458,-109.194191,-8.885441,-23.687197,-152.740158,-0.232116,-118.969482,0.117959,-0.493878,0.836989,-0.204010
363,-0.185590,-3.685464,-6.101480,-137.620621,-1.815520,-26.292896,-156.853271,-0.424067,-118.136528,0.100013,-0.504199,0.839953,-0.173952
364,-0.139599,-2.931148,-5.850434,-131.707016,-1.193601,-25.521971,-161.343307,-0.682980,-117.315399,0.079288,-0.514087,0.842263,-0.141495
365,-0.174670,-2.124881,-5.350938,-123.554565,-6.095774,-23.902407,-165.601364,-0.800698,-116.492844,0.060056,-0.522850,0.843134,-0.110209
366,-0.381528,-1.406844,-5.069450,-122.909859,-24.112577,-15.790164,-169.710983,-0.451097,-115.738678,0.044370,-0.530004,0.843232,-0.078019
367,0.061443,-0.946988,-4.536131,-96.197319,11.414340,-17.038168,-173.360458,-0.321095,-115.161545,0.028684,-0.535345,0.842641,-0.050383
368,0.181837,-0.592883,-4.741554,-64.782692,21.003262,-14.066954,-176.047256,-0.906864,-114.704781,0.011945,-0.539363,0.841330,-0.033304
369,0.418011,-0.223966,-4.858150,-64.842995,35.665459,-14.506184,-178.217346,-1.873984,-114.279686,-0.005295,-0.542666,0.839645,-0.021937
370,0.213633,0.118515,-5.732323,-66.041672,7.989825,-10.414844,179.585968,-2.606108,-113.875259,-0.021029,-0.545338,0.837900,-0.009379
371,0.608896,0.582177,-6.525645,-65.870438,21.848310,-8.258426,177.372635,-3.093981,-113.546272,-0.035135,-0.547094,0.836322,0.004382
372,0.665994,0.888964,-7.596470,-52.568909,14.154181,-6.432393,175.382492,-3.676834,-113.265907,-0.048916,-0.548192,0.834768,0.015997
373,0.728166,1.091518,-8.539589,-36.791904,6.710528,-3.848632,173.879974,-4.006851,-113.061859,-0.058542,-0.548807,0.833514,0.025251
374,0.726746,1.231651,-9.159806,-23.112123,0.450097,-0.535156,172.875595,-4.116819,-112.974922,-0.064172,-0.548836,0.832849,0.031977
375,0.851949,1.306933,-9.239410,-12.286761,3.991001,1.554803,172.286163,-4.192198,-112.981934,-0.067538,-0.548398,0.832712,0.035902
376,0.718817,1.381059,-9.496620,-4.767065,-2.503761,1.383883,172.005264,-4.223372,-113.027412,-0.069093,-0.547879,0.832841,0.037820
377,0.740167,1.263396,-9.319423,3.054009,-0.819765,1.236962,171.980423,-4.174564,-113.078415,-0.068841,-0.547527,0.833073,0.038266
378,0.598508,0.794134,-9.063023,27.932707,-3.622114,-3.495662,172.494904,-4.096098,-113.051003,-0.065822,-0.548081,0.833101,0.034888
379,0.605868,0.893628,-8.611840,27.286074,-0.154439,-9.223847,173.400787,-4.007499,-112.847847,-0.060895,-0.550113,0.832375,0.028619
380,0.436286,0.655721,-8.076680,35.627186,-4.748300,-10.266183,174.427475,-3.891402,-112.532585,-0.055182,-0.552985,0.831082,0.021570
381,0.310787,0.539038,-7.755137,38.468956,-9.254772,-12.131990,175.639282,-3.626754,-112.180473,-0.047457,-0.556204,0.829573,0.013918
382,0.331670,0.280879,-7.309502,47.796871,-6.491011,-8.146245,177.057434,-3.343315,-111.859718,-0.038534,-0.559164,0.828146,0.004923
383,0.099361,0.318666,-7.160285,39.631031,-20.450058,-1.939137,178.506058,-2.888844,-111.708466,-0.028175,-0.560802,0.827463,-0.003362
384,0.075383,-0.144202,-7.180849,57.817608,-21.677629,6.848298,-179.865646,-2.188486,-111.800423,-0.015156,-0.560552,0.827898,-0.011677
385,0.243574,-0.034504,-7.266140,43.308064,-9.479433,5.382420,-178.173721,-1.666894,-111.994644,-0.003146,-0.559294,0.828689,-0.021344
386,0.195706,-0.198946,-7.166247,44.904381,-9.379036,5.065266,-176.699524,-1.345275,-112.153603,0.006333,-0.558092,0.829196,-0.030443
387,0.260306,-0.183794,-7.308629,40.624676,-3.836177,2.288408,-175.272018,-1.116990,-112.260399,0.014900,-0.557141,0.829336,-0.039674
388,0.580170,-0.286950,-6.934570,38.642441,19.520214,-6.859311,-173.952240,-1.384155,-112.208580,0.019405,-0.557395,0.828483,-0.050511
389,0.450280,-0.691524,-7.052027,58.505608,12.426794,-8.236447,-172.338806,-1.942095,-112.019905,0.023323,-0.558658,0.826531,-0.064837
390,0.447057,-1.886494,-7.088342,119.645279,10.422702,-10.581422,-169.379913,-2.367646,-111.772324,0.034860,-0.559896,0.823124,-0.088141
391,0.374868,-2.131717,-7.565306,112.413887,2.765697,-17.494499,-165.534012,-2.683808,-111.365639,0.051774,-0.561569,0.817470,-0.117057
392,-0.133406,-3.531370,-8.426831,133.886169,-21.572317,-16.568558,-161.462570,-2.541914,-110.733871,0.073502,-0.563700,0.809836,-0.144934
393,0.005279,-3.675450,-9.876996,98.139900,-14.035429,-17.693451,-157.630463,-2.184728,-109.998726,0.095920,-0.565618,0.801320,-0.169591
394,-0.318700,-3.724928,-10.197149,57.216747,-24.396320,-12.388191,-155.069199,-1.797957,-109.281601,0.112403,-0.567751,0.794257,-0.184878
395,-0.606130,-3.688850,-11.225393,21.308292,-35.607639,-1.928775,-153.776123,-0.997132,-108.637962,0.125429,-0.569647,0.789918,-0.189204
396,-0.010578,-4.792561,-11.805970,30.423737,-10.732775,-2.148983,-152.917816,-0.336155,-108.234283,0.134927,-0.570391,0.787289,-0.191377
397,0.534068,-3.653719,-12.093733,-10.560436,9.672395,-4.436138,-152.587601,-0.371656,-108.126785,0.136508,-0.570796,0.786155,-0.193693
398,-0.045624,-4.174618,-11.579695,-1.481041,-11.351518,10.457838,-152.788025,-0.300598,-108.202560,0.135870,-0.570397,0.786957,-0.192055
399,0.599846,-4.650249,-11.677737,20.443245,8.397076,-0.907951,-152.471603,-0.183595,-108.320847,0.138049,-0.569012,0.787156,-0.193788
400,1.297779,-4.454412,-11.202319,19.819332,34.956295,-15.278090,-151.799408,-0.948222,-108.419350,0.135959,-0.568816,0.785517,-0.202302
401,0.996182,-3.696208,-10.233129,10.114041,24.650646,-10.330445,-151.297836,-2.024905,-108.515900,0.130869,-0.569376,0.783646,-0.211147
402,1.399141,-4.698224,-8.794323,69.856743,36.838177,-16.706959,-149.960220,-3.138879,-108.625572,0.129638,-0.568984,0.780030,-0.225841
403,1.253248,-4.866072,-8.206960,88.761238,32.509380,-13.960313,-147.306488,-4.390566,-108.794525,0.133843,-0.566984,0.773356,-0.250070
404,1.247884,-5.951447,-7.228215,129.388916,28.397585,-3.903385,-143.645233,-5.394172,-109.128098,0.144246,-0.562208,0.764735,-0.279813
405,0.113100,-6.885005,-6.234167,166.814316,-10.649042,31.643723,-138.664856,-5.334588,-109.680542,0.167429,-0.551642,0.754649,-0.313311
406,0.169827,-8.172023,-5.607018,188.392990,-5.670949,36.526909,-132.706741,-4.346836,-110.322556,0.200455,-0.535411,0.742619,-0.348813
407,-0.710046,-8.671268,-5.881742,148.299408,-27.556885,61.419899,-127.073433,-2.745899,-110.942085,0.234846,-0.516082,0.731254,-0.379176
408,-0.327955,-9.258818,-5.208989,139.029251,-12.167456,45.147099,-122.282478,-0.913821,-111.425293,0.266120,-0.496548,0.721425,-0.402700
409,-0.516120,-9.040756,-5.064092,115.953987,-10.902828,38.924374,-118.038635,0.486112,-111.789658,0.291636,-0.478910,0.711105,-0.424174
410,-0.094250,-8.909945,-4.950459,88.426788,0.212288,16.849779,-114.641304,1.396598,-112.042610,0.310246,-0.464924,0.701606,-0.441974
411,-0.649861,-9.111731,-4.893070,69.973183,-5.464243,31.022017,-112.010254,2.162500,-112.273804,0.324483,-0.453133,0.694207,-0.455476
412,-0.211106,-9.243406,-4.258190,75.303047,2.139676,8.875826,-109.598709,2.803060,-112.462234,0.336930,-0.442345,0.686910,-0.467935
413,-0.230694,-9.942578,-3.858654,85.406792,1.755298,4.153549,-106.927696,2.988863,-112.587631,0.347689,-0.432812,0.676800,-0.483455
414,-0.705080,-10.251447,-3.706996,72.920181,-4.860999,19.767736,-104.293663,3.386888,-112.644104,0.359547,-0.422563,0.666837,-0.497489
415,-0.431839,-10.448443,-3.631687,56.173481,-3.970428,9.667069,-102.141609,3.898317,-112.616508,0.370380,-0.413501,0.658740,-0.507836
416,-0.267849,-10.550662,-3.179121,50.739544,-4.649000,-1.487130,-100.352386,4.060233,-112.500992,0.378197,-0.407551,0.650790,-0.517051
417,-0.416696,-10.766543,-2.409861,62.855228,-8.384118,-0.625426,-98.444054,4.061330,-112.279106,0.385959,-0.402433,0.641315,-0.527066
419,-0.514932,-10.443340,-2.338289,43.257965,-10.335423,4.237562,-96.654381,4.162258,-111.977226,0.394143,-0.397525,0.632267,-0.535597
420,-0.360813,-10.842571,-2.095966,34.409328,-9.201713,-5.073159,-95.336433,4.183024,-111.651932,0.400336,-0.394637,0.625012,-0.541620
421,-0.494951,-10.260592,-1.273473,41.851368,-9.477102,0.097492,-94.042717,4.126015,-111.333221,0.405997,-0.392099,0.617589,-0.547729
422,-0.517555,-9.964615,-1.242037,25.216204,-9.187144,-1.336448,-92.902542,4.124065,-111.021233,0.411375,-0.389716,0.611044,-0.552737
423,-0.825800,-10.251887,-1.931052,-17.687635,-6.519383,9.332462,-92.758400,4.270452,-110.765556,0.413841,-0.389815,0.609951,-0.552033
424,-0.890692,-10.253983,-1.277535,-10.020470,-4.875889,8.577041,-93.206543,4.579186,-110.591461,0.414715,-0.390796,0.612501,-0.547844
425,-0.904151,-9.637415,-0.888428,-7.710569,-2.514938,11.359980,-93.493423,4.918051,-110.487419,0.415952,-0.390676,0.614595,-0.544637
426,-1.001015,-10.790189,-1.213336,-14.680826,1.023808,6.494840,-93.866005,5.216644,-110.481575,0.416225,-0.390549,0.617287,-0.541466
427,-0.798808,-10.926644,-0.869773,-9.548127,4.342174,-6.067042,-94.277969,5.217495,-110.571953,0.414397,-0.391550,0.619541,-0.539567
428,-0.923160,-10.614714,-0.199148,10.081661,5.436023,-3.577347,-94.282539,5.045144,-110.723457,0.412787,-0.391616,0.619540,-0.540753
429,-0.849208,-10.859267,-0.933747,-16.998928,10.232742,-8.005376,-94.419128,4.833060,-110.970360,0.410068,-0.391839,0.620364,-0.541715
430,-1.098436,-11.017268,-1.013094,-26.624636,13.040541,-0.760684,-95.177193,4.654590,-111.345566,0.404781,-0.393392,0.624670,-0.539614
431,-0.868522,-10.695375,-0.943999,-29.633137,14.861316,-6.964628,-96.150894,4.480504,-111.796509,0.398405,-0.395203,0.630258,-0.536529
432,-1.430074,-10.623963,-1.369967,-42.328964,15.094420,16.363043,-97.390709,4.577159,-112.312691,0.392229,-0.396145,0.638108,-0.531078
433,-1.182229,-10.425771,-1.906747,-60.135132,17.096720,10.051843,-99.148262,4.935414,-112.906929,0.385335,-0.397015,0.649291,-0.521840
434,-1.116238,-10.311502,-1.923530,-55.695766,17.593105,9.114668,-101.133133,5.147335,-113.535759,0.376759,-0.398995,0.661028,-0.511759
435,-0.873082,-10.327934,-2.601846,-68.296097,19.194286,-1.197649,-103.255386,5.147016,-114.165276,0.366554,-0.402217,0.672611,-0.501452
436,-0.824444,-10.431415,-3.246495,-81.104179,18.358383,-7.608078,-105.793724,4.847394,-114.737762,0.353403,-0.408193,0.684820,-0.489393
437,-0.484722,-10.407592,-3.586107,-84.179405,18.667841,-20.650534,-108.582260,4.214487,-115.189972,0.337784,-0.416734,0.696588,-0.476445
438,-0.355674,-10.599923,-4.224873,-94.616432,16.895430,-25.316559,-111.578934,3.291256,-115.486298,0.320034,-0.427534,0.707674,-0.462591
439,-0.404367,-10.498117,-4.854654,-108.156242,11.986590,-21.495663,-114.961922,2.384342,-115.620338,0.301168,-0.439639,0.719405,-0.445503
440,-0.488413,-10.269367,-5.322696,-115.229973,6.130517,-13.504548,-118.681053,1.727658,-115.624298,0.282585,-0.451675,0.732016,-0.424603
441,-0.422629,-10.049397,-6.011409,-121.675499,4.510818,-6.583401,-122.624046,1.349584,-115.603203,0.264515,-0.462627,0.745294,-0.400680
442,-0.554082,-10.042366,-6.687660,-121.506393,1.333157,5.761562,-126.673363,1.283922,-115.673401,0.247344,-0.471439,0.759142,-0.374526
443,-0.486713,-9.598468,-7.125618,-114.115379,4.021715,8.583540,-130.600296,1.416324,-115.888733,0.231278,-0.477770,0.772674,-0.348168
444,-0.543261,-9.663168,-7.711412,-96.748756,6.005225,14.302091,-134.120407,1.586641,-116.268761,0.216577,-0.481548,0.784897,-0.324259
445,-0.254348,-9.501213,-8.148551,-78.983757,14.608579,11.577800,-137.062042,1.644845,-116.816162,0.203092,-0.482993,0.795370,-0.304727
446,-0.284841,-9.398440,-8.248758,-57.002827,13.706464,12.690697,-139.344009,1.564171,-117.433792,0.191312,-0.482829,0.803774,-0.290213
447,-0.227478,-9.566937,-8.049581,-19.668932,13.001587,13.192575,-140.637939,1.501596,-118.050316,0.183893,-0.480771,0.809508,-0.282381
448,-0.336294,-9.217293,-8.232762,-7.967652,7.420214,14.099432,-141.113541,1.526239,-118.618225,0.180685,-0.477443,0.813084,-0.279813
449,0.080012,-8.578656,-7.977861,-6.263434,18.452566,-2.533460,-141.361328,1.311084,-119.038452,0.177108,-0.475392,0.815138,-0.279616
450,-0.103857,-8.253979,-7.674312,2.390370,12.729347,-6.647222,-141.428986,0.809442,-119.243530,0.172770,-0.475304,0.815454,-0.281552
451,-0.723401,-7.919142,-7.897815,-9.028038,-9.819272,8.663754,-141.540192,0.792524,-119.300339,0.172049,-0.475109,0.815939,-0.280917
452,-0.324671,-6.665732,-8.179214,-59.626762,-1.352164,-12.387735,-142.682098,0.901282,-119.136772,0.168470,-0.477703,0.818164,-0.272076
453,-0.565130,-6.356375,-7.492615,-57.593197,-7.295843,-7.257286,-144.630447,0.822964,-118.789688,0.160545,-0.483169,0.821111,-0.257972
454,-0.841644,-6.109829,-7.478685,-56.504772,-22.476353,2.330198,-146.525162,1.185803,-118.440422,0.155880,-0.487473,0.824224,-0.242336
455,-0.427079,-5.186814,-7.599241,-88.984856,-8.844754,-14.290534,-148.938065,1.520584,-117.990746,0.148871,-0.493210,0.827586,-0.222898
456,-0.149177,-4.480867,-6.852467,-98.834106,5.275067,-28.273586,-152.051834,1.222860,-117.348732,0.134386,-0.502285,0.830238,-0.200886
457,-0.674689,-4.056626,-6.640423,-100.201828,-21.320095,-9.148828,-155.352783,1.185402,-116.675766,0.120629,-0.510907,0.832660,-0.176351
458,-0.196701,-3.012671,-6.917485,-155.962265,-3.148897,-20.978670,-159.602066,1.371257,-116.048683,0.103751,-0.519356,0.835932,-0.143954
459,0.026898,-1.881002,-6.189318,-200.432236,12.912308,-25.597689,-165.516724,0.985042,-115.365982,0.074593,-0.529404,0.838910,-0.101966
460,-0.414458,-1.488335,-5.894575,-172.196533,-19.051432,-7.176253,-171.698563,0.979412,-114.818565,0.046167,-0.536681,0.840632,-0.056390
461,-0.263920,-0.601097,-5.897889,-169.250885,-10.819547,-5.718659,-177.365524,1.458413,-114.542862,0.023131,-0.540227,0.841109,-0.012458
462,0.183086,-0.239229,-5.493447,-132.349030,27.103609,-6.450182,177.625168,1.187844,-114.344620,-0.002525,-0.542149,0.839963,0.023031
463,0.016320,0.200058,-5.088994,-93.596008,16.012880,-3.891122,173.868637,0.483459,-114.134308,-0.025539,-0.543062,0.837977,0.047177
464,0.000662,0.384359,-5.593408,-42.200130,9.528371,-3.499275,171.608490,0.077311,-113.957481,-0.039307,-0.543531,0.836194,0.061713
465,0.174084,0.860757,-5.848163,-48.221363,19.719185,-2.416085,170.101456,-0.388619,-113.783180,-0.049955,-0.543940,0.834670,0.070420
466,0.290002,1.370582,-6.497480,-50.969669,21.552691,-1.546340,168.446106,-1.052010,-113.591225,-0.062762,-0.544050,0.832944,0.079216
467,0.283985,1.907162,-7.334283,-49.543922,13.164332,-3.558886,166.766479,-1.598618,-113.384056,-0.074851,-0.544085,0.830966,0.088681
468,0.329137,1.914338,-8.226163,-19.320564,8.285601,-3.115272,165.613174,-1.919170,-113.189659,-0.082801,-0.544396,0.829266,0.095370
469,0.269490,2.225000,-8.866512,-7.044638,0.111274,-4.855471,165.168182,-2.021367,-113.026031,-0.085791,-0.545148,0.828162,0.097979
470,0.251873,2.436867,-9.148216,-2.680141,-3.123386,-6.089201,165.000580,-1.926040,-112.862419,-0.086044,-0.546302,0.827191,0.099524
471,0.128143,2.462427,-9.385862,6.630084,-10.884465,-8.254460,165.061127,-1.638806,-112.691628,-0.083837,-0.547873,0.826280,0.100340
472,0.087335,2.466077,-9.266471,8.192373,-11.910004,-6.981470,165.304581,-1.206714,-112.543098,-0.079694,-0.549547,0.825551,0.100559
473,0.025720,2.526989,-9.105896,3.085403,-9.802938,-5.184227,165.490738,-0.805456,-112.438057,-0.076007,-0.550817,0.824989,0.101080
474,-0.079288,2.395447,-8.683567,2.656096,-12.473849,-3.255580,165.585999,-0.410795,-112.394684,-0.072749,-0.551561,0.824638,0.102268
475,-0.171129,2.189456,-7.954508,7.415507,-15.298076,-1.319739,165.754059,0.056519,-112.435402,-0.068542,-0.551798,0.824708,0.103335
476,-0.095780,1.517089,-7.001412,39.886108,-9.771652,1.979978,166.541977,0.459525,-112.545990,-0.061746,-0.551798,0.825696,0.099663
477,-0.168308,0.781205,-6.107245,85.473221,-12.390876,0.888584,168.629684,0.810026,-112.670753,-0.049057,-0.552173,0.827794,0.086346
478,-0.253277,0.515447,-5.423352,98.376770,-18.488770,-1.230770,171.690613,1.318198,-112.752281,-0.030562,-0.552941,0.829986,0.066677
479,-0.377889,0.010145,-5.141013,120.387009,-25.936329,0.953618,175.330978,2.053962,-112.832237,-0.007609,-0.553218,0.831848,0.043835
480,-0.042089,-0.898387,-5.219322,169.762833,3.793692,4.643242,-179.844025,2.417684,-112.940643,0.018338,-0.552222,0.833429,0.010519
481,-0.229794,-1.039894,-5.812137,147.875275,-7.196899,4.317828,-174.567261,2.480027,-113.075127,0.044159,-0.549786,0.833680,-0.027608
482,-0.333380,-1.008916,-6.823658,95.108650,-13.497693,7.152574,-170.532883,2.846283,-113.224167,0.066065,-0.546547,0.832987,-0.055261
483,-0.581235,-1.873440,-7.578676,103.590721,-19.729197,9.677089,-167.234238,3.442189,-113.396088,0.085958,-0.542611,0.832066,-0.076486
484,-0.163614,-2.320871,-8.577817,99.777260,7.365996,-0.820255,-163.853821,3.678124,-113.488899,0.103543,-0.538891,0.829991,-0.099953
485,-0.149790,-2.285856,-9.801952,53.484512,13.290970,-5.245763,-161.301544,3.320122,-113.488426,0.112951,-0.536931,0.827357,-0.120115
486,-0.073615,-1.999995,-10.161659,2.248786,16.373966,-14.542743,-160.364975,2.745320,-113.336540,0.113388,-0.537871,0.825276,-0.129451
487,0.023744,-2.137053,-10.392263,-0.847096,21.814312,-18.874599,-160.328506,1.959709,-113.023300,0.108294,-0.541142,0.823231,-0.133149
488,0.524892,-2.067072,-10.493473,-5.554280,36.026867,-29.384846,-160.424835,0.781723,-112.589172,0.099925,-0.545869,0.820418,-0.137686
489,0.547610,-2.002266,-10.153396,-3.515019,30.681044,-31.311306,-160.575165,-0.603658,-112.006546,0.090023,-0.551860,0.816678,-0.142768
490,0.483115,-2.144419,-9.677405,28.697489,20.051239,-35.463226,-160.170792,-1.773813,-111.242455,0.084628,-0.558361,0.811395,-0.150697
491,0.198658,-3.104379,-9.198560,100.309456,6.152213,-25.771961,-158.050018,-2.546974,-110.447426,0.090640,-0.563279,0.803750,-0.168782
492,0.340099,-4.242650,-8.940284,151.746002,8.654978,-22.361317,-153.882721,-3.102854,-109.822067,0.108257,-0.564782,0.793291,-0.199978
493,0.796024,-4.897653,-8.651401,161.465256,22.871681,-26.806540,-148.701004,-3.958813,-109.358070,0.128728,-0.563994,0.779824,-0.239196
494,0.016935,-5.823336,-7.940242,171.087234,-6.599275,-4.453510,-143.193344,-4.475302,-109.073608,0.152851,-0.560128,0.765093,-0.278436
495,-0.189743,-7.387784,-7.440741,176.837814,-14.220216,17.376282,-137.412170,-4.071413,-109.033119,0.183715,-0.551002,0.750725,-0.314734
496,0.277001,-8.214258,-7.357080,150.899048,-0.972430,15.790430,-131.950180,-3.506008,-109.250244,0.212807,-0.538679,0.737185,-0.347990
497,0.504925,-8.610338,-7.132344,121.235291,3.314643,13.313107,-127.404533,-3.162215,-109.587082,0.235112,-0.526648,0.725189,-0.376119
498,-0.240551,-9.167581,-6.957431,105.861008,-14.749990,39.488201,-123.608025,-2.337692,-109.942253,0.256425,-0.513665,0.716011,-0.397142
499,0.373822,-9.694775,-7.409712,77.065590,-2.856577,24.811863,-120.553062,-1.275165,-110.272270,0.275475,-0.500915,0.709359,-0.412321
500,0.435531,-9.323755,-7.260516,56.249096,2.167523,14.735929,-118.326729,-0.697117,-110.584160,0.287567,-0.491454,0.704063,-0.424351
501,0.481504,-9.386522,-6.937192,41.133694,3.953943,8.784097,-116.701439,-0.397139,-110.854729,0.295321,-0.484551,0.699911,-0.433728
502,0.244134,-9.852325,-6.825695,27.341694,1.390013,15.169771,-115.559242,-0.078172,-111.110092,0.301097,-0.478811,0.697468,-0.440022
503,0.294220,-9.908369,-6.213106,28.098873,3.196256,9.977308,-114.635857,0.268629,-111.357964,0.306084,-0.473517,0.695848,-0.444849
504,0.237514,-10.104351,-5.716846,36.908115,3.174725,5.989450,-113.553726,0.468230,-111.563126,0.310936,-0.468574,0.692990,-0.451133
505,0.252284,-10.211782,-5.235161,42.929359,2.947338,2.779647,-112.224594,0.563426,-111.713531,0.316316,-0.463648,0.688578,-0.459167
506,0.135474,-10.631736,-4.715128,51.187004,-0.770586,2.440317,-110.656914,0.631327,-111.778778,0.322765,-0.458609,0.682681,-0.468452
507,-0.020703,-10.002052,-4.086913,53.263020,-4.627663,-0.157445,-108.915657,0.698015,-111.707069,0.330387,-0.453793,0.675388,-0.478298
508,0.068210,-10.080991,-3.493088,57.788330,-2.968606,-5.786134,-107.063553,0.643460,-111.555923,0.338007,-0.449509,0.666820,-0.488922
509,-0.270196,-10.075946,-3.105559,53.323692,-5.021140,7.569644,-105.210861,0.708964,-111.435524,0.346129,-0.444389,0.658555,-0.499018
510,-0.264716,-10.176111,-2.404986,60.766243,-3.861198,7.529934,-103.308586,0.989103,-111.355881,0.355389,-0.437773,0.650719,-0.508545
511,-0.198611,-9.752037,-2.067369,58.481403,-1.317718,2.065884,-101.320793,1.163504,-111.305481,0.364125,-0.431023,0.642145,-0.518924
512,-0.229278,-10.150048,-1.557514,64.390785,-0.521436,4.174103,-99.273338,1.271056,-111.293106,0.372411,-0.424010,0.633062,-0.529865
513,-0.590514,-10.167417,-1.860463,39.998760,-3.218949,16.659710,-97.533836,1.623381,-111.282433,0.380749,-0.416677,0.626027,-0.538053
514,-0.102973,-9.924070,-1.372224,40.805134,-2.186457,-4.175167,-96.185501,1.840844,-111.220070,0.387077,-0.411448,0.620126,-0.544358
515,-0.421347,-9.811314,-1.691328,16.175459,-3.137403,6.988829,-95.233292,1.896446,-111.134354,0.391186,-0.408405,0.615456,-0.548993
516,-0.682043,-9.891464,-1.655503,4.101731,-2.952908,21.386305,-94.893097,2.376602,-111.075806,0.395193,-0.405186,0.615171,-0.548827
517,-0.618518,-9.715933,-1.438940,3.424873,-1.284312,16.782436,-94.766792,3.016432,-111.059761,0.399052,-0.401666,0.616569,-0.547051
518,-0.554307,-9.687059,-1.294324,2.517916,0.159771,11.093941,-94.668816,3.480983,-111.079315,0.401715,-0.398907,0.617653,-0.545896
519,-0.814892,-9.901811,-1.318795,-2.335077,1.504463,18.892447,-94.670181,3.976822,-111.147789,0.403953,-0.396067,0.619470,-0.544252
520,-0.723804,-10.141685,-0.880124,10.728719,2.328777,12.723081,-94.538109,4.496884,-111.254219,0.406588,-0.392416,0.620845,-0.543366
522,-0.796996,-10.414272,-0.916726,5.759775,3.247311,8.051096,-94.272942,4.835052,-111.373306,0.408668,-0.389124,0.621051,-0.543939
523,-0.718101,-10.497803,-0.979086,-3.855051,6.045601,0.036433,-94.255241,4.957901,-111.538414,0.408575,-0.387544,0.621909,-0.544156
524,-0.707285,-10.643349,-0.681030,-1.128097,6.380298,-2.891329,-94.355675,4.894784,-111.742180,0.406943,-0.387114,0.622879,-0.544575
525,-0.834450,-10.543607,-0.919393,-16.079041,7.400445,-1.209546,-94.661400,4.808634,-111.966621,0.404399,-0.387410,0.624823,-0.544032
526,-0.787897,-10.478085,-1.116325,-30.516880,8.952067,-2.577280,-95.460159,4.721506,-112.233315,0.399977,-0.389193,0.629241,-0.540928
527,-0.631864,-10.216650,-1.188454,-37.962715,9.790099,-7.517614,-96.625053,4.521134,-112.527145,0.393569,-0.392606,0.635112,-0.536281
528,-0.861509,-10.195313,-1.289193,-40.939686,7.689177,3.893723,-97.961845,4.424123,-112.809555,0.387138,-0.396064,0.642015,-0.530164
529,-0.631488,-10.115559,-1.939895,-61.789223,10.793046,-2.575078,-99.697578,4.398463,-113.117035,0.379557,-0.400261,0.650974,-0.521498
530,-0.500709,-10.188173,-2.301752,-70.202881,11.238819,-6.777630,-101.921494,4.176340,-113.450089,0.369005,-0.406680,0.661531,-0.510709
531,-0.624906,-10.007814,-2.824032,-82.417595,9.049603,-5.074186,-104.484016,3.906661,-113.735252,0.357055,-0.414396,0.673083,-0.497742
532,-0.833671,-9.799267,-3.310919,-94.046631,6.468377,2.555797,-107.439217,3.794731,-113.972061,0.344608,-0.422546,0.686275,-0.481380
533,-0.634330,-9.709688,-3.835552,-106.571075,8.827619,-6.101470,-110.794617,3.655336,-114.192001,0.330376,-0.431707,0.700555,-0.462280
534,-0.627645,-9.810364,-4.193088,-106.398109,7.281185,-9.569520,-114.349556,3.311047,-114.341774,0.314157,-0.442222,0.714316,-0.442152
535,-1.059904,-9.538880,-4.722736,-115.240463,0.845795,6.465016,-118.045151,3.204248,-114.441139,0.298707,-0.451905,0.728353,-0.419593
536,-0.518418,-9.316209,-5.510916,-126.863396,11.374053,-5.751305,-122.085304,3.113166,-114.618713,0.281402,-0.461337,0.743214,-0.394480
537,-0.472526,-9.474899,-6.425170,-130.310440,13.599346,-3.474766,-126.378677,2.752968,-114.880882,0.260741,-0.471053,0.757844,-0.368506
538,-0.611591,-9.458408,-7.413803,-129.297104,9.506616,6.880550,-130.714447,2.558633,-115.216995,0.240446,-0.478930,0.772299,-0.341125
539,-0.855057,-8.986160,-8.213071,-127.308159,3.467165,21.417601,-135.007004,2.758295,-115.692787,0.222398,-0.483754,0.786873,-0.312013
540,-0.305833,-9.173467,-8.764210,-103.163544,16.629414,15.591443,-138.876511,2.936469,-116.367462,0.205485,-0.485803,0.800093,-0.285698
541,-0.640305,-9.416016,-8.868525,-62.708385,11.768967,21.641891,-141.677719,2.971376,-117.151070,0.191970,-0.485062,0.810219,-0.267221
542,-0.851700,-9.490679,-8.797956,-18.890636,4.703448,23.546568,-143.078598,3.216202,-117.914413,0.186034,-0.481336,0.816956,-0.257470
543,-0.595101,-9.456312,-8.862911,12.082776,12.821461,10.346763,-143.228195,3.323372,-118.541168,0.184758,-0.476834,0.820042,-0.256953
544,-0.230537,-9.230776,-8.946596,21.912348,22.182922,-8.077298,-142.681686,2.881886,-118.923241,0.183034,-0.474327,0.819848,-0.263366
545,-0.842216,-8.764012,-8.522926,22.577917,2.211751,0.269720,-141.946213,2.481251,-119.068497,0.182899,-0.473126,0.818229,-0.270556
546,-1.031112,-8.235957,-8.484203,1.316684,-11.075909,9.694292,-141.549866,2.700396,-119.108635,0.185988,-0.471641,0.817738,-0.272522
547,-0.458400,-7.962418,-8.039075,-7.448058,6.932682,-10.090302,-141.649857,2.750378,-119.061310,0.186042,-0.472012,0.817845,-0.271520
548,-0.758316,-6.987812,-8.115597,-42.506432,-0.489297,-10.268349,-142.473373,2.457075,-118.859772,0.181035,-0.475515,0.818570,-0.266563
549,-1.019369,-6.412271,-7.741128,-71.110527,-17.143749,1.903492,-144.353760,2.610185,-118.571335,0.174933,-0.480125,0.821811,-0.252001
550,-0.570076,-5.642000,-7.492202,-88.821236,-6.110155,-12.441480,-147.000366,2.831782,-118.205040,0.166127,-0.486186,0.826104,-0.231467
551,-0.267957,-4.850268,-7.318297,-96.787621,7.007289,-32.610928,-150.063416,2.426566,-117.575813,0.151310,-0.495834,0.828884,-0.210249
552,-0.489237,-3.899496,-7.609638,-123.615677,-5.470942,-22.397747,-153.703720,1.970203,-116.784111,0.133458,-0.506959,0.831255,-0.184922
553,-0.194559,-3.585030,-7.091564,-120.214836,-0.381675,-19.701557,-157.739151,1.773542,-116.100128,0.115027,-0.516627,0.834032,-0.155744
554,0.076827,-3.047214,-6.659026,-112.101318,18.388573,-26.871145,-161.589844,1.224306,-115.478546,0.094300,-0.525424,0.835603,-0.129637
555,0.156206,-2.366512,-6.560241,-126.951065,24.012808,-29.262299,-165.560837,0.282458,-114.787933,0.069779,-0.534325,0.835881,-0.104548
556,-0.096680,-1.534637,-6.419153,-153.499741,4.749690,-18.429581,-170.228424,-0.351270,-114.113350,0.043753,-0.542050,0.836014,-0.073136
557,-0.014216,-0.898630,-5.991477,-163.905685,4.282563,-14.501375,-175.511185,-0.564023,-113.580696,0.017334,-0.547439,0.835914,-0.035459
558,-0.201008,-0.001708,-5.714139,-176.311249,-9.427649,-12.797354,178.828110,-0.489471,-113.124496,-0.009199,-0.550960,0.834458,0.006180
559,-0.232686,0.394700,-5.641288,-143.626556,-12.689707,-9.658729,173.508667,-0.096320,-112.771362,-0.032042,-0.552672,0.831473,0.046685
560,-0.094202,0.650738,-5.721676,-96.310684,-1.033075,-8.016479,169.518188,0.173429,-112.512283,-0.049486,-0.553273,0.827975,0.076792
561,0.084230,1.018588,-5.985004,-67.707993,13.153150,-6.023362,166.787628,0.022832,-112.244530,-0.063964,-0.553741,0.824704,0.095624
562,0.055900,1.760933,-6.387558,-71.815918,10.787581,-7.751816,164.462372,-0.307401,-111.926346,-0.077864,-0.554286,0.821272,0.110529
563,0.191739,1.910378,-6.949032,-41.249348,15.693460,-6.187979,162.575928,-0.664649,-111.577942,-0.089902,-0.555020,0.817911,0.122035
564,0.002028,2.379012,-7.526435,-28.966780,2.909796,-12.106825,161.400665,-0.865957,-111.193626,-0.097455,-0.556563,0.814904,0.129114
565,-0.148708,2.802256,-8.144598,-19.091673,-6.763227,-14.066007,160.594940,-0.663693,-110.801079,-0.100397,-0.558901,0.811908,0.135482
566,-0.138836,2.802967,-8.677403,6.102122,-6.077081,-12.730932,160.375778,-0.313004,-110.450897,-0.099408,-0.561621,0.809650,0.138446
567,-0.251867,2.801361,-9.205684,28.017986,-9.762331,-15.069131,160.943756,0.088897,-110.100533,-0.094199,-0.565060,0.808274,0.136117
568,-0.356958,2.983349,-9.459744,25.981070,-12.760810,-15.206388,161.845947,0.605086,-109.741653,-0.086514,-0.568889,0.807124,0.132025
569,-0.199600,2.994662,-9.673338,25.512165,-5.044799,-9.876539,162.708542,1.014978,-109.434044,-0.079678,-0.572116,0.806233,0.127764
570,-0.187719,3.076078,-9.730551,14.222856,-2.571984,-6.759862,163.375092,1.217097,-109.205284,-0.075171,-0.574378,0.805656,0.123929
571,-0.161582,2.986893,-9.453437,6.158410,-1.214045,-4.184782,163.718231,1.329353,-109.048180,-0.072826,-0.575811,0.805146,0.121976
572,-0.008460,2.920217,-9.099238,0.665756,5.792631,-1.629281,163.834564,1.283196,-108.933807,-0.072687,-0.576645,0.804730,0.120856
573,-0.044435,2.801545,-8.774137,1.751188,5.026480,-2.484837,163.877228,1.129097,-108.817688,-0.073679,-0.577342,0.804312,0.119709
574,-0.128333,2.477466,-8.568604,18.306234,1.983370,-4.319356,164.214218,1.047930,-108.676537,-0.072696,-0.578472,0.804010,0.116846
575,-0.174208,2.112532,-8.554004,47.001915,0.789703,-5.920498,165.305908,1.048054,-108.499886,-0.067349,-0.580379,0.804193,0.109078
576,-0.310200,1.924873,-8.386969,57.728264,-4.880902,-7.807813,167.055130,1.168631,-108.294113,-0.057807,-0.582875,0.804642,0.097297
577,-0.436529,1.483142,-7.943939,70.581429,-11.543681,-5.620196,169.196823,1.482381,-108.132118,-0.044812,-0.585183,0.805317,0.083773
578,-0.467554,1.014040,-7.362707,83.274239,-13.382909,0.119499,171.760712,1.906374,-108.111107,-0.028731,-0.586370,0.806681,0.067892
579,-0.416833,0.322443,-6.497377,98.730873,-11.888297,6.384052,174.786636,2.310522,-108.267929,-0.010319,-0.585910,0.808849,0.048649
580,-0.532614,0.108995,-5.635339,79.924934,-23.008539,8.346247,177.749268,2.873236,-108.549927,0.008885,-0.584000,0.811129,0.030575
581,-0.398217,0.044874,-5.145440,46.601627,-13.531127,15.205824,179.833923,3.472547,-108.958794,0.023819,-0.580764,0.813507,0.018783
582,-0.279162,-0.335825,-5.190592,52.379341,-0.801733,20.808193,-178.553848,3.716035,-109.557343,0.033759,-0.576053,0.816672,0.008394
583,-0.014183,-0.652434,-5.866005,57.421432,20.646460,19.430904,-176.766144,3.412535,-110.240440,0.040546,-0.570686,0.820144,-0.006117
584,-0.115152,-0.600159,-6.428174,46.470345,13.763677,14.852519,-175.067520,2.881588,-110.849159,0.045096,-0.565895,0.822971,-0.021164
585,0.281976,-1.147336,-7.523615,72.722359,31.425095,12.095366,-173.104797,2.179096,-111.374199,0.049571,-0.561646,0.824972,-0.038962
586,0.108801,-2.037814,-7.928123,128.160126,19.667366,5.015207,-169.770584,1.381201,-111.781570,0.059929,-0.557609,0.825216,-0.067076
587,0.080838,-2.184781,-8.844708,125.587158,10.380350,-0.837512,-165.550171,0.911705,-111.961861,0.076901,-0.554180,0.822804,-0.099821
588,-0.081186,-3.014170,-8.926812,145.110764,0.719247,-7.168788,-161.044174,0.699188,-111.889343,0.097197,-0.551506,0.817735,-0.133054
589,0.042506,-3.467682,-9.621340,131.922989,3.421376,-8.782778,-156.432571,0.541804,-111.669502,0.118513,-0.548942,0.810517,-0.166373
590,0.073334,-4.636332,-9.411514,143.731873,4.399889,-14.069693,-151.844162,0.259243,-111.382881,0.138915,-0.546265,0.801514,-0.199683
591,0.045406,-5.159029,-10.217204,114.671822,0.851880,-15.897919,-147.544342,-0.066602,-110.995659,0.157835,-0.544003,0.791179,-0.230618
592,0.096415,-6.209660,-10.214431,108.063965,5.523057,-18.522118,-143.838913,-0.475271,-110.582153,0.173475,-0.542344,0.780724,-0.257371
593,-0.071802,-6.162350,-10.635134,63.430473,-0.009232,-7.043225,-140.987061,-0.807599,-110.299217,0.185354,-0.540555,0.772181,-0.277814
594,0.435296,-6.416041,-10.467362,41.469681,9.977642,-15.386409,-139.242615,-1.174887,-110.120270,0.191544,-0.539769,0.766361,-0.290947
595,-0.154136,-6.095005,-10.209362,18.384674,-5.807030,0.648029,-138.248566,-1.388811,-109.979179,0.195153,-0.539561,0.762748,-0.298336
596,0.019704,-6.320467,-9.309988,26.854635,-4.046488,5.621529,-137.495132,-1.196806,-109.947777,0.200062,-0.537988,0.760985,-0.302400
597,0.397125,-6.712335,-8.279764,58.514523,5.492274,1.324686,-136.070297,-1.135380,-110.048653,0.206869,-0.534630,0.757757,-0.311737
598,0.241973,-7.759765,-7.121265,109.517555,1.812089,2.417241,-133.268005,-1.176752,-110.177895,0.219235,-0.528682,0.750420,-0.330609
599,-0.039626,-8.627123,-6.469662,135.758667,-1.806085,18.957146,-129.179672,-0.908267,-110.413292,0.238963,-0.518193,0.739806,-0.356454
600,0.258385,-9.590627,-5.637169,154.846924,5.855776,16.534389,-124.339142,-0.477279,-110.824646,0.261984,-0.503603,0.726925,-0.386431
601,0.235141,-10.085230,-5.857319,124.715424,7.346122,14.238587,-119.686279,-0.160988,-111.279327,0.282532,-0.488589,0.713376,-0.415393
602,-0.277975,-10.179555,-5.878098,88.100990,-0.659290,24.836479,-116.145439,0.360455,-111.681885,0.299149,-0.475171,0.703231,-0.436106
603,0.036354,-10.172808,-6.176317,53.764069,4.695180,15.820311,-113.787537,0.945512,-112.033394,0.311016,-0.464458,0.697083,-0.449025
604,-0.022816,-10.105466,-6.153568,31.623016,1.830449,4.445531,-112.369019,1.212475,-112.265495,0.317414,-0.458084,0.693110,-0.457171
605,-0.162856,-9.702525,-6.386364,3.770379,0.099327,0.784040,-111.780540,1.281498,-112.327522,0.319925,-0.455791,0.691184,-0.460617
606,-0.103728,-9.890720,-5.891998,10.809470,-0.768128,-3.042294,-111.537025,1.250632,-112.303299,0.320807,-0.455383,0.690025,-0.462142
607,-0.039284,-9.934656,-5.690692,10.033565,-2.053169,-5.363386,-111.187668,1.137318,-112.208412,0.321904,-0.455441,0.687931,-0.464437
608,-0.021609,-9.398249,-4.826054,18.994928,-3.341715,-5.848582,-110.701042,0.994999,-112.057571,0.323607,-0.455564,0.684968,-0.467503
609,-0.201912,-9.570445,-4.250874,29.261379,-6.428933,6.216724,-109.894096,1.057192,-111.907043,0.327793,-0.453908,0.681234,-0.471635
610,-0.011620,-10.170174,-3.344062,53.207272,-4.936900,2.835147,-108.517006,1.261780,-111.778465,0.334956,-0.449822,0.675585,-0.478592
611,-0.197791,-9.767879,-2.562100,64.535675,-7.326737,10.094174,-106.551903,1.528496,-111.647758,0.344713,-0.443609,0.667535,-0.488653
612,-0.281308,-9.957673,-1.853173,76.891693,-7.900969,11.571045,-104.191101,1.943685,-111.499641,0.356771,-0.435399,0.657979,-0.500206
613,-0.398381,-10.397659,-1.976942,59.560272,-7.027992,9.595419,-101.911903,2.343208,-111.336784,0.368301,-0.427295,0.648488,-0.511113
614,-0.493775,-10.452749,-1.684398,54.326046,-6.852765,5.483631,-100.006752,2.633935,-111.157501,0.377753,-0.420745,0.640128,-0.520108
615,-0.654963,-9.667594,-2.024994,26.019493,-5.793751,6.741158,-98.659660,2.869243,-110.981941,0.384746,-0.416123,0.634058,-0.526101
616,-0.685278,-9.916117,-2.083167,11.959571,-4.153647,4.203517,-98.019600,3.073996,-110.844765,0.388791,-0.413738,0.631250,-0.528381
617,-0.706080,-9.831064,-2.130016,0.832013,-2.520926,3.505233,-97.801338,3.216642,-110.752205,0.390764,-0.412818,0.630352,-0.528716
618,-0.747706,-9.524303,-1.933019,-2.091410,-2.003816,8.143853,-97.819534,3.419292,-110.703918,0.391999,-0.412168,0.630891,-0.527666
619,-0.634814,-9.397707,-1.810764,-2.344332,-0.988747,6.312567,-97.892410,3.664798,-110.687454,0.393116,-0.411323,0.631926,-0.526254
620,-0.552555,-9.628945,-1.665334,2.016345,-0.664959,3.942969,-97.897621,3.837893,-110.683647,0.394033,-0.410525,0.632469,-0.525539
621,-0.609552,-9.649930,-1.529188,4.875215,-2.273648,6.293969,-97.781021,4.013591,-110.658272,0.395497,-0.409412,0.632384,-0.525409
622,-0.462810,-9.489190,-1.376272,4.820829,-2.079257,-3.035240,-97.614861,4.077132,-110.593483,0.396723,-0.408887,0.631586,-0.525854
623,-0.420279,-9.856628,-1.243898,9.935324,-3.409679,-8.369652,-97.360909,3.900603,-110.477608,0.397231,-0.409502,0.629459,-0.527538
625,-0.589515,-9.926707,-1.013151,17.364702,-4.648942,-2.795161,-96.895493,3.732623,-110.320877,0.398734,-0.409562,0.626228,-0.530197
626,-0.650110,-9.862797,-0.808702,22.063938,-5.200734,-1.465885,-96.227226,3.680767,-110.149612,0.401643,-0.408414,0.622352,-0.533441
627,-0.573935,-9.948764,-0.828569,14.757838,-3.462709,-7.159849,-95.603523,3.552620,-109.990944,0.403938,-0.407709,0.618467,-0.536755
628,-0.615719,-9.933859,-0.778992,7.968279,-1.956616,-5.534965,-95.218201,3.350539,-109.880539,0.404781,-0.407938,0.615616,-0.539218
629,-0.732667,-9.905746,-0.563311,12.810630,-1.636299,-0.601935,-94.867928,3.253928,-109.811729,0.405852,-0.407544,0.613408,-0.541223
630,-0.783058,-9.746188,-0.592674,13.457595,-1.987761,7.171447,-94.427147,3.367911,-109.760460,0.408246,-0.405689,0.611511,-0.542961
631,-0.862140,-10.051808,-0.407220,14.992503,-1.223391,7.695463,-93.950821,3.618924,-109.725365,0.411378,-0.402925,0.609945,-0.544414
632,-0.750993,-9.744079,-0.172267,29.092592,0.477326,3.877485,-93.216057,3.812172,-109.724998,0.414935,-0.399311,0.607074,-0.547577
633,-0.954445,-10.047424,-0.257916,17.826927,2.400821,9.810232,-92.438126,4.037561,-109.783890,0.418487,-0.395034,0.604289,-0.551046
634,-0.863722,-10.041540,-0.415828,6.149343,5.018456,4.932169,-92.048233,4.278055,-109.917931,0.420387,-0.391679,0.603662,-0.552679
635,-0.846622,-10.259447,-0.722773,-11.734690,7.913718,2.330872,-92.157898,4.390931,-110.138458,0.419515,-0.390343,0.605313,-0.552481
636,-0.664922,-9.947384,-1.068697,-29.569960,10.943036,-5.038076,-92.870056,4.331805,-110.451523,0.415281,-0.391578,0.609615,-0.550071
637,-0.885896,-10.044167,-1.446038,-45.661987,9.675047,4.198256,-94.149490,4.296525,-110.794876,0.409073,-0.394521,0.616791,-0.544593
638,-0.827749,-9.889298,-1.798657,-61.081203,9.170732,3.064394,-95.952934,4.388979,-111.118370,0.401784,-0.398685,0.626701,-0.535598
639,-0.651799,-9.909842,-2.211391,-71.507797,9.571289,-2.105012,-98.185898,4.365962,-111.431335,0.392386,-0.404809,0.638057,-0.524449
640,-0.494794,-9.987660,-2.472262,-73.509583,9.336226,-6.168769,-100.623245,4.178211,-111.721146,0.381374,-0.412311,0.649561,-0.512468
641,-0.377220,-10.046022,-3.026352,-84.534737,9.050512,-9.012730,-103.273323,3.867173,-111.969696,0.368928,-0.421022,0.661269,-0.499354
642,-0.133210,-10.403427,-3.618783,-93.962898,11.943911,-17.949059,-106.260406,3.343462,-112.194016,0.353900,-0.431514,0.673468,-0.484759
643,-0.057784,-10.173293,-4.176359,-107.271500,12.783772,-21.035652,-109.621475,2.598950,-112.387680,0.335951,-0.443731,0.686172,-0.468409
644,-0.366179,-9.686028,-4.507363,-118.322449,7.477585,-8.109888,-113.382858,2.023743,-112.523811,0.317221,-0.456023,0.700254,-0.448395
645,-0.560838,-9.198582,-5.229261,-139.744064,2.886000,1.973304,-117.682182,1.857455,-112.631203,0.298471,-0.467565,0.716620,-0.422793
646,-0.577846,-9.039208,-5.868484,-148.307312,3.062424,7.097083,-122.480263,1.938711,-112.788841,0.278612,-0.478350,0.734529,-0.392460
647,-0.742878,-8.778174,-6.696805,-154.091537,0.297060,17.908209,-127.520668,2.248391,-113.071938,0.258428,-0.487260,0.752906,-0.359062
648,-1.055862,-8.625422,-7.712891,-164.233093,-7.209049,31.554123,-132.834625,2.952570,-113.511597,0.238997,-0.493637,0.771890,-0.321542
649,-0.557975,-8.828197,-8.289026,-148.152222,7.121923,20.683033,-138.063782,3.563972,-114.125137,0.218846,-0.498133,0.789360,-0.284396
650,-0.428494,-8.646845,-8.745732,-119.003937,16.233747,14.770968,-142.550781,3.642746,-114.834389,0.198151,-0.501161,0.803108,-0.254149
651,-1.086829,-8.462070,-9.273978,-86.252098,-2.446231,24.409037,-146.009842,3.838804,-115.502548,0.182967,-0.501728,0.813576,-0.229971
652,-1.185168,-8.429659,-9.499852,-46.295406,-4.521091,26.013716,-148.264023,4.392965,-116.140984,0.175788,-0.499455,0.821302,-0.212385
653,-0.798261,-8.556176,-9.087648,4.563488,12.366448,13.954560,-149.009460,4.629904,-116.777657,0.173067,-0.495498,0.825657,-0.206931
654,-1.419378,-8.593021,-9.047136,42.933643,-0.006233,18.221935,-148.263214,4.735391,-117.344818,0.175987,-0.490041,0.826828,-0.212705
655,-1.337208,-8.846364,-9.086387,58.053188,-0.623018,15.453263,-146.620911,5.047958,-117.814240,0.184289,-0.483362,0.825994,-0.223903
656,-0.931095,-8.664717,-8.678771,56.791843,16.823568,4.700940,-144.745178,5.015140,-118.244911,0.191050,-0.477268,0.823983,-0.238257
657,-1.099237,-8.055508,-8.185206,30.934256,12.136939,2.371570,-143.314804,4.693577,-118.622200,0.193904,-0.472957,0.822151,-0.250561
658,-1.167568,-7.578483,-7.965112,10.994192,6.442520,3.233062,-142.637024,4.502388,-118.883705,0.194765,-0.470420,0.821512,-0.256689
659,-0.657108,-7.219600,-7.680014,3.639251,15.186001,-9.678434,-142.403351,4.150732,-119.018166,0.192938,-0.469966,0.821131,-0.260099
660,-0.764551,-6.289313,-7.239358,-20.322739,10.125963,-12.693829,-142.678436,3.589113,-118.978218,0.187928,-0.472144,0.820928,-0.260461
661,-0.709375,-5.729917,-7.027939,-43.024700,2.499670,-12.932928,-143.721146,3.164768,-118.760887,0.181094,-0.476439,0.821866,-0.254453
662,-0.257303,-5.217595,-6.742933,-43.864265,14.512811,-24.653406,-145.151520,2.569895,-118.414673,0.171636,-0.482551,0.822839,-0.246213
663,-0.326578,-4.630507,-6.677234,-52.083736,7.634704,-25.274452,-146.732285,1.797992,-117.933487,0.160438,-0.490053,0.823226,-0.237502
664,-0.583570,-3.733237,-6.898484,-97.263939,-9.227216,-18.908613,-149.202133,1.429898,-117.294098,0.148424,-0.498761,0.824981,-0.220487
665,-0.130115,-3.354325,-6.859327,-107.302094,6.216029,-27.435505,-152.592590,1.100024,-116.590927,0.132429,-0.508621,0.827708,-0.196638
666,0.000487,-3.056940,-6.710397,-95.235023,11.858192,-29.848516,-155.956085,0.415357,-115.866554,0.113584,-0.518619,0.829240,-0.174625
667,-0.149808,-2.589842,-7.028604,-105.810127,-2.050665,-27.265928,-159.301712,-0.098225,-115.051483,0.095744,-0.528315,0.829825,-0.152008
668,0.281407,-2.114408,-7.107686,-115.076607,13.958220,-32.978954,-162.983856,-0.609877,-114.162773,0.075983,-0.538120,0.829766,-0.127053
669,0.345875,-1.821885,-7.041765,-104.989685,15.390070,-32.900986,-166.664276,-1.368021,-113.236519,0.053982,-0.547612,0.828553,-0.103475
670,-0.143588,-1.607981,-7.289981,-83.746635,-15.867159,-23.614557,-169.829987,-1.552407,-112.314445,0.038150,-0.555670,0.826555,-0.081124
671,-0.179735,-1.143758,-7.598760,-88.039230,-20.909513,-24.115049,-172.709000,-1.068157,-111.428520,0.028130,-0.562646,0.824197,-0.057773
672,-0.125582,-0.867602,-7.413570,-87.492714,-14.725641,-22.684484,-175.643906,-0.556750,-110.592087,0.017646,-0.569070,0.821396,-0.034008
673,-0.438687,-0.793330,-7.420509,-67.520760,-28.266487,-17.706905,-178.228546,0.122629,-109.883446,0.009755,-0.574327,0.818479,-0.012039
674,-0.337683,-0.377595,-7.647395,-66.067802,-19.275848,-13.892703,179.551926,0.908267,-109.344406,0.004205,-0.578256,0.815807,0.007773
675,-0.225964,0.230962,-7.670405,-85.828354,-8.728662,-10.138806,177.029129,1.387010,-108.959518,-0.005212,-0.581008,0.813395,0.028127
676,-0.155749,0.587854,-7.771186,-81.130974,-2.260478,-3.129083,174.253281,1.587328,-108.755745,-0.017948,-0.582213,0.811372,0.048802
677,-0.001221,0.903546,-8.072423,-56.180592,5.819826,1.523340,171.966980,1.532808,-108.723480,-0.029964,-0.581944,0.810097,0.064695
678,0.163517,1.191268,-8.509095,-32.795128,12.877619,4.073902,170.483429,1.211184,-108.769699,-0.039741,-0.581011,0.809589,0.073566
679,0.091656,1.275500,-8.888491,-9.977840,7.977918,3.639333,169.769424,0.846948,-108.838104,-0.045890,-0.580055,0.809650,0.076795
680,0.127386,1.276216,-9.154275,12.235970,7.191131,2.711731,169.806274,0.579505,-108.897812,-0.047555,-0.579488,0.810109,0.075208
681,-0.029088,1.365539,-9.523046,27.489130,0.141705,-1.739577,170.468414,0.456427,-108.893265,-0.045080,-0.579715,0.810563,0.069902
682,-0.110505,1.457334,-9.656447,18.144753,-4.564861,-2.592413,171.229477,0.540842,-108.834213,-0.040664,-0.580464,0.810675,0.064923
683,-0.344101,1.713303,-9.643689,-3.361625,-16.415926,-6.080507,171.477005,0.908318,-108.744194,-0.036860,-0.581369,0.810201,0.065002
684,-0.422071,1.717920,-9.601975,-5.919881,-17.811039,-3.887702,171.324005,1.497356,-108.666000,-0.033515,-0.582156,0.809447,0.069043
685,-0.552568,1.616294,-9.750517,2.232653,-19.232355,-1.749340,171.262634,2.121873,-108.666687,-0.029408,-0.582421,0.809101,0.072640
686,-0.458228,1.643576,-9.701029,-7.450776,-8.963325,1.992144,171.172668,2.585671,-108.742119,-0.026534,-0.582069,0.809178,0.075639
687,-0.579295,1.729699,-9.719814,-21.639204,-8.836905,3.036678,170.681793,2.865367,-108.872215,-0.026956,-0.581160,0.809345,0.080549
688,-0.546062,1.876473,-9.809690,-34.774990,-5.352892,6.487415,169.731400,3.071300,-109.069412,-0.030165,-0.579628,0.809516,0.088348
689,-0.432794,2.107549,-9.862038,-48.502377,1.263850,7.599302,168.330566,3.093520,-109.313652,-0.036882,-0.577504,0.809593,0.098427
690,-0.387109,2.382545,-9.601927,-62.367016,3.637727,7.540127,166.471130,2.958506,-109.543037,-0.046981,-0.575116,0.809148,0.110971
691,-0.420146,2.635218,-9.441401,-59.403114,3.314232,5.374873,164.433319,2.792030,-109.722588,-0.058184,-0.572784,0.808088,0.124607
692,-0.369758,2.594793,-10.043628,-24.253550,6.718815,2.940118,163.035446,2.592490,-109.808746,-0.066478,-0.571238,0.807118,0.133519
693,-0.196589,2.794439,-9.908157,-5.892760,14.866767,1.743388,162.534439,2.225651,-109.777588,-0.071606,-0.570802,0.806705,0.135217
694,-0.278371,1.959936,-10.415010,53.130524,13.232304,2.831472,163.324020,1.755434,-109.713722,-0.071069,-0.571286,0.807700,0.127289
695,-0.356227,1.029985,-11.847871,89.465088,7.913734,5.684500,165.698837,1.377710,-109.758492,-0.061850,-0.572010,0.810660,0.108671
696,0.039948,1.072238,-11.932363,59.981876,17.270451,9.673962,168.184967,0.910761,-109.914719,-0.052623,-0.571788,0.813882,0.088802
697,-0.097139,1.550974,-10.241342,2.501215,9.473603,10.483584,169.223160,0.407335,-110.154007,-0.050857,-0.570215,0.816103,0.079022
698,-0.438632,1.608047,-9.438859,-30.318272,-10.923000,12.068847,168.756851,0.358078,-110.526047,-0.053261,-0.567318,0.817646,0.082271
699,-0.291300,2.682710,-8.293076,-105.563339,-10.331581,10.996013,166.488113,0.620946,-110.976555,-0.062217,-0.563158,0.817915,0.099984
700,0.026970,3.816246,-6.694252,-171.878128,4.276633,13.409879,161.863892,0.604380,-111.396233,-0.084516,-0.557189,0.815275,0.133130
701,-0.168370,3.696693,-6.680286,-123.537697,-7.767566,13.002974,156.946884,0.501317,-111.832390,-0.108430,-0.549821,0.811018,0.167897
702,0.164400,3.761614,-7.556236,-59.952412,5.318122,16.167665,153.889984,0.339421,-112.287186,-0.123448,-0.543267,0.808596,0.189191
703,0.545429,3.805491,-7.886832,-23.387409,20.916864,17.454098,152.502136,-0.301821,-112.593758,-0.134007,-0.538468,0.808431,0.196301
704,0.492043,3.870070,-8.281632,3.409721,17.011860,8.209873,152.170883,-1.060037,-112.682274,-0.140750,-0.536108,0.809126,0.195174
705,0.272454,3.925491,-8.074385,8.379820,8.531732,-3.723930,152.364807,-1.471623,-112.551605,-0.142959,-0.536534,0.809287,0.191701
706,0.018490,4.491258,-7.972824,-12.458524,0.845165,-15.356770,152.288086,-1.462283,-112.197617,-0.143846,-0.538952,0.807487,0.191844
707,-0.114768,4.587710,-7.961971,-14.435669,-1.607017,-16.729279,151.829315,-1.199991,-111.730972,-0.144962,-0.542127,0.804222,0.195730
708,-0.463750,4.933167,-7.326108,-31.304129,-14.983143,-20.246082,151.060455,-0.662512,-111.321770,-0.145569,-0.544995,0.800323,0.203159
709,-0.537931,4.185617,-8.325036,31.250238,-17.964518,-12.085244,151.059067,0.079415,-111.115860,-0.140772,-0.547773,0.798438,0.206456
710,-0.473365,4.408941,-8.759761,38.198242,-14.642853,-2.148632,152.216614,0.669305,-111.161919,-0.131028,-0.549856,0.799991,0.201256
711,-0.230271,4.535357,-7.469522,11.726160,-7.394753,8.417218,153.045242,0.946800,-111.422615,-0.124655,-0.549421,0.802345,0.197078
712,-0.158284,3.703054,-8.590924,70.038567,-8.030561,13.123076,154.400757,1.017506,-111.858223,-0.116935,-0.547905,0.806628,0.188357
713,0.033023,3.754495,-9.358667,73.286133,-0.399736,14.917860,156.780518,0.953722,-112.341255,-0.105261,-0.546704,0.812743,0.171706
714,0.206324,4.452761,-7.848101,3.450223,13.063904,15.401854,158.054016,0.565248,-112.725288,-0.101406,-0.544582,0.816809,0.161155
715,0.121084,3.868408,-8.727469,39.010590,8.000619,7.800616,158.760849,0.094970,-112.952530,-0.101099,-0.542950,0.819294,0.154082
716,0.109572,4.028913,-8.811802,31.300041,7.463152,2.230538,159.932693,-0.204260,-113.019646,-0.097601,-0.543095,0.821395,0.144333
717,0.083814,4.122014,-7.472862,3.116079,6.240269,-0.743790,160.506042,-0.427140,-112.965721,-0.096546,-0.543686,0.822029,0.139117
718,0.483678,3.351396,-6.933960,37.034687,21.857464,5.691470,161.174362,-0.896341,-112.889542,-0.096827,-0.544216,0.822815,0.132023
719,0.094189,3.038366,-6.489860,64.793991,-4.938916,-2.239709,162.870590,-1.182479,-112.857574,-0.090850,-0.545497,0.824714,0.118436
720,0.235939,1.802693,-4.269692,100.406517,4.126246,5.714877,165.624268,-1.185172,-112.921013,-0.077681,-0.547062,0.827626,0.098616
721,0.057398,-0.696575,-5.071818,323.875031,-18.409250,9.747965,172.689392,-1.001253,-113.216171,-0.042367,-0.548757,0.833502,0.048429
722,-0.474353,-2.380159,-5.862372,399.930237,-54.785149,6.142345,-175.334457,0.203307,-113.514076,0.023796,-0.547675,0.835699,-0.033071
723,-1.011598,-5.707901,-7.927601,428.255249,-67.516106,15.434012,-161.717194,2.249836,-113.485130,0.103317,-0.538724,0.827146,-0.122196
724,-0.458954,-8.716887,-9.655793,383.151611,-38.840309,8.999602,-148.386032,3.992598,-113.123367,0.177980,-0.521961,0.807665,-0.208703
725,-1.154602,-10.188267,-11.084501,280.008514,-39.637947,5.652765,-137.433380,5.157336,-112.515694,0.236276,-0.503469,0.783118,-0.278243
726,-1.149004,-11.276021,-11.310456,189.111740,-24.831774,-0.682410,-129.609787,5.957198,-111.803543,0.277268,-0.488276,0.760686,-0.325678
728,-0.876203,-11.611275,-10.100425,121.117867,-7.749703,-11.905112,-124.400978,6.116422,-111.239487,0.301930,-0.478263,0.743066,-0.357709
729,-0.826281,-10.484625,-8.148321,68.102875,3.383431,-17.450903,-121.218887,5.744820,-110.905632,0.313916,-0.473221,0.730695,-0.378951
730,-1.444576,-9.751544,-6.804753,36.278820,-2.245646,-0.276232,-119.467262,5.480045,-110.768318,0.319972,-0.470248,0.723675,-0.390870
731,-0.893283,-9.353283,-6.001448,16.895414,3.574059,-10.285132,-118.575005,5.315241,-110.703629,0.322851,-0.468786,0.719976,-0.397041
732,-0.864322,-8.956098,-5.578282,-2.645042,0.900032,-9.019064,-118.329575,4.996926,-110.614586,0.322241,-0.469883,0.718039,-0.399739
733,-0.905135,-8.843640,-5.798359,-24.247639,-2.224612,-6.197102,-118.765656,4.784865,-110.473076,0.319656,-0.472806,0.718491,-0.397548
734,-0.812279,-8.796948,-5.782323,-31.015726,-2.312561,-10.450686,-119.670074,4.579806,-110.270515,0.315360,-0.477362,0.720304,-0.392219
735,-0.455110,-8.331184,-5.589668,-36.027588,3.231551,-21.443447,-120.768066,4.112767,-110.015640,0.308771,-0.483697,0.721914,-0.386701
736,-0.402276,-7.786760,-5.213530,-30.076641,4.341424,-22.581598,-121.851929,3.420408,-109.742462,0.300826,-0.490824,0.722831,-0.382245
737,-0.315965,-7.332741,-4.825487,-15.206813,4.435454,-22.313278,-122.591896,2.709390,-109.467308,0.294160,-0.497013,0.722498,-0.380060
738,0.058777,-7.157953,-4.481809,7.084230,11.317470,-31.434448,-122.716927,1.813300,-109.205589,0.288932,-0.502117,0.719714,-0.382634
739,0.160353,-6.475094,-4.198860,12.429976,11.805396,-27.608519,-122.387405,0.776162,-109.002487,0.284629,-0.506159,0.715262,-0.388832
740,0.498247,-6.805876,-4.785553,7.096397,14.323337,-29.736965,-122.061485,-0.264621,-108.861725,0.280089,-0.509813,0.710987,-0.395143
741,0.266553,-7.516551,-5.992399,-11.713113,5.078433,-12.850108,-122.139717,-1.037622,-108.757996,0.275288,-0.513281,0.708867,-0.397828
742,0.105169,-8.318765,-6.676464,-13.150970,2.420004,-3.390532,-122.554863,-1.333004,-108.717575,0.271722,-0.515518,0.709381,-0.396468
743,-0.054167,-8.629971,-7.198115,-23.490574,-1.957124,4.298299,-123.165237,-1.324386,-108.731956,0.268977,-0.516840,0.711569,-0.392679
744,-0.121193,-9.266364,-7.623462,-26.094990,-3.646740,6.975096,-123.991096,-1.116188,-108.757675,0.266467,-0.517921,0.715008,-0.386673
745,-0.517941,-9.351158,-7.242084,-19.583824,-9.747909,17.088732,-124.751709,-0.659150,-108.799675,0.265765,-0.517928,0.718848,-0.379970
746,-0.271670,-8.692621,-6.329237,-9.977696,-8.930338,13.504777,-125.244164,-0.062884,-108.836243,0.267179,-0.516898,0.722044,-0.374279
747,-0.225673,-8.370603,-5.968009,-5.436550,-9.973116,12.995629,-125.501106,0.479601,-108.834740,0.269445,-0.515738,0.724130,-0.370203
748,-0.240956,-8.420712,-5.512309,13.767328,-6.555067,13.696017,-125.362717,1.001739,-108.867981,0.273245,-0.513486,0.725027,-0.368790
749,-0.437850,-8.477179,-5.391511,22.977102,-6.972449,18.297417,-124.752937,1.567716,-108.989021,0.279127,-0.509368,0.724884,-0.370372
750,-0.632436,-8.532217,-5.086548,43.718433,-8.962460,26.023243,-123.647995,2.327831,-109.184448,0.288116,-0.502812,0.723876,-0.374397
751,-0.771137,-8.782031,-5.048114,37.149109,-1.636242,23.725201,-122.314789,3.119410,-109.487366,0.297827,-0.494719,0.722594,-0.380013
752,-0.867103,-8.604367,-5.025807,28.261303,0.842146,25.580008,-121.249947,3.824143,-109.909431,0.305318,-0.486716,0.722437,-0.384672
753,-0.872199,-8.520931,-5.182145,15.797528,1.447794,22.265436,-120.547745,4.488191,-110.353271,0.310854,-0.479582,0.723429,-0.387325
754,-0.722696,-8.408225,-5.015329,14.602218,3.678771,13.712854,-120.072220,4.962369,-110.731361,0.314451,-0.474121,0.724442,-0.389248
755,-0.740368,-8.252842,-5.065659,8.177128,2.478731,9.773718,-119.717796,5.250619,-111.016273,0.316701,-0.470252,0.725043,-0.390994
756,-0.732164,-8.423312,-4.932078,17.276663,0.376738,3.346737,-119.307510,5.417425,-111.166122,0.318883,-0.467529,0.724618,-0.393266
757,-0.944614,-8.466953,-4.595653,31.316113,-6.951247,6.774673,-118.496254,5.618308,-111.151405,0.323453,-0.464573,0.722203,-0.397459
758,-1.116659,-8.464633,-4.203652,42.742558,-11.275855,11.630254,-117.249359,6.031718,-111.025803,0.331415,-0.460177,0.718263,-0.403113
759,-1.168585,-8.651281,-3.869404,51.968262,-10.768034,12.733662,-115.654793,6.558859,-110.877098,0.341447,-0.454310,0.713204,-0.410313
760,-0.931269,-8.610671,-3.481031,53.896374,-3.399200,4.390321,-113.879539,6.916599,-110.781380,0.350889,-0.448070,0.707226,-0.419455
761,-1.098965,-8.362617,-3.330048,39.776993,-1.186158,11.516435,-112.322708,7.189901,-110.813934,0.358403,-0.441902,0.702240,-0.427936
762,-0.692060,-8.346533,-3.238953,26.658691,9.827236,-4.872000,-111.237801,7.238709,-110.991089,0.362179,-0.437199,0.698952,-0.434914
763,-0.693354,-8.404301,-3.157021,19.117317,12.240004,-7.646757,-110.507904,6.912220,-111.260925,0.362049,-0.434662,0.696394,-0.441617
764,-0.522268,-8.343403,-3.407837,1.927706,16.493746,-17.993826,-110.192001,6.344811,-111.562958,0.358815,-0.434299,0.694918,-0.446906
765,-0.813339,-8.395793,-3.447821,-1.276799,11.702115,-11.127082,-110.209732,5.726682,-111.836891,0.354110,-0.435375,0.694489,-0.450266
766,-0.678579,-8.386423,-3.407560,-0.794441,12.149426,-18.909534,-110.263283,5.119428,-112.037483,0.349598,-0.436948,0.693940,-0.453106
767,-0.855784,-8.167907,-3.531305,-13.932780,9.723886,-12.401672,-110.521988,4.503274,-112.197952,0.344385,-0.439407,0.694020,-0.454595
768,-0.636760,-8.284878,-3.278100,-7.306748,12.781218,-21.713209,-110.886917,3.838681,-112.347458,0.338495,-0.442421,0.694353,-0.455586
769,-1.072391,-8.251869,-3.157144,-4.429670,6.324568,-2.049927,-111.092194,3.354928,-112.503761,0.334230,-0.444124,0.694536,-0.456797
770,-0.725509,-8.728790,-3.374716,-11.540535,11.923024,-13.657359,-111.369095,3.000832,-112.692543,0.330309,-0.445272,0.695464,-0.457120
771,-0.238739,-9.815975,-2.858564,19.926601,16.999680,-31.538803,-111.237038,2.123863,-112.868233,0.324912,-0.447504,0.693347,-0.461999
772,0.031501,-10.847326,-2.455646,61.976135,17.501921,-35.308609,-109.875687,0.879423,-113.017273,0.322226,-0.447984,0.685041,-0.475605
773,-0.334544,-11.469407,-2.507712,83.035202,10.512818,-14.096815,-107.460922,-0.049001,-113.199379,0.325371,-0.444036,0.672948,-0.494071
774,-0.110263,-12.186744,-2.110096,108.261353,11.274965,-11.419512,-104.273735,-0.556394,-113.437531,0.333601,-0.435712,0.658351,-0.515207
775,-0.191935,-12.037506,-1.472420,134.238922,10.063695,-1.851879,-100.232643,-0.847355,-113.739227,0.345701,-0.423350,0.639990,-0.540072
776,-0.551373,-11.592293,-1.481185,128.926788,6.533034,17.403511,-95.849335,-0.629088,-114.052193,0.361287,-0.407063,0.620688,-0.564375
777,-0.726704,-11.106568,-1.204970,112.341980,5.826351,26.447111,-91.833534,0.085797,-114.312500,0.377766,-0.389148,0.603789,-0.584205
778,-0.545157,-10.441210,-0.862808,92.095024,5.146919,19.564993,-88.432220,0.851201,-114.500420,0.392068,-0.372768,0.589378,-0.599967
779,-0.782482,-9.844118,-0.432770,76.876801,4.006928,29.936274,-85.620827,1.682181,-114.609299,0.404626,-0.357985,0.577655,-0.611915
780,-0.333648,-9.962908,-0.050430,61.555241,-1.066091,14.281210,-83.314552,2.420225,-114.590057,0.415408,-0.345775,0.567699,-0.620962
781,0.192079,-9.642816,0.373011,56.382828,-7.069684,-6.990483,-81.343369,2.523037,-114.437477,0.422617,-0.338741,0.556841,-0.629744
782,-0.238553,-9.196526,0.447665,43.599838,-7.467882,12.461522,-79.666313,2.573396,-114.180176,0.429193,-0.333461,0.546995,-0.636705
783,-0.436174,-8.953605,0.916485,47.563576,-6.997351,21.843639,-78.129868,3.088627,-113.835518,0.437886,-0.326333,0.539267,-0.641056
784,0.048784,-8.973825,1.316120,47.601940,-13.758308,-1.802137,-76.520927,3.338612,-113.425041,0.445848,-0.320597,0.529972,-0.646194
785,-0.270789,-8.528625,1.498954,48.051456,-12.256746,7.719022,-74.901779,3.327265,-112.977074,0.452836,-0.316366,0.519514,-0.651888
786,-1.273047,-7.722058,1.514557,44.404556,-1.895516,62.147022,-73.324188,4.382507,-112.431496,0.464710,-0.306290,0.512960,-0.653532
787,-1.098342,-7.883518,1.818636,36.137096,-6.564016,56.131897,-71.913925,6.221816,-111.711746,0.480033,-0.292727,0.509904,-0.651058
788,-0.422840,-8.285156,1.667223,0.679700,-19.747055,9.020793,-71.212639,7.113619,-110.947830,0.489684,-0.287796,0.507331,-0.648073
789,-0.531095,-8.141038,1.770362,-20.318075,-24.233076,0.999940,-71.449677,7.039067,-110.194374,0.493039,-0.292593,0.506478,-0.644036
790,-0.842377,-8.033905,1.933409,-36.339352,-22.699165,16.659876,-72.291046,7.076478,-109.353241,0.495712,-0.299728,0.509147,-0.636555
791,-1.053595,-9.175452,2.390389,-30.443846,-20.877329,25.568399,-73.287270,7.534557,-108.443001,0.499905,-0.305418,0.513979,-0.626610
792,-1.432494,-9.320962,2.304683,-23.387302,-21.415054,30.787165,-74.053368,8.237188,-107.492744,0.505773,-0.308952,0.518262,-0.616561
793,-2.118281,-9.056183,2.062910,-12.138943,-21.610998,59.535606,-74.473763,9.490863,-106.380539,0.515460,-0.308583,0.522272,-0.605235
794,-1.970593,-9.125998,1.637969,-15.819605,-25.101036,48.394619,-74.715591,11.016610,-105.130348,0.527182,-0.306555,0.525973,-0.592837
795,-1.439004,-9.579922,2.405668,18.013283,-36.553810,6.689512,-74.433037,11.628408,-103.872246,0.536699,-0.307467,0.523485,-0.585988
796,-1.161960,-9.368847,2.695794,30.749588,-45.928726,-22.475334,-73.374428,10.991488,-102.598267,0.543747,-0.311902,0.512136,-0.587174
797,-1.242287,-9.301786,3.243550,54.978233,-46.526325,-20.952665,-71.718208,9.837997,-101.323639,0.550704,-0.316217,0.495447,-0.592675
798,-0.973049,-9.319775,4.464948,96.869278,-44.638851,-32.683918,-69.006462,8.484159,-100.181458,0.559409,-0.315666,0.472423,-0.603517
799,-0.911410,-9.671991,5.047951,114.087639,-37.145844,-34.490459,-65.384300,6.921250,-99.354874,0.568445,-0.310141,0.443920,-0.619368
800,-1.518981,-9.276553,4.397583,105.074188,-17.736506,-5.101268,-61.678314,5.921707,-98.830193,0.577953,-0.299377,0.417646,-0.633968
801,-1.567152,-8.614238,4.242005,96.981018,-4.808165,2.378762,-58.283489,5.694561,-98.535126,0.587556,-0.284494,0.396865,-0.645244
802,-1.030040,-8.347575,4.446343,79.476997,-9.241308,-21.629517,-55.343273,5.296828,-98.517860,0.593636,-0.271760,0.378195,-0.656286
803,-0.672168,-8.002002,4.658571,66.180359,-13.909838,-34.515438,-52.936836,4.310892,-98.748756,0.595175,-0.264445,0.359964,-0.668029
804,-0.788570,-7.016431,5.783871,107.124290,-4.236115,-25.502626,-50.075706,3.339382,-99.132057,0.596761,-0.254276,0.339118,-0.681336
805,-0.369485,-6.992138,6.458880,105.238190,-7.134348,-38.401276,-46.568871,2.419853,-99.704414,0.598496,-0.239989,0.314596,-0.696589
806,0.419969,-6.533280,7.288659,120.272888,-20.565443,-65.942009,-42.840534,0.868581,-100.611786,0.596685,-0.227817,0.285512,-0.714527
807,1.017477,-5.391286,8.056122,153.081589,-25.155144,-85.585678,-38.284985,-1.350542,-102.025940,0.591311,-0.214948,0.247865,-0.736689
808,1.020824,-4.582347,8.651144,156.247299,-11.037913,-82.166267,-33.061546,-3.465606,-103.941467,0.583553,-0.198043,0.206162,-0.760094
809,0.749854,-4.259989,8.842739,125.831596,9.286736,-69.542999,-28.219536,-4.776456,-106.106827,0.574311,-0.178700,0.170368,-0.780518
810,0.396432,-3.050011,9.462647,139.416672,34.303425,-64.365913,-23.610189,-5.101446,-108.440514,0.564351,-0.154836,0.140338,-0.798648
811,0.114640,-2.144928,9.650759,139.446640,48.862469,-57.045628,-18.774549,-4.540635,-110.839172,0.554202,-0.124679,0.112003,-0.815334
812,-0.069264,-2.041631,10.171005,106.128372,50.403595,-43.115128,-14.548367,-3.435549,-112.918152,0.544676,-0.094713,0.089058,-0.828509
813,-0.203407,-2.006465,10.613746,88.279076,45.607758,-28.891798,-11.240357,-2.146402,-114.448547,0.537113,-0.068679,0.072237,-0.837601
814,0.029302,-0.979366,10.124405,116.129066,26.688581,-23.536226,-7.808234,-1.102360,-115.509926,0.531725,-0.044443,0.052463,-0.844122
815,0.507424,-0.735340,9.976822,101.360123,-5.261037,-16.139776,-4.175474,-0.812892,-116.197197,0.527876,-0.025269,0.027180,-0.848510
816,0.595642,-0.828964,9.977797,68.685112,-16.288834,-9.762514,-1.335759,-1.190530,-116.602715,0.525284,-0.014963,0.004458,-0.850783
817,0.435337,-0.430290,9.519423,66.450722,-10.340646,-4.880247,0.921660,-1.634727,-116.841927,0.523702,-0.007941,-0.014321,-0.851744
818,0.405388,0.167209,8.942570,71.969322,-7.864871,-0.603804,3.230931,-1.933726,-116.945122,0.523030,0.000362,-0.032847,-0.851681
819,0.681838,-0.280044,9.561745,24.003323,-16.493603,4.171358,4.828730,-2.341922,-116.914803,0.523292,0.004632,-0.046576,-0.850867
820,0.583546,-0.269395,10.079784,8.062510,-10.097141,2.310066,5.360018,-2.792334,-116.844025,0.523901,0.003743,-0.052568,-0.850147
821,0.303568,-0.213883,9.943708,-2.805988,0.503003,-0.596629,5.446925,-2.954185,-116.830360,0.524038,0.002944,-0.053949,-0.849979
822,0.311701,-0.159013,9.574027,-12.581255,-1.348391,-3.384803,5.193938,-2.962062,-116.897774,0.523545,0.001698,-0.052109,-0.850401
823,0.313963,-0.099891,9.652257,-18.139837,-1.200591,-8.606607,4.692471,-2.987159,-117.100845,0.522044,-0.000865,-0.048500,-0.851538
824,-0.253083,0.225208,9.626750,-5.284529,23.908249,-14.492332,4.319268,-2.579521,-117.455276,0.519332,0.000332,-0.043877,-0.853446
825,-0.446689,0.518932,9.383114,6.642074,31.855181,-14.829395,4.356586,-1.615434,-117.871422,0.516034,0.007544,-0.039824,-0.855608
826,-0.252372,0.757729,9.415967,13.185000,21.686749,-13.430854,4.694770,-0.688417,-118.269753,0.512790,0.015860,-0.038236,-0.857515
827,-0.388419,0.717087,9.908377,5.447932,25.024706,-14.157592,5.007479,0.126339,-118.661362,0.509554,0.023230,-0.037012,-0.859329
828,-0.637642,0.866035,9.920979,9.364224,31.332914,-15.750922,5.249825,1.106126,-119.074394,0.506042,0.031529,-0.034585,-0.861238
829,-0.573984,0.940517,9.811582,7.413475,21.767923,-15.657681,5.517296,2.036356,-119.512489,0.502278,0.039571,-0.032632,-0.863184
831,-0.585237,0.942077,9.629777,3.223457,16.793030,-15.371202,5.676132,2.726280,-119.964775,0.498491,0.045336,-0.030974,-0.865154
832,-0.680567,0.831702,9.887987,-3.732651,15.198545,-13.184981,5.645637,3.303651,-120.386513,0.495035,0.049452,-0.028403,-0.867000
833,-0.731341,0.825405,10.027104,-3.123528,10.565417,-10.048254,5.510088,3.768423,-120.731094,0.492252,0.052300,-0.025517,-0.868505
834,-0.561283,0.653941,10.023480,-8.404920,-1.717120,-7.711388,5.299056,3.943106,-121.012527,0.490127,0.052658,-0.023293,-0.869747
835,-0.479135,0.616347,9.879612,-6.910037,-7.232917,-6.309094,5.027340,3.815449,-121.259499,0.488436,0.050481,-0.021888,-0.870864
836,-0.481729,0.602417,10.044204,-4.475852,-7.897283,-5.552436,4.823548,3.581195,-121.478668,0.486965,0.047794,-0.021434,-0.871849
837,-0.522459,0.567061,9.907138,-3.867091,-6.042232,-5.787039,4.671923,3.365340,-121.686676,0.485539,0.045471,-0.021285,-0.872772
838,-0.288985,0.426850,9.854824,-10.746963,-13.610299,-6.713329,4.415224,3.055345,-121.920670,0.483985,0.041983,-0.020734,-0.873823
839,-0.321624,0.434225,9.900970,-15.705317,-10.487751,-10.344200,3.958795,2.675460,-122.233879,0.481898,0.037109,-0.018966,-0.875236
840,-0.342346,0.347194,9.961771,-26.365675,-7.723458,-16.328489,3.236969,2.400447,-122.696777,0.478667,0.031914,-0.014741,-0.877293
841,-0.209796,0.217136,9.838795,-38.947086,-12.118428,-22.326107,2.122407,2.100203,-123.355843,0.473968,0.024915,-0.007608,-0.880157
842,-0.016089,0.017968,9.971591,-51.027920,-18.523914,-27.224039,0.596005,1.609215,-124.193863,0.467860,0.014844,0.001976,-0.883676
843,-0.112926,-0.085371,9.920428,-46.873959,-11.805515,-28.850445,-1.057103,1.099938,-125.126610,0.460806,0.004268,0.012609,-0.887401
844,-0.026457,-0.250844,9.734159,-42.420864,-10.153669,-27.077936,-2.559947,0.705329,-126.045914,0.453634,-0.004649,0.022698,-0.890887
845,-0.000650,-0.428775,9.850965,-36.079914,-7.439712,-22.096260,-3.875560,0.366770,-126.847496,0.447227,-0.012267,0.031672,-0.893775
846,0.053298,-0.564375,9.918777,-24.049843,-4.684379,-15.142853,-4.880161,0.117874,-127.450676,0.442312,-0.017925,0.038631,-0.895849
847,0.153257,-0.605996,9.799704,-14.074917,-6.229794,-10.952147,-5.515596,-0.102625,-127.867271,0.438864,-0.021945,0.042827,-0.897264
848,0.050191,-0.681182,9.933212,-14.844975,-0.471615,-7.982810,-5.996553,-0.245295,-128.170273,0.436335,-0.024782,0.046112,-0.898260
849,0.211534,-0.711972,10.118291,-3.813197,-4.933088,-3.664740,-6.306661,-0.355755,-128.353394,0.434782,-0.026752,0.048165,-0.898849
850,0.357527,-0.695456,9.863749,7.941706,-11.404449,0.291155,-6.237534,-0.632519,-128.379715,0.434469,-0.028649,0.046578,-0.899025
851,0.312263,-0.607569,9.823077,27.952446,-11.485529,5.333059,-5.641092,-1.002216,-128.247208,0.435499,-0.029335,0.040460,-0.898801
852,0.421143,-0.597710,9.921673,42.659111,-9.234980,16.333284,-4.472052,-1.314322,-127.857590,0.438722,-0.027440,0.030007,-0.897702
853,0.495895,-0.360184,9.814264,70.185234,-10.213750,27.069141,-2.610139,-1.592579,-127.116112,0.444849,-0.022581,0.014204,-0.895208
854,0.060993,-0.294292,9.773443,68.909416,9.632205,34.938953,-0.321203,-1.575802,-126.083366,0.453263,-0.013527,-0.003736,-0.891266
855,-0.011703,-0.093460,10.104242,59.711525,15.457697,34.427898,1.795158,-1.171281,-124.925636,0.462385,-0.001820,-0.018615,-0.886482
856,-0.177903,0.181406,10.155896,51.025738,19.686874,30.206217,3.623083,-0.636569,-123.823494,0.470743,0.009985,-0.030503,-0.881686
857,-0.421295,0.515134,10.096597,35.151001,24.955090,20.912256,5.054678,0.040836,-122.918945,0.477302,0.021381,-0.038567,-0.877632
858,-0.373836,0.687283,10.069341,12.784263,18.522329,12.171465,5.858285,0.709751,-122.302681,0.481581,0.030074,-0.041774,-0.874889
859,-0.160510,0.945767,10.068873,5.299393,3.702800,5.694345,6.164978,1.047392,-121.968513,0.483898,0.034063,-0.042595,-0.873423
860,-0.155554,1.038008,9.828104,5.890860,-0.644639,3.877244,6.354383,1.080670,-121.804230,0.485077,0.035179,-0.043848,-0.872662
861,-0.041108,1.004189,9.804833,0.237730,-5.787563,3.808289,6.458538,0.959806,-121.688828,0.485980,0.034746,-0.045119,-0.872113
862,-0.078783,0.992686,9.844424,-4.423956,-4.542915,3.662245,6.390302,0.774824,-121.584274,0.486881,0.033091,-0.045355,-0.871662
863,-0.092008,0.977369,9.836990,-5.670042,-2.402634,3.438687,6.223381,0.646801,-121.479279,0.487783,0.031449,-0.044601,-0.871257
864,-0.040702,0.977305,9.888291,-5.051967,-4.075937,3.602572,6.045775,0.526912,-121.374092,0.488682,0.029821,-0.043734,-0.870855
865,-0.042641,1.017388,9.883583,-2.245080,-3.197244,3.658028,5.925010,0.393731,-121.266411,0.489586,0.028335,-0.043358,-0.870415
866,-0.070564,1.045921,9.828784,-1.040497,-0.857258,3.110581,5.870910,0.314898,-121.161156,0.490430,0.027545,-0.043259,-0.869970
867,-0.013892,1.003841,9.864615,-5.328492,-2.799771,2.669597,5.765213,0.244488,-121.071495,0.491164,0.026592,-0.042737,-0.869612
868,0.009784,0.847640,9.897944,-11.338256,-2.911872,1.912228,5.487645,0.142299,-121.004814,0.491770,0.024650,-0.041055,-0.869407
869,-0.063604,0.880985,9.772298,-7.878187,1.317014,0.773965,5.167462,0.111722,-120.962677,0.492168,0.023058,-0.038748,-0.869332
870,-0.023345,0.882395,9.780738,-7.205402,0.043532,0.001436,4.916113,0.133181,-120.947708,0.492324,0.022146,-0.036746,-0.869354
871,0.067308,0.898325,9.865130,-6.879162,-3.671172,-0.839545,4.681337,0.074117,-120.966713,0.492242,0.020684,-0.035222,-0.869499
872,0.061522,0.823104,9.960156,-8.769252,-2.706025,-2.880698,4.420503,-0.026894,-121.037018,0.491784,0.018776,-0.033688,-0.869863
873,0.004087,0.874780,9.849457,-4.884773,0.017224,-5.819287,4.193031,-0.060665,-121.184944,0.490706,0.017502,-0.032129,-0.870557
874,0.095285,0.688579,9.885045,-11.948752,-3.667931,-7.899117,3.912771,-0.105110,-121.417259,0.488993,0.015903,-0.030222,-0.871619
875,0.041973,0.520532,9.983522,-15.727217,-1.373856,-8.904901,3.452251,-0.171049,-121.702194,0.486899,0.013369,-0.027034,-0.872938
876,-0.019849,0.442300,9.948963,-12.688903,1.079020,-9.166485,2.979474,-0.159108,-122.003082,0.484653,0.011389,-0.023411,-0.874319
877,-0.041091,0.445890,9.836141,-7.334164,1.200187,-8.301034,2.646380,-0.106810,-122.291893,0.482470,0.010328,-0.020675,-0.875608
878,0.012113,0.368606,9.975020,-7.454403,-1.752999,-6.226389,2.400350,-0.105263,-122.534157,0.480639,0.009264,-0.018808,-0.876668
