seq,ax,ay,az,wroll,wpitch,wyaw,roll,pitch,yaw,q0,q1,q2,q3
63,-0.243556,-1.434461,9.782955,-0.709899,-4.424086,9.918085,-8.341757,1.411056,-0.206879,0.997276,-0.072703,0.012412,-0.000905
64,0.016683,-1.734868,9.794315,-0.286330,-4.108775,10.195706,-8.594460,1.209073,-0.044245,0.997133,-0.074922,0.010550,0.000406
65,-0.009742,-1.725410,9.703197,0.310636,-3.641299,10.589221,-8.946582,0.835032,0.311151,0.996922,-0.078012,0.007053,0.003275
66,-0.051611,-1.815376,9.531533,-0.185010,-3.519845,9.919222,-9.314022,0.582138,0.662462,0.996667,-0.081218,0.004594,0.006174
67,-0.027438,-1.892513,9.569386,-3.322177,-3.793335,7.909505,-9.786938,0.404373,0.971552,0.996310,-0.085330,0.002793,0.008748
68,-0.053452,-2.004835,9.605688,-5.600310,-3.734011,5.344381,-10.370120,0.261948,1.207993,0.995848,-0.090392,0.001324,0.010705
69,-0.049362,-1.951134,9.567679,-8.406146,-3.492937,2.413067,-10.958240,0.160414,1.355402,0.995359,-0.095493,0.000264,0.011907
70,-0.084114,-2.178573,9.744476,-14.716897,-3.549267,-0.876806,-11.658504,0.089805,1.402136,0.994753,-0.101566,-0.000463,0.012252
71,-0.165590,-2.081887,9.746870,-14.600167,-3.536625,-1.903668,-12.376885,0.098060,1.379647,0.994099,-0.107801,-0.000447,0.012061
72,-0.094282,-2.055790,9.738944,-14.265967,-3.142456,-1.520560,-12.851413,0.124014,1.346642,0.993647,-0.111920,-0.000240,0.011799
73,0.082066,-2.440126,9.868604,-14.531694,-2.234582,-4.525120,-13.396655,-0.002101,1.268290,0.993113,-0.116634,-0.001309,0.010990
74,-0.033614,-2.365054,9.801741,-8.135467,-0.914799,-10.085626,-13.909770,-0.154775,1.044457,0.992601,-0.121070,-0.002444,0.008884
75,-0.076120,-2.169395,9.618434,-4.567468,-0.085935,-13.314412,-14.004605,-0.175722,0.669424,0.992524,-0.121898,-0.002234,0.005611
76,0.140230,-2.450264,9.586864,-7.261926,0.484747,-15.742165,-14.102373,-0.290901,0.197672,0.992433,-0.122751,-0.002731,0.001400
77,-0.021944,-2.586009,9.269968,-8.132385,0.908876,-18.423233,-14.559579,-0.433922,-0.358542,0.991926,-0.126725,-0.003360,-0.003583
78,-0.108115,-2.327432,8.846404,-11.256579,0.378409,-16.016703,-15.066341,-0.387783,-0.918750,0.991328,-0.131122,-0.002304,-0.008392
79,0.057912,-2.652032,8.874154,-18.639664,-0.893799,-12.047657,-15.758903,-0.391941,-1.367706,0.990477,-0.137119,-0.001752,-0.012291
80,0.065682,-2.696040,9.594158,-17.872690,-1.409547,-9.314718,-16.534273,-0.523651,-1.698300,0.989480,-0.143838,-0.002391,-0.015323
81,-0.259082,-2.639878,10.691454,-12.389018,-1.369193,-5.186897,-16.730110,-0.425046,-1.919896,0.989207,-0.145520,-0.001232,-0.017115
82,-0.017335,-3.123784,11.949109,-7.620249,-1.440054,-1.339800,-16.529860,-0.233468,-2.015088,0.989454,-0.143763,0.000512,-0.017694
83,0.254955,-3.823225,12.682912,-6.545310,-1.537842,-1.213192,-16.559528,-0.334039,-2.043026,0.989408,-0.144035,-0.000317,-0.018062
84,0.287871,-4.433690,12.754342,-7.855624,-1.759734,-2.266262,-17.120171,-0.601085,-2.079682,0.988670,-0.148914,-0.002485,-0.018726
85,0.316094,-4.505383,11.559758,-13.603272,-2.967376,-0.722194,-18.239809,-0.887748,-2.093374,0.987142,-0.158610,-0.004753,-0.019263
86,0.736333,-4.364580,9.680108,-27.137465,-5.031849,-1.401638,-20.063477,-1.468417,-2.058442,0.984432,-0.174378,-0.009487,-0.019918
87,0.327054,-3.391461,7.679111,-43.663849,-8.452838,-1.611084,-22.343214,-2.127525,-1.984217,0.980673,-0.194001,-0.014856,-0.020580
88,-0.077805,-2.516724,5.795311,-52.416866,-11.769506,1.613550,-24.499123,-2.203437,-1.833472,0.976862,-0.212404,-0.015393,-0.019711
89,-0.112700,-1.715944,4.922301,-54.475315,-11.906186,5.113380,-25.822626,-1.809487,-1.598877,0.974451,-0.223608,-0.012272,-0.017126
90,-0.077481,-1.739076,4.913113,-47.669918,-11.241805,6.479912,-26.230122,-1.389144,-1.310749,0.973750,-0.227011,-0.009210,-0.013889
91,-0.165845,-2.074075,5.353692,-27.346437,-9.414830,7.167407,-26.209400,-0.958317,-0.992425,0.973870,-0.226785,-0.006181,-0.010331
92,0.227992,-2.833076,6.531842,-2.747121,-4.988892,6.804538,-25.837822,-0.829084,-0.695494,0.974634,-0.223605,-0.005695,-0.007533
93,0.483285,-3.110556,8.034122,13.383166,-0.587678,5.209372,-24.830093,-1.194296,-0.490671,0.976544,-0.215022,-0.009258,-0.006422
94,0.855420,-4.384661,9.577117,15.034525,0.483082,6.597008,-23.810862,-1.771049,-0.329561,0.978359,-0.206315,-0.014529,-0.006002
95,1.232747,-5.360937,10.971416,19.948786,1.808085,5.755098,-23.457901,-2.489784,-0.156857,0.978882,-0.203263,-0.020994,-0.005756
96,0.977146,-5.340952,11.405721,21.810497,3.336527,3.488251,-23.200342,-3.018094,-0.037130,0.979233,-0.201019,-0.025732,-0.005613
97,0.953682,-5.030966,11.023423,14.018017,2.991992,2.862161,-22.939175,-3.265620,0.032476,0.979634,-0.198759,-0.027981,-0.005388
98,0.791967,-5.026831,10.669697,10.072148,2.467860,2.173734,-22.946699,-3.380993,0.096193,0.979595,-0.198801,-0.029078,-0.005046
99,0.569232,-4.175872,9.746046,16.847837,2.530308,0.089331,-22.783058,-3.319985,0.114923,0.979894,-0.197401,-0.028596,-0.004739
100,0.516604,-3.499693,8.827093,15.128458,2.521338,-2.754937,-22.143669,-3.201463,0.036135,0.981006,-0.191956,-0.027475,-0.005055
101,1.385731,-3.863614,8.900347,5.342477,0.666652,-4.300061,-21.860901,-3.911354,-0.090947,0.981281,-0.189533,-0.033357,-0.007250
102,0.966211,-4.259905,9.082728,1.658550,-1.155131,-5.759884,-22.295616,-4.899751,-0.205376,0.980219,-0.193239,-0.041593,-0.010021
103,1.042296,-4.122386,9.237067,-0.092028,-2.749147,-5.288608,-22.821257,-5.320602,-0.304447,0.979150,-0.197746,-0.044972,-0.011784
104,1.042432,-4.059513,9.206798,-4.977529,-4.783787,-2.149924,-23.206236,-5.662127,-0.341310,0.978335,-0.201029,-0.047783,-0.012848
105,0.875416,-3.932752,9.115625,-6.786160,-6.581333,3.302248,-23.535685,-5.825221,-0.235990,0.977694,-0.203785,-0.049325,-0.012377
106,0.287374,-3.464721,8.947694,-4.691757,-6.308059,6.183824,-23.496754,-5.427791,-0.029957,0.977951,-0.203398,-0.046304,-0.009897
107,0.903414,-3.314033,9.009010,0.628610,-4.412858,7.908517,-22.828669,-5.031797,0.187021,0.979290,-0.197641,-0.043351,-0.007089
108,1.105613,-3.492684,9.207828,8.566075,-1.944430,7.740181,-21.898928,-5.229920,0.396122,0.980797,-0.189589,-0.045449,-0.005276
109,1.087459,-3.412312,9.352636,15.080430,0.036820,1.838879,-21.003613,-5.519981,0.505970,0.982138,-0.181844,-0.048149,-0.004440
110,0.850039,-3.244033,9.418672,16.207994,1.216284,-3.325033,-20.045736,-5.550101,0.432193,0.983608,-0.173656,-0.048331,-0.004716
111,1.072468,-3.872404,9.372236,12.087849,1.170553,-3.482165,-19.607687,-5.534576,0.316435,0.984266,-0.169945,-0.048044,-0.005503
112,0.910574,-3.784654,9.331136,10.534173,0.717248,-4.702758,-19.765062,-5.565802,0.229463,0.984015,-0.171330,-0.048174,-0.006362
113,0.788550,-3.811430,9.195347,8.677893,-0.478539,-4.067545,-20.122126,-5.416404,0.156235,0.983533,-0.174439,-0.046761,-0.006913
114,0.730048,-3.821787,9.171896,10.182904,-0.787335,-0.136143,-20.590084,-5.124277,0.170783,0.982928,-0.178473,-0.044249,-0.006524
115,0.974412,-4.011190,9.230154,11.503565,-1.118113,1.776195,-20.932640,-5.008983,0.270519,0.982439,-0.181382,-0.043399,-0.005619
116,0.810084,-3.407587,9.321323,16.185869,-0.706162,0.720311,-20.705414,-5.030464,0.341099,0.982792,-0.179405,-0.043705,-0.004961
117,0.766337,-3.236717,9.259879,18.698397,-1.162070,1.501635,-19.870220,-4.945161,0.364993,0.984106,-0.172236,-0.043043,-0.004309
119,0.788096,-3.196743,9.309104,13.968904,-1.508102,-0.520167,-19.063316,-4.876846,0.373877,0.985319,-0.165305,-0.042498,-0.003830
120,0.757762,-3.158470,9.424629,10.762017,-1.390215,-2.511418,-18.464815,-4.819912,0.327023,0.986188,-0.160178,-0.041962,-0.003932
121,0.678172,-2.944529,9.379666,8.660071,-0.586899,-3.318472,-17.898441,-4.672974,0.226558,0.987016,-0.155350,-0.040579,-0.004390
122,0.685689,-2.805145,9.352847,4.789912,0.068478,-3.290854,-17.330126,-4.485146,0.098387,0.987834,-0.150509,-0.038813,-0.005047
123,0.681167,-2.809744,9.508706,-1.631786,1.257707,-4.064407,-16.989777,-4.339382,-0.046502,0.988318,-0.147630,-0.037384,-0.005994
124,0.694047,-2.632786,9.565886,-0.040652,2.585647,-3.661534,-16.669113,-4.202553,-0.213914,0.988762,-0.144923,-0.036008,-0.007161
125,0.833636,-2.540173,9.647976,0.438713,3.240191,-4.047751,-16.123695,-4.181284,-0.404035,0.989434,-0.140275,-0.035626,-0.008605
126,0.671720,-2.552505,9.709174,3.046468,3.687169,-4.026537,-15.609326,-4.153474,-0.598705,0.990047,-0.135893,-0.035193,-0.010094
127,0.602773,-2.459770,9.762295,7.581060,3.283208,-3.538206,-15.099556,-3.953439,-0.774225,0.990688,-0.131537,-0.033306,-0.011226
128,0.598453,-2.372642,9.700557,11.313171,2.003495,-2.817911,-14.407926,-3.734807,-0.923674,0.991514,-0.125592,-0.031318,-0.012079
129,0.467911,-2.347674,9.598596,12.635628,0.687386,-0.959205,-13.701406,-3.474263,-1.013740,0.992333,-0.119489,-0.029042,-0.012395
130,0.371828,-2.349127,9.502141,11.850016,-0.382682,1.511534,-13.222129,-3.118701,-1.007688,0.992917,-0.115320,-0.026018,-0.011865
131,0.544871,-2.327502,9.390512,9.640035,-0.945175,3.065091,-13.000833,-2.943831,-0.919198,0.993188,-0.113374,-0.024613,-0.010875
132,0.421768,-2.387350,9.356243,8.650231,-0.467408,4.838306,-13.004707,-2.886530,-0.769502,0.993210,-0.113374,-0.024264,-0.009522
133,0.548266,-2.339608,9.143933,11.407946,0.411567,5.724939,-13.027465,-2.830766,-0.579835,0.993215,-0.113529,-0.023967,-0.007828
134,0.728949,-2.257978,8.564512,10.451562,1.671122,4.349940,-13.018240,-3.019487,-0.406556,0.993192,-0.113414,-0.025775,-0.006510
135,0.546728,-1.975844,8.042628,7.284324,3.652327,3.818743,-13.012651,-3.198528,-0.279410,0.993162,-0.113336,-0.027453,-0.005584
136,0.499584,-1.713578,8.148168,4.768204,5.171788,4.053643,-12.777344,-3.137676,-0.186962,0.993411,-0.111275,-0.027026,-0.004667
137,0.422375,-1.364895,8.549034,8.400189,6.148440,3.043391,-12.017280,-2.916370,-0.141854,0.994180,-0.104676,-0.025178,-0.003895
138,0.160072,-1.222264,9.354079,13.251150,7.952951,4.692937,-10.729383,-2.404287,-0.107220,0.995398,-0.093494,-0.020800,-0.002893
139,0.007716,-1.052179,11.171107,20.770046,8.250591,6.661529,-9.052717,-1.622224,-0.007328,0.996781,-0.078911,-0.014107,-0.001181
140,0.200305,-1.193780,13.211543,31.010935,7.941997,7.194162,-7.156786,-0.972001,0.159511,0.998014,-0.062400,-0.008553,0.000860
141,0.033663,-1.387715,14.107557,39.661915,7.330698,8.617883,-5.372470,-0.511053,0.385478,0.998886,-0.046851,-0.004612,0.003151
142,0.106939,-1.933410,14.295733,33.054363,5.666257,11.292871,-4.251658,-0.163413,0.701017,0.999292,-0.037085,-0.001652,0.006060
143,0.182576,-2.327435,13.770706,16.598963,3.615226,12.432736,-4.287001,-0.035070,1.087775,0.999255,-0.037398,-0.000661,0.009474
144,0.010047,-2.468705,12.003388,-3.868440,4.023949,14.019690,-5.497763,0.063107,1.518750,0.998761,-0.047962,-0.000086,0.013264
145,-0.284848,-2.389490,9.705174,-25.109076,5.053004,15.100100,-7.734795,0.445321,1.979470,0.997562,-0.067504,0.002712,0.017496
146,-0.130344,-2.098567,7.800711,-46.683884,5.700766,13.209534,-10.679587,0.928563,2.397149,0.995394,-0.093207,0.006120,0.021580
147,-0.345267,-1.412171,6.162163,-56.648689,6.824841,9.980819,-13.464748,1.514537,2.708635,0.992704,-0.117499,0.010351,0.025019
148,-0.310153,-1.027632,5.221262,-54.675636,7.256624,6.978118,-15.300648,2.263415,2.911194,0.990519,-0.133555,0.016188,0.027800
149,-0.132308,-1.024350,5.204357,-42.159088,5.923308,2.575983,-16.180193,2.629757,3.024319,0.989357,-0.141244,0.018998,0.029348
150,-0.186030,-1.090350,5.673134,-23.864283,3.255370,0.285553,-16.216108,2.609948,3.074127,0.989305,-0.141558,0.018756,0.029759
151,-0.346269,-1.568293,6.731883,-4.281990,0.404717,-0.368985,-15.741517,2.610319,3.098966,0.989876,-0.137464,0.018853,0.029897
152,-0.062858,-2.730434,8.521845,9.631801,-2.733292,-2.633637,-15.533167,2.340599,3.066406,0.990192,-0.135603,0.016615,0.029264
153,-0.160858,-2.997835,10.237488,24.929674,-4.835809,-5.884275,-15.277437,1.767033,2.947876,0.990628,-0.133260,0.011859,0.027540
154,-0.392525,-3.464054,11.709923,29.677607,-6.156234,-5.205405,-14.595035,1.384935,2.805974,0.991493,-0.127268,0.008874,0.025819
155,-0.156447,-3.323007,12.034173,27.531391,-6.559287,-6.313303,-13.874373,1.065857,2.664683,0.992342,-0.120958,0.006422,0.024204
156,0.058984,-2.924489,11.879535,21.218338,-5.607839,-8.626797,-13.154375,0.584551,2.465691,0.993163,-0.114623,0.002602,0.021958
157,-0.069121,-2.156370,10.933331,15.428218,-4.079436,-9.132010,-12.315763,0.185023,2.212022,0.994040,-0.107279,-0.000466,0.019364
158,-0.129540,-2.060713,9.983900,3.652119,-3.392656,-8.501772,-11.700356,0.037495,1.952069,0.994647,-0.101918,-0.001411,0.016979
159,-0.012512,-1.694801,9.169851,-2.104491,-3.290206,-9.766717,-11.462854,-0.067606,1.677232,0.994895,-0.099846,-0.002049,0.014504
160,0.108773,-2.112294,9.335824,-6.743326,-3.386540,-10.294726,-11.615683,-0.304788,1.372332,0.994795,-0.101153,-0.003858,0.011645
161,0.051115,-2.534002,9.555076,-8.016117,-3.841477,-9.249502,-12.368025,-0.555487,1.081770,0.994130,-0.107670,-0.005836,0.008863
162,0.153083,-2.593931,9.746615,-8.003022,-4.075060,-7.824298,-13.281212,-0.782073,0.839035,0.993247,-0.115586,-0.007626,0.006483
163,0.322752,-2.635578,9.802210,-9.309300,-4.106078,-6.927152,-14.050146,-1.124886,0.639187,0.992436,-0.122242,-0.010425,0.004335
164,0.511633,-2.556795,9.614939,-9.894709,-3.710381,-7.185273,-14.658849,-1.630842,0.451063,0.991728,-0.127505,-0.014617,0.002088
165,0.393677,-2.356127,9.472789,-10.329653,-3.300815,-7.319785,-15.006132,-2.086505,0.249425,0.991276,-0.130518,-0.018335,-0.000220
166,0.403148,-2.363745,9.540098,-9.033475,-3.295046,-7.464860,-15.120468,-2.362463,0.033666,0.991097,-0.131534,-0.020474,-0.002421
167,0.228260,-2.375102,9.542375,-5.242239,-2.762212,-6.431765,-15.098823,-2.433674,-0.173544,0.991103,-0.131383,-0.020853,-0.004291
168,0.198324,-2.397526,9.647925,-0.907754,-2.413451,-4.214403,-14.937898,-2.301616,-0.333084,0.991304,-0.130020,-0.019536,-0.005492
169,0.139435,-2.524898,9.820918,2.530778,-2.119451,-1.302690,-14.721073,-2.082659,-0.409484,0.991581,-0.128155,-0.017566,-0.005872
170,0.080093,-2.572147,9.749337,8.173822,-2.046592,2.605500,-14.492146,-1.790978,-0.371751,0.991881,-0.126165,-0.015095,-0.005189
171,0.126135,-2.355891,9.556623,11.351099,-1.966140,6.225273,-14.081389,-1.477847,-0.213374,0.992372,-0.122588,-0.012571,-0.003429
172,0.391039,-2.351019,9.681077,11.319592,-2.237612,7.543697,-13.548513,-1.448069,0.023149,0.992940,-0.117946,-0.012572,-0.001290
173,0.420972,-2.308648,9.683691,12.673355,-2.258177,7.899051,-13.075865,-1.686593,0.287530,0.993390,-0.113812,-0.014908,0.000817
174,0.449227,-2.112811,9.634221,14.191969,-2.229872,8.144552,-12.541669,-1.913315,0.560361,0.993875,-0.109131,-0.017130,0.003036
175,0.614868,-1.968573,9.721362,12.857594,-1.931920,6.368094,-11.856576,-2.278755,0.800620,0.994445,-0.103123,-0.020499,0.004894
176,0.559694,-1.834770,9.734148,12.570329,-1.321281,4.870845,-11.100080,-2.683021,0.977461,0.995022,-0.096486,-0.024126,0.006223
177,0.434445,-1.635402,9.643083,12.692204,-0.819638,4.913429,-10.288447,-2.810171,1.123966,0.995646,-0.089392,-0.025300,0.007567
178,0.471106,-1.474953,9.636745,11.073197,-0.195433,4.689064,-9.440937,-2.771942,1.262555,0.996278,-0.082000,-0.025010,0.008987
179,0.431144,-1.400266,9.675733,9.273998,0.373892,4.486073,-8.690167,-2.701319,1.393239,0.996797,-0.075451,-0.024423,0.010334
180,0.342109,-1.311984,9.695601,8.759328,0.780263,5.583234,-8.068526,-2.515925,1.542020,0.997212,-0.070035,-0.022844,0.011875
181,0.369950,-1.324933,9.749158,7.278311,0.661770,6.572083,-7.612572,-2.305185,1.732006,0.997499,-0.066059,-0.021072,0.013742
182,0.475711,-1.354088,9.818867,6.367377,0.431316,6.602594,-7.380319,-2.270332,1.947172,0.997608,-0.064003,-0.020861,0.015678
183,0.517937,-1.350239,9.804319,5.774969,-0.092658,6.845155,-7.292125,-2.411236,2.172822,0.997601,-0.063169,-0.022200,0.017580
184,0.611028,-1.390927,9.806224,3.960024,-0.659694,6.025641,-7.325597,-2.673037,2.395021,0.997499,-0.063367,-0.024607,0.019361
185,0.678611,-1.419625,9.828364,2.582804,-0.840926,3.909069,-7.475920,-3.029768,2.574459,0.997311,-0.064562,-0.027838,0.020686
186,0.682370,-1.345941,9.887789,2.920977,-0.494069,1.006651,-7.564215,-3.358815,2.667931,0.997168,-0.065235,-0.030770,0.021287
187,0.618204,-1.245308,9.891331,2.930189,0.443844,-2.843333,-7.447982,-3.524414,2.636326,0.997199,-0.064196,-0.032172,0.020948
188,0.555419,-1.197327,9.951897,2.570484,1.817217,-7.782774,-7.220889,-3.498417,2.447882,0.997364,-0.062278,-0.031802,0.019386
189,0.373453,-1.130733,9.987122,2.912796,3.526898,-12.085833,-6.957679,-3.257133,2.098921,0.997618,-0.060126,-0.029474,0.016550
190,0.252289,-1.135473,10.006866,4.024136,5.389719,-16.301844,-6.676226,-2.806670,1.603980,0.997926,-0.057863,-0.025261,0.012543
191,0.157011,-1.142552,9.986838,5.213069,7.687628,-20.496460,-6.423095,-2.240227,0.967145,0.998212,-0.055845,-0.019990,0.007330
192,0.040927,-1.154908,9.951262,6.459732,9.845222,-23.557299,-6.208389,-1.590036,0.206594,0.998436,-0.054122,-0.013952,0.001049
193,-0.072366,-1.117699,9.871998,7.320187,11.889929,-26.258017,-6.010617,-0.866947,-0.654424,0.998578,-0.052469,-0.007256,-0.006100
194,-0.100353,-1.136409,9.869244,6.752239,13.881021,-29.814806,-5.858429,-0.148039,-1.625262,0.998591,-0.051115,-0.000565,-0.014230
195,-0.096318,-1.217456,9.868300,6.203783,15.238372,-32.729233,-5.840073,0.469941,-2.709914,0.998419,-0.050831,0.005299,-0.023406
196,-0.140784,-1.167098,9.868340,5.977166,15.774361,-34.484009,-5.885352,0.986801,-3.877731,0.998088,-0.051015,0.010332,-0.033345
197,-0.128857,-1.185261,10.138404,4.119482,16.137562,-36.527229,-5.932374,1.402908,-5.112146,0.997620,-0.051146,0.014521,-0.043901
198,-0.263174,-1.067836,10.510817,4.433578,15.992508,-37.445847,-5.898321,1.781436,-6.395140,0.997045,-0.050498,0.018370,-0.054900
199,-0.330637,-1.070451,10.622509,5.022688,15.076959,-34.665604,-5.753020,2.176999,-7.642865,0.996403,-0.048798,0.022275,-0.065600
200,-0.416630,-1.099567,10.706091,2.504924,14.675654,-30.153442,-5.670427,2.566593,-8.767919,0.995689,-0.047597,0.026083,-0.075223
201,-0.506275,-1.262757,10.680985,-1.375946,14.282030,-25.319326,-5.831705,2.972790,-9.743217,0.994875,-0.048468,0.030131,-0.083470
202,-0.562973,-1.542483,10.339226,-4.951057,13.229239,-18.933390,-6.399797,3.376418,-10.547888,0.993934,-0.052856,0.034419,-0.090097
203,-0.447111,-1.891567,9.772769,-9.021868,12.209682,-12.526210,-7.478687,3.655676,-11.166077,0.992835,-0.061779,0.038019,-0.094961
204,-0.397997,-1.853367,9.369888,-12.447606,11.249133,-8.270687,-8.791754,3.760010,-11.618534,0.991658,-0.072902,0.040296,-0.098364
205,-0.341196,-1.950086,9.093024,-14.241667,8.844744,-4.808687,-10.044153,3.725448,-11.933424,0.990537,-0.083653,0.041300,-0.100667
206,-0.250523,-1.955219,8.907060,-12.745318,6.046339,-2.868080,-11.140216,3.517194,-12.138890,0.989548,-0.093245,0.040630,-0.102223
207,-0.320554,-1.748011,8.973389,-10.857053,3.225091,-2.125259,-11.789629,3.240259,-12.261240,0.988938,-0.099071,0.038926,-0.103301
208,-0.357472,-1.680273,9.161027,-8.671362,0.567510,-1.649327,-11.948668,3.002398,-12.324188,0.988776,-0.100649,0.037074,-0.104011
209,-0.435834,-1.728285,9.420123,-5.850349,-2.065251,0.398413,-11.859638,2.812052,-12.321406,0.988879,-0.100063,0.035349,-0.104191
210,-0.533674,-1.620370,9.560651,-3.653124,-4.662411,5.205143,-11.585958,2.714939,-12.185696,0.989249,-0.097834,0.034146,-0.103191
211,-0.600992,-1.611773,9.812946,-2.763353,-7.068413,13.068399,-11.171141,2.705398,-11.823287,0.989920,-0.094368,0.033392,-0.100192
212,-0.544709,-1.724927,9.973536,-2.389676,-8.795362,22.166113,-10.820792,2.684090,-11.175547,0.990758,-0.091545,0.032384,-0.094712
213,-0.482205,-1.771904,10.008761,-5.944282,-10.896417,31.620810,-10.675817,2.575166,-10.220963,0.991641,-0.090643,0.030569,-0.086586
214,-0.260520,-2.081077,9.992779,-10.653402,-13.602282,40.378021,-10.933947,2.278102,-8.965744,0.992358,-0.093415,0.027173,-0.075902
215,-0.025064,-2.280808,9.978718,-13.520225,-16.044949,45.256126,-11.626082,1.708597,-7.480065,0.992727,-0.100088,0.021407,-0.063380
216,0.186324,-2.487659,9.893141,-17.771585,-18.489742,46.716022,-12.609017,0.918332,-5.870120,0.992662,-0.109257,0.013578,-0.050014
217,0.423096,-2.567396,9.673247,-19.456459,-20.721344,45.783161,-13.750383,-0.050492,-4.220990,0.992134,-0.119642,0.003971,-0.036615
218,0.586403,-2.677659,9.533913,-18.888859,-22.374828,43.180874,-14.877559,-1.130101,-2.596886,0.991252,-0.129649,-0.006843,-0.023745
219,0.665985,-2.545880,9.419488,-17.255411,-22.470129,38.616268,-15.769390,-2.177670,-1.071475,0.990300,-0.137325,-0.017540,-0.011867
220,0.633053,-2.479430,9.290521,-16.010040,-20.875587,33.268990,-16.320364,-3.032468,0.284002,0.989535,-0.141826,-0.026544,-0.001303
222,0.425108,-2.485021,9.156980,-14.594771,-16.411127,25.750607,-16.672804,-3.475883,1.396799,0.988959,-0.144542,-0.031772,0.007658
223,0.262750,-2.523391,9.173404,-15.066898,-11.690577,19.261051,-16.944063,-3.442058,2.235529,0.988540,-0.146653,-0.032572,0.014862
224,0.135200,-2.504711,9.231658,-14.298215,-6.761721,12.860217,-17.122561,-3.070510,2.816064,0.988302,-0.148118,-0.030142,0.020303
225,-0.086553,-2.507246,9.292953,-13.585716,-1.713234,7.019581,-17.177361,-2.409176,3.149505,0.988280,-0.148679,-0.024882,0.024029
226,-0.291212,-2.669171,9.466756,-14.075771,3.694365,2.276268,-17.253736,-1.467645,3.268006,0.988258,-0.149565,-0.016934,0.026270
227,-0.269371,-2.645466,9.637487,-12.069454,7.906951,1.085271,-17.313881,-0.466510,3.250499,0.988219,-0.150342,-0.008292,0.027426
228,-0.269407,-2.578698,9.632631,-9.363930,12.053171,0.214502,-17.195259,0.422613,3.165495,0.988363,-0.149537,-0.000484,0.027861
229,-0.290639,-2.690003,9.617563,-9.399091,16.375761,0.053114,-17.071774,1.243178,3.030586,0.988477,-0.148652,0.006800,0.027759
230,-0.226546,-2.875972,9.474678,-7.317072,19.586773,-0.998098,-17.158197,1.958869,2.840729,0.988299,-0.149526,0.013200,0.027056
231,-0.071862,-2.774764,9.258657,-4.608306,20.594883,-2.635571,-17.292107,2.415663,2.586449,0.988093,-0.150729,0.017442,0.025476
232,0.001797,-2.891941,9.073849,-7.292376,19.636711,-4.931002,-17.494051,2.572626,2.266618,0.987860,-0.152443,0.019176,0.022957
233,0.067680,-3.054574,9.053130,-9.629143,16.746210,-7.551646,-17.965584,2.478895,1.879051,0.987316,-0.156431,0.018803,0.019569
234,0.089289,-3.052848,9.074727,-9.126254,11.587977,-9.336164,-18.494806,2.165498,1.460471,0.986709,-0.160894,0.016602,0.015613
235,-0.064854,-3.083105,9.266251,-10.693580,5.720613,-9.228394,-18.898544,1.800104,1.076763,0.986242,-0.164292,0.013952,0.011847
236,-0.165729,-3.323437,9.478149,-11.377319,-0.452691,-7.068002,-19.312017,1.497289,0.792639,0.985710,-0.167803,0.011720,0.009010
237,-0.190593,-3.496105,9.587156,-7.189083,-6.929169,-4.249785,-19.753633,1.173851,0.653719,0.985101,-0.171576,0.009113,0.007377
238,-0.252522,-3.584108,9.621183,-2.643877,-12.527853,-0.827171,-20.074430,0.818389,0.681243,0.984645,-0.174322,0.005996,0.007098
239,-0.245450,-3.631886,9.592503,0.437990,-16.075348,1.426714,-20.259937,0.462812,0.851950,0.984371,-0.175905,0.002668,0.008029
240,-0.165975,-3.618249,9.459432,1.530052,-18.347088,2.188278,-20.376047,0.061351,1.105576,0.984186,-0.176876,-0.001180,0.009590
241,-0.183048,-3.430156,9.188517,0.103024,-18.639544,1.904648,-20.435740,-0.325712,1.383572,0.984071,-0.177344,-0.004939,0.011378
242,-0.229403,-3.385180,8.935842,-3.202284,-16.462624,0.971137,-20.535078,-0.552316,1.632969,0.983887,-0.178157,-0.007282,0.013162
243,-0.391938,-3.317194,8.798133,-5.921646,-13.216876,-0.294772,-20.737709,-0.489317,1.817062,0.983549,-0.179894,-0.007054,0.014829
244,-0.439678,-3.260408,8.777252,-8.916948,-9.869901,0.034110,-20.959021,-0.162565,1.947389,0.983181,-0.181834,-0.004486,0.016452
245,-0.296673,-3.275488,8.843989,-10.180041,-6.549211,2.085637,-21.165270,0.173023,2.075814,0.982824,-0.183650,-0.001843,0.018083
246,-0.110275,-3.553797,9.064684,-7.301998,-2.938017,2.583416,-21.411858,0.328398,2.204008,0.982398,-0.185787,-0.000757,0.019430
247,-0.042952,-3.460297,9.340915,-2.023371,0.794524,0.738624,-21.431473,0.356747,2.269061,0.982353,-0.185960,-0.000623,0.020033
248,0.189250,-3.548470,9.480416,2.485098,5.921096,-2.539269,-21.158974,0.277257,2.201646,0.982808,-0.183611,-0.001149,0.019329
249,0.155533,-3.514762,9.517081,7.437400,11.245672,-7.901719,-20.792219,0.191430,1.936270,0.983437,-0.180454,-0.001406,0.016920
250,-0.051106,-3.354445,9.507656,10.628953,16.529581,-11.765502,-20.240803,0.391168,1.466469,0.984347,-0.175745,0.001112,0.013198
251,-0.238791,-3.110320,9.481268,9.720790,21.213022,-13.807044,-19.522661,0.959105,0.854325,0.985450,-0.169595,0.006984,0.008766
252,-0.358804,-3.052954,9.339535,6.885406,24.306812,-13.428331,-18.868755,1.763827,0.182752,0.986352,-0.163922,0.014922,0.004096
253,-0.573210,-2.912681,9.263257,2.729846,23.819481,-10.695038,-18.414801,2.703826,-0.445380,0.986848,-0.159872,0.023911,-0.000060
254,-0.568153,-3.008309,9.187174,-2.579739,21.044624,-6.139856,-18.249245,3.580996,-0.939800,0.986871,-0.158247,0.032149,-0.003139
255,-0.530872,-3.204393,9.153964,-6.370422,16.785851,-3.991346,-18.508278,4.149543,-1.306017,0.986340,-0.160291,0.037562,-0.005420
256,-0.479681,-3.204700,9.085726,-7.555274,11.206461,-3.024163,-18.980785,4.356857,-1.581886,0.985593,-0.164230,0.039762,-0.007339
257,-0.427155,-3.261793,9.133085,-8.939883,4.868194,-1.770274,-19.447178,4.230902,-1.756941,0.984942,-0.168202,0.038966,-0.008867
258,-0.291304,-3.523230,9.223042,-8.559200,-0.643451,-1.558766,-19.984095,3.786306,-1.847318,0.984259,-0.172870,0.035326,-0.010136
259,-0.373034,-3.549062,9.298500,-4.095226,-4.485660,-2.052226,-20.462809,3.215049,-1.888737,0.983660,-0.177075,0.030529,-0.011231
260,-0.259864,-3.569970,9.412789,-1.495503,-7.593621,-0.465730,-20.690903,2.632057,-1.863870,0.983420,-0.179144,0.025511,-0.011872
261,-0.277081,-3.742485,9.472166,0.072708,-11.078288,2.607095,-20.840908,2.037619,-1.725615,0.983288,-0.180558,0.020209,-0.011592
262,-0.287973,-3.762580,9.474185,2.002371,-13.570639,5.065138,-20.987642,1.531574,-1.466508,0.983137,-0.181930,0.015471,-0.010148
263,-0.328985,-3.479127,9.343721,3.007861,-14.599133,6.819939,-20.924280,1.157047,-1.115032,0.983296,-0.181471,0.011695,-0.007735
264,-0.189810,-3.492908,9.220956,0.472051,-15.307057,9.069200,-20.775280,0.819462,-0.688210,0.983575,-0.180257,0.008117,-0.004618
265,-0.244899,-3.399334,8.867027,0.493407,-14.870431,8.936526,-20.756350,0.523665,-0.229036,0.983630,-0.180133,0.004855,-0.001143
266,-0.200514,-3.399499,8.719857,0.261188,-12.329288,6.835505,-20.824007,0.346412,0.176729,0.983527,-0.180729,0.002695,0.002063
267,-0.003739,-3.634257,8.678545,-0.192927,-8.753909,4.426114,-21.096102,0.128282,0.475696,0.983092,-0.183063,0.000341,0.004286
268,0.118170,-3.867794,8.768665,-1.418445,-5.188224,2.373582,-21.640947,-0.176819,0.664777,0.982204,-0.187720,-0.002605,0.005408
269,0.147913,-3.969816,8.861748,-1.994452,-1.273316,-0.785323,-22.375881,-0.464790,0.732419,0.980973,-0.193997,-0.005219,0.005483
270,0.148608,-4.107442,9.104291,-2.335167,2.920991,-4.162371,-23.035126,-0.619011,0.651022,0.979840,-0.199632,-0.006427,0.004488
271,0.111390,-4.066792,9.195464,-2.005064,6.648684,-6.730553,-23.412157,-0.589120,0.424868,0.979186,-0.202868,-0.005786,0.002587
272,-0.043649,-3.887310,9.273933,-1.660262,8.518226,-8.370798,-23.487692,-0.364663,0.093691,0.979063,-0.203533,-0.003282,0.000153
273,-0.224678,-3.693951,9.208742,-0.038867,9.286628,-9.351603,-23.256403,0.071985,-0.296448,0.979473,-0.201558,0.001137,-0.002407
274,-0.259363,-3.606970,9.260690,2.539772,8.828386,-7.928983,-22.811554,0.584315,-0.678242,0.980227,-0.197721,0.006169,-0.004793
275,-0.134152,-3.499666,9.301995,4.763083,6.503429,-6.065582,-22.225025,0.912553,-0.986374,0.981196,-0.192656,0.009473,-0.006911
276,-0.078572,-3.359181,9.453787,4.421904,2.873092,-3.389141,-21.428953,0.951017,-1.181504,0.982496,-0.185815,0.010071,-0.008587
277,-0.045598,-3.290475,9.503510,3.127072,-0.734664,0.669671,-20.642326,0.821123,-1.227381,0.983751,-0.179075,0.008968,-0.009253
278,0.058118,-3.325502,9.571148,0.999835,-4.362441,4.671948,-20.143194,0.565720,-1.109324,0.984540,-0.174821,0.006553,-0.008668
279,0.023003,-3.284970,9.487148,-5.623260,-7.732337,6.786649,-19.934216,0.234306,-0.858459,0.984880,-0.173062,0.003310,-0.007024
280,-0.104016,-3.207772,9.354883,-13.290265,-10.210557,9.791160,-20.017748,0.010900,-0.495040,0.984772,-0.173799,0.000844,-0.004238
281,-0.119191,-3.352123,9.121049,-15.761947,-11.955843,11.991680,-20.406893,-0.090900,-0.026560,0.984185,-0.177144,-0.000740,-0.000369
282,-0.109891,-3.457698,8.923599,-15.731779,-12.027055,12.402341,-21.037983,-0.158555,0.493941,0.983186,-0.182554,-0.002147,0.003985
283,-0.123159,-3.554489,8.864658,-13.460271,-10.750803,12.085169,-21.704254,-0.178049,1.010737,0.982080,-0.188254,-0.003187,0.008370
284,-0.122993,-3.598084,8.871150,-6.145428,-8.998411,11.880944,-22.165474,-0.130434,1.502675,0.981269,-0.192195,-0.003638,0.012650
285,-0.095260,-3.772110,8.991959,2.519940,-6.225245,10.339986,-22.335100,-0.044907,1.940790,0.980926,-0.193644,-0.003665,0.016539
286,-0.081842,-3.828597,9.117657,8.386680,-2.776174,8.042137,-22.286253,0.087907,2.281262,0.980950,-0.193237,-0.003095,0.019679
287,-0.116955,-3.681602,9.148248,12.430343,0.167849,4.779921,-21.950260,0.294534,2.496342,0.981463,-0.190392,-0.001624,0.021874
288,-0.188625,-3.473232,9.168032,13.749525,2.909058,2.335654,-21.278267,0.595488,2.590581,0.982523,-0.184688,0.000933,0.023175
289,-0.225561,-3.392375,9.215735,12.778646,5.276475,-0.194041,-20.495705,0.964597,2.580882,0.983729,-0.178042,0.004275,0.023658
290,-0.411721,-3.174795,9.133041,13.846299,6.041812,-1.466326,-19.744146,1.405767,2.497355,0.984839,-0.171659,0.008347,0.023570
291,-0.509553,-2.809995,9.159698,12.196752,6.203119,-0.930293,-18.861689,1.935186,2.406761,0.986068,-0.164147,0.013214,0.023481
292,-0.513741,-2.681655,9.217767,8.962586,5.238299,0.564043,-17.813553,2.467927,2.367984,0.987433,-0.155198,0.018072,0.023743
293,-0.506414,-2.563858,9.149420,4.890491,2.736500,3.658945,-16.942699,2.850687,2.424389,0.988485,-0.147757,0.021482,0.024581
294,-0.586099,-2.191350,9.011420,1.141797,0.336676,7.219172,-16.223061,3.103810,2.614573,0.989287,-0.141624,0.023587,0.026398
295,-0.387575,-2.094938,9.092762,-7.817523,-1.280825,9.697405,-15.585690,3.171258,2.929720,0.989966,-0.136196,0.023941,0.029069
296,-0.259733,-2.320884,9.102718,-12.747621,-2.812186,9.135718,-15.401820,2.929933,3.277772,0.990154,-0.134628,0.021494,0.031757
297,-0.159990,-2.283165,9.047201,-14.393147,-3.466571,5.778377,-15.557923,2.498408,3.561035,0.989992,-0.135925,0.017385,0.033727
298,-0.040504,-2.330296,9.071050,-13.922270,-3.227003,0.406741,-15.756050,1.946884,3.704690,0.989826,-0.137517,0.012390,0.034342
299,0.185115,-2.666886,9.169558,-12.174827,-2.935944,-4.269220,-16.114468,1.233727,3.677560,0.989513,-0.140424,0.006157,0.033277
300,0.304697,-2.966564,9.210264,-7.333889,-2.513929,-8.875108,-16.689697,0.399628,3.492971,0.988931,-0.145168,-0.000974,0.030660
301,0.322528,-3.024064,9.210481,-2.963323,-1.630808,-12.009940,-17.224251,-0.368495,3.181248,0.988352,-0.149598,-0.007335,0.026964
302,0.355616,-3.320772,9.483144,-0.214939,-0.774660,-11.491557,-17.673681,-0.969698,2.823953,0.987826,-0.153363,-0.012144,0.023048
303,0.390275,-3.558563,9.755458,2.488863,0.319932,-10.855546,-18.127972,-1.411070,2.480767,0.987249,-0.157225,-0.015567,0.019436
304,0.380515,-3.745735,9.947316,4.434118,2.046616,-10.858770,-18.550989,-1.692588,2.138098,0.986690,-0.160864,-0.017581,0.016031
305,0.248140,-3.914331,9.965672,5.604006,4.170588,-11.374514,-18.979504,-1.744764,1.771090,0.986122,-0.164600,-0.017563,0.012732
306,0.190048,-3.930786,9.748475,4.820532,5.365745,-10.512173,-19.455053,-1.594303,1.393462,0.985483,-0.168767,-0.015766,0.009633
307,0.059962,-3.995509,9.431152,4.157378,6.446773,-8.654812,-20.025618,-1.296010,1.045718,0.984683,-0.173748,-0.012723,0.007020
308,-0.079029,-4.123265,9.111404,4.415379,7.135999,-6.267817,-20.757050,-0.832872,0.752210,0.983601,-0.180095,-0.008332,0.005147
309,-0.203017,-4.032394,8.843476,4.967790,6.749720,-4.791698,-21.506165,-0.259156,0.508781,0.982430,-0.186565,-0.003050,0.003940
310,-0.243461,-3.945996,8.691552,4.557870,5.031303,-1.078593,-22.096849,0.308382,0.347788,0.981456,-0.191645,0.002060,0.003494
311,-0.315384,-4.136695,8.695512,5.324592,3.176924,3.264647,-22.635710,0.818451,0.325269,0.980521,-0.196266,0.006446,0.004185
312,-0.287160,-4.170568,8.785516,6.704794,1.303942,5.352440,-23.119617,1.217506,0.419177,0.979646,-0.200416,0.009676,0.005713
313,-0.267716,-4.146733,8.981750,6.518293,-0.393944,6.709149,-23.454639,1.458974,0.586843,0.979021,-0.203299,0.011425,0.007602
314,-0.261516,-4.250207,9.250342,5.572456,-1.484812,8.610492,-23.633507,1.583547,0.824300,0.978668,-0.204855,0.012052,0.009870
315,-0.207668,-4.302650,9.361099,5.527352,-2.196027,8.979683,-23.696270,1.598130,1.110812,0.978526,-0.205421,0.011658,0.012349
316,-0.134335,-4.236619,9.518687,5.767943,-2.431456,7.934217,-23.651989,1.495770,1.395838,0.978586,-0.205063,0.010279,0.014596
317,-0.125108,-4.086062,9.504044,5.427696,-2.476279,6.763583,-23.448910,1.331553,1.652926,0.978934,-0.203334,0.008445,0.016483
318,-0.022263,-3.994769,9.327353,5.243303,-2.476972,5.655466,-23.192995,1.111622,1.876684,0.979378,-0.201137,0.006209,0.017991
319,0.047776,-3.967348,9.075624,5.560585,-2.354424,4.884419,-23.043020,0.762719,2.068369,0.979644,-0.199817,0.002916,0.019014
320,0.067523,-3.819298,9.005746,5.644324,-1.600127,3.884491,-22.910685,0.420702,2.226774,0.979874,-0.198635,-0.000262,0.019773
321,0.053948,-3.653211,8.977277,6.895894,-0.775257,2.648216,-22.607790,0.212769,2.342198,0.980387,-0.196009,-0.002186,0.020405
322,0.012180,-3.597395,9.018685,7.142179,-0.304101,2.397819,-22.190336,0.112882,2.426781,0.981084,-0.192416,-0.003109,0.020970
323,-0.087833,-3.568175,9.111518,5.975471,0.020961,2.617569,-21.784092,0.152921,2.506298,0.981744,-0.188942,-0.002822,0.021728
325,-0.168179,-3.405489,9.163304,4.973763,-0.479114,3.048054,-21.353611,0.319374,2.598207,0.982420,-0.185283,-0.001462,0.022795
326,-0.264984,-3.292571,9.182492,3.969311,-0.966690,3.939484,-20.863550,0.571615,2.718624,0.983161,-0.181128,0.000609,0.024233
327,-0.245247,-3.245654,9.146832,1.234600,-1.309185,4.785181,-20.392984,0.857856,2.873306,0.983836,-0.177149,0.002927,0.026000
328,-0.190189,-3.302247,9.141455,-1.100663,-1.514656,5.563615,-20.109137,1.044290,3.056095,0.984209,-0.174756,0.004315,0.027846
329,-0.200149,-3.251748,9.099945,-1.898233,-1.593817,5.514863,-20.009075,1.119903,3.249981,0.984303,-0.173921,0.004694,0.029622
330,-0.230840,-3.264583,9.078933,-3.298694,-0.980213,4.663470,-19.990635,1.196576,3.426040,0.984274,-0.173788,0.005091,0.031250
331,-0.156908,-3.319915,9.136798,-4.481163,-0.458326,3.879155,-20.080090,1.229894,3.568763,0.984094,-0.174571,0.005135,0.032530
332,-0.297217,-3.361091,9.276059,-5.176916,-0.499447,3.801363,-20.217611,1.284212,3.694893,0.983839,-0.175771,0.005369,0.033702
333,-0.397336,-3.350089,9.326394,-5.449823,-1.132177,4.195251,-20.321537,1.474460,3.830691,0.983609,-0.176721,0.006762,0.035165
334,-0.414527,-3.419743,9.348779,-5.763906,-1.731192,5.269757,-20.426466,1.700832,3.996713,0.983356,-0.177694,0.008416,0.036945
335,-0.336307,-3.433431,9.341072,-5.678277,-2.231295,5.610193,-20.557932,1.831238,4.190888,0.983063,-0.178874,0.009189,0.038822
336,-0.318253,-3.500514,9.300946,-5.377602,-1.845153,2.709442,-20.717270,1.843255,4.345108,0.982758,-0.180256,0.008996,0.040177
337,-0.171375,-3.764124,9.179868,-5.274456,-1.727948,2.387340,-21.076763,1.722335,4.440075,0.982177,-0.183309,0.007681,0.040826
338,-0.055201,-3.807934,9.137491,-6.751196,-0.131081,-0.533617,-21.627684,1.451048,4.470962,0.981323,-0.187946,0.005110,0.040685
339,-0.003513,-3.704373,9.227962,-7.447688,2.312470,-6.431723,-22.068550,1.122998,4.346364,0.980689,-0.191614,0.002354,0.039092
340,-0.225457,-3.652780,9.325157,-7.250682,3.493094,-7.973081,-22.269646,0.980094,4.089569,0.980456,-0.193288,0.001496,0.036658
341,-0.390441,-3.544984,9.364450,-6.270210,2.732144,-4.356421,-22.250702,1.158159,3.864552,0.980534,-0.193171,0.003405,0.035032
342,-0.453014,-3.200210,9.444211,-5.561809,2.534697,-3.992835,-21.882469,1.490857,3.714640,0.981143,-0.190100,0.006616,0.034287
343,-0.541934,-3.033613,9.428351,-3.419626,1.382146,-2.031524,-21.184374,1.862274,3.620552,0.982246,-0.184206,0.010160,0.034033
344,-0.421139,-3.000271,9.371902,-2.569512,-0.687721,2.638232,-20.315081,2.150174,3.658885,0.983546,-0.176824,0.012830,0.034726
345,-0.100145,-2.964057,9.311967,-2.470338,-1.376407,4.215974,-19.481571,2.011186,3.810526,0.984788,-0.169646,0.011663,0.035730
346,0.120806,-2.975889,9.228398,-3.644695,-0.559027,3.311974,-18.939941,1.379352,3.957893,0.985644,-0.164831,0.006184,0.036038
347,0.145199,-3.036488,9.182831,-4.974257,0.537549,2.249236,-18.768696,0.748643,4.051968,0.985941,-0.163179,0.000677,0.035943
348,0.126524,-3.074701,9.313326,-6.531799,0.972640,1.772704,-18.831577,0.374925,4.109664,0.985868,-0.163607,-0.002640,0.035908
349,-0.090695,-3.131930,9.379891,-5.206971,1.080505,1.899197,-18.929523,0.276711,4.157906,0.985720,-0.164419,-0.003585,0.036179
350,-0.376031,-3.177901,9.360362,-3.146745,1.476671,0.967185,-19.000610,0.634692,4.189494,0.985577,-0.165140,-0.000574,0.036964
351,-0.468827,-3.332111,9.465200,-2.158004,0.173628,1.672718,-19.106161,1.189744,4.221032,0.985347,-0.166217,0.004120,0.038036
352,-0.537787,-3.279415,9.602283,-0.366622,-0.969439,2.690986,-19.162642,1.637954,4.293400,0.985169,-0.166841,0.007850,0.039309
353,-0.607587,-3.229688,9.648499,3.051790,-1.889818,4.113602,-19.012268,2.037553,4.419429,0.985266,-0.165680,0.011156,0.040956
354,-0.477780,-3.238149,9.513140,5.740796,-4.129006,5.781750,-18.760880,2.273138,4.612358,0.985505,-0.163613,0.012997,0.042924
355,-0.159359,-3.298176,9.596661,7.756547,-7.057502,6.767416,-18.525339,2.085887,4.870592,0.985782,-0.161552,0.011110,0.044857
356,-0.247155,-3.128407,9.497547,11.499675,-8.837457,7.253942,-18.184792,1.678229,5.175216,0.986218,-0.158502,0.007312,0.046887
357,-0.146528,-3.121908,9.367769,13.506285,-10.157916,8.579796,-17.753595,1.289852,5.523033,0.986729,-0.154657,0.003674,0.049334
358,0.166266,-3.185989,9.215977,15.432941,-10.285667,9.139441,-17.440464,0.706434,5.901892,0.987063,-0.151720,-0.001719,0.051818
359,0.285934,-3.157095,9.158914,14.633798,-7.049316,5.758970,-17.263273,-0.019512,6.217765,0.987220,-0.149851,-0.008308,0.053594
360,0.299806,-3.092426,9.266864,13.047322,-3.518275,1.751420,-17.114452,-0.615816,6.385929,0.987363,-0.148268,-0.013594,0.054280
361,0.313361,-3.060205,9.395972,12.748858,-0.035785,-1.535789,-16.957621,-1.047049,6.407117,0.987559,-0.146702,-0.017262,0.053925
362,0.322923,-3.055265,9.478317,12.607670,3.103702,-6.582278,-16.773136,-1.308651,6.265182,0.987855,-0.145006,-0.019251,0.052396
363,0.074292,-2.971434,9.531331,11.905200,5.258331,-10.595444,-16.520927,-1.249118,5.953742,0.988312,-0.142911,-0.018234,0.049827
364,-0.096412,-2.961835,9.641363,13.301011,5.186046,-10.894230,-16.217350,-0.881753,5.564760,0.988859,-0.140511,-0.014456,0.046972
365,-0.321068,-3.275224,9.812385,14.809103,4.372800,-8.678100,-16.059763,-0.318285,5.214026,0.989184,-0.139419,-0.009101,0.044652
366,-0.279093,-3.245856,10.293521,15.151056,1.964965,-7.942124,-15.974414,0.207966,4.924148,0.989372,-0.138901,-0.004174,0.042793
367,-0.465845,-2.782380,11.038215,21.589079,-0.595647,-3.388350,-15.320137,0.621694,4.740897,0.990184,-0.133402,-0.000141,0.041713
368,-0.585423,-3.051819,11.689195,23.801086,-6.226290,2.245805,-14.281002,0.989699,4.761050,0.991306,-0.124547,0.003399,0.042285
369,-0.472436,-3.599529,13.097459,18.212999,-8.938242,8.194164,-13.621413,1.141667,4.996195,0.991899,-0.118902,0.004714,0.044457
370,-0.365187,-3.882926,13.931412,24.312510,-9.332976,12.898690,-13.246584,1.074905,5.404472,0.992127,-0.115647,0.003870,0.047909
371,-0.178425,-4.025786,13.742450,48.792572,-8.315195,15.590384,-12.585297,0.888468,5.922501,0.992574,-0.109855,0.002034,0.052196
372,0.094980,-3.898856,13.027956,68.277481,-6.061996,12.339983,-11.432502,0.565529,6.411630,0.993431,-0.099720,-0.000667,0.056135
373,0.426795,-3.644889,12.465095,74.979050,0.659871,8.051805,-10.047957,0.120341,6.741859,0.994429,-0.087483,-0.004105,0.058666
374,0.663832,-2.710783,11.658767,84.000412,3.401375,-0.048224,-8.287140,-0.437019,6.840202,0.995619,-0.071900,-0.008107,0.059225
375,0.556477,-1.796826,10.419900,96.335823,8.756726,-5.888292,-5.790659,-0.908463,6.691679,0.997013,-0.049962,-0.010852,0.057887
376,0.170854,-1.152846,10.735553,84.397820,14.920510,-8.056766,-2.982381,-0.822319,6.409573,0.998083,-0.025581,-0.008617,0.055698
377,-0.155946,-0.618499,10.532440,67.339233,11.490855,-5.610671,-0.533902,-0.202006,6.168984,0.998539,-0.004558,-0.002011,0.053800
378,-0.104263,0.213426,10.308750,61.638874,8.995358,-3.221035,1.765028,0.416194,6.036843,0.998491,0.015189,0.004438,0.052595
379,-1.020318,1.000923,9.275904,58.776997,5.375285,4.297143,4.455809,1.395926,6.093384,0.997783,0.038170,0.014221,0.052633
380,-0.268345,1.996984,8.939455,35.726463,-4.437171,9.755388,7.439946,2.073292,6.397484,0.996241,0.063761,0.021645,0.054501
381,0.012803,2.480940,7.843723,12.888643,-11.072553,13.817705,10.302725,1.548703,6.815754,0.994181,0.088820,0.018773,0.057987
382,0.109295,2.601110,7.416084,-7.197603,-9.320880,12.109153,12.544904,0.627295,7.223441,0.992062,0.108695,0.012313,0.062020
383,0.002262,2.585808,6.961089,-28.716009,-10.124584,5.340477,13.835965,-0.088501,7.457169,0.990612,0.120243,0.007068,0.064650
384,0.777766,2.335285,6.877655,-48.845837,-6.980543,-2.718841,13.971270,-1.124322,7.437727,0.990362,0.121990,-0.001830,0.065567
385,0.107092,1.899779,6.878914,-63.058975,-1.312302,-8.028559,12.825615,-1.863978,7.235505,0.991517,0.112474,-0.009085,0.064510
386,-0.175111,1.786532,6.917318,-69.954987,0.591811,-13.589358,10.969654,-1.404748,6.870212,0.993488,0.096134,-0.006454,0.060809
387,-0.022509,0.968961,6.630257,-67.124763,2.548303,-17.033752,8.582535,-0.719946,6.357214,0.995617,0.075058,-0.002106,0.055762
388,0.147131,0.084297,6.051081,-48.057659,4.304988,-14.004807,5.498965,-0.440809,5.863405,0.997525,0.048102,-0.001384,0.051271
389,0.019116,-0.727481,5.288113,-22.561205,5.110518,-11.224466,1.969056,-0.308427,5.479139,0.998704,0.017291,-0.001867,0.047835
390,-0.328624,-0.766583,4.157246,1.393893,5.855509,-11.218369,-1.249068,0.434503,5.109954,0.998938,-0.011058,0.003302,0.044616
391,0.092750,-1.366359,3.266017,18.438227,5.429314,-11.805961,-4.660000,0.920776,4.676468,0.998296,-0.040947,0.006363,0.041090
392,-0.119020,-1.228852,2.526909,32.223053,3.561465,-10.531967,-8.510050,0.984637,4.236065,0.996502,-0.074459,0.005821,0.037492
393,-0.222502,-1.251548,2.543401,36.505760,1.080712,-8.584876,-11.659883,1.575375,3.816799,0.994136,-0.101966,0.010286,0.034522
394,-0.189038,-0.879834,3.294594,38.446629,-0.588249,-10.774405,-12.744394,2.091260,3.432450,0.993150,-0.111462,0.014804,0.031784
395,-0.164029,-0.792617,4.669295,32.258934,-2.203657,-13.467543,-11.599878,2.131224,3.050408,0.994306,-0.101494,0.015806,0.028355
396,-0.427516,0.541490,6.638606,26.394337,-3.948811,-17.086664,-8.488313,2.111053,2.652206,0.996790,-0.074400,0.016653,0.024438
397,-0.687635,0.880825,9.266434,11.295776,-3.807095,-13.790013,-4.533246,2.345397,2.302046,0.998791,-0.039944,0.019652,0.020877
398,-0.676279,2.126945,11.317818,-2.475620,-3.386295,-13.661267,-1.174674,2.561867,2.002626,0.999541,-0.010637,0.022171,0.017699
399,-0.942501,2.250708,13.146143,-21.785707,-3.872105,-8.399422,1.305015,2.728877,1.772905,0.999536,0.011015,0.023983,0.015194
400,-0.670168,2.695776,14.304338,-29.770969,-4.588738,-3.418443,2.701251,2.756208,1.683549,0.999334,0.023208,0.024387,0.014116
401,-0.183831,1.471183,14.810319,-34.655434,-3.825030,3.335560,3.010703,2.378803,1.741522,0.999332,0.025946,0.021147,0.014643
402,-0.218859,1.504026,14.420625,-31.734119,-3.219039,3.080896,2.573623,1.856731,1.874388,0.999489,0.022186,0.016563,0.015986
403,-0.189962,0.387189,14.656082,-35.078247,-2.128983,5.751346,1.676184,1.467139,2.031754,0.999657,0.014396,0.013059,0.017539
404,-0.054310,-0.115375,14.055516,-29.120708,-1.115129,4.814427,0.249826,1.144963,2.203250,0.999763,0.001988,0.010032,0.019203
405,0.139013,-1.190652,14.072859,-27.106142,0.008372,2.794060,-1.497587,0.796105,2.321230,0.999684,-0.013206,0.006681,0.020344
406,-0.300141,-1.383174,13.715762,-19.362520,1.390392,2.195844,-3.320703,0.682277,2.393529,0.999341,-0.029092,0.005345,0.021049
407,0.283994,-2.195341,14.047225,-15.714660,1.589778,1.567081,-5.007621,0.581957,2.441022,0.998801,-0.043783,0.004142,0.021502
408,-0.073849,-2.037595,13.864190,-4.816786,2.673927,-0.544886,-6.351051,0.417776,2.446658,0.998226,-0.055460,0.002457,0.021518
409,0.051281,-1.851642,14.088113,-0.259005,3.003191,-0.622760,-6.940690,0.407999,2.413671,0.997934,-0.060593,0.002278,0.021238
410,-0.251003,-2.131027,13.615369,6.940679,3.409092,2.099486,-7.176935,0.518382,2.423085,0.997800,-0.062670,0.003190,0.021385
411,-0.295527,-1.841738,13.327934,9.916766,2.074420,0.871171,-7.193116,0.769949,2.458366,0.997769,-0.062859,0.005359,0.021830
412,-0.445028,-1.764508,12.637094,13.650166,4.536470,3.634708,-6.961971,1.109857,2.518111,0.997854,-0.060912,0.008331,0.022519
413,-0.261738,-1.520105,12.331364,15.160522,7.291260,4.458766,-6.571662,1.470538,2.628622,0.997994,-0.057591,0.011493,0.023633
414,-0.719413,-1.362346,12.342936,15.807592,9.905893,8.958806,-6.026447,1.998350,2.821586,0.998140,-0.052971,0.016115,0.025499
415,-0.188048,-1.347334,12.270841,20.058836,6.739865,14.520840,-5.410974,2.394387,3.185354,0.998254,-0.047754,0.019550,0.028743
416,-0.085263,-1.121671,11.613394,37.678562,3.924902,17.969311,-4.467148,2.269518,3.705282,0.998497,-0.039585,0.018519,0.033070
417,-0.014713,-0.388436,10.999245,39.180950,-1.322789,20.921877,-2.900428,1.885402,4.350348,0.998808,-0.025911,0.015475,0.038354
418,0.118992,0.188454,10.304786,35.128963,-6.756859,21.230085,-0.924866,1.241274,5.066746,0.998928,-0.008541,0.010464,0.044285
419,0.464724,0.750512,9.149551,31.754143,-9.535021,17.941738,1.270156,0.217003,5.723305,0.998691,0.010976,0.002445,0.049900
420,-0.057061,1.810187,8.081650,18.520016,-7.340694,11.609183,4.003086,-0.531154,6.193598,0.997911,0.035125,-0.002739,0.054151
421,-0.016578,2.115068,7.811507,-12.040463,-3.745309,8.944877,6.621961,-0.656084,6.505949,0.996687,0.057986,-0.002429,0.056979
422,-0.200112,2.184357,7.904418,-25.728193,-0.190435,3.971705,8.224834,-0.446109,6.694471,0.995700,0.071817,0.000311,0.058515
423,-0.268855,2.078799,7.604932,-35.591942,1.582807,5.608749,8.983225,0.052684,6.846023,0.995152,0.078146,0.005133,0.059488
424,-0.041752,1.710308,7.629915,-47.390968,1.859980,3.486024,8.803358,0.384284,7.000956,0.995200,0.076400,0.008023,0.060620
425,0.116745,1.047631,7.663377,-46.158558,3.634262,0.438807,7.540522,0.354038,7.078447,0.995940,0.065440,0.007136,0.061395
426,0.054149,0.343008,7.204530,-36.666439,3.908173,-0.768103,5.504954,0.251441,7.089637,0.996939,0.047794,0.005157,0.061653
428,0.436320,-0.213543,6.073893,-24.230175,2.986122,-2.428139,3.108721,-0.207149,7.053968,0.997734,0.027185,-0.000135,0.061545
429,0.126801,-0.960398,5.169867,-5.311991,2.883344,-8.031150,0.259040,-0.725062,6.916242,0.998156,0.002638,-0.006179,0.060332
430,-0.024441,-1.228693,4.045871,10.675939,3.777481,-11.418583,-3.065521,-0.636699,6.631510,0.997962,-0.026382,-0.007092,0.057669
431,-0.068822,-1.394597,3.822161,21.053354,3.128408,-13.656937,-6.313653,-0.260778,6.239559,0.997007,-0.054864,-0.005266,0.054216
432,-0.161130,-1.457662,2.998446,30.181696,1.793403,-13.720767,-9.500172,0.275658,5.783969,0.995283,-0.082825,-0.001784,0.050479
433,-0.427088,-1.263178,3.704372,31.698483,1.607508,-13.354036,-11.673464,1.254745,5.298863,0.993641,-0.102083,0.006181,0.047095
434,-0.590989,-0.989278,4.404011,30.377781,1.454816,-9.770351,-11.802090,2.593248,4.884702,0.993444,-0.103650,0.018108,0.044702
435,-0.537805,-0.761997,6.013032,29.779432,-0.511982,-6.629268,-10.410664,3.533250,4.649594,0.994470,-0.091853,0.026998,0.043172
436,-0.758947,-0.008437,7.352431,24.885223,-1.238103,0.866740,-7.837108,4.038260,4.677975,0.996114,-0.069674,0.032334,0.043097
437,-0.489834,0.809427,9.943556,12.690877,-1.379786,3.275402,-4.192100,4.095435,4.969865,0.997697,-0.038065,0.034090,0.044606
438,-0.806639,1.077441,11.379115,6.950929,-2.181536,6.533861,-0.922140,3.860405,5.334482,0.998305,-0.009601,0.033270,0.046778
439,-0.229750,1.520079,13.046422,-6.016101,-2.626661,5.478349,1.029884,3.457464,5.661745,0.998298,0.007482,0.030573,0.049093
440,-0.414965,1.931812,13.810545,-15.207442,-2.175168,5.011757,2.312983,2.857964,5.925423,0.998176,0.018861,0.025942,0.051157
441,0.045334,1.526675,14.458384,-23.234411,-2.981108,1.482575,2.873033,2.231068,6.090393,0.998111,0.023995,0.020766,0.052610
442,-0.159667,0.705543,14.799047,-26.712183,-3.037778,-1.529458,2.441715,1.608673,6.105521,0.998272,0.020527,0.015149,0.052940
443,0.125202,0.259679,14.971067,-29.201563,-1.520869,-5.948492,1.327782,1.120780,5.980278,0.998530,0.011060,0.010371,0.052045
444,0.053713,-0.395175,15.291592,-27.220980,-0.307511,-8.895045,-0.095060,0.709921,5.731427,0.998730,-0.001138,0.006146,0.049999
445,0.046603,-0.688181,15.503628,-24.363369,0.782700,-11.196161,-1.549050,0.465467,5.394667,0.998790,-0.013694,0.003421,0.047110
446,-0.218889,-1.487280,15.358120,-18.117113,1.087686,-9.912878,-2.982422,0.423062,5.038498,0.998684,-0.026160,0.002543,0.044036
447,-0.361529,-1.378284,15.222122,-9.047800,2.437084,-7.039557,-4.131790,0.607840,4.745936,0.998471,-0.036237,0.003804,0.041568
448,-0.328842,-1.603996,14.786300,-2.616091,2.013473,-6.661106,-4.807272,0.843125,4.505812,0.998309,-0.042194,0.005697,0.039583
449,-0.709615,-1.817754,13.887088,6.316438,2.612653,-3.246026,-5.277955,1.211100,4.325583,0.998154,-0.046406,0.008812,0.038183
450,-0.658778,-2.100279,12.924650,14.389164,1.904496,0.967131,-5.675844,1.701831,4.263940,0.997945,-0.050023,0.012981,0.037886
451,-0.508254,-1.622324,12.182044,18.445932,1.729893,2.558701,-5.785705,2.030891,4.298963,0.997833,-0.051089,0.015794,0.038347
452,-0.552844,-1.667319,11.399280,18.577023,1.260430,3.550550,-5.664918,2.246480,4.379282,0.997820,-0.050118,0.017677,0.039121
453,-0.487385,-1.748262,11.428974,18.413191,0.377259,9.498563,-5.665758,2.395169,4.569825,0.997725,-0.050205,0.018888,0.040843
454,-0.081317,-1.676039,11.207459,24.497910,-1.747497,10.790866,-5.597592,2.202040,4.881980,0.997677,-0.049593,0.017096,0.043469
455,-0.320949,-1.723644,11.178761,31.734648,-3.321670,10.660978,-5.323638,1.864561,5.218119,0.997719,-0.047126,0.014122,0.046221
456,-0.191083,-1.093382,11.130602,42.460609,-4.657395,13.464002,-4.462928,1.602296,5.613697,0.997919,-0.039570,0.012048,0.049471
457,-0.020242,-0.324467,10.569042,48.395844,-5.807305,16.645506,-2.664631,1.191490,6.126812,0.998234,-0.023772,0.009137,0.053665
458,0.154766,0.677943,9.561275,45.860229,-6.878331,13.624176,-0.028705,0.586470,6.645376,0.998306,-0.000547,0.005095,0.057960
459,0.181909,1.663373,8.779698,32.327217,-6.394532,12.211225,3.230383,-0.081352,7.073833,0.997697,0.028177,0.001031,0.061687
460,0.120999,2.540348,7.821687,14.080529,-4.556733,11.715348,6.843182,-0.580274,7.443115,0.996080,0.059884,-0.001170,0.065093
461,-0.209783,2.923338,6.893792,-13.939278,-3.571999,7.062654,10.272147,-0.602592,7.708396,0.993687,0.089670,0.000792,0.067417
462,-0.116292,3.033867,6.578550,-39.607731,-3.357028,4.813128,12.779405,-0.342708,7.862303,0.991422,0.111232,0.004665,0.068464
463,-0.299563,2.728177,6.637394,-55.628639,-1.254291,7.722663,13.873323,0.010758,8.036445,0.990241,0.120469,0.008556,0.069549
464,-0.053393,2.383578,6.851134,-69.039017,0.622213,9.732023,13.462874,0.285789,8.312911,0.990513,0.116727,0.010966,0.071689
465,0.442218,1.965111,6.884480,-78.463280,1.550261,6.169289,11.878237,-0.119370,8.584570,0.991834,0.103259,0.006711,0.074550
466,0.400798,1.168750,6.768457,-70.690063,1.102119,5.083417,9.433937,-0.900312,8.805295,0.993592,0.082590,-0.001494,0.077147
467,0.677150,0.170076,6.609507,-51.282509,2.356477,0.106449,6.278008,-1.770979,8.955855,0.995267,0.055790,-0.011109,0.078792
468,0.426183,-0.263867,6.095156,-25.998041,3.835501,-9.381213,3.128040,-2.458880,8.906190,0.996335,0.028871,-0.019265,0.078180
469,0.108725,-0.078448,4.511346,-3.257404,2.205392,-15.597597,1.214505,-2.468581,8.563558,0.996904,0.012175,-0.020688,0.074868
470,-0.213678,-1.087353,4.122482,18.906843,0.967188,-16.728050,-0.742988,-1.699526,8.107734,0.997374,-0.005418,-0.015252,0.070589
471,0.212967,-1.399120,3.735462,38.327862,1.092207,-20.868988,-3.725131,-1.261842,7.590920,0.997243,-0.031700,-0.013133,0.065799
472,0.083709,-1.570328,3.568669,49.925537,0.997024,-20.365065,-6.621355,-1.451249,7.019481,0.996423,-0.056863,-0.016154,0.060381
473,-0.336704,-1.286730,3.514830,49.502720,0.445506,-17.166157,-8.655558,-0.775949,6.472060,0.995565,-0.074959,-0.011001,0.055777
474,-0.117047,-1.884755,5.162657,49.237129,0.795037,-11.481506,-9.779197,0.128648,6.025819,0.994978,-0.085177,-0.003363,0.052465
475,-0.335401,-0.612734,6.609831,44.336342,0.432087,-6.460865,-8.991449,0.633781,5.743604,0.995634,-0.078561,0.001580,0.050379
476,-0.581901,0.067944,8.607485,27.632652,1.455146,1.069984,-6.235715,1.329764,5.687184,0.997192,-0.054894,0.008875,0.050163
477,-0.794050,1.402412,10.266951,9.539304,0.554131,4.543464,-3.002723,2.080683,5.862901,0.998160,-0.027090,0.016787,0.051590
478,0.138374,1.640468,12.217738,-7.116173,-1.789566,9.863176,-0.206306,2.107718,6.204428,0.998362,-0.002793,0.018268,0.054141
479,-0.288486,2.306836,13.364178,-20.330620,-1.337702,9.297285,1.655756,1.651656,6.594473,0.998149,0.013594,0.015219,0.057296
480,0.200552,1.840882,14.007136,-30.905481,-1.715845,10.190178,2.584160,1.214965,6.969901,0.997855,0.021862,0.011951,0.060529
481,0.511358,1.591184,14.234720,-34.956257,-1.998753,9.190872,2.572014,0.496906,7.315295,0.997709,0.022121,0.005758,0.063681
482,0.305378,0.769035,14.176747,-37.022266,-1.725952,8.522631,1.859242,-0.136669,7.621915,0.997655,0.016268,-0.000112,0.066475
483,0.348284,-0.028303,13.921268,-34.935345,-0.312552,5.394533,0.496697,-0.514973,7.862250,0.997626,0.004632,-0.004186,0.068575
484,0.331084,-0.825204,13.557934,-32.148178,0.119994,4.857441,-1.292417,-0.761240,8.045765,0.997456,-0.010784,-0.007417,0.070074
485,0.282338,-1.227203,13.285048,-28.446220,1.094559,4.465310,-3.199234,-0.884460,8.216351,0.997028,-0.027290,-0.009695,0.071395
486,-0.027234,-1.750981,12.749238,-22.942377,1.940126,2.374856,-5.024003,-0.763487,8.341567,0.996392,-0.043228,-0.009826,0.072367
487,0.093831,-2.203877,12.608008,-18.484133,1.926891,0.578925,-6.783196,-0.542550,8.394704,0.995580,-0.058655,-0.009044,0.072784
488,-0.111076,-2.284726,12.641111,-12.327100,1.869416,-0.327381,-8.235076,-0.323845,8.397886,0.994752,-0.071403,-0.008069,0.072828
489,-0.162567,-2.175791,12.851887,-5.797953,1.429193,-3.185322,-9.080513,-0.044707,8.332342,0.994230,-0.078922,-0.006139,0.072391
490,-0.379108,-2.382066,13.395640,3.423849,2.560896,-3.568173,-9.387561,0.304491,8.209369,0.994071,-0.081810,-0.003216,0.071556
491,-0.470599,-1.965671,13.917436,12.477293,2.139418,-2.402167,-9.084723,0.731971,8.099861,0.994314,-0.079446,0.000758,0.070907
492,-0.577971,-2.082561,13.955647,20.876715,1.896464,-0.909613,-8.311132,1.153258,8.040979,0.994815,-0.072987,0.004932,0.070653
493,-0.676936,-1.629896,13.291840,30.266451,1.464342,0.984264,-7.243361,1.586207,8.044549,0.995388,-0.063976,0.009350,0.070870
494,-0.512716,-1.727673,12.562995,35.061184,0.774015,3.644084,-6.069974,1.909985,8.124922,0.995888,-0.053984,0.012851,0.071615
495,-0.338678,-1.024209,11.225249,35.630459,-0.831058,3.363345,-4.857584,1.981140,8.245461,0.996315,-0.043504,0.014181,0.072549
496,-0.040473,-1.052930,10.113669,32.396935,-1.532183,3.296138,-3.746241,1.731686,8.356293,0.996660,-0.033696,0.012682,0.073303
497,0.279140,-0.551846,9.556397,28.922157,-1.222821,2.778701,-2.794613,1.112291,8.449858,0.996922,-0.025033,0.007881,0.073883
498,0.129203,-0.271629,9.528683,20.377581,-1.523882,0.034983,-1.792310,0.473596,8.491465,0.997120,-0.015903,0.002963,0.074089
499,0.197412,-0.281585,9.837345,12.969722,-1.644423,0.584265,-1.083082,-0.034833,8.498752,0.997207,-0.009403,-0.001003,0.074091
500,0.045601,-0.389478,10.376140,18.349812,-2.067997,-0.163464,-0.658179,-0.364282,8.503575,0.997228,-0.005492,-0.003596,0.074120
501,-0.024430,-0.777289,10.938640,25.602385,-3.010916,-0.055115,-0.428612,-0.418100,8.502808,0.997236,-0.003460,-0.003916,0.074118
502,-0.423150,-0.136198,11.293466,34.434589,-4.644036,-0.857734,0.159582,-0.202155,8.492497,0.997252,0.001519,-0.001656,0.074045
503,-0.212625,0.146800,11.041160,38.452480,-7.354156,1.867575,1.412484,0.032704,8.514219,0.997166,0.012271,0.001200,0.074223
504,0.140400,0.990894,10.260644,38.843357,-8.780709,2.157507,3.229234,-0.183204,8.575652,0.996801,0.028217,0.000513,0.074782
505,0.289172,1.606481,8.941081,26.391367,-8.745008,3.504935,5.556585,-0.757509,8.638312,0.995942,0.048830,-0.002934,0.075541
506,-0.272264,2.531757,7.682139,6.592169,-6.033065,5.238253,8.298285,-0.903113,8.727983,0.994413,0.072739,-0.002332,0.076459
507,0.204956,2.646284,6.713498,-21.241768,-3.302484,10.534544,10.936544,-0.882951,8.932035,0.992340,0.095600,-0.000227,0.078243
508,0.337764,2.539560,6.412129,-45.267738,0.415184,14.520304,12.484797,-1.313666,9.285670,0.990643,0.109293,-0.002557,0.081701
509,0.424106,2.734567,6.469636,-65.685928,3.300699,11.973700,12.980880,-1.809245,9.679093,0.989775,0.113944,-0.006096,0.085593
510,0.840206,2.234008,6.886735,-80.487762,5.954752,6.302272,12.254794,-2.509312,9.969526,0.990086,0.108202,-0.012416,0.088702
511,1.294358,1.528632,7.352481,-79.509506,6.249407,0.999089,10.078835,-3.688703,10.147863,0.991467,0.090287,-0.024170,0.090870
512,0.707515,0.909907,6.980564,-66.004715,7.823812,-7.964939,7.302143,-4.482017,10.147012,0.993080,0.066833,-0.033244,0.090667
513,0.712024,0.064005,6.742457,-39.374710,8.368784,-21.000454,4.526194,-4.566275,9.800418,0.994643,0.042713,-0.036291,0.086854
514,-0.111178,-0.137795,5.325826,-4.547154,6.826141,-25.577951,2.418052,-3.792328,9.152985,0.995988,0.023661,-0.031293,0.080424
515,0.147758,-0.994462,4.744832,20.250769,5.316842,-21.654469,0.460209,-2.702518,8.500130,0.996958,0.005752,-0.023219,0.074183
516,-0.095213,-1.719754,3.288736,42.814514,4.704080,-23.965462,-3.075103,-1.895597,7.950125,0.997129,-0.025618,-0.018356,0.068845
517,-0.035987,-1.817829,2.977215,59.100273,3.427629,-22.801859,-7.440526,-1.133003,7.352450,0.995832,-0.064116,-0.014006,0.063340
518,-0.036190,-1.879521,2.925659,61.995426,3.583155,-15.783487,-11.216532,-0.674942,6.817955,0.993469,-0.097203,-0.011662,0.058603
519,-0.085323,-2.090734,4.468294,51.714684,4.280150,-9.091866,-13.610994,-0.265367,6.437790,0.991400,-0.118183,-0.008950,0.055481
520,-0.570588,-1.171622,5.720813,45.222061,4.453774,-7.028125,-13.312013,0.656615,6.156479,0.991775,-0.116045,-0.000541,0.054000
521,-0.349977,0.396728,8.082764,29.688757,3.434190,2.222772,-10.050253,1.633608,6.105022,0.994575,-0.088216,0.009517,0.054288
522,-0.167965,0.621189,10.226389,10.473081,1.582110,8.415302,-6.083643,1.872980,6.360324,0.996872,-0.053881,0.013353,0.056256
523,-0.537108,1.766218,11.971053,-5.178631,-0.961620,12.216684,-2.869167,1.915683,6.797279,0.997764,-0.025979,0.015198,0.059674
524,-0.093153,2.051060,13.096827,-14.808158,-2.663333,15.125419,-0.263279,1.780185,7.351762,0.997817,-0.003288,0.015355,0.064140
525,0.086904,2.073595,13.858845,-23.234291,-5.800462,16.943014,1.413598,1.229065,7.949088,0.997471,0.011562,0.011554,0.069172
526,0.032864,1.794016,14.274972,-29.756777,-7.173568,14.996089,2.167169,0.606600,8.511248,0.997058,0.018466,0.006681,0.074092
527,0.340549,1.611442,13.965987,-27.746374,-7.585294,15.414297,2.352947,-0.034778,9.025456,0.996689,0.020492,0.001313,0.078670
528,0.827594,1.071053,13.810152,-29.628464,-7.834507,12.673833,2.122404,-0.914180,9.489168,0.996358,0.019116,-0.006417,0.082844
529,0.797048,0.364247,13.401659,-30.999706,-6.614440,6.524443,1.274045,-1.823938,9.810166,0.996135,0.012437,-0.014906,0.085666
531,0.550088,-0.129289,12.892460,-25.810934,-3.678198,1.282954,0.050696,-2.345422,9.955573,0.996019,0.002216,-0.020351,0.086760
532,0.783505,-0.762573,12.879374,-22.440617,-0.817744,-1.845112,-1.347443,-2.616719,9.974856,0.995909,-0.009726,-0.023767,0.086641
533,0.529408,-1.101781,13.354551,-19.855192,1.714996,-6.555530,-2.811119,-2.693867,9.871671,0.995766,-0.022410,-0.025522,0.085416
534,0.302362,-1.384235,13.630415,-12.923765,5.040648,-7.690679,-4.061502,-2.394654,9.658897,0.995669,-0.033544,-0.023791,0.083381
535,0.311155,-1.786136,14.074358,-5.278134,6.767423,-6.463676,-5.048061,-1.928402,9.433833,0.995566,-0.042501,-0.020375,0.081403
536,0.325458,-1.567487,13.945532,-0.892797,7.885042,-7.502716,-5.653360,-1.511599,9.196246,0.995534,-0.048096,-0.017085,0.079413
537,-0.031100,-1.978195,13.295693,5.732732,7.229727,-7.261494,-6.036095,-1.033461,8.938075,0.995573,-0.051787,-0.013081,0.077336
538,0.011578,-1.405005,12.164217,10.353500,6.501310,-9.020754,-6.142153,-0.539821,8.651965,0.995727,-0.053067,-0.008732,0.075070
539,-0.074842,-1.557455,10.951473,10.332726,5.011190,-10.410788,-6.076782,-0.168622,8.313303,0.995972,-0.052759,-0.005308,0.072304
540,-0.189241,-1.229949,10.035949,9.847934,4.007939,-12.780455,-6.062310,0.183622,7.915337,0.996212,-0.052863,-0.002053,0.069007
541,-0.422149,-1.289011,9.693731,5.623265,1.847019,-12.633827,-6.079807,0.632985,7.483722,0.996430,-0.053278,0.002043,0.065461
542,-0.330939,-0.917684,9.585827,-1.373440,-0.222311,-11.821889,-6.116246,1.023916,7.075269,0.996604,-0.053796,0.005614,0.062090
543,-0.202298,-1.429415,10.090885,-4.785910,-2.240570,-9.464288,-6.375330,1.107737,6.723591,0.996657,-0.056074,0.006374,0.059084
544,-0.108776,-1.531181,10.652674,2.131230,-3.905505,-5.013206,-6.845245,0.930981,6.487657,0.996557,-0.060062,0.004719,0.056967
545,-0.026515,-2.085756,11.165908,15.363505,-5.965993,1.618371,-7.176904,0.611828,6.441466,0.996430,-0.062789,0.001804,0.056405
546,-0.266973,-1.295175,11.393958,46.402737,-6.759500,8.283591,-6.487760,0.412465,6.624957,0.996711,-0.056699,0.000318,0.057892
547,0.049915,-0.907020,11.903828,63.172192,-6.103327,10.442792,-4.342335,0.235925,6.958101,0.997434,-0.037940,-0.000245,0.060718
548,0.100098,0.082202,11.338600,75.495102,-4.646589,12.934591,-1.258286,-0.080806,7.353662,0.997882,-0.010913,-0.001408,0.064117
549,0.080272,1.393601,10.329951,72.829849,-3.337758,12.566822,2.744751,-0.343083,7.767457,0.997408,0.024098,-0.001364,0.067784
550,-0.044022,3.120538,9.112258,55.994476,-0.603215,9.055614,7.677588,-0.415026,8.104189,0.995238,0.067037,0.001126,0.070746
551,0.288711,2.856442,8.066443,18.824154,1.232121,6.723999,12.027312,-0.554944,8.342344,0.991814,0.104837,0.002817,0.072841
552,-0.043654,3.404011,6.215209,-5.631966,2.405298,5.028613,15.411208,-0.612019,8.508719,0.988172,0.134104,0.004669,0.074228
553,0.187235,3.192139,5.582676,-39.219826,3.465724,2.585531,18.107101,-0.574891,8.624384,0.984674,0.157283,0.006891,0.075040
554,0.196994,3.201160,5.851673,-67.882698,3.257381,0.553144,19.099869,-0.731838,8.675096,0.983217,0.165905,0.006268,0.075639
555,0.767623,2.525636,6.256198,-85.634880,2.092170,1.733472,18.044693,-1.432883,8.729182,0.984537,0.157292,-0.000380,0.077111
556,1.059604,1.984675,6.930703,-89.211342,1.483403,-1.725814,15.221548,-2.798729,8.796028,0.987729,0.133870,-0.013981,0.079211
557,1.054634,1.730930,7.548297,-85.041084,1.994926,-7.358181,11.835801,-4.035841,8.760367,0.990873,0.105413,-0.027053,0.079540
558,0.844847,1.120117,7.651234,-60.999233,1.543732,-10.471807,8.770502,-4.723115,8.575985,0.993201,0.079255,-0.035257,0.077629
559,0.578984,0.128417,7.068745,-26.023098,2.139614,-14.310541,6.092963,-4.851028,8.294538,0.994917,0.056016,-0.038310,0.074397
560,0.162342,-0.421515,6.040246,9.222213,3.010668,-19.093895,3.859430,-4.346044,7.908637,0.996248,0.036183,-0.035485,0.070146
561,0.062713,-0.832064,4.209807,35.236034,3.841772,-21.309015,1.840691,-3.448498,7.440075,0.997281,0.017973,-0.028980,0.065326
562,-0.095800,-1.968999,3.905555,55.000786,3.925554,-16.873774,-1.381501,-2.446203,7.078326,0.997809,-0.010712,-0.022047,0.061455
563,-0.085759,-1.864546,3.717149,65.017387,4.206157,-14.838725,-5.193441,-1.465388,6.786452,0.997175,-0.044467,-0.015433,0.058544
564,-0.404440,-2.536583,3.816807,63.639969,4.049533,-7.893344,-8.842460,-0.271743,6.529171,0.995414,-0.076829,-0.006750,0.056595
565,-0.260380,-1.738036,5.166101,52.969090,1.648121,-1.491424,-11.042622,0.844388,6.380273,0.993752,-0.096472,0.001969,0.056098
566,-0.511049,-1.200878,7.442735,39.118382,-0.276899,4.615748,-10.386878,1.555554,6.431286,0.994166,-0.091126,0.008420,0.057085
567,-0.721563,0.339608,8.880991,25.794788,-1.724286,8.524207,-7.687482,2.247802,6.717487,0.995768,-0.068054,0.015610,0.059757
568,-0.440937,0.735259,10.411564,8.318231,-3.914327,12.238826,-4.395743,2.560545,7.190934,0.996995,-0.039666,0.019878,0.063505
569,-0.153237,1.861509,11.966710,-4.470431,-5.080754,12.295634,-1.529843,2.253261,7.725771,0.997429,-0.014642,0.018717,0.067612
570,-0.046934,1.763037,12.920959,-11.588119,-4.793791,12.784214,0.733190,1.661418,8.236282,0.997299,0.005340,0.014920,0.071712
571,0.401558,1.919067,13.648492,-16.319931,-3.932120,11.333269,2.133406,0.905384,8.684323,0.996937,0.017964,0.009286,0.075550
572,0.761247,1.698103,13.789291,-17.778749,-4.403331,9.517598,2.930472,-0.075709,9.044528,0.996559,0.025543,0.001358,0.078838
573,0.683990,1.634474,13.737908,-19.412796,-2.672423,6.893144,3.288824,-0.971695,9.312153,0.996234,0.029289,-0.006119,0.081381
574,0.788335,1.328151,13.700871,-22.259417,-1.648897,5.106370,3.275185,-1.624157,9.501290,0.996024,0.029650,-0.011752,0.083181
575,0.726375,0.523877,13.117788,-23.009701,0.728580,0.083104,2.659300,-2.076752,9.588817,0.996034,0.024634,-0.016115,0.083963
576,0.360519,0.370100,12.555631,-23.968714,2.821735,-3.135024,1.657613,-2.140126,9.551334,0.996228,0.015967,-0.017404,0.083501
577,0.380228,-0.268486,12.264296,-24.162434,4.840834,-5.289587,0.423685,-1.920048,9.428699,0.996465,0.005061,-0.016394,0.082238
578,-0.026205,-0.782644,11.940838,-18.127001,5.023321,-5.092660,-1.072317,-1.485867,9.278149,0.996606,-0.008278,-0.013680,0.080747
579,0.035675,-1.028228,11.597293,-12.568063,4.978797,-5.585440,-2.497946,-0.947891,9.112927,0.996583,-0.021070,-0.009975,0.079240
580,-0.201360,-0.887599,11.365036,-8.876032,4.600065,-3.261363,-3.523438,-0.428479,8.965410,0.996472,-0.030357,-0.006129,0.078006
581,-0.192515,-1.102959,10.960569,-4.159441,3.263096,1.536230,-4.211878,0.081529,8.928147,0.996291,-0.036691,-0.002151,0.077807
582,-0.039988,-1.300023,10.566621,-0.315992,2.396956,4.749870,-4.851308,0.359427,9.023522,0.995993,-0.042438,-0.000205,0.078725
583,0.047440,-1.231940,10.239318,1.040278,1.731470,6.167433,-5.379307,0.388999,9.196400,0.995665,-0.047047,-0.000382,0.080238
584,0.144346,-1.143339,9.890810,3.053140,1.559728,7.328576,-5.718151,0.212221,9.413513,0.995378,-0.049863,-0.002249,0.082046
585,0.179073,-0.909939,9.667123,4.187991,0.725334,7.456630,-5.728343,-0.098624,9.654742,0.995211,-0.049719,-0.005062,0.084006
586,0.108981,-0.789113,9.594353,3.387563,0.405511,6.263265,-5.397865,-0.330755,9.879329,0.995188,-0.046664,-0.006927,0.085875
587,0.094353,-0.504468,9.513048,2.334548,0.104542,5.077579,-4.883999,-0.414607,10.063819,0.995248,-0.042126,-0.007338,0.087477
588,0.026993,-0.407269,9.517022,-0.527816,-0.229628,4.879198,-4.315660,-0.401787,10.225505,0.995321,-0.037190,-0.006845,0.088921
589,-0.049736,-0.183666,9.565840,-2.916422,-0.128474,4.003333,-3.618112,-0.264252,10.369207,0.995416,-0.031231,-0.005148,0.090247
590,0.097890,-0.173425,9.764551,-5.190522,0.532486,2.948921,-2.979102,-0.181030,10.481297,0.995486,-0.025742,-0.003947,0.091267
591,0.237540,-0.096100,9.806550,-5.567070,0.863043,0.434158,-2.594419,-0.325616,10.533592,0.995525,-0.022282,-0.004907,0.091706
592,0.290900,-0.084625,9.938960,-8.965135,1.916501,-3.043480,-2.327635,-0.568960,10.484548,0.995609,-0.019772,-0.006799,0.091247
593,0.434120,-0.106453,9.988605,-11.426547,3.030728,-6.171690,-2.235774,-0.860669,10.323626,0.995740,-0.018754,-0.009234,0.089803
594,0.427665,-0.300255,9.951826,-14.019786,4.448520,-9.679854,-2.405172,-1.142681,10.052155,0.995904,-0.020032,-0.011770,0.087377
595,0.198833,-0.385872,9.781340,-16.825720,5.517588,-12.673746,-2.838244,-1.176176,9.672618,0.996103,-0.023811,-0.012312,0.084026
596,0.130134,-0.545007,9.780103,-20.549053,6.662179,-12.853799,-3.476467,-0.952642,9.237207,0.996280,-0.029565,-0.010725,0.080231
597,-0.095830,-0.730309,9.761734,-21.094240,7.131359,-11.739822,-4.294820,-0.534353,8.812997,0.996346,-0.037001,-0.007525,0.076603
598,-0.188034,-0.933345,9.788250,-21.018677,7.655927,-10.297734,-5.214990,0.034143,8.424391,0.996265,-0.045393,-0.003045,0.073388
599,-0.111627,-1.097961,9.788333,-21.063805,6.910588,-8.124745,-6.180799,0.497518,8.090861,0.996032,-0.054083,0.000521,0.070678
600,0.004380,-1.256635,9.916009,-19.550922,5.334342,-5.884691,-7.110678,0.683391,7.832465,0.995702,-0.062273,0.001703,0.068534
601,-0.088962,-1.376320,10.016540,-17.084158,4.008053,-5.001215,-7.920948,0.734933,7.631196,0.995351,-0.069340,0.001788,0.066827
602,-0.025760,-1.466159,10.045130,-15.068822,1.929457,-4.500756,-8.582309,0.723648,7.459619,0.995034,-0.075074,0.001417,0.065339
603,-0.018905,-1.487424,10.030844,-13.188970,0.427500,-3.995741,-9.081368,0.605027,7.314437,0.994791,-0.079340,0.000203,0.064003
604,-0.096777,-1.526031,9.998070,-11.025002,-0.392172,-4.473392,-9.424284,0.507174,7.176437,0.994634,-0.082264,-0.000739,0.062736
605,-0.155132,-1.505834,9.831032,-10.946761,-0.375266,-4.038478,-9.665850,0.508181,7.039851,0.994532,-0.084362,-0.000762,0.061550
606,0.057252,-1.472325,9.628989,-12.960348,-0.959865,-3.412874,-9.875371,0.413633,6.922883,0.994446,-0.086132,-0.001607,0.060462
607,0.213344,-1.545416,9.803828,-18.239340,-1.360579,-2.497472,-10.183116,0.078313,6.835303,0.994279,-0.088630,-0.004611,0.059439
608,0.180550,-1.738218,9.985521,-23.459072,-1.791904,-2.287070,-10.740040,-0.296511,6.769726,0.993885,-0.093272,-0.008097,0.058542
609,0.165299,-1.842570,10.169254,-29.081818,-2.137396,-2.410786,-11.527678,-0.569240,6.708242,0.993257,-0.099966,-0.010810,0.057712
610,0.222017,-2.338410,10.308330,-33.102924,-3.015265,-2.903747,-12.651332,-0.812788,6.643342,0.992262,-0.109583,-0.013422,0.056807
611,0.091886,-2.970238,10.146572,-34.522350,-3.406026,-2.687064,-14.330232,-0.974546,6.587068,0.990577,-0.124034,-0.015590,0.055942
612,0.062266,-3.344002,9.712615,-33.843384,-2.532867,-3.849687,-16.404432,-0.993119,6.521029,0.988202,-0.141943,-0.016678,0.055058
613,0.099601,-3.658215,9.222616,-32.977314,-2.047265,-6.829657,-18.627106,-1.001985,6.388991,0.985325,-0.161099,-0.017633,0.053576
614,0.211251,-4.099420,8.929235,-32.238403,-1.655059,-7.296505,-20.974472,-1.118483,6.207914,0.981902,-0.181221,-0.019439,0.051467
615,0.151699,-4.167215,8.679836,-31.911287,-1.157641,-9.267930,-23.239990,-1.267414,5.992362,0.978223,-0.200566,-0.021346,0.048970
616,0.057369,-4.189806,8.838326,-31.131027,-0.598777,-12.299728,-25.046768,-1.311467,5.689229,0.975064,-0.216002,-0.021919,0.045965
617,0.016799,-4.200433,8.861232,-27.774912,-0.868141,-15.509928,-26.293331,-1.292148,5.282681,0.972813,-0.226682,-0.021450,0.042311
618,-0.134980,-4.168040,9.017707,-24.817226,-0.868555,-14.505342,-27.028559,-1.172503,4.840284,0.971495,-0.233047,-0.019807,0.038667
619,-0.246977,-4.092360,8.978143,-21.080259,-1.442248,-14.474061,-27.335077,-0.901235,4.414670,0.971004,-0.235811,-0.016737,0.035567
620,-0.321183,-4.030545,8.899169,-16.768988,-1.962302,-13.009810,-27.343632,-0.555771,4.021421,0.971096,-0.236047,-0.013003,0.032946
621,-0.123382,-3.985831,8.708525,-13.330460,-2.861228,-11.095624,-27.199907,-0.352662,3.693621,0.971475,-0.234922,-0.010568,0.030600
622,-0.193282,-3.947632,8.517496,-11.675977,-3.571360,-7.893760,-27.043545,-0.274498,3.457123,0.971853,-0.233638,-0.009381,0.028768
623,-0.028365,-4.008484,8.230944,-10.444801,-4.388590,-7.394450,-27.027891,-0.285309,3.288736,0.971926,-0.233516,-0.009126,0.027320
624,-0.153880,-3.931280,8.230535,-10.224102,-4.458211,-6.542697,-27.081991,-0.330709,3.147451,0.971850,-0.233975,-0.009235,0.026024
625,0.118573,-3.945615,8.519535,-9.920572,-4.007773,-5.332499,-26.997684,-0.449747,3.032973,0.972051,-0.233241,-0.009992,0.024817
626,0.240773,-3.797187,8.947142,-9.112548,-2.776800,-4.350051,-26.613136,-0.776761,2.934385,0.972851,-0.229912,-0.012487,0.023357
627,0.417030,-3.847286,9.515130,-7.513211,-0.690163,-3.988862,-25.922455,-1.173673,2.822109,0.974232,-0.223966,-0.015501,0.021700
628,0.476294,-3.782113,10.043612,-5.142802,1.469593,-3.403451,-25.020557,-1.543643,2.681350,0.975970,-0.216228,-0.018215,0.019922
629,0.675827,-3.875845,10.193260,-3.086884,3.296543,-3.497150,-24.088261,-1.898763,2.512888,0.977694,-0.208231,-0.020775,0.017985
630,0.612466,-3.949041,9.981523,-1.415016,4.252178,-3.366515,-23.404688,-2.209032,2.329784,0.978910,-0.202364,-0.022994,0.015995
631,0.479744,-3.942270,9.592165,-0.850615,4.356865,-2.915159,-23.035654,-2.321838,2.160430,0.979564,-0.199222,-0.023612,0.014424
632,0.400003,-3.899011,9.115235,-1.752100,3.305362,-1.177205,-22.973509,-2.278789,2.043350,0.979692,-0.198723,-0.023034,0.013511
634,0.421867,-4.036941,8.798309,-3.416255,1.860202,1.479424,-23.327948,-2.228611,2.024895,0.979082,-0.201765,-0.022614,0.013370
635,0.529496,-4.171348,8.704415,-4.505927,0.632916,3.861276,-23.969425,-2.290130,2.110584,0.977918,-0.207214,-0.023369,0.013863
636,0.551336,-4.317160,8.781189,-6.093042,-0.129182,5.359518,-24.656187,-2.427137,2.269371,0.976620,-0.213010,-0.024914,0.014821
637,0.524728,-4.594670,8.863777,-6.529783,-0.379985,6.056702,-25.431246,-2.525120,2.470914,0.975116,-0.219544,-0.026233,0.016178
638,0.598559,-4.767046,8.927095,-5.402624,-0.147046,5.815454,-26.246944,-2.609129,2.681498,0.973485,-0.226410,-0.027478,0.017614
639,0.599859,-4.726846,8.930640,-2.799482,0.427639,5.076702,-26.876219,-2.709266,2.865871,0.972183,-0.231682,-0.028796,0.018823
640,0.526384,-4.630289,8.824365,1.935971,0.689671,4.772882,-27.203661,-2.753974,3.019261,0.971484,-0.234408,-0.029542,0.019949
641,0.507067,-4.502753,8.757079,9.952775,1.078546,4.365362,-27.134073,-2.734537,3.147502,0.971607,-0.233791,-0.029627,0.021094
642,0.533298,-4.221596,8.748825,21.831089,1.226349,3.706027,-26.455744,-2.714755,3.242590,0.972958,-0.228016,-0.029523,0.022116
643,0.449355,-3.923568,8.741426,38.158333,0.501437,4.203354,-25.049593,-2.674280,3.328394,0.975672,-0.216050,-0.029067,0.023284
644,0.582944,-3.539441,8.718492,58.967808,-0.382322,3.267745,-22.847918,-2.716410,3.411900,0.979618,-0.197232,-0.029118,0.024479
645,0.672047,-2.797952,8.558834,78.995392,-0.734067,-0.343084,-19.688097,-2.988197,3.413192,0.984638,-0.170068,-0.030769,0.024877
646,0.516149,-2.113479,8.489097,89.795219,-1.270278,-1.483411,-15.703784,-3.246659,3.319291,0.989924,-0.135688,-0.032006,0.024811
647,0.378825,-1.691366,8.700838,93.043228,-2.094071,-1.067005,-11.490793,-3.262800,3.224235,0.994260,-0.099231,-0.031130,0.025131
648,0.350101,-1.204469,9.112385,90.931534,-2.903615,-3.348282,-7.453224,-3.143667,3.122044,0.997188,-0.064202,-0.029132,0.025392
649,0.133610,-0.843459,9.628064,80.769745,-3.573731,-2.664605,-3.871375,-2.874713,3.012944,0.998792,-0.033096,-0.025949,0.025420
650,-0.245644,-0.939978,10.286341,68.675667,-5.187224,2.757205,-1.261422,-2.280437,3.044522,0.999394,-0.010473,-0.020183,0.026340
651,0.011656,-0.511869,10.628743,62.606003,-5.880634,5.510147,0.599374,-1.739013,3.227424,0.999472,0.005655,-0.015022,0.028237
652,0.192776,-0.209450,10.726279,55.907505,-6.113004,8.180573,2.205334,-1.615841,3.477603,0.999247,0.019661,-0.013507,0.030606
653,0.021134,0.184715,10.405325,48.288998,-6.164057,11.308729,3.605474,-1.588309,3.807754,0.998843,0.031898,-0.012801,0.033639
654,0.208344,0.723375,9.976790,42.540596,-4.584014,14.240007,5.034821,-1.585773,4.227274,0.998237,0.044399,-0.012195,0.037450
655,0.423880,1.242040,9.557371,34.225391,-3.563374,13.277139,6.627845,-1.827823,4.661664,0.997337,0.058399,-0.013560,0.041518
656,0.349572,1.110763,9.628631,22.107361,-3.116718,11.452150,7.813772,-2.121769,5.046059,0.996483,0.068871,-0.015455,0.045171
657,0.433431,1.213869,9.648228,19.503874,-2.218195,9.260962,8.416965,-2.332996,5.377532,0.995929,0.074242,-0.016839,0.048267
658,0.653314,1.283209,9.507813,16.871138,-1.840502,6.862336,8.857677,-2.664408,5.638034,0.995450,0.078247,-0.019355,0.050814
659,0.660385,1.134945,9.776526,8.513784,-2.645816,1.897213,8.856855,-3.113010,5.788804,0.995269,0.078454,-0.023150,0.052421
660,0.916074,0.977888,10.224861,5.168103,-1.704093,-1.596831,8.369140,-3.585146,5.821613,0.995444,0.074424,-0.027454,0.052901
661,0.804149,0.979485,9.956035,6.657825,-1.416909,-3.915897,7.779549,-3.999058,5.773575,0.995704,0.069463,-0.031352,0.052580
662,0.635837,0.986861,9.804143,-1.024283,-0.983916,-6.435004,7.245031,-4.133531,5.640922,0.996032,0.064836,-0.032841,0.051352
663,0.629281,0.837466,10.284575,-6.783324,-0.077149,-7.321490,6.611116,-4.016732,5.447091,0.996500,0.059223,-0.032209,0.049427
664,0.403833,0.770106,10.119409,-3.133596,0.219781,-5.812327,5.914844,-3.723073,5.265747,0.997010,0.053002,-0.030038,0.047525
665,0.125337,0.849019,9.777487,-3.107330,-0.076005,-3.944703,5.459069,-3.172831,5.124682,0.997425,0.048792,-0.025497,0.045956
666,0.200313,0.861699,9.991263,-5.474594,-0.126010,-1.562887,5.153840,-2.603138,5.039563,0.997720,0.045903,-0.020694,0.044929
667,0.271668,0.863447,10.047142,-3.195150,-1.028204,0.785419,4.923137,-2.273820,5.027442,0.997882,0.043769,-0.017921,0.044661
668,0.345564,0.876367,9.808412,-1.568514,-1.445779,2.444053,4.841947,-2.160675,5.077129,0.997914,0.043027,-0.016948,0.045040
669,0.516700,0.854275,9.961835,-3.359829,-1.465883,2.207553,4.793235,-2.295609,5.148927,0.997879,0.042665,-0.018116,0.045706
670,0.576228,0.820640,10.016255,-1.362404,-1.608561,1.552996,4.708603,-2.582407,5.207621,0.997829,0.042049,-0.020626,0.046304
671,0.537693,0.861599,9.936291,2.417395,-1.574083,1.080006,4.749086,-2.825333,5.245934,0.997745,0.042503,-0.022711,0.046731
672,0.466418,0.930961,9.897119,4.239785,-1.218727,1.359244,4.988989,-2.929872,5.275953,0.997616,0.044639,-0.023511,0.047078
673,0.337345,0.918620,10.018200,4.433983,-0.484312,2.581453,5.252242,-2.829615,5.333106,0.997511,0.046902,-0.022507,0.047590
674,0.200161,0.870896,9.907491,5.071827,0.281180,5.128130,5.407063,-2.542738,5.461485,0.997457,0.048159,-0.019891,0.048623
675,0.231400,0.830881,9.891400,3.695055,1.248319,8.533899,5.427108,-2.169153,5.696530,0.997422,0.048215,-0.016532,0.050522
676,0.274074,0.797361,9.874057,1.934956,2.190709,11.724553,5.296385,-1.874855,6.046501,0.997368,0.046995,-0.013884,0.053433
677,0.346317,0.735583,9.879368,0.354830,2.958496,13.990558,5.082265,-1.754797,6.489265,0.997260,0.045126,-0.012764,0.057215
678,0.472027,0.743358,9.814511,0.071864,3.093887,15.095387,4.872626,-1.822165,6.987781,0.997072,0.043393,-0.013267,0.061554
679,0.565635,0.803863,9.857039,0.182896,2.674872,14.553773,4.751698,-2.042601,7.492474,0.996799,0.042523,-0.015063,0.066008
680,0.627397,0.865016,9.913087,0.796327,2.008442,12.388577,4.753291,-2.341449,7.946820,0.996471,0.042775,-0.017492,0.070065
681,0.636079,0.942773,9.891011,2.403560,1.438027,9.660310,4.920304,-2.689603,8.312381,0.996103,0.044499,-0.020276,0.073394
682,0.651276,1.034276,9.920356,2.532597,0.650992,6.182788,5.247481,-3.033713,8.565586,0.995723,0.047608,-0.022952,0.075783
683,0.640128,1.044353,9.944351,2.360961,-0.008968,2.891395,5.559453,-3.265193,8.704026,0.995434,0.050496,-0.024696,0.077142
684,0.636599,0.947504,9.917520,1.872893,-0.511428,0.152388,5.695934,-3.408262,8.749586,0.995302,0.051785,-0.025827,0.077626
685,0.621581,0.840082,9.874358,-0.973424,-1.077828,-3.358712,5.574027,-3.515181,8.702016,0.995357,0.050785,-0.026859,0.077228
686,0.592939,0.864156,9.900775,-7.862083,-1.373906,-7.696874,5.247437,-3.554281,8.526031,0.995603,0.047931,-0.027493,0.075637
687,0.604283,0.697021,9.901370,-16.565111,-1.448610,-11.169845,4.656766,-3.554684,8.220551,0.996035,0.042724,-0.028000,0.072840
688,0.567907,0.521296,9.885695,-27.792410,-1.477469,-14.816751,3.622886,-3.533742,7.803766,0.996643,0.033619,-0.028596,0.068954
689,0.570453,0.401296,9.961697,-38.035526,-1.468112,-18.158476,2.227436,-3.495055,7.270820,0.997298,0.021322,-0.029196,0.063957
690,0.477982,0.287144,9.798330,-46.201454,-1.003867,-19.815601,0.652342,-3.411794,6.646760,0.997850,0.007406,-0.029389,0.058114
691,0.135358,0.161701,9.635994,-50.767109,0.089936,-17.966196,-0.954530,-3.056324,6.010961,0.998246,-0.006917,-0.027067,0.052189
692,0.338622,-0.092585,9.681487,-52.547600,0.883264,-15.221077,-2.567964,-2.646033,5.440250,0.998381,-0.021281,-0.024120,0.046916
693,0.183447,-0.350669,9.612394,-47.868778,-0.077093,-11.662602,-4.121253,-2.366349,4.978467,0.998230,-0.035019,-0.022177,0.042653
694,0.078768,-0.383334,9.553454,-32.633080,0.397236,-5.291823,-5.192727,-1.996926,4.677344,0.998022,-0.044545,-0.019241,0.039969
695,0.098317,-0.368382,9.896122,-2.699839,1.733846,6.564651,-5.118007,-1.533094,4.668033,0.998109,-0.044063,-0.015172,0.040084
696,0.722170,-0.792614,9.885776,33.116882,0.847016,16.867617,-4.102887,-1.540777,5.037431,0.998325,-0.035168,-0.014997,0.043433
697,0.283462,-0.668795,9.647970,52.804623,-0.821855,20.688437,-2.614561,-1.814508,5.653404,0.998416,-0.022003,-0.016935,0.048935
698,0.459831,-0.437567,9.865245,63.052818,0.245923,23.680756,-0.683374,-1.914303,6.388018,0.998295,-0.005023,-0.017011,0.055609
699,0.559659,-0.262740,9.844957,61.059669,-0.304231,22.461533,1.270550,-2.165468,7.153120,0.997800,0.012243,-0.018167,0.062576
700,0.640444,-0.129846,9.669336,43.717972,-1.809904,15.080678,2.666623,-2.555163,7.780886,0.997142,0.024722,-0.020660,0.068331
701,0.399153,0.272913,9.843327,19.343204,-1.872988,6.521817,3.350228,-2.791612,8.147269,0.996701,0.030879,-0.022211,0.071697
702,0.567729,0.451108,10.003105,11.317576,-0.795821,2.911524,3.617248,-2.887393,8.312569,0.996499,0.033293,-0.022829,0.073211
703,0.538316,0.618626,9.837695,9.049659,-0.573380,-0.106717,3.836276,-3.017051,8.363172,0.996369,0.035289,-0.023801,0.073730
704,0.494624,0.660247,9.851146,7.438271,-0.190418,-1.457158,4.109343,-3.041431,8.336159,0.996294,0.037673,-0.023846,0.073559
705,0.452577,0.704110,9.847629,6.396053,0.032649,-2.133162,4.339797,-2.954798,8.276580,0.996276,0.039611,-0.022966,0.073062
706,0.399224,0.813490,9.857733,5.445580,0.138466,-2.021818,4.594313,-2.787543,8.205465,0.996271,0.041706,-0.021375,0.072439
707,0.383082,0.869745,9.875023,4.914966,0.081087,-0.958316,4.891802,-2.597070,8.150989,0.996238,0.044166,-0.019552,0.071953
708,0.426796,0.928909,9.878088,5.287751,0.096697,0.042641,5.200388,-2.486483,8.130315,0.996153,0.046778,-0.018405,0.071783
709,0.458946,1.022611,9.824829,5.289794,0.267601,1.129078,5.531290,-2.481693,8.143665,0.996006,0.049654,-0.018150,0.071950
710,0.496394,1.009546,9.851688,3.897022,0.529849,2.159080,5.801350,-2.537013,8.194183,0.995842,0.052043,-0.018438,0.072455
711,0.503176,0.945664,9.868348,4.186944,0.804233,2.560426,5.931592,-2.607994,8.274597,0.995715,0.053231,-0.018935,0.073206
712,0.577261,0.967411,9.846265,5.326568,1.044920,2.531487,6.013255,-2.709888,8.365406,0.995595,0.054019,-0.019726,0.074053
713,0.573554,0.983922,9.820492,5.243939,1.132923,2.690246,6.116233,-2.834568,8.458831,0.995455,0.055009,-0.020698,0.074939
714,0.580504,0.944526,9.860354,4.308197,1.062308,2.302723,6.165789,-2.934847,8.550539,0.995345,0.055520,-0.021492,0.075789
715,0.552842,0.957221,9.854039,4.606806,0.930789,1.548971,6.168951,-2.996558,8.625132,0.995278,0.055601,-0.021990,0.076466
716,0.575480,0.989157,9.848832,3.629821,0.785608,0.914230,6.185685,-3.039173,8.675177,0.995225,0.055783,-0.022325,0.076923
717,0.517311,0.971771,9.868423,1.561750,0.744313,0.447330,6.137815,-3.045577,8.707529,0.995225,0.055378,-0.022397,0.077197
718,0.463239,0.968721,9.795269,-0.942817,0.775036,0.895959,5.989081,-2.962186,8.740800,0.995295,0.054038,-0.021757,0.077421
719,0.395254,0.859483,9.855144,-4.649911,0.848709,2.405086,5.706424,-2.812402,8.807673,0.995418,0.051497,-0.020617,0.077885
720,0.377798,0.737706,9.880537,-6.681831,0.858355,5.318074,5.236631,-2.649855,8.951425,0.995561,0.047333,-0.019464,0.078987
721,0.359271,0.677797,9.834550,-7.749474,0.596345,8.565249,4.678403,-2.511771,9.197626,0.995639,0.042430,-0.018557,0.080984
722,0.399726,0.603866,9.819550,-9.067266,0.010671,11.318034,4.107769,-2.443090,9.540488,0.995606,0.037479,-0.018251,0.083849
723,0.480510,0.519239,9.913999,-9.609818,-0.761498,12.673095,3.524005,-2.498353,9.949749,0.995467,0.032514,-0.019042,0.087325
