seq,ax,ay,az,wroll,wpitch,wyaw,roll,pitch,yaw
1,0.013735,9.853128,0.028678,0.478796,0.217779,0.124696,89.833244,-0.079868,-0.079636
2,0.002306,9.830111,0.054733,-1.059176,0.091929,-0.552145,89.823555,-0.072729,-0.074496
3,-0.000609,9.825680,0.053385,-1.046541,-0.017424,-0.671198,89.788460,-0.052335,-0.073323
4,-0.006449,9.840379,0.048978,-0.894138,-0.142743,-0.820810,89.756126,-0.027479,-0.076091
5,-0.019446,9.843149,0.088235,-3.360791,-0.254444,-1.269703,89.685204,0.007331,-0.082880
6,-0.022873,9.832653,0.078193,-1.735217,-0.578454,-0.794218,89.600273,0.041642,-0.096980
8,-0.018379,9.835943,0.070675,-0.481815,-0.563818,-0.188680,89.563301,0.057887,-0.116136
9,-0.016340,9.835173,0.071437,-0.148708,-0.513292,0.084501,89.552780,0.059487,-0.134101
10,-0.005267,9.823509,0.071423,0.260165,-0.398999,0.715182,89.554619,0.046041,-0.149202
11,0.008512,9.814856,0.029391,3.226277,-0.263288,1.299461,89.612709,0.012385,-0.159996
12,0.013206,9.817598,0.042365,1.474873,0.015479,0.878222,89.691071,-0.023931,-0.163910
13,0.010667,9.815189,0.037745,0.912910,0.014042,0.351430,89.730873,-0.044422,-0.163312
15,0.010002,9.818963,0.030132,1.162212,-0.009367,0.156316,89.765457,-0.052884,-0.163198
16,0.008044,9.814957,0.028418,0.912768,-0.040473,-0.029375,89.800049,-0.055002,-0.164021
17,0.012014,9.815372,0.027043,0.440786,-0.025728,0.144691,89.822609,-0.056928,-0.165119
18,0.011292,9.817494,0.016540,0.806065,-0.021292,0.080126,89.843391,-0.060677,-0.165891
19,0.007409,9.847504,0.023876,0.463884,0.034947,-0.176606,89.864555,-0.059069,-0.165668
20,0.008317,9.845643,0.037876,-0.772429,0.081518,-0.173615,89.859406,-0.053227,-0.163741
22,0.007797,9.846116,0.040276,-0.901925,0.111976,-0.169779,89.831505,-0.047495,-0.160532
23,0.009871,9.847870,0.035971,-0.201624,0.111009,0.020594,89.813103,-0.044997,-0.156824
24,0.010626,9.843767,0.046117,-0.678730,0.132415,0.064939,89.798431,-0.046409,-0.152762
25,0.012741,9.813076,0.045862,-0.743764,0.098332,0.160000,89.774719,-0.050143,-0.148902
26,0.019438,9.816847,0.034647,0.340777,0.082468,0.516948,89.767998,-0.061414,-0.145844
27,0.039789,9.734171,0.008806,1.821062,0.032291,1.621119,89.804024,-0.097041,-0.143799
29,0.040212,9.732408,-0.010947,2.606418,0.024413,1.326614,89.877815,-0.146167,-0.142719
30,0.039782,9.736188,-0.018315,2.393455,0.004424,0.847256,89.961151,-0.182398,-0.142192
31,0.048690,9.740613,-0.025394,1.945109,-0.008317,1.007491,90.033455,-0.213310,-0.142257
32,0.045270,9.730751,-0.028086,1.216461,-0.001747,0.506997,90.086151,-0.238552,-0.142450
33,0.026234,9.813454,-0.001980,-0.675172,0.039450,-0.863378,90.095169,-0.232613,-0.141812
34,0.025585,9.815730,0.024878,-2.256298,0.033470,-0.857046,90.046310,-0.203941,-0.140563
36,0.025250,9.812767,0.034641,-2.337247,0.047217,-0.592152,89.969742,-0.179787,-0.139219
37,0.021600,9.813189,0.038068,-1.807610,0.043713,-0.559125,89.900665,-0.160598,-0.137726
38,0.020972,9.819261,0.042502,-1.391284,0.023997,-0.404764,89.847343,-0.144531,-0.136633
39,0.017069,9.821648,0.044837,-1.019748,0.029261,-0.451938,89.807167,-0.130250,-0.135788
40,0.018417,9.822583,0.041846,-0.476572,0.054817,-0.240151,89.782219,-0.118710,-0.134428
41,0.017963,9.823024,0.039547,-0.106085,0.046107,-0.157261,89.772507,-0.112080,-0.132771
43,0.020433,9.824944,0.041034,-0.078967,0.046829,0.043890,89.769424,-0.110184,-0.131230
44,0.023598,9.822206,0.040374,-0.012206,0.061175,0.239135,89.767899,-0.114894,-0.129411
45,0.027648,9.820962,0.034907,0.301908,0.059807,0.408349,89.772728,-0.125677,-0.127351
46,0.024382,9.818257,0.039674,0.006554,0.053969,0.128334,89.777863,-0.134615,-0.125420
47,0.025486,9.820000,0.036195,0.152501,0.050691,0.095234,89.780510,-0.138334,-0.123661
48,0.023705,9.816489,0.038461,-0.003633,0.051568,-0.045974,89.782982,-0.139149,-0.121954
50,0.021204,9.821349,0.040935,-0.160141,0.052513,-0.185340,89.780251,-0.135287,-0.120234
51,0.019953,9.823317,0.042716,-0.224759,0.054328,-0.219736,89.773834,-0.128529,-0.118479
52,0.023108,9.826130,0.037103,0.152393,0.055589,0.028067,89.772629,-0.125327,-0.116660
53,0.021202,9.829154,0.041762,-0.091987,0.064061,-0.041354,89.773621,-0.125098,-0.114667
54,0.019019,9.832593,0.040148,-0.022046,0.059776,-0.165009,89.771721,-0.121650,-0.112617
55,0.019438,9.826908,0.041614,-0.083381,0.058162,-0.123704,89.769958,-0.116830,-0.110670
57,0.016982,9.825736,0.046995,-0.375727,0.056037,-0.224525,89.762306,-0.111019,-0.108791
58,0.013714,9.828232,0.046690,-0.300666,0.059417,-0.365808,89.751030,-0.101172,-0.106908
59,0.014833,9.824304,0.047803,-0.251711,0.043404,-0.211496,89.741829,-0.091542,-0.105237
60,0.011440,9.820499,0.045701,-0.044193,0.045014,-0.298610,89.736893,-0.083034,-0.103802
61,0.010975,9.823256,0.041830,0.225510,0.033709,-0.233050,89.739906,-0.074167,-0.102530
62,0.011962,9.819040,0.035590,0.546343,0.035738,-0.093846,89.752777,-0.068714,-0.101397
64,0.011409,9.812304,0.039090,0.230128,0.029961,-0.063106,89.765717,-0.066093,-0.100313
65,0.012774,9.809417,0.038639,0.140737,0.037295,0.043821,89.771889,-0.065768,-0.099193
66,0.019402,9.803745,0.041906,-0.100537,0.039154,0.404638,89.772552,-0.073237,-0.097889
67,0.015162,9.812301,0.044943,-0.288619,0.051301,0.089925,89.766068,-0.081473,-0.096348
68,0.020031,9.821144,0.047905,-0.388877,0.061378,0.280774,89.754776,-0.087644,-0.094444
69,0.022123,9.822488,0.051193,-0.461933,0.067332,0.331837,89.740593,-0.097844,-0.092254
71,0.026086,9.823714,0.049455,-0.238183,0.077056,0.452843,89.728920,-0.110911,-0.089787
72,0.022939,9.828639,0.046615,0.017623,0.079433,0.165930,89.725250,-0.121211,-0.087130
73,0.029945,9.814932,0.048098,-0.034762,0.065919,0.461438,89.724945,-0.131656,-0.084658
74,0.026390,9.806231,0.045401,0.113851,0.062420,0.178591,89.726265,-0.142313,-0.082468
75,0.025564,9.799330,0.042871,0.238564,0.059740,0.037088,89.732132,-0.145898,-0.080415
76,0.019546,9.798535,0.045415,0.035244,0.049750,-0.338779,89.736687,-0.140861,-0.078613
78,0.022900,9.797906,0.046200,-0.038121,0.041235,-0.101494,89.736633,-0.133516,-0.077131
79,0.021975,9.802494,0.039183,0.365450,0.060070,-0.082152,89.742081,-0.130448,-0.075456
80,0.021489,9.813643,0.036980,0.447481,0.046181,-0.085923,89.755630,-0.127639,-0.073698
81,0.022905,9.820676,0.040004,0.146546,0.043349,0.022967,89.765526,-0.126583,-0.072210
82,0.023580,9.824640,0.039164,0.103076,0.044798,0.079037,89.769684,-0.128277,-0.070734
83,0.028652,9.825988,0.035155,0.299697,0.049433,0.340678,89.776382,-0.135266,-0.069136
85,0.026846,9.825264,0.036450,0.164062,0.048891,0.168259,89.784111,-0.143742,-0.067464
86,0.027744,9.818548,0.039012,-0.054262,0.043455,0.137018,89.785942,-0.148825,-0.065906
87,0.029851,9.820810,0.040370,-0.144843,0.048033,0.185330,89.782623,-0.154191,-0.064361
88,0.030371,9.815076,0.034728,0.199802,0.056350,0.153477,89.783539,-0.159831,-0.062600
89,0.024782,9.810270,0.044881,-0.371613,0.048628,-0.213946,89.780670,-0.158817,-0.060854
90,0.022494,9.810696,0.045200,-0.372694,0.044472,-0.325211,89.768257,-0.149825,-0.059338
92,0.024354,9.811161,0.040292,0.013030,0.057938,-0.136666,89.762268,-0.142120,-0.057663
93,0.024359,9.809711,0.032823,0.487164,0.048837,-0.052313,89.770599,-0.138963,-0.055896
94,0.026459,9.812730,0.042496,-0.129559,0.049769,0.096800,89.776543,-0.139698,-0.054249
95,0.025845,9.812202,0.035496,0.183797,0.058293,0.051264,89.777443,-0.142159,-0.052439
96,0.027692,9.813776,0.039021,-0.007733,0.053909,0.128577,89.780373,-0.145149,-0.050557
97,0.030388,9.812008,0.045100,-0.371691,0.049804,0.248484,89.774048,-0.151427,-0.048804
99,0.027368,9.813234,0.045524,-0.340855,0.046037,0.011981,89.762169,-0.155761,-0.047189
100,0.026321,9.816896,0.039592,0.100281,0.037630,-0.084761,89.758148,-0.154542,-0.045799
101,0.027912,9.821824,0.040815,0.074799,0.029662,0.017306,89.761070,-0.153413,-0.044683
102,0.028736,9.823235,0.040466,0.056098,0.038610,0.068892,89.763245,-0.154845,-0.043539
103,0.021208,9.821810,0.040211,0.052287,0.046516,-0.366241,89.765053,-0.149884,-0.042140
104,0.021259,9.823811,0.043100,-0.118351,0.062026,-0.310425,89.763947,-0.138598,-0.040378
106,0.017108,9.819433,0.044360,-0.168130,0.058072,-0.431269,89.759163,-0.126229,-0.038428
107,0.014410,9.813921,0.045649,-0.183386,0.068932,-0.461348,89.753304,-0.111343,-0.036374
108,0.015329,9.819621,0.042761,0.039975,0.055453,-0.275574,89.750916,-0.099052,-0.034354
109,0.018015,9.820517,0.046905,-0.165260,0.043978,0.000661,89.748825,-0.094463,-0.032717
110,0.020321,9.820314,0.045140,-0.044566,0.032330,0.182774,89.745323,-0.097514,-0.031432
111,0.022738,9.817924,0.046153,-0.083409,0.030368,0.285013,89.743187,-0.105306,-0.030352
113,0.022267,9.821723,0.041677,0.182853,0.030331,0.181362,89.744843,-0.113074,-0.029306
114,0.019194,9.814132,0.046217,-0.087998,0.031935,-0.048175,89.746422,-0.115290,-0.028258
115,0.018608,9.818274,0.041136,0.175228,0.040796,-0.111312,89.747879,-0.112626,-0.027058
116,0.015101,9.814003,0.039033,0.280142,0.045920,-0.296853,89.755463,-0.105817,-0.025642
117,0.016009,9.817513,0.039162,0.213908,0.057779,-0.169926,89.763695,-0.098030,-0.023946
118,0.017695,9.819220,0.045456,-0.225022,0.047142,-0.002648,89.763504,-0.095147,-0.022210
120,0.021345,9.822035,0.038767,0.148149,0.056243,0.219108,89.762222,-0.098747,-0.020472
121,0.020880,9.820516,0.039244,0.129004,0.048873,0.160850,89.766838,-0.105073,-0.018694
122,0.018324,9.817945,0.044626,-0.212218,0.053382,-0.036058,89.765450,-0.107146,-0.016981
123,0.018095,9.819206,0.042571,-0.080236,0.042605,-0.065524,89.760567,-0.105446,-0.015388
124,0.014734,9.820879,0.041181,0.040519,0.050716,-0.228198,89.759903,-0.100544,-0.013853
125,0.015089,9.815919,0.046501,-0.247838,0.046369,-0.155434,89.756447,-0.094144,-0.012262
127,0.015667,9.816750,0.047232,-0.252239,0.056642,-0.056552,89.748116,-0.090603,-0.010561
128,0.017971,9.814931,0.047158,-0.174046,0.051209,0.109594,89.741005,-0.091479,-0.008760
129,0.019146,9.810166,0.045141,-0.014232,0.047599,0.156273,89.737862,-0.095903,-0.007093
130,0.020103,9.814115,0.041293,0.236149,0.051712,0.163853,89.741554,-0.101231,-0.005413
131,0.013151,9.820746,0.043080,0.100512,0.061540,-0.280447,89.747162,-0.099279,-0.003535
132,0.014742,9.818795,0.042752,0.061945,0.059584,-0.182727,89.749863,-0.091551,-0.001550
134,0.014184,9.822638,0.044421,-0.058364,0.058059,-0.139026,89.749924,-0.086179,0.000387
135,0.016258,9.830462,0.042513,0.059363,0.070902,0.026207,89.749939,-0.084290,0.002528
136,0.018777,9.821433,0.042940,0.034929,0.062621,0.190698,89.751511,-0.087895,0.004770
137,0.023118,9.816587,0.037486,0.324317,0.046031,0.406823,89.757492,-0.097846,0.006623
138,0.025539,9.820496,0.040413,0.112175,0.040132,0.452084,89.764763,-0.112155,0.008119
139,0.027604,9.824798,0.034174,0.394255,0.038200,0.428424,89.773201,-0.126825,0.009484
141,0.025800,9.815923,0.035005,0.255707,0.028724,0.191950,89.784042,-0.137160,0.010639
142,0.022607,9.825323,0.039506,-0.097760,0.021454,-0.095164,89.786659,-0.138770,0.011481
143,0.022881,9.830572,0.040343,-0.164872,0.036887,-0.105112,89.782280,-0.135428,0.012441
144,0.017675,9.826394,0.039655,-0.095243,0.030037,-0.348997,89.777939,-0.127856,0.013527
145,0.014712,9.829270,0.042849,-0.230241,0.038332,-0.446011,89.772522,-0.114601,0.014615
146,0.014257,9.832200,0.046691,-0.375497,0.045861,-0.340959,89.762428,-0.101479,0.015964
147,0.015316,9.829165,0.042619,-0.050298,0.053643,-0.162003,89.755318,-0.093090,0.017587
148,0.016711,9.819214,0.047246,-0.244741,0.042597,0.012668,89.750404,-0.090594,0.019181
149,0.013128,9.822029,0.043439,0.022788,0.050564,-0.167023,89.746704,-0.088015,0.020722
150,0.013209,9.821935,0.046333,-0.106965,0.043006,-0.131924,89.745293,-0.083025,0.022259
151,0.012964,9.825169,0.043429,0.054386,0.039540,-0.107498,89.744423,-0.079029,0.023617
152,0.014555,9.821599,0.044671,-0.006982,0.037537,0.035685,89.745201,-0.077826,0.024897
153,0.014606,9.821342,0.041298,0.157164,0.031125,0.040804,89.747704,-0.079096,0.026047
154,0.019673,9.822115,0.038254,0.302243,0.034320,0.297268,89.755356,-0.084726,0.027162
155,0.020001,9.815836,0.038274,0.228608,0.046805,0.255054,89.764206,-0.093925,0.028553
156,0.020376,9.812369,0.040699,0.015418,0.039821,0.187336,89.768265,-0.101293,0.030027
157,0.020814,9.808062,0.039391,0.048399,0.041491,0.134529,89.769325,-0.106651,0.031403
158,0.019488,9.816191,0.040313,0.011917,0.049738,0.004565,89.770332,-0.108964,0.032933
159,0.020322,9.813897,0.042984,-0.144777,0.039262,0.032163,89.768112,-0.109570,0.034419
160,0.025008,9.817331,0.038723,0.120993,0.025533,0.285822,89.767708,-0.114865,0.035520
161,0.024504,9.820685,0.037140,0.216329,0.027185,0.217801,89.773338,-0.123255,0.036433
162,0.024559,9.826729,0.035682,0.237294,0.036590,0.137264,89.780899,-0.129169,0.037518
163,0.027366,9.825485,0.033325,0.289713,0.042189,0.247446,89.789680,-0.135576,0.038855
164,0.025999,9.826061,0.036191,0.037017,0.055488,0.122985,89.795113,-0.141743,0.040506
165,0.025638,9.822242,0.040170,-0.254262,0.062562,0.055632,89.791481,-0.144713,0.042484
166,0.025860,9.824567,0.039084,-0.149963,0.077649,0.040910,89.784744,-0.146314,0.044827
167,0.024326,9.821059,0.040872,-0.182736,0.067433,-0.057272,89.779190,-0.146032,0.047244
168,0.020646,9.814615,0.044797,-0.355287,0.065581,-0.270008,89.770218,-0.140568,0.049439
169,0.019670,9.817264,0.043327,-0.181775,0.062129,-0.278640,89.761261,-0.131416,0.051531
170,0.017677,9.827664,0.038206,0.187978,0.067487,-0.312390,89.761360,-0.121556,0.053650
171,0.015847,9.829727,0.038409,0.157922,0.053837,-0.321800,89.767120,-0.110978,0.055629
172,0.018791,9.831889,0.040025,0.008146,0.048466,-0.064629,89.769882,-0.104531,0.057308
173,0.020842,9.835965,0.034991,0.262828,0.045777,0.118845,89.774391,-0.105428,0.058882
174,0.021481,9.828215,0.039961,-0.050686,0.043212,0.145098,89.777931,-0.109821,0.060382
175,0.023754,9.820225,0.039779,-0.065253,0.030739,0.230323,89.776001,-0.116074,0.061639
176,0.021360,9.812203,0.047587,-0.481792,0.035384,0.043789,89.766876,-0.120638,0.062760
177,0.019606,9.810415,0.046233,-0.311413,0.049376,-0.082935,89.753654,-0.119979,0.064170
178,0.020165,9.808366,0.051189,-0.461322,0.044961,-0.046961,89.740768,-0.117808,0.065733
179,0.021333,9.814991,0.046737,-0.096251,0.056008,0.042265,89.731476,-0.117721,0.067415
180,0.018664,9.814610,0.049340,-0.149395,0.056802,-0.097259,89.727379,-0.116796,0.069291
181,0.021791,9.820327,0.042877,0.256949,0.061233,0.076614,89.729172,-0.116443,0.071256
182,0.021110,9.826365,0.042610,0.259266,0.061405,0.043037,89.737770,-0.118427,0.073310
183,0.020192,9.833090,0.041494,0.248616,0.067871,-0.027430,89.746223,-0.118678,0.075465
184,0.017152,9.835712,0.041915,0.131850,0.065788,-0.204444,89.752571,-0.114804,0.077676
185,0.015710,9.838114,0.039714,0.189376,0.059732,-0.252233,89.757912,-0.107183,0.079735
186,0.012569,9.840725,0.038808,0.190811,0.057109,-0.349237,89.764244,-0.097151,0.081641
187,0.012207,9.830720,0.040511,0.026550,0.060105,-0.277851,89.767868,-0.086692,0.083552
188,0.007723,9.827133,0.039111,0.065840,0.052999,-0.432714,89.769402,-0.074841,0.085389
189,0.012051,9.822409,0.034380,0.332196,0.043625,-0.078580,89.776039,-0.066313,0.086966
190,0.014668,9.822583,0.035632,0.204420,0.050562,0.156596,89.784981,-0.067608,0.088541
191,0.019788,9.823391,0.037290,0.030812,0.045200,0.418782,89.788895,-0.077191,0.090172
192,0.021214,9.837584,0.032464,0.269731,0.032764,0.406598,89.793907,-0.090943,0.091522
193,0.023507,9.837042,0.031904,0.254513,0.040421,0.404442,89.802643,-0.104456,0.092789
194,0.021745,9.835779,0.039106,-0.234868,0.039046,0.174162,89.802963,-0.114095,0.094147
195,0.019167,9.831425,0.039309,-0.257775,0.041456,-0.059596,89.794746,-0.115999,0.095496
196,0.018997,9.819884,0.037404,-0.088933,0.050353,-0.075185,89.788963,-0.113747,0.097018
197,0.018269,9.807680,0.041756,-0.288780,0.055371,-0.094414,89.782669,-0.110914,0.098769
198,0.020999,9.801791,0.041095,-0.196687,0.049922,0.087761,89.774567,-0.110796,0.100524
199,0.018914,9.801600,0.036117,0.158141,0.060355,-0.017724,89.773918,-0.111956,0.102366
200,0.020256,9.798840,0.037232,0.109415,0.061737,0.036941,89.778381,-0.112269,0.104402
201,0.018456,9.804761,0.039958,-0.073833,0.053364,-0.078837,89.778976,-0.111563,0.106318
202,0.020379,9.812598,0.040216,-0.079780,0.048385,0.032191,89.776413,-0.110779,0.108011
203,0.019385,9.817859,0.045972,-0.373355,0.047610,-0.016072,89.768852,-0.111041,0.109612
204,0.022760,9.819822,0.051211,-0.580765,0.035080,0.171347,89.752945,-0.113624,0.111001
205,0.024328,9.825917,0.052913,-0.522234,0.034670,0.239003,89.734566,-0.120457,0.112194
206,0.027919,9.826680,0.052494,-0.327214,0.038195,0.360682,89.720398,-0.130446,0.113455
207,0.027708,9.820245,0.048407,0.030376,0.048542,0.244437,89.715454,-0.140524,0.114950
208,0.028950,9.819553,0.046021,0.204899,0.048215,0.213080,89.719360,-0.148142,0.116600
209,0.030133,9.815016,0.043160,0.316045,0.055561,0.207072,89.728043,-0.155136,0.118364
210,0.030250,9.812416,0.037504,0.537617,0.061329,0.139941,89.742264,-0.160910,0.120338
211,0.024372,9.812885,0.037276,0.410638,0.063386,-0.233402,89.758057,-0.159344,0.122410
212,0.023660,9.815241,0.042922,-0.061178,0.060162,-0.246124,89.763878,-0.151343,0.124435
213,0.021639,9.816349,0.040593,0.006887,0.063135,-0.279283,89.762970,-0.142578,0.126454
214,0.018726,9.818393,0.041138,-0.006574,0.063515,-0.366915,89.762970,-0.131799,0.128520
215,0.018688,9.821648,0.040527,0.026514,0.063017,-0.263927,89.763298,-0.121276,0.130586
216,0.021683,9.824132,0.038166,0.165452,0.067752,0.004760,89.766487,-0.116948,0.132747
217,0.021106,9.823647,0.037072,0.203267,0.058509,0.013971,89.772629,-0.117252,0.134853
218,0.022580,9.821461,0.036742,0.176477,0.068966,0.097615,89.778954,-0.119103,0.136985
219,0.023265,9.824150,0.036508,0.111639,0.072048,0.114590,89.783752,-0.122631,0.139349
220,0.023545,9.822808,0.043506,-0.311333,0.068474,0.093721,89.780418,-0.126094,0.141704
221,0.019390,9.820168,0.043315,-0.271278,0.064826,-0.170649,89.770706,-0.124803,0.143921
222,0.019926,9.818531,0.040918,-0.041861,0.065707,-0.130023,89.765480,-0.119783,0.146076
223,0.021341,9.818223,0.042873,-0.099244,0.065313,-0.006907,89.763115,-0.117492,0.148250
224,0.023008,9.817566,0.044351,-0.140650,0.058851,0.118042,89.759117,-0.119336,0.150328
226,0.020568,9.816325,0.040091,0.130253,0.060444,-0.020868,89.758942,-0.120947,0.152323
227,0.022339,9.815563,0.042776,-0.024773,0.060404,0.069752,89.760696,-0.121753,0.154340
228,0.023117,9.819770,0.042902,-0.056600,0.069466,0.103163,89.759338,-0.124626,0.156517
229,0.019697,9.824360,0.042830,-0.049269,0.071868,-0.121833,89.757576,-0.124305,0.158871
230,0.018658,9.824782,0.039556,0.136814,0.074723,-0.180974,89.759033,-0.119248,0.161293
231,0.020777,9.828194,0.038864,0.155956,0.078560,-0.029674,89.763908,-0.115726,0.163833
232,0.021434,9.832629,0.038866,0.107478,0.070747,0.042683,89.768295,-0.115933,0.166322
233,0.022704,9.835914,0.039002,0.066619,0.070577,0.113659,89.771194,-0.118529,0.168688
234,0.025903,9.835816,0.033276,0.357446,0.061746,0.269096,89.778259,-0.124900,0.170919
235,0.026407,9.831423,0.035946,0.146296,0.053185,0.235605,89.786652,-0.133304,0.172866
236,0.025336,9.830705,0.036049,0.065258,0.029510,0.088950,89.790169,-0.138708,0.174264
237,0.027553,9.825285,0.037306,-0.026724,0.037133,0.159682,89.790810,-0.142848,0.175390
238,0.022689,9.819159,0.039883,-0.175455,0.037114,-0.143736,89.787437,-0.143109,0.176629
239,0.017925,9.821078,0.044251,-0.385038,0.043212,-0.407447,89.778091,-0.133918,0.177933
240,0.018821,9.819564,0.041740,-0.158974,0.051294,-0.270323,89.769028,-0.122616,0.179463
241,0.018920,9.810155,0.044172,-0.206909,0.073829,-0.144258,89.762932,-0.115697,0.181520
242,0.017669,9.813972,0.044021,-0.145758,0.082847,-0.151383,89.757042,-0.110759,0.184111
243,0.023607,9.811855,0.041602,0.042247,0.079354,0.214463,89.755310,-0.111799,0.186819
244,0.027073,9.809498,0.044683,-0.114302,0.068187,0.401805,89.754105,-0.122060,0.189322
245,0.023806,9.818295,0.046533,-0.200133,0.069596,0.118831,89.748856,-0.130727,0.191656
246,0.024261,9.821090,0.045451,-0.081973,0.071144,0.067443,89.744156,-0.133821,0.194015
247,0.023012,9.818142,0.043506,0.072876,0.052915,-0.027736,89.744003,-0.134474,0.196086
248,0.020190,9.822166,0.044049,0.031496,0.064391,-0.186265,89.745728,-0.130898,0.198025
249,0.020118,9.822834,0.039948,0.257678,0.075978,-0.156371,89.750542,-0.125177,0.200339
250,0.020234,9.824919,0.038138,0.320325,0.077129,-0.098887,89.760162,-0.120912,0.202873
251,0.020396,9.825308,0.043322,-0.056714,0.065522,-0.060121,89.764557,-0.118252,0.205240
252,0.022741,9.828499,0.043840,-0.124760,0.069599,0.093123,89.761528,-0.118793,0.207494
253,0.023678,9.825232,0.040128,0.107284,0.062810,0.138793,89.761230,-0.122649,0.209717
254,0.023835,9.826894,0.044345,-0.132185,0.055787,0.101486,89.760811,-0.126645,0.211710
255,0.026361,9.818440,0.043687,-0.101515,0.049179,0.219955,89.756905,-0.131995,0.213482
256,0.025081,9.827933,0.039906,0.135099,0.047600,0.093785,89.757477,-0.137217,0.215117
257,0.024825,9.828168,0.040865,0.079749,0.046476,0.026916,89.761055,-0.139222,0.216694
258,0.025152,9.828422,0.042920,-0.052723,0.045316,0.022892,89.761497,-0.140046,0.218227
259,0.022741,9.832082,0.040216,0.101274,0.037921,-0.106715,89.762291,-0.138643,0.219608
260,0.020649,9.834149,0.041982,-0.006651,0.037075,-0.218601,89.763870,-0.133216,0.220836
261,0.020013,9.829820,0.040413,0.067275,0.044460,-0.204815,89.764877,-0.126154,0.222166
262,0.019851,9.825385,0.039335,0.125558,0.053264,-0.152304,89.768089,-0.120195,0.223770
263,0.018612,9.828965,0.038582,0.129959,0.050238,-0.158611,89.772339,-0.115006,0.225474
264,0.015583,9.818172,0.034694,0.290510,0.048830,-0.280691,89.779350,-0.107678,0.227097
265,0.016325,9.821702,0.038074,0.041906,0.059564,-0.167218,89.784889,-0.100206,0.228875
266,0.017674,9.818938,0.038707,-0.043317,0.060683,-0.012046,89.784859,-0.097211,0.230868
267,0.021774,9.818656,0.037216,0.025777,0.059577,0.245254,89.784561,-0.101090,0.232887
268,0.019660,9.814896,0.037909,-0.009141,0.063271,0.097739,89.784836,-0.106799,0.234956
269,0.025226,9.817347,0.040294,-0.148021,0.067151,0.350310,89.782219,-0.114258,0.237158
270,0.026417,9.816911,0.041281,-0.176446,0.064184,0.344032,89.776810,-0.125822,0.239391
271,0.027673,9.814709,0.039380,-0.015537,0.068581,0.307224,89.773605,-0.136668,0.241646
272,0.028179,9.818580,0.042153,-0.131889,0.063062,0.240803,89.771133,-0.145793,0.243877
273,0.027085,9.820993,0.040802,-0.029942,0.061893,0.085478,89.768433,-0.151222,0.245981
274,0.025968,9.821685,0.042829,-0.102687,0.061057,-0.031160,89.766220,-0.152119,0.248034
275,0.023346,9.812901,0.042077,-0.045116,0.067626,-0.183831,89.763748,-0.148527,0.250164
276,0.020810,9.814133,0.042149,-0.028369,0.060384,-0.292052,89.762512,-0.140587,0.252265
277,0.014931,9.814140,0.042524,-0.045127,0.073645,-0.550319,89.761284,-0.126539,0.254440
278,0.017991,9.816307,0.044383,-0.143649,0.072569,-0.244329,89.758133,-0.113284,0.256821
279,0.018440,9.817834,0.044990,-0.145493,0.081062,-0.086052,89.753319,-0.107767,0.259358
280,0.023945,9.826208,0.045795,-0.146703,0.077981,0.262798,89.748436,-0.110701,0.262022
281,0.026380,9.824039,0.045242,-0.076443,0.078872,0.362509,89.744720,-0.121111,0.264682
282,0.027715,9.818102,0.041543,0.151811,0.066261,0.344624,89.745972,-0.132886,0.267153
283,0.027262,9.815884,0.041901,0.127190,0.071502,0.203427,89.750618,-0.142010,0.269489
284,0.029818,9.811174,0.043886,-0.034296,0.068599,0.251656,89.752151,-0.149585,0.271857
285,0.026749,9.802941,0.040233,0.148749,0.066120,0.010692,89.754059,-0.153948,0.274121
286,0.024766,9.806289,0.041515,0.060307,0.063952,-0.132171,89.757530,-0.151914,0.276280
287,0.022245,9.806705,0.041348,0.036644,0.064521,-0.266568,89.759140,-0.145259,0.278393
288,0.024830,9.808051,0.043682,-0.104813,0.068592,-0.061594,89.758003,-0.139780,0.280589
289,0.020689,9.807368,0.040475,0.080772,0.070395,-0.242327,89.757599,-0.134705,0.282884
290,0.020398,9.812820,0.038650,0.202377,0.066966,-0.204795,89.762321,-0.127244,0.285142
291,0.023997,9.817339,0.042441,-0.051627,0.067945,0.059002,89.764832,-0.124805,0.287381
292,0.027626,9.821149,0.044789,-0.197065,0.073464,0.294995,89.760681,-0.130695,0.289762
293,0.023845,9.818507,0.043521,-0.089538,0.066695,0.026804,89.755898,-0.136048,0.292121
294,0.025482,9.825377,0.039558,0.171028,0.055220,0.067237,89.757240,-0.137607,0.294159
295,0.025519,9.820159,0.042221,0.004851,0.051080,0.052182,89.760170,-0.139590,0.295939
296,0.020885,9.813981,0.036969,0.265322,0.045497,-0.216671,89.764671,-0.136842,0.297537
297,0.019423,9.816046,0.036576,0.241784,0.036614,-0.270355,89.773117,-0.128719,0.298873
298,0.024168,9.815175,0.032446,0.390395,0.031878,0.066984,89.783646,-0.125325,0.300001
299,0.024106,9.817170,0.034851,0.164988,0.043004,0.098573,89.792900,-0.128080,0.301260
300,0.026424,9.827424,0.030170,0.327695,0.046847,0.191773,89.801109,-0.132914,0.302775
301,0.025319,9.827416,0.032078,0.150132,0.055285,0.081608,89.809067,-0.137464,0.304492
302,0.023381,9.820742,0.031696,0.103614,0.058979,-0.068077,89.813293,-0.137683,0.306398
303,0.020618,9.816764,0.036114,-0.192840,0.070851,-0.221308,89.811806,-0.132853,0.308546
304,0.020990,9.812026,0.039988,-0.382352,0.072610,-0.151187,89.802208,-0.126637,0.310916
305,0.018179,9.806046,0.041276,-0.361038,0.074396,-0.245932,89.789818,-0.120009,0.313342
306,0.021849,9.809374,0.041214,-0.237530,0.064003,0.018797,89.779839,-0.116215,0.315635
307,0.020823,9.813664,0.041668,-0.168444,0.057807,-0.008696,89.773064,-0.116376,0.317665
308,0.021609,9.820409,0.038655,0.064503,0.037328,0.034079,89.771332,-0.116792,0.319252
309,0.020208,9.817937,0.038514,0.074511,0.036075,-0.053352,89.773636,-0.116466,0.320474
310,0.020800,9.817142,0.039853,-0.035575,0.031551,-0.012761,89.774292,-0.115360,0.321597
311,0.018251,9.811387,0.039337,-0.022044,0.038125,-0.138407,89.773323,-0.112836,0.322749
312,0.021943,9.806555,0.037366,0.083228,0.050720,0.094042,89.774338,-0.112091,0.324226
313,0.018047,9.811019,0.037165,0.090244,0.053069,-0.115575,89.777222,-0.111725,0.325955
314,0.018544,9.808593,0.038384,-0.009934,0.047028,-0.073593,89.778564,-0.108566,0.327611
315,0.018880,9.810575,0.038024,0.013051,0.045299,-0.022095,89.778610,-0.106965,0.329143
316,0.018121,9.814164,0.037280,0.057715,0.045326,-0.052418,89.779778,-0.105717,0.330649
317,0.017860,9.812667,0.040291,-0.100978,0.039562,-0.047259,89.779053,-0.104051,0.332057
318,0.016063,9.802055,0.042331,-0.214328,0.040075,-0.114882,89.773796,-0.101343,0.333374
319,0.017291,9.800908,0.041391,-0.106386,0.042573,-0.037645,89.768448,-0.098796,0.334741
320,0.017282,9.799757,0.043202,-0.157933,0.045608,-0.007727,89.764038,-0.098033,0.336208
321,0.014246,9.800066,0.045677,-0.248880,0.046432,-0.178294,89.757263,-0.094927,0.337729
322,0.013285,9.809933,0.044432,-0.125021,0.041733,-0.218162,89.751030,-0.088313,0.339170
323,0.018802,9.811422,0.042721,0.034027,0.049048,0.141462,89.749504,-0.087028,0.340678
324,0.013890,9.815950,0.037922,0.309579,0.048228,-0.106975,89.755234,-0.087596,0.342301
325,0.014491,9.815730,0.038054,0.249358,0.046669,-0.086656,89.764542,-0.084362,0.343869
326,0.016701,9.817478,0.032547,0.462036,0.050306,0.077132,89.776398,-0.084197,0.345485
327,0.018463,9.816953,0.035713,0.172268,0.051894,0.179504,89.786964,-0.088467,0.347205
329,0.016225,9.817876,0.040491,-0.192799,0.056152,0.019345,89.786621,-0.091775,0.349018
330,0.020873,9.825318,0.043451,-0.339596,0.052528,0.241685,89.777740,-0.096118,0.350846
331,0.021894,9.829181,0.043703,-0.268294,0.049284,0.262620,89.767609,-0.104517,0.352576
332,0.024804,9.829395,0.049660,-0.509464,0.052424,0.339382,89.754639,-0.114543,0.354313
333,0.023518,9.829007,0.047710,-0.279952,0.057262,0.174510,89.741478,-0.123100,0.356179
334,0.022799,9.831652,0.045039,-0.010953,0.051115,0.051545,89.736633,-0.126859,0.358002
335,0.021462,9.825450,0.044064,0.076936,0.060548,-0.057436,89.737724,-0.126752,0.359863
336,0.019635,9.824099,0.038972,0.349851,0.066510,-0.165115,89.744827,-0.123034,0.361964
337,0.020718,9.827814,0.034886,0.521696,0.062699,-0.070220,89.759346,-0.119102,0.364100
338,0.021442,9.827248,0.035142,0.369423,0.068823,0.008823,89.774193,-0.118070,0.366288
339,0.026578,9.823595,0.031628,0.436132,0.061468,0.303651,89.787621,-0.123269,0.368480
340,0.024365,9.827511,0.031579,0.325774,0.066999,0.135690,89.800308,-0.130584,0.370647
341,0.020601,9.826425,0.036093,-0.054216,0.065766,-0.142141,89.804825,-0.130469,0.372860
342,0.020983,9.828908,0.040553,-0.348209,0.066342,-0.114080,89.798119,-0.126191,0.375047
343,0.017409,9.827328,0.040612,-0.285042,0.053009,-0.269683,89.787560,-0.119788,0.377012
344,0.016825,9.830143,0.045175,-0.447414,0.062384,-0.241473,89.775352,-0.111261,0.378903
345,0.017451,9.827021,0.046398,-0.406092,0.048076,-0.131613,89.761124,-0.105035,0.380719
346,0.016941,9.826795,0.048800,-0.393365,0.041815,-0.091545,89.747795,-0.101310,0.382201
347,0.016449,9.819913,0.048083,-0.222758,0.035367,-0.088871,89.737518,-0.098297,0.383474
348,0.021849,9.822670,0.044921,0.049256,0.031866,0.238723,89.734627,-0.100789,0.384606
349,0.017781,9.822936,0.044124,0.117882,0.025250,-0.010393,89.737411,-0.104591,0.385575
350,0.019543,9.818883,0.042236,0.201199,0.032451,0.048528,89.742729,-0.105222,0.386540
351,0.025861,9.815145,0.039949,0.275062,0.036875,0.387213,89.750671,-0.112479,0.387727
352,0.025722,9.823473,0.032938,0.579336,0.041204,0.307843,89.764900,-0.124058,0.389078
353,0.023290,9.816103,0.034236,0.367738,0.051790,0.061022,89.780685,-0.130199,0.390652
354,0.023620,9.812827,0.031116,0.391797,0.064093,0.013788,89.793343,-0.131439,0.392588
355,0.025596,9.807288,0.032610,0.183073,0.061162,0.112424,89.802917,-0.133535,0.394683
356,0.022852,9.812607,0.034838,-0.033548,0.060752,-0.065042,89.805397,-0.134318,0.396717
357,0.023239,9.804049,0.041493,-0.425323,0.058575,-0.043782,89.797752,-0.132497,0.398700
358,0.024905,9.810965,0.043918,-0.470289,0.064418,0.068085,89.782822,-0.132895,0.400751
359,0.023456,9.816435,0.047736,-0.532684,0.055714,-0.016803,89.766098,-0.133741,0.402756
360,0.020809,9.827083,0.046218,-0.286876,0.051198,-0.174396,89.752441,-0.130547,0.404525
361,0.020190,9.818700,0.047551,-0.230149,0.051097,-0.172810,89.743820,-0.124753,0.406205
362,0.017955,9.811063,0.043671,0.058832,0.056852,-0.245471,89.740959,-0.117774,0.407972
363,0.017363,9.804169,0.041506,0.199929,0.041150,-0.214392,89.745270,-0.110102,0.409572
364,0.020540,9.800847,0.040607,0.212687,0.047663,0.038303,89.752144,-0.107161,0.411039
365,0.023403,9.801371,0.041019,0.130769,0.053143,0.235862,89.757858,-0.111723,0.412739
366,0.023216,9.808104,0.039073,0.186020,0.053288,0.184314,89.763138,-0.118718,0.414542
367,0.024944,9.809559,0.042596,-0.054713,0.052154,0.204400,89.765320,-0.125190,0.416326
368,0.026710,9.813306,0.041053,0.003390,0.061042,0.240357,89.764458,-0.132595,0.418243
369,0.025771,9.813510,0.039469,0.100971,0.059798,0.117908,89.766197,-0.138557,0.420281
370,0.026552,9.812684,0.035869,0.279413,0.051780,0.101658,89.772530,-0.142209,0.422156
371,0.029787,9.815289,0.033392,0.367808,0.051017,0.249029,89.783310,-0.148047,0.423892
372,0.028949,9.821111,0.036015,0.139401,0.052068,0.153784,89.791763,-0.154755,0.425635
373,0.026611,9.819304,0.033566,0.208249,0.057221,-0.033129,89.797554,-0.156759,0.427463
374,0.029727,9.820518,0.032415,0.218780,0.050546,0.118828,89.804672,-0.158181,0.429264
375,0.028952,9.821110,0.035774,-0.034814,0.051456,0.068376,89.807732,-0.161295,0.430975
376,0.028027,9.820381,0.034071,0.021130,0.054608,-0.021512,89.807503,-0.162070,0.432745
377,0.030987,9.815657,0.032930,0.062826,0.052371,0.131436,89.808899,-0.163897,0.434534
378,0.030944,9.815101,0.036546,-0.157170,0.046949,0.114859,89.807320,-0.167996,0.436203
379,0.027080,9.811922,0.041786,-0.444220,0.044042,-0.142454,89.797302,-0.167531,0.437718
380,0.028417,9.810320,0.042055,-0.370390,0.051172,-0.080398,89.783707,-0.163811,0.439292
381,0.026818,9.805225,0.050111,-0.686739,0.043105,-0.126899,89.766090,-0.160350,0.440850
382,0.021660,9.809582,0.054467,-0.746040,0.038219,-0.367152,89.742203,-0.152110,0.442170
383,0.022332,9.806322,0.052559,-0.411243,0.039887,-0.264920,89.722916,-0.141569,0.443423
384,0.020843,9.811405,0.051074,-0.142583,0.045233,-0.246515,89.713676,-0.133038,0.444799
385,0.019552,9.811366,0.049123,0.061028,0.044731,-0.218785,89.712318,-0.125276,0.446260
386,0.020411,9.814377,0.044673,0.315472,0.063394,-0.093163,89.718590,-0.120068,0.448036
387,0.022237,9.814914,0.033617,0.863043,0.067615,0.059041,89.738228,-0.119489,0.450217
388,0.022588,9.823653,0.033966,0.649697,0.066445,0.096631,89.763435,-0.122074,0.452463
389,0.025799,9.818350,0.032589,0.493195,0.066183,0.258398,89.782478,-0.127982,0.454697
390,0.025734,9.820693,0.034873,0.184597,0.076296,0.195284,89.793770,-0.135535,0.457100
391,0.026488,9.819418,0.033684,0.156749,0.064318,0.160946,89.799454,-0.141463,0.459465
392,0.026655,9.819921,0.038386,-0.163954,0.066794,0.101603,89.799332,-0.145831,0.461665
393,0.026418,9.818413,0.039711,-0.238104,0.064134,0.041094,89.792633,-0.148202,0.463856
394,0.022993,9.816705,0.037724,-0.064592,0.069035,-0.174127,89.787582,-0.145977,0.466067
395,0.019549,9.811885,0.040324,-0.155768,0.063813,-0.352574,89.783905,-0.137190,0.468249
396,0.020008,9.813869,0.039725,-0.105425,0.060172,-0.243873,89.779533,-0.127241,0.470277
397,0.019249,9.810231,0.037671,0.061292,0.062667,-0.181913,89.778793,-0.120137,0.472297
398,0.020865,9.807343,0.036501,0.147936,0.064963,-0.024424,89.782272,-0.116690,0.474411
399,0.022438,9.812741,0.038566,0.001425,0.063288,0.105623,89.784767,-0.118035,0.476554
400,0.025815,9.815568,0.034283,0.208308,0.057621,0.293490,89.788261,-0.124680,0.478594
401,0.024041,9.811940,0.036187,0.073402,0.052418,0.143178,89.792946,-0.131951,0.480455
402,0.023044,9.815061,0.035801,0.038643,0.042252,0.015343,89.794807,-0.134587,0.482042
403,0.025370,9.817452,0.038489,-0.138292,0.040747,0.125051,89.793144,-0.136922,0.483434
404,0.024006,9.821379,0.037732,-0.081191,0.042491,0.011458,89.789490,-0.139192,0.484829
405,0.024851,9.819889,0.038836,-0.117109,0.045518,0.026250,89.786186,-0.139815,0.486298
406,0.024914,9.818125,0.036069,0.067315,0.052704,0.008814,89.785347,-0.140393,0.487938
407,0.027299,9.815172,0.039975,-0.145008,0.060369,0.139051,89.784042,-0.142851,0.489831
408,0.024342,9.816714,0.035579,0.105336,0.051284,-0.045430,89.783379,-0.144404,0.491698
409,0.023984,9.810983,0.032693,0.258419,0.046416,-0.077734,89.789436,-0.142345,0.493319
410,0.021417,9.806854,0.031812,0.252049,0.042315,-0.207723,89.797943,-0.137582,0.494781
411,0.019541,9.811250,0.032973,0.118341,0.056600,-0.267089,89.804115,-0.129663,0.496402
412,0.023459,9.815849,0.030986,0.176863,0.053946,0.024890,89.809029,-0.125620,0.498230
413,0.020330,9.813717,0.034067,-0.035028,0.065571,-0.122171,89.811386,-0.123992,0.500217
414,0.019772,9.817098,0.036219,-0.165381,0.067449,-0.139561,89.808044,-0.119623,0.502419
415,0.023060,9.819159,0.039046,-0.289916,0.071527,0.094664,89.800453,-0.118867,0.504733
416,0.026486,9.820520,0.041274,-0.345571,0.067872,0.297667,89.789864,-0.125397,0.507080
417,0.024368,9.816184,0.042812,-0.334275,0.066952,0.108161,89.778526,-0.132152,0.509352
418,0.028773,9.815243,0.045907,-0.390878,0.052682,0.303659,89.766434,-0.139008,0.511373
419,0.034842,9.809772,0.046029,-0.287292,0.046717,0.580750,89.755135,-0.153741,0.513091
420,0.031924,9.812395,0.046332,-0.189895,0.040099,0.281476,89.747169,-0.168105,0.514600
421,0.031947,9.805505,0.043094,0.056020,0.021653,0.141445,89.744942,-0.175149,0.515661
422,0.028003,9.809877,0.046387,-0.090691,0.020359,-0.131359,89.744354,-0.175314,0.516362
423,0.025341,9.807929,0.041522,0.182735,0.030866,-0.284932,89.745888,-0.168372,0.517184
424,0.025781,9.815877,0.044887,-0.011916,0.041745,-0.185049,89.748734,-0.160534,0.518360
425,0.021896,9.815884,0.039875,0.234377,0.037064,-0.333652,89.752441,-0.151883,0.519636
426,0.022120,9.816474,0.040360,0.167845,0.052085,-0.242184,89.759140,-0.142280,0.521081
427,0.024894,9.813683,0.033427,0.486591,0.053304,0.004775,89.770042,-0.138316,0.522821
428,0.023643,9.812531,0.038348,0.100696,0.054376,-0.037478,89.779823,-0.137764,0.524614
429,0.020479,9.803244,0.033972,0.247149,0.048567,-0.217348,89.785622,-0.133510,0.526314
430,0.022182,9.799796,0.035698,0.098677,0.052989,-0.072798,89.791382,-0.128668,0.527988
