seq,ax,ay,az,wroll,wpitch,wyaw,roll,pitch,yaw,q0,q1,q2,q3
60,-0.380289,-9.198348,-0.138554,-17.891817,4.755882,28.682390,-90.863029,2.367218,-110.036530,0.414302,-0.396473,0.591890,-0.566418
61,-1.216242,-7.753992,-6.004651,-6.712260,3.549208,30.571257,-92.928085,3.251250,-110.194595,0.410834,-0.398608,0.605485,-0.552915
62,-1.495001,-7.833527,-6.066038,-0.042256,3.655213,30.520641,-96.107956,4.755954,-110.565834,0.405726,-0.400436,0.626633,-0.531384
63,-1.491213,-7.920238,-6.043715,1.906213,2.223239,24.968937,-98.938805,6.122303,-111.005997,0.400979,-0.401254,0.645168,-0.511829
64,-1.636768,-8.135528,-5.620360,4.003163,3.971901,8.632609,-102.481979,7.193202,-111.593849,0.391682,-0.404996,0.665728,-0.489254
65,-1.866574,-8.056460,-5.178855,5.298445,9.489477,-5.709327,-105.523201,7.709335,-112.220490,0.381085,-0.409143,0.682061,-0.471349
66,-1.992251,-8.232866,-4.673650,10.861396,14.452297,-17.853338,-106.821678,7.611561,-112.710670,0.373887,-0.410938,0.688877,-0.465603
67,-1.956672,-8.486922,-4.433456,23.564857,14.051162,-30.198870,-107.390366,7.092205,-113.087303,0.367376,-0.412878,0.691251,-0.465551
68,-1.955039,-8.940786,-4.434537,35.036568,14.699673,-35.682449,-107.317726,6.274099,-113.335068,0.361968,-0.414863,0.689806,-0.470144
69,-1.857968,-9.048836,-5.015153,38.112392,17.136528,-28.758739,-107.048553,5.463415,-113.632935,0.357077,-0.415895,0.687718,-0.475994
70,-1.717622,-9.331059,-5.505888,32.030033,14.138113,-21.708462,-107.035530,4.860560,-114.000023,0.352131,-0.416374,0.687451,-0.479634
71,-1.505529,-9.219924,-5.876218,20.589214,11.077211,-16.501709,-107.479622,4.440704,-114.330666,0.346704,-0.417629,0.689434,-0.479650
72,-1.186215,-8.717283,-5.952936,3.115588,13.721859,-10.634593,-108.558289,4.124263,-114.704948,0.339356,-0.420007,0.694490,-0.475515
73,-1.039195,-8.070827,-6.282796,-11.914443,13.975474,-5.536830,-110.354942,3.899576,-115.176376,0.329479,-0.423360,0.703052,-0.466829
74,-0.912891,-7.724104,-5.920167,-18.735067,9.838986,-1.307450,-112.525963,3.805894,-115.624344,0.319057,-0.427136,0.713221,-0.455054
75,-0.776097,-7.633500,-5.986944,-15.054917,6.506640,1.456789,-114.581200,3.811293,-115.978729,0.310010,-0.430534,0.722614,-0.443129
76,-0.728249,-7.454711,-6.014450,-11.375633,3.416934,3.419683,-116.387329,3.881755,-116.255470,0.302580,-0.433319,0.730714,-0.432130
77,-0.708272,-7.249949,-5.995525,-7.321926,0.315013,5.136811,-117.955551,4.031611,-116.461151,0.296803,-0.435504,0.737665,-0.422012
78,-0.687422,-7.232543,-5.756473,-1.898550,-0.731504,6.753133,-119.196426,4.244226,-116.625130,0.292821,-0.436801,0.743262,-0.413549
79,-0.765369,-7.265174,-5.986163,4.485345,-1.941327,5.311479,-120.108192,4.474703,-116.754845,0.290337,-0.437383,0.747495,-0.407003
80,-0.791277,-7.323397,-6.020358,7.779548,-2.343952,2.130286,-120.797874,4.654712,-116.824455,0.288601,-0.437977,0.750558,-0.401931
81,-0.695837,-7.724301,-5.925748,9.101480,-1.762095,-1.737858,-121.549843,4.661967,-116.852036,0.285672,-0.439653,0.753299,-0.397035
82,-0.637258,-8.205916,-5.771247,7.182236,-0.618612,-7.232987,-122.045830,4.459141,-116.801544,0.282640,-0.441980,0.754420,-0.394486
83,-0.423250,-8.442614,-5.330594,2.836984,0.337085,-13.936984,-122.038429,4.022426,-116.624100,0.280480,-0.444764,0.752845,-0.395905
84,-0.121284,-8.746973,-4.768648,-0.120983,0.623095,-21.735624,-121.826355,3.264253,-116.312965,0.277525,-0.449113,0.749362,-0.399668
85,0.095973,-8.817575,-4.385079,-1.185406,0.155461,-25.864838,-121.424278,2.255392,-115.884430,0.274151,-0.454678,0.744145,-0.405410
86,0.399210,-8.765658,-4.075671,-0.848271,-1.067349,-25.851439,-120.901619,1.140298,-115.402718,0.270821,-0.460662,0.737918,-0.412218
87,0.483898,-8.769910,-3.981579,0.258205,-3.170569,-22.294874,-120.313980,0.091052,-114.920013,0.268248,-0.466227,0.731438,-0.419135
88,0.624039,-8.641832,-3.854976,2.770003,-5.400498,-15.675594,-119.683502,-0.746146,-114.477783,0.267122,-0.470631,0.725321,-0.425515
89,0.707011,-8.568842,-3.998003,3.715750,-7.273401,-6.185931,-119.082123,-1.298781,-114.121437,0.267421,-0.473500,0.720255,-0.430717
90,0.757032,-8.401514,-3.921207,3.029732,-8.503942,1.213323,-118.577461,-1.560814,-113.861420,0.268832,-0.474912,0.716619,-0.434332
91,0.673377,-8.294741,-3.850673,3.513850,-9.189839,6.989180,-118.120148,-1.576492,-113.678230,0.271326,-0.475035,0.714082,-0.436819
92,0.727416,-8.174660,-4.055067,5.312737,-10.509067,10.915690,-117.729530,-1.417259,-113.536690,0.274485,-0.474395,0.712409,-0.438269
93,0.529085,-8.407166,-4.363115,5.211009,-11.762806,14.351029,-117.463882,-1.090232,-113.406868,0.278130,-0.473340,0.711690,-0.438281
94,0.165915,-8.659208,-4.684833,5.633528,-12.623239,18.641563,-117.314308,-0.490856,-113.299164,0.282902,-0.471389,0.712194,-0.436508
95,-0.210887,-8.870893,-4.955678,6.784895,-13.371155,22.526968,-117.236748,0.400184,-113.227142,0.289040,-0.468265,0.713832,-0.433160
96,-0.621813,-9.011225,-5.079333,6.582462,-13.911873,24.989334,-117.198387,1.528563,-113.184891,0.296348,-0.464110,0.716280,-0.428629
97,-1.234991,-9.070756,-4.958249,5.673633,-13.456560,26.440817,-117.159492,2.880423,-113.172989,0.304887,-0.458844,0.719311,-0.423199
98,-1.916953,-9.024738,-4.782866,6.042356,-12.640133,25.477808,-117.065651,4.444580,-113.182983,0.314814,-0.452382,0.722615,-0.417218
99,-2.257055,-8.721281,-4.625982,6.345615,-11.537176,20.209335,-116.931610,6.044912,-113.172668,0.325122,-0.445688,0.725649,-0.411207
100,-2.539737,-8.576076,-4.523238,4.350806,-9.480598,14.045352,-116.825424,7.491648,-113.123466,0.334455,-0.439840,0.728184,-0.405498
101,-2.925237,-8.312691,-4.516266,2.959677,-6.212051,7.126982,-116.881630,9.202904,-113.072449,0.344694,-0.433314,0.731712,-0.397520
102,-3.090397,-8.070623,-4.616590,1.158458,-2.425609,0.508421,-117.206642,11.104519,-113.068108,0.354826,-0.426443,0.736524,-0.387011
103,-2.906055,-7.991917,-4.531849,-1.005680,2.193904,-4.919734,-117.559135,12.174807,-113.101067,0.359762,-0.422855,0.739812,-0.380056
104,-2.899858,-7.928954,-4.447532,-2.018321,6.978004,-8.440352,-117.799477,12.454412,-113.173813,0.360293,-0.421969,0.741380,-0.377474
105,-2.876301,-7.894727,-4.443690,-0.499267,10.773416,-10.731378,-118.014381,12.522551,-113.322075,0.359419,-0.421399,0.742753,-0.376242
106,-2.618211,-7.999237,-4.500702,-0.051329,12.747097,-10.889638,-118.194092,12.412170,-113.532341,0.357411,-0.421058,0.743921,-0.376229
107,-2.227470,-8.132529,-4.542346,-0.015258,13.959793,-9.847920,-118.350975,12.100297,-113.789734,0.354126,-0.421172,0.744832,-0.377405
108,-1.918401,-8.209629,-4.782866,-0.583588,14.593141,-9.060394,-118.548386,11.612930,-114.091820,0.349478,-0.421833,0.745732,-0.379218
110,-1.428339,-8.282184,-4.949980,-3.705114,15.716869,-10.512296,-118.869583,10.907039,-114.422661,0.342932,-0.423556,0.746758,-0.381247
111,-0.833517,-8.339211,-4.961227,-9.426828,17.118948,-11.840237,-119.336296,9.895148,-114.759933,0.333915,-0.426858,0.747740,-0.383638
112,-0.333445,-8.411933,-4.842327,-12.361789,18.896915,-13.381346,-119.863831,8.596737,-115.094193,0.322834,-0.431401,0.748375,-0.386789
113,0.126120,-8.431809,-4.947937,-12.426157,19.614740,-14.387594,-120.372650,7.086432,-115.421982,0.310412,-0.436627,0.748489,-0.390851
114,0.585231,-8.323101,-4.851894,-11.313858,19.272379,-13.993598,-120.820992,5.442388,-115.736694,0.297291,-0.442130,0.748028,-0.395720
115,0.844095,-8.293999,-4.842444,-7.863573,17.013603,-11.165989,-121.133553,3.813735,-116.031204,0.284730,-0.447196,0.746968,-0.401228
116,0.859343,-8.441162,-4.960640,-3.731060,13.800927,-8.519585,-121.284798,2.387371,-116.293030,0.274100,-0.451199,0.745547,-0.406754
117,0.877451,-8.328367,-5.160006,-3.248820,9.562484,-6.458492,-121.398582,1.225803,-116.493248,0.265468,-0.454458,0.744246,-0.411208
118,1.013505,-8.354486,-4.834771,-4.348802,5.981518,-4.265821,-121.488312,0.265190,-116.619164,0.258451,-0.457358,0.742956,-0.414781
119,1.005734,-8.437871,-4.888944,-4.938654,2.954288,-3.029621,-121.517952,-0.527722,-116.680573,0.252969,-0.459900,0.741528,-0.417893
120,0.983465,-8.449685,-4.768095,-6.691076,0.579915,-2.299603,-121.552887,-1.156474,-116.684547,0.248728,-0.462213,0.740235,-0.420172
121,1.077735,-8.349896,-4.718296,-6.754129,-1.664862,-1.271833,-121.588226,-1.679041,-116.640457,0.245346,-0.464442,0.738977,-0.421915
122,1.087021,-8.482672,-4.674076,-5.957926,-3.352730,0.229095,-121.583298,-2.106989,-116.565506,0.242854,-0.466437,0.737651,-0.423474
123,0.927112,-8.463991,-4.897902,-5.309876,-5.030168,1.564114,-121.580902,-2.376364,-116.468376,0.241466,-0.468011,0.736608,-0.424345
124,0.761455,-8.337681,-4.906142,-4.231917,-6.654546,2.982080,-121.624870,-2.458721,-116.346626,0.241200,-0.469176,0.736077,-0.424130
125,0.538133,-8.270720,-4.922642,-2.118020,-7.848952,5.960088,-121.645805,-2.336398,-116.222572,0.242370,-0.469586,0.735938,-0.423251
126,0.287022,-8.173324,-5.005390,-0.964165,-8.306705,9.037859,-121.653793,-1.987864,-116.126419,0.244961,-0.468989,0.736400,-0.421615
127,0.041623,-8.110819,-5.049994,0.529694,-8.610673,11.087678,-121.667061,-1.446246,-116.062378,0.248661,-0.467507,0.737458,-0.419238
128,-0.316433,-8.102020,-5.144840,3.015175,-8.489270,11.531272,-121.654724,-0.743396,-116.016380,0.253437,-0.465268,0.738853,-0.416404
129,-0.594520,-8.108010,-5.276881,4.433749,-8.299535,11.648853,-121.629181,0.080069,-115.978973,0.259001,-0.462491,0.740481,-0.413169
130,-0.746071,-8.175157,-5.548556,4.641819,-8.395258,9.795131,-121.657463,0.919409,-115.928963,0.264481,-0.459837,0.742251,-0.409468
131,-0.998987,-8.200372,-5.618398,4.007242,-7.995117,6.488858,-121.753014,1.708588,-115.841980,0.269485,-0.457744,0.743964,-0.405421
132,-1.343471,-8.051284,-5.591617,3.792954,-6.648385,5.157314,-122.019882,2.780803,-115.749687,0.275626,-0.455045,0.746812,-0.399044
133,-1.600663,-8.017469,-5.561537,3.048512,-4.912068,6.662711,-122.424805,4.205891,-115.718872,0.283250,-0.450972,0.750998,-0.390378
134,-1.698146,-8.058142,-5.501755,2.478592,-3.006269,7.427847,-122.753822,5.591352,-115.766121,0.290643,-0.446331,0.754994,-0.382490
135,-1.876431,-7.913778,-5.354578,2.776091,-0.389152,7.083189,-122.968231,6.849038,-115.879295,0.297441,-0.441416,0.758484,-0.376010
136,-1.792338,-7.917005,-5.295926,3.374735,1.714193,6.553089,-123.078438,7.881538,-116.045845,0.303030,-0.436694,0.761324,-0.371292
137,-1.625681,-8.032625,-5.309865,2.629593,2.890990,3.692439,-123.092293,8.409534,-116.216743,0.305771,-0.433584,0.762932,-0.369384
138,-1.370607,-8.041063,-5.231831,0.923535,3.606501,-2.078365,-123.062256,8.425441,-116.325058,0.305636,-0.432721,0.763271,-0.369805
139,-1.230669,-8.054552,-5.212872,-1.276792,4.101122,-6.442867,-123.061584,8.159660,-116.353935,0.303860,-0.433542,0.762922,-0.371026
140,-0.833680,-8.283441,-5.261772,-5.009010,4.194782,-9.689451,-123.125648,7.656454,-116.317345,0.300539,-0.435868,0.762116,-0.372658
141,-0.641334,-8.320969,-5.194689,-7.724716,3.904265,-12.158415,-123.244354,6.947279,-116.218506,0.295894,-0.439512,0.760869,-0.374639
142,-0.305765,-8.366512,-5.100528,-9.060678,3.102788,-12.824141,-123.369530,6.119963,-116.068237,0.290623,-0.443925,0.759198,-0.376945
143,0.061434,-8.369784,-5.107475,-8.759114,1.825565,-11.264079,-123.473892,5.207557,-115.893852,0.284953,-0.448721,0.757159,-0.379686
144,0.299291,-8.310608,-5.083535,-7.506861,0.629479,-8.895642,-123.548645,4.290364,-115.722954,0.279343,-0.453394,0.754972,-0.382648
145,0.344845,-8.162941,-4.993279,-4.875142,-1.036595,-5.471231,-123.556763,3.485708,-115.568665,0.274654,-0.457349,0.752796,-0.385610
146,0.512030,-8.130969,-5.022614,-2.547122,-2.328857,-2.281715,-123.493027,2.818870,-115.438454,0.271055,-0.460455,0.750710,-0.388517
147,0.625132,-8.008419,-5.184370,-1.461585,-3.083938,-0.418256,-123.444283,2.231131,-115.332527,0.267823,-0.463139,0.748904,-0.391046
148,0.507488,-7.928456,-5.363829,-3.579584,-3.546191,0.680999,-123.527939,1.754405,-115.242325,0.264716,-0.465620,0.747824,-0.392280
149,0.561289,-8.006671,-5.531012,-6.810403,-4.216165,0.889436,-123.778320,1.375529,-115.150177,0.261562,-0.468135,0.747503,-0.392014
150,0.631001,-8.089309,-5.725612,-8.828331,-3.933985,1.223055,-124.156883,1.019548,-115.057724,0.258021,-0.470843,0.747658,-0.390819
151,0.491815,-8.113867,-5.998728,-10.060708,-3.258279,3.354481,-124.646133,0.746098,-115.002144,0.254418,-0.473248,0.748509,-0.388642
152,0.031205,-8.059478,-6.100843,-10.112262,-2.239807,9.301572,-125.202644,0.754847,-115.048355,0.252019,-0.474145,0.750597,-0.385067
153,-0.411418,-8.060911,-5.959568,-7.299394,-0.279082,16.125652,-125.668289,1.155475,-115.261353,0.251999,-0.472404,0.753871,-0.380801
154,-0.939101,-7.958512,-5.866593,-3.134116,1.940293,20.275843,-125.943794,1.900206,-115.640968,0.254484,-0.467965,0.757854,-0.376701
155,-1.472607,-7.789663,-5.673379,-0.483795,3.633984,21.742970,-126.063416,2.918232,-116.130020,0.259062,-0.461484,0.762228,-0.372731
156,-2.036484,-7.746669,-5.521152,1.609887,4.742517,19.754847,-126.056038,4.123881,-116.649979,0.265297,-0.453793,0.766549,-0.368905
157,-2.168986,-7.729797,-5.424302,3.073635,5.595905,14.336840,-125.946114,5.302861,-117.119164,0.271929,-0.446216,0.770160,-0.365785
158,-2.094608,-7.612080,-5.538187,2.455832,5.659624,8.260716,-125.856018,6.562257,-117.489548,0.279315,-0.438978,0.773469,-0.361976
159,-2.318072,-7.465233,-5.462690,0.981662,6.721515,4.160425,-125.858559,7.614029,-117.782158,0.285230,-0.433178,0.776317,-0.358236
160,-2.392652,-7.434920,-5.619924,0.066962,7.798863,2.214603,-126.002670,8.521558,-118.060646,0.289722,-0.428316,0.779238,-0.354111
161,-2.267128,-7.506467,-5.660017,-0.466662,8.787375,2.570434,-126.254845,9.504464,-118.366768,0.294231,-0.423240,0.782622,-0.348996
162,-2.208284,-7.526382,-5.690113,0.619109,9.743722,2.870826,-126.434128,10.023634,-118.696716,0.295944,-0.419518,0.785125,-0.346411
163,-2.059783,-7.693009,-5.742702,2.576597,10.455515,1.137035,-126.487564,10.141027,-119.021385,0.295531,-0.416993,0.786636,-0.346384
164,-1.494424,-7.951916,-5.902712,3.086159,9.825245,-3.956387,-126.454712,9.926517,-119.272331,0.293492,-0.415983,0.787149,-0.348162
165,-1.039619,-8.115045,-5.824068,1.465795,9.011200,-10.552567,-126.365158,9.291698,-119.377708,0.289348,-0.417389,0.786360,-0.351714
166,-0.605019,-8.047858,-5.588349,1.287846,9.433719,-16.813927,-126.205734,8.296422,-119.338036,0.283537,-0.420939,0.784259,-0.356867
167,-0.153741,-8.169478,-5.556379,0.119869,9.205136,-20.333914,-126.001930,7.011715,-119.199959,0.276292,-0.426096,0.781121,-0.363255
168,0.152540,-8.201978,-5.464105,-1.989417,8.908185,-20.215002,-125.817589,5.588632,-119.023132,0.268184,-0.432029,0.777537,-0.369953
169,0.415907,-8.130626,-5.348390,-3.146399,9.160658,-15.535229,-125.673439,4.201835,-118.896889,0.259992,-0.437534,0.774185,-0.376305
170,0.590790,-8.078981,-5.314006,-2.548565,9.165915,-8.462752,-125.548866,2.980469,-118.895073,0.252393,-0.441612,0.771547,-0.382090
171,0.786481,-8.084774,-5.329241,-4.142037,7.993118,-3.012240,-125.460472,1.958831,-119.005333,0.245583,-0.444280,0.769751,-0.387024
172,0.963173,-8.093321,-5.269258,-5.651573,7.128564,-0.175621,-125.420853,1.071425,-119.171715,0.239264,-0.446185,0.768542,-0.391171
173,1.018357,-8.080213,-5.242741,-4.814164,6.543191,0.706400,-125.377129,0.272133,-119.357208,0.233460,-0.447630,0.767530,-0.394996
174,0.964683,-8.117775,-5.292431,-3.654814,5.304490,0.963143,-125.303070,-0.416719,-119.532501,0.228530,-0.448689,0.766564,-0.398536
175,0.981509,-8.177411,-5.312352,-3.103773,3.709250,0.810222,-125.100807,-1.239638,-119.675079,0.223302,-0.450171,0.764714,-0.403355
176,1.004676,-8.114808,-5.445835,-2.149840,1.696388,1.863636,-124.863243,-2.166560,-119.782288,0.217625,-0.452177,0.762326,-0.408698
177,0.948864,-8.120231,-5.520703,-3.352857,-0.574933,3.209302,-124.779739,-2.838955,-119.852722,0.213175,-0.453846,0.760845,-0.411941
178,0.926390,-8.163907,-5.361704,-5.775333,-3.224115,4.724185,-124.803207,-3.119658,-119.882027,0.211084,-0.454648,0.760429,-0.412901
179,0.860596,-8.140027,-5.412601,-5.577826,-5.378052,6.485726,-124.871162,-3.090265,-119.877121,0.211030,-0.454706,0.760719,-0.412330
180,0.726900,-8.001009,-5.421858,-4.071257,-6.882148,7.550197,-124.945511,-2.924630,-119.847939,0.211957,-0.454476,0.761234,-0.411155
181,0.388053,-8.144320,-5.502263,-2.859261,-7.533622,9.143162,-124.987228,-2.584048,-119.814301,0.214209,-0.453621,0.761993,-0.409523
182,-0.079751,-8.075094,-5.542363,1.460989,-7.645532,9.558983,-124.946289,-2.013490,-119.788704,0.218305,-0.451769,0.762976,-0.407573
183,-0.460770,-7.918465,-5.755580,6.371282,-7.979297,8.910525,-124.841621,-1.256782,-119.750008,0.223939,-0.449224,0.764057,-0.405296
184,-0.890705,-7.770495,-5.840004,8.964571,-8.803387,8.055236,-124.730972,-0.352594,-119.676918,0.230689,-0.446355,0.765260,-0.402401
185,-1.273346,-7.697312,-5.930505,9.238004,-9.638590,6.520025,-124.653381,0.676104,-119.558609,0.238273,-0.443380,0.766615,-0.398673
186,-1.486437,-7.460780,-5.924198,9.077656,-10.731893,4.036051,-124.647186,1.745262,-119.380180,0.246027,-0.440776,0.768014,-0.394134
187,-1.677077,-7.353991,-5.909349,7.587924,-11.228600,2.086279,-124.718575,2.792503,-119.145454,0.253496,-0.438765,0.769363,-0.388980
188,-1.830807,-7.353706,-5.914549,6.081343,-11.037086,1.406097,-124.846245,3.807052,-118.889603,0.260568,-0.437122,0.770702,-0.383467
189,-1.756665,-7.450456,-5.804406,4.620802,-10.199867,-0.113664,-124.970558,4.709403,-118.630829,0.266890,-0.435886,0.771760,-0.378365
190,-1.791273,-7.643924,-5.680585,4.422801,-8.999179,-1.963494,-125.008453,5.444375,-118.363930,0.272440,-0.435101,0.772167,-0.374462
191,-1.617681,-7.738878,-5.551892,4.826609,-8.675570,-4.010711,-124.928406,5.995618,-118.072563,0.277292,-0.434858,0.771757,-0.372020
192,-1.381664,-7.885345,-5.471713,3.611856,-9.122046,-5.838981,-124.773087,6.323094,-117.734550,0.281108,-0.435552,0.770534,-0.370876
193,-1.092136,-8.146287,-5.313897,1.146412,-9.201761,-7.633029,-124.567902,6.416714,-117.343582,0.283762,-0.437328,0.768543,-0.370898
194,-0.832208,-8.203492,-5.148297,-0.592126,-9.342040,-7.357193,-124.325928,6.320628,-116.923988,0.285427,-0.439890,0.765985,-0.371881
195,-0.469355,-8.255206,-5.147016,-1.523267,-9.767169,-5.360874,-124.097275,6.092830,-116.515213,0.286170,-0.442888,0.763260,-0.373350
196,-0.260056,-8.449578,-5.070826,-2.532061,-9.213768,-2.460326,-123.876572,5.789442,-116.152184,0.286262,-0.445870,0.760580,-0.375197
197,-0.194450,-8.446914,-5.204001,-1.841009,-8.124609,-0.196317,-123.676460,5.490372,-115.861969,0.286078,-0.448395,0.758236,-0.377068
198,-0.296843,-8.223175,-5.436179,-2.322592,-6.583831,1.359869,-123.615120,5.256394,-115.657402,0.285494,-0.450455,0.756791,-0.377957
199,-0.516516,-8.285070,-5.753447,-5.557792,-5.252363,3.182095,-123.779144,5.149951,-115.538445,0.284558,-0.452038,0.756661,-0.377031
200,-0.645888,-8.217354,-5.819577,-6.977571,-3.988319,3.219486,-124.105362,5.150288,-115.480247,0.283462,-0.453230,0.757502,-0.374730
201,-0.871745,-7.935680,-6.033645,-6.754418,-2.486496,1.807727,-124.544411,5.205887,-115.456696,0.282158,-0.454268,0.758942,-0.371529
202,-1.059240,-7.837046,-5.927258,-7.338732,-0.988046,0.968706,-125.038239,5.313747,-115.459053,0.280884,-0.455077,0.760745,-0.367799
203,-1.195704,-7.904285,-5.915961,-5.647552,-0.490877,1.393491,-125.453041,5.476665,-115.480515,0.280218,-0.455365,0.762454,-0.364395
204,-1.220548,-7.721583,-5.781875,-2.128359,0.268388,0.059402,-125.790359,5.730584,-115.512253,0.280416,-0.455073,0.764106,-0.361134
205,-1.255976,-7.667022,-5.635873,-1.454838,1.361524,-0.375528,-126.025948,6.033342,-115.549576,0.281319,-0.454322,0.765532,-0.358347
206,-1.246102,-7.748111,-5.574531,-1.332881,1.905353,0.370424,-126.098831,6.293894,-115.596565,0.282566,-0.453258,0.766402,-0.356850
207,-1.153021,-7.718815,-5.736191,-0.238905,2.501427,1.344759,-126.154350,6.452240,-115.675804,0.283123,-0.452299,0.767163,-0.355990
208,-1.000392,-7.617258,-5.439271,-0.460266,3.123905,2.138394,-126.197304,6.477435,-115.788544,0.282766,-0.451560,0.767784,-0.355871
209,-0.897454,-7.600661,-5.359718,0.165768,3.206462,2.699643,-126.142296,6.419991,-115.913742,0.282222,-0.450791,0.768007,-0.356797
210,-0.902867,-7.469395,-5.481830,1.754472,2.820652,1.919513,-126.084312,6.339628,-116.036606,0.281547,-0.450112,0.768170,-0.357833
211,-0.872644,-7.614928,-5.404785,1.920943,2.291416,0.202463,-126.006035,6.233084,-116.123978,0.280891,-0.449716,0.768084,-0.359030
213,-0.732300,-7.744359,-5.272517,2.431216,1.408256,-1.293541,-125.823967,6.055654,-116.151337,0.280371,-0.449722,0.767311,-0.361077
214,-0.741851,-7.981707,-5.540013,2.827391,0.984717,-3.467560,-125.556808,5.732471,-116.119141,0.279430,-0.450444,0.765768,-0.364167
215,-0.738347,-8.157063,-5.578945,2.347840,1.283098,-4.965837,-125.259445,5.307534,-116.048508,0.278077,-0.451717,0.763776,-0.367792
216,-0.676597,-8.339627,-5.609694,1.820789,1.865037,-4.097002,-125.016006,4.953395,-115.988892,0.276940,-0.452796,0.762107,-0.370774
217,-0.651109,-8.223138,-5.749285,1.461016,2.837413,-2.376327,-124.897827,4.696505,-115.985847,0.275756,-0.453453,0.761234,-0.372642
218,-0.788222,-8.058493,-5.728780,-0.976127,3.602135,-0.240332,-124.939163,4.529764,-116.052750,0.274295,-0.453706,0.761321,-0.373234
219,-0.780934,-7.952346,-5.697323,-2.829192,3.887552,2.309475,-125.121384,4.476818,-116.183777,0.272804,-0.453459,0.762334,-0.372559
220,-0.730378,-7.905934,-5.519858,-2.689046,3.693807,3.012892,-125.269547,4.466346,-116.342079,0.271636,-0.452794,0.763421,-0.371993
221,-0.638514,-7.686785,-5.470140,-0.012517,3.324656,2.707524,-125.315704,4.436098,-116.492218,0.270770,-0.452011,0.764108,-0.372168
222,-0.664252,-7.505636,-5.373181,2.914097,2.891433,1.370631,-125.297516,4.389782,-116.618004,0.270131,-0.451294,0.764459,-0.372781
223,-0.626542,-7.540724,-5.300234,7.145466,2.201834,-0.341623,-125.139908,4.317233,-116.697853,0.270019,-0.450649,0.764125,-0.374324
224,-0.598799,-7.391684,-5.180781,13.398785,1.794555,-2.119539,-124.785675,4.198615,-116.728165,0.270540,-0.450036,0.762860,-0.377253
225,-0.623679,-7.363355,-5.392298,17.806856,1.567328,-2.467602,-124.326157,4.066815,-116.735687,0.271462,-0.449374,0.761121,-0.380876
226,-0.715343,-7.656684,-5.347607,19.132380,1.176718,-2.499620,-123.803192,3.973858,-116.734055,0.272914,-0.448479,0.759189,-0.384728
227,-0.692869,-8.052518,-5.260719,20.855158,0.711246,-2.116518,-123.133720,3.913447,-116.717590,0.275195,-0.447208,0.756746,-0.389368
228,-0.679888,-8.275143,-5.244058,21.610846,0.242739,-1.893704,-122.359482,3.857911,-116.690178,0.277948,-0.445725,0.753882,-0.394635
229,-0.624881,-8.781869,-5.194039,19.189831,-0.100591,-1.872426,-121.561546,3.789831,-116.651138,0.280745,-0.444291,0.750827,-0.400059
230,-0.679558,-9.053659,-5.081728,15.659837,-0.643825,-1.405611,-120.794266,3.731352,-116.600197,0.283521,-0.442955,0.747814,-0.405191
231,-0.725821,-9.163313,-5.108581,9.549480,-1.585399,-0.696049,-120.191704,3.728412,-116.538589,0.286047,-0.441870,0.745430,-0.408976
232,-0.644964,-9.169081,-4.953580,1.115028,-1.956254,0.025694,-119.851433,3.750195,-116.471428,0.287737,-0.441372,0.743999,-0.410931
233,-0.546750,-9.060027,-4.989047,-4.774341,-1.589958,-0.072185,-119.779610,3.737255,-116.411285,0.288148,-0.441631,0.743483,-0.411299
234,-0.589787,-8.369854,-5.000475,-9.231585,-2.322277,-0.430994,-120.012047,3.716750,-116.350571,0.287338,-0.442688,0.744038,-0.409722
235,-0.580923,-7.588274,-4.557363,-11.894835,-3.575004,-0.972732,-120.451897,3.735202,-116.259644,0.286077,-0.444308,0.745291,-0.406560
236,-0.497575,-6.799227,-4.030854,-6.153074,-4.258589,-0.901024,-120.798599,3.770448,-116.134605,0.285397,-0.445853,0.746105,-0.403846
237,-0.526435,-6.100919,-3.711385,5.564327,-5.372545,-0.769721,-120.831467,3.843001,-115.984276,0.286259,-0.446639,0.745785,-0.402957
238,-0.536278,-5.730940,-3.007367,21.791672,-6.892576,-0.478003,-120.242500,3.990447,-115.788757,0.290177,-0.445867,0.743251,-0.405681
239,-0.411877,-5.783655,-2.286673,43.630592,-7.285008,-0.563398,-118.597160,4.124506,-115.535614,0.298307,-0.442758,0.736661,-0.415101
240,-0.423691,-6.286692,-1.903962,68.496025,-6.780180,-1.097758,-115.782455,4.180941,-115.248123,0.310524,-0.436890,0.725277,-0.432060
241,-0.593080,-7.567486,-1.587971,88.437042,-6.423518,-1.975377,-111.986824,4.216995,-114.941963,0.326255,-0.428110,0.709515,-0.454827
242,-0.854907,-9.333930,-1.115148,100.257919,-5.720687,-3.055609,-107.513016,4.265697,-114.623428,0.344339,-0.416751,0.690190,-0.481026
243,-1.168341,-11.893501,-1.393347,98.260773,-4.601311,-4.895447,-103.017456,4.289999,-114.327667,0.361865,-0.404541,0.669817,-0.506700
244,-1.666821,-14.405583,-1.850225,72.560623,-2.923319,-6.255773,-99.410858,4.294509,-114.102028,0.375479,-0.394218,0.652778,-0.526772
245,-2.082244,-16.655752,-2.850998,26.764368,-0.846872,-7.650790,-97.503120,4.302059,-113.977165,0.382616,-0.388576,0.643517,-0.537121
246,-2.212373,-18.205872,-3.813040,-39.692356,0.869687,-8.655072,-97.926712,4.272037,-113.953491,0.381125,-0.390269,0.645330,-0.534773
247,-2.348938,-18.460428,-4.655790,-108.555397,2.801525,-8.879575,-100.879021,4.214717,-114.009026,0.370377,-0.399914,0.658925,-0.518371
248,-1.760256,-14.705358,-4.258617,-169.703583,6.897109,-7.350820,-106.042030,4.146689,-114.158821,0.350960,-0.415607,0.681968,-0.488894
249,-0.491400,-10.589259,-4.344609,-212.378952,11.649047,-5.084591,-112.934105,3.876831,-114.430519,0.322658,-0.435397,0.710507,-0.448889
250,-0.635893,-7.318903,-4.243272,-238.562592,12.200196,-2.312202,-121.046051,3.529526,-114.761475,0.287709,-0.456289,0.741063,-0.399811
251,0.171186,-3.640315,-2.223491,-233.727264,17.070246,-0.888081,-129.235367,2.959534,-115.130646,0.249519,-0.475059,0.768213,-0.349153
252,0.827670,-0.055109,-1.635022,-229.754303,18.159153,0.108185,-138.695755,1.028625,-115.482155,0.195344,-0.496750,0.792961,-0.293758
253,0.408595,0.063123,-2.163954,-213.761993,17.978455,3.235666,-149.508850,-1.172976,-115.652161,0.131656,-0.516003,0.815172,-0.227823
254,-0.338276,0.438206,-2.375280,-205.116669,12.705108,0.529409,-159.852798,-1.686999,-115.784218,0.080681,-0.525446,0.832532,-0.155848
255,0.376816,2.274423,-3.235410,-179.676086,7.979778,-1.855365,-170.028366,-1.814372,-115.803123,0.032814,-0.530464,0.843094,-0.081996
256,0.126021,3.074140,-5.506427,-155.230133,2.504049,0.647698,-179.340866,-2.163832,-115.658157,-0.012920,-0.532435,0.846241,-0.014921
257,0.040313,3.177954,-6.925211,-118.958786,0.115446,0.030727,173.353577,-2.102528,-115.571251,-0.046394,-0.531203,0.845061,0.039272
258,0.348885,3.841383,-7.892409,-92.418541,-2.526255,-3.914181,167.857529,-1.982325,-115.450150,-0.071012,-0.529361,0.841604,0.080225
259,0.261672,3.983548,-8.858583,-61.192093,-2.933658,-2.542659,163.885620,-1.860217,-115.317055,-0.088551,-0.527691,0.837642,0.109805
260,0.090087,3.397296,-8.658247,-43.144714,0.998277,-0.954424,161.355576,-1.732540,-115.246300,-0.099331,-0.526285,0.834607,0.128800
261,-0.198418,3.723368,-8.706900,-36.105022,2.712435,-3.751843,159.583313,-1.570643,-115.143196,-0.106414,-0.525656,0.831925,0.142344
262,-0.406550,3.860868,-8.510241,-30.612282,3.643152,-1.315585,158.080063,-1.319306,-115.022690,-0.111648,-0.525454,0.829233,0.154287
263,-0.296627,3.755610,-8.839502,-22.753510,3.351573,2.342910,156.957672,-1.106104,-114.995583,-0.115293,-0.524855,0.827375,0.163356
264,-0.221495,3.411716,-9.046167,-18.891073,-0.948233,4.579397,156.323990,-0.936175,-115.090805,-0.116831,-0.523786,0.826742,0.168808
265,-0.262021,3.410611,-8.924953,-20.086113,-3.519030,4.432441,155.912323,-0.703099,-115.264282,-0.116773,-0.522478,0.826706,0.173024
266,-0.148865,2.938301,-9.328493,-13.209483,-5.589130,7.299273,155.788330,-0.457791,-115.511551,-0.115194,-0.520952,0.827413,0.175290
267,-0.172657,3.000101,-9.651172,-13.918713,-6.473340,5.118450,155.957306,-0.220917,-115.788498,-0.112292,-0.519487,0.828704,0.175422
268,-0.464949,3.167108,-9.347053,-20.841827,-6.642192,4.399312,155.938965,0.113402,-116.025764,-0.109592,-0.518269,0.829429,0.177298
269,-0.472799,3.291963,-8.956456,-17.148317,-0.945675,5.984176,155.725616,0.416153,-116.236809,-0.108033,-0.517004,0.829752,0.180409
270,-0.220133,3.365770,-9.096888,-13.554332,2.085519,7.311354,155.571762,0.472792,-116.429985,-0.108010,-0.515548,0.830322,0.181960
271,-0.211667,3.795028,-8.945179,-17.927809,3.807916,4.790346,155.293823,0.375753,-116.571098,-0.109738,-0.514109,0.830610,0.183673
272,-0.131701,3.773539,-8.941388,-16.375126,4.123516,5.542499,154.871170,0.237095,-116.670807,-0.112476,-0.512757,0.830515,0.186213
273,-0.031703,3.792357,-8.970467,-15.295289,3.674817,3.660992,154.528091,0.070188,-116.753227,-0.115085,-0.511548,0.830492,0.188036
274,-0.102338,4.142665,-8.774580,-18.322121,3.055182,0.564835,154.078293,-0.039276,-116.767715,-0.117861,-0.510805,0.829924,0.190821
275,-0.260014,4.318751,-8.590350,-15.809065,2.140676,-0.230403,153.483353,-0.022249,-116.734924,-0.120444,-0.510452,0.828759,0.195169
276,-0.343110,4.268408,-8.572219,-13.303676,-0.097152,-0.052275,152.965073,0.117282,-116.716705,-0.121775,-0.510276,0.827637,0.199517
277,-0.377860,4.403281,-8.393133,-13.003218,-1.115890,0.096788,152.499054,0.329225,-116.728165,-0.122299,-0.510066,0.826636,0.203835
278,-0.376318,4.439208,-8.402468,-8.335662,-1.380788,1.013400,152.097549,0.545540,-116.765495,-0.122457,-0.509750,0.825838,0.207730
279,-0.195609,4.324640,-8.573048,-4.349748,-1.938317,1.417472,151.921509,0.692730,-116.827568,-0.122064,-0.509376,0.825625,0.209716
280,-0.022124,4.330512,-8.708853,-5.150166,-2.246563,1.100066,151.889435,0.737271,-116.896080,-0.121760,-0.508927,0.825819,0.210217
281,0.064748,4.369397,-8.728214,-5.242458,-1.052915,0.692833,151.860275,0.694728,-116.946526,-0.122104,-0.508457,0.826039,0.210293
282,0.158234,4.468271,-8.758320,-3.749446,0.180639,-0.552007,151.830765,0.581156,-116.953888,-0.123041,-0.508169,0.826148,0.210012
283,0.150193,4.514016,-8.701214,-4.402077,0.777956,-1.572493,151.780502,0.442858,-116.914078,-0.124335,-0.508154,0.826037,0.209720
284,0.041399,4.534987,-8.683353,-3.594514,1.114134,-1.671427,151.711502,0.342422,-116.850792,-0.125482,-0.508354,0.825745,0.209704
285,-0.084510,4.556313,-8.684844,-2.638822,1.292753,-2.210036,151.693069,0.320239,-116.774208,-0.125864,-0.508846,0.825396,0.209655
286,-0.103985,4.501825,-8.549265,-1.034503,1.345965,-2.542797,151.737137,0.360070,-116.682999,-0.125548,-0.509623,0.825026,0.209414
287,-0.142125,4.407138,-8.520936,0.504355,1.022126,-2.394972,151.861938,0.436140,-116.590919,-0.124612,-0.510558,0.824757,0.208753
288,-0.134266,4.240064,-8.400262,1.805240,0.963843,-2.076219,152.047028,0.504220,-116.508377,-0.123446,-0.511474,0.824648,0.207634
289,-0.384495,4.047375,-7.767618,4.842277,2.045199,-3.477303,152.240677,0.612680,-116.402206,-0.121991,-0.512636,0.824399,0.206610
290,-0.382793,3.524367,-6.688474,12.467427,3.429790,-2.519523,152.549286,0.774964,-116.270401,-0.119675,-0.514193,0.824178,0.204974
291,-0.386116,2.808962,-5.868775,27.150341,4.325950,-0.183905,153.295532,0.905149,-116.168159,-0.115563,-0.515916,0.824890,0.200082
292,-0.484539,1.923527,-5.105716,42.507706,4.899724,-0.253369,154.819702,1.080956,-116.082886,-0.107560,-0.518300,0.826905,0.189802
293,-0.491700,1.195494,-4.503565,57.137756,4.264444,0.894593,157.225082,1.354427,-116.003639,-0.094790,-0.521404,0.830076,0.173572
294,-0.210181,0.611532,-4.619767,70.718697,2.390774,6.829666,160.509689,1.487890,-116.040825,-0.078784,-0.523795,0.834763,0.150343
295,-0.300311,0.194045,-5.455389,76.076645,-2.331069,8.048426,164.422577,1.545736,-116.229477,-0.060230,-0.524851,0.840232,0.122120
296,-0.398672,0.043626,-6.272383,76.711815,-5.766788,7.695446,168.428879,1.788803,-116.467117,-0.039860,-0.525050,0.844939,0.093871
297,-0.206139,0.133558,-7.200222,76.126114,-8.927423,10.676789,172.125687,2.067781,-116.768326,-0.020659,-0.523954,0.848785,0.067899
298,0.093444,0.038211,-8.103995,71.729851,-8.531482,9.999230,175.399429,2.186664,-117.118385,-0.004666,-0.521756,0.851937,0.044183
299,-0.047224,-0.460892,-9.108445,74.625237,-8.209887,4.338038,178.516632,2.241387,-117.357338,0.009979,-0.519910,0.853899,0.021222
300,0.484307,-0.478699,-10.550331,75.128632,-0.317638,0.683405,-178.463913,2.075926,-117.433830,0.022439,-0.518927,0.854521,-0.002048
301,0.187273,-0.868871,-10.884264,80.959435,19.069696,-2.048057,-175.539215,1.401167,-117.432419,0.030649,-0.518438,0.854142,-0.026912
302,0.029630,-0.793455,-10.345160,78.961220,18.172077,-6.287156,-172.739441,0.558919,-117.362061,0.037071,-0.518489,0.852723,-0.051561
303,0.401358,-0.920084,-11.344074,84.276863,20.301773,-6.331513,-170.143494,-0.294481,-117.258888,0.042535,-0.518833,0.850544,-0.074683
304,0.520049,-1.195958,-11.545528,91.579834,31.726049,-2.020952,-167.514069,-1.393294,-117.299934,0.046250,-0.518271,0.848190,-0.099150
305,0.981571,-2.090348,-10.543817,91.476295,31.556633,1.009220,-164.695160,-2.700380,-117.544655,0.049048,-0.516363,0.845636,-0.125945
306,1.416983,-2.822476,-11.951317,87.620987,11.820650,-2.055331,-161.850952,-3.749897,-117.747810,0.053828,-0.514598,0.842198,-0.151641
307,1.578376,-3.441135,-12.970493,86.530151,15.611141,-3.601654,-159.185944,-4.523484,-117.816673,0.059972,-0.513623,0.837917,-0.174614
308,1.303011,-3.705511,-12.165940,78.938431,12.955476,-2.617903,-156.748993,-5.200747,-117.885605,0.065784,-0.512622,0.833498,-0.195375
309,1.911487,-4.043856,-12.303052,56.886612,0.742949,-6.738513,-154.897369,-5.682113,-117.808678,0.070669,-0.512730,0.829252,-0.210846
310,1.105301,-3.552048,-12.215315,55.717361,-4.496624,-10.640854,-153.685547,-5.868700,-117.463799,0.075384,-0.514715,0.825171,-0.220179
311,0.838935,-2.945258,-10.819880,62.844608,-7.517127,-4.213872,-152.653275,-5.704905,-117.058540,0.082014,-0.516672,0.821567,-0.226610
312,1.325585,-3.201414,-10.209507,76.165344,-7.761523,3.899003,-151.306412,-5.483223,-116.836456,0.090146,-0.516898,0.818174,-0.235118
313,1.249948,-3.393517,-9.333776,89.169273,-7.391755,5.855992,-149.397522,-5.333170,-116.773529,0.099963,-0.515509,0.814093,-0.248013
314,0.594956,-3.954885,-7.608635,102.426643,-5.197517,7.708185,-146.737991,-5.056551,-116.806473,0.113807,-0.512285,0.808716,-0.265687
316,0.683492,-5.048174,-7.042818,108.438599,-3.768139,21.840006,-143.235016,-4.566590,-117.116592,0.132114,-0.505339,0.802440,-0.288563
317,0.892002,-6.349637,-6.061377,98.127823,0.828236,25.517561,-139.208405,-4.070385,-117.746597,0.151545,-0.494814,0.795456,-0.315347
318,0.359785,-7.312412,-5.726199,87.906181,-0.775346,25.266182,-135.128571,-3.471356,-118.440048,0.171163,-0.482722,0.787829,-0.342064
319,-0.183876,-8.231774,-5.900093,82.050232,-3.287916,26.727816,-131.332214,-2.504825,-119.033905,0.191815,-0.469867,0.780462,-0.365117
320,-0.002914,-8.273276,-5.837787,79.441727,-7.859115,27.626465,-127.917542,-1.368791,-119.486961,0.211923,-0.457216,0.773388,-0.384594
321,-0.035895,-8.555572,-5.638054,79.944885,-11.476141,19.443766,-124.773773,-0.359354,-119.697784,0.230403,-0.446326,0.765478,-0.402183
322,-0.235832,-8.830420,-5.516200,84.272705,-14.349911,19.845753,-121.705002,0.572793,-119.693138,0.248430,-0.436598,0.756401,-0.418954
323,-0.179597,-8.962559,-5.239162,88.111465,-16.697073,16.675308,-118.640625,1.453600,-119.545853,0.266274,-0.427338,0.746299,-0.435337
324,-0.190593,-9.366658,-4.468048,86.626343,-17.647753,12.620915,-115.514252,2.149594,-119.252090,0.283405,-0.418960,0.734635,-0.452179
325,-0.298968,-9.818977,-4.311101,86.250671,-18.935558,13.339398,-112.392693,2.748533,-118.864555,0.300012,-0.410974,0.722051,-0.468759
326,-0.529363,-10.527592,-3.649781,84.362846,-20.617117,7.755883,-109.292976,3.284719,-118.365494,0.316381,-0.403418,0.708648,-0.484742
327,-0.486797,-10.513270,-3.716162,82.913994,-20.844448,-0.099785,-106.328606,3.580411,-117.739540,0.331195,-0.397539,0.694450,-0.500011
328,-0.820009,-10.670151,-2.554054,75.710762,-20.665939,-1.497562,-103.520874,3.729563,-117.055740,0.344772,-0.392665,0.680049,-0.514276
329,-0.959327,-10.505891,-1.923966,75.570343,-20.122934,-1.851091,-100.680862,3.913116,-116.357391,0.358655,-0.387169,0.665247,-0.528122
330,-1.096151,-10.125488,-2.345961,75.388962,-17.915110,-2.555213,-98.085587,4.104352,-115.710335,0.371438,-0.381680,0.651511,-0.540267
331,-1.031330,-10.030278,-3.386750,63.381306,-14.858609,-0.074653,-96.321655,4.296980,-115.196892,0.380765,-0.377824,0.641988,-0.547830
332,-1.287370,-9.909671,-2.467785,41.263096,-11.008508,3.402552,-95.373878,4.602284,-114.829651,0.387269,-0.375152,0.637132,-0.550769
333,-1.249362,-9.892098,-2.793216,28.038033,-7.451367,6.821984,-95.014488,5.044702,-114.599426,0.391888,-0.372954,0.635956,-0.550354
334,-1.056135,-10.339782,-3.408891,16.969267,-4.254131,11.531789,-95.321938,5.506070,-114.523079,0.393684,-0.372076,0.638531,-0.546673
335,-1.201242,-10.647281,-2.873487,5.709908,-0.551751,13.380085,-95.987015,5.991515,-114.580910,0.393812,-0.371563,0.643279,-0.541336
336,-1.380799,-10.402551,-2.361203,5.338079,3.823426,17.374022,-96.571457,6.595809,-114.767944,0.394240,-0.369444,0.648347,-0.536407
337,-1.153988,-10.641427,-2.932171,7.510203,7.502837,17.864107,-97.102982,7.196153,-115.106270,0.394142,-0.366298,0.653579,-0.532271
338,-0.962139,-11.029440,-3.159873,2.216985,11.325890,14.283641,-97.801575,7.554413,-115.586868,0.391601,-0.364120,0.659317,-0.528551
339,-0.862428,-10.859002,-3.090618,-8.636522,15.838764,6.573391,-98.753098,7.583087,-116.186340,0.385978,-0.363737,0.665671,-0.524974
340,-1.007157,-10.872254,-3.176842,-21.375742,19.313997,-1.101788,-100.047020,7.321222,-116.874069,0.377295,-0.365343,0.673084,-0.520703
341,-0.867679,-10.773494,-2.674818,-35.839756,21.424936,-7.878136,-101.603386,6.803027,-117.580467,0.366238,-0.368786,0.681070,-0.515762
342,-0.956984,-10.731882,-3.280011,-41.559692,22.545464,-13.325274,-103.390381,6.081152,-118.269150,0.353276,-0.373793,0.689507,-0.509956
343,-1.145033,-10.716002,-3.460598,-48.881996,23.354584,-15.405576,-105.411949,5.326505,-118.940292,0.339300,-0.379435,0.698809,-0.502564
344,-1.190049,-10.571321,-3.806390,-53.962479,21.689978,-14.427288,-107.582474,4.657093,-119.560638,0.325406,-0.385036,0.708722,-0.493529
345,-0.880910,-10.588532,-4.223101,-59.805843,19.532465,-11.154005,-109.907913,4.054365,-120.110329,0.311553,-0.390806,0.719096,-0.482811
346,-0.595892,-10.602858,-4.965132,-64.321846,17.811501,-7.876578,-112.433846,3.470577,-120.606857,0.297208,-0.396941,0.729997,-0.470329
347,-0.331197,-10.490700,-5.130017,-72.577774,16.734606,-7.086786,-115.140808,2.873218,-121.054222,0.282187,-0.403448,0.741205,-0.456306
348,-0.264513,-10.400676,-5.982536,-76.176468,16.023973,-7.821497,-118.019119,2.248505,-121.444374,0.266429,-0.410342,0.752543,-0.440810
349,-0.419703,-10.710337,-6.544845,-84.510071,16.735348,-6.796469,-121.081322,1.678274,-121.809669,0.250263,-0.417051,0.764254,-0.423500
350,-0.209788,-10.750248,-6.889798,-91.211639,16.671434,-8.122707,-124.243927,1.119835,-122.148949,0.233710,-0.423520,0.775845,-0.405061
351,-0.615357,-10.822673,-7.121724,-93.709755,15.404791,-8.648974,-127.358376,0.620120,-122.419739,0.217789,-0.429564,0.786674,-0.386247
352,-0.442861,-10.329391,-7.626216,-93.040947,11.813851,-5.619417,-130.387009,0.285706,-122.628403,0.203374,-0.434797,0.796819,-0.366973
353,0.074574,-10.310405,-7.555537,-96.685112,9.579785,1.302328,-133.315247,0.027879,-122.847687,0.189721,-0.439092,0.806352,-0.347851
354,-0.189927,-9.863029,-7.378457,-99.555771,6.938358,4.265708,-136.095856,-0.088082,-123.106018,0.177446,-0.442061,0.815372,-0.329033
355,-0.410894,-8.996082,-7.590667,-99.270370,0.831083,4.173145,-138.838486,0.046450,-123.300880,0.167257,-0.444418,0.823967,-0.309187
356,0.095217,-8.513561,-7.828675,-98.145767,-0.817194,6.324977,-141.570633,0.228986,-123.440254,0.157586,-0.446806,0.831895,-0.288933
357,-0.215644,-8.484065,-7.617480,-93.316841,2.176595,2.667374,-144.035263,0.317186,-123.571327,0.148275,-0.448922,0.838541,-0.270798
358,-0.811906,-7.357926,-7.614778,-90.803825,1.043355,-7.918782,-146.295685,0.448775,-123.532547,0.140445,-0.451750,0.843721,-0.253637
359,-0.332020,-6.546598,-7.758832,-96.049393,0.386073,-14.195662,-148.744843,0.480859,-123.242294,0.131592,-0.456731,0.847829,-0.235087
360,-0.006052,-6.330268,-7.483617,-101.456482,6.227096,-16.919325,-151.328751,0.170910,-122.848137,0.119702,-0.463104,0.851015,-0.216748
361,-0.172981,-5.643829,-7.000453,-113.579773,9.126230,-26.686745,-154.037674,-0.366772,-122.317207,0.105626,-0.470686,0.853221,-0.198271
362,-0.398989,-4.596685,-6.753458,-136.157349,6.601438,-32.619076,-157.362717,-0.825734,-121.533607,0.089681,-0.480089,0.854954,-0.174715
363,-0.185590,-3.685464,-6.101480,-163.845642,8.480153,-31.695286,-161.607498,-1.186739,-120.642204,0.070245,-0.490186,0.856781,-0.143905
364,-0.139599,-2.931148,-5.850434,-155.181870,8.956692,-30.028498,-166.174988,-1.534735,-119.766312,0.048883,-0.499467,0.857831,-0.110768
365,-0.174670,-2.124881,-5.350938,-143.901276,9.304794,-29.336777,-170.444855,-1.775897,-118.896187,0.029032,-0.507603,0.857418,-0.079566
366,-0.381528,-1.406844,-5.069450,-130.495651,8.181014,-24.169456,-174.407837,-1.765315,-118.094589,0.011892,-0.514302,0.856083,-0.049743
367,0.061443,-0.946988,-4.536131,-106.442505,9.357339,-16.727158,-177.816177,-1.788458,-117.477531,-0.003450,-0.519038,0.854397,-0.024385
368,0.181837,-0.592883,-4.741554,-68.172562,8.551507,-12.617733,179.768845,-2.068369,-117.016335,-0.016444,-0.522260,0.852593,-0.007709
369,0.418011,-0.223966,-4.858150,-56.111233,8.726274,-12.486442,178.038391,-2.497777,-116.602287,-0.027534,-0.524935,0.850691,0.003110
370,0.213633,0.118515,-5.732323,-46.142986,6.244213,-9.687860,176.483170,-2.843332,-116.222763,-0.037261,-0.527212,0.848818,0.012946
371,0.608896,0.582177,-6.525645,-34.549202,3.540799,-6.942696,175.087173,-3.081720,-115.930138,-0.045500,-0.528780,0.847251,0.022070
372,0.665994,0.888964,-7.596470,-25.505873,1.346084,-5.532706,173.921158,-3.342418,-115.702980,-0.052860,-0.529832,0.845944,0.029377
373,0.728166,1.091518,-8.539589,-18.989384,-1.195260,-3.315498,173.035049,-3.483281,-115.545296,-0.058041,-0.530488,0.844971,0.035183
374,0.726746,1.231651,-9.159806,-12.875472,-2.917405,-0.150685,172.414047,-3.522646,-115.489624,-0.061224,-0.530551,0.844514,0.039549
375,0.851949,1.306933,-9.239410,-6.160163,-3.430968,1.096065,172.045578,-3.543839,-115.515358,-0.063076,-0.530148,0.844503,0.042180
376,0.718817,1.381059,-9.496620,0.162997,-3.367617,1.656170,171.898819,-3.583436,-115.572968,-0.064024,-0.529616,0.844719,0.043109
377,0.740167,1.263396,-9.319423,1.125791,-2.646786,0.861242,171.911926,-3.599901,-115.627869,-0.064064,-0.529207,0.844979,0.042966
378,0.598508,0.794134,-9.063023,7.622516,-0.705548,-4.557228,172.212921,-3.585780,-115.584549,-0.062585,-0.529702,0.844887,0.040789
379,0.605868,0.893628,-8.611840,16.582455,0.562631,-9.878033,172.827835,-3.578862,-115.360245,-0.059762,-0.531688,0.844055,0.036170
380,0.436286,0.655721,-8.076680,22.379015,1.552929,-10.447136,173.657196,-3.570284,-115.031746,-0.055935,-0.534529,0.842765,0.029940
381,0.310787,0.539038,-7.755137,27.640097,1.572317,-11.791451,174.692200,-3.503230,-114.670090,-0.050684,-0.537703,0.841309,0.022481
382,0.331670,0.280879,-7.309502,33.175995,0.503619,-8.518313,175.936050,-3.409926,-114.342796,-0.044199,-0.540661,0.839968,0.013662
383,0.099361,0.318666,-7.160285,36.886669,-3.258669,-1.192343,177.306244,-3.193650,-114.193657,-0.036153,-0.542310,0.839388,0.004594
384,0.075383,-0.144202,-7.180849,39.910866,-6.237051,6.370142,178.836517,-2.800737,-114.294083,-0.026035,-0.542087,0.839906,-0.004730
385,0.243574,-0.034504,-7.266140,42.292625,-7.660081,5.361542,-179.542816,-2.412142,-114.498833,-0.015544,-0.540929,0.840795,-0.014741
386,0.195706,-0.198946,-7.166247,46.410213,-8.675254,5.108264,-177.940536,-2.056828,-114.670273,-0.005409,-0.539822,0.841396,-0.024812
387,0.260306,-0.183794,-7.308629,53.080162,-8.493885,2.871266,-176.255356,-1.724621,-114.788162,0.004933,-0.538923,0.841587,-0.035625
388,0.580170,-0.286950,-6.934570,54.414852,-5.068952,-4.495967,-174.556671,-1.640388,-114.741814,0.013559,-0.539108,0.840776,-0.047696
389,0.450280,-0.691524,-7.052027,61.433804,-2.673518,-6.543866,-172.687714,-1.763023,-114.549271,0.021554,-0.540274,0.838930,-0.061940
390,0.447057,-1.886494,-7.088342,70.925461,-0.235680,-10.792086,-170.138245,-1.928835,-114.274094,0.032549,-0.541762,0.835959,-0.081288
391,0.374868,-2.131717,-7.565306,77.906868,0.036583,-18.411015,-167.061371,-2.137320,-113.822647,0.045974,-0.544126,0.831200,-0.104500
392,-0.133406,-3.531370,-8.426831,78.232735,0.593058,-24.956968,-163.772385,-2.228772,-113.150894,0.061661,-0.547512,0.824589,-0.128380
393,0.005279,-3.675450,-9.876996,85.418755,1.861415,-23.595396,-160.439072,-2.278773,-112.405106,0.078191,-0.550873,0.816890,-0.152039
394,-0.318700,-3.724928,-10.197149,72.652504,-0.061170,-21.742395,-157.620590,-2.295004,-111.705215,0.092649,-0.553759,0.809519,-0.171597
395,-0.606130,-3.688850,-11.225393,66.529579,-6.130402,-14.041782,-155.492966,-2.016718,-111.094910,0.105868,-0.555829,0.803571,-0.184712
396,-0.010578,-4.792561,-11.805970,58.188740,-4.201806,-4.804703,-153.728409,-1.662888,-110.713989,0.117549,-0.556242,0.799224,-0.194982
397,0.534068,-3.653719,-12.093733,58.262085,-2.694525,2.362615,-152.332458,-1.521814,-110.604851,0.125496,-0.555295,0.796442,-0.203908
398,-0.045624,-4.174618,-11.579695,49.508125,-7.713554,8.965301,-151.324188,-1.237774,-110.667480,0.132241,-0.553246,0.795293,-0.209619
399,0.599846,-4.650249,-11.677737,57.385845,-6.109900,6.790797,-150.216949,-0.899226,-110.767433,0.139745,-0.550641,0.794165,-0.215798
400,1.297779,-4.454412,-11.202319,58.897346,-0.602926,3.417611,-148.963318,-1.026084,-110.848457,0.144722,-0.548758,0.791969,-0.225179
401,0.996182,-3.696208,-10.233129,65.901154,-0.425444,4.185411,-147.756073,-1.379087,-110.940781,0.147864,-0.547254,0.789483,-0.235301
402,1.399141,-4.698224,-8.794323,73.720779,1.664283,2.731243,-146.120483,-1.829535,-111.046501,0.152323,-0.545277,0.785855,-0.248804
403,1.253248,-4.866072,-8.206960,84.510307,7.033502,0.527624,-143.812027,-2.477727,-111.184799,0.158503,-0.542547,0.780261,-0.267791
404,1.247884,-5.951447,-7.228215,84.229553,8.181682,4.978740,-140.986115,-3.114809,-111.436844,0.166847,-0.538233,0.773452,-0.290240
405,0.113100,-6.885005,-6.234167,90.070755,9.976835,7.493207,-137.510529,-3.331902,-111.837242,0.180523,-0.530792,0.765727,-0.315173
406,0.169827,-8.172023,-5.607018,93.794853,9.716750,11.257126,-133.428726,-3.131098,-112.337967,0.199162,-0.520177,0.756723,-0.342231
407,-0.710046,-8.671268,-5.881742,90.957581,6.547536,18.072252,-129.313782,-2.518740,-112.899582,0.219952,-0.507199,0.747815,-0.367619
408,-0.327955,-9.258818,-5.208989,87.127708,4.102838,19.510387,-125.457428,-1.616434,-113.429802,0.240959,-0.493158,0.739411,-0.389878
409,-0.516120,-9.040756,-5.064092,95.464806,2.386500,17.299618,-121.673447,-0.766548,-113.858971,0.261004,-0.479220,0.729975,-0.411536
410,-0.094250,-8.909945,-4.950459,95.210648,0.304365,16.574488,-118.094666,-0.036451,-114.166580,0.279268,-0.466170,0.719827,-0.431908
411,-0.649861,-9.111731,-4.893070,94.080551,0.198486,17.285124,-114.831070,0.689816,-114.415100,0.295932,-0.453616,0.710063,-0.449964
412,-0.211106,-9.243406,-4.258190,93.581566,-0.957120,14.710275,-111.711609,1.372455,-114.601501,0.311538,-0.441420,0.700045,-0.466936
413,-0.230694,-9.942578,-3.858654,96.189522,-2.280140,13.926031,-108.527039,1.855523,-114.710220,0.326084,-0.429842,0.688498,-0.484640
414,-0.705080,-10.251447,-3.706996,92.691895,-4.442502,14.858780,-105.421829,2.425310,-114.742180,0.340772,-0.418084,0.676793,-0.501031
415,-0.431839,-10.448443,-3.631687,88.863602,-7.744691,16.653675,-102.628105,3.060210,-114.677078,0.354751,-0.407060,0.665926,-0.514778
416,-0.267849,-10.550662,-3.179121,81.778282,-10.257695,14.530687,-100.136284,3.545322,-114.504776,0.367000,-0.397898,0.655365,-0.526768
417,-0.416696,-10.766543,-2.409861,78.007591,-11.742179,11.772614,-97.759483,3.897449,-114.232880,0.378362,-0.389992,0.644405,-0.538044
419,-0.514932,-10.443340,-2.338289,71.244392,-13.588330,12.614324,-95.583580,4.236288,-113.886665,0.389155,-0.382945,0.633931,-0.547761
420,-0.360813,-10.842571,-2.095966,63.148354,-13.064663,9.979734,-93.781944,4.490267,-113.511963,0.398270,-0.377523,0.624784,-0.555430
421,-0.494951,-10.260592,-1.273473,53.464199,-11.230251,9.716271,-92.205383,4.653123,-113.158928,0.405994,-0.373063,0.616443,-0.562131
422,-0.517555,-9.964615,-1.242037,45.719612,-11.222413,6.452994,-90.898567,4.776236,-112.825233,0.412497,-0.369539,0.609307,-0.567479
423,-0.825800,-10.251887,-1.931052,34.190670,-10.108170,6.197706,-90.207687,4.905987,-112.527985,0.416846,-0.367932,0.605336,-0.569591
424,-0.890692,-10.253983,-1.277535,19.005116,-6.827082,3.985086,-90.057549,5.071564,-112.309669,0.419237,-0.367665,0.604419,-0.568982
425,-0.904151,-9.637415,-0.888428,10.612818,-3.600900,4.458281,-90.340340,5.241689,-112.204903,0.419693,-0.368358,0.606028,-0.566480
426,-1.001015,-10.790189,-1.213336,4.802587,-0.507483,4.014394,-90.831955,5.412076,-112.205566,0.418957,-0.369259,0.608996,-0.563247
427,-0.798808,-10.926644,-0.869773,-5.034427,3.449471,0.980563,-91.289246,5.440119,-112.297653,0.417170,-0.370290,0.611625,-0.561044
428,-0.923160,-10.614714,-0.199148,-11.439605,7.270478,-1.800098,-91.741341,5.343591,-112.491310,0.414274,-0.371398,0.614159,-0.559687
429,-0.849208,-10.859267,-0.933747,-12.845716,9.565548,-4.046594,-92.307259,5.174484,-112.781654,0.410164,-0.372752,0.617335,-0.558317
430,-1.098436,-11.017268,-1.013094,-21.122326,13.008178,-6.414921,-93.186218,4.964551,-113.175697,0.404308,-0.374830,0.622245,-0.555742
431,-0.868522,-10.695375,-0.943999,-30.611717,14.918741,-6.739897,-94.306580,4.722544,-113.647148,0.397097,-0.377416,0.628471,-0.552173
432,-1.430074,-10.623963,-1.369967,-34.432323,16.734646,-4.647211,-95.655724,4.604088,-114.177780,0.389472,-0.379720,0.636340,-0.546987
433,-1.182229,-10.425771,-1.906747,-40.347198,17.079561,-2.141993,-97.300323,4.640979,-114.760399,0.381442,-0.381806,0.646182,-0.539606
434,-1.116238,-10.311502,-1.923530,-46.298759,18.011969,1.400497,-99.155640,4.691051,-115.373352,0.372650,-0.384177,0.657039,-0.530886
435,-0.873082,-10.327934,-2.601846,-48.246357,16.826443,1.474127,-101.156204,4.701478,-115.988762,0.363151,-0.386990,0.668323,-0.521253
436,-0.824444,-10.431415,-3.246495,-54.184963,14.727011,-2.771042,-103.412369,4.550752,-116.541283,0.352148,-0.391503,0.679955,-0.510273
437,-0.484722,-10.407592,-3.586107,-62.652180,12.649064,-6.078249,-105.926170,4.181629,-116.987137,0.339394,-0.398146,0.691602,-0.497974
438,-0.355674,-10.599923,-4.224873,-73.528763,10.209598,-10.299963,-108.735268,3.604677,-117.301720,0.324771,-0.406989,0.703307,-0.483987
439,-0.404367,-10.498117,-4.854654,-86.447159,7.637370,-13.882195,-111.950638,2.940027,-117.467300,0.308494,-0.417748,0.715642,-0.467090
440,-0.488413,-10.269367,-5.322696,-98.909203,5.615848,-13.994024,-115.564270,2.328133,-117.504723,0.291197,-0.429516,0.728766,-0.446789
441,-0.422629,-10.049397,-6.011409,-106.893997,5.223873,-8.798372,-119.481773,1.871723,-117.507843,0.273413,-0.440946,0.742636,-0.423442
442,-0.554082,-10.042366,-6.687660,-114.605347,5.855618,-1.586701,-123.604866,1.650940,-117.588959,0.255648,-0.450752,0.757257,-0.397527
443,-0.486713,-9.598468,-7.125618,-114.776512,8.258811,2.936479,-127.755875,1.598770,-117.805397,0.238108,-0.458432,0.771926,-0.370506
444,-0.543261,-9.663168,-7.711412,-110.388901,11.098345,8.895555,-131.688766,1.618371,-118.188408,0.221220,-0.463648,0.785773,-0.344459
445,-0.254348,-9.501213,-8.148551,-102.696655,13.110974,14.082272,-135.241043,1.641685,-118.746559,0.205344,-0.466331,0.798391,-0.320846
446,-0.284841,-9.398440,-8.248758,-96.088150,12.834891,15.051065,-138.338669,1.624963,-119.387726,0.190871,-0.467235,0.809373,-0.300292
447,-0.227478,-9.566937,-8.049581,-82.016060,11.545590,16.703426,-140.764984,1.619344,-120.036072,0.179291,-0.466564,0.818195,-0.284131
448,-0.336294,-9.217293,-8.232762,-67.643654,8.806587,15.001826,-142.488495,1.655720,-120.636925,0.171086,-0.464799,0.824871,-0.272543
449,0.080012,-8.578656,-7.977861,-61.454468,9.386767,6.683590,-143.805893,1.536245,-121.082375,0.163847,-0.463802,0.829611,-0.264175
450,-0.103857,-8.253979,-7.674312,-54.500309,9.491044,-2.374869,-144.810837,1.185156,-121.296150,0.156754,-0.464492,0.832338,-0.258628
451,-0.723401,-7.919142,-7.897815,-52.862415,5.849795,-3.021741,-145.655014,0.995013,-121.345642,0.151839,-0.465708,0.834195,-0.253336
452,-0.324671,-6.665732,-8.179214,-64.582443,3.821123,-16.391485,-146.938248,0.832915,-121.155388,0.145840,-0.469124,0.836014,-0.244404
453,-0.565130,-6.356375,-7.492615,-77.847351,5.736983,-16.774086,-148.755142,0.551642,-120.767410,0.137112,-0.474800,0.837869,-0.231821
454,-0.841644,-6.109829,-7.478685,-82.663948,0.622120,-13.588608,-150.731140,0.521571,-120.384048,0.129411,-0.479965,0.840109,-0.217033
455,-0.427079,-5.186814,-7.599241,-94.752144,-0.487131,-19.657928,-153.087402,0.559742,-119.902412,0.120634,-0.486001,0.842396,-0.199047
456,-0.149177,-4.480867,-6.852467,-113.226761,2.725881,-26.277100,-156.029800,0.317179,-119.231201,0.107368,-0.494276,0.844135,-0.177766
457,-0.674689,-4.056626,-6.640423,-123.633194,1.172836,-20.500971,-159.346115,0.195714,-118.540482,0.093047,-0.502448,0.845818,-0.153235
458,-0.196701,-3.012671,-6.917485,-148.548996,-1.317315,-21.972914,-163.403824,0.244803,-117.885712,0.076266,-0.510226,0.847842,-0.122544
459,0.026898,-1.881002,-6.189318,-176.968567,2.555295,-22.331430,-168.672287,0.084650,-117.183388,0.052059,-0.518527,0.849346,-0.083848
460,-0.414458,-1.488335,-5.894575,-170.183502,-0.013657,-12.115208,-174.299133,0.111970,-116.631905,0.026950,-0.524543,0.849930,-0.041805
461,-0.263920,-0.601097,-5.897889,-152.611725,-0.367686,-7.517348,-179.528671,0.388631,-116.329567,0.005051,-0.527459,0.849564,-0.001705
462,0.183086,-0.239229,-5.493447,-131.487823,4.426738,-5.416097,175.845551,0.334653,-116.123375,-0.016698,-0.528746,0.848001,0.032303
463,0.016320,0.200058,-5.088994,-94.518242,6.766685,-4.242662,172.264481,0.037514,-115.936707,-0.035500,-0.529198,0.845813,0.057358
464,0.000662,0.384359,-5.593408,-57.136223,6.229700,-3.713159,170.000122,-0.181701,-115.769997,-0.047671,-0.529480,0.843832,0.072979
465,0.174084,0.860757,-5.848163,-48.434036,7.942169,-4.138824,168.488876,-0.460650,-115.596878,-0.056826,-0.529867,0.842121,0.082727
466,0.290002,1.370582,-6.497480,-37.485218,7.495944,-3.891457,167.111145,-0.846327,-115.408714,-0.066170,-0.530197,0.840381,0.090953
467,0.283985,1.907162,-7.334283,-29.256424,5.845710,-4.658829,165.899902,-1.182267,-115.213364,-0.074396,-0.530580,0.838640,0.098147
468,0.329137,1.914338,-8.226163,-20.302464,4.132667,-4.103257,165.038391,-1.414308,-115.027748,-0.080243,-0.531128,0.837141,0.103241
469,0.269490,2.225000,-8.866512,-9.149007,1.636572,-4.519744,164.629211,-1.530352,-114.864983,-0.083135,-0.531905,0.836074,0.105571
470,0.251873,2.436867,-9.148216,-2.196558,0.118338,-5.195704,164.496719,-1.527860,-114.702438,-0.083883,-0.532996,0.835195,0.106430
471,0.128143,2.462427,-9.385862,3.858829,-0.693832,-5.603215,164.614532,-1.399782,-114.533882,-0.082559,-0.534444,0.834450,0.106049
472,0.087335,2.466077,-9.266471,7.784151,-2.193089,-4.384204,164.923187,-1.158576,-114.388336,-0.079499,-0.535969,0.833923,0.104831
473,0.025720,2.526989,-9.105896,8.499943,-2.970451,-3.258249,165.217194,-0.916239,-114.287346,-0.076454,-0.537145,0.833585,0.103762
474,-0.079288,2.395447,-8.683567,8.734668,-3.935420,-0.942055,165.454742,-0.676131,-114.247429,-0.073631,-0.537823,0.833479,0.103138
475,-0.171129,2.189456,-7.954508,13.916339,-4.854820,1.427494,165.764740,-0.385754,-114.290108,-0.070027,-0.537980,0.833795,0.102275
476,-0.095780,1.517089,-7.001412,26.174391,-5.130217,3.186699,166.486816,-0.104487,-114.403435,-0.064491,-0.537831,0.834803,0.098405
477,-0.168308,0.781205,-6.107245,43.849709,-5.185836,2.969856,168.030365,0.169893,-114.539627,-0.055134,-0.537866,0.836556,0.088508
478,-0.253277,0.515447,-5.423352,58.309513,-6.316037,1.808398,170.315033,0.534025,-114.647163,-0.041667,-0.538292,0.838507,0.073563
479,-0.377889,0.010145,-5.141013,65.328194,-6.760066,5.047627,173.106705,1.015407,-114.775391,-0.024950,-0.538404,0.840493,0.055405
480,-0.042089,-0.898387,-5.219322,73.328995,-6.802030,7.259985,176.599182,1.364719,-114.970001,-0.005911,-0.537544,0.842630,0.031419
481,-0.229794,-1.039894,-5.812137,80.819588,-8.215119,7.163702,-179.474533,1.624015,-115.185684,0.014422,-0.535818,0.844202,0.003724
482,-0.333380,-1.008916,-6.823658,74.971458,-11.462800,7.847171,-175.915100,2.053759,-115.393326,0.034181,-0.533436,0.844899,-0.020548
483,-0.581235,-1.873440,-7.578676,73.831406,-10.030808,9.571366,-172.642029,2.591928,-115.614304,0.053277,-0.530309,0.845073,-0.042263
484,-0.163614,-2.320871,-8.577817,83.703926,-8.112921,3.688742,-169.225388,2.955444,-115.746368,0.071655,-0.527219,0.844140,-0.065831
485,-0.149790,-2.285856,-9.801952,73.728432,-5.351647,-1.192957,-166.140457,3.017703,-115.722702,0.086295,-0.525211,0.841976,-0.088224
486,-0.073615,-1.999995,-10.161659,52.992535,-3.003623,-11.081203,-164.035309,2.884781,-115.498039,0.095162,-0.525335,0.839124,-0.104104
487,0.023744,-2.137053,-10.392263,52.940418,2.854257,-14.836779,-162.575089,2.508492,-115.106163,0.099509,-0.527402,0.835730,-0.116190
488,0.524892,-2.067072,-10.493473,51.622421,5.222987,-20.437412,-161.299698,1.818909,-114.618073,0.100919,-0.530694,0.831703,-0.128256
489,0.547610,-2.002266,-10.153396,52.960270,6.255433,-23.428888,-160.173523,0.934635,-114.023125,0.100470,-0.535145,0.826994,-0.140022
490,0.483115,-2.144419,-9.677405,75.241173,6.266634,-30.065754,-158.709549,0.035753,-113.287292,0.101827,-0.540333,0.820924,-0.154128
491,0.198658,-3.104379,-9.198560,108.206306,10.050569,-26.899851,-156.113358,-0.805187,-112.532104,0.109204,-0.544512,0.812795,-0.175913
492,0.340099,-4.242650,-8.940284,128.531357,11.862391,-24.748524,-152.236267,-1.619414,-111.928009,0.122905,-0.546121,0.802504,-0.206478
493,0.796024,-4.897653,-8.651401,138.584961,13.354149,-23.502287,-147.659973,-2.574412,-111.459213,0.138947,-0.545856,0.789974,-0.242231
494,0.016935,-5.823336,-7.940242,137.678436,14.364472,-19.884285,-142.822083,-3.386227,-111.149834,0.157035,-0.543370,0.776167,-0.278665
495,-0.189743,-7.387784,-7.440741,123.189598,12.777733,-8.048087,-137.960831,-3.716105,-111.091423,0.177863,-0.537414,0.762724,-0.312733
496,0.277001,-8.214258,-7.357080,113.440834,10.211493,1.911305,-133.385818,-3.758094,-111.300499,0.198266,-0.528632,0.750509,-0.343476
497,0.504925,-8.610338,-7.132344,105.593918,6.747134,8.082852,-129.269852,-3.663463,-111.639366,0.216649,-0.518708,0.739447,-0.370436
498,-0.240551,-9.167581,-6.957431,104.379227,3.048919,16.099752,-125.486595,-3.166937,-112.019569,0.235568,-0.507279,0.729713,-0.393313
499,0.373822,-9.694775,-7.409712,102.474907,0.171582,22.151279,-122.017181,-2.381502,-112.401611,0.254456,-0.494842,0.721103,-0.412789
500,0.435531,-9.323755,-7.260516,105.645363,0.215522,20.225853,-118.895355,-1.701842,-112.743111,0.270833,-0.483151,0.712786,-0.430291
501,0.481504,-9.386522,-6.937192,95.775375,-0.813006,19.047686,-116.148354,-1.137520,-113.014259,0.284780,-0.472714,0.704873,-0.445640
502,0.244134,-9.852325,-6.825695,81.174362,-0.620740,20.016447,-113.933449,-0.571556,-113.252174,0.296378,-0.463444,0.698604,-0.457528
503,0.294220,-9.908369,-6.213106,72.008537,-0.718362,18.319382,-112.143356,-0.017957,-113.471985,0.306038,-0.455182,0.693738,-0.466774
504,0.237514,-10.104351,-5.716846,69.633385,-1.014213,14.772655,-110.492310,0.413003,-113.644157,0.314432,-0.447895,0.688786,-0.475496
505,0.252284,-10.211782,-5.235161,67.066338,-1.889829,13.398667,-108.855751,0.742146,-113.761604,0.322251,-0.441254,0.683282,-0.484329
506,0.135474,-10.631736,-4.715128,62.543621,-4.015157,10.101955,-107.232201,1.004337,-113.798439,0.329849,-0.435282,0.677222,-0.493052
507,-0.020703,-10.002052,-4.086913,63.781689,-5.977281,3.109632,-105.585716,1.157886,-113.711006,0.337342,-0.430325,0.670174,-0.501885
508,0.068210,-10.080991,-3.493088,59.041565,-5.311771,1.020072,-103.925949,1.162499,-113.556038,0.344257,-0.426269,0.662272,-0.511056
509,-0.270196,-10.075946,-3.105559,53.703724,-3.392040,2.263418,-102.352943,1.193329,-113.435768,0.350796,-0.422049,0.654842,-0.519614
510,-0.264716,-10.176111,-2.404986,47.785145,-2.392571,2.756434,-100.850037,1.320457,-113.361992,0.357351,-0.417233,0.648082,-0.527452
511,-0.198611,-9.752037,-2.067369,49.371593,-0.927676,1.114559,-99.324562,1.397175,-113.320541,0.363491,-0.412306,0.641088,-0.535617
512,-0.229278,-10.150048,-1.557514,46.801807,-0.016683,3.485776,-97.745651,1.461614,-113.316925,0.369505,-0.406967,0.633833,-0.544151
513,-0.590514,-10.167417,-1.860463,47.307911,-1.205423,3.333603,-96.269791,1.654275,-113.312386,0.375775,-0.401252,0.627359,-0.551553
514,-0.102973,-9.924070,-1.372224,43.014427,-3.164714,2.752413,-94.956261,1.796663,-113.253143,0.381397,-0.396531,0.621241,-0.557997
515,-0.421347,-9.811314,-1.691328,40.318039,-3.483569,2.985777,-93.858559,1.881070,-113.159538,0.386083,-0.392937,0.615816,-0.563304
516,-0.682043,-9.891464,-1.655503,32.727005,-2.667163,7.877035,-93.116470,2.189819,-113.082680,0.390613,-0.389275,0.612885,-0.565914
517,-0.618518,-9.715933,-1.438940,27.102770,-1.556246,8.431811,-92.617317,2.622672,-113.042465,0.394752,-0.385576,0.611669,-0.566888
518,-0.554307,-9.687059,-1.294324,21.571777,-0.712328,9.453174,-92.275978,3.016432,-113.036369,0.397963,-0.382412,0.611220,-0.567271
519,-0.814892,-9.901811,-1.318795,17.173023,0.970871,10.822506,-92.102333,3.459126,-113.076599,0.400620,-0.379315,0.611906,-0.566741
520,-0.723804,-10.141685,-0.880124,12.597794,2.245109,12.118588,-91.984039,3.943471,-113.164497,0.403060,-0.375929,0.613145,-0.565927
522,-0.796996,-10.414272,-0.916726,8.985986,2.916601,8.967815,-91.901794,4.339196,-113.279953,0.404783,-0.372968,0.614362,-0.565337
523,-0.718101,-10.497803,-0.979086,3.147713,4.978243,6.318809,-92.007118,4.588669,-113.442131,0.404916,-0.371173,0.616187,-0.564435
524,-0.707285,-10.643349,-0.681030,-5.194257,6.144159,4.980270,-92.289757,4.713502,-113.653008,0.403603,-0.370385,0.618647,-0.563201
525,-0.834450,-10.543607,-0.919393,-11.950609,6.844655,1.378840,-92.793098,4.764141,-113.890640,0.401070,-0.370603,0.622040,-0.561126
526,-0.787897,-10.478085,-1.116325,-21.075603,7.864104,0.945314,-93.638206,4.757489,-114.160866,0.396978,-0.372107,0.627021,-0.557485
527,-0.631864,-10.216650,-1.188454,-30.156424,8.369340,0.532893,-94.802528,4.682961,-114.456261,0.391362,-0.374870,0.633399,-0.552372
528,-0.861509,-10.195313,-1.289193,-37.122082,7.595824,2.055494,-96.193047,4.648381,-114.744858,0.385227,-0.378152,0.640908,-0.545745
529,-0.631488,-10.115559,-1.939895,-42.440163,8.455091,3.315672,-97.865234,4.657372,-115.047379,0.378300,-0.381974,0.649839,-0.537302
530,-0.500709,-10.188173,-2.301752,-49.905838,7.822118,3.935997,-99.863640,4.595446,-115.366653,0.369773,-0.386978,0.660019,-0.527154
531,-0.624906,-10.007814,-2.824032,-56.738548,6.195809,-0.639441,-102.151947,4.464509,-115.641174,0.360003,-0.393303,0.671004,-0.515233
532,-0.833671,-9.799267,-3.310919,-66.065033,5.816132,-2.559246,-104.779083,4.319815,-115.865768,0.349081,-0.400787,0.683048,-0.500957
533,-0.634330,-9.709688,-3.835552,-79.008179,6.457310,-4.652910,-107.815002,4.115284,-116.074234,0.336261,-0.409546,0.696312,-0.484098
534,-0.627645,-9.810364,-4.193088,-90.698242,5.656520,-8.110966,-111.202515,3.774382,-116.231171,0.321321,-0.419804,0.710074,-0.465094
535,-1.059904,-9.538880,-4.722736,-101.980484,6.759815,-8.455490,-114.893623,3.491838,-116.346603,0.305447,-0.430365,0.724474,-0.443425
536,-0.518418,-9.316209,-5.510916,-109.716576,9.068600,-3.456209,-118.921944,3.248325,-116.528900,0.287928,-0.440604,0.739789,-0.419139
537,-0.472526,-9.474899,-6.425170,-116.549332,10.283562,0.414779,-123.200928,2.964412,-116.804260,0.268498,-0.450265,0.755436,-0.393048
538,-0.611591,-9.458408,-7.413803,-117.861099,9.710042,5.688249,-127.580353,2.812038,-117.154320,0.248976,-0.458358,0.771024,-0.365297
539,-0.855057,-8.986160,-8.213071,-115.884399,9.508540,13.626417,-131.937408,2.907673,-117.628304,0.230629,-0.463942,0.786439,-0.336276
540,-0.305833,-9.173467,-8.764210,-112.110901,10.363191,22.476789,-136.067902,3.096141,-118.299988,0.213253,-0.466717,0.801081,-0.308168
541,-0.640305,-9.416016,-8.868525,-100.390007,12.589808,23.501871,-139.603119,3.247549,-119.115036,0.197798,-0.466888,0.813751,-0.284079
542,-0.851700,-9.490679,-8.797956,-78.258667,11.005753,22.503859,-142.190491,3.441721,-119.933136,0.186684,-0.464870,0.823535,-0.266148
543,-0.595101,-9.456312,-8.862911,-54.560162,12.162309,15.536274,-143.725708,3.507753,-120.630592,0.179357,-0.462123,0.829930,-0.255909
544,-0.230537,-9.230776,-8.946596,-39.403088,12.130737,3.889709,-144.467804,3.224942,-121.078316,0.173345,-0.460712,0.833063,-0.252391
545,-0.842216,-8.764012,-8.522926,-34.354977,9.803865,-1.903186,-144.802139,2.870349,-121.263321,0.169039,-0.460723,0.834149,-0.251704
546,-1.031112,-8.235957,-8.484203,-39.661961,3.391184,0.636168,-145.166061,2.811992,-121.326279,0.167017,-0.460937,0.835134,-0.249387
547,-0.458400,-7.962418,-8.039075,-49.745182,6.248763,-6.988826,-145.797623,2.697705,-121.288284,0.163728,-0.462395,0.836219,-0.245200
548,-0.758316,-6.987812,-8.115597,-58.608253,6.884771,-15.105256,-146.846085,2.353892,-121.067642,0.157454,-0.466263,0.837167,-0.238662
549,-1.019369,-6.412271,-7.741128,-85.363655,1.074489,-11.306683,-148.640091,2.228148,-120.744026,0.149856,-0.471312,0.839345,-0.225629
550,-0.570076,-5.642000,-7.492202,-97.908325,-1.101010,-15.513126,-151.126526,2.221492,-120.342705,0.140272,-0.477418,0.842370,-0.206903
551,-0.267957,-4.850268,-7.318297,-100.492210,0.975557,-28.465157,-153.937927,1.922114,-119.677696,0.127401,-0.486156,0.844132,-0.186715
552,-0.489237,-3.899496,-7.609638,-104.839668,-0.887825,-25.944284,-157.070602,1.584376,-118.846016,0.112767,-0.496132,0.845086,-0.164216
553,-0.194559,-3.585030,-7.091564,-123.828575,-3.758368,-17.882723,-160.632111,1.448559,-118.133850,0.097149,-0.504847,0.846571,-0.137871
554,0.076827,-3.047214,-6.659026,-127.897469,3.755790,-20.341230,-164.392181,1.158620,-117.511787,0.078989,-0.512682,0.847716,-0.110888
555,0.156206,-2.366512,-6.560241,-136.663071,8.029433,-23.710861,-168.354324,0.591148,-116.825890,0.057511,-0.520638,0.847713,-0.083733
556,-0.096680,-1.534637,-6.419153,-146.883759,8.383967,-19.385036,-172.793716,0.105174,-116.148262,0.034011,-0.527727,0.847085,-0.052854
557,-0.014216,-0.898630,-5.991477,-155.614304,7.524802,-14.993417,-177.683609,-0.190487,-115.598068,0.009365,-0.532809,0.845992,-0.017989
558,-0.201008,-0.001708,-5.714139,-146.265198,7.934718,-13.848950,177.248627,-0.341606,-115.121536,-0.015393,-0.536188,0.843752,0.018663
559,-0.232686,0.394700,-5.641288,-124.631523,6.503702,-9.089603,172.578766,-0.322972,-114.735718,-0.037267,-0.537957,0.840480,0.052985
560,-0.094202,0.650738,-5.721676,-96.414192,5.903028,-7.214314,168.884537,-0.301895,-114.449745,-0.054633,-0.538582,0.836984,0.080011
561,0.084230,1.018588,-5.985004,-73.347702,6.728361,-7.182283,166.165390,-0.421033,-114.176308,-0.068501,-0.539018,0.833632,0.099125
562,0.055900,1.760933,-6.387558,-57.052380,7.467046,-8.525071,163.984695,-0.608183,-113.862137,-0.080415,-0.539700,0.830235,0.113871
563,0.191739,1.910378,-6.949032,-42.452557,7.787725,-8.380043,162.279846,-0.814893,-113.517799,-0.090304,-0.540693,0.826971,0.124965
564,0.002028,2.379012,-7.526435,-28.259722,7.096510,-10.771164,161.133270,-0.956015,-113.136673,-0.097165,-0.542332,0.823983,0.132243
565,-0.148708,2.802256,-8.144598,-16.561962,5.093845,-10.022152,160.382828,-0.908355,-112.743706,-0.100845,-0.544564,0.821200,0.137518
566,-0.138836,2.802967,-8.677403,-4.126798,3.742520,-9.384616,160.106140,-0.767169,-112.391922,-0.101580,-0.547018,0.819080,0.139862
567,-0.251867,2.801361,-9.205684,9.731300,1.794482,-11.042098,160.410095,-0.554069,-112.043076,-0.099028,-0.550046,0.817610,0.138409
568,-0.356958,2.983349,-9.459744,15.427317,-0.181219,-10.831918,161.058502,-0.235969,-111.690811,-0.094060,-0.553494,0.816435,0.135024
569,-0.199600,2.994662,-9.673338,19.000463,-1.698930,-8.695945,161.807190,0.079585,-111.391037,-0.088535,-0.556593,0.815603,0.130982
570,-0.187719,3.076078,-9.730551,15.837818,-2.308328,-6.697167,162.498077,0.328776,-111.165932,-0.083652,-0.558990,0.815092,0.127109
571,-0.161582,2.986893,-9.453437,12.212373,-3.004525,-4.843291,162.995087,0.542742,-111.007698,-0.079875,-0.560697,0.814701,0.124506
572,-0.008460,2.920217,-9.099238,10.780850,-2.418598,-4.261921,163.341980,0.678364,-110.888748,-0.077338,-0.561920,0.814389,0.122621
573,-0.044435,2.801545,-8.774137,12.078953,-1.429587,-4.586873,163.640213,0.740823,-110.766670,-0.075560,-0.563049,0.814059,0.120726
574,-0.128333,2.477466,-8.568604,18.249592,0.009437,-4.878300,164.110199,0.792795,-110.622253,-0.073028,-0.564430,0.813798,0.117550
575,-0.174208,2.112532,-8.554004,34.012962,1.281959,-5.523803,165.086792,0.837421,-110.447739,-0.068066,-0.566312,0.813878,0.110726
576,-0.310200,1.924873,-8.386969,45.723915,1.705792,-5.842837,166.602005,0.907060,-110.247963,-0.060251,-0.568638,0.814237,0.100194
577,-0.436529,1.483142,-7.943939,54.537334,1.042717,-2.380736,168.495285,1.048001,-110.097000,-0.049959,-0.570726,0.814951,0.087361
578,-0.467554,1.014040,-7.362707,63.258087,0.571581,3.319841,170.754395,1.234893,-110.095139,-0.037366,-0.571711,0.816417,0.072208
579,-0.416833,0.322443,-6.497377,62.358768,-0.247533,9.302718,173.302185,1.427493,-110.283592,-0.023181,-0.571124,0.818688,0.055038
580,-0.532614,0.108995,-5.635339,52.299801,-2.321319,11.362434,175.749847,1.729105,-110.606491,-0.008708,-0.569237,0.821199,0.039067
581,-0.398217,0.044874,-5.145440,34.750931,-3.075254,16.220753,177.610779,2.096479,-111.047852,0.003278,-0.566159,0.823830,0.027537
582,-0.279162,-0.335825,-5.190592,26.293652,-3.453073,22.391453,179.053024,2.353438,-111.673332,0.012352,-0.561557,0.827142,0.018368
583,-0.014183,-0.652434,-5.866005,24.371269,-3.336797,22.191425,-179.521255,2.406806,-112.392555,0.019775,-0.556149,0.830807,0.008213
584,-0.115152,-0.600159,-6.428174,32.243496,-2.279962,16.617100,-178.048355,2.349905,-113.018272,0.026494,-0.551317,0.833870,-0.002887
585,0.281976,-1.147336,-7.523615,47.475117,-2.031309,16.267502,-176.212234,2.182200,-113.546402,0.034026,-0.547029,0.836244,-0.017212
586,0.108801,-2.037814,-7.928123,77.506584,0.325022,9.305975,-173.353882,1.912277,-113.951279,0.045554,-0.543192,0.837440,-0.039515
587,0.080838,-2.184781,-8.844708,100.921776,-2.048010,2.020930,-169.574600,1.726994,-114.119736,0.061992,-0.540303,0.836418,-0.068078
588,-0.081186,-3.014170,-8.926812,116.659447,-1.886909,-6.017890,-165.245239,1.612130,-114.032440,0.081599,-0.538326,0.832782,-0.100103
589,0.042506,-3.467682,-9.621340,126.012093,-2.540807,-6.646839,-160.594589,1.482152,-113.801811,0.102708,-0.536406,0.826865,-0.134213
590,0.073334,-4.636332,-9.411514,125.717506,-1.360403,-11.359244,-155.856857,1.261128,-113.498383,0.123662,-0.534223,0.818998,-0.168982
591,0.045406,-5.159029,-10.217204,123.809410,-2.064621,-14.371784,-151.265610,0.968920,-113.091232,0.143619,-0.532262,0.809359,-0.202503
592,0.096415,-6.209660,-10.214431,115.813339,3.273708,-17.068441,-147.034378,0.551500,-112.657944,0.161144,-0.530497,0.798782,-0.233567
593,-0.071802,-6.162350,-10.635134,104.265060,4.589412,-9.971568,-143.384399,0.112275,-112.367523,0.175591,-0.528105,0.788944,-0.260463
594,0.435296,-6.416041,-10.467362,91.889328,3.974945,-9.595004,-140.483765,-0.309752,-112.204941,0.186421,-0.525633,0.780658,-0.282012
595,-0.154136,-6.095005,-10.209362,84.927681,4.797640,-6.676069,-138.169128,-0.646841,-112.097389,0.194997,-0.523352,0.773717,-0.299067
596,0.019704,-6.320467,-9.309988,77.788376,3.204249,0.819508,-136.203979,-0.738572,-112.108429,0.203296,-0.520102,0.768354,-0.312724
597,0.397125,-6.712335,-8.279764,81.864090,1.150480,5.980011,-134.110092,-0.750277,-112.233742,0.212330,-0.515499,0.763053,-0.326996
598,0.241973,-7.759765,-7.121265,85.673523,0.596913,2.946120,-131.463470,-0.751160,-112.358650,0.223796,-0.509637,0.755852,-0.344779
599,-0.039626,-8.627123,-6.469662,92.587502,3.934067,11.579896,-128.209946,-0.594862,-112.576019,0.238502,-0.501171,0.747050,-0.365870
600,0.258385,-9.590627,-5.637169,96.080376,3.290109,18.222305,-124.501137,-0.257933,-112.972557,0.255416,-0.489509,0.737285,-0.389299
601,0.235141,-10.085230,-5.857319,96.384010,4.567570,17.901546,-120.743294,0.102870,-113.416100,0.272016,-0.476765,0.726836,-0.412809
602,-0.277975,-10.179555,-5.878098,90.176285,4.413423,15.963707,-117.406685,0.538905,-113.823639,0.286957,-0.464439,0.717244,-0.433029
603,0.036354,-10.172808,-6.176317,88.197906,2.913367,18.971422,-114.584091,1.032772,-114.187508,0.299912,-0.453016,0.709053,-0.449524
604,-0.022816,-10.105466,-6.153568,82.373863,-1.186581,9.224988,-112.232742,1.377618,-114.410988,0.310329,-0.443977,0.701437,-0.463212
605,-0.162856,-9.702525,-6.386364,77.376587,-2.335367,2.617433,-110.387108,1.517284,-114.447517,0.318125,-0.438109,0.694392,-0.474001
606,-0.103728,-9.890720,-5.891998,71.246170,-3.900704,1.164445,-108.889053,1.542798,-114.396751,0.324190,-0.434107,0.688012,-0.482795
607,-0.039284,-9.934656,-5.690692,65.573593,-5.760482,0.738219,-107.576653,1.519028,-114.281799,0.329493,-0.431155,0.681941,-0.490405
608,-0.021609,-9.398249,-4.826054,59.307621,-6.561252,0.253903,-106.426239,1.472042,-114.117737,0.334242,-0.429002,0.676240,-0.496929
609,-0.201912,-9.570445,-4.250874,51.107613,-6.518290,5.391312,-105.363464,1.543271,-113.956215,0.339327,-0.426511,0.671201,-0.502428
610,-0.011620,-10.170174,-3.344062,41.723637,-7.021658,9.230118,-104.285805,1.752753,-113.814400,0.345153,-0.423174,0.666517,-0.507492
611,-0.197791,-9.767879,-2.562100,38.719807,-7.081011,11.161435,-103.089340,2.041947,-113.672760,0.351828,-0.419033,0.661494,-0.512888
612,-0.281308,-9.957673,-1.853173,36.364311,-6.728477,11.431258,-101.734680,2.409557,-113.526726,0.359480,-0.413960,0.655925,-0.518820
613,-0.398381,-10.397659,-1.976942,36.409439,-5.910575,8.388385,-100.354385,2.741625,-113.377907,0.366960,-0.408865,0.650073,-0.524953
614,-0.493775,-10.452749,-1.684398,35.682114,-5.648124,3.473294,-99.045837,2.953963,-113.216942,0.373512,-0.404529,0.644100,-0.531019
615,-0.654963,-9.667594,-2.024994,38.213230,-4.985881,-1.064614,-97.877998,3.055165,-113.050583,0.378942,-0.401135,0.638377,-0.536627
616,-0.685278,-9.916117,-2.083167,33.429295,-4.198476,-2.651153,-96.985260,3.090137,-112.905365,0.382929,-0.398802,0.633779,-0.540968
617,-0.706080,-9.831064,-2.130016,29.009443,-3.127212,-3.042862,-96.359436,3.090987,-112.794388,0.385633,-0.397311,0.630433,-0.544045
618,-0.747706,-9.524303,-1.933019,22.489643,-2.284828,0.011091,-95.969185,3.154176,-112.723831,0.387656,-0.396069,0.628528,-0.545715
619,-0.634814,-9.397707,-1.810764,18.325947,-1.865117,3.608202,-95.744934,3.311800,-112.685654,0.389447,-0.394735,0.627814,-0.546228
620,-0.552555,-9.628945,-1.665334,14.853751,-1.877213,6.689204,-95.601425,3.515648,-112.663589,0.391123,-0.393352,0.627683,-0.546179
621,-0.609552,-9.649930,-1.529188,12.242559,-3.013918,8.021345,-95.488396,3.767294,-112.626381,0.393014,-0.391913,0.627792,-0.545730
622,-0.462810,-9.489190,-1.376272,8.973330,-3.894188,8.080389,-95.538315,3.956649,-112.563583,0.394138,-0.391482,0.628397,-0.544531
623,-0.420279,-9.856628,-1.243898,6.071870,-5.113134,6.434195,-95.684273,3.979973,-112.464432,0.394232,-0.392412,0.628822,-0.543302
625,-0.589515,-9.926707,-1.013151,3.544042,-4.314909,1.959128,-95.679169,3.939293,-112.332672,0.394660,-0.393320,0.628221,-0.543030
626,-0.650110,-9.862797,-0.808702,2.201651,-3.886115,-1.558521,-95.496368,3.887783,-112.191765,0.395686,-0.393718,0.626712,-0.543739
627,-0.573935,-9.948764,-0.828569,1.529576,-2.999573,-3.576187,-95.267700,3.742018,-112.058601,0.396341,-0.394382,0.624716,-0.545076
628,-0.615719,-9.933859,-0.778992,0.358227,-1.499592,-5.372553,-95.127304,3.536094,-111.963516,0.396199,-0.395442,0.623077,-0.546285
629,-0.732667,-9.905746,-0.563311,-0.463585,-0.327733,-6.402437,-95.004555,3.365446,-111.908096,0.395995,-0.396170,0.621765,-0.547400
630,-0.783058,-9.746188,-0.592674,0.944543,-0.263786,-4.704834,-94.769768,3.325269,-111.868652,0.396784,-0.395772,0.620379,-0.548686
631,-0.862140,-10.051808,-0.407220,0.765851,0.407455,-2.544657,-94.489197,3.388684,-111.845795,0.398192,-0.394605,0.619156,-0.549887
632,-0.750993,-9.744079,-0.172267,2.710691,2.630518,-3.112934,-94.003639,3.456829,-111.863022,0.400131,-0.392479,0.617096,-0.552312
633,-0.954445,-10.047424,-0.257916,6.042618,3.793058,-1.015321,-93.430054,3.565084,-111.938034,0.402285,-0.389520,0.614924,-0.555256
634,-0.863722,-10.041540,-0.415828,5.619304,5.303616,-0.954986,-93.080856,3.675531,-112.076622,0.403365,-0.386989,0.614050,-0.557207
635,-0.846622,-10.259447,-0.722773,1.474917,7.026350,-0.598852,-92.970764,3.747704,-112.280174,0.403116,-0.385143,0.614429,-0.558247
636,-0.664922,-9.947384,-1.068697,-2.983333,8.752224,-1.207420,-93.201256,3.753317,-112.554024,0.401037,-0.384452,0.616489,-0.557949
637,-0.885896,-10.044167,-1.446038,-10.103799,7.209627,-0.485324,-93.809578,3.768606,-112.843178,0.397669,-0.384933,0.620463,-0.555617
638,-0.827749,-9.889298,-1.798657,-19.922930,6.295752,-0.084967,-94.849998,3.842785,-113.103180,0.393299,-0.386734,0.626590,-0.550579
639,-0.651799,-9.909842,-2.211391,-27.176130,5.702388,2.161419,-96.298752,3.894526,-113.350548,0.387481,-0.390049,0.634501,-0.543258
640,-0.494794,-9.987660,-2.472262,-35.213932,4.909196,4.053284,-98.052223,3.916750,-113.585701,0.380492,-0.394504,0.643616,-0.534183
641,-0.377220,-10.046022,-3.026352,-43.369480,3.484350,4.339469,-100.118393,3.897213,-113.793159,0.372263,-0.400211,0.653812,-0.523242
642,-0.133210,-10.403427,-3.618783,-54.331562,4.447709,2.154692,-102.568214,3.747449,-113.991943,0.361899,-0.407627,0.665138,-0.510354
643,-0.057784,-10.173293,-4.176359,-66.595520,4.787093,-2.105708,-105.450493,3.408902,-114.186020,0.348754,-0.416992,0.677558,-0.495382
644,-0.366179,-9.686028,-4.507363,-82.508080,4.528253,-4.673408,-108.818047,3.033196,-114.342316,0.333492,-0.427759,0.691432,-0.477207
645,-0.560838,-9.198582,-5.229261,-97.903595,4.266152,-4.936108,-112.750359,2.766928,-114.467087,0.316517,-0.439287,0.707220,-0.454625
646,-0.577846,-9.039208,-5.868484,-112.659935,5.862481,-0.719790,-117.217415,2.625087,-114.627937,0.297677,-0.450827,0.724706,-0.427720
647,-0.742878,-8.778174,-6.696805,-121.500099,6.315718,6.408269,-122.049889,2.678143,-114.897377,0.277810,-0.461036,0.743293,-0.397218
648,-1.055862,-8.625422,-7.712891,-135.574036,4.110468,14.974228,-127.246490,3.044858,-115.294098,0.257768,-0.469281,0.762870,-0.362436
649,-0.557975,-8.828197,-8.289026,-145.801651,5.590492,22.163437,-132.670258,3.510759,-115.861229,0.236790,-0.475651,0.782310,-0.325081
650,-0.428494,-8.646845,-8.745732,-137.516479,9.149357,22.691128,-137.818436,3.774322,-116.582260,0.215173,-0.480047,0.799539,-0.289817
651,-1.086829,-8.462070,-9.273978,-119.384529,5.900729,20.678375,-142.252167,4.031599,-117.299171,0.196621,-0.482275,0.813504,-0.258771
652,-1.185168,-8.429659,-9.499852,-97.161461,5.926150,23.091206,-145.724854,4.414770,-117.997536,0.183206,-0.482094,0.824336,-0.233431
653,-0.798261,-8.556176,-9.087648,-72.508492,11.777822,21.284416,-148.025925,4.602879,-118.738983,0.173431,-0.479882,0.832159,-0.217131
654,-1.419378,-8.593021,-9.047136,-40.292660,14.858172,17.159668,-149.032349,4.621348,-119.446487,0.168044,-0.476188,0.837007,-0.210775
655,-1.337208,-8.846364,-9.086387,-24.987631,11.005733,16.352489,-149.052246,4.701952,-120.060417,0.167413,-0.471550,0.839652,-0.211182
656,-0.931095,-8.664717,-8.678771,-20.387896,17.169910,12.639611,-148.624969,4.610238,-120.618164,0.167461,-0.467037,0.841061,-0.215521
657,-1.099237,-8.055508,-8.185206,-31.067266,18.130804,4.800567,-148.292374,4.295159,-121.074806,0.165659,-0.463900,0.842005,-0.219957
658,-1.167568,-7.578483,-7.965112,-35.092602,16.291208,0.617967,-148.286728,3.983980,-121.365242,0.162861,-0.462449,0.842886,-0.221720
659,-0.657108,-7.219600,-7.680014,-35.800968,12.179821,-3.471669,-148.419464,3.624716,-121.497345,0.159453,-0.462458,0.843346,-0.222428
660,-0.764551,-6.289313,-7.239358,-43.138546,13.354466,-13.085209,-148.781540,3.147506,-121.420067,0.154659,-0.464564,0.843288,-0.221646
661,-0.709375,-5.729917,-7.027939,-55.675819,7.736902,-15.921819,-149.624420,2.705607,-121.138130,0.148540,-0.468692,0.843333,-0.216915
662,-0.257303,-5.217595,-6.742933,-53.752399,7.028688,-18.474806,-150.731918,2.226119,-120.727318,0.141244,-0.474096,0.843253,-0.210258
663,-0.326578,-4.630507,-6.677234,-51.451157,6.133088,-24.255241,-151.881042,1.652386,-120.181458,0.133243,-0.480605,0.842509,-0.203578
664,-0.583570,-3.733237,-6.898484,-64.784782,4.113668,-28.870893,-153.535980,1.217905,-119.464386,0.124302,-0.488532,0.841928,-0.192466
665,-0.130115,-3.354325,-6.859327,-75.457130,3.209802,-26.558840,-155.862900,0.821907,-118.685562,0.112642,-0.497328,0.841964,-0.176278
666,0.000487,-3.056940,-6.710397,-75.652458,5.082355,-26.748167,-158.375198,0.301487,-117.920555,0.098943,-0.506053,0.841850,-0.159399
667,-0.149808,-2.589842,-7.028604,-80.157249,2.384511,-29.436853,-161.017288,-0.138964,-117.085258,0.085034,-0.514890,0.841246,-0.141287
668,0.281407,-2.114408,-7.107686,-87.314796,0.877181,-27.973574,-163.985886,-0.532811,-116.188713,0.069711,-0.523913,0.840292,-0.120682
669,0.345875,-1.821885,-7.041765,-88.150459,1.809002,-28.544594,-167.100037,-1.003345,-115.278618,0.052776,-0.532670,0.838790,-0.099543
670,-0.143588,-1.607981,-7.289981,-77.774658,0.385326,-27.307106,-169.971085,-1.227645,-114.368141,0.038398,-0.540624,0.836644,-0.079238
671,-0.179735,-1.143758,-7.598760,-77.257851,-1.649880,-27.259586,-172.659180,-1.130776,-113.471886,0.026878,-0.547875,0.834049,-0.058927
672,-0.125582,-0.867602,-7.413570,-83.413971,-1.109329,-24.337271,-175.448364,-0.960766,-112.620361,0.015056,-0.554517,0.831183,-0.037687
673,-0.438687,-0.793330,-7.420509,-79.363937,-1.902880,-19.818848,-178.129395,-0.657593,-111.895798,0.004386,-0.559940,0.828352,-0.016737
674,-0.337683,-0.377595,-7.647395,-73.262657,-3.064454,-14.368122,179.439087,-0.237965,-111.342110,-0.004475,-0.563927,0.825808,0.002871
675,-0.225964,0.230962,-7.670405,-77.295738,-3.467049,-10.223686,176.921188,0.117949,-110.947990,-0.014379,-0.566598,0.823556,0.022716
676,-0.155749,0.587854,-7.771186,-72.068520,-3.873682,-3.424181,174.323730,0.393091,-110.738411,-0.025319,-0.567726,0.821720,0.042689
677,-0.001221,0.903546,-8.072423,-51.942051,-4.764983,0.347903,172.168671,0.572465,-110.707924,-0.034721,-0.567452,0.820555,0.059012
678,0.163517,1.191268,-8.509095,-33.301563,-4.646979,1.622119,170.708984,0.629381,-110.762421,-0.041506,-0.566605,0.819982,0.069760
679,0.091656,1.275500,-8.888491,-19.168192,-4.003854,1.835852,169.878967,0.630190,-110.840477,-0.045552,-0.565732,0.819840,0.075733
680,0.127386,1.276216,-9.154275,-3.320631,-3.713278,0.986013,169.655060,0.627850,-110.906876,-0.046629,-0.565165,0.820019,0.077350
681,-0.029088,1.365539,-9.523046,9.112720,-3.485339,-2.193929,170.051910,0.642889,-110.905029,-0.044565,-0.565345,0.820266,0.074583
682,-0.110505,1.457334,-9.656447,11.657872,-3.294373,-2.317504,170.661545,0.725570,-110.847466,-0.041000,-0.566032,0.820330,0.070605
683,-0.344101,1.713303,-9.643689,8.282498,-3.311794,-4.160925,170.990417,0.969676,-110.758369,-0.037680,-0.566914,0.819981,0.069425
684,-0.422071,1.717920,-9.601975,8.569965,-3.806050,-2.012632,171.101730,1.359143,-110.677231,-0.034389,-0.567728,0.819468,0.070527
685,-0.552568,1.616294,-9.750517,8.765986,-4.057958,0.401137,171.240005,1.799718,-110.673103,-0.030551,-0.568010,0.819322,0.071714
686,-0.458228,1.643576,-9.701029,0.363558,-4.071506,2.457895,171.264450,2.174536,-110.743866,-0.027700,-0.567684,0.819499,0.073408
687,-0.579295,1.729699,-9.719814,-13.214892,-3.620557,3.467973,170.905136,2.419541,-110.866875,-0.027642,-0.566830,0.819743,0.077215
688,-0.546062,1.876473,-9.809690,-24.682991,-3.503534,6.284789,170.124146,2.596568,-111.053841,-0.030099,-0.565381,0.820018,0.083719
689,-0.432794,2.107549,-9.862038,-36.499210,-2.687313,6.234453,168.914566,2.686203,-111.286880,-0.035234,-0.563417,0.820178,0.092881
690,-0.387109,2.382545,-9.601927,-47.186520,-1.815878,5.581441,167.279495,2.691980,-111.505737,-0.043028,-0.561296,0.819839,0.104685
691,-0.420146,2.635218,-9.441401,-45.567413,0.186288,3.892342,165.464325,2.649542,-111.677116,-0.052042,-0.559286,0.818949,0.117530
692,-0.369758,2.594793,-10.043628,-31.613533,1.745981,1.933138,164.045090,2.553840,-111.767754,-0.059549,-0.557867,0.817952,0.127249
693,-0.196589,2.794439,-9.908157,-14.156884,5.088256,-0.842385,163.294708,2.344554,-111.751686,-0.064719,-0.557382,0.817204,0.131584
694,-0.278371,1.959936,-10.415010,7.254934,8.155932,3.109860,163.466934,2.017211,-111.712830,-0.066269,-0.557446,0.817487,0.128754
695,-0.356227,1.029985,-11.847871,10.977992,7.202538,7.989692,164.570404,1.669937,-111.791847,-0.063304,-0.557184,0.819342,0.119240
696,0.039948,1.072238,-11.932363,-1.693970,6.759046,8.532892,165.715332,1.277569,-111.967949,-0.060382,-0.556198,0.821623,0.109241
697,-0.097139,1.550974,-10.241342,-19.192360,6.944330,10.315238,166.091522,0.861288,-112.198845,-0.061336,-0.554390,0.823370,0.104653
698,-0.438632,1.608047,-9.438859,-37.876369,3.754908,14.926477,165.589111,0.632112,-112.554047,-0.065082,-0.551361,0.824767,0.107359
699,-0.291300,2.682710,-8.293076,-60.665886,0.040068,12.780835,163.975021,0.589159,-112.983826,-0.072704,-0.547256,0.825261,0.119033
700,0.026970,3.816246,-6.694252,-64.228600,-0.680306,11.027562,161.109680,0.501937,-113.375229,-0.086514,-0.542354,0.823957,0.139511
701,-0.168370,3.696693,-6.680286,-51.012344,-3.233191,13.691875,158.108948,0.417729,-113.793045,-0.100702,-0.536794,0.822063,0.161010
702,0.164400,3.761614,-7.556236,-37.014103,-4.639932,11.720488,155.971695,0.339507,-114.239586,-0.110569,-0.531509,0.821074,0.176381
703,0.545429,3.805491,-7.886832,-25.832165,-2.731284,5.888951,154.635193,0.080268,-114.554802,-0.118106,-0.527513,0.820688,0.185073
704,0.492043,3.870070,-8.281632,-13.178019,0.415253,-0.517672,153.920929,-0.247468,-114.647377,-0.123583,-0.525560,0.820291,0.188779
705,0.272454,3.925491,-8.074385,-4.521327,4.589707,-6.063909,153.646713,-0.487202,-114.510139,-0.126781,-0.525839,0.819459,0.189488
706,0.018490,4.491258,-7.972824,-0.672139,8.806092,-10.835361,153.424591,-0.613091,-114.156982,-0.129285,-0.527900,0.817600,0.190099
707,-0.114768,4.587710,-7.961971,0.589724,11.218207,-9.547683,153.124359,-0.680523,-113.700775,-0.131911,-0.530692,0.815064,0.191406
708,-0.463750,4.933167,-7.326108,7.536183,9.599626,-6.146986,152.777466,-0.641131,-113.305534,-0.133906,-0.533165,0.812604,0.193594
709,-0.537931,4.185617,-8.325036,16.033957,5.531344,0.715742,152.869644,-0.474660,-113.106842,-0.132634,-0.534969,0.811652,0.193489
710,-0.473365,4.408941,-8.759761,23.129745,1.199170,6.644670,153.566071,-0.301558,-113.163605,-0.128060,-0.535653,0.812892,0.189427
711,-0.230271,4.535357,-7.469522,35.126991,-2.239862,10.832761,154.336014,-0.182997,-113.428436,-0.123190,-0.534812,0.815260,0.184802
712,-0.158284,3.703054,-8.590924,45.435524,-8.064981,13.569940,155.566055,-0.064264,-113.866058,-0.115920,-0.533163,0.819119,0.177041
713,0.033023,3.754495,-9.358667,47.985054,-7.914147,11.824172,157.348129,0.058421,-114.358856,-0.106025,-0.531539,0.823952,0.165312
714,0.206324,4.452761,-7.848101,46.125393,-0.656504,8.751106,158.717941,-0.005398,-114.731232,-0.099619,-0.529995,0.827652,0.155478
715,0.121084,3.868408,-8.727469,52.150417,-0.036495,4.431408,159.919952,-0.168089,-114.942604,-0.094962,-0.529271,0.830347,0.146210
716,0.109572,4.028913,-8.811802,53.694401,2.803534,0.389336,161.358307,-0.292613,-115.004318,-0.089142,-0.529824,0.832496,0.135247
717,0.083814,4.122014,-7.472862,62.292381,3.879495,-1.371534,162.618561,-0.427601,-114.952141,-0.084349,-0.531000,0.833783,0.125419
718,0.483678,3.351396,-6.933960,79.324692,1.596014,-1.136310,164.127716,-0.660765,-114.883034,-0.079116,-0.532326,0.835185,0.113295
719,0.094189,3.038366,-6.489860,106.892258,-4.271902,-1.305484,166.426270,-0.757408,-114.853874,-0.069153,-0.533932,0.837203,0.096052
720,0.235939,1.802693,-4.269692,139.087708,-7.318611,3.034326,169.679825,-0.678865,-114.917259,-0.053352,-0.535270,0.839859,0.072644
721,0.057398,-0.696575,-5.071818,177.730881,-14.685254,7.592414,175.347427,-0.438541,-115.153900,-0.024991,-0.535590,0.843494,0.032212
722,-0.474353,-2.380159,-5.862372,210.498795,-19.866949,7.294865,-176.219559,0.347734,-115.411179,0.020186,-0.533892,0.844904,-0.026262
723,-1.011598,-5.707901,-7.927601,229.521225,-28.918261,13.000301,-166.394043,1.661187,-115.558006,0.075330,-0.527924,0.840869,-0.092528
724,-0.458954,-8.716887,-9.655793,227.248230,-37.162895,14.901493,-156.233185,3.105862,-115.539452,0.132215,-0.516981,0.830455,-0.159983
725,-1.154602,-10.188267,-11.084501,206.679489,-34.281036,8.367236,-146.963303,4.402340,-115.221344,0.183285,-0.503961,0.814829,-0.220188
726,-1.149004,-11.276021,-11.310456,173.284531,-29.030840,5.112140,-139.252411,5.420711,-114.670891,0.225008,-0.491531,0.797183,-0.268830
728,-0.876203,-11.611275,-10.100425,130.468964,-20.110088,1.494990,-133.248856,5.972011,-114.112495,0.255597,-0.481159,0.780520,-0.306505
729,-0.826281,-10.484625,-8.148321,91.123314,-8.361409,-4.672295,-128.901642,6.032779,-113.671974,0.275345,-0.473864,0.766620,-0.334561
730,-1.444576,-9.751544,-6.804753,60.770401,-0.185418,-8.437171,-125.918816,5.875456,-113.386559,0.287464,-0.468978,0.756199,-0.354381
731,-0.893283,-9.353283,-6.001448,38.359398,-1.134647,-6.145424,-123.920876,5.670420,-113.192375,0.294926,-0.465910,0.748723,-0.367914
732,-0.864322,-8.956098,-5.578282,19.648272,-2.941127,-6.310762,-122.697807,5.430419,-112.998871,0.299012,-0.464879,0.743492,-0.376431
733,-0.905135,-8.843640,-5.798359,8.610086,-5.037568,-7.040493,-122.138741,5.244337,-112.760712,0.300904,-0.465645,0.740302,-0.380243
734,-0.812279,-8.796948,-5.782323,-0.593199,-5.713337,-9.553960,-122.057632,5.042905,-112.468193,0.300948,-0.468065,0.738427,-0.380882
735,-0.455110,-8.331184,-5.589668,-7.965685,-5.310002,-10.996616,-122.308273,4.701072,-112.140831,0.298874,-0.472087,0.737206,-0.379916
736,-0.402276,-7.786760,-5.213530,-9.733528,-2.614535,-13.761022,-122.728706,4.209644,-111.818153,0.295131,-0.477041,0.736229,-0.378545
737,-0.315965,-7.332741,-4.825487,-5.200531,-0.914029,-14.837703,-123.053520,3.640224,-111.515678,0.291207,-0.481861,0.734827,-0.378203
738,0.058777,-7.157953,-4.481809,3.378319,0.165638,-13.665564,-123.050804,2.965364,-111.244629,0.287887,-0.485992,0.732214,-0.380519
739,0.160353,-6.475094,-4.198860,14.017342,0.806103,-10.577291,-122.701752,2.241767,-111.037384,0.285530,-0.489000,0.728564,-0.385417
740,0.498247,-6.805876,-4.785553,25.387959,-1.069438,-5.928318,-122.146492,1.562198,-110.894028,0.284136,-0.490931,0.724521,-0.391565
741,0.266553,-7.516551,-5.992399,31.996067,0.498927,-5.151915,-121.591637,1.007281,-110.805481,0.283350,-0.492079,0.720936,-0.397269
742,0.105169,-8.318765,-6.676464,31.296862,4.773730,-5.615228,-121.157158,0.592866,-110.803116,0.282636,-0.492491,0.718424,-0.401792
743,-0.054167,-8.629971,-7.198115,25.416578,4.807590,-4.173601,-120.935684,0.284815,-110.866325,0.281442,-0.492644,0.717173,-0.404667
744,-0.121193,-9.266364,-7.623462,16.130095,4.168258,-3.189364,-121.028038,0.101965,-110.937340,0.279651,-0.493074,0.717360,-0.405052
745,-0.517941,-9.351158,-7.242084,5.724066,4.318988,-2.882067,-121.359810,0.065944,-111.008659,0.277745,-0.493562,0.718750,-0.403302
746,-0.271670,-8.692621,-6.329237,-1.218692,-0.742993,1.888788,-121.807297,0.194157,-111.052719,0.276468,-0.493916,0.720817,-0.400044
747,-0.225673,-8.370603,-5.968009,-3.854532,-4.826684,5.722435,-122.275421,0.462923,-111.042992,0.276173,-0.494166,0.723039,-0.395907
748,-0.240956,-8.420712,-5.512309,-1.757537,-2.950053,8.872366,-122.580544,0.828073,-111.065430,0.277078,-0.493487,0.725041,-0.392446
749,-0.437850,-8.477179,-5.391511,3.323592,-0.850724,10.270658,-122.593613,1.249149,-111.184113,0.279265,-0.491295,0.726570,-0.390815
750,-0.632436,-8.532217,-5.086548,8.201374,2.500848,11.210451,-122.237579,1.832524,-111.394508,0.283731,-0.487028,0.727587,-0.391046
751,-0.771137,-8.782031,-5.048114,11.833029,6.813625,12.890491,-121.645088,2.426284,-111.728462,0.288812,-0.481300,0.728315,-0.393059
752,-0.867103,-8.604367,-5.025807,14.591298,8.166423,15.395592,-121.056381,2.930973,-112.178658,0.292872,-0.475105,0.729300,-0.395756
753,-0.872199,-8.520931,-5.182145,16.105289,5.539695,15.482021,-120.519775,3.467396,-112.634834,0.296848,-0.468834,0.730512,-0.398031
754,-0.722696,-8.408225,-5.015329,16.324888,2.646185,15.194231,-120.028671,3.969416,-113.011246,0.300658,-0.463268,0.731436,-0.399985
755,-0.740368,-8.252842,-5.065659,17.958706,-0.250141,12.788113,-119.559662,4.407497,-113.283340,0.304313,-0.458627,0.731845,-0.401819
756,-0.732164,-8.423312,-4.932078,21.443348,-3.173815,8.790270,-119.018761,4.762365,-113.417282,0.308195,-0.454961,0.731246,-0.404111
757,-0.944614,-8.466953,-4.595653,25.790642,-5.893097,5.955260,-118.242470,5.083754,-113.402672,0.313298,-0.451697,0.729137,-0.407643
758,-1.116659,-8.464633,-4.203652,28.753050,-6.451928,5.623132,-117.217003,5.464711,-113.298882,0.320027,-0.448015,0.725895,-0.412239
759,-1.168585,-8.651281,-3.869404,30.905827,-5.683338,7.714313,-115.988083,5.901627,-113.193207,0.327841,-0.443450,0.722000,-0.417839
760,-0.931269,-8.610671,-3.481031,29.532719,-3.275748,10.593967,-114.655334,6.305039,-113.154053,0.335536,-0.438181,0.717855,-0.424380
761,-1.098965,-8.362617,-3.330048,25.293880,0.548006,11.927663,-113.437271,6.688200,-113.232254,0.342153,-0.432486,0.714475,-0.430596
762,-0.692060,-8.346533,-3.238953,19.150257,3.601406,12.771073,-112.486160,6.965995,-113.431725,0.346608,-0.427203,0.712261,-0.435941
763,-0.693354,-8.404301,-3.157021,14.707782,5.857080,10.308600,-111.767876,7.041924,-113.704964,0.348674,-0.423000,0.710701,-0.440910
764,-0.522268,-8.343403,-3.407837,13.289030,6.706042,4.227845,-111.269562,6.902924,-113.985214,0.348608,-0.420352,0.709484,-0.445432
765,-0.813339,-8.395793,-3.447821,12.907176,7.373421,-3.938644,-110.928322,6.570647,-114.217590,0.347000,-0.419329,0.708230,-0.449627
766,-0.678579,-8.386423,-3.407560,11.878148,7.601211,-10.243167,-110.634789,6.075026,-114.380898,0.344518,-0.419602,0.706505,-0.453974
767,-0.855784,-8.167907,-3.531305,6.849251,8.863503,-15.454830,-110.513550,5.446791,-114.507835,0.340759,-0.421202,0.704991,-0.457668
768,-0.636760,-8.284878,-3.278100,-0.225885,11.273200,-19.280743,-110.587944,4.698275,-114.636841,0.335544,-0.423885,0.703955,-0.460629
769,-1.072391,-8.251869,-3.157144,-4.166177,13.717688,-21.476337,-110.737564,3.955308,-114.793121,0.329946,-0.426571,0.703320,-0.463155
770,-0.725509,-8.728790,-3.374716,-11.306168,14.526203,-20.445700,-111.041847,3.258426,-114.987137,0.323864,-0.429239,0.703554,-0.464626
771,-0.238739,-9.815975,-2.858564,-14.686520,14.626986,-20.494886,-111.283310,2.381081,-115.182587,0.316891,-0.432449,0.703080,-0.467169
772,0.031501,-10.847326,-2.455646,4.903578,13.942100,-20.302181,-110.843246,1.372786,-115.355179,0.311764,-0.434455,0.699360,-0.474287
773,-0.334544,-11.469407,-2.507712,32.223408,12.991522,-18.651703,-109.450043,0.506100,-115.531761,0.311074,-0.433284,0.691918,-0.486566
774,-0.110263,-12.186744,-2.110096,56.786167,12.367326,-15.027589,-107.140564,-0.146190,-115.745682,0.314933,-0.428520,0.680976,-0.503448
775,-0.191935,-12.037506,-1.472420,85.029869,12.030004,-11.503977,-103.874641,-0.631778,-116.016739,0.322944,-0.420004,0.665949,-0.525181
776,-0.551373,-11.592293,-1.481185,108.963593,10.496195,-6.192692,-99.877457,-0.796277,-116.320366,0.335006,-0.407551,0.647816,-0.549553
777,-0.726704,-11.106568,-1.204970,114.575455,8.843256,-2.733021,-95.684799,-0.628125,-116.604576,0.349197,-0.392632,0.628781,-0.573181
778,-0.545157,-10.441210,-0.862808,111.498833,5.743834,0.058382,-91.708504,-0.317441,-116.820885,0.363146,-0.377527,0.610229,-0.594321
779,-0.782482,-9.844118,-0.432770,104.269035,2.919222,5.060949,-88.109657,0.154656,-116.941971,0.376616,-0.362791,0.593203,-0.612089
780,-0.333648,-9.962908,-0.050430,92.939812,-2.110249,12.730376,-84.962761,0.753682,-116.917915,0.389569,-0.349140,0.578103,-0.626206
781,0.192079,-9.642816,0.373011,86.428963,-5.542071,16.967838,-82.201500,1.225855,-116.733986,0.401187,-0.337900,0.563910,-0.637870
782,-0.238553,-9.196526,0.447665,83.037933,-8.145296,19.573708,-79.729309,1.717657,-116.424545,0.412452,-0.327832,0.550833,-0.647297
783,-0.436174,-8.953605,0.916485,77.708565,-8.584647,20.706261,-77.468704,2.382216,-116.029457,0.424139,-0.317614,0.539192,-0.654598
784,0.048784,-8.973825,1.316120,71.296013,-10.305915,20.855394,-75.359093,2.907673,-115.574615,0.434874,-0.308738,0.527696,-0.661137
785,-0.270789,-8.528625,1.498954,71.623405,-11.171230,18.164240,-73.356682,3.264703,-115.079025,0.444631,-0.301187,0.516055,-0.667291
786,-1.273047,-7.722058,1.514557,70.941841,-13.690047,24.368242,-71.407509,4.036582,-114.491943,0.456357,-0.291497,0.505972,-0.671387
787,-1.098342,-7.883518,1.818636,60.640614,-14.865648,34.981773,-69.656227,5.253413,-113.731079,0.470138,-0.280346,0.498308,-0.672359
788,-0.422840,-8.285156,1.667223,45.476948,-17.451714,31.805027,-68.463608,6.165807,-112.877037,0.481613,-0.273489,0.492666,-0.671218
789,-0.531095,-8.141038,1.770362,23.103895,-21.937939,24.599863,-68.051163,6.580101,-111.999420,0.489315,-0.272958,0.489731,-0.668004
790,-0.842377,-8.033905,1.933409,-2.990739,-24.049654,25.606068,-68.405647,6.931124,-111.060837,0.495244,-0.276346,0.490878,-0.661366
791,-1.053595,-9.175452,2.390389,-9.829149,-21.830656,31.024176,-69.191391,7.478863,-110.081024,0.501023,-0.280645,0.495102,-0.651988
792,-1.432494,-9.320962,2.304683,-4.761913,-25.643497,25.301924,-69.924156,8.105105,-109.081284,0.507228,-0.284425,0.499184,-0.642368
793,-2.118281,-9.056183,2.062910,8.072262,-32.992935,30.385994,-70.327438,8.912895,-107.921844,0.515702,-0.286443,0.501658,-0.632725
794,-1.970593,-9.125998,1.637969,18.912985,-35.306511,33.392212,-70.397156,9.896356,-106.586525,0.526471,-0.286741,0.502520,-0.622962
795,-1.439004,-9.579922,2.405668,25.737877,-33.166470,24.836538,-70.084984,10.498711,-105.272133,0.536534,-0.287462,0.499904,-0.616111
796,-1.161960,-9.368847,2.695794,27.494986,-36.552559,8.735128,-69.395386,10.380219,-104.043968,0.544444,-0.290230,0.492634,-0.613726
797,-1.242287,-9.301786,3.243550,37.834904,-36.024956,2.623632,-68.338577,9.806384,-102.877151,0.551401,-0.293521,0.481644,-0.614672
798,-0.973049,-9.319775,4.464948,48.483440,-27.414944,-7.258464,-66.627052,8.981036,-101.906380,0.558219,-0.294108,0.466449,-0.619933
799,-0.911410,-9.671991,5.047951,70.417557,-22.240131,-13.798907,-64.185013,7.920205,-101.247757,0.564545,-0.291022,0.446822,-0.630036
800,-1.518981,-9.276553,4.397583,100.041267,-21.389162,-14.516883,-61.120365,6.995242,-100.802315,0.571748,-0.283004,0.424524,-0.642489
801,-1.567152,-8.614238,4.242005,110.844063,-16.803341,-16.828094,-57.717049,6.349397,-100.535080,0.579520,-0.270736,0.401609,-0.655415
802,-1.030040,-8.347575,4.446343,103.919235,-13.206305,-23.390726,-54.451015,5.614169,-100.522537,0.585009,-0.258633,0.379215,-0.668632
803,-0.672168,-8.002002,4.658571,95.904228,-11.845201,-26.665815,-51.577087,4.626720,-100.735954,0.587384,-0.249282,0.357967,-0.681687
804,-0.788570,-7.016431,5.783871,90.713509,-5.891108,-29.731691,-48.691578,3.666766,-101.134804,0.588578,-0.239197,0.336756,-0.694951
805,-0.369485,-6.992138,6.458880,86.278259,-1.466147,-33.339157,-45.665470,2.761321,-101.754440,0.588626,-0.227550,0.314966,-0.708898
806,0.419969,-6.533280,7.288659,88.582184,2.974626,-43.013153,-42.550892,1.588385,-102.683502,0.585972,-0.216556,0.291387,-0.724454
807,1.017477,-5.391286,8.056122,92.509979,9.295689,-54.882401,-38.985554,0.093738,-104.060532,0.580196,-0.204692,0.263533,-0.742983
808,1.020824,-4.582347,8.651144,86.905579,12.431912,-61.552868,-35.081276,-1.406458,-105.855156,0.571800,-0.191004,0.233392,-0.762948
809,0.749854,-4.259989,8.842739,76.577080,12.936768,-63.605137,-31.365168,-2.606594,-107.872108,0.561657,-0.176787,0.205558,-0.781686
810,0.396432,-3.050011,9.462647,70.115868,17.211966,-66.964264,-27.774338,-3.367229,-110.064133,0.550347,-0.160868,0.180251,-0.799218
811,0.114640,-2.144928,9.650759,65.337662,19.390268,-62.705402,-24.083431,-3.629737,-112.341469,0.538708,-0.141816,0.155973,-0.815692
812,-0.069264,-2.041631,10.171005,56.225636,17.949923,-49.957500,-20.670403,-3.466137,-114.378525,0.528270,-0.122176,0.134594,-0.829390
813,-0.203407,-2.006465,10.613746,62.322754,15.803498,-35.010586,-17.579178,-3.009848,-115.946045,0.520507,-0.103012,0.115740,-0.839681
814,0.029302,-0.979366,10.124405,77.559998,13.362303,-24.702644,-14.196715,-2.476851,-117.072372,0.515560,-0.082779,0.094185,-0.847629
815,0.507424,-0.735340,9.976822,77.078697,6.734306,-14.013611,-10.591582,-2.175969,-117.809464,0.512665,-0.063850,0.069256,-0.853406
816,0.595642,-0.828964,9.977797,72.472809,1.158193,-8.532730,-7.365086,-2.178161,-118.230675,0.511111,-0.049241,0.045375,-0.856902
817,0.435337,-0.430290,9.519423,74.817741,-0.716042,-4.820324,-4.417918,-2.268599,-118.474632,0.510347,-0.036709,0.022996,-0.858877
818,0.405388,0.167209,8.942570,70.889519,-1.380004,-0.668401,-1.518034,-2.342174,-118.584412,0.510276,-0.024334,0.000951,-0.859666
819,0.681838,-0.280044,9.561745,56.924057,-2.064131,2.252149,0.853515,-2.492662,-118.569939,0.510773,-0.014896,-0.017511,-0.859408
820,0.583546,-0.269395,10.079784,50.729694,-3.618161,0.019739,2.529265,-2.704882,-118.533676,0.511221,-0.009007,-0.031024,-0.858842
821,0.303568,-0.213883,9.943708,41.458164,-6.587579,-2.092078,3.786034,-2.867306,-118.565681,0.511072,-0.004629,-0.041163,-0.858539
822,0.311701,-0.159013,9.574027,30.379351,-8.753901,-4.898178,4.600587,-3.025227,-118.680176,0.510264,-0.002228,-0.047964,-0.858676
823,0.313963,-0.099891,9.652257,20.725399,-8.666381,-9.939747,5.011916,-3.196135,-118.926651,0.508457,-0.001790,-0.051800,-0.859526
824,-0.253083,0.225208,9.626750,17.236450,-6.343983,-13.180819,5.260645,-3.143635,-119.310448,0.505566,-0.000471,-0.053433,-0.861131
825,-0.446689,0.518932,9.383114,14.357117,-3.794582,-12.477527,5.545285,-2.788518,-119.736084,0.502275,0.003256,-0.054024,-0.863012
826,-0.252372,0.757729,9.415967,11.481515,0.529373,-11.762065,5.854548,-2.336564,-120.133987,0.499135,0.007831,-0.054408,-0.864779
827,-0.388419,0.717087,9.908377,9.137029,5.336726,-12.575575,6.090370,-1.789951,-120.520256,0.496023,0.012806,-0.053858,-0.866543
828,-0.637642,0.866035,9.920979,9.432356,7.564017,-13.657692,6.281002,-1.070259,-120.925720,0.492671,0.018893,-0.052260,-0.868440
829,-0.573984,0.940517,9.811582,5.835275,6.803502,-14.301884,6.453450,-0.329445,-121.358475,0.489061,0.025061,-0.050482,-0.870427
831,-0.585237,0.942077,9.629777,2.692977,7.220589,-14.453172,6.519265,0.332014,-121.806587,0.485352,0.030178,-0.048278,-0.872463
832,-0.680567,0.831702,9.887987,2.048393,7.185799,-12.098879,6.475832,0.958641,-122.219421,0.481932,0.034600,-0.045416,-0.874346
833,-0.731341,0.825405,10.027104,3.133984,4.866550,-9.108268,6.395875,1.508817,-122.550468,0.479168,0.038337,-0.042598,-0.875850
834,-0.561283,0.653941,10.023480,3.486893,2.182134,-7.286474,6.295741,1.879826,-122.814117,0.477006,0.040658,-0.040371,-0.877030
835,-0.479135,0.616347,9.879612,4.660512,0.711779,-6.230646,6.177359,2.070623,-123.040619,0.475221,0.041548,-0.038750,-0.878030
836,-0.481729,0.602417,10.044204,6.194228,-0.612340,-5.464721,6.100618,2.164888,-123.243164,0.473650,0.041885,-0.037844,-0.878902
837,-0.522459,0.567061,9.907138,6.484290,-2.171462,-5.449552,6.049813,2.207871,-123.438599,0.472148,0.041940,-0.037347,-0.879728
838,-0.288985,0.426850,9.854824,3.952711,-2.197329,-6.764970,5.922863,2.171614,-123.660049,0.470511,0.041068,-0.036602,-0.880678
839,-0.321624,0.434225,9.900970,-2.940111,-2.383706,-10.273116,5.609167,2.085823,-123.962524,0.468334,0.039030,-0.034648,-0.882009
840,-0.342346,0.347194,9.961771,-13.202185,-2.910262,-16.032013,5.002384,2.018935,-124.419205,0.465042,0.035914,-0.030394,-0.884038
841,-0.209796,0.217136,9.838795,-25.708979,-4.138864,-22.209003,3.995028,1.909919,-125.075684,0.460303,0.030852,-0.023243,-0.886921
842,-0.016089,0.017968,9.971591,-37.471191,-4.961993,-27.217106,2.566698,1.685820,-125.916954,0.454179,0.023281,-0.013260,-0.890507
843,-0.112926,-0.085371,9.920428,-39.587860,-5.333505,-28.701843,0.939143,1.412086,-126.860092,0.447151,0.014686,-0.001818,-0.894336
844,-0.026457,-0.250844,9.734159,-39.654839,-3.770004,-26.896696,-0.652919,1.157997,-127.790894,0.440033,0.006567,0.009563,-0.897907
845,-0.000650,-0.428775,9.850965,-36.599480,-2.696354,-21.881002,-2.133108,0.919995,-128.602203,0.433687,-0.000838,0.020253,-0.900835
846,0.053298,-0.564375,9.918777,-28.291550,-0.130343,-14.852618,-3.358930,0.734252,-129.211319,0.428823,-0.006782,0.029222,-0.902890
847,0.153257,-0.605996,9.799704,-23.193762,0.590707,-10.380172,-4.281460,0.582887,-129.629974,0.425412,-0.011296,0.035966,-0.904214
848,0.050191,-0.681182,9.933212,-25.659613,0.789979,-7.833441,-5.090147,0.466411,-129.932404,0.422896,-0.015106,0.041954,-0.905081
849,0.211534,-0.711972,10.118291,-17.182739,1.447022,-2.929167,-5.740265,0.370385,-130.112549,0.421343,-0.018190,0.046763,-0.905512
850,0.357527,-0.695456,9.863749,-7.458851,0.103186,1.666828,-6.024022,0.205894,-130.134018,0.421061,-0.020524,0.048404,-0.905508
851,0.312263,-0.607569,9.823077,3.622561,-0.897908,6.767835,-5.781993,-0.090143,-129.991776,0.422109,-0.022030,0.045377,-0.905141
852,0.421143,-0.597710,9.921673,27.802673,0.319720,17.545286,-4.925314,-0.354466,-129.590118,0.425342,-0.021094,0.037561,-0.904007
853,0.495895,-0.360184,9.814264,54.146008,0.382597,28.273947,-3.328929,-0.510811,-128.835815,0.431501,-0.016561,0.024275,-0.901634
854,0.060993,-0.294292,9.773443,62.866253,1.308240,34.734657,-1.186231,-0.550536,-127.795067,0.439905,-0.008869,0.007182,-0.897972
855,-0.011703,-0.093460,10.104242,61.050968,4.384698,34.336391,0.972606,-0.417543,-126.646004,0.448969,0.000555,-0.009220,-0.893500
856,-0.177903,0.181406,10.155896,56.165127,5.024571,30.568876,2.952186,-0.204248,-125.558426,0.457309,0.010199,-0.023722,-0.888933
857,-0.421295,0.515134,10.096597,39.819420,4.605943,22.157934,4.551565,0.082033,-124.667114,0.463932,0.019072,-0.034837,-0.884980
858,-0.373836,0.687283,10.069341,20.473572,4.544534,13.423465,5.528083,0.393948,-124.058784,0.468324,0.025650,-0.040979,-0.882233
859,-0.160510,0.945767,10.068873,8.554367,2.373779,5.882288,5.977829,0.593755,-123.725563,0.470699,0.029152,-0.043540,-0.880737
860,-0.155554,1.038008,9.828104,6.741540,0.341451,3.797854,6.229464,0.659334,-123.560051,0.471876,0.030755,-0.045160,-0.879970
861,-0.041108,1.004189,9.804833,3.590420,-0.127035,3.253100,6.387828,0.644797,-123.442932,0.472739,0.031343,-0.046404,-0.879422
862,-0.078783,0.992686,9.844424,1.812307,-0.020420,3.266852,6.403793,0.593730,-123.336082,0.473577,0.031061,-0.046708,-0.878964
863,-0.092008,0.977369,9.836990,0.708384,-0.225019,3.292799,6.322276,0.554757,-123.229187,0.474436,0.030468,-0.046216,-0.878548
864,-0.040702,0.977305,9.888291,0.091206,-0.374749,3.268398,6.207576,0.498025,-123.122833,0.475307,0.029600,-0.045544,-0.878142
865,-0.042641,1.017388,9.883583,-0.794335,-0.672589,3.414914,6.104293,0.416279,-123.014717,0.476196,0.028588,-0.045065,-0.877718
866,-0.070564,1.045921,9.828784,-2.450144,-0.987058,3.125000,6.017884,0.353479,-122.909477,0.477049,0.027789,-0.044639,-0.877302
867,-0.013892,1.003841,9.864615,-4.987825,-1.216019,2.519214,5.882172,0.294023,-122.819786,0.477793,0.026803,-0.043826,-0.876969
868,0.009784,0.847640,9.897944,-5.529827,-0.880471,1.742533,5.652414,0.223564,-122.752823,0.478385,0.025331,-0.042347,-0.876763
869,-0.063604,0.880985,9.772298,-5.675162,-0.213692,0.936848,5.397600,0.191853,-122.710350,0.478777,0.024039,-0.040521,-0.876671
870,-0.023345,0.882395,9.780738,-7.189066,-0.112958,0.025867,5.149176,0.189192,-122.695000,0.478946,0.022986,-0.038628,-0.876693
871,0.067308,0.898325,9.865130,-8.882890,-0.149738,-1.136873,4.872611,0.157401,-122.713791,0.478867,0.021581,-0.036649,-0.876857
872,0.061522,0.823104,9.960156,-9.125535,0.173487,-3.106820,4.567970,0.113746,-122.784004,0.478399,0.019953,-0.034512,-0.877237
873,0.004087,0.874780,9.849457,-9.372645,0.003947,-5.806168,4.275841,0.098509,-122.931648,0.477322,0.018575,-0.032363,-0.877936
874,0.095285,0.688579,9.885045,-10.610118,-0.359419,-8.133188,3.952350,0.073279,-123.163612,0.475601,0.016973,-0.030024,-0.878985
875,0.041973,0.520532,9.983522,-9.530075,-0.454266,-8.969378,3.558747,0.034266,-123.448723,0.473477,0.014972,-0.027204,-0.880259
876,-0.019849,0.442300,9.948963,-6.635892,-0.835806,-9.059404,3.198370,0.019799,-123.749863,0.471210,0.013308,-0.024531,-0.881579
877,-0.041091,0.445890,9.836141,-4.809762,-1.476619,-8.159113,2.933455,0.010442,-124.038567,0.469019,0.012090,-0.022562,-0.882817
878,0.012113,0.368606,9.975020,-3.943392,-1.996926,-6.212035,2.722537,-0.029131,-124.280739,0.467181,0.010877,-0.021122,-0.883843
