seq,ax,ay,az,wroll,wpitch,wyaw,roll,pitch,yaw,q0,q1,q2,q3
33,-0.032269,-0.968089,9.897628,-6.727653,3.829712,0.536264,-5.586343,0.185914,-0.018184,0.998811,-0.048730,0.001628,-0.000079
34,-1.067986,-1.226359,10.156526,5.436528,5.093111,9.461833,-5.639250,0.494315,0.132938,0.998779,-0.049196,0.004251,0.001371
35,-1.041187,-1.441289,10.052194,11.862201,3.454267,4.255376,-5.443289,0.935942,0.346714,0.998833,-0.047507,0.008015,0.003410
36,-1.072830,-1.582705,9.648026,10.745222,2.360179,0.960903,-5.255728,1.351546,0.422770,0.998870,-0.045889,0.011613,0.004226
37,-0.828998,-1.902712,9.636567,3.120174,1.493453,-1.234904,-5.349208,1.708328,0.405734,0.998791,-0.046711,0.014726,0.004232
38,-0.671945,-1.975396,9.580420,2.151211,0.393261,-4.504961,-5.669826,1.920689,0.295522,0.998630,-0.049494,0.016612,0.003404
39,-0.666941,-1.898733,9.206774,1.586619,-0.203376,-6.156013,-5.971859,2.033861,0.106227,0.998484,-0.052099,0.017675,0.001850
40,-0.760451,-1.774577,9.091034,-3.554223,-1.239479,-4.450028,-6.286257,2.111445,-0.077183,0.998327,-0.054809,0.018434,0.000338
41,-0.676549,-1.791275,9.492542,-7.607082,-2.348827,-2.931733,-6.712642,2.152124,-0.202069,0.998109,-0.058502,0.018851,-0.000661
42,-0.635505,-1.731965,9.625822,-5.394489,-3.049227,-0.450578,-7.127743,2.142630,-0.255270,0.997892,-0.062109,0.018799,-0.001061
43,-0.460720,-1.773843,9.684402,-6.450430,-2.777612,1.108918,-7.492529,2.100325,-0.238799,0.997696,-0.065289,0.018425,-0.000882
44,-0.384196,-2.052662,9.611849,-8.179303,-2.097050,1.379006,-7.929614,2.042414,-0.194163,0.997449,-0.069103,0.017897,-0.000458
45,-0.200807,-2.252201,9.651793,-5.943822,-1.006013,0.086548,-8.407801,1.976423,-0.171358,0.997162,-0.073269,0.017310,-0.000227
46,-0.142455,-2.131460,9.429881,-0.940313,0.493972,-3.449022,-8.798576,1.900199,-0.234772,0.996917,-0.076662,0.016690,-0.000771
47,-0.288110,-1.915704,9.375523,-0.828921,1.870357,-8.931671,-9.047918,1.865311,-0.451771,0.996750,-0.078801,0.016537,-0.002646
48,-0.486672,-1.835928,9.495128,-1.343158,2.628742,-13.774959,-9.212912,1.900524,-0.841323,0.996616,-0.080177,0.017120,-0.005985
49,-0.419100,-1.826469,9.633343,0.889270,2.769127,-17.461594,-9.323648,1.944639,-1.372806,0.996493,-0.081054,0.017886,-0.010559
50,-0.526032,-1.745098,9.662664,1.102900,2.248786,-21.064306,-9.373352,1.964731,-2.022400,0.996379,-0.081380,0.018526,-0.016186
51,-0.657059,-1.801497,9.779475,-1.555262,0.950224,-21.602955,-9.454688,1.974516,-2.734818,0.996200,-0.081969,0.019133,-0.022359
52,-0.520909,-1.940961,9.733949,-2.183942,-0.800013,-19.231667,-9.611989,1.935272,-3.409417,0.995943,-0.083232,0.019313,-0.028225
53,-0.518951,-2.128718,9.723698,-3.987587,-2.917998,-16.623859,-9.847548,1.825129,-3.992303,0.995627,-0.085215,0.018847,-0.033333
54,-0.674913,-2.320646,9.985456,-5.556238,-5.516649,-10.926056,-10.168656,1.681576,-4.425431,0.995266,-0.087982,0.018027,-0.037154
55,-0.537730,-2.232878,9.962073,-1.514062,-7.802484,-2.925629,-10.433891,1.503628,-4.617760,0.995011,-0.090319,0.016719,-0.038924
56,-0.502432,-2.221553,9.801696,0.239226,-9.558824,3.634325,-10.573316,1.288536,-4.557053,0.994937,-0.091615,0.014851,-0.038550
57,-0.333574,-2.281087,9.864789,0.033226,-10.712423,8.852988,-10.682700,1.043753,-4.293205,0.994950,-0.092680,0.012549,-0.036445
58,-0.088560,-2.063237,9.740149,3.365848,-10.947415,13.742054,-10.712152,0.760537,-3.858100,0.995069,-0.093068,0.009746,-0.032895
59,0.056428,-1.790052,9.495234,4.354648,-9.819757,15.123016,-10.608683,0.468495,-3.321981,0.995302,-0.092288,0.006749,-0.028484
60,0.063246,-1.855278,9.553351,-0.526787,-8.568500,14.002987,-10.550332,0.207862,-2.788746,0.995472,-0.091868,0.004043,-0.024064
61,0.264429,-1.869089,9.778155,-2.441824,-7.115819,12.242069,-10.615362,-0.032797,-2.310762,0.995509,-0.092491,0.001580,-0.020104
62,0.129292,-1.825746,9.788496,-0.920476,-5.470871,10.302618,-10.677908,-0.230476,-1.902650,0.995519,-0.093068,-0.000457,-0.016718
63,0.005938,-1.835886,9.807490,-0.709899,-4.424086,9.918085,-10.703708,-0.342927,-1.540897,0.995542,-0.093303,-0.001725,-0.013667
64,0.016683,-1.734868,9.794315,-0.285691,-4.108219,10.195804,-10.704221,-0.409319,-1.185189,0.995577,-0.093307,-0.002592,-0.010631
65,-0.009742,-1.725410,9.703197,0.312470,-3.639760,10.589492,-10.674497,-0.454170,-0.821032,0.995628,-0.093043,-0.003280,-0.007502
66,-0.051611,-1.815376,9.531533,-0.181929,-3.517686,9.919610,-10.662398,-0.477512,-0.463114,0.995656,-0.092928,-0.003774,-0.004411
67,-0.027438,-1.892513,9.569386,-3.317706,-3.790827,7.909967,-10.739252,-0.507046,-0.148382,0.995601,-0.093585,-0.004284,-0.001703
68,-0.053452,-2.004835,9.605688,-5.594386,-3.731316,5.344887,-10.929391,-0.552116,0.092431,0.995444,-0.095227,-0.004873,0.000344
69,-0.049362,-1.951134,9.567679,-8.399037,-3.490219,2.413584,-11.205304,-0.603806,0.242660,0.995208,-0.097616,-0.005451,0.001593
70,-0.084114,-2.178573,9.744476,-14.708738,-3.546679,-0.876311,-11.640821,-0.665409,0.291233,0.994826,-0.101394,-0.006035,0.001939
71,-0.165590,-2.081887,9.746870,-14.591242,-3.534472,-1.903259,-12.174228,-0.722735,0.270243,0.994341,-0.106023,-0.006522,0.001676
72,-0.094282,-2.055790,9.738944,-14.257065,-3.140783,-1.520252,-12.658635,-0.771556,0.237814,0.993882,-0.110226,-0.006921,0.001320
73,0.082066,-2.440126,9.868604,-14.522574,-2.232857,-4.524798,-13.161558,-0.842016,0.159500,0.993385,-0.114591,-0.007459,0.000541
74,-0.033614,-2.365054,9.801741,-8.125895,-0.912931,-10.085272,-13.576427,-0.915678,-0.064961,0.992957,-0.118200,-0.007868,-0.001507
75,-0.076120,-2.169395,9.618434,-4.558282,-0.084354,-13.314127,-13.770164,-0.963949,-0.440509,0.992742,-0.119905,-0.007890,-0.004825
76,0.140230,-2.450264,9.586864,-7.253066,0.486342,-15.741874,-13.951319,-1.035516,-0.912638,0.992517,-0.121510,-0.008002,-0.009002
77,-0.021944,-2.586009,9.269968,-8.122845,0.910550,-18.422928,-14.252110,-1.118858,-1.469768,0.992131,-0.124161,-0.008097,-0.013937
78,-0.108115,-2.327432,8.846404,-11.246413,0.379527,-16.016544,-14.616892,-1.167114,-2.030457,0.991646,-0.127363,-0.007847,-0.018869
79,0.057912,-2.652032,8.874154,-18.628839,-0.893094,-12.047610,-15.168149,-1.230619,-2.479657,0.990932,-0.132173,-0.007787,-0.022864
80,0.065682,-2.696040,9.594158,-17.861301,-1.408857,-9.314678,-15.832528,-1.321682,-2.811698,0.990067,-0.137955,-0.008041,-0.025887
81,-0.259082,-2.639878,10.691454,-12.378650,-1.369183,-5.187050,-16.295513,-1.345104,-3.032648,0.989447,-0.141974,-0.007865,-0.027856
82,-0.017335,-3.123784,11.949109,-7.611660,-1.440902,-1.340193,-16.536419,-1.318463,-3.126523,0.989127,-0.144055,-0.007459,-0.028649
83,0.254955,-3.823225,12.682912,-6.537408,-1.538561,-1.213541,-16.736456,-1.337255,-3.154149,0.988864,-0.145787,-0.007536,-0.028924
84,0.287871,-4.433690,12.754342,-7.846653,-1.759820,-2.266429,-17.042002,-1.398444,-3.192197,0.988454,-0.148440,-0.007937,-0.029352
85,0.316094,-4.505383,11.559758,-13.591760,-2.966828,-0.722193,-17.565666,-1.487191,-3.212334,0.987747,-0.152976,-0.008541,-0.029679
86,0.736333,-4.364580,9.680108,-27.122139,-5.029879,-1.401230,-18.517477,-1.688712,-3.197218,0.986414,-0.161219,-0.010051,-0.029901
87,0.327054,-3.391461,7.679111,-43.644867,-8.449476,-1.610282,-19.997131,-1.993057,-3.160398,0.984205,-0.174004,-0.012334,-0.030172
88,-0.077805,-2.516724,5.795311,-52.396049,-11.766838,1.613999,-21.821323,-2.253930,-3.033334,0.981291,-0.189686,-0.014297,-0.029706
89,-0.112700,-1.715944,4.922301,-54.456047,-11.905697,5.112946,-23.633694,-2.420363,-2.780975,0.978196,-0.205180,-0.015698,-0.028070
90,-0.077481,-1.739076,4.913113,-47.654995,-11.243445,6.478648,-25.180738,-2.523832,-2.457115,0.975390,-0.218337,-0.016816,-0.025719
91,-0.165845,-2.074075,5.353692,-27.335770,-9.418439,7.165316,-26.242290,-2.550210,-2.115212,0.973392,-0.227316,-0.017479,-0.023022
92,0.227992,-2.833076,6.531842,-2.739380,-4.993256,6.802146,-26.587420,-2.540349,-1.809172,0.972763,-0.230198,-0.017941,-0.020457
93,0.483285,-3.110556,8.034122,13.388126,-0.590961,5.207553,-26.214594,-2.534371,-1.597515,0.973544,-0.226998,-0.018376,-0.018589
94,0.855420,-4.384661,9.577117,15.037651,0.481765,6.596145,-25.573095,-2.520190,-1.427881,0.974829,-0.221516,-0.018687,-0.017015
95,1.232747,-5.360937,10.971416,19.952656,1.809320,5.755361,-24.968773,-2.531443,-1.260408,0.976005,-0.216345,-0.019189,-0.015511
96,0.977146,-5.340952,11.405721,21.815811,3.339823,3.489361,-24.291935,-2.517977,-1.156949,0.977282,-0.210558,-0.019355,-0.014490
97,0.953682,-5.030966,11.023423,14.024437,2.996490,2.863732,-23.705952,-2.475745,-1.103904,0.978361,-0.205547,-0.019163,-0.013863
98,0.791967,-5.026831,10.669697,10.079919,2.473097,2.175540,-23.349865,-2.442333,-1.062113,0.979007,-0.202498,-0.018995,-0.013387
99,0.569232,-4.175872,9.746046,16.856554,2.535660,0.091126,-22.935045,-2.400657,-1.059121,0.979742,-0.198950,-0.018692,-0.013221
100,0.516604,-3.499693,8.827093,15.136836,2.526505,-2.753199,-22.362169,-2.373552,-1.134419,0.980721,-0.194061,-0.018398,-0.013726
101,1.385731,-3.863614,8.900347,5.351076,0.674031,-4.297436,-22.018856,-2.577991,-1.264106,0.981240,-0.191154,-0.019974,-0.015121
102,0.966211,-4.259905,9.082728,1.669018,-1.144872,-5.756220,-22.008253,-2.912872,-1.412346,0.981162,-0.191111,-0.022596,-0.016945
103,1.042296,-4.122386,9.237067,-0.079692,-2.737939,-5.284709,-22.102316,-3.189422,-1.552479,0.980914,-0.191964,-0.024715,-0.018625
104,1.042432,-4.059513,9.206798,-4.964179,-4.771997,-2.145882,-22.275421,-3.494494,-1.614735,0.980529,-0.193480,-0.027193,-0.019708
105,0.875416,-3.932752,9.115625,-6.772401,-6.569537,3.306250,-22.545319,-3.768687,-1.520102,0.980006,-0.195783,-0.029653,-0.019429
106,0.287374,-3.464721,8.947694,-4.678832,-6.297922,6.187197,-22.743341,-3.893125,-1.291431,0.979665,-0.197422,-0.031078,-0.017739
107,0.903414,-3.314033,9.009010,0.639018,-4.404249,7.911493,-22.710943,-3.965269,-1.013272,0.979739,-0.197070,-0.032178,-0.015476
108,1.105613,-3.492684,9.207828,8.573831,-1.935302,7.743640,-22.428211,-4.093793,-0.741673,0.980216,-0.194574,-0.033777,-0.013291
109,1.087459,-3.412312,9.352636,15.086480,0.046875,1.842888,-21.921644,-4.197690,-0.591182,0.981050,-0.190193,-0.034975,-0.012025
110,0.850039,-3.244033,9.418672,16.212612,1.226416,-3.320844,-21.265501,-4.257921,-0.632527,0.982099,-0.184585,-0.035493,-0.012276
111,1.072468,-3.872404,9.372236,12.092615,1.180638,-3.478014,-20.741426,-4.322866,-0.756721,0.982898,-0.180129,-0.035910,-0.013280
112,0.910574,-3.784654,9.331136,10.540750,0.727438,-4.698754,-20.416431,-4.406735,-0.891660,0.983360,-0.177384,-0.036459,-0.014466
113,0.788550,-3.811430,9.195347,8.686749,-0.468887,-4.063970,-20.188454,-4.478761,-1.022832,0.983669,-0.175470,-0.036905,-0.015629
114,0.730048,-3.821787,9.171896,10.194365,-0.778650,-0.133185,-20.020142,-4.517493,-1.069844,0.983905,-0.174041,-0.037189,-0.016037
115,0.974412,-4.011190,9.230154,11.517342,-1.109776,1.778799,-19.828783,-4.554163,-1.020097,0.984188,-0.172382,-0.037606,-0.015603
116,0.810084,-3.407587,9.321323,16.200407,-0.697776,0.722859,-19.463589,-4.596865,-0.963382,0.984725,-0.169227,-0.038106,-0.015058
117,0.766337,-3.236717,9.259879,18.712080,-1.154028,1.504133,-18.886736,-4.613469,-0.918020,0.985564,-0.164253,-0.038389,-0.014500
119,0.788096,-3.196743,9.309104,13.981710,-1.500413,-0.517719,-18.340979,-4.645982,-0.888444,0.986327,-0.159547,-0.038779,-0.014107
120,0.757762,-3.158470,9.424629,10.774217,-1.382917,-2.509052,-17.933571,-4.696979,-0.920796,0.986866,-0.156051,-0.039224,-0.014317
121,0.678172,-2.944529,9.379666,8.671490,-0.580280,-3.316266,-17.592077,-4.723257,-1.004245,0.987307,-0.153139,-0.039381,-0.014954
122,0.685689,-2.805145,9.352847,4.800217,0.074342,-3.288799,-17.312344,-4.715785,-1.110690,0.987666,-0.150764,-0.039213,-0.015766
123,0.681167,-2.809744,9.508706,-1.622403,1.263038,-4.062443,-17.198029,-4.687698,-1.238792,0.987808,-0.149822,-0.038819,-0.016794
124,0.694047,-2.632786,9.565886,-0.032389,2.590594,-3.659599,-17.132416,-4.621955,-1.387824,0.987895,-0.149303,-0.038068,-0.017972
125,0.833636,-2.540173,9.647976,0.445226,3.245216,-4.045658,-16.973707,-4.549053,-1.550871,0.988101,-0.147984,-0.037254,-0.019231
126,0.671720,-2.552505,9.709174,3.051507,3.692312,-4.024294,-16.767139,-4.464728,-1.724457,0.988366,-0.146252,-0.036339,-0.020555
127,0.602773,-2.459770,9.762295,7.585032,3.287941,-3.535999,-16.456232,-4.345435,-1.888315,0.988771,-0.143611,-0.035160,-0.021722
128,0.598453,-2.372642,9.700557,11.315920,2.007690,-2.815762,-15.975656,-4.233891,-2.026515,0.989376,-0.139493,-0.034119,-0.022633
129,0.467911,-2.347674,9.598596,12.637371,0.690816,-0.957185,-15.406248,-4.126384,-2.111033,0.990077,-0.134588,-0.033203,-0.023068
130,0.371828,-2.349127,9.502141,11.851520,-0.380383,1.513288,-14.873517,-4.003170,-2.111538,0.990732,-0.129969,-0.032244,-0.022779
131,0.544871,-2.327502,9.390512,9.641979,-0.943450,3.066680,-14.438357,-3.914107,-2.036874,0.991261,-0.126174,-0.031642,-0.021914
132,0.421768,-2.387350,9.356243,8.653179,-0.465835,4.839806,-14.106606,-3.831222,-1.905105,0.991672,-0.123259,-0.031130,-0.020593
133,0.548266,-2.339608,9.143933,11.412052,0.413098,5.726368,-13.785508,-3.729802,-1.733111,0.992074,-0.120423,-0.030490,-0.018911
134,0.728949,-2.257978,8.564512,10.456822,1.673512,4.351509,-13.461783,-3.668182,-1.575656,0.992453,-0.117572,-0.030171,-0.017399
135,0.546728,-1.975844,8.042628,7.290528,3.655689,3.820488,-13.206173,-3.577484,-1.461422,0.992756,-0.115321,-0.029539,-0.016251
136,0.499584,-1.713578,8.148168,4.774277,5.175511,4.055480,-12.986095,-3.403533,-1.368359,0.993037,-0.113377,-0.028155,-0.015217
137,0.422375,-1.364895,8.549034,8.404452,6.152103,3.045317,-12.639579,-3.174536,-1.302551,0.993443,-0.110341,-0.026279,-0.014342
138,0.160072,-1.222264,9.354079,13.252318,7.955748,4.694843,-12.054951,-2.847458,-1.239172,0.994078,-0.105234,-0.023572,-0.013359
139,0.007716,-1.052179,11.171107,20.767502,8.251777,6.663286,-11.197623,-2.420143,-1.122067,0.994940,-0.097742,-0.020061,-0.011803
140,0.200305,-1.193780,13.211543,31.004934,7.942014,7.195835,-10.024568,-2.003875,-0.956899,0.995976,-0.087498,-0.016689,-0.009845
141,0.033663,-1.387715,14.107557,39.653881,7.330118,8.619522,-8.593440,-1.624884,-0.745779,0.997061,-0.075005,-0.013652,-0.007551
142,0.106939,-1.933410,14.295733,33.046623,5.665332,11.294470,-7.257337,-1.287952,-0.449138,0.997922,-0.063329,-0.010969,-0.004623
143,0.182576,-2.327435,13.770706,16.594095,3.614490,12.434336,-6.473954,-1.043166,-0.073335,0.998363,-0.056469,-0.009053,-0.001153
144,0.010047,-2.468705,12.003388,-3.868564,4.023438,14.021298,-6.455815,-0.828146,0.354130,0.998384,-0.056284,-0.007389,0.002678
145,-0.284848,-2.389490,9.705174,-25.103342,5.051910,15.101653,-7.256496,-0.533118,0.822006,0.997961,-0.063247,-0.005097,0.006864
146,-0.130344,-2.098567,7.800711,-46.672298,5.698904,13.211032,-8.833450,-0.191239,1.266008,0.996969,-0.076987,-0.002515,0.010886
147,-0.345267,-1.412171,6.162163,-56.633537,6.821984,9.982173,-10.850608,0.200453,1.609414,0.995418,-0.094563,0.000413,0.014147
148,-0.310153,-1.027632,5.221262,-54.660522,7.252296,6.979153,-12.811667,0.649547,1.832890,0.993603,-0.111644,0.003848,0.016527
149,-0.132308,-1.024350,5.204357,-42.146404,5.918636,2.576858,-14.388310,0.998275,1.932640,0.991930,-0.125355,0.006530,0.017822
150,-0.186030,-1.090350,5.673134,-23.855137,3.251319,0.286444,-15.358460,1.199216,1.940364,0.990812,-0.133776,0.008107,0.018177
151,-0.346269,-1.568293,6.731883,-4.275986,0.400890,-0.368178,-15.683985,1.320547,1.925010,0.990416,-0.136605,0.009123,0.018212
152,-0.062858,-2.730434,8.521845,9.637402,-2.736412,-2.632651,-15.591491,1.288408,1.887198,0.990536,-0.135798,0.008904,0.017840
153,-0.160858,-2.997835,10.237488,24.936329,-4.837612,-5.882872,-15.087702,1.095610,1.781941,0.991160,-0.131410,0.007436,0.016669
154,-0.392525,-3.464054,11.709923,29.685007,-6.157537,-5.203835,-14.232710,0.879658,1.648272,0.992151,-0.123978,0.005835,0.015223
155,-0.156447,-3.323007,12.034173,27.539558,-6.560380,-6.311657,-13.345685,0.642796,1.511566,0.993115,-0.116262,0.004038,0.013753
156,0.058984,-2.924489,11.879535,21.226805,-5.608204,-8.624960,-12.576886,0.362253,1.313781,0.993909,-0.109562,0.001886,0.011742
157,-0.069121,-2.156370,10.933331,15.435918,-4.079227,-9.130041,-11.943601,0.118301,1.058708,0.994529,-0.104044,0.000066,0.009296
158,-0.129540,-2.060713,9.983900,3.658825,-3.392560,-8.499834,-11.583076,-0.048530,0.796653,0.994872,-0.100904,-0.001123,0.006874
159,-0.012512,-1.694801,9.169851,-2.098490,-3.290323,-9.764827,-11.521678,-0.200484,0.520931,0.994939,-0.100367,-0.002197,0.004347
160,0.108773,-2.112294,9.335824,-6.737304,-3.386457,-10.292796,-11.670265,-0.384914,0.215979,0.994812,-0.101659,-0.003533,0.001534
161,0.051115,-2.534002,9.555076,-8.008400,-3.841182,-9.247537,-12.023739,-0.578902,-0.077233,0.994487,-0.104737,-0.004953,-0.001199
162,0.153083,-2.593931,9.746615,-7.993141,-4.074649,-7.822323,-12.438949,-0.773301,-0.325992,0.994085,-0.108353,-0.006400,-0.003559
163,0.322752,-2.635578,9.802210,-9.297806,-4.105168,-6.925080,-12.861027,-0.993670,-0.534218,0.993656,-0.112033,-0.008095,-0.005604
164,0.511633,-2.556795,9.614939,-9.882236,-3.708427,-7.182961,-13.292671,-1.248718,-0.731603,0.993192,-0.115800,-0.010085,-0.007602
165,0.393677,-2.356127,9.472789,-10.317124,-3.297953,-7.317242,-13.691908,-1.493898,-0.937574,0.992740,-0.119292,-0.011968,-0.009677
166,0.403148,-2.363745,9.540098,-9.021614,-3.291849,-7.462205,-14.030766,-1.707394,-1.149629,0.992335,-0.122264,-0.013562,-0.011776
167,0.228260,-2.375102,9.542375,-5.231215,-2.759301,-6.429154,-14.266325,-1.873672,-1.349338,0.992035,-0.124342,-0.014761,-0.013712
168,0.198324,-2.397526,9.647925,-0.897588,-2.411391,-4.211985,-14.354320,-1.973256,-1.500329,0.991904,-0.125132,-0.015447,-0.015139
169,0.139435,-2.524898,9.820918,2.540322,-2.118413,-1.300519,-14.318310,-2.021211,-1.570929,0.991926,-0.124835,-0.015790,-0.015797
170,0.080093,-2.572147,9.749337,8.183194,-2.046694,2.607377,-14.154063,-2.014340,-1.532157,0.992110,-0.123407,-0.015795,-0.015432
171,0.126135,-2.355891,9.556623,11.360169,-1.967346,6.226871,-13.835212,-1.961807,-1.372644,0.992479,-0.120619,-0.015551,-0.013951
172,0.391039,-2.351019,9.681077,11.328126,-2.238960,7.545272,-13.448886,-1.942632,-1.133145,0.992910,-0.117238,-0.015677,-0.011804
173,0.420972,-2.308648,9.683691,12.681622,-2.258798,7.900812,-13.050782,-1.978052,-0.865526,0.993330,-0.113753,-0.016290,-0.009465
174,0.449227,-2.112811,9.634221,14.199918,-2.229805,8.146485,-12.594424,-2.019361,-0.588791,0.993789,-0.109757,-0.016951,-0.007039
175,0.614868,-1.968573,9.721362,12.864734,-1.930724,6.370309,-12.097175,-2.102080,-0.339809,0.994255,-0.105408,-0.017928,-0.004881
176,0.559694,-1.834770,9.734148,12.576333,-1.318828,4.873375,-11.594948,-2.205337,-0.148989,0.994698,-0.101019,-0.019014,-0.003237
177,0.434445,-1.635402,9.643083,12.696882,-0.816798,4.916102,-11.067211,-2.257259,0.013241,0.995147,-0.096409,-0.019616,-0.001784
178,0.471106,-1.474953,9.636745,11.076349,-0.192695,4.691791,-10.532897,-2.272096,0.167858,0.995585,-0.091740,-0.019877,-0.000361
179,0.431144,-1.400266,9.675733,9.275757,0.376476,4.488843,-10.044273,-2.267237,0.311560,0.995967,-0.087470,-0.019946,0.000976
180,0.342109,-1.311984,9.695601,8.759994,0.782372,5.585983,-9.595527,-2.219245,0.467613,0.996308,-0.083544,-0.019639,0.002446
181,0.369950,-1.324933,9.749158,7.278321,0.663350,6.574782,-9.195912,-2.151390,0.658353,0.996598,-0.080040,-0.019173,0.004221
182,0.475711,-1.354088,9.818867,6.367343,0.432935,6.605300,-8.869834,-2.116507,0.868460,0.996818,-0.077172,-0.018999,0.006127
183,0.517937,-1.350239,9.804319,5.775284,-0.090458,6.847924,-8.596622,-2.125988,1.086219,0.996984,-0.074758,-0.019209,0.008060
184,0.611028,-1.390927,9.806224,3.960959,-0.656576,6.028502,-8.390724,-2.182693,1.298295,0.997091,-0.072924,-0.019823,0.009904
185,0.678611,-1.419625,9.828364,2.584573,-0.836635,3.912043,-8.265047,-2.287639,1.464846,0.997138,-0.071789,-0.020830,0.011309
186,0.682370,-1.345941,9.887789,2.923329,-0.488724,1.009733,-8.153922,-2.409463,1.548152,0.997178,-0.070791,-0.021930,0.011978
187,0.618204,-1.245308,9.891331,2.932484,0.449720,-2.840177,-8.005386,-2.506529,1.515725,0.997255,-0.069492,-0.022740,0.011665
188,0.555419,-1.197327,9.951897,2.572366,1.823053,-7.779598,-7.844510,-2.548058,1.332204,0.997361,-0.068123,-0.022976,0.010075
189,0.373453,-1.130733,9.987122,2.914173,3.532089,-12.082707,-7.674845,-2.510529,0.988950,0.997494,-0.066718,-0.022434,0.007143
190,0.252289,-1.135473,10.006866,4.025047,5.393719,-16.298838,-7.473681,-2.388081,0.497217,0.997654,-0.065069,-0.021077,0.002971
191,0.157011,-1.142552,9.986838,5.213743,7.690237,-20.493607,-7.240616,-2.186166,-0.141455,0.997821,-0.063156,-0.018961,-0.002436
192,0.040927,-1.154908,9.951262,6.460424,9.846371,-23.554613,-6.979612,-1.900930,-0.907827,0.997969,-0.060992,-0.016075,-0.008916
193,-0.072366,-1.117699,9.871998,7.321045,11.889583,-26.255503,-6.695480,-1.533375,-1.776113,0.998072,-0.058591,-0.012451,-0.016252
194,-0.100353,-1.136409,9.869244,6.753402,13.879390,-29.812435,-6.422329,-1.102748,-2.753680,0.998083,-0.056228,-0.008259,-0.024528
195,-0.096318,-1.217456,9.868300,6.205595,15.235936,-32.726952,-6.201856,-0.640991,-3.842459,0.997949,-0.054251,-0.003769,-0.033778
196,-0.140784,-1.167098,9.868340,5.979758,15.771536,-34.481766,-6.019291,-0.168845,-5.010465,0.997662,-0.052518,0.000825,-0.043728
197,-0.128857,-1.185261,10.138404,4.122706,16.134706,-36.524979,-5.882028,0.295902,-6.242111,0.997205,-0.051091,0.005368,-0.054242
198,-0.263174,-1.067836,10.510817,4.437047,15.989743,-37.443588,-5.765169,0.753782,-7.522642,0.996584,-0.049749,0.009854,-0.065186
199,-0.330637,-1.070451,10.622509,5.026054,15.074189,-34.663349,-5.626456,1.203530,-8.769678,0.995856,-0.048132,0.014211,-0.075845
200,-0.416630,-1.099567,10.706091,2.508277,14.672872,-30.151186,-5.534485,1.642782,-9.893195,0.995071,-0.046859,0.018428,-0.085428
201,-0.506275,-1.262757,10.680985,-1.372150,14.279182,-25.317059,-5.583277,2.084908,-10.861526,0.994249,-0.046758,0.022699,-0.093633
202,-0.562973,-1.542483,10.339226,-4.945868,13.226294,-18.931061,-5.822725,2.518683,-11.645261,0.993430,-0.048290,0.026988,-0.100183
203,-0.447111,-1.891567,9.772769,-9.013985,12.206975,-12.523700,-6.283028,2.911005,-12.220554,0.992653,-0.051774,0.031050,-0.104864
204,-0.397997,-1.853367,9.369888,-12.436635,11.247169,-8.267894,-6.912297,3.247589,-12.622306,0.991921,-0.056786,0.034738,-0.107986
205,-0.341196,-1.950086,9.093024,-14.228072,8.843836,-4.805570,-7.624343,3.510550,-12.894549,0.991240,-0.062603,0.037832,-0.109964
206,-0.250523,-1.955219,8.907060,-12.729612,6.046815,-2.864592,-8.332421,3.661728,-13.069897,0.990636,-0.068515,0.039922,-0.111145
207,-0.320554,-1.748011,8.973389,-10.840517,3.226905,-2.121467,-8.918260,3.712499,-13.186142,0.990149,-0.073485,0.041002,-0.111908
208,-0.357472,-1.680273,9.161027,-8.655391,0.570268,-1.645378,-9.352049,3.685877,-13.264367,0.989793,-0.077232,0.041249,-0.112447
209,-0.435834,-1.728285,9.420123,-5.835483,-2.061953,0.402414,-9.657612,3.593082,-13.284417,0.989581,-0.079959,0.040762,-0.112580
210,-0.533674,-1.620370,9.560651,-3.639676,-4.659078,5.209078,-9.833821,3.460388,-13.174548,0.989588,-0.081655,0.039711,-0.111671
211,-0.600992,-1.611773,9.812946,-2.751586,-7.065462,13.072173,-9.906948,3.308882,-12.839473,0.989884,-0.082553,0.038234,-0.108870
212,-0.544709,-1.724927,9.973536,-2.379262,-8.792809,22.169741,-9.942177,3.143921,-12.213485,0.990465,-0.083222,0.036389,-0.103577
213,-0.482205,-1.771904,10.008761,-5.934668,-10.894009,31.624372,-10.030601,2.959820,-11.272291,0.991247,-0.084443,0.034186,-0.095555
214,-0.260520,-2.081077,9.992779,-10.643673,-13.599475,40.381660,-10.290416,2.721776,-10.019789,0.992072,-0.087247,0.031393,-0.084830
215,-0.025064,-2.280808,9.978718,-13.509360,-16.040956,45.260044,-10.734261,2.395078,-8.529715,0.992787,-0.091710,0.027705,-0.072075
216,0.186324,-2.487659,9.893141,-17.759064,-18.483963,46.720356,-11.343016,1.973782,-6.919435,0.993247,-0.097596,0.023071,-0.058343
217,0.423096,-2.567396,9.673247,-19.442158,-20.713341,45.788013,-12.086460,1.452195,-5.281225,0.993369,-0.104578,0.017439,-0.044479
218,0.586403,-2.677659,9.533913,-18.872988,-22.364391,43.186310,-12.870934,0.841483,-3.680851,0.993186,-0.111789,0.010893,-0.031090
219,0.665985,-2.545880,9.419488,-17.238724,-22.457472,38.622269,-13.605582,0.187431,-2.183034,0.992782,-0.118400,0.003880,-0.018722
220,0.633053,-2.479430,9.290521,-15.993568,-20.861355,33.275425,-14.252163,-0.442168,-0.844942,0.992238,-0.124077,-0.002914,-0.007795
222,0.425108,-2.485021,9.156980,-14.579035,-16.396498,25.757193,-14.831805,-0.947935,0.265091,0.991601,-0.129047,-0.008502,0.001226
223,0.262750,-2.523391,9.173404,-15.052070,-11.676808,19.267429,-15.378884,-1.272790,1.112958,0.990914,-0.133682,-0.012306,0.008138
224,0.135200,-2.504711,9.231658,-14.284531,-6.749597,12.866173,-15.890511,-1.428171,1.712064,0.990239,-0.138016,-0.014407,0.013073
225,-0.086553,-2.507246,9.292953,-13.573450,-1.703361,7.024930,-16.338768,-1.411168,2.068956,0.989648,-0.141846,-0.014753,0.016120
226,-0.291212,-2.669171,9.466756,-14.064798,3.701467,2.280828,-16.767799,-1.208680,2.206631,0.989105,-0.145569,-0.013240,0.017511
227,-0.269371,-2.645466,9.637487,-12.059731,7.911495,1.089081,-17.152727,-0.860571,2.201866,0.988629,-0.148953,-0.010290,0.017879
228,-0.269407,-2.578698,9.632631,-9.355791,12.055908,0.217777,-17.419161,-0.407343,2.121622,0.988303,-0.151334,-0.006317,0.017762
229,-0.290639,-2.690003,9.617563,-9.392413,16.377329,0.056029,-17.632368,0.157975,1.981841,0.988033,-0.153265,-0.001288,0.017301
230,-0.226546,-2.875972,9.474678,-7.311053,19.587875,-0.995334,-17.848928,0.804769,1.783702,0.987733,-0.155218,0.004522,0.016466
231,-0.071862,-2.774764,9.258657,-4.602534,20.596512,-2.632652,-18.004765,1.442744,1.520356,0.987490,-0.156614,0.010358,0.015073
232,0.001797,-2.891941,9.073849,-7.286638,19.639757,-4.927643,-18.175297,1.995340,1.193059,0.987216,-0.158092,0.015548,0.013029
233,0.067680,-3.054574,9.053130,-9.622829,16.751181,-7.547657,-18.475441,2.409294,0.804675,0.986765,-0.160637,0.019623,0.010304
234,0.089289,-3.052848,9.074727,-9.119273,11.595078,-9.331464,-18.820675,2.633332,0.386645,0.986264,-0.163536,0.022117,0.007085
235,-0.064854,-3.083105,9.266251,-10.686399,5.729422,-9.223124,-19.160969,2.675895,0.000920,0.985784,-0.166388,0.023022,0.003894
236,-0.165729,-3.323437,9.478149,-11.370014,-0.442946,-7.062413,-19.535107,2.569479,-0.283817,0.985263,-0.169554,0.022516,0.001364
237,-0.190593,-3.496105,9.587156,-7.181347,-6.918974,-4.244028,-19.866512,2.309564,-0.420319,0.984816,-0.172392,0.020484,-0.000136
238,-0.252522,-3.584108,9.621183,-2.635617,-12.517593,-0.821378,-20.055464,1.916192,-0.390059,0.984590,-0.174043,0.017058,-0.000440
239,-0.245450,-3.631886,9.592503,0.446752,-16.065371,1.432414,-20.117916,1.436065,-0.218030,0.984554,-0.174624,0.012671,0.000316
240,-0.165975,-3.618249,9.459432,1.539315,-18.337475,2.193851,-20.116962,0.892356,0.034801,0.984600,-0.174650,0.007614,0.001659
241,-0.183048,-3.430156,9.188517,0.112575,-18.630453,1.910029,-20.115662,0.329330,0.310253,0.984623,-0.174648,0.002357,0.003168
242,-0.229403,-3.385180,8.935842,-3.192580,-16.454483,0.976163,-20.191305,-0.172445,0.556651,0.984505,-0.175283,-0.002333,0.004519
243,-0.391938,-3.317194,8.798133,-5.911779,-13.210364,-0.290356,-20.371653,-0.542050,0.738672,0.984213,-0.176806,-0.005796,0.005508
244,-0.439678,-3.260408,8.777252,-8.907170,-9.865535,0.037718,-20.631931,-0.759014,0.869071,0.983794,-0.179018,-0.007874,0.006275
245,-0.296673,-3.275488,8.843989,-10.170636,-6.546648,2.088562,-20.944126,-0.857409,0.998549,0.983291,-0.181680,-0.008941,0.007209
246,-0.110275,-3.553797,9.064684,-7.292741,-2.936309,2.586014,-21.240961,-0.875193,1.127658,0.982807,-0.184215,-0.009320,0.008264
247,-0.042952,-3.460297,9.340915,-2.014565,0.796105,0.741170,-21.378130,-0.813216,1.191753,0.982584,-0.185392,-0.008902,0.008903
248,0.189250,-3.548470,9.480416,2.493019,5.923215,-2.536518,-21.317324,-0.688856,1.122330,0.982693,-0.184888,-0.007719,0.008513
249,0.155533,-3.514762,9.517081,7.444647,11.248695,-7.898619,-21.101292,-0.496151,0.856024,0.983063,-0.183066,-0.005624,0.006551
250,-0.051106,-3.354445,9.507656,10.635357,16.532974,-11.762262,-20.729330,-0.165700,0.384023,0.983677,-0.179907,-0.002025,0.003036
251,-0.238791,-3.110320,9.481268,9.725904,21.216038,-13.803950,-20.285105,0.332345,-0.235681,0.984367,-0.176091,0.003217,-0.001514
252,-0.358804,-3.052954,9.339535,6.889210,24.309090,-13.425521,-19.897430,0.971270,-0.921952,0.984907,-0.172688,0.009738,-0.006460
253,-0.573210,-2.912681,9.263257,2.732588,23.820793,-10.692589,-19.636829,1.694125,-1.570012,0.985188,-0.170292,0.016902,-0.010978
254,-0.568153,-3.008309,9.187174,-2.577632,21.045135,-6.137702,-19.554331,2.406250,-2.083076,0.985160,-0.169375,0.023775,-0.014344
255,-0.530872,-3.204393,9.153964,-6.368031,16.786278,-3.989199,-19.676987,3.003191,-2.453074,0.984825,-0.170221,0.029470,-0.016607
256,-0.479681,-3.204700,9.085726,-7.552148,11.207496,-3.021762,-19.911304,3.416774,-2.721177,0.984349,-0.172063,0.033459,-0.018224
257,-0.427155,-3.261793,9.133085,-8.936163,4.870327,-1.767452,-20.183670,3.614882,-2.887678,0.983865,-0.174301,0.035456,-0.019270
258,-0.291304,-3.523230,9.223042,-8.554682,-0.639790,-1.555348,-20.491617,3.591193,-2.964869,0.983386,-0.176927,0.035423,-0.019874
259,-0.373034,-3.549062,9.298500,-4.089824,-4.480545,-2.048222,-20.731998,3.405897,-2.992566,0.983048,-0.179031,0.033919,-0.020329
260,-0.259864,-3.569970,9.412789,-1.489647,-7.587328,-0.461260,-20.834068,3.118722,-2.960825,0.982952,-0.179993,0.031425,-0.020481
261,-0.277081,-3.742485,9.472166,0.079004,-11.071015,2.611954,-20.869234,2.753683,-2.817469,0.982988,-0.180425,0.028075,-0.019821
262,-0.287973,-3.762580,9.474185,2.009299,-13.562852,5.070220,-20.860413,2.348253,-2.553279,0.983108,-0.180506,0.024180,-0.018198
263,-0.328985,-3.479127,9.343721,3.014884,-14.591328,6.825034,-20.772251,1.940235,-2.201565,0.983351,-0.179902,0.020113,-0.015842
264,-0.189810,-3.492908,9.220956,0.478796,-15.299356,9.074247,-20.689501,1.535665,-1.776865,0.983576,-0.179329,0.015965,-0.012846
265,-0.244899,-3.399334,8.867027,0.500161,-14.862942,8.941492,-20.668890,1.149106,-1.318422,0.983684,-0.179259,0.011928,-0.009519
266,-0.200514,-3.399499,8.719857,0.268219,-12.322275,6.840293,-20.671953,0.818554,-0.912837,0.983727,-0.179354,0.008456,-0.006555
267,-0.003739,-3.634257,8.678545,-0.184981,-8.747032,4.430858,-20.734016,0.538590,-0.613977,0.983655,-0.179923,0.005587,-0.004425
268,0.118170,-3.867794,8.768665,-1.408773,-5.180945,2.378488,-20.887125,0.311010,-0.426722,0.983425,-0.181255,0.003344,-0.003170
269,0.147913,-3.969816,8.861748,-1.982521,-1.265420,-0.780178,-21.128134,0.149791,-0.364347,0.983046,-0.183330,0.001868,-0.002886
270,0.148608,-4.107442,9.104291,-2.321277,2.929349,-4.157051,-21.386957,0.081401,-0.451507,0.982627,-0.185551,0.001429,-0.003740
271,0.111390,-4.066792,9.195464,-1.990150,6.657185,-6.725183,-21.599825,0.120760,-0.678846,0.982271,-0.187370,0.002145,-0.005622
272,-0.043649,-3.887310,9.273933,-1.645291,8.526444,-8.365552,-21.751801,0.248407,-1.006054,0.982002,-0.188656,0.003785,-0.008213
273,-0.224678,-3.693951,9.208742,-0.024759,9.293983,-9.346724,-21.813179,0.444158,-1.390445,0.981866,-0.189147,0.006101,-0.011181
274,-0.259363,-3.606970,9.260690,2.552529,8.834680,-7.924560,-21.764103,0.670447,-1.769759,0.981901,-0.188673,0.008660,-0.014061
275,-0.134152,-3.499666,9.301995,4.774277,6.509170,-6.061406,-21.604176,0.850897,-2.080316,0.982117,-0.187249,0.010695,-0.016440
276,-0.078572,-3.359181,9.453787,4.430944,2.878993,-3.384932,-21.357145,0.928130,-2.282732,0.982485,-0.185098,0.011648,-0.018073
277,-0.045598,-3.290475,9.503510,3.133907,-0.728294,0.674029,-21.107368,0.915192,-2.335959,0.982878,-0.182953,0.011583,-0.018576
278,0.058118,-3.325502,9.571148,1.005241,-4.355419,4.676532,-20.931490,0.820396,-2.220726,0.983179,-0.181472,0.010559,-0.017755
279,0.023003,-3.284970,9.487148,-5.618802,-7.724662,6.791463,-20.910671,0.645808,-1.968900,0.983253,-0.181344,0.008659,-0.015873
280,-0.104016,-3.207772,9.354883,-13.286575,-10.202765,9.796011,-21.126888,0.441338,-1.602315,0.982959,-0.183252,0.006349,-0.013039
281,-0.119191,-3.352123,9.121049,-15.758574,-11.948423,11.996395,-21.534838,0.235176,-1.128864,0.982348,-0.186793,0.003856,-0.009294
282,-0.109891,-3.457698,8.923599,-15.728057,-12.020142,12.406869,-22.025791,0.032303,-0.602827,0.981571,-0.191026,0.001282,-0.005110
283,-0.123159,-3.554489,8.864658,-13.455954,-10.744468,12.089477,-22.499353,-0.135895,-0.081417,0.980785,-0.195085,-0.001025,-0.000928
284,-0.122993,-3.598084,8.871150,-6.140667,-8.992707,11.885003,-22.812601,-0.246134,0.413770,0.980242,-0.197756,-0.002820,0.003115
285,-0.095260,-3.772110,8.991959,2.525063,-6.220099,10.343819,-22.862955,-0.294325,0.853420,0.980136,-0.198171,-0.003993,0.006791
286,-0.081842,-3.828597,9.117657,8.392246,-2.771508,8.045774,-22.678427,-0.268369,1.194040,0.980429,-0.196582,-0.004345,0.009756
287,-0.116955,-3.681602,9.148248,12.435948,0.172002,4.783347,-22.303988,-0.169590,1.408279,0.981046,-0.193380,-0.003829,0.011771
288,-0.188625,-3.473232,9.168032,13.754349,2.912564,2.338814,-21.790525,-0.003602,1.499255,0.981890,-0.188998,-0.002504,0.012841
289,-0.225561,-3.392375,9.215735,12.782333,5.279274,-0.191171,-21.243717,0.222755,1.483062,0.982776,-0.184335,-0.000475,0.013078
290,-0.411721,-3.174795,9.133041,13.848956,6.043763,-1.463793,-20.695879,0.488311,1.390791,0.983644,-0.179661,0.002012,0.012705
291,-0.509553,-2.809995,9.159698,12.197905,6.203984,-0.928193,-20.120279,0.784931,1.284329,0.984527,-0.174742,0.004786,0.012232
292,-0.513741,-2.681655,9.217767,8.961416,5.238073,0.565688,-19.548243,1.102141,1.217806,0.985366,-0.169848,0.007674,0.012105
293,-0.506414,-2.563858,9.149420,4.887195,2.735556,3.660265,-19.090090,1.375627,1.245181,0.986005,-0.165930,0.010036,0.012705
294,-0.586099,-2.191350,9.011420,1.136470,0.335275,7.220249,-18.753447,1.587868,1.405968,0.986442,-0.163065,0.011671,0.014361
295,-0.387575,-2.094938,9.092762,-7.825289,-1.282206,9.698352,-18.577768,1.739365,1.685956,0.986631,-0.161597,0.012603,0.016967
296,-0.259733,-2.320884,9.102718,-12.757080,-2.812709,9.136812,-18.660118,1.791311,2.012612,0.986454,-0.162348,0.012575,0.019862
297,-0.159990,-2.283165,9.047201,-14.403552,-3.465805,5.779776,-18.885452,1.748576,2.288553,0.986089,-0.164310,0.011773,0.022200
298,-0.040504,-2.330296,9.071050,-13.933568,-3.224709,0.408518,-19.129642,1.619376,2.429527,0.985728,-0.166405,0.010409,0.023251
299,0.185115,-2.666886,9.169558,-12.186383,-2.931730,-4.266918,-19.381071,1.395869,2.408458,0.985397,-0.168529,0.008467,0.022765
300,0.304697,-2.966564,9.210264,-7.344623,-2.507524,-8.872160,-19.599487,1.089345,2.235749,0.985145,-0.170348,0.006045,0.020842
301,0.322528,-3.024064,9.210481,-2.972847,-1.622487,-12.006411,-19.702686,0.752853,1.933113,0.985075,-0.171174,0.003586,0.017744
302,0.355616,-3.320772,9.483144,-0.223129,-0.764917,-11.487597,-19.714090,0.439169,1.578744,0.985128,-0.171225,0.001417,0.014229
303,0.390275,-3.558563,9.755458,2.482337,0.330698,-10.851285,-19.676403,0.172680,1.230663,0.985233,-0.170872,-0.000350,0.010839
304,0.380515,-3.745735,9.947316,4.429418,2.058045,-10.854337,-19.593769,-0.031665,0.876266,0.985389,-0.170149,-0.001573,0.007488
305,0.248140,-3.914331,9.965672,5.601328,4.182134,-11.370100,-19.496225,-0.145505,0.492184,0.985553,-0.169310,-0.001979,0.004018
306,0.190048,-3.930786,9.748475,4.820054,5.376933,-10.507952,-19.429346,-0.171455,0.095379,0.985659,-0.168740,-0.001615,0.000568
307,0.059962,-3.995509,9.431152,4.159329,6.457289,-8.650901,-19.428600,-0.118081,-0.270969,0.985658,-0.168737,-0.000617,-0.002505
308,-0.079029,-4.123265,9.111404,4.420262,7.145480,-6.264355,-19.496483,0.022942,-0.580385,0.985549,-0.169316,0.001055,-0.004958
309,-0.203017,-4.032394,8.843476,4.975699,6.757895,-4.788784,-19.588539,0.223243,-0.831357,0.985400,-0.170092,0.003154,-0.006818
310,-0.243461,-3.945996,8.691552,4.568277,5.038177,-1.076208,-19.676182,0.435873,-0.990081,0.985256,-0.170825,0.005224,-0.007863
311,-0.315384,-4.136695,8.695512,5.337343,3.182653,3.266576,-19.775642,0.644152,-1.003635,0.985101,-0.171662,0.007041,-0.007663
312,-0.287160,-4.170568,8.785516,6.719832,1.308816,5.354042,-19.857374,0.825553,-0.896622,0.984977,-0.172357,0.008445,-0.006465
313,-0.267716,-4.146733,8.981750,6.535195,-0.389539,6.710589,-19.937742,0.958869,-0.716741,0.984857,-0.173052,0.009324,-0.004712
314,-0.261516,-4.250207,9.250342,5.590647,-1.480576,8.611892,-20.013523,1.053973,-0.470468,0.984744,-0.173718,0.009771,-0.002445
315,-0.207668,-4.302650,9.361099,5.546395,-2.191657,8.981167,-20.057320,1.112387,-0.178119,0.984676,-0.174117,0.009830,0.000160
316,-0.134335,-4.236619,9.518687,5.787491,-2.426650,7.935907,-20.077734,1.130158,0.109120,0.984640,-0.174317,0.009545,0.002657
317,-0.125108,-4.086062,9.504044,5.447210,-2.470901,6.765522,-20.063410,1.117384,0.363844,0.984654,-0.174214,0.009049,0.004825
318,-0.022263,-3.994769,9.327353,5.262573,-2.470901,5.657701,-20.038300,1.075350,0.583524,0.984685,-0.174014,0.008355,0.006647
319,0.047776,-3.967348,9.075624,5.579966,-2.347301,4.887108,-20.051224,0.990417,0.772423,0.984661,-0.174135,0.007337,0.008142
320,0.067523,-3.819298,9.005746,5.663891,-1.591968,3.887628,-20.053511,0.899322,0.928859,0.984653,-0.174160,0.006317,0.009348
321,0.053948,-3.653211,8.977277,6.915150,-0.766443,2.651629,-19.967583,0.834602,1.042579,0.984779,-0.173423,0.005595,0.010223
322,0.012180,-3.597395,9.018685,7.160824,-0.294931,2.401377,-19.828478,0.793516,1.126203,0.984984,-0.172229,0.005129,0.010873
323,-0.087833,-3.568175,9.111518,5.993491,0.030091,2.621110,-19.691525,0.788033,1.205195,0.985182,-0.171054,0.004977,0.011538
325,-0.168179,-3.405489,9.163304,4.990958,-0.470413,3.051421,-19.563494,0.810853,1.295907,0.985361,-0.169959,0.005051,0.012346
326,-0.264984,-3.292571,9.182492,3.985373,-0.958709,3.942561,-19.433643,0.850882,1.413489,0.985536,-0.168852,0.005236,0.013411
327,-0.245247,-3.245654,9.146832,1.249389,-1.302042,4.787924,-19.351608,0.902180,1.563225,0.985634,-0.168158,0.005468,0.014770
328,-0.190189,-3.302247,9.141455,-1.086803,-1.508042,5.566145,-19.366465,0.942413,1.741279,0.985585,-0.168299,0.005550,0.016361
329,-0.200149,-3.251748,9.099945,-1.884861,-1.587390,5.517316,-19.439714,0.970592,1.932224,0.985445,-0.168942,0.005501,0.018048
330,-0.230840,-3.264583,9.078933,-3.285661,-0.973968,4.665850,-19.544048,1.008457,2.106102,0.985259,-0.169852,0.005552,0.019604
331,-0.156908,-3.319915,9.136798,-4.468254,-0.452102,3.881525,-19.692596,1.045166,2.247874,0.985009,-0.171142,0.005630,0.020885
332,-0.297217,-3.361091,9.276059,-5.164076,-0.493302,3.803702,-19.867043,1.088620,2.373441,0.984719,-0.172654,0.005783,0.022038
333,-0.397336,-3.350089,9.326394,-5.437216,-1.126561,4.197391,-20.043993,1.155950,2.507861,0.984417,-0.174193,0.006123,0.023304
334,-0.414527,-3.419743,9.348779,-5.751556,-1.726250,5.271642,-20.225554,1.226519,2.672278,0.984096,-0.175774,0.006440,0.024833
335,-0.336307,-3.433431,9.341072,-5.666105,-2.226753,5.611924,-20.411751,1.276146,2.865125,0.983760,-0.177393,0.006527,0.026576
336,-0.318253,-3.500514,9.300946,-5.365497,-1.840694,2.711140,-20.596395,1.292903,3.018619,0.983434,-0.178990,0.006388,0.027930
337,-0.171375,-3.764124,9.179868,-5.261734,-1.723198,2.389169,-20.819067,1.273821,3.118014,0.983062,-0.180902,0.006014,0.028765
338,-0.055201,-3.807934,9.137491,-6.737304,-0.125554,-0.531452,-21.105776,1.224728,3.156088,0.982603,-0.183352,0.005460,0.029028
339,-0.003513,-3.704373,9.227962,-7.433125,2.318979,-6.429152,-21.408747,1.162855,3.033535,0.982154,-0.185931,0.005051,0.027892
340,-0.225457,-3.652780,9.325157,-7.236281,3.500045,-7.970338,-21.677170,1.138145,2.774460,0.981779,-0.188215,0.005200,0.025643
341,-0.390441,-3.544984,9.364450,-6.256638,2.738608,-4.353894,-21.882761,1.189092,2.545546,0.981483,-0.189974,0.005970,0.023776
342,-0.453014,-3.200210,9.444211,-5.550134,2.540238,-3.990725,-21.980539,1.281466,2.385631,0.981341,-0.190818,0.007007,0.022565
343,-0.541934,-3.033613,9.428351,-3.410787,1.386638,-2.029911,-21.950245,1.386356,2.272002,0.981400,-0.190567,0.008100,0.021764
344,-0.421139,-3.000271,9.371902,-2.563899,-0.684042,2.639421,-21.806564,1.482967,2.282915,0.981622,-0.189351,0.008937,0.022007
345,-0.100145,-2.964057,9.311967,-2.467766,-1.372235,4.217228,-21.609367,1.499291,2.408892,0.981919,-0.187674,0.008909,0.023098
346,0.120806,-2.975889,9.228398,-3.644254,-0.552813,3.313880,-21.445272,1.412130,2.544109,0.982172,-0.186264,0.007975,0.024103
347,0.145199,-3.036488,9.182831,-4.974861,0.545853,2.251836,-21.383757,1.315503,2.635487,0.982266,-0.185725,0.007011,0.024725
348,0.126524,-3.074701,9.313326,-6.532830,0.982268,1.775748,-21.417875,1.255686,2.692422,0.982206,-0.186010,0.006399,0.025119
349,-0.090695,-3.131930,9.379891,-5.208327,1.090609,1.902399,-21.460951,1.240742,2.740335,0.982127,-0.186379,0.006183,0.025508
350,-0.376031,-3.177901,9.360362,-3.148327,1.485823,0.970059,-21.435553,1.311301,2.772793,0.982152,-0.186177,0.006741,0.025899
351,-0.468827,-3.332111,9.465200,-2.159528,0.181157,1.675036,-21.382080,1.418660,2.806878,0.982216,-0.185741,0.007618,0.026361
352,-0.537787,-3.279415,9.602283,-0.368092,-0.963287,2.692829,-21.308315,1.507539,2.882251,0.982304,-0.185131,0.008275,0.027145
353,-0.607587,-3.229688,9.648499,3.049981,-1.884946,4.114991,-21.127338,1.592528,3.008858,0.982551,-0.183606,0.008844,0.028354
354,-0.477780,-3.238149,9.513140,5.738662,-4.125004,5.782827,-20.847433,1.634113,3.202641,0.982941,-0.181229,0.008964,0.030060
355,-0.159359,-3.298176,9.596661,7.754410,-7.053255,6.768575,-20.510141,1.543615,3.467426,0.983413,-0.178334,0.007863,0.032165
356,-0.247155,-3.128407,9.497547,11.497504,-8.832483,7.255344,-20.077530,1.354858,3.781372,0.984017,-0.174591,0.005885,0.034545
357,-0.146528,-3.121908,9.367769,13.504096,-10.152409,8.581374,-19.555033,1.130811,4.139395,0.984723,-0.170055,0.003585,0.037264
358,0.166266,-3.185989,9.215977,15.431339,-10.279060,9.141388,-19.012802,0.841692,4.531522,0.985422,-0.165311,0.000709,0.040203
359,0.285934,-3.157095,9.158914,14.633282,-7.041048,5.761464,-18.495922,0.532272,4.858834,0.986073,-0.160756,-0.002232,0.042583
360,0.299806,-3.092426,9.266864,13.047845,-3.508530,1.754384,-18.032534,0.283933,5.031822,0.986672,-0.156671,-0.004434,0.043742
361,0.313361,-3.060205,9.395972,12.750289,-0.024843,-1.532460,-17.601772,0.101635,5.052372,0.987259,-0.152891,-0.005868,0.043693
362,0.322923,-3.055265,9.478317,12.609903,3.115512,-6.578694,-17.186142,-0.008699,4.906956,0.987869,-0.149276,-0.006471,0.042316
363,0.074292,-2.971434,9.531331,11.907977,5.270118,-10.591878,-16.787352,-0.018221,4.591786,0.988495,-0.145850,-0.006005,0.039608
364,-0.096412,-2.961835,9.641363,13.304200,5.196873,-10.890960,-16.377810,0.050354,4.198703,0.989137,-0.142358,-0.004783,0.036321
365,-0.321068,-3.275224,9.812385,14.813341,4.382030,-8.675317,-15.969131,0.170196,3.841274,0.989741,-0.138877,-0.003185,0.033396
366,-0.279093,-3.245856,10.293521,15.156673,1.972594,-7.939820,-15.561110,0.272875,3.546365,0.990307,-0.135387,-0.001831,0.030980
367,-0.465845,-2.782380,11.038215,21.594553,-0.589435,-3.386458,-14.952538,0.330029,3.359011,0.991058,-0.130143,-0.000959,0.029434
368,-0.585423,-3.051819,11.689195,23.805618,-6.221625,2.247258,-14.152551,0.328583,3.370765,0.991939,-0.123220,-0.000779,0.029540
369,-0.472436,-3.599529,13.097459,18.217680,-8.934720,8.195314,-13.473420,0.227892,3.601619,0.992596,-0.117311,-0.001712,0.031441
370,-0.365187,-3.882926,13.931412,24.318329,-9.329935,12.899742,-12.846209,0.084014,4.013943,0.993110,-0.111827,-0.003190,0.034883
371,-0.178425,-4.025786,13.742450,48.800274,-8.312142,15.591475,-11.766918,-0.055760,4.540894,0.993953,-0.102406,-0.004545,0.039358
372,0.094980,-3.898856,13.027956,68.287872,-6.058352,12.341254,-10.025974,-0.196450,5.043308,0.995215,-0.087222,-0.005551,0.043679
373,0.426795,-3.644889,12.465095,74.992783,0.664876,8.053404,-7.918755,-0.284061,5.392166,0.996514,-0.068856,-0.005718,0.046755
374,0.663832,-2.710783,11.658767,84.017113,3.408490,-0.046208,-5.555429,-0.316250,5.513248,0.997672,-0.048272,-0.005084,0.047903
375,0.556477,-1.796826,10.419900,96.354218,8.766014,-5.885924,-2.784464,-0.262146,5.394717,0.998597,-0.024162,-0.003428,0.046991
376,0.170854,-1.152846,10.735553,84.416908,14.930752,-8.054264,0.037902,0.042467,5.147754,0.998991,0.000314,0.000385,0.044907
377,-0.155946,-0.618499,10.532440,67.358582,11.500472,-5.608206,2.396444,0.490919,4.927057,0.998852,0.020708,0.005178,0.042884
378,-0.104263,0.213426,10.308750,61.657726,9.004058,-3.218606,4.429163,0.863107,4.801172,0.998360,0.038292,0.009138,0.041563
379,-1.020318,1.000923,9.275904,58.793560,5.381510,4.299628,6.449489,1.236673,4.845201,0.997492,0.055744,0.013143,0.041594
380,-0.268345,1.996984,8.939455,35.738354,-4.433242,9.757862,8.225958,1.368653,5.090062,0.996408,0.071119,0.015086,0.043431
381,0.012803,2.480940,7.843723,12.893724,-11.067965,13.819876,9.428642,1.028887,5.449823,0.995485,0.081666,0.012845,0.046641
382,0.109295,2.601110,7.416084,-7.199659,-9.314677,12.110839,10.006718,0.540468,5.828583,0.994911,0.086861,0.009127,0.050237
383,0.002262,2.585808,6.961089,-28.724363,-10.117312,5.341835,9.913372,0.112639,6.066124,0.994869,0.086230,0.005550,0.052629
384,0.777766,2.335285,6.877655,-48.858948,-6.970854,-2.718103,9.096933,-0.344018,6.066970,0.995437,0.079349,0.001208,0.052990
385,0.107092,1.899779,6.878914,-63.074463,-1.300517,-8.028323,7.610031,-0.622052,5.874125,0.996452,0.066551,-0.002009,0.051485
386,-0.175111,1.786532,6.917318,-69.971649,0.602313,-13.588797,5.725944,-0.553945,5.513879,0.997573,0.050121,-0.002420,0.048280
387,-0.022509,0.968961,6.630257,-67.141060,2.557023,-17.032810,3.681447,-0.390043,5.005172,0.998520,0.032239,-0.001996,0.043751
388,0.147131,0.084297,6.051081,-48.070045,4.313363,-14.003848,1.757539,-0.257325,4.493414,0.999110,0.015413,-0.001642,0.039232
389,0.019116,-0.727481,5.288113,-22.565727,5.119051,-11.223611,0.271387,-0.116592,4.078607,0.999363,0.002403,-0.000933,0.035587
390,-0.328624,-0.766583,4.157246,1.398929,5.862178,-11.217506,-0.585820,0.180661,3.705274,0.999463,-0.005161,0.001410,0.032337
391,0.092750,-1.366359,3.266017,18.455723,5.434918,-11.804989,-1.061892,0.436175,3.316695,0.999530,-0.009373,0.003536,0.028973
392,-0.119020,-1.228852,2.526909,32.256191,3.567186,-10.530842,-1.360798,0.587350,2.935055,0.999587,-0.012002,0.004819,0.025669
393,-0.222502,-1.251548,2.543401,36.553196,1.084505,-8.583760,-1.419868,0.806879,2.603788,0.999638,-0.012547,0.006757,0.022805
394,-0.189038,-0.879834,3.294594,38.501801,-0.586383,-10.773463,-1.108625,0.966673,2.270567,0.999720,-0.009839,0.008242,0.019893
395,-0.164029,-0.792617,4.669295,32.314175,-2.202338,-13.466722,-0.482119,1.000422,1.860006,0.999821,-0.004348,0.008661,0.016267
396,-0.427516,0.541490,6.638606,26.442417,-3.947997,-17.086216,0.404361,0.990092,1.350646,0.999887,0.003426,0.008681,0.011755
397,-0.687635,0.880825,9.266434,11.332705,-3.807612,-13.790216,1.278198,1.016440,0.840682,0.999872,0.011088,0.008951,0.007237
398,-0.676279,2.126945,11.317818,-2.449453,-3.387983,-13.662040,1.775798,1.048169,0.388106,0.999833,0.015464,0.009198,0.003245
399,-0.942501,2.250708,13.146143,-21.769196,-3.874753,-8.400649,1.795437,1.072363,0.025036,0.999834,0.015665,0.009360,0.000072
400,-0.670168,2.695776,14.304338,-29.761995,-4.591938,-3.420030,1.351083,1.050660,-0.168517,0.999887,0.011803,0.009151,-0.001579
401,-0.183831,1.471183,14.810319,-34.651062,-3.827449,3.333717,0.606320,0.941107,-0.166828,0.999951,0.005303,0.008205,-0.001499
402,-0.218859,1.504026,14.420625,-31.731960,-3.220131,3.078888,-0.256878,0.812724,-0.055967,0.999972,-0.002238,0.007093,-0.000472
403,-0.189962,0.387189,14.656082,-35.076794,-2.129094,5.749257,-1.190559,0.721925,0.095185,0.999926,-0.010394,0.006291,0.000896
404,-0.054310,-0.115375,14.055516,-29.118052,-1.114354,4.812339,-2.195963,0.658778,0.273870,0.999797,-0.019176,0.005702,0.002500
405,0.139013,-1.190652,14.072859,-27.100777,0.010253,2.792014,-3.179427,0.603306,0.401390,0.999595,-0.027760,0.005166,0.003647
406,-0.300141,-1.383174,13.715762,-19.353655,1.392742,2.193851,-4.083152,0.617637,0.482044,0.999341,-0.035647,0.005237,0.004396
407,0.283994,-2.195341,14.047225,-15.702116,1.592638,1.565170,-4.850971,0.644225,0.538871,0.999076,-0.042345,0.005418,0.004936
408,-0.073849,-2.037595,13.864190,-4.800904,2.677571,-0.546711,-5.400071,0.664125,0.547789,0.998860,-0.047133,0.005564,0.005048
409,0.051281,-1.851642,14.088113,-0.241440,3.007171,-0.624534,-5.624320,0.726338,0.517945,0.998764,-0.049089,0.006109,0.004825
410,-0.251003,-2.131027,13.615369,6.959402,3.413067,2.097717,-5.646075,0.821446,0.530343,0.998748,-0.049283,0.006932,0.004975
411,-0.295527,-1.841738,13.327934,9.936481,2.077882,0.869347,-5.501126,0.936218,0.568907,0.998800,-0.048026,0.007922,0.005351
412,-0.445028,-1.764508,12.637094,13.670424,4.539200,3.632798,-5.223196,1.090502,0.631692,0.998899,-0.045615,0.009255,0.005940
413,-0.261738,-1.520105,12.331364,15.181088,7.293496,4.456798,-4.846126,1.328301,0.747050,0.999014,-0.042350,0.011305,0.007003
414,-0.719413,-1.362346,12.342936,15.828080,9.907407,8.956751,-4.405415,1.684682,0.945352,0.999114,-0.038551,0.014373,0.008808
415,-0.188048,-1.347334,12.270841,20.079311,6.741110,14.518751,-3.877807,2.019220,1.313887,0.999200,-0.034028,0.017221,0.012053
416,-0.085263,-1.121671,11.613394,37.699165,3.927304,17.967340,-2.983362,2.168986,1.840912,0.999345,-0.026328,0.018500,0.016549
417,-0.014713,-0.388436,10.999245,39.200676,-1.318828,20.920008,-1.694701,2.146176,2.485319,0.999474,-0.015189,0.018401,0.021958
418,0.118992,0.188454,10.304786,35.146294,-6.751122,21.228245,-0.338640,1.901826,3.191743,0.999469,-0.003416,0.016507,0.027895
419,0.464724,0.750512,9.149551,31.767899,-9.526781,17.939873,0.988911,1.437164,3.846653,0.999325,0.008203,0.012823,0.033450
420,-0.057061,1.810187,8.081650,18.527443,-7.330973,11.607285,2.251134,0.997025,4.338542,0.999059,0.019299,0.009436,0.037672
421,-0.016578,2.115068,7.811507,-12.041420,-3.735893,8.943019,2.973015,0.749879,4.683602,0.998814,0.025652,0.007596,0.040677
422,-0.200112,2.184357,7.904418,-25.736601,-0.182013,3.970028,2.975182,0.669304,4.904806,0.998737,0.025686,0.006944,0.042623
423,-0.268855,2.078799,7.604932,-35.606285,1.589586,5.607346,2.569492,0.734391,5.072912,0.998755,0.022115,0.007393,0.044099
424,-0.041752,1.710308,7.629915,-47.409321,1.865779,3.484784,1.743675,0.808428,5.232929,0.998822,0.014878,0.007741,0.045536
425,0.116745,1.047631,7.663377,-46.177898,3.640429,0.437511,0.586038,0.847110,5.305943,0.998890,0.004766,0.007621,0.046247
426,0.054149,0.343008,7.204530,-36.683590,3.915097,-0.769496,-0.590676,0.899780,5.304895,0.998883,-0.005512,0.007605,0.046316
428,0.436320,-0.213543,6.073893,-24.242718,2.994964,-2.429704,-1.588818,0.857169,5.251732,0.998821,-0.014192,0.006836,0.045912
429,0.126801,-0.960398,5.169867,-5.316668,2.894252,-8.032902,-2.341789,0.768764,5.073067,0.998783,-0.020711,0.005796,0.044383
430,-0.024441,-1.228693,4.045871,10.682659,3.788445,-11.420456,-2.839247,0.799714,4.737143,0.998807,-0.025041,0.005947,0.041487
431,-0.068822,-1.394597,3.822161,21.072687,3.138401,-13.658989,-3.099919,0.888409,4.303195,0.998891,-0.027320,0.006729,0.037738
432,-0.161130,-1.457662,2.998446,30.214504,1.801690,-13.723076,-3.231529,0.999441,3.828363,0.998998,-0.028471,0.007772,0.033634
433,-0.427088,-1.263178,3.704372,31.741957,1.612475,-13.356855,-3.145792,1.211314,3.359247,0.999129,-0.027745,0.009757,0.029588
434,-0.590989,-0.989278,4.404011,30.425083,1.455305,-9.773982,-2.736903,1.530785,2.961251,0.999284,-0.024217,0.012733,0.026148
435,-0.537805,-0.761997,6.013032,29.825392,-0.514665,-6.633627,-2.087205,1.780184,2.681964,0.999433,-0.018570,0.015101,0.023679
436,-0.758947,-0.008437,7.352431,24.925648,-1.242531,0.861718,-1.239025,1.939748,2.588026,0.999539,-0.011190,0.016677,0.022761
437,-0.489834,0.809427,9.943556,12.721296,-1.384442,3.269629,-0.362980,2.029470,2.668294,0.999566,-0.003579,0.017631,0.023335
438,-0.806639,1.077441,11.379115,6.971610,-2.185553,6.527479,0.310768,2.049854,2.844611,0.999529,0.002267,0.017949,0.024769
439,-0.229750,1.520079,13.046422,-6.001809,-2.629597,5.471539,0.635892,1.992674,3.055421,0.999481,0.005083,0.017530,0.026560
440,-0.414965,1.931812,13.810545,-15.198560,-2.176398,5.004606,0.629157,1.878103,3.241256,0.999453,0.005024,0.016537,0.028187
441,0.045334,1.526675,14.458384,-23.229506,-2.980561,1.475140,0.309609,1.733410,3.359595,0.999453,0.002257,0.015199,0.029269
442,-0.159667,0.705543,14.799047,-26.708614,-3.035494,-1.537037,-0.327440,1.554332,3.365585,0.999472,-0.003254,0.013474,0.029402
443,0.125202,0.259679,14.971067,-29.197401,-1.517198,-5.956117,-1.168844,1.398365,3.245441,0.999469,-0.010541,0.011908,0.028439
444,0.053713,-0.395175,15.291592,-27.215219,-0.302562,-8.902678,-2.089513,1.270493,3.000939,0.999424,-0.018516,0.010604,0.026381
445,0.046603,-0.688181,15.503628,-24.355639,0.788475,-11.203774,-2.975278,1.187948,2.666659,0.999332,-0.026194,0.009756,0.023529
446,-0.218889,-1.487280,15.358120,-18.106974,1.093661,-9.920471,-3.765371,1.153372,2.312661,0.999199,-0.033048,0.009394,0.020499
447,-0.361529,-1.378284,15.222122,-9.035348,2.442579,-7.047153,-4.322694,1.187905,2.024593,0.999072,-0.037889,0.009691,0.018044
448,-0.328842,-1.603996,14.786300,-2.602046,2.018371,-6.668723,-4.603582,1.251374,1.789234,0.999005,-0.040326,0.010283,0.016038
449,-0.709615,-1.817754,13.887088,6.332247,2.616534,-3.253703,-4.663245,1.358339,1.615576,0.998996,-0.040843,0.011269,0.014568
450,-0.658778,-2.100279,12.924650,14.407443,1.906979,0.959377,-4.503937,1.509929,1.567303,0.999040,-0.039467,0.012627,0.014183
451,-0.508254,-1.622324,12.182044,18.466406,1.731498,2.550917,-4.145514,1.634557,1.616720,0.999137,-0.036362,0.013743,0.014613
452,-0.552844,-1.667319,11.399280,18.599161,1.261513,3.542769,-3.706086,1.740763,1.710076,0.999243,-0.032555,0.014698,0.015404
453,-0.487385,-1.748262,11.428974,18.437412,0.378002,9.490826,-3.310911,1.826331,1.918926,0.999308,-0.029148,0.015445,0.017196
454,-0.081317,-1.676039,11.207459,24.524328,-1.746087,10.783284,-2.838523,1.803736,2.249876,0.999369,-0.025069,0.015246,0.020014
455,-0.320949,-1.723644,11.178761,31.763319,-3.319316,10.653581,-2.167191,1.695586,2.601510,0.999448,-0.019240,0.014361,0.022974
456,-0.191083,-1.093382,11.130602,42.490570,-4.654501,13.456706,-1.152144,1.552292,2.999651,0.999512,-0.010404,0.013277,0.026306
457,-0.020242,-0.324467,10.569042,48.424896,-5.803521,16.638260,0.274323,1.327863,3.498686,0.999465,0.002039,0.011655,0.030497
458,0.154766,0.677943,9.561275,45.885757,-6.873196,13.616928,1.935289,1.014671,3.998351,0.999215,0.016568,0.009437,0.034729
459,0.181909,1.663373,8.779698,32.346222,-6.387951,12.203921,3.558090,0.662352,4.420565,0.998765,0.030799,0.006970,0.038369
460,0.120999,2.540348,7.821687,14.090053,-4.549212,11.707995,4.911082,0.359777,4.809933,0.998203,0.042675,0.004932,0.041789
461,-0.209783,2.923338,6.893792,-13.941197,-3.564990,7.055449,5.716069,0.190778,5.114686,0.997764,0.049738,0.003886,0.044481
462,-0.116292,3.033867,6.578550,-39.620995,-3.351361,4.806236,5.735268,0.106607,5.304645,0.997680,0.049932,0.003243,0.046171
463,-0.299563,2.728177,6.637394,-55.650845,-1.250161,7.716175,5.024082,0.086704,5.507238,0.997887,0.043742,0.002861,0.047962
464,-0.053393,2.383578,6.851134,-69.066772,0.625201,9.725819,3.705604,0.119964,5.796337,0.998200,0.032238,0.002680,0.050501
465,0.442218,1.965111,6.884480,-78.493942,1.554490,6.162783,1.900127,0.060697,6.064651,0.998463,0.016530,0.001406,0.052883
466,0.400798,1.168750,6.768457,-70.720871,1.108920,5.076324,-0.087107,-0.073186,6.258736,0.998508,-0.000724,-0.000679,0.054590
467,0.677150,0.170076,6.609507,-51.309586,2.366282,0.098755,-1.885364,-0.242497,6.350603,0.998329,-0.016310,-0.003024,0.055349
468,0.426183,-0.263867,6.095156,-26.018896,3.847956,-9.389449,-3.149104,-0.382952,6.198088,0.998160,-0.027257,-0.004821,0.053950
469,0.108725,-0.078448,4.511346,-3.273454,2.218267,-15.606070,-3.595459,-0.424054,5.778658,0.998236,-0.031145,-0.005275,0.050266
470,-0.213678,-1.087353,4.122482,18.898243,0.977690,-16.736780,-3.555094,-0.346342,5.239231,0.998474,-0.030848,-0.004436,0.045589
471,0.212967,-1.399120,3.735462,38.332428,1.101290,-20.878139,-3.292797,-0.335133,4.616038,0.998775,-0.028590,-0.004078,0.040171
472,0.083709,-1.570328,3.568669,49.944717,1.006683,-20.374586,-2.734773,-0.426801,3.932498,0.999123,-0.023721,-0.004540,0.034212
473,-0.336704,-1.286730,3.514830,49.534245,0.452772,-17.176245,-1.999443,-0.312490,3.312690,0.999428,-0.017361,-0.003230,0.028853
474,-0.117047,-1.884755,5.162657,49.277889,0.799157,-11.492172,-1.221081,-0.128418,2.842639,0.999635,-0.010625,-0.001385,0.024791
475,-0.335401,-0.612734,6.609831,44.379669,0.434461,-6.471879,-0.205280,0.002000,2.547501,0.999751,-0.001791,-0.000022,0.022229
476,-0.581901,0.067944,8.607485,27.670788,1.455305,1.058562,0.909932,0.206723,2.460746,0.999737,0.007900,0.001974,0.021457
477,-0.794050,1.402412,10.266951,9.568734,0.551957,4.531568,1.718139,0.439406,2.558252,0.999632,0.014904,0.004168,0.022263
478,0.138374,1.640468,12.217738,-7.095897,-1.791865,9.850944,2.079979,0.488360,2.800494,0.999530,0.018041,0.004703,0.024355
479,-0.288486,2.306836,13.364178,-20.318039,-1.338665,9.284825,1.965562,0.416773,3.120210,0.999477,0.017046,0.004102,0.027159
480,0.200552,1.840882,14.007136,-30.898811,-1.715568,10.177493,1.444202,0.344172,3.445665,0.999465,0.012507,0.003381,0.030024
481,0.511358,1.591184,14.234720,-34.953190,-1.996339,9.178012,0.609055,0.186495,3.769704,0.999444,0.005259,0.001801,0.032882
482,0.305378,0.769035,14.176747,-37.020817,-1.721672,8.509655,-0.404456,0.029100,4.066945,0.999364,-0.003536,0.000129,0.035484
483,0.348284,-0.028303,13.921268,-34.933357,-0.307139,5.381508,-1.534077,-0.072587,4.300705,0.999206,-0.013354,-0.001135,0.037510
484,0.331084,-0.825204,13.557934,-32.143963,0.126224,4.844383,-2.693725,-0.138642,4.472709,0.998963,-0.023440,-0.002126,0.038983
485,0.282338,-1.227203,13.285048,-28.439016,1.101290,4.452219,-3.816989,-0.169270,4.627748,0.998631,-0.033217,-0.002820,0.040302
486,-0.027234,-1.750981,12.749238,-22.931950,1.946653,2.361702,-4.837905,-0.129612,4.738399,0.998256,-0.042123,-0.002874,0.041254
487,0.093831,-2.203877,12.608008,-18.470144,1.932919,0.565688,-5.754665,-0.060605,4.781670,0.997871,-0.050132,-0.002622,0.041637
488,-0.111076,-2.284726,12.641111,-12.309981,1.874934,-0.340712,-6.506510,0.009633,4.779041,0.997520,-0.056704,-0.002282,0.041630
489,-0.162567,-2.175791,12.851887,-5.779022,1.433942,-3.198770,-6.997679,0.089030,4.713861,0.997289,-0.061009,-0.001735,0.041095
490,-0.379108,-2.382066,13.395640,3.443670,2.564653,-3.581777,-7.191468,0.196641,4.593140,0.997224,-0.062734,-0.000802,0.040101
491,-0.470599,-1.965671,13.917436,12.496984,2.141971,-2.415970,-7.024570,0.342893,4.484140,0.997346,-0.061332,0.000588,0.039231
492,-0.577971,-2.082561,13.955647,20.895679,1.897823,-0.923615,-6.526221,0.496375,4.421297,0.997617,-0.057045,0.002126,0.038757
493,-0.676936,-1.629896,13.291840,30.284698,1.464460,0.970059,-5.721441,0.662232,4.417048,0.997984,-0.050093,0.003844,0.038776
494,-0.512716,-1.727673,12.562995,35.079151,0.773216,3.629747,-4.695451,0.807674,4.491160,0.998357,-0.041208,0.005432,0.039437
495,-0.338678,-1.024209,11.225249,35.648327,-0.832057,3.348976,-3.580682,0.879426,4.607958,0.998665,-0.031524,0.006408,0.040420
496,-0.040473,-1.052930,10.113669,32.414886,-1.532457,3.281836,-2.516723,0.852480,4.720063,0.998877,-0.022248,0.006527,0.041331
497,0.279140,-0.551846,9.556397,28.940357,-1.221169,2.764547,-1.571596,0.730976,4.820502,0.998997,-0.013970,0.005796,0.042137
498,0.129203,-0.271629,9.528683,20.395176,-1.520250,0.020933,-0.770120,0.585519,4.865975,0.999062,-0.006931,0.004820,0.042484
499,0.197412,-0.281585,9.837345,12.986807,-1.639272,0.570266,-0.244226,0.437340,4.875022,0.999085,-0.002292,0.003722,0.042537
500,0.045601,-0.389478,10.376140,18.367220,-2.061954,-0.177437,0.201774,0.300666,4.880258,0.999089,0.001647,0.002696,0.042571
501,-0.024430,-0.777289,10.938640,25.621469,-3.004976,-0.069097,0.780691,0.194720,4.874152,0.999071,0.006734,0.001987,0.042510
502,-0.423150,-0.136198,11.293466,34.455048,-4.639241,-0.871734,1.638565,0.112157,4.855371,0.999001,0.014244,0.001583,0.042340
503,-0.212625,0.146800,11.041160,38.472813,-7.350811,1.853569,2.795259,-0.014651,4.865120,0.998802,0.024374,0.000908,0.042434
504,0.140400,0.990894,10.260644,38.861923,-8.777550,2.143495,4.129968,-0.281123,4.916195,0.998424,0.036105,-0.000904,0.042949
505,0.289172,1.606481,8.941081,26.405796,-8.740928,3.490888,5.436027,-0.637569,4.983841,0.997904,0.047617,-0.003491,0.043693
506,-0.272264,2.531757,7.682139,6.599284,-6.029360,5.224339,6.452789,-0.872066,5.098203,0.997379,0.056562,-0.005087,0.044832
507,0.204956,2.646284,6.713498,-21.244276,-3.299479,10.520825,6.894166,-1.012567,5.332432,0.997047,0.060470,-0.006014,0.046962
508,0.337764,2.539560,6.412129,-45.279133,0.419202,14.506542,6.513154,-1.173558,5.729494,0.997056,0.057244,-0.007373,0.050476
509,0.424106,2.734567,6.469636,-65.705170,3.306252,11.959773,5.421265,-1.261057,6.161658,0.997349,0.047811,-0.008435,0.054201
510,0.840206,2.234008,6.886735,-80.512741,5.962888,6.287909,3.690488,-1.323519,6.466342,0.997803,0.032798,-0.009709,0.056738
511,1.294358,1.528632,7.352481,-79.536148,6.261969,0.983792,1.527329,-1.470011,6.595753,0.998163,0.014043,-0.012039,0.057688
512,0.707515,0.909907,6.980564,-66.030190,7.839776,-7.981019,-0.550995,-1.550837,6.485922,0.998299,-0.004035,-0.013783,0.056499
513,0.712024,0.064005,6.742457,-39.396690,8.386058,-21.017000,-2.121108,-1.508914,5.999875,0.998385,-0.017793,-0.014116,0.052078
514,-0.111178,-0.137795,5.325826,-4.564386,6.841822,-25.594776,-2.790987,-1.330663,5.214907,0.998614,-0.023799,-0.012704,0.045194
515,0.147758,-0.994462,4.744832,20.241056,5.329629,-21.671621,-2.722397,-1.106972,4.423096,0.998935,-0.023364,-0.010567,0.038347
516,-0.095213,-1.719754,3.288736,42.820171,4.714682,-23.983402,-2.485266,-0.922708,3.672435,0.999225,-0.021417,-0.008741,0.031859
517,-0.035987,-1.817829,2.977215,59.126213,3.435956,-22.820644,-2.070437,-0.721365,2.910894,0.999497,-0.017901,-0.006751,0.025281
518,-0.036190,-1.879521,2.925659,62.040730,3.590075,-15.802912,-1.466570,-0.558369,2.285060,0.999709,-0.012698,-0.005126,0.019875
519,-0.085323,-2.090734,4.468294,51.774303,4.285897,-9.111731,-0.870125,-0.367481,1.882702,0.999831,-0.007539,-0.003331,0.016404
520,-0.570588,-1.171622,5.720813,45.286068,4.456800,-7.048680,-0.090005,-0.038075,1.621045,0.999900,-0.000781,-0.000343,0.014146
521,-0.349977,0.396728,8.082764,29.746046,3.434430,2.201480,0.967721,0.305399,1.546801,0.999870,0.008408,0.002779,0.013475
522,-0.167965,0.621189,10.226389,10.519385,1.581957,8.393685,1.774840,0.464114,1.727935,0.999759,0.015425,0.004283,0.015014
523,-0.537108,1.766218,11.971053,-5.142712,-0.961761,12.194765,2.094901,0.531313,2.073375,0.999660,0.018193,0.004966,0.018005
524,-0.093153,2.051060,13.096827,-14.781981,-2.663168,15.103180,2.101553,0.503475,2.529005,0.999580,0.018237,0.004797,0.021983
525,0.086904,2.073595,13.858845,-23.215771,-5.798945,16.920557,1.801510,0.320152,3.060684,0.999517,0.015640,0.003212,0.026659
526,0.032864,1.794016,14.274972,-29.743687,-7.170752,14.973475,1.214170,0.057788,3.588810,0.999454,0.010574,0.000836,0.031306
527,0.340549,1.611442,13.965987,-27.737087,-7.581225,15.391578,0.523115,-0.242656,4.092477,0.999349,0.004638,-0.001953,0.035715
528,0.827594,1.071053,13.810152,-29.621611,-7.828425,12.651016,-0.204891,-0.616354,4.559866,0.999193,-0.001573,-0.005446,0.039772
529,0.797048,0.364247,13.401659,-30.993420,-6.606159,6.501537,-1.078319,-1.002033,4.882967,0.999013,-0.009029,-0.009137,0.042513
531,0.550088,-0.129289,12.892460,-25.803741,-3.668753,1.259984,-1.971153,-1.274893,5.018270,0.998840,-0.016696,-0.011866,0.043578
532,0.783505,-0.762573,12.879374,-22.431446,-0.807642,-1.868163,-2.797735,-1.440538,5.013268,0.998680,-0.023838,-0.013623,0.043412
533,0.529408,-1.101781,13.354551,-19.843475,1.725394,-6.578694,-3.582019,-1.508433,4.875204,0.998538,-0.030663,-0.014474,0.042096
534,0.302362,-1.384235,13.630415,-12.909672,5.050385,-7.713983,-4.225017,-1.426141,4.633051,0.998445,-0.036326,-0.013916,0.039931
535,0.311155,-1.786136,14.074358,-5.261734,6.776207,-6.487138,-4.652663,-1.237467,4.385249,0.998403,-0.040146,-0.012335,0.037787
536,0.325458,-1.567487,13.945532,-0.874699,7.893184,-7.526294,-4.869165,-1.011205,4.135087,0.998422,-0.042131,-0.010343,0.035669
537,-0.031100,-1.978195,13.295693,5.752395,7.237036,-7.285198,-4.917530,-0.754625,3.870237,0.998498,-0.042653,-0.008024,0.033454
538,0.011578,-1.405005,12.164217,10.374423,6.507643,-9.044589,-4.777147,-0.503250,3.581920,0.998639,-0.041518,-0.005688,0.031043
539,-0.074842,-1.557455,10.951473,10.354587,5.016815,-10.434710,-4.553878,-0.298333,3.244267,0.998810,-0.039640,-0.003725,0.028182
540,-0.189241,-1.229949,10.035949,9.870868,4.012755,-12.804470,-4.358951,-0.121974,2.847639,0.998968,-0.037992,-0.002008,0.024789
541,-0.422149,-1.289011,9.693731,5.647106,1.850520,-12.657982,-4.241048,0.042713,2.417864,0.999092,-0.037001,-0.000408,0.021098
542,-0.330939,-0.917684,9.585827,-1.349262,-0.220161,-11.846189,-4.281042,0.152247,2.008758,0.999147,-0.037368,0.000673,0.017566
543,-0.202298,-1.429415,10.090885,-4.761231,-2.238961,-9.488634,-4.508862,0.156770,1.656876,0.999120,-0.039353,0.000798,0.014501
544,-0.108776,-1.531181,10.652674,2.157315,-3.903745,-5.037509,-4.738786,0.070175,1.423092,0.999067,-0.041346,0.000098,0.012433
545,-0.026515,-2.085756,11.165908,15.391666,-5.963745,1.594162,-4.683725,-0.086233,1.378858,0.999093,-0.040850,-0.001244,0.011992
546,-0.266973,-1.295175,11.393958,46.432037,-6.757226,8.259403,-3.844597,-0.248295,1.558447,0.999343,-0.033512,-0.002622,0.013519
547,0.049915,-0.907020,11.903828,63.200432,-6.101078,10.418589,-2.077222,-0.410573,1.880997,0.999696,-0.018065,-0.003879,0.016346
548,0.100098,0.082202,11.338600,75.520760,-4.643819,12.910424,0.280060,-0.585792,2.271943,0.999787,0.002545,-0.005063,0.019837
549,0.080272,1.393601,10.329951,72.850388,-3.334575,12.542676,2.993572,-0.729594,2.689096,0.999359,0.026262,-0.005750,0.023622
550,-0.044022,3.120538,9.112258,56.005695,-0.600116,9.031523,5.712067,-0.794599,3.035971,0.998374,0.049991,-0.005603,0.026803
551,0.288711,2.856442,8.066443,18.824997,1.235572,6.699909,7.688438,-0.819765,3.287978,0.997300,0.067219,-0.005211,0.029103
552,-0.043654,3.404011,6.215209,-5.641689,2.409008,5.004605,8.760141,-0.787891,3.476862,0.996581,0.076543,-0.004536,0.030772
553,0.187235,3.192139,5.582676,-39.241039,3.469526,2.561599,9.037314,-0.705716,3.602328,0.996365,0.078936,-0.003660,0.031818
554,0.196994,3.201160,5.851673,-67.913177,3.262000,0.529066,8.245120,-0.651309,3.657187,0.996876,0.072033,-0.003372,0.032235
555,0.767623,2.525636,6.256198,-85.670372,2.099245,1.708607,6.504382,-0.739316,3.698707,0.997837,0.056908,-0.004607,0.032585
556,1.059604,1.984675,6.930703,-89.247139,1.494979,-1.752192,4.160999,-1.016072,3.707108,0.998768,0.036570,-0.007682,0.032644
557,1.054634,1.730930,7.548297,-85.075264,2.010742,-7.385908,1.708863,-1.307625,3.566325,0.999334,0.015259,-0.010940,0.031282
558,0.844847,1.120117,7.651234,-61.031254,1.562120,-10.500322,-0.338086,-1.534860,3.274105,0.999499,-0.002566,-0.013473,0.028526
559,0.578984,0.128417,7.068745,-26.050943,2.158757,-14.339551,-1.579155,-1.680694,2.860961,0.999491,-0.013408,-0.015004,0.024757
560,0.162342,-0.421515,6.040246,9.200986,3.028534,-19.123327,-1.869622,-1.684933,2.303430,0.999562,-0.016014,-0.015026,0.019855
561,0.062713,-0.832064,4.209807,35.224113,3.857112,-21.338972,-1.402352,-1.563975,1.634593,0.999733,-0.012040,-0.013820,0.014095
562,-0.095800,-1.968999,3.905555,55.004684,3.937985,-16.904633,-0.727529,-1.358122,1.019060,0.999871,-0.006243,-0.011907,0.008817
563,-0.085759,-1.864546,3.717149,65.040703,4.215703,-14.870571,0.045070,-1.098989,0.521619,0.999944,0.000437,-0.009588,0.004556
564,-0.404440,-2.536583,3.816807,63.682632,4.055482,-7.926086,0.779806,-0.749666,0.174991,0.999954,0.006815,-0.006531,0.001572
565,-0.260380,-1.738036,5.166101,53.025562,1.650624,-1.524830,1.460799,-0.417101,0.043487,0.999912,0.012749,-0.003635,0.000426
566,-0.511049,-1.200878,7.442735,39.177788,-0.276620,4.581924,2.258936,-0.202572,0.106164,0.999804,0.019713,-0.001749,0.000961
567,-0.721563,0.339608,8.880991,25.848833,-1.726250,8.489820,3.076902,-0.017743,0.327303,0.999635,0.026848,-0.000078,0.002859
568,-0.440937,0.735259,10.411564,8.363254,-3.917478,12.203921,3.669424,0.050073,0.668795,0.999470,0.032013,0.000624,0.005819
569,-0.153237,1.861509,11.966710,-4.434682,-5.083286,12.260381,3.887903,-0.048167,1.066818,0.999381,0.033924,-0.000104,0.009319
570,-0.046934,1.763037,12.920959,-11.560754,-4.794885,12.748676,3.846365,-0.217119,1.471773,0.999352,0.033581,-0.001462,0.012900
571,0.401558,1.919067,13.648492,-16.298754,-3.931212,11.297521,3.580648,-0.417885,1.861979,0.999371,0.031297,-0.003137,0.016354
572,0.761247,1.698103,13.789291,-17.762114,-4.399671,9.481669,3.199284,-0.681070,2.199017,0.999405,0.028024,-0.005404,0.019347
573,0.683990,1.634474,13.737908,-19.399431,-2.666220,6.857079,2.751386,-0.934402,2.464091,0.999443,0.024177,-0.007634,0.021690
574,0.788335,1.328151,13.700871,-22.248337,-1.640798,5.070220,2.212731,-1.126973,2.658474,0.999492,0.019530,-0.009382,0.023382
575,0.726375,0.523877,13.117788,-22.999092,0.738120,0.046874,1.528193,-1.254253,2.743359,0.999561,0.013593,-0.010622,0.024080
576,0.360519,0.370100,12.555631,-23.957371,2.831690,-3.171303,0.752538,-1.254178,2.693555,0.999641,0.006822,-0.010787,0.023573
577,0.380228,-0.268486,12.264296,-24.149637,4.850489,-5.325909,-0.092414,-1.147934,2.554221,0.999701,-0.000583,-0.010033,0.022279
578,-0.026205,-0.782644,11.940838,-18.111551,5.032073,-5.129066,-0.935009,-0.965944,2.381551,0.999717,-0.007982,-0.008597,0.020711
579,0.035675,-1.028228,11.597293,-12.549555,4.986296,-5.621940,-1.637875,-0.751503,2.201666,0.999694,-0.014164,-0.006831,0.019116
580,-0.201360,-0.887599,11.365036,-8.855290,4.606341,-3.297955,-2.166719,-0.532787,2.049938,0.999652,-0.018821,-0.004986,0.017797
581,-0.192515,-1.102959,10.960569,-4.137128,3.268104,1.499555,-2.543110,-0.320532,2.015814,0.999596,-0.022138,-0.003186,0.017524
582,-0.039988,-1.300023,10.566621,-0.291795,2.401379,4.713154,-2.818490,-0.169732,2.115921,0.999527,-0.024562,-0.001935,0.018422
583,0.047440,-1.231940,10.239318,1.066278,1.736075,6.130739,-3.018641,-0.080729,2.293730,0.999453,-0.026320,-0.001231,0.019990
584,0.144346,-1.143339,9.890810,3.080500,1.565172,7.291967,-3.169842,-0.041114,2.514647,0.999377,-0.027644,-0.000965,0.021924
585,0.179073,-0.909939,9.667123,4.215788,0.732016,7.420146,-3.241088,-0.048050,2.757632,0.999311,-0.028262,-0.001100,0.024041
586,0.108981,-0.789113,9.594353,3.414677,0.413098,6.226871,-3.236405,-0.070080,2.983765,0.999263,-0.028214,-0.001346,0.026008
587,0.094353,-0.504468,9.513048,2.360263,0.112490,5.041227,-3.184062,-0.083282,3.170798,0.999232,-0.027752,-0.001495,0.027636
588,0.026993,-0.407269,9.517022,-0.503900,-0.221687,4.842858,-3.130009,-0.090472,3.335329,0.999204,-0.027277,-0.001584,0.029070
589,-0.049736,-0.183666,9.565840,-2.895025,-0.120976,3.966976,-3.100876,-0.077206,3.482121,0.999173,-0.027024,-0.001495,0.030353
590,0.097890,-0.173425,9.764551,-5.171706,0.539750,2.912562,-3.115726,-0.063513,3.596061,0.999139,-0.027156,-0.001407,0.031350
591,0.237540,-0.096100,9.806550,-5.550135,0.870875,0.397837,-3.178612,-0.082508,3.649743,0.999109,-0.027698,-0.001603,0.031812
592,0.290900,-0.084625,9.938960,-8.949895,1.925290,-3.079748,-3.289173,-0.111435,3.602421,0.999095,-0.028655,-0.001874,0.031391
593,0.434120,-0.106453,9.988605,-11.412740,3.040742,-6.207894,-3.494121,-0.137210,3.443039,0.999084,-0.030437,-0.002112,0.029991
594,0.427665,-0.300255,9.951826,-14.006811,4.459852,-9.715998,-3.806128,-0.146787,3.170520,0.999066,-0.033160,-0.002198,0.027607
595,0.198833,-0.385872,9.781340,-16.812990,5.529526,-12.709862,-4.236253,-0.090379,2.786464,0.999022,-0.036930,-0.001687,0.024268
596,0.130134,-0.545007,9.780103,-20.536249,6.673970,-12.889923,-4.793759,0.036611,2.345462,0.998916,-0.041819,-0.000537,0.020462
597,-0.095830,-0.730309,9.761734,-21.081001,7.142429,-11.775996,-5.449343,0.225464,1.915649,0.998726,-0.047563,0.001170,0.016791
598,-0.188034,-0.933345,9.788250,-21.004705,7.665822,-10.333997,-6.140258,0.468553,1.523874,0.998465,-0.053607,0.003370,0.013498
599,-0.111627,-1.097961,9.788333,-21.048958,6.919644,-8.161078,-6.851020,0.701376,1.189676,0.998137,-0.059810,0.005489,0.010729
600,0.004380,-1.256635,9.916009,-19.535240,5.343362,-5.921021,-7.546699,0.860955,0.930980,0.997767,-0.065867,0.006962,0.008601
601,-0.088962,-1.376320,10.016540,-17.067820,4.017334,-5.037509,-8.176131,0.963335,0.728735,0.997396,-0.071339,0.007932,0.006942
602,-0.025760,-1.466159,10.045130,-15.052072,1.939023,-4.537006,-8.724532,1.008699,0.556356,0.997049,-0.076101,0.008408,0.005510
603,-0.018905,-1.487424,10.030844,-13.172130,0.437513,-4.031924,-9.193400,0.982589,0.409443,0.996738,-0.080169,0.008261,0.004249
604,-0.096777,-1.526031,9.998070,-11.008368,-0.381909,-4.509540,-9.578595,0.926889,0.269412,0.996472,-0.083508,0.007864,0.003018
605,-0.155132,-1.505834,9.831032,-10.930548,-0.365124,-4.074651,-9.911791,0.878754,0.131163,0.996231,-0.086395,0.007541,0.001803
606,0.057252,-1.472325,9.628989,-12.944769,-0.949553,-3.449022,-10.259258,0.804014,0.012465,0.995970,-0.089408,0.006978,0.000736
607,0.213344,-1.545416,9.803828,-18.224468,-1.349346,-2.533467,-10.716899,0.666918,-0.077225,0.995613,-0.093381,0.005857,-0.000127
608,0.180550,-1.738218,9.985521,-23.444660,-1.779657,-2.322889,-11.358479,0.507140,-0.145052,0.995081,-0.098953,0.004529,-0.000822
609,0.165299,-1.842570,10.169254,-29.067699,-2.124516,-2.446489,-12.185863,0.349446,-0.207997,0.994345,-0.106135,0.003225,-0.001481
610,0.222017,-2.338410,10.308330,-33.088512,-3.001923,-2.939362,-13.209709,0.171983,-0.275389,0.993359,-0.115017,0.001767,-0.002215
611,0.091886,-2.970238,10.146572,-34.506092,-3.392560,-2.722681,-14.428756,-0.009573,-0.340601,0.992079,-0.125582,0.000290,-0.002959
612,0.062266,-3.344002,9.712615,-33.824005,-2.519731,-3.885436,-15.759041,-0.158593,-0.420673,0.990550,-0.137094,-0.000868,-0.003826
613,0.099601,-3.658215,9.222616,-32.954231,-2.034487,-6.865568,-17.132002,-0.300835,-0.570053,0.988827,-0.148959,-0.001855,-0.005310
614,0.211251,-4.099420,8.929235,-32.211102,-1.642324,-7.332502,-18.550793,-0.465087,-0.774485,0.986890,-0.161202,-0.002916,-0.007324
615,0.151699,-4.167215,8.679836,-31.879982,-1.144872,-9.303997,-19.980898,-0.634655,-1.017480,0.984774,-0.173523,-0.003914,-0.009705
616,0.057369,-4.189806,8.838326,-31.097178,-0.586383,-12.336010,-21.337534,-0.792195,-1.341457,0.982608,-0.185193,-0.004626,-0.012783
617,0.016799,-4.200433,8.861232,-27.740145,-0.856472,-15.546558,-22.546467,-0.962980,-1.761049,0.980531,-0.195585,-0.005236,-0.016713
618,-0.134980,-4.168040,9.017707,-24.782898,-0.857998,-14.542500,-23.570551,-1.124397,-2.210009,0.978652,-0.204382,-0.005665,-0.020881
619,-0.246977,-4.092360,8.978143,-21.047434,-1.433272,-14.511979,-24.405329,-1.248571,-2.637026,0.977036,-0.211547,-0.005783,-0.024792
620,-0.321183,-4.030545,8.899169,-16.738220,-1.955139,-13.048617,-25.048470,-1.349661,-3.032008,0.975727,-0.217066,-0.005757,-0.028378
621,-0.123382,-3.985831,8.708525,-13.301835,-2.855435,-11.135107,-25.528633,-1.463817,-3.363990,0.974705,-0.221194,-0.005968,-0.031445
622,-0.193282,-3.947632,8.517496,-11.649258,-3.566516,-7.933716,-25.910082,-1.579913,-3.605559,0.973874,-0.224477,-0.006377,-0.033745
623,-0.028365,-4.008484,8.230944,-10.419361,-4.384412,-7.434738,-26.257792,-1.701630,-3.778543,0.973114,-0.227471,-0.006965,-0.035474
624,-0.153880,-3.931280,8.230535,-10.199627,-4.454604,-6.583272,-26.580200,-1.826930,-3.923425,0.972399,-0.230249,-0.007638,-0.036973
625,0.118573,-3.945615,8.519535,-9.897495,-4.004456,-5.373213,-26.849926,-1.948223,-4.040597,0.971791,-0.232577,-0.008342,-0.038230
626,0.240773,-3.797187,8.947142,-9.091806,-2.773035,-4.390518,-27.023512,-2.081977,-4.139446,0.971374,-0.234092,-0.009216,-0.039352
627,0.417030,-3.847286,9.515130,-7.495690,-0.685569,-4.028872,-27.074959,-2.190315,-4.246164,0.971206,-0.234566,-0.009899,-0.040481
628,0.476294,-3.782113,10.043612,-5.128979,1.475142,-3.442918,-26.995178,-2.250599,-4.373865,0.971309,-0.233918,-0.010178,-0.041679
629,0.675827,-3.875845,10.193260,-3.076609,3.303201,-3.535999,-26.811865,-2.273973,-4.526031,0.971620,-0.232384,-0.010134,-0.043000
630,0.612466,-3.949041,9.981523,-1.407248,4.259955,-3.404770,-26.595934,-2.271040,-4.697580,0.971992,-0.230567,-0.009845,-0.044430
631,0.479744,-3.942270,9.592165,-0.844181,4.365244,-2.953096,-26.390644,-2.224236,-4.866223,0.972349,-0.228825,-0.009190,-0.045751
632,0.400003,-3.899011,9.115235,-1.746003,3.313882,-1.215067,-26.215405,-2.152849,-4.993761,0.972664,-0.227324,-0.008401,-0.046679
634,0.421867,-4.036941,8.798309,-3.409261,1.868831,1.441569,-26.140131,-2.088067,-5.034670,0.972812,-0.226666,-0.007801,-0.046893
635,0.529496,-4.171348,8.704415,-4.497246,0.641986,3.823539,-26.208477,-2.049542,-4.976799,0.972709,-0.227230,-0.007560,-0.046331
636,0.551336,-4.317160,8.781189,-6.082682,-0.119450,5.321998,-26.375481,-2.029897,-4.844330,0.972435,-0.228632,-0.007590,-0.045179
637,0.524728,-4.594670,8.863777,-6.517570,-0.369702,6.019345,-26.616491,-2.006715,-4.670343,0.972024,-0.230658,-0.007649,-0.043672
638,0.598559,-4.767046,8.927095,-5.388386,-0.136235,5.778249,-26.883875,-1.984661,-4.488407,0.971557,-0.232906,-0.007730,-0.042103
639,0.599859,-4.726846,8.930640,-2.783631,0.439039,5.039702,-27.087812,-1.968129,-4.327489,0.971202,-0.234619,-0.007844,-0.040719
640,0.526384,-4.630289,8.824365,1.952841,0.701498,4.736042,-27.151432,-1.947468,-4.189332,0.971125,-0.235143,-0.007930,-0.039511
641,0.507067,-4.502753,8.757079,9.970053,1.090609,4.328620,-26.978745,-1.920708,-4.067623,0.971525,-0.233664,-0.008011,-0.038413
642,0.533298,-4.221596,8.748825,21.847857,1.238623,3.669421,-26.423351,-1.890107,-3.967276,0.972686,-0.228937,-0.008137,-0.037461
643,0.449355,-3.923568,8.741426,38.173729,0.513809,4.166872,-25.339766,-1.857367,-3.866091,0.974847,-0.219713,-0.008407,-0.036459
644,0.582944,-3.539441,8.718492,58.981247,-0.369702,3.231480,-23.587193,-1.866242,-3.760592,0.978124,-0.204773,-0.009228,-0.035441
645,0.672047,-2.797952,8.558834,79.005966,-0.720665,-0.378859,-21.072367,-1.967396,-3.720012,0.982375,-0.183281,-0.010935,-0.035043
646,0.516149,-2.113479,8.489097,89.801888,-1.256265,-1.518726,-17.946833,-2.104793,-3.754263,0.986970,-0.156460,-0.013024,-0.035213
647,0.378825,-1.691366,8.700838,93.046005,-2.080264,-1.102148,-14.551363,-2.214146,-3.796556,0.991138,-0.127185,-0.014960,-0.035298
648,0.350101,-1.204469,9.112385,90.931076,-2.890531,-3.383407,-11.137845,-2.318945,-3.865119,0.994444,-0.097647,-0.016856,-0.035520
649,0.133610,-0.843459,9.628064,80.766884,-3.561938,-2.699792,-7.947637,-2.403240,-3.958908,0.996731,-0.069967,-0.018515,-0.035903
650,-0.245644,-0.939978,10.286341,68.672401,-5.177893,2.721821,-5.238701,-2.415488,-3.945921,0.998108,-0.046388,-0.019470,-0.035347
651,0.011656,-0.511869,10.628743,62.603802,-5.873715,5.474591,-2.928367,-2.435546,-3.794836,0.998882,-0.026236,-0.020388,-0.033635
652,0.192776,-0.209450,10.726279,55.906509,-6.107181,8.144959,-0.857059,-2.533155,-3.561244,0.999240,-0.008161,-0.021861,-0.031229
653,0.021134,0.184715,10.405325,48.289089,-6.159062,11.273108,0.956331,-2.641763,-3.238470,0.999306,0.007689,-0.023277,-0.028056
654,0.208344,0.723375,9.976790,42.540928,-4.579730,14.204409,2.576668,-2.736579,-2.821807,0.999172,0.021883,-0.024419,-0.024072
655,0.423880,1.242040,9.557371,34.224636,-3.558886,13.241549,4.034173,-2.856386,-2.380378,0.998873,0.034662,-0.025634,-0.019875
656,0.349572,1.110763,9.628631,22.105740,-3.111790,11.416544,5.136618,-2.974833,-1.987581,0.998529,0.044339,-0.026704,-0.016158
657,0.433431,1.213869,9.648228,19.502510,-2.213020,9.225314,5.926951,-3.065698,-1.658480,0.998221,0.051289,-0.027459,-0.013065
658,0.653314,1.283209,9.507813,16.870287,-1.834590,6.826560,6.613845,-3.172207,-1.404465,0.997897,0.057320,-0.028338,-0.010634
659,0.660385,1.134945,9.776526,8.514320,-2.638753,1.861199,7.073458,-3.306501,-1.272076,0.997638,0.061339,-0.029478,-0.009295
660,0.916074,0.977888,10.224861,5.171018,-1.695731,-1.633170,7.261912,-3.445703,-1.275198,0.997501,0.062963,-0.030707,-0.009197
661,0.804149,0.979485,9.956035,6.663373,-1.407331,-3.952577,7.370329,-3.568353,-1.368871,0.997401,0.063867,-0.031836,-0.009914
662,0.635837,0.986861,9.804143,-1.016610,-0.973969,-6.471879,7.380327,-3.626933,-1.540898,0.997364,0.063898,-0.032442,-0.011375
663,0.629281,0.837466,10.284575,-6.773926,-0.067569,-7.358442,7.156384,-3.614866,-1.765346,0.997466,0.061887,-0.032436,-0.013399
664,0.403833,0.770106,10.119409,-3.122387,0.228461,-5.849302,6.866814,-3.548787,-1.975282,0.997610,0.059318,-0.031936,-0.015343
665,0.125337,0.849019,9.777487,-3.094920,-0.069095,-3.981570,6.655235,-3.423162,-2.130903,0.997728,0.057455,-0.030892,-0.016822
666,0.200313,0.861699,9.991263,-5.461630,-0.120976,-1.599600,6.427184,-3.288439,-2.218781,0.997861,0.055470,-0.029728,-0.017715
667,0.271668,0.863447,10.047142,-3.181898,-1.024324,0.748799,6.202928,-3.205373,-2.230708,0.997985,0.053529,-0.028975,-0.017916
668,0.345564,0.876367,9.808412,-1.555262,-1.442427,2.407480,6.046786,-3.168458,-2.178795,0.998074,0.052189,-0.028605,-0.017521
669,0.516700,0.854275,9.961835,-3.346697,-1.462264,2.170962,5.886371,-3.177737,-2.103847,0.998155,0.050809,-0.028628,-0.016904
670,0.576228,0.820640,10.016255,-1.349262,-1.604176,1.516340,5.736719,-3.230412,-2.044064,0.998217,0.049511,-0.029039,-0.016397
671,0.537693,0.861599,9.936291,2.430455,-1.569079,1.043303,5.696525,-3.285091,-2.003701,0.998227,0.049163,-0.029493,-0.016032
672,0.466418,0.930961,9.897119,4.252410,-1.213539,1.322547,5.769109,-3.310422,-1.966960,0.998194,0.049800,-0.029707,-0.015682
673,0.337345,0.918620,10.018200,4.446203,-0.479569,2.544814,5.886521,-3.290351,-1.904148,0.998156,0.050842,-0.029521,-0.015113
674,0.200161,0.870896,9.907491,5.084039,0.284920,5.091583,6.003307,-3.218599,-1.775538,0.998137,0.051903,-0.028853,-0.013996
675,0.231400,0.830881,9.891400,3.707655,1.250831,8.497448,6.075538,-3.100806,-1.543612,0.998158,0.052606,-0.027729,-0.012013
676,0.274074,0.797361,9.874057,1.948263,2.192327,11.688158,6.062974,-2.966020,-1.197606,0.998226,0.052594,-0.026395,-0.009064
677,0.346317,0.735583,9.879368,0.368930,2.959868,13.954158,5.985705,-2.850862,-0.758144,0.998314,0.052030,-0.025187,-0.005306
678,0.472027,0.743358,9.814511,0.086635,3.095675,15.058927,5.882616,-2.773769,-0.261846,0.998390,0.051243,-0.024289,-0.001039
679,0.565635,0.803863,9.857039,0.198026,2.677571,14.517224,5.791389,-2.738083,0.242416,0.998433,0.050554,-0.023755,0.003319
680,0.627397,0.865016,9.913087,0.811448,2.012268,12.351935,5.735895,-2.739562,0.698798,0.998436,0.050165,-0.023569,0.007285
681,0.636079,0.942773,9.891011,2.418248,1.443098,9.623582,5.742083,-2.771448,1.070842,0.998398,0.050297,-0.023684,0.010541
682,0.651276,1.034276,9.920356,2.546426,0.657246,6.145998,5.809142,-2.826063,1.336252,0.998329,0.050941,-0.024036,0.012892
683,0.640128,1.044353,9.944351,2.373996,-0.001954,2.854577,5.895271,-2.883607,1.486133,0.998260,0.051729,-0.024459,0.014241
684,0.636599,0.947504,9.917520,1.885700,-0.503983,0.115541,5.953860,-2.943800,1.535010,0.998214,0.052256,-0.024954,0.014706
685,0.621581,0.840082,9.874358,-0.960151,-1.070101,-3.395614,5.921314,-3.011523,1.480442,0.998220,0.051967,-0.025573,0.014254
686,0.592939,0.864156,9.900775,-7.848177,-1.366131,-7.733819,5.724838,-3.064703,1.294702,0.998316,0.050219,-0.026142,0.012615
687,0.604283,0.697021,9.901370,-16.550529,-1.440902,-11.206826,5.269581,-3.101619,0.979184,0.998530,0.046182,-0.026641,0.009777
688,0.567907,0.521296,9.885695,-27.776760,-1.469894,-14.853786,4.455891,-3.128303,0.547207,0.998855,0.038991,-0.027090,0.005831
689,0.570453,0.401296,9.961697,-38.018772,-1.460739,-18.195564,3.279721,-3.148248,-0.000232,0.999213,0.028606,-0.027459,0.000784
690,0.477982,0.287144,9.798330,-46.184002,-0.996857,-19.852718,1.817803,-3.155777,-0.631217,0.999482,0.015705,-0.027619,-0.005069
691,0.135358,0.161701,9.635994,-50.749569,0.095705,-18.003296,0.175584,-3.092251,-1.260752,0.999575,0.001235,-0.026997,-0.010957
692,0.338622,-0.092585,9.681487,-52.530331,0.887661,-15.258161,-1.555399,-2.996947,-1.816215,0.999435,-0.013981,-0.025930,-0.016197
693,0.183447,-0.350669,9.612394,-47.851837,-0.073673,-11.699699,-3.236051,-2.927783,-2.266524,0.999065,-0.028726,-0.024974,-0.020485
694,0.078768,-0.383334,9.553454,-32.617001,0.399364,-5.328961,-4.552413,-2.833014,-2.553398,0.998636,-0.040245,-0.023810,-0.023238
695,0.098317,-0.368382,9.896122,-2.685971,1.734549,6.527479,-5.037306,-2.659496,-2.543327,0.998496,-0.044436,-0.022203,-0.023185
696,0.722170,-0.792614,9.885776,33.129021,0.847987,16.830528,-4.455499,-2.547096,-2.162963,0.998803,-0.039274,-0.021472,-0.019719
697,0.283462,-0.668795,9.647970,52.816513,-0.819850,20.651445,-3.027501,-2.522194,-1.540201,0.999311,-0.026704,-0.021644,-0.014014
698,0.459831,-0.437567,9.865245,63.064629,0.248298,23.643784,-1.104412,-2.487464,-0.802057,0.999692,-0.009787,-0.021637,-0.007206
699,0.559659,-0.262740,9.844957,61.071766,-0.301035,22.424572,0.931850,-2.510015,-0.034395,0.999727,0.008123,-0.021904,-0.000122
700,0.640444,-0.129846,9.669336,43.731148,-1.805598,15.043669,2.596967,-2.615446,0.590189,0.999467,0.022772,-0.022699,0.005665
701,0.399153,0.272913,9.843327,19.357546,-1.868161,6.484753,3.563880,-2.720595,0.947762,0.999194,0.031282,-0.023470,0.009003
702,0.567729,0.451108,10.003105,11.332705,-0.790857,2.874414,4.010082,-2.785300,1.103416,0.999038,0.035209,-0.023951,0.010471
703,0.538316,0.618626,9.837695,9.065179,-0.568072,-0.143867,4.301446,-2.840075,1.149271,0.998929,0.037763,-0.024387,0.010949
704,0.494624,0.660247,9.851146,7.453802,-0.185065,-1.494311,4.548866,-2.862841,1.122387,0.998843,0.039916,-0.024571,0.010775
705,0.452577,0.704110,9.847629,6.411595,0.037720,-2.170296,4.752124,-2.853366,1.062764,0.998778,0.041674,-0.024491,0.010296
706,0.399224,0.813490,9.857733,5.460943,0.143009,-2.058903,4.936998,-2.818424,0.993577,0.998723,0.043268,-0.024196,0.009719
707,0.383082,0.869745,9.875023,4.929921,0.085024,-0.995333,5.114690,-2.771930,0.943150,0.998669,0.044804,-0.023795,0.009299
708,0.426796,0.928909,9.878088,5.302247,0.100283,0.005674,5.297790,-2.736872,0.926523,0.998605,0.046394,-0.023482,0.009178
709,0.458946,1.022611,9.824829,5.303773,0.271187,1.092133,5.498349,-2.720207,0.944223,0.998524,0.048144,-0.023313,0.009366
710,0.496394,1.009546,9.851688,3.910603,0.533646,2.122132,5.674252,-2.713873,0.997730,0.998446,0.049687,-0.023220,0.009866
711,0.503176,0.945664,9.868348,4.200529,0.808313,2.523451,5.809485,-2.707870,1.076893,0.998381,0.050881,-0.023121,0.010580
712,0.577261,0.967411,9.846265,5.340395,1.049409,2.494458,5.954461,-2.706213,1.163786,0.998308,0.052161,-0.023054,0.011366
713,0.573554,0.983922,9.820492,5.257995,1.137913,2.653154,6.116112,-2.710265,1.253465,0.998223,0.053588,-0.023031,0.012181
714,0.580504,0.944526,9.860354,4.322603,1.067720,2.265569,6.249820,-2.714134,1.339976,0.998150,0.054770,-0.023009,0.012964
715,0.552842,0.957221,9.854039,4.621684,0.936490,1.511762,6.362121,-2.715994,1.407821,0.998087,0.055762,-0.022979,0.013578
716,0.575480,0.989157,9.848832,3.645092,0.791527,0.876977,6.464681,-2.719174,1.452173,0.998031,0.056665,-0.022973,0.013986
717,0.517311,0.971771,9.868423,1.577463,0.750327,0.410044,6.506894,-2.720271,1.478453,0.998007,0.057038,-0.022964,0.014224
718,0.463239,0.968721,9.795269,-0.926580,0.780846,0.858666,6.459965,-2.705364,1.505055,0.998030,0.056633,-0.022827,0.014439
719,0.395254,0.859483,9.855144,-4.633053,0.854090,2.367806,6.299124,-2.672990,1.564669,0.998107,0.055240,-0.022537,0.014911
720,0.377798,0.737706,9.880537,-6.664060,0.863246,5.280798,6.017190,-2.635591,1.698638,0.998230,0.052807,-0.022186,0.016005
721,0.359271,0.677797,9.834550,-7.730681,0.600787,8.527967,5.664068,-2.608885,1.934912,0.998359,0.049772,-0.021900,0.017984
722,0.399726,0.603866,9.819550,-9.047555,0.014831,11.280736,5.263910,-2.609462,2.269525,0.998470,0.046350,-0.021832,0.020823
723,0.480510,0.519239,9.913999,-9.589257,-0.757287,12.635757,4.824831,-2.653922,2.670833,0.998552,0.042609,-0.022150,0.024253
