seq,ax,ay,az,wroll,wpitch,wyaw,roll,pitch,yaw,q0,q1,q2,q3
62,0.081671,-0.328412,9.917795,0.146145,-0.671835,0.109437,-1.896567,-0.471550,0.015614,0.999855,-0.016549,-0.004117,0.000068
63,0.050085,-0.275878,9.942628,-0.586094,-0.316172,-0.047731,-1.868747,-0.453020,0.014897,0.999859,-0.016307,-0.003955,0.000066
64,0.071465,-0.275494,9.922168,-1.157926,-0.137490,0.219307,-1.824650,-0.432542,0.017430,0.999866,-0.015922,-0.003777,0.000092
65,0.081863,-0.289961,9.921908,-1.256826,-0.134437,0.568742,-1.811371,-0.436588,0.030290,0.999868,-0.015805,-0.003814,0.000204
66,0.082840,-0.316190,9.929941,-1.279621,0.083715,0.568740,-1.836509,-0.446969,0.049137,0.999864,-0.016024,-0.003907,0.000366
67,0.074694,-0.358479,9.929410,-1.291991,0.057758,0.579422,-1.909962,-0.447097,0.068429,0.999853,-0.016664,-0.003911,0.000532
68,0.074167,-0.364709,9.921944,-1.048128,-0.639567,0.841884,-2.002438,-0.451558,0.092848,0.999839,-0.017470,-0.003954,0.000741
69,0.070871,-0.374857,9.910821,-0.737078,-1.356711,0.954805,-2.077292,-0.476089,0.124297,0.999827,-0.018122,-0.004174,0.001009
70,0.075446,-0.398592,9.899150,-0.751073,-1.481782,0.899876,-2.151392,-0.511988,0.157315,0.999813,-0.018767,-0.004493,0.001289
71,0.087923,-0.389691,9.889475,-0.832170,-1.429872,0.814427,-2.219770,-0.554042,0.188063,0.999799,-0.019362,-0.004866,0.001547
72,0.100500,-0.363730,9.889643,-0.685675,-1.423786,0.796116,-2.244322,-0.603621,0.216716,0.999793,-0.019574,-0.005304,0.001788
73,0.106515,-0.370444,9.911940,-0.575663,-1.106419,0.805269,-2.238477,-0.649647,0.244757,0.999791,-0.019521,-0.005710,0.002025
74,0.115676,-0.387748,9.925763,-0.632052,-0.695964,0.696927,-2.245742,-0.682332,0.270812,0.999788,-0.019582,-0.006000,0.002246
75,0.116880,-0.375821,9.930457,-0.592325,-0.726489,0.580956,-2.256446,-0.706316,0.292910,0.999784,-0.019674,-0.006213,0.002434
76,0.109934,-0.379135,9.924795,-0.506774,-0.846983,0.617579,-2.256630,-0.721655,0.313681,0.999783,-0.019674,-0.006350,0.002613
77,0.111115,-0.405402,9.909816,-0.593764,-0.691237,0.693879,-2.277413,-0.727415,0.336563,0.999779,-0.019854,-0.006405,0.002810
78,0.113896,-0.417441,9.894590,-0.683944,-0.445464,0.548921,-2.327028,-0.726975,0.358367,0.999769,-0.020285,-0.006406,0.002998
79,0.109269,-0.412235,9.885939,-0.639824,-0.050142,0.307831,-2.374170,-0.714296,0.373275,0.999761,-0.020696,-0.006299,0.003128
80,0.103665,-0.419810,9.899953,-0.508670,0.442871,0.098786,-2.407739,-0.681328,0.379939,0.999757,-0.020990,-0.006014,0.003190
81,0.104925,-0.419063,9.920460,-0.429366,0.583384,0.005711,-2.431527,-0.640316,0.381046,0.999754,-0.021198,-0.005657,0.003206
82,0.116400,-0.408483,9.937755,-0.232478,0.360630,0.013340,-2.434225,-0.618870,0.380600,0.999755,-0.021223,-0.005470,0.003206
83,0.115826,-0.409778,9.937265,0.010245,0.240029,-0.145359,-2.419070,-0.618779,0.377771,0.999758,-0.021091,-0.005468,0.003182
84,0.115573,-0.402669,9.922543,0.225512,-0.019443,-0.249126,-2.394056,-0.627426,0.370816,0.999762,-0.020872,-0.005542,0.003121
85,0.110585,-0.391749,9.899652,0.334002,-0.161394,-0.221662,-2.356753,-0.638272,0.362793,0.999768,-0.020547,-0.005634,0.003051
86,0.106003,-0.391938,9.901737,0.353984,0.268926,-0.468863,-2.317915,-0.635285,0.350918,0.999776,-0.020209,-0.005605,0.002950
87,0.104179,-0.391325,9.894472,0.174020,0.719113,-0.766419,-2.291001,-0.612422,0.329486,0.999782,-0.019976,-0.005401,0.002768
88,0.106259,-0.391074,9.908247,0.206120,0.798482,-0.693174,-2.273927,-0.584247,0.304057,0.999787,-0.019829,-0.005150,0.002552
89,0.091417,-0.405698,9.921387,0.228985,0.948059,-0.893068,-2.271019,-0.549304,0.276530,0.999789,-0.019805,-0.004840,0.002318
90,0.087352,-0.403757,9.927214,0.231953,1.051890,-1.015138,-2.278743,-0.504469,0.243580,0.999790,-0.019875,-0.004444,0.002038
91,0.089472,-0.406763,9.924368,0.416505,0.774194,-0.636707,-2.283478,-0.470911,0.215003,0.999791,-0.019918,-0.004146,0.001794
92,0.077038,-0.391005,9.931817,0.485146,0.655182,-0.535996,-2.273201,-0.445982,0.194571,0.999794,-0.019829,-0.003925,0.001620
93,0.069129,-0.386995,9.927567,0.469934,0.774254,-0.641283,-2.248404,-0.413680,0.173959,0.999800,-0.019614,-0.003639,0.001447
94,0.075123,-0.383012,9.897903,0.576797,0.832256,-0.529890,-2.221664,-0.384377,0.153344,0.999806,-0.019382,-0.003380,0.001273
95,0.065246,-0.387625,9.914485,0.570703,1.132855,-0.729786,-2.200509,-0.354114,0.131086,0.999810,-0.019198,-0.003112,0.001084
96,0.053405,-0.379829,9.913287,0.462355,1.662387,-1.179933,-2.184473,-0.302118,0.097507,0.999815,-0.019060,-0.002652,0.000800
97,0.051126,-0.386403,9.911454,0.686638,2.060688,-1.182983,-2.170355,-0.235048,0.055824,0.999818,-0.018938,-0.002060,0.000448
98,0.037300,-0.386068,9.913974,0.523292,2.236188,-0.906789,-2.163537,-0.161497,0.018373,0.999821,-0.018879,-0.001412,0.000134
99,0.017753,-0.377243,9.948303,0.364552,2.301855,-0.590921,-2.157161,-0.076987,-0.009390,0.999823,-0.018824,-0.000670,-0.000095
100,0.022030,-0.385006,9.907669,0.474367,2.161475,-0.224699,-2.152707,-0.002035,-0.025754,0.999824,-0.018785,-0.000014,-0.000225
101,0.016305,-0.380334,9.875259,0.517012,2.283454,0.091165,-2.151323,0.054059,-0.030751,0.999824,-0.018773,0.000477,-0.000259
102,-0.007592,-0.377591,9.849875,0.626814,2.858660,0.336836,-2.144366,0.127165,-0.026840,0.999824,-0.018712,0.001114,-0.000213
103,-0.010897,-0.388948,9.849119,0.934945,3.822996,0.405500,-2.138452,0.229692,-0.018675,0.999824,-0.018660,0.002007,-0.000126
104,-0.032719,-0.371846,9.874953,0.913490,5.077238,0.274268,-2.124506,0.365371,-0.012916,0.999823,-0.018538,0.003190,-0.000054
105,-0.085230,-0.358619,9.930365,0.736510,5.927235,0.234595,-2.092211,0.559725,-0.011145,0.999821,-0.018256,0.004885,-0.000008
106,-0.133591,-0.360723,9.961787,0.657211,6.290628,0.164412,-2.059657,0.805228,-0.011787,0.999814,-0.017972,0.007028,0.000023
107,-0.174044,-0.373311,9.986870,0.503050,6.292421,-0.096512,-2.048256,1.064921,-0.018283,0.999797,-0.017871,0.009294,0.000007
108,-0.287677,-0.359925,9.981403,0.615904,7.678480,0.069832,-2.042037,1.394773,-0.027227,0.999767,-0.017815,0.012174,-0.000021
109,-0.333787,-0.371400,9.930223,-0.285945,10.411888,0.256011,-2.041925,1.785920,-0.032640,0.999720,-0.017812,0.015587,-0.000007
110,-0.406667,-0.380299,9.904821,-1.558610,13.965951,0.663438,-2.080670,2.226640,-0.032207,0.999646,-0.018147,0.019432,0.000072
112,-0.499710,-0.396447,9.896904,-1.811975,17.739767,1.751428,-2.147512,2.794462,-0.011940,0.999527,-0.018731,0.024382,0.000353
113,-0.666192,-0.411523,9.910427,-2.192004,22.304098,2.967597,-2.225206,3.517766,0.040605,0.999340,-0.019419,0.030681,0.000950
114,-0.774429,-0.399021,9.863005,-2.686458,24.127913,2.998127,-2.311874,4.357915,0.108874,0.999072,-0.020195,0.037994,0.001716
115,-0.954370,-0.424393,9.855100,-2.021194,23.591145,3.024079,-2.392325,5.223389,0.176115,0.998741,-0.020924,0.045525,0.002486
116,-1.090612,-0.472317,9.848160,-0.846316,22.881964,3.042398,-2.449211,6.071995,0.243322,0.998364,-0.021454,0.052906,0.003252
117,-1.261282,-0.484531,9.815569,-0.257429,23.140236,2.094802,-2.484434,6.914772,0.293925,0.997939,-0.021794,0.060236,0.003867
118,-1.389132,-0.478086,9.788050,0.175820,22.977358,1.429503,-2.503986,7.760015,0.316946,0.997462,-0.021987,0.067590,0.004237
119,-1.485312,-0.475037,9.787864,0.558732,22.803741,1.186883,-2.508554,8.587045,0.324937,0.996946,-0.022040,0.074786,0.004466
120,-1.621107,-0.455260,9.774871,0.743298,23.557829,1.073967,-2.499740,9.413045,0.327002,0.996382,-0.021973,0.081970,0.004633
121,-1.765409,-0.419350,9.728306,1.028625,23.466551,0.381206,-2.475853,10.249632,0.316529,0.995761,-0.021764,0.089245,0.004680
122,-1.900685,-0.395708,9.734231,1.236180,22.592472,0.835949,-2.434829,11.069057,0.304741,0.995105,-0.021404,0.096367,0.004695
123,-1.997054,-0.380901,9.684488,1.665018,20.891293,0.803925,-2.376796,11.836877,0.303550,0.994447,-0.020902,0.103035,0.004773
124,-2.114073,-0.358376,9.663394,1.982481,20.027796,1.045042,-2.301743,12.552930,0.309367,0.993796,-0.020260,0.109250,0.004879
125,-2.251126,-0.376795,9.667457,2.252621,19.287893,1.176290,-2.218510,13.241637,0.322980,0.993135,-0.019555,0.115222,0.005031
126,-2.336323,-0.354270,9.659472,2.657021,17.551538,1.515058,-2.125606,13.884737,0.346519,0.992486,-0.018778,0.120794,0.005243
127,-2.395032,-0.373953,9.634473,2.597513,15.354275,1.222083,-2.030894,14.447316,0.373210,0.991895,-0.017991,0.125665,0.005459
128,-2.459426,-0.345922,9.607813,2.748560,13.793249,0.805501,-1.941366,14.932961,0.389746,0.991366,-0.017239,0.129870,0.005573
129,-2.572452,-0.363275,9.598573,2.685957,13.190501,0.141712,-1.858588,15.381767,0.388596,0.990861,-0.016526,0.133756,0.005531
130,-2.566911,-0.353825,9.518879,2.798798,12.844077,-0.499198,-1.788219,15.807756,0.363995,0.990368,-0.015893,0.137445,0.005292
131,-2.637371,-0.339515,9.477078,2.890271,15.230531,-1.124854,-1.722012,16.256939,0.316421,0.989832,-0.015266,0.141336,0.004858
132,-2.753689,-0.323790,9.429984,2.852044,18.627197,-1.669634,-1.660993,16.811693,0.246063,0.989147,-0.014653,0.146137,0.004243
133,-2.837689,-0.333842,9.369557,2.641371,21.680584,-1.941276,-1.613479,17.482754,0.157414,0.988283,-0.014125,0.151940,0.003497
134,-2.959787,-0.335091,9.307214,2.390993,24.999502,-2.402143,-1.585917,18.263908,0.050864,0.987230,-0.013734,0.158687,0.002635
135,-3.141637,-0.301323,9.307450,1.757626,27.874434,-2.277050,-1.573899,19.159073,-0.063987,0.985964,-0.013450,0.166408,0.001735
136,-3.321080,-0.354959,9.266844,1.003687,29.182306,-1.558380,-1.587896,20.136702,-0.168719,0.984508,-0.013386,0.174826,0.000973
137,-3.473589,-0.349289,9.212007,1.034028,29.039045,-1.592008,-1.621731,21.138119,-0.266623,0.982940,-0.013485,0.183434,0.000309
138,-3.647712,-0.336325,9.177968,0.806510,28.083994,-1.997958,-1.658826,22.120327,-0.371973,0.981327,-0.013584,0.191865,-0.000408
139,-3.815545,-0.312863,9.163542,0.879645,26.825274,-1.265552,-1.688712,23.064615,-0.468728,0.979710,-0.013621,0.199956,-0.001061
140,-3.938858,-0.326150,9.080358,1.627254,24.683016,-0.723885,-1.693254,23.948128,-0.540496,0.978138,-0.013476,0.207512,-0.001548
141,-4.051756,-0.269994,9.013710,1.802681,22.783340,-1.218304,-1.673549,24.757252,-0.606292,0.976651,-0.013130,0.214421,-0.002037
142,-4.155115,-0.276336,8.987869,1.157199,20.814947,-1.126755,-1.655839,25.491488,-0.674129,0.975259,-0.012795,0.220681,-0.002549
143,-4.225606,-0.278485,8.922127,1.204473,19.752884,-0.517924,-1.646075,26.162897,-0.729180,0.973950,-0.012551,0.226397,-0.002946
144,-4.279249,-0.297222,8.851305,1.538596,19.786367,-0.183777,-1.628464,26.804604,-0.768910,0.972669,-0.012268,0.231851,-0.003233
145,-4.399916,-0.311848,8.802998,1.578180,20.807106,-0.830817,-1.616344,27.460554,-0.818960,0.971326,-0.012005,0.237420,-0.003594
146,-4.510967,-0.282438,8.751146,2.153370,21.484539,-1.157411,-1.601978,28.149675,-0.887867,0.969881,-0.011675,0.243263,-0.004115
147,-4.636125,-0.240776,8.658643,2.885784,22.358862,-1.477871,-1.559820,28.872768,-0.963979,0.968330,-0.011084,0.249384,-0.004753
148,-4.796869,-0.252096,8.643943,2.632467,22.326845,-1.615211,-1.511028,29.620602,-1.047386,0.966684,-0.010411,0.255703,-0.005465
149,-4.892457,-0.252504,8.579548,2.183809,20.421000,-1.842593,-1.483700,30.337753,-1.139799,0.965064,-0.009893,0.261754,-0.006211
150,-4.947045,-0.212489,8.508332,1.948802,18.417440,-1.380247,-1.460344,30.980078,-1.223451,0.963580,-0.009429,0.267165,-0.006885
151,-5.036613,-0.242499,8.471831,1.097320,16.325327,-1.015562,-1.446696,31.544518,-1.289367,0.962251,-0.009090,0.271912,-0.007396
152,-5.067051,-0.259151,8.436613,0.888207,14.687872,-0.634121,-1.454296,32.034740,-1.345217,0.961076,-0.008958,0.276031,-0.007781
153,-5.117382,-0.228507,8.344891,1.197919,15.510165,-0.824898,-1.456464,32.503094,-1.396186,0.959937,-0.008792,0.279960,-0.008139
154,-5.241716,-0.187166,8.287951,1.091110,17.943897,-0.483090,-1.439910,33.037281,-1.438014,0.958621,-0.008478,0.284434,-0.008457
155,-5.371464,-0.154472,8.224064,1.289542,21.212410,0.775838,-1.391119,33.686993,-1.442497,0.956998,-0.007971,0.289860,-0.008530
156,-5.480271,-0.165231,8.129689,1.544440,24.247543,1.537322,-1.311371,34.457836,-1.407315,0.955036,-0.007292,0.296283,-0.008340
157,-5.605656,-0.157909,8.036779,1.883242,26.722712,2.146200,-1.211523,35.331074,-1.348003,0.952763,-0.006504,0.303541,-0.008000
158,-5.781386,-0.181651,8.000508,1.813061,27.281359,3.044981,-1.097519,36.262260,-1.261938,0.950279,-0.005675,0.311260,-0.007485
159,-5.860775,-0.176502,7.903738,2.136527,25.625866,2.817600,-0.979283,37.170727,-1.164972,0.947794,-0.004860,0.318771,-0.006912
160,-5.958162,-0.188849,7.851389,1.945725,22.836525,1.430488,-0.885117,37.988941,-1.103139,0.945502,-0.004170,0.325522,-0.006588
161,-6.054388,-0.179309,7.796721,1.960897,20.852797,1.163384,-0.820574,38.712967,-1.077881,0.943431,-0.003638,0.331485,-0.006501
162,-6.148574,-0.167883,7.723045,1.390113,19.131495,0.601772,-0.775496,39.368473,-1.068781,0.941522,-0.003230,0.336873,-0.006502
163,-6.177392,-0.150439,7.632105,1.283220,17.837416,-0.046811,-0.754746,39.966503,-1.083010,0.939751,-0.002960,0.341781,-0.006631
164,-6.254587,-0.176530,7.572683,0.805512,17.233015,-0.893777,-0.769343,40.525593,-1.132644,0.938070,-0.002875,0.346364,-0.006947
165,-6.319237,-0.172485,7.494500,0.576514,17.209993,-1.179220,-0.818774,41.073677,-1.211940,0.936397,-0.002981,0.350852,-0.007397
166,-6.412874,-0.158423,7.430227,0.063712,17.498280,-1.650812,-0.887333,41.630188,-1.305910,0.934675,-0.003188,0.355402,-0.007900
167,-6.501893,-0.154187,7.362808,-0.105734,17.751507,-1.638666,-0.968402,42.201942,-1.407294,0.932881,-0.003463,0.360069,-0.008415
168,-6.591157,-0.141457,7.295846,0.399306,18.865381,-1.397608,-1.034043,42.801807,-1.499969,0.930976,-0.003625,0.364955,-0.008894
169,-6.661472,-0.132534,7.214898,0.712105,19.809896,-0.965785,-1.068562,43.439217,-1.573505,0.928926,-0.003581,0.370133,-0.009305
170,-6.744622,-0.149858,7.126909,0.715143,20.694914,-0.628568,-1.087264,44.110065,-1.631191,0.926739,-0.003448,0.375567,-0.009630
171,-6.803716,-0.134921,7.026267,1.201900,21.180151,-0.294404,-1.088153,44.805626,-1.674563,0.924440,-0.003209,0.381186,-0.009891
172,-6.879119,-0.153233,6.942397,1.473499,21.692842,0.611980,-1.057649,45.516624,-1.690186,0.922058,-0.002805,0.386912,-0.010030
173,-6.985260,-0.159330,6.875414,1.323922,21.700447,1.377957,-1.004410,46.235771,-1.671272,0.919616,-0.002334,0.392685,-0.009971
174,-7.097197,-0.141186,6.795617,1.337617,21.692808,2.024911,-0.927492,46.957703,-1.616879,0.917131,-0.001802,0.398463,-0.009717
175,-7.162966,-0.136624,6.694155,1.789258,21.560049,2.880919,-0.812159,47.678963,-1.522263,0.914616,-0.001113,0.404216,-0.009286
176,-7.251528,-0.126763,6.614199,2.182906,21.637859,3.091453,-0.662313,48.397709,-1.399535,0.912074,-0.000265,0.409932,-0.008771
177,-7.317748,-0.083327,6.514325,2.224079,21.953703,2.227749,-0.507560,49.121086,-1.284717,0.909477,0.000632,0.415670,-0.008356
178,-7.379161,-0.043679,6.391772,1.688482,21.686651,1.000909,-0.384579,49.845779,-1.209534,0.906835,0.001404,0.421404,-0.008158
179,-7.455845,-0.051804,6.303518,1.229181,21.965879,0.186068,-0.316531,50.570889,-1.184889,0.904151,0.001919,0.427130,-0.008169
180,-7.575061,-0.066584,6.228847,-0.044993,21.788862,-1.642022,-0.343940,51.298027,-1.239426,0.901420,0.001976,0.432859,-0.008451
181,-7.649986,-0.077200,6.128820,-1.528237,21.480627,-2.618670,-0.487907,52.018539,-1.379046,0.898672,0.001451,0.438527,-0.008948
182,-7.739580,-0.092926,6.054207,-1.406212,20.647463,-2.136540,-0.673303,52.718060,-1.539777,0.895968,0.000701,0.444018,-0.009431
183,-7.789854,-0.148536,5.976905,-1.355927,19.811211,-1.642233,-0.851258,53.382744,-1.688200,0.893367,-0.000019,0.449221,-0.009825
184,-7.832961,-0.125515,5.873522,-1.163730,18.982555,-2.022280,-1.026677,54.013279,-1.837851,0.890869,-0.000699,0.454145,-0.010220
185,-7.854023,-0.114899,5.766471,-0.278722,18.871069,-1.479091,-1.164301,54.625481,-1.971020,0.888418,-0.001135,0.458911,-0.010620
186,-7.876910,-0.136209,5.659220,1.360104,19.495066,-0.439964,-1.221221,55.244282,-2.058249,0.885920,-0.001114,0.463707,-0.010972
187,-7.917896,-0.137521,5.531711,1.508095,21.342878,-0.736028,-1.236576,55.908047,-2.129504,0.883214,-0.000820,0.468832,-0.011356
188,-8.025876,-0.098441,5.405181,1.650006,23.907949,-0.906933,-1.249936,56.659451,-2.208637,0.880115,-0.000454,0.474614,-0.011788
189,-8.154620,-0.134296,5.321711,1.889576,26.222832,0.211572,-1.236794,57.504871,-2.263298,0.876587,0.000039,0.481091,-0.012123
190,-8.330044,-0.131306,5.262366,1.733913,25.659836,0.692210,-1.194053,58.382435,-2.279855,0.872878,0.000608,0.487784,-0.012286
191,-8.473355,-0.136601,5.195310,0.861061,21.655857,0.257284,-1.167583,59.180553,-2.294293,0.869460,0.001027,0.493847,-0.012378
192,-8.555903,-0.146804,5.142622,-0.156766,15.541459,-0.217336,-1.201372,59.797123,-2.339587,0.866788,0.001089,0.498520,-0.012473
193,-8.533522,-0.158156,5.088226,-0.645109,8.593787,-0.279979,-1.277736,60.173710,-2.402541,0.865140,0.000863,0.501373,-0.012550
194,-8.504015,-0.154718,5.032359,-1.127407,1.979795,-0.644875,-1.421735,60.230232,-2.511446,0.864881,0.000265,0.501815,-0.012732
195,-8.416147,-0.171895,4.981334,-1.156575,-1.768980,-0.617740,-1.628241,60.024979,-2.667874,0.865760,-0.000657,0.500289,-0.013051
196,-8.362354,-0.142426,4.970914,-0.923204,-2.580328,-0.646928,-1.766503,59.748184,-2.766907,0.866952,-0.001338,0.498214,-0.013257
197,-8.367220,-0.141038,4.983114,-0.631729,-2.384350,-0.424130,-1.801250,59.502636,-2.782134,0.868014,-0.001597,0.496360,-0.013276
198,-8.374841,-0.158082,4.996632,-0.344832,-1.943939,-0.236419,-1.815300,59.321358,-2.784593,0.868796,-0.001739,0.494989,-0.013275
199,-8.373590,-0.157331,5.017740,-0.106787,-1.744444,0.003141,-1.824974,59.184559,-2.787414,0.869385,-0.001834,0.493953,-0.013285
200,-8.367575,-0.165722,5.033173,0.048850,-1.872947,0.187755,-1.822623,59.063065,-2.781953,0.869909,-0.001871,0.493031,-0.013281
201,-8.357802,-0.164931,5.036481,0.163275,-2.036471,0.257906,-1.817549,58.951206,-2.775762,0.870390,-0.001887,0.492181,-0.013281
202,-8.338823,-0.146384,5.040638,0.335723,-2.122100,0.305234,-1.777423,58.849228,-2.742565,0.870831,-0.001750,0.491401,-0.013224
203,-8.363116,-0.155186,5.063596,0.360169,-2.097799,0.312911,-1.723310,58.758148,-2.699741,0.871226,-0.001545,0.490703,-0.013150
204,-8.355555,-0.137073,5.070318,0.424293,-1.864382,0.157324,-1.669567,58.683338,-2.659894,0.871551,-0.001325,0.490127,-0.013093
205,-8.376111,-0.115183,5.095079,0.314524,-1.633985,0.123916,-1.578295,58.622864,-2.589137,0.871819,-0.000947,0.489656,-0.012957
206,-8.368073,-0.120754,5.108734,0.163566,-1.914783,0.435381,-1.477762,58.559566,-2.504417,0.872099,-0.000558,0.489163,-0.012755
207,-8.341725,-0.124981,5.114765,0.004924,-1.837041,0.653677,-1.405034,58.482983,-2.434465,0.872433,-0.000320,0.488572,-0.012547
209,-8.327276,-0.113294,5.115482,-0.037762,-1.484642,0.914671,-1.334121,58.411560,-2.359197,0.872746,-0.000116,0.488020,-0.012289
210,-8.313685,-0.132014,5.114085,0.026325,-1.437385,1.042846,-1.280592,58.354954,-2.295769,0.872993,0.000011,0.487584,-0.012043
211,-8.296193,-0.107520,5.107115,0.094978,-1.121514,0.754425,-1.237236,58.313698,-2.244384,0.873174,0.000114,0.487265,-0.011843
212,-8.327211,-0.101013,5.124131,0.108746,-0.762858,0.606466,-1.173283,58.295082,-2.180589,0.873259,0.000327,0.487117,-0.011632
213,-8.349125,-0.101612,5.148679,0.319351,-0.538471,0.569890,-1.114912,58.288059,-2.126460,0.873294,0.000540,0.487058,-0.011468
214,-8.352268,-0.095763,5.161743,0.084376,-0.584229,0.023638,-1.079760,58.273327,-2.096889,0.873360,0.000680,0.486942,-0.011395
215,-8.343087,-0.084758,5.162727,-0.271130,-0.742950,-0.489017,-1.070830,58.246704,-2.090504,0.873473,0.000716,0.486738,-0.011388
216,-8.325054,-0.101721,5.167552,-0.329099,-1.142814,-0.037320,-1.083768,58.201794,-2.097299,0.873663,0.000638,0.486397,-0.011391
217,-8.283949,-0.116020,5.157125,-0.281844,-1.200925,0.218955,-1.120639,58.138702,-2.117988,0.873929,0.000433,0.485920,-0.011402
218,-8.290973,-0.114673,5.169406,-0.326162,-1.068303,0.035735,-1.167143,58.075886,-2.146243,0.874192,0.000187,0.485445,-0.011431
219,-8.289080,-0.118901,5.175475,-0.117167,-1.008890,0.259954,-1.202864,58.022564,-2.167309,0.874416,-0.000006,0.485042,-0.011448
220,-8.296245,-0.124656,5.187770,0.088773,-0.902146,0.667278,-1.217852,57.977238,-2.171089,0.874607,-0.000113,0.484698,-0.011421
221,-8.318154,-0.127396,5.205696,0.053610,-0.845734,0.275008,-1.234092,57.939381,-2.178221,0.874766,-0.000214,0.484410,-0.011413
222,-8.321761,-0.112721,5.217285,0.061204,-1.050243,0.050640,-1.245863,57.901031,-2.186583,0.874927,-0.000276,0.484119,-0.011433
223,-8.286652,-0.111645,5.191529,-0.094438,-1.247090,0.044539,-1.241282,57.862202,-2.180950,0.875092,-0.000273,0.483822,-0.011416
224,-8.285213,-0.097112,5.185496,-0.233263,-1.207339,0.148358,-1.217507,57.836155,-2.154014,0.875205,-0.000210,0.483621,-0.011315
225,-8.288693,-0.095499,5.192660,-0.246934,-1.153810,0.322415,-1.170308,57.820137,-2.102660,0.875277,-0.000069,0.483494,-0.011124
226,-8.263382,-0.088844,5.193224,-0.213296,-1.109479,0.491901,-1.111035,57.797913,-2.038362,0.875377,0.000109,0.483318,-0.010887
227,-8.278855,-0.085491,5.199081,-0.344458,-0.941563,0.353151,-1.052131,57.776291,-1.972794,0.875474,0.000278,0.483148,-0.010637
228,-8.298570,-0.087283,5.213309,-0.275742,-0.912471,0.313557,-1.011281,57.764637,-1.923258,0.875528,0.000380,0.483055,-0.010433
229,-8.278522,-0.091828,5.224408,-0.226893,-1.173366,0.455499,-0.986247,57.737431,-1.887832,0.875646,0.000417,0.482845,-0.010271
230,-8.263451,-0.097711,5.224092,-0.281842,-1.333632,0.409695,-0.980905,57.687561,-1.868065,0.875857,0.000367,0.482464,-0.010149
231,-8.272490,-0.089941,5.228248,-0.353578,-1.246671,0.299802,-0.982888,57.641388,-1.854080,0.876053,0.000285,0.482111,-0.010040
232,-8.256701,-0.083324,5.232616,-0.326098,-1.274134,0.489036,-0.964117,57.600433,-1.821238,0.876227,0.000284,0.481796,-0.009874
233,-8.259009,-0.073181,5.241709,-0.370306,-1.272618,1.070485,-0.904387,57.556736,-1.746710,0.876417,0.000421,0.481457,-0.009560
234,-8.271096,-0.078332,5.253913,-0.327538,-1.028464,1.362000,-0.824612,57.520401,-1.647507,0.876578,0.000609,0.481173,-0.009141
235,-8.262087,-0.064182,5.272480,-0.272571,-1.057490,1.128588,-0.746531,57.479904,-1.550657,0.876755,0.000795,0.480858,-0.008732
236,-8.236680,-0.059710,5.259917,0.012820,-1.240675,0.939439,-0.668231,57.428249,-1.462205,0.876977,0.001016,0.480458,-0.008389
237,-8.233863,-0.048358,5.261267,0.273799,-0.943155,0.867793,-0.586040,57.385818,-1.380537,0.877160,0.001298,0.480128,-0.008113
238,-8.218224,-0.056410,5.265426,0.534756,-0.593746,0.849516,-0.513280,57.355209,-1.315041,0.877292,0.001577,0.479889,-0.007919
239,-8.217913,-0.045631,5.258056,0.467612,-0.787541,0.756430,-0.455984,57.331974,-1.266324,0.877392,0.001810,0.479708,-0.007787
240,-8.242327,-0.045536,5.255082,0.414199,-0.747748,0.837298,-0.402578,57.328869,-1.219291,0.877407,0.002021,0.479682,-0.007651
241,-8.245795,-0.018326,5.261343,0.290631,-0.363031,0.931955,-0.324337,57.345188,-1.147316,0.877342,0.002321,0.479803,-0.007426
242,-8.236045,-0.023940,5.264062,0.333409,-0.217934,1.241800,-0.223988,57.360729,-1.051991,0.877281,0.002691,0.479917,-0.007116
243,-8.242822,-0.038949,5.266625,0.244879,-0.176646,1.195982,-0.167799,57.370880,-0.990854,0.877241,0.002866,0.479993,-0.006883
244,-8.249068,-0.030738,5.276374,0.217341,0.175902,0.663324,-0.157342,57.381863,-0.971820,0.877195,0.002867,0.480077,-0.006780
245,-8.241201,-0.021609,5.278905,0.333265,0.413946,0.513709,-0.147945,57.391865,-0.961072,0.877154,0.002895,0.480153,-0.006737
246,-8.243229,-0.049104,5.280258,0.302657,0.322352,0.356398,-0.172543,57.396935,-0.982923,0.877132,0.002798,0.480193,-0.006801
247,-8.264050,-0.045241,5.290717,-0.059123,0.101054,-0.431192,-0.258323,57.396503,-1.059285,0.877131,0.002462,0.480193,-0.007026
248,-8.262045,-0.020912,5.285756,-0.179728,-0.181263,-0.895160,-0.332579,57.391083,-1.130391,0.877151,0.002191,0.480155,-0.007259
249,-8.247319,-0.022243,5.271325,-0.075941,-0.414718,-0.844767,-0.366767,57.383144,-1.171195,0.877182,0.002099,0.480096,-0.007429
250,-8.244628,-0.032679,5.269470,-0.153744,-0.504710,-0.943921,-0.404247,57.374622,-1.215554,0.877216,0.001997,0.480032,-0.007612
251,-8.242947,-0.040798,5.268917,-0.143067,-0.570279,-0.742507,-0.456381,57.365219,-1.270380,0.877252,0.001827,0.479963,-0.007814
252,-8.234102,-0.054893,5.259350,0.062898,-0.655661,-0.318354,-0.507654,57.357609,-1.321881,0.877281,0.001649,0.479907,-0.007994
253,-8.230546,-0.052841,5.260133,0.148309,-0.426689,-0.239068,-0.544534,57.355022,-1.360830,0.877290,0.001530,0.479889,-0.008138
254,-8.246848,-0.056733,5.281054,0.285616,-0.054317,0.186623,-0.555895,57.355453,-1.376919,0.877287,0.001510,0.479893,-0.008214
255,-8.255536,-0.057390,5.294274,0.342048,0.003655,0.297974,-0.549835,57.352200,-1.376263,0.877301,0.001554,0.479868,-0.008234
256,-8.257309,-0.042697,5.303366,0.131476,-0.223770,-0.007204,-0.531394,57.336933,-1.364750,0.877365,0.001645,0.479750,-0.008225
257,-8.251718,-0.038468,5.293576,-0.129418,-0.399307,-0.120061,-0.509062,57.316216,-1.347072,0.877453,0.001740,0.479590,-0.008185
258,-8.240625,-0.033722,5.292802,-0.164464,-0.504628,-0.109302,-0.487328,57.295265,-1.326650,0.877542,0.001818,0.479428,-0.008121
259,-8.237459,-0.025653,5.289708,-0.313936,-0.570264,-0.583758,-0.468875,57.273434,-1.310570,0.877634,0.001890,0.479260,-0.008077
260,-8.239428,-0.022256,5.281350,-0.348947,-0.478666,-0.643135,-0.456976,57.263927,-1.302237,0.877674,0.001945,0.479187,-0.008063
261,-8.246873,-0.037996,5.281010,-0.199354,-0.358006,-0.475201,-0.460984,57.270912,-1.307938,0.877644,0.001939,0.479240,-0.008090
262,-8.245742,-0.025111,5.289918,0.052470,-0.135122,-0.459870,-0.458404,57.281166,-1.312099,0.877601,0.001977,0.479318,-0.008132
263,-8.244053,-0.031500,5.287071,0.090678,-0.159476,-0.264458,-0.436529,57.287762,-1.302207,0.877574,0.002104,0.479368,-0.008147
264,-8.228670,-0.040243,5.276043,0.084597,-0.246394,-0.204911,-0.431149,57.292198,-1.304337,0.877555,0.002155,0.479401,-0.008185
265,-8.225144,-0.054244,5.278068,0.133395,-0.223463,-0.189700,-0.457424,57.292141,-1.333025,0.877554,0.002074,0.479402,-0.008295
266,-8.229605,-0.037268,5.271320,0.038768,-0.156265,-0.206516,-0.477930,57.296341,-1.356236,0.877535,0.002014,0.479435,-0.008387
267,-8.221473,-0.059008,5.268988,0.057057,-0.108887,-0.093631,-0.497981,57.306061,-1.377138,0.877493,0.001949,0.479511,-0.008462
268,-8.211419,-0.076667,5.279334,0.217182,-0.029536,-0.037322,-0.559026,57.303799,-1.433525,0.877499,0.001717,0.479497,-0.008639
269,-8.219388,-0.070953,5.286165,0.203343,-0.069274,-0.013074,-0.621352,57.289753,-1.492313,0.877554,0.001484,0.479394,-0.008829
270,-8.240926,-0.050864,5.288740,0.134649,-0.040305,-0.100093,-0.636098,57.283619,-1.510468,0.877579,0.001447,0.479348,-0.008907
271,-8.245337,-0.051998,5.305292,0.301003,0.150419,0.006765,-0.613176,57.282291,-1.498144,0.877585,0.001570,0.479336,-0.008909
272,-8.259491,-0.045501,5.307912,0.236952,0.107657,-0.032850,-0.580376,57.279961,-1.478352,0.877596,0.001739,0.479316,-0.008895
273,-8.264903,-0.023576,5.295592,0.143959,-0.064733,-0.105959,-0.521788,57.288300,-1.435654,0.877563,0.002010,0.479376,-0.008812
274,-8.256270,-0.032949,5.296373,0.179149,-0.305762,0.178012,-0.453175,57.294922,-1.381772,0.877538,0.002310,0.479422,-0.008686
275,-8.233933,-0.031274,5.291833,0.214301,-0.414099,0.382571,-0.396944,57.283932,-1.334874,0.877587,0.002544,0.479335,-0.008563
276,-8.231345,-0.038252,5.285269,0.087668,-0.609426,0.170497,-0.365287,57.265369,-1.307430,0.877666,0.002669,0.479191,-0.008487
277,-8.214875,-0.041083,5.284731,0.035767,-0.726927,-0.069103,-0.372608,57.242058,-1.314327,0.877763,0.002640,0.479013,-0.008510
278,-8.222461,-0.047106,5.293163,-0.116869,-0.714742,-0.151569,-0.406586,57.213737,-1.343666,0.877880,0.002499,0.478798,-0.008595
279,-8.214783,-0.033497,5.287607,-0.119938,-0.600295,-0.330131,-0.434440,57.192200,-1.368028,0.877968,0.002385,0.478634,-0.008667
280,-8.208910,-0.050665,5.296430,-0.068071,-0.676595,-0.174508,-0.459121,57.170082,-1.390606,0.878060,0.002288,0.478466,-0.008739
281,-8.192203,-0.051988,5.294567,-0.058957,-0.691900,0.191649,-0.487639,57.138599,-1.412533,0.878190,0.002158,0.478227,-0.008791
282,-8.192685,-0.027202,5.295465,-0.254259,-0.730090,0.139793,-0.472768,57.107258,-1.392556,0.878322,0.002185,0.477986,-0.008702
283,-8.190812,-0.028590,5.291525,-0.304544,-0.698038,-0.049312,-0.434932,57.085041,-1.352039,0.878417,0.002303,0.477813,-0.008551
284,-8.198490,-0.047227,5.293598,-0.249593,-0.409576,0.027011,-0.433661,57.078217,-1.343340,0.878446,0.002276,0.477761,-0.008490
285,-8.209931,-0.036148,5.294811,-0.267912,-0.156162,-0.041666,-0.446766,57.089611,-1.347195,0.878398,0.002193,0.477849,-0.008464
286,-8.217495,-0.027847,5.304295,-0.238882,-0.108745,-0.239977,-0.438898,57.106461,-1.336032,0.878329,0.002209,0.477978,-0.008410
287,-8.236388,-0.048457,5.304603,0.075470,-0.023175,0.179671,-0.435453,57.126450,-1.331390,0.878246,0.002218,0.478131,-0.008387
288,-8.239344,-0.047724,5.300932,0.289067,0.189080,0.393252,-0.435182,57.157486,-1.331091,0.878116,0.002222,0.478369,-0.008384
289,-8.237366,-0.024597,5.307542,0.344019,0.282271,0.262050,-0.396617,57.185940,-1.301656,0.877999,0.002397,0.478585,-0.008317
290,-8.232817,-0.024855,5.308228,0.475306,0.138866,0.442200,-0.327566,57.199173,-1.248763,0.877946,0.002707,0.478682,-0.008199
291,-8.229275,-0.020427,5.299123,0.388375,0.178554,0.239323,-0.266203,57.207378,-1.203144,0.877913,0.002987,0.478742,-0.008106
292,-8.217999,-0.005769,5.300860,0.293829,0.268578,0.086826,-0.207601,57.213741,-1.160512,0.877888,0.003258,0.478788,-0.008024
293,-8.217835,-0.000584,5.309647,0.156574,0.085393,0.047275,-0.145952,57.205761,-1.113802,0.877923,0.003535,0.478724,-0.007924
294,-8.230008,-0.023266,5.311528,-0.035673,-0.204616,-0.062563,-0.132278,57.188229,-1.104139,0.877996,0.003598,0.478589,-0.007908
295,-8.232546,-0.028101,5.309324,-0.360749,-0.425909,-0.511269,-0.188169,57.171349,-1.150727,0.878065,0.003363,0.478462,-0.008032
296,-8.221229,-0.026176,5.303861,-0.359276,-0.645647,-0.531187,-0.260162,57.152580,-1.210520,0.878141,0.003059,0.478322,-0.008191
297,-8.201826,-0.034469,5.296400,-0.266235,-0.753990,-0.694524,-0.327929,57.128487,-1.269713,0.878239,0.002785,0.478140,-0.008363
298,-8.209901,-0.040034,5.305063,-0.141153,-0.557149,-0.641183,-0.396066,57.105888,-1.333248,0.878330,0.002525,0.477971,-0.008568
299,-8.208695,-0.030998,5.312535,0.000750,-0.525114,-0.432143,-0.431173,57.085796,-1.370408,0.878412,0.002409,0.477819,-0.008707
300,-8.212153,-0.033846,5.314166,0.101487,-0.462558,-0.332920,-0.432972,57.067951,-1.380208,0.878486,0.002434,0.477682,-0.008777
301,-8.225385,-0.049968,5.325050,0.096902,-0.245865,-0.126931,-0.446155,57.058426,-1.398165,0.878524,0.002407,0.477609,-0.008860
302,-8.241979,-0.040721,5.344972,-0.157947,-0.218405,-0.064397,-0.463864,57.049328,-1.413874,0.878561,0.002336,0.477541,-0.008907
303,-8.223741,-0.052867,5.338944,-0.402114,-0.638078,-0.201760,-0.491588,57.026825,-1.431652,0.878654,0.002194,0.477370,-0.008930
304,-8.208291,-0.051412,5.321387,-0.641716,-0.880717,-0.478003,-0.546752,56.998199,-1.469377,0.878772,0.001925,0.477154,-0.008992
305,-8.201189,-0.053603,5.321521,-0.663098,-0.699106,-0.287290,-0.599254,56.976578,-1.501976,0.878860,0.001656,0.476992,-0.009026
306,-8.190056,-0.045351,5.322789,-0.583734,-0.755549,-0.066006,-0.618605,56.955341,-1.503848,0.878948,0.001513,0.476830,-0.008961
307,-8.161877,-0.069731,5.304076,-0.206835,-0.741797,0.048432,-0.634748,56.933716,-1.506346,0.879038,0.001396,0.476666,-0.008915
308,-8.187836,-0.055396,5.311404,-0.010010,-0.239689,-0.096560,-0.651483,56.932064,-1.517683,0.879044,0.001315,0.476654,-0.008933
309,-8.219114,-0.050387,5.331310,0.257056,0.292986,0.190359,-0.626620,56.956860,-1.499448,0.878942,0.001433,0.476843,-0.008894
310,-8.224178,-0.047868,5.339406,0.417323,0.242727,0.166014,-0.578534,56.984188,-1.465370,0.878831,0.001663,0.477049,-0.008830
312,-8.212248,-0.051429,5.329991,0.408194,0.190898,-0.059780,-0.544818,57.001289,-1.447707,0.878760,0.001850,0.477178,-0.008834
313,-8.236308,-0.034043,5.335660,0.151880,0.258100,-0.209258,-0.516900,57.020233,-1.434600,0.878682,0.002012,0.477321,-0.008848
314,-8.219273,-0.026850,5.318961,0.159589,0.004884,0.189133,-0.461466,57.041313,-1.392653,0.878596,0.002265,0.477479,-0.008755
315,-8.186045,-0.025595,5.307511,0.301581,-0.133928,0.543274,-0.383334,57.048241,-1.326892,0.878571,0.002590,0.477528,-0.008576
316,-8.175518,-0.017697,5.309732,0.417627,0.180378,0.619685,-0.294238,57.042870,-1.251649,0.878597,0.002959,0.477482,-0.008371
317,-8.216143,-0.004544,5.338246,0.477225,0.419877,0.618292,-0.192798,57.039650,-1.167857,0.878613,0.003388,0.477452,-0.008151
318,-8.216154,-0.006677,5.349699,0.492557,0.337367,0.650447,-0.098197,57.031773,-1.090572,0.878649,0.003790,0.477388,-0.007953
319,-8.208765,-0.017092,5.354677,0.353705,0.135773,0.316281,-0.054761,57.007504,-1.057217,0.878750,0.003983,0.477200,-0.007879
320,-8.210382,-0.006692,5.348478,0.103433,-0.099378,-0.231558,-0.057727,56.978416,-1.065334,0.878871,0.003992,0.476977,-0.007931
321,-8.210223,-0.018383,5.340314,0.013371,-0.306976,-0.227028,-0.087078,56.957962,-1.095733,0.878955,0.003892,0.476821,-0.008043
322,-8.196783,-0.035300,5.330716,-0.038595,-0.393965,-0.198167,-0.152314,56.944241,-1.153918,0.879010,0.003632,0.476718,-0.008218
323,-8.214211,-0.039307,5.338121,0.004020,-0.413774,-0.093049,-0.230464,56.935852,-1.221565,0.879043,0.003313,0.476658,-0.008412
324,-8.214540,-0.031699,5.345328,0.049722,-0.441208,0.001443,-0.279139,56.927563,-1.263914,0.879075,0.003115,0.476596,-0.008535
325,-8.205476,-0.040693,5.349128,0.009996,-0.526671,-0.090193,-0.313541,56.909256,-1.294340,0.879150,0.002976,0.476458,-0.008627
326,-8.201487,-0.025144,5.348201,-0.113627,-0.580109,-0.262658,-0.338189,56.884956,-1.316698,0.879250,0.002878,0.476273,-0.008698
327,-8.193635,-0.022308,5.349662,-0.086132,-0.627442,-0.148170,-0.333897,56.859325,-1.313990,0.879357,0.002897,0.476076,-0.008696
328,-8.182622,-0.016659,5.345028,-0.144066,-0.590846,-0.196922,-0.314544,56.834164,-1.297652,0.879462,0.002975,0.475882,-0.008653
329,-8.178405,-0.011965,5.355819,-0.087539,-0.435247,-0.111367,-0.283385,56.808735,-1.271097,0.879569,0.003101,0.475685,-0.008580
330,-8.186702,-0.033610,5.362346,-0.121086,-0.685557,0.225897,-0.269959,56.779057,-1.255856,0.879693,0.003138,0.475456,-0.008521
331,-8.182996,-0.025097,5.354561,-0.266064,-0.977017,-0.053371,-0.281108,56.749798,-1.258137,0.879814,0.003059,0.475232,-0.008494
332,-8.181668,-0.012130,5.357929,-0.246197,-0.847279,-0.221175,-0.277317,56.725945,-1.250255,0.879914,0.003054,0.475049,-0.008451
333,-8.171411,-0.015609,5.365112,-0.180529,-0.861002,0.071883,-0.255298,56.699554,-1.227188,0.880024,0.003125,0.474846,-0.008367
334,-8.169707,-0.027610,5.358302,-0.261389,-0.844199,0.007815,-0.251617,56.674469,-1.217154,0.880129,0.003109,0.474653,-0.008306
335,-8.170440,-0.011493,5.368615,-0.111831,-0.371124,-0.330913,-0.254761,56.661411,-1.217493,0.880183,0.003085,0.474553,-0.008297
336,-8.164496,-0.027769,5.371532,0.004157,-0.139173,0.038388,-0.252983,56.654659,-1.217165,0.880210,0.003097,0.474501,-0.008302
337,-8.168087,-0.030209,5.365086,-0.012651,-0.239855,0.149747,-0.262188,56.653782,-1.222998,0.880214,0.003050,0.474495,-0.008309
338,-8.168956,-0.033969,5.362428,0.001049,-0.113130,-0.163120,-0.283951,56.661636,-1.241125,0.880181,0.002959,0.474556,-0.008357
339,-8.162393,-0.031980,5.362543,0.083417,-0.106962,0.012313,-0.306132,56.670071,-1.262205,0.880145,0.002877,0.474622,-0.008427
340,-8.164083,-0.028482,5.351297,0.049834,-0.219800,0.270178,-0.303774,56.679611,-1.259488,0.880105,0.002884,0.474695,-0.008415
341,-8.168122,-0.019039,5.364819,0.141411,-0.045772,0.009275,-0.280765,56.688889,-1.240352,0.880068,0.002983,0.474765,-0.008363
342,-8.174511,-0.037001,5.376915,0.133778,-0.036617,0.015375,-0.277189,56.687290,-1.240967,0.880074,0.003012,0.474753,-0.008383
343,-8.171148,-0.026133,5.374059,0.057459,-0.285373,0.033651,-0.287091,56.676311,-1.251442,0.880119,0.002979,0.474669,-0.008423
344,-8.177544,-0.017565,5.368380,0.004072,-0.315879,-0.233356,-0.278791,56.668728,-1.247166,0.880151,0.003024,0.474610,-0.008425
345,-8.172585,-0.024253,5.380535,0.077340,-0.083931,-0.265363,-0.275017,56.663395,-1.249694,0.880172,0.003063,0.474569,-0.008460
346,-8.165174,-0.020866,5.378613,0.049888,-0.167901,-0.065445,-0.272081,56.650936,-1.252032,0.880224,0.003094,0.474473,-0.008491
347,-8.163623,-0.010950,5.377775,-0.009581,-0.219824,-0.137100,-0.250462,56.636551,-1.236374,0.880284,0.003194,0.474361,-0.008461
348,-8.164578,-0.016749,5.383314,-0.041579,-0.088637,-0.213326,-0.231691,56.623726,-1.223184,0.880338,0.003282,0.474261,-0.008438
349,-8.165119,-0.015400,5.394870,-0.056811,-0.096341,-0.092735,-0.223496,56.606510,-1.217770,0.880409,0.003321,0.474129,-0.008432
350,-8.165075,-0.014264,5.390650,-0.195641,-0.306997,-0.226975,-0.218226,56.585133,-1.212775,0.880498,0.003339,0.473964,-0.008416
351,-8.169681,-0.025656,5.388545,-0.276513,-0.422989,-0.358198,-0.238629,56.568775,-1.228579,0.880565,0.003247,0.473840,-0.008454
352,-8.159162,-0.016773,5.381725,-0.245992,-0.407711,-0.294109,-0.263027,56.558533,-1.247629,0.880606,0.003137,0.473762,-0.008501
353,-8.161782,-0.010821,5.374554,-0.134558,-0.325245,-0.136875,-0.254240,56.558662,-1.238933,0.880606,0.003168,0.473763,-0.008470
354,-8.161722,-0.017090,5.376618,0.040968,-0.058114,-0.016258,-0.232192,56.570065,-1.220622,0.880560,0.003263,0.473849,-0.008420
355,-8.163110,-0.018644,5.374548,0.140175,0.166287,0.215715,-0.210959,56.588768,-1.203592,0.880483,0.003358,0.473992,-0.008376
356,-8.166327,-0.007039,5.378560,0.260757,0.320479,0.318004,-0.169657,56.610691,-1.169806,0.880393,0.003537,0.474158,-0.008286
357,-8.177189,-0.024779,5.384550,0.202780,0.282375,0.260032,-0.142096,56.629032,-1.147957,0.880318,0.003660,0.474298,-0.008231
358,-8.171662,-0.025143,5.384049,0.066928,0.128268,0.250810,-0.152136,56.637894,-1.155422,0.880281,0.003614,0.474367,-0.008246
359,-8.181933,-0.025241,5.381453,-0.091817,-0.030416,0.021847,-0.175914,56.641926,-1.172437,0.880264,0.003502,0.474399,-0.008278
360,-8.176191,-0.023161,5.380227,-0.110165,-0.150938,-0.284922,-0.209335,56.643826,-1.199946,0.880255,0.003360,0.474415,-0.008351
361,-8.173576,-0.030151,5.388846,-0.125461,-0.198261,-0.288030,-0.250485,56.634254,-1.236275,0.880293,0.003193,0.474343,-0.008461
362,-8.170198,-0.028017,5.385167,-0.142278,-0.324956,-0.278924,-0.289085,56.617302,-1.269959,0.880362,0.003035,0.474215,-0.008561
363,-8.186107,-0.032150,5.386816,-0.094994,-0.465333,-0.500213,-0.325184,56.605461,-1.303906,0.880410,0.002897,0.474126,-0.008673
364,-8.181479,-0.016203,5.391201,-0.085819,-0.616369,-0.545959,-0.341971,56.593208,-1.324947,0.880459,0.002853,0.474033,-0.008766
365,-8.184394,-0.012540,5.407287,-0.041494,-0.762881,-0.130798,-0.315724,56.565964,-1.307402,0.880572,0.002980,0.473822,-0.008742
366,-8.185901,-0.020859,5.403422,-0.139091,-0.987219,-0.145964,-0.287539,56.531807,-1.283822,0.880715,0.003096,0.473558,-0.008679
367,-8.175039,-0.007857,5.402264,-0.222958,-1.174898,-0.347294,-0.268427,56.497746,-1.267277,0.880856,0.003171,0.473295,-0.008633
368,-8.152965,-0.002014,5.412170,-0.264066,-1.283281,-0.197615,-0.233575,56.448708,-1.236354,0.881060,0.003307,0.472916,-0.008542
369,-8.147845,-0.018949,5.406157,-0.282320,-1.442037,0.023730,-0.211813,56.392227,-1.212123,0.881294,0.003369,0.472481,-0.008449
370,-8.136347,-0.020172,5.399499,-0.343351,-1.373354,-0.305861,-0.225234,56.348373,-1.217114,0.881475,0.003282,0.472145,-0.008435
371,-8.128856,-0.033465,5.408704,-0.199940,-1.065083,-0.138049,-0.261566,56.314072,-1.243825,0.881615,0.003110,0.471883,-0.008493
372,-8.124041,-0.044076,5.409419,0.015147,-0.785812,0.084633,-0.307520,56.288204,-1.279915,0.881720,0.002902,0.471686,-0.008583
373,-8.130576,-0.040008,5.409773,0.105110,-0.585848,-0.080265,-0.345337,56.277855,-1.312936,0.881761,0.002746,0.471608,-0.008682
374,-8.129638,-0.045586,5.425348,0.172199,-0.402685,-0.002520,-0.374139,56.270966,-1.341450,0.881788,0.002641,0.471557,-0.008783
375,-8.141249,-0.055927,5.443116,0.089727,-0.659063,-0.020939,-0.414011,56.248978,-1.378392,0.881876,0.002484,0.471390,-0.008905
376,-8.153007,-0.027826,5.449706,-0.201743,-1.397642,-0.545886,-0.441252,56.208687,-1.404599,0.882041,0.002378,0.471081,-0.008998
377,-8.183016,-0.036522,5.486899,-0.499262,-2.313239,-0.573298,-0.457399,56.139053,-1.418409,0.882326,0.002302,0.470546,-0.009044
378,-8.192170,-0.036904,5.524571,-0.842567,-3.753836,-0.524427,-0.488887,56.014511,-1.435703,0.882836,0.002117,0.469589,-0.009058
379,-8.187772,-0.020560,5.553413,-1.402552,-5.942129,-0.765480,-0.537935,55.830887,-1.456533,0.883586,0.001803,0.468178,-0.009034
380,-8.194361,-0.039584,5.597803,-1.928975,-8.752940,-0.116930,-0.598672,55.575504,-1.467715,0.884627,0.001349,0.466212,-0.008895
381,-8.147680,-0.053109,5.650619,-2.098341,-11.731628,0.890194,-0.635747,55.218983,-1.433560,0.886076,0.000882,0.463461,-0.008514
382,-8.074888,-0.045033,5.708677,-2.417247,-14.736308,0.849013,-0.654874,54.753281,-1.368098,0.887957,0.000415,0.459858,-0.007974
383,-7.977214,-0.065935,5.765568,-2.472172,-17.344297,0.934476,-0.680325,54.184898,-1.301551,0.890231,-0.000113,0.455450,-0.007408
384,-7.897181,-0.089358,5.843352,-2.574418,-19.308380,0.940562,-0.717616,53.533852,-1.240926,0.892807,-0.000714,0.450388,-0.006848
385,-7.795955,-0.068270,5.920815,-2.717864,-20.593449,0.171481,-0.773747,52.824203,-1.198987,0.895580,-0.001393,0.444853,-0.006367
386,-7.723122,-0.081362,6.031463,-2.879608,-21.625235,-0.431258,-0.857807,52.071648,-1.188129,0.898480,-0.002175,0.438967,-0.006030
387,-7.634216,-0.108546,6.130023,-2.821633,-22.519701,-0.531986,-0.963181,51.284088,-1.198897,0.901472,-0.003050,0.432788,-0.005794
388,-7.584377,-0.141271,6.275968,-3.136006,-23.928419,-1.273630,-1.097383,50.455280,-1.236214,0.904572,-0.004065,0.426265,-0.005677
389,-7.524017,-0.194878,6.419261,-3.163538,-26.498383,-2.849998,-1.293570,49.556271,-1.339064,0.907873,-0.005351,0.419170,-0.005878
390,-7.407712,-0.233767,6.550278,-2.840140,-29.794710,-4.611037,-1.553431,48.552990,-1.526171,0.911482,-0.006881,0.411231,-0.006566
391,-7.288864,-0.275627,6.665443,-2.678506,-33.152092,-6.308007,-1.861337,47.434128,-1.787753,0.915412,-0.008595,0.402351,-0.007749
392,-7.137905,-0.280921,6.779057,-2.327642,-35.963169,-7.432736,-2.186273,46.212482,-2.092966,0.919595,-0.010378,0.392621,-0.009310
393,-6.948015,-0.282922,6.874330,-1.525060,-37.454315,-7.649488,-2.476709,44.920021,-2.395669,0.923901,-0.011983,0.382283,-0.011060
394,-6.753923,-0.281089,6.973767,-0.534734,-37.611786,-7.045232,-2.694221,43.603340,-2.658298,0.928171,-0.013209,0.371699,-0.012802
395,-6.602468,-0.296901,7.079701,0.119928,-37.459442,-6.445517,-2.839520,42.296520,-2.872566,0.932295,-0.014061,0.361138,-0.014434
396,-6.453504,-0.263356,7.228013,0.721238,-37.122417,-5.917468,-2.920476,41.008087,-3.042377,0.936250,-0.014565,0.350670,-0.015934
397,-6.308427,-0.272050,7.388283,1.469088,-36.612946,-4.699659,-2.932507,39.738037,-3.159942,0.940047,-0.014688,0.340294,-0.017229
398,-6.171754,-0.292685,7.561563,1.945326,-35.935619,-2.824179,-2.880349,38.490887,-3.211841,0.943678,-0.014485,0.330047,-0.018169
399,-6.037464,-0.284708,7.739071,1.846291,-35.012619,-1.278303,-2.778689,37.272751,-3.195447,0.947135,-0.014059,0.319983,-0.018667
400,-5.887110,-0.268104,7.890821,2.101289,-33.232056,0.406440,-2.633860,36.101387,-3.116138,0.950374,-0.013421,0.310256,-0.018726
401,-5.723218,-0.279968,7.977934,2.485978,-31.210377,1.990460,-2.449707,34.998318,-2.981724,0.953348,-0.012558,0.301052,-0.018382
402,-5.604301,-0.269672,8.078397,2.498315,-29.994341,2.448324,-2.251144,33.959583,-2.820525,0.956075,-0.011596,0.292352,-0.017799
403,-5.479042,-0.220935,8.149484,2.420633,-29.828070,2.246996,-2.054487,32.956367,-2.660358,0.958633,-0.010603,0.283927,-0.017173
404,-5.312270,-0.203560,8.215491,3.179172,-29.823517,3.011585,-1.842762,31.961708,-2.493797,0.961098,-0.009465,0.275552,-0.016491
405,-5.184869,-0.191127,8.298632,3.438717,-30.150080,3.365688,-1.613214,30.964369,-2.314760,0.963497,-0.008173,0.267132,-0.015707
406,-5.047959,-0.158418,8.392742,3.776074,-30.433887,2.822536,-1.384177,29.960424,-2.147504,0.965834,-0.006823,0.258640,-0.014980
407,-4.902584,-0.111424,8.492877,4.078352,-30.154631,2.541851,-1.154202,28.955763,-2.000952,0.968092,-0.005386,0.250126,-0.014388
408,-4.783183,-0.096093,8.596470,4.644615,-29.608322,2.494630,-0.918175,27.966743,-1.867584,0.970237,-0.003836,0.241727,-0.013878
409,-4.658486,-0.030391,8.699079,4.197678,-29.977541,1.541013,-0.690497,26.985344,-1.757967,0.972289,-0.002279,0.233379,-0.013511
410,-4.499988,-0.007911,8.802762,2.925234,-30.403227,0.643862,-0.506487,25.988722,-1.686110,0.974292,-0.000998,0.224892,-0.013343
411,-4.332200,0.025755,8.899478,1.687884,-30.598532,0.685149,-0.374731,24.974188,-1.634681,0.976250,-0.000108,0.216242,-0.013220
412,-4.171378,0.000861,8.945112,0.893018,-30.146862,0.639440,-0.286399,23.961866,-1.589829,0.978127,0.000435,0.207599,-0.013052
413,-3.992228,0.002618,8.973424,0.011128,-29.853878,0.021484,-0.243355,22.963547,-1.563898,0.979900,0.000636,0.199066,-0.012951
415,-3.797383,-0.029016,9.044394,-0.762465,-30.618395,-0.414909,-0.245612,21.950567,-1.561734,0.981622,0.000491,0.190396,-0.012971
416,-3.652783,-0.039517,9.129465,-0.831124,-31.752213,-1.122935,-0.278605,20.900665,-1.583372,0.983322,0.000115,0.181398,-0.013147
417,-3.403792,-0.025313,9.216736,-0.768544,-35.792988,-2.126988,-0.319482,19.750530,-1.633514,0.985086,-0.000302,0.171525,-0.013565
418,-3.161655,0.001489,9.344099,-1.041617,-40.909702,-2.885350,-0.361927,18.419107,-1.709033,0.987002,-0.000731,0.160074,-0.014216
419,-2.890829,-0.001584,9.481572,-0.972849,-44.563183,-3.333939,-0.404239,16.915422,-1.800820,0.989005,-0.001178,0.147115,-0.015025
420,-2.650615,0.002813,9.554969,-0.350153,-44.780346,-3.488023,-0.431869,15.336102,-1.900497,0.990923,-0.001522,0.133476,-0.015933
421,-2.347497,0.029570,9.608005,0.692214,-44.390213,-3.001211,-0.419238,13.755258,-1.992025,0.992655,-0.001550,0.119793,-0.016820
422,-2.176816,-0.017285,9.665075,1.096729,-40.980217,-2.439636,-0.379216,12.248771,-2.067733,0.994132,-0.001365,0.106729,-0.017587
423,-1.961550,0.003460,9.680380,1.460014,-36.859001,-1.911642,-0.327467,10.893264,-2.128641,0.995314,-0.001081,0.094955,-0.018220
424,-1.795327,-0.008448,9.703909,1.138152,-33.340416,-1.589651,-0.272537,9.685499,-2.177552,0.996251,-0.000765,0.084451,-0.018733
425,-1.628124,-0.028842,9.726029,0.681961,-32.048054,-1.769699,-0.238575,8.577019,-2.227148,0.997013,-0.000622,0.074805,-0.019224
426,-1.450944,-0.025020,9.721765,0.100615,-30.871611,-1.771220,-0.227257,7.519760,-2.281423,0.997650,-0.000673,0.065601,-0.019735
427,-1.282992,-0.010219,9.731887,-0.575328,-29.188532,-1.585051,-0.233508,6.515568,-2.332573,0.998177,-0.000877,0.056858,-0.020205
428,-1.136966,-0.059238,9.779840,-1.889141,-27.064426,-2.314442,-0.279351,5.581122,-2.393386,0.998596,-0.001418,0.048725,-0.020741
429,-0.971452,-0.026724,9.732396,-3.245687,-23.852316,-3.181168,-0.372544,4.739384,-2.480404,0.998908,-0.002353,0.041408,-0.021491
430,-0.853870,-0.031014,9.763340,-4.889057,-18.274996,-3.373429,-0.506412,4.048291,-2.583641,0.999116,-0.003619,0.035411,-0.022374
431,-0.768282,-0.065274,9.840648,-6.276071,-12.436692,-3.936490,-0.690395,3.556277,-2.699527,0.999227,-0.005289,0.031162,-0.023357
432,-0.731010,-0.138769,9.864029,-6.710957,-7.251416,-5.134340,-0.915309,3.260353,-2.846273,0.999261,-0.007275,0.028637,-0.024598
433,-0.722935,-0.164528,9.869779,-6.125028,-2.561977,-5.265567,-1.143712,3.144032,-3.017274,0.999235,-0.009251,0.027685,-0.026043
434,-0.753917,-0.242992,9.952546,-4.756322,0.822878,-4.467505,-1.343257,3.177634,-3.179731,0.999171,-0.010944,0.028039,-0.027407
435,-0.773956,-0.254403,9.922807,-2.763527,2.381259,-3.611455,-1.488210,3.304795,-3.316700,0.999092,-0.012141,0.029197,-0.028551
436,-0.810830,-0.266743,9.906260,-0.869911,3.369660,-2.254882,-1.565542,3.609616,-3.417987,0.998979,-0.012709,0.031885,-0.029375
437,-0.826845,-0.238636,9.908676,0.692725,3.726888,-0.489335,-1.555427,4.043061,-3.466084,0.998843,-0.012492,0.035666,-0.029742
438,-0.842422,-0.222060,9.891484,1.929026,3.416920,0.935935,-1.454579,4.410120,-3.457573,0.998739,-0.011517,0.038838,-0.029656
439,-0.842177,-0.180909,9.866810,2.927227,2.685102,1.692828,-1.324108,4.630429,-3.412381,0.998688,-0.010338,0.040720,-0.029281
440,-0.852045,-0.167727,9.881905,3.009752,1.908533,1.454798,-1.197410,4.732026,-3.359479,0.998676,-0.009226,0.041569,-0.028855
441,-0.867323,-0.144931,9.871331,2.938150,1.214335,1.170987,-1.072596,4.803228,-3.314752,0.998671,-0.008136,0.042155,-0.028504
442,-0.872566,-0.123026,9.872630,2.550861,0.788814,0.850572,-0.922357,4.877121,-3.276778,0.998663,-0.006822,0.042759,-0.028222
443,-0.874559,-0.117769,9.864147,2.073642,0.610571,0.420300,-0.768868,4.955287,-3.249428,0.998649,-0.005475,0.043401,-0.028036
444,-0.878447,-0.116893,9.866966,1.362778,0.503970,-0.081709,-0.670062,5.014059,-3.240394,0.998634,-0.004603,0.043889,-0.027991
445,-0.875323,-0.101174,9.876266,1.588730,0.166862,0.255532,-0.598964,5.048072,-3.235690,0.998624,-0.003976,0.044168,-0.027975
446,-0.878725,-0.102835,9.881148,1.633039,-0.119956,0.431019,-0.533528,5.059477,-3.223255,0.998625,-0.003408,0.044251,-0.027891
447,-0.875817,-0.099790,9.875893,1.562817,-0.599068,0.720943,-0.483892,5.052877,-3.204336,0.998634,-0.002985,0.044181,-0.027746
448,-0.868297,-0.088938,9.892874,1.500204,-1.311695,1.181767,-0.439598,5.017671,-3.173087,0.998656,-0.002619,0.043862,-0.027492
449,-0.861016,-0.083526,9.898175,1.172080,-2.135751,1.398444,-0.400659,4.950102,-3.130325,0.998692,-0.002312,0.043263,-0.027137
450,-0.862670,-0.089232,9.902255,0.439529,-2.474518,1.048998,-0.390188,4.871339,-3.090580,0.998731,-0.002255,0.042574,-0.026798
451,-0.838453,-0.078545,9.882787,0.042670,-2.935343,0.908603,-0.401942,4.782221,-3.059143,0.998771,-0.002390,0.041799,-0.026523
452,-0.810223,-0.071566,9.871473,-0.134390,-3.396247,0.858242,-0.410802,4.662866,-3.029677,0.998821,-0.002505,0.040760,-0.026268
453,-0.789305,-0.084895,9.872124,-0.380126,-3.559643,0.646133,-0.429213,4.524374,-3.004641,0.998874,-0.002707,0.039557,-0.026049
454,-0.762430,-0.068965,9.880046,-0.337435,-3.716948,0.556099,-0.446118,4.377809,-2.984142,0.998928,-0.002894,0.038282,-0.025871
455,-0.732215,-0.065909,9.885046,-0.378574,-4.014672,0.607984,-0.444846,4.217433,-2.962788,0.998985,-0.002927,0.036883,-0.025692
456,-0.723142,-0.069532,9.891365,-0.515837,-4.010213,0.441662,-0.445140,4.061609,-2.943211,0.999038,-0.002971,0.035525,-0.025528
457,-0.705660,-0.084391,9.899188,-0.592133,-3.898835,0.301277,-0.462821,3.927330,-2.929745,0.999082,-0.003159,0.034357,-0.025410
458,-0.685837,-0.073113,9.893256,-0.531099,-3.732473,0.292122,-0.481289,3.806957,-2.918823,0.999119,-0.003350,0.033312,-0.025315
459,-0.669649,-0.102746,9.888557,-0.430437,-3.598121,0.319586,-0.505903,3.698016,-2.908170,0.999151,-0.003592,0.032367,-0.025220
460,-0.665979,-0.108086,9.897192,-0.259689,-3.208864,0.250911,-0.545950,3.611951,-2.899515,0.999176,-0.003963,0.031625,-0.025137
461,-0.641456,-0.104705,9.914500,0.034695,-2.921830,0.356193,-0.571365,3.540005,-2.889828,0.999197,-0.004203,0.031003,-0.025050
462,-0.620337,-0.102812,9.911142,0.175027,-2.503639,0.485894,-0.577213,3.466089,-2.875513,0.999219,-0.004274,0.030359,-0.024927
463,-0.600305,-0.103016,9.910422,0.222302,-2.332708,0.582026,-0.574638,3.390833,-2.857190,0.999243,-0.004273,0.029702,-0.024772
464,-0.585727,-0.087286,9.906432,0.178084,-2.219793,0.481317,-0.560448,3.314242,-2.838308,0.999267,-0.004171,0.029030,-0.024614
465,-0.559565,-0.079580,9.888090,0.201086,-2.433479,0.649174,-0.531866,3.226535,-2.817468,0.999294,-0.003946,0.028258,-0.024444
466,-0.549967,-0.082292,9.890199,0.158462,-2.416774,0.696484,-0.505279,3.130991,-2.793176,0.999323,-0.003741,0.027419,-0.024243
467,-0.551122,-0.087305,9.892118,0.282098,-2.355727,0.507271,-0.489970,3.053360,-2.772009,0.999346,-0.003629,0.026738,-0.024065
468,-0.541933,-0.094451,9.893746,0.199661,-2.262552,0.249389,-0.488411,2.993935,-2.759101,0.999363,-0.003631,0.026219,-0.023956
469,-0.540504,-0.102683,9.894154,0.167508,-2.004528,0.061695,-0.502386,2.949682,-2.754367,0.999373,-0.003763,0.025836,-0.023913
470,-0.534257,-0.105577,9.896081,0.193306,-1.520627,-0.257229,-0.523390,2.925045,-2.758505,0.999377,-0.003950,0.025625,-0.023946
471,-0.527489,-0.105301,9.900421,0.206909,-1.300717,-0.402197,-0.541611,2.911042,-2.770332,0.999377,-0.004110,0.025507,-0.024045
472,-0.519250,-0.093628,9.899579,0.022216,-1.172396,-0.362524,-0.549199,2.896695,-2.783257,0.999377,-0.004176,0.025384,-0.024157
473,-0.530037,-0.100250,9.880480,0.174787,-0.467242,-0.440346,-0.550627,2.902386,-2.796599,0.999373,-0.004184,0.025435,-0.024273
474,-0.528449,-0.089138,9.867227,0.493705,0.546197,-0.325899,-0.540024,2.945695,-2.809389,0.999361,-0.004080,0.025811,-0.024385
475,-0.528622,-0.078884,9.903351,0.629590,1.323076,-0.034442,-0.507044,3.010887,-2.814925,0.999346,-0.003777,0.026372,-0.024437
476,-0.529934,-0.073479,9.914520,0.731939,1.660410,0.058646,-0.463595,3.080395,-2.813848,0.999332,-0.003383,0.026969,-0.024435
477,-0.541135,-0.079154,9.949517,0.602295,1.881723,0.020501,-0.430035,3.149594,-2.812386,0.999317,-0.003076,0.027566,-0.024428
478,-0.535897,-0.070193,9.968752,0.533651,1.489534,0.353154,-0.406481,3.200839,-2.806328,0.999306,-0.002861,0.028007,-0.024379
479,-0.537776,-0.075622,9.979938,0.298657,0.590638,0.473701,-0.391985,3.211975,-2.792782,0.999307,-0.002735,0.028101,-0.024264
480,-0.543253,-0.081063,9.948641,0.034603,-0.250283,0.313475,-0.398517,3.192366,-2.780401,0.999314,-0.002800,0.027931,-0.024155
481,-0.548649,-0.080530,9.922633,-0.243209,-0.570803,0.292106,-0.419095,3.164484,-2.771177,0.999322,-0.002987,0.027692,-0.024070
482,-0.545179,-0.077342,9.902806,-0.189864,-0.808874,0.530146,-0.437406,3.136454,-2.757936,0.999331,-0.003156,0.027451,-0.023952
483,-0.548650,-0.077352,9.910937,-0.336379,-0.976714,0.398916,-0.450087,3.109132,-2.742462,0.999341,-0.003276,0.027215,-0.023815
484,-0.542213,-0.065423,9.901506,-0.478249,-0.882069,0.186814,-0.455404,3.085383,-2.732023,0.999348,-0.003330,0.027009,-0.023723
485,-0.538439,-0.074915,9.898464,-0.470557,-0.761485,0.267692,-0.459137,3.064722,-2.723588,0.999355,-0.003369,0.026829,-0.023650
486,-0.532086,-0.083175,9.898237,-0.417150,-0.753828,0.372981,-0.473418,3.044594,-2.712692,0.999361,-0.003500,0.026656,-0.023552
487,-0.522909,-0.077312,9.896100,-0.350007,-0.650070,0.302788,-0.485159,3.020314,-2.701196,0.999369,-0.003610,0.026446,-0.023450
488,-0.514678,-0.081414,9.886017,-0.182129,-0.462422,0.061693,-0.488809,2.994298,-2.694696,0.999376,-0.003649,0.026220,-0.023394
489,-0.523686,-0.082903,9.914415,-0.114973,-0.392237,-0.049699,-0.490864,2.978677,-2.694223,0.999379,-0.003670,0.026084,-0.023390
490,-0.518812,-0.078689,9.904492,0.022391,-0.428826,-0.023756,-0.486791,2.971097,-2.695037,0.999381,-0.003636,0.026017,-0.023398
491,-0.517527,-0.085930,9.914173,0.084970,-0.396758,0.029652,-0.481757,2.961925,-2.694654,0.999383,-0.003594,0.025936,-0.023396
492,-0.520382,-0.097380,9.915594,0.168836,-0.384511,-0.072587,-0.488898,2.956284,-2.695846,0.999384,-0.003657,0.025889,-0.023405
493,-0.518546,-0.080371,9.929927,0.103184,-0.350891,-0.003922,-0.491394,2.953398,-2.697379,0.999384,-0.003679,0.025864,-0.023418
494,-0.511441,-0.077940,9.925230,0.120014,-0.392071,0.115103,-0.479243,2.944686,-2.694989,0.999387,-0.003575,0.025785,-0.023401
495,-0.512377,-0.082708,9.928357,0.054428,-0.413430,0.066275,-0.470746,2.932011,-2.691571,0.999391,-0.003505,0.025673,-0.023373
496,-0.509274,-0.077095,9.906590,0.049869,-0.459194,0.032706,-0.465565,2.920010,-2.689628,0.999394,-0.003462,0.025567,-0.023358
497,-0.506167,-0.059983,9.898653,0.046912,-0.446975,0.067807,-0.445956,2.907166,-2.686918,0.999398,-0.003295,0.025451,-0.023339
498,-0.513241,-0.061850,9.900578,0.248471,-0.402678,0.124273,-0.415065,2.901468,-2.682292,0.999401,-0.003027,0.025395,-0.023306
499,-0.504778,-0.083512,9.908735,0.224069,-0.446880,0.304333,-0.404297,2.896738,-2.674905,0.999404,-0.002936,0.025351,-0.023244
500,-0.498046,-0.082122,9.905962,0.135473,-0.491134,0.426402,-0.414997,2.880710,-2.663474,0.999410,-0.003035,0.025213,-0.023143
501,-0.495617,-0.068336,9.906939,0.153751,-0.483528,0.443185,-0.415806,2.860147,-2.649166,0.999417,-0.003050,0.025034,-0.023018
502,-0.496179,-0.085472,9.904437,0.202541,-0.527786,0.540843,-0.416399,2.842269,-2.632991,0.999424,-0.003062,0.024878,-0.022878
503,-0.493439,-0.090267,9.893413,0.039144,-0.625431,0.553044,-0.434583,2.825758,-2.615743,0.999430,-0.003228,0.024737,-0.022724
504,-0.503276,-0.063576,9.892690,0.051325,-0.581113,0.617133,-0.437104,2.818226,-2.596315,0.999436,-0.003255,0.024671,-0.022554
505,-0.504312,-0.052056,9.912165,0.187268,-0.561155,0.862814,-0.406584,2.821973,-2.570229,0.999441,-0.002994,0.024697,-0.022333
506,-0.497767,-0.059017,9.914107,0.188927,-0.487814,1.074924,-0.373502,2.823034,-2.536524,0.999448,-0.002712,0.024699,-0.022046
507,-0.491464,-0.052400,9.928064,0.082203,-0.413002,1.187848,-0.350045,2.816156,-2.497824,0.999458,-0.002517,0.024634,-0.021714
508,-0.481130,-0.056088,9.921513,0.022757,-0.477110,1.256517,-0.334139,2.797940,-2.456349,0.999470,-0.002391,0.024471,-0.021356
509,-0.474934,-0.064912,9.907426,0.013591,-0.561097,1.106976,-0.333502,2.769193,-2.416903,0.999483,-0.002399,0.024219,-0.021013
510,-0.473693,-0.067047,9.898054,0.037942,-0.585568,0.900973,-0.343010,2.739927,-2.383865,0.999495,-0.002494,0.023965,-0.020724
512,-0.477446,-0.077792,9.902952,-0.052195,-0.547426,0.458449,-0.362369,2.720046,-2.362035,0.999503,-0.002672,0.023795,-0.020530
513,-0.477287,-0.066597,9.888949,0.016385,-0.503131,0.063231,-0.378866,2.710511,-2.353997,0.999505,-0.002819,0.023714,-0.020457
514,-0.486664,-0.055838,9.905625,0.097280,-0.355020,0.052551,-0.372825,2.714377,-2.351781,0.999505,-0.002766,0.023747,-0.020439
515,-0.478787,-0.069020,9.929899,0.179700,-0.170284,0.203619,-0.364194,2.724169,-2.347268,0.999504,-0.002690,0.023831,-0.020401
516,-0.468477,-0.072062,9.932865,0.045368,-0.045144,0.104432,-0.369809,2.723376,-2.342561,0.999505,-0.002740,0.023825,-0.020359
517,-0.460156,-0.061236,9.926966,-0.011114,-0.104717,0.128845,-0.373440,2.709235,-2.338860,0.999509,-0.002775,0.023702,-0.020326
518,-0.468030,-0.068108,9.931178,-0.200332,0.020355,0.128845,-0.377150,2.697791,-2.334569,0.999512,-0.002810,0.023603,-0.020288
519,-0.464295,-0.077119,9.930423,-0.365190,0.130201,-0.022225,-0.397403,2.696304,-2.333319,0.999512,-0.002987,0.023593,-0.020273
520,-0.457154,-0.103315,9.909164,-0.470657,-0.091110,-0.006974,-0.444826,2.687456,-2.335381,0.999512,-0.003402,0.023524,-0.020282
521,-0.468420,-0.108212,9.888365,-0.516689,-0.205574,-0.008512,-0.509056,2.678698,-2.337835,0.999511,-0.003963,0.023459,-0.020290
522,-0.478918,-0.109648,9.911796,-0.545886,-0.057485,0.063197,-0.565083,2.688310,-2.338685,0.999507,-0.004450,0.023553,-0.020286
523,-0.471332,-0.108652,9.933983,-0.420883,-0.171853,0.327177,-0.604175,2.698975,-2.333236,0.999504,-0.004790,0.023653,-0.020230
524,-0.466416,-0.121044,9.929281,-0.390468,-0.338165,0.462979,-0.636551,2.692894,-2.320880,0.999506,-0.005076,0.023605,-0.020116
525,-0.474641,-0.092673,9.914485,-0.338582,-0.316777,0.380580,-0.647193,2.686899,-2.306647,0.999509,-0.005173,0.023554,-0.019990
526,-0.466849,-0.084895,9.923766,-0.194973,-0.341156,0.408055,-0.623206,2.682861,-2.291854,0.999514,-0.004968,0.023514,-0.019866
527,-0.464078,-0.094213,9.915041,-0.037646,-0.226710,0.322611,-0.597028,2.673932,-2.278180,0.999519,-0.004744,0.023431,-0.019752
528,-0.460081,-0.098261,9.907652,-0.013160,-0.193151,0.212748,-0.584005,2.664712,-2.268548,0.999523,-0.004634,0.023348,-0.019671
529,-0.456735,-0.093684,9.903847,0.176101,-0.399178,0.180705,-0.572125,2.649941,-2.261472,0.999528,-0.004534,0.023217,-0.019613
530,-0.464211,-0.083054,9.913326,0.043436,-0.324404,-0.100061,-0.551630,2.638720,-2.259232,0.999531,-0.004358,0.023115,-0.019598
531,-0.462926,-0.084342,9.925524,0.002340,-0.183977,-0.116840,-0.531420,2.638028,-2.261863,0.999532,-0.004181,0.023106,-0.019625
532,-0.452165,-0.094009,9.911642,0.170227,-0.505943,0.145620,-0.521921,2.627206,-2.260973,0.999534,-0.004100,0.023010,-0.019620
533,-0.453015,-0.086853,9.905224,0.103091,-0.678396,0.240227,-0.516120,2.603169,-2.254314,0.999540,-0.004055,0.022799,-0.019564
534,-0.449899,-0.074483,9.918386,0.148940,-0.545650,0.420291,-0.498238,2.581018,-2.242515,0.999547,-0.003905,0.022602,-0.019465
535,-0.431394,-0.084441,9.925252,0.429774,-0.721197,0.789567,-0.475600,2.547772,-2.221607,0.999558,-0.003718,0.022308,-0.019289
536,-0.430542,-0.089921,9.921304,0.325989,-0.960872,0.846024,-0.465903,2.500539,-2.194278,0.999572,-0.003646,0.021893,-0.019054
537,-0.429420,-0.084487,9.929867,0.182508,-0.893790,0.769725,-0.464409,2.458918,-2.167433,0.999584,-0.003645,0.021529,-0.018822
538,-0.427926,-0.078245,9.919637,0.168769,-0.773250,0.633917,-0.458684,2.429671,-2.143846,0.999594,-0.003605,0.021272,-0.018618
539,-0.424535,-0.086520,9.908390,0.110764,-0.735079,0.598821,-0.456789,2.409047,-2.123235,0.999601,-0.003595,0.021091,-0.018440
540,-0.429895,-0.087793,9.924323,0.006941,-0.423726,0.461484,-0.465536,2.401732,-2.105876,0.999605,-0.003676,0.021028,-0.018287
541,-0.422212,-0.081758,9.917459,0.185436,-0.211552,0.395869,-0.468830,2.404655,-2.091789,0.999606,-0.003707,0.021054,-0.018163
542,-0.422039,-0.067332,9.916224,0.151914,-0.187092,0.405027,-0.453520,2.406655,-2.077992,0.999609,-0.003575,0.021069,-0.018046
543,-0.413519,-0.080640,9.920506,0.278611,-0.248120,0.443177,-0.437300,2.401076,-2.063431,0.999613,-0.003437,0.021017,-0.017922
544,-0.415553,-0.074439,9.913948,0.231304,-0.193201,0.272273,-0.428939,2.391214,-2.051468,0.999617,-0.003368,0.020929,-0.017819
545,-0.413547,-0.057395,9.899123,0.219165,-0.263393,0.258542,-0.408079,2.383670,-2.042016,0.999620,-0.003189,0.020860,-0.017741
546,-0.414458,-0.068415,9.923835,0.214660,-0.286276,0.241760,-0.386771,2.375658,-2.033035,0.999623,-0.003006,0.020787,-0.017667
547,-0.416087,-0.074770,9.918158,0.236003,-0.242001,0.031183,-0.383077,2.371175,-2.028588,0.999625,-0.002975,0.020747,-0.017629
548,-0.421319,-0.067782,9.899609,0.211552,-0.222103,-0.118359,-0.382473,2.374967,-2.030272,0.999624,-0.002969,0.020780,-0.017643
549,-0.424516,-0.078380,9.907408,0.327468,-0.112141,-0.243487,-0.383740,2.387387,-2.036684,0.999621,-0.002977,0.020888,-0.017699
550,-0.425963,-0.085858,9.907039,0.411272,-0.170024,-0.196187,-0.394681,2.401757,-2.044943,0.999617,-0.003069,0.021016,-0.017768
551,-0.427299,-0.080443,9.902783,-0.267887,-0.124150,0.316519,-0.415146,2.414795,-2.043864,0.999614,-0.003246,0.021133,-0.017755
552,-0.425860,-0.060476,9.908306,-0.585283,-0.133228,0.717837,-0.429298,2.425022,-2.026609,0.999614,-0.003371,0.021224,-0.017601
553,-0.430059,-0.064657,9.921254,-0.568416,-0.210982,0.643071,-0.432395,2.432357,-2.003226,0.999616,-0.003401,0.021287,-0.017396
554,-0.428775,-0.088370,9.921935,-0.797320,-0.519153,0.507264,-0.457088,2.432715,-1.984063,0.999618,-0.003620,0.021294,-0.017225
555,-0.431077,-0.092215,9.927566,-0.837096,-0.668630,0.560667,-0.502692,2.425015,-1.966902,0.999621,-0.004022,0.021233,-0.017067
556,-0.421386,-0.093062,9.929792,-0.251213,-0.715895,0.307361,-0.533882,2.409369,-1.952801,0.999625,-0.004299,0.021100,-0.016939
557,-0.410715,-0.112800,9.923886,-0.022425,-0.650303,-0.002407,-0.557174,2.382305,-1.948297,0.999629,-0.004507,0.020867,-0.016896
558,-0.408055,-0.120505,9.929977,-0.248432,-0.386364,-0.081762,-0.593670,2.356399,-1.950856,0.999632,-0.004829,0.020647,-0.016913
559,-0.406661,-0.100749,9.921883,-0.138649,-0.221590,0.128812,-0.615861,2.341423,-1.950616,0.999634,-0.005025,0.020520,-0.016908
560,-0.400709,-0.100733,9.907771,-0.121834,-0.142265,0.064724,-0.614412,2.331014,-1.947092,0.999636,-0.005014,0.020428,-0.016878
561,-0.404043,-0.087111,9.900931,-0.083590,-0.197211,-0.174843,-0.599949,2.322865,-1.948138,0.999638,-0.004889,0.020355,-0.016890
562,-0.403170,-0.096761,9.916755,0.055369,-0.213989,-0.153476,-0.581734,2.317317,-1.952775,0.999639,-0.004730,0.020304,-0.016934
563,-0.395443,-0.093231,9.917851,0.014225,-0.033950,-0.132111,-0.570257,2.309510,-1.957072,0.999640,-0.004631,0.020235,-0.016974
564,-0.401937,-0.091436,9.926044,0.066163,-0.044647,-0.211457,-0.558443,2.305028,-1.962358,0.999641,-0.004527,0.020194,-0.017022
565,-0.405493,-0.086958,9.927174,0.064704,-0.110233,-0.185513,-0.544147,2.307776,-1.968456,0.999640,-0.004401,0.020216,-0.017078
566,-0.400908,-0.103588,9.916209,0.133371,0.095794,-0.298430,-0.540895,2.312611,-1.976514,0.999638,-0.004370,0.020258,-0.017149
567,-0.402539,-0.099597,9.908820,0.143994,0.268237,-0.469337,-0.547961,2.321165,-1.989828,0.999634,-0.004428,0.020334,-0.017263
568,-0.402157,-0.088042,9.895665,0.230974,-0.001839,-0.232818,-0.541785,2.327936,-2.001564,0.999632,-0.004371,0.020393,-0.017366
569,-0.394635,-0.083261,9.910010,0.148640,-0.041541,-0.136682,-0.523379,2.321951,-2.007221,0.999633,-0.004211,0.020338,-0.017419
570,-0.390453,-0.086353,9.922626,0.092237,0.078930,-0.409822,-0.509085,2.307965,-2.015913,0.999634,-0.004087,0.020214,-0.017498
571,-0.399112,-0.084769,9.923068,0.049540,-0.125593,-0.408295,-0.501719,2.297886,-2.029330,0.999634,-0.004022,0.020126,-0.017617
572,-0.399409,-0.084113,9.900888,0.069400,-0.514699,-0.185509,-0.495803,2.288043,-2.038967,0.999635,-0.003970,0.020039,-0.017702
573,-0.405718,-0.097836,9.902975,0.295200,-0.604683,-0.260280,-0.496922,2.278077,-2.046516,0.999635,-0.003980,0.019953,-0.017768
574,-0.400750,-0.088115,9.897981,0.401960,-0.569520,-0.272488,-0.496068,2.270713,-2.055648,0.999635,-0.003972,0.019889,-0.017848
575,-0.388386,-0.086907,9.886995,0.470614,-0.642752,0.060162,-0.484243,2.252870,-2.059119,0.999638,-0.003871,0.019731,-0.017882
576,-0.383266,-0.084539,9.895638,0.424827,-0.590908,0.180709,-0.470752,2.225321,-2.054995,0.999644,-0.003758,0.019489,-0.017849
577,-0.385256,-0.071073,9.929914,0.289055,-0.377303,0.014386,-0.451793,2.204398,-2.051343,0.999648,-0.003597,0.019303,-0.017821
578,-0.375792,-0.072625,9.931897,0.200615,-0.487198,0.166980,-0.431824,2.184869,-2.047758,0.999653,-0.003426,0.019130,-0.017794
579,-0.379115,-0.076231,9.907504,0.194527,-0.449071,0.101365,-0.422087,2.165404,-2.043051,0.999657,-0.003345,0.018958,-0.017755
580,-0.383328,-0.078730,9.911288,0.218914,-0.209462,-0.228235,-0.420528,2.161393,-2.045285,0.999657,-0.003332,0.018923,-0.017775
581,-0.378831,-0.081043,9.917763,0.334830,-0.258242,-0.270963,-0.421697,2.162962,-2.053934,0.999656,-0.003340,0.018937,-0.017850
582,-0.381959,-0.082196,9.911201,0.443103,-0.242936,-0.347261,-0.421757,2.163277,-2.064661,0.999654,-0.003339,0.018940,-0.017944
583,-0.381217,-0.064912,9.917802,0.481247,-0.075030,-0.473913,-0.407705,2.168111,-2.078348,0.999652,-0.003214,0.018980,-0.018065
584,-0.369474,-0.061507,9.940300,0.405017,-0.050616,-0.385407,-0.380982,2.165721,-2.092192,0.999650,-0.002979,0.018956,-0.018191
585,-0.369970,-0.059370,9.930767,0.345567,-0.139168,-0.223657,-0.357399,2.153532,-2.101899,0.999651,-0.002773,0.018846,-0.018280
586,-0.376268,-0.049114,9.916530,0.249509,-0.084243,-0.174825,-0.333720,2.148170,-2.107997,0.999652,-0.002566,0.018796,-0.018337
587,-0.376398,-0.053331,9.912922,0.141234,-0.122361,0.006763,-0.314924,2.150424,-2.110315,0.999652,-0.002402,0.018812,-0.018360
588,-0.378426,-0.063199,9.922187,0.034403,-0.056706,0.078481,-0.315010,2.154947,-2.108991,0.999651,-0.002402,0.018852,-0.018348
589,-0.378164,-0.067655,9.916538,0.029742,0.089825,0.063219,-0.329589,2.163337,-2.107223,0.999650,-0.002528,0.018927,-0.018330
590,-0.378756,-0.070444,9.918824,-0.060390,0.076126,-0.048177,-0.349241,2.172645,-2.107712,0.999648,-0.002698,0.019012,-0.018331
591,-0.384448,-0.063473,9.915933,-0.110807,0.031922,-0.055808,-0.364015,2.183312,-2.109908,0.999645,-0.002825,0.019107,-0.018347
592,-0.384565,-0.069892,9.913656,-0.060491,0.027401,0.069316,-0.374040,2.195015,-2.109964,0.999643,-0.002910,0.019211,-0.018346
593,-0.379040,-0.062280,9.905184,-0.036093,0.059468,0.012856,-0.378863,2.200785,-2.108728,0.999642,-0.002952,0.019262,-0.018334
594,-0.376656,-0.045930,9.906754,-0.074157,-0.077883,0.137985,-0.364727,2.197112,-2.105601,0.999644,-0.002829,0.019227,-0.018309
595,-0.379651,-0.048067,9.925865,0.066361,-0.253385,0.350094,-0.339482,2.187869,-2.096467,0.999647,-0.002612,0.019143,-0.018234
596,-0.371700,-0.056141,9.931211,0.098474,-0.370915,0.394348,-0.323402,2.171138,-2.083498,0.999652,-0.002477,0.018994,-0.018124
597,-0.363932,-0.050840,9.919047,0.052726,-0.435081,0.348571,-0.314747,2.143476,-2.070819,0.999659,-0.002408,0.018751,-0.018016
598,-0.363522,-0.061838,9.909440,0.113756,-0.557229,0.443177,-0.313111,2.112947,-2.057585,0.999666,-0.002400,0.018484,-0.017901
599,-0.368302,-0.076847,9.906376,0.112114,-0.528254,0.359248,-0.330618,2.091628,-2.044905,0.999671,-0.002559,0.018300,-0.017789
600,-0.361852,-0.069778,9.900932,-0.016201,-0.329872,0.285998,-0.354189,2.079587,-2.034997,0.999674,-0.002768,0.018199,-0.017699
601,-0.362103,-0.069605,9.892975,0.034073,-0.053667,0.154766,-0.368885,2.075486,-2.028162,0.999675,-0.002898,0.018165,-0.017637
602,-0.368953,-0.063946,9.905610,0.072188,0.013522,0.083046,-0.373209,2.084110,-2.024419,0.999674,-0.002935,0.018241,-0.017603
603,-0.367543,-0.056450,9.908630,0.058485,-0.050501,0.154767,-0.365160,2.095737,-2.020240,0.999673,-0.002863,0.018341,-0.017568
604,-0.361971,-0.054812,9.911380,0.108904,-0.030640,0.141035,-0.350302,2.098910,-2.014863,0.999674,-0.002734,0.018366,-0.017523
605,-0.367749,-0.055834,9.914169,0.194407,-0.036730,0.012859,-0.335660,2.100447,-2.011942,0.999675,-0.002606,0.018377,-0.017500
606,-0.370279,-0.050500,9.935320,0.107477,-0.219801,0.057113,-0.321577,2.103586,-2.010419,0.999675,-0.002483,0.018403,-0.017489
607,-0.361929,-0.065869,9.928036,0.139511,-0.225893,0.032698,-0.319169,2.098425,-2.008943,0.999676,-0.002463,0.018357,-0.017476
608,-0.358877,-0.070346,9.911592,0.203502,-0.065699,-0.286224,-0.331859,2.088459,-2.013812,0.999676,-0.002575,0.018272,-0.017517
609,-0.371297,-0.068293,9.906180,0.191196,0.129643,-0.599043,-0.344645,2.093586,-2.029270,0.999673,-0.002683,0.018319,-0.017650
610,-0.373956,-0.057873,9.905746,0.264404,0.251801,-0.547161,-0.344409,2.115623,-2.048667,0.999666,-0.002675,0.018512,-0.017818
611,-0.372910,-0.072979,9.906283,0.415426,0.225932,-0.470866,-0.342182,2.137044,-2.066005,0.999660,-0.002649,0.018699,-0.017969
612,-0.378464,-0.051738,9.913363,0.400144,0.267192,-0.539534,-0.333537,2.156337,-2.083062,0.999655,-0.002568,0.018866,-0.018119
613,-0.386018,-0.043846,9.931163,0.278153,0.311523,-0.438819,-0.307385,2.180745,-2.098848,0.999649,-0.002333,0.019075,-0.018260
615,-0.382023,-0.033329,9.926270,0.165363,0.134578,-0.202295,-0.275956,2.199728,-2.108645,0.999644,-0.002054,0.019236,-0.018351
616,-0.380627,-0.027213,9.931704,-0.069474,-0.069884,-0.104630,-0.245308,2.203067,-2.112648,0.999644,-0.001786,0.019260,-0.018391
617,-0.379772,-0.013047,9.907826,-0.173045,0.009455,-0.052741,-0.213347,2.200433,-2.113882,0.999645,-0.001507,0.019232,-0.018407
618,-0.383037,-0.028584,9.908405,-0.201891,0.163577,-0.034424,-0.192413,2.203989,-2.114300,0.999644,-0.001324,0.019260,-0.018414
619,-0.384033,-0.031127,9.913575,-0.243051,0.165122,-0.037474,-0.192304,2.212939,-2.115227,0.999642,-0.001321,0.019338,-0.018422
620,-0.375791,-0.043960,9.920021,-0.078284,-0.036320,0.133427,-0.203734,2.211455,-2.113871,0.999643,-0.001421,0.019327,-0.018408
621,-0.372237,-0.057340,9.893847,0.176418,-0.224076,0.060178,-0.225714,2.194580,-2.111539,0.999646,-0.001616,0.019183,-0.018384
622,-0.354509,-0.062950,9.891892,-0.077064,-0.396637,-0.502895,-0.257741,2.159333,-2.120154,0.999650,-0.001900,0.018881,-0.018455
623,-0.361942,-0.058061,9.912593,-0.185548,-0.611934,-0.745523,-0.289987,2.116132,-2.141910,0.999653,-0.002185,0.018510,-0.018641
624,-0.368091,-0.055618,9.912717,-0.191725,-0.645542,-0.817245,-0.310895,2.087813,-2.168369,0.999652,-0.002367,0.018267,-0.018869
625,-0.372872,-0.059471,9.924088,-0.292479,-0.451701,-0.980521,-0.328044,2.078649,-2.198545,0.999648,-0.002514,0.018190,-0.019130
626,-0.365063,-0.062105,9.942551,-0.452742,-0.181553,-1.055293,-0.349482,2.078892,-2.232720,0.999642,-0.002695,0.018197,-0.019424
627,-0.382142,-0.068180,9.952739,-0.225428,0.103891,-0.820301,-0.371030,2.095400,-2.264327,0.999634,-0.002875,0.018345,-0.019696
628,-0.380263,-0.063099,9.924805,-0.165941,0.204748,-0.565471,-0.382938,2.127720,-2.287643,0.999624,-0.002970,0.018630,-0.019897
629,-0.374844,-0.063297,9.931772,-0.199495,0.058347,-0.249604,-0.386469,2.148564,-2.301155,0.999618,-0.002995,0.018812,-0.020013
630,-0.371356,-0.057110,9.924711,-0.121623,-0.115589,-0.145839,-0.382748,2.151055,-2.307396,0.999617,-0.002961,0.018834,-0.020068
631,-0.367848,-0.068619,9.916968,-0.179579,-0.297196,-0.113793,-0.382543,2.140077,-2.311478,0.999618,-0.002960,0.018738,-0.020104
632,-0.351528,-0.054735,9.910364,-0.380967,-0.478871,0.075422,-0.385355,2.110206,-2.311786,0.999623,-0.002990,0.018478,-0.020107
633,-0.347097,-0.071350,9.935909,-0.423667,-0.254706,-0.136681,-0.393796,2.070704,-2.312534,0.999629,-0.003071,0.018135,-0.020114
634,-0.358250,-0.083638,9.940073,-0.376439,0.315913,-0.695173,-0.421928,2.057101,-2.326926,0.999627,-0.003316,0.018022,-0.020235
635,-0.367969,-0.102081,9.942229,-0.349142,0.779831,-0.843194,-0.466782,2.082128,-2.353867,0.999617,-0.003699,0.018249,-0.020462
636,-0.391499,-0.112626,9.929656,-0.170841,1.169101,-0.832519,-0.520163,2.144113,-2.383689,0.999600,-0.004148,0.018800,-0.020711
637,-0.409876,-0.117697,9.920298,0.190576,1.662239,-0.773014,-0.563706,2.240701,-2.412525,0.999577,-0.004506,0.019652,-0.020951
638,-0.411353,-0.096324,9.901543,0.452933,1.848642,-0.356438,-0.572914,2.344002,-2.432678,0.999555,-0.004563,0.020555,-0.021121
639,-0.400056,-0.095488,9.907168,0.579603,1.625928,0.154749,-0.552491,2.415177,-2.436464,0.999543,-0.004371,0.021172,-0.021154
640,-0.409590,-0.086103,9.893718,0.414852,1.683862,0.263091,-0.526323,2.460858,-2.429623,0.999536,-0.004136,0.021566,-0.021097
641,-0.410666,-0.055435,9.905316,0.375351,1.703612,0.342446,-0.480293,2.500972,-2.418640,0.999532,-0.003729,0.021907,-0.021008
642,-0.417237,-0.079439,9.902361,0.421280,1.308280,0.606436,-0.438045,2.529404,-2.402009,0.999531,-0.003358,0.022147,-0.020870
643,-0.439946,-0.080017,9.915205,0.259529,1.051873,0.435532,-0.426399,2.559222,-2.384955,0.999529,-0.003255,0.022404,-0.020723
644,-0.453660,-0.070256,9.917344,0.317512,0.961891,0.435532,-0.416615,2.601759,-2.370691,0.999523,-0.003164,0.022773,-0.020599
645,-0.450709,-0.058444,9.934361,0.464067,0.758980,0.432483,-0.390428,2.637501,-2.355841,0.999520,-0.002932,0.023080,-0.020473
646,-0.452369,-0.058948,9.916498,0.363441,0.826101,0.310413,-0.359898,2.660274,-2.342880,0.999518,-0.002665,0.023272,-0.020366
647,-0.466940,-0.044397,9.923671,-0.016412,1.227424,-0.090901,-0.334776,2.695522,-2.338540,0.999512,-0.002440,0.023575,-0.020332
648,-0.468174,-0.046139,9.893767,-0.197883,1.619619,-0.216021,-0.317209,2.748859,-2.342932,0.999501,-0.002276,0.024037,-0.020372
649,-0.482522,-0.055273,9.874730,-0.532017,2.280386,-0.470849,-0.321937,2.821576,-2.354381,0.999483,-0.002302,0.024673,-0.020469
650,-0.504303,-0.064776,9.890264,-0.922693,3.157890,-0.898109,-0.354456,2.930318,-2.378120,0.999455,-0.002561,0.025628,-0.020666
651,-0.518430,-0.075802,9.900034,-1.227969,3.748533,-1.227713,-0.409390,3.065758,-2.415253,0.999416,-0.003007,0.026820,-0.020972
652,-0.531108,-0.086460,9.891635,-1.617197,4.166687,-1.152949,-0.480994,3.206711,-2.457182,0.999372,-0.003595,0.028063,-0.021315
653,-0.532800,-0.120872,9.918676,-1.869181,4.561819,-0.782161,-0.579603,3.336304,-2.492957,0.999330,-0.004421,0.029213,-0.021597
654,-0.567999,-0.148839,9.943649,-1.381214,5.338383,-0.394596,-0.696958,3.476133,-2.517947,0.999284,-0.005411,0.030456,-0.021777
655,-0.608093,-0.165931,9.905124,-0.697957,6.110480,0.302731,-0.799468,3.663043,-2.525960,0.999227,-0.006267,0.032106,-0.021807
656,-0.652082,-0.163417,9.885160,-0.148897,7.297748,1.047367,-0.863629,3.905185,-2.509829,0.999157,-0.006784,0.034228,-0.021631
657,-0.696953,-0.174886,9.865334,0.890060,9.396060,1.335756,-0.886226,4.214704,-2.476736,0.999067,-0.006932,0.036929,-0.021312
658,-0.767844,-0.158702,9.809543,1.158514,12.885984,0.876447,-0.869949,4.611629,-2.446833,0.998940,-0.006725,0.040385,-0.021028
659,-0.867526,-0.111437,9.800876,-0.509292,17.108337,0.055504,-0.852867,5.133789,-2.438293,0.998750,-0.006481,0.044933,-0.020921
660,-0.992306,-0.108837,9.831744,-0.869339,20.195465,0.121127,-0.862762,5.789087,-2.443575,0.998477,-0.006441,0.050645,-0.020915
661,-1.103744,-0.114152,9.842388,-0.713625,22.295343,0.154708,-0.876784,6.535920,-2.448551,0.998126,-0.006419,0.057154,-0.020895
662,-1.223341,-0.102396,9.836454,-1.162169,23.813833,0.102837,-0.894011,7.340661,-2.454569,0.997700,-0.006413,0.064166,-0.020875
663,-1.363152,-0.117630,9.854439,-1.239910,24.586132,0.258494,-0.919629,8.181264,-2.459567,0.997203,-0.006472,0.071487,-0.020834
664,-1.507737,-0.154813,9.824789,0.559193,24.487125,0.971109,-0.922770,9.032977,-2.451247,0.996648,-0.006341,0.078897,-0.020688
665,-1.632396,-0.111357,9.754704,1.529727,25.250259,0.482822,-0.877188,9.893688,-2.438389,0.996035,-0.005790,0.086372,-0.020538
666,-1.807172,-0.081274,9.690247,2.144783,27.598845,0.400444,-0.794754,10.810087,-2.432913,0.995319,-0.004903,0.094319,-0.020482
667,-1.999889,-0.066805,9.655747,2.407370,30.238956,1.000160,-0.691839,11.822988,-2.417280,0.994456,-0.003832,0.103094,-0.020359
668,-2.213983,-0.024925,9.622002,3.353595,32.654835,2.220934,-0.557151,12.934968,-2.368086,0.993423,-0.002503,0.112714,-0.019985
669,-2.381090,0.013571,9.574896,3.271381,34.117027,2.526164,-0.393043,14.116002,-2.288012,0.992227,-0.000950,0.122917,-0.019393
670,-2.582057,0.011169,9.547276,2.624562,36.014095,2.973305,-0.238002,15.349195,-2.191749,0.990864,0.000496,0.133561,-0.018677
671,-2.780172,-0.030003,9.526303,1.286405,37.834850,3.093876,-0.128757,16.640724,-2.086635,0.989313,0.001523,0.144704,-0.017854
672,-2.993698,-0.023815,9.479516,0.637894,39.617432,2.286663,-0.068113,17.988003,-1.994821,0.987557,0.002134,0.156318,-0.017100
673,-3.208972,-0.043115,9.403595,-0.299056,40.196049,1.094906,-0.050352,19.372438,-1.938848,0.985604,0.002414,0.168236,-0.016604
674,-3.407128,-0.037404,9.278640,-0.242653,39.430309,0.959080,-0.059016,20.750765,-1.907649,0.983514,0.002491,0.180080,-0.016282
675,-3.608972,-0.069108,9.189375,-0.489933,38.696583,0.295274,-0.080943,22.098989,-1.892914,0.981330,0.002473,0.191642,-0.016076
676,-3.830757,-0.079845,9.107532,-0.918832,37.376888,-1.079630,-0.135748,23.410528,-1.918887,0.979070,0.002237,0.202868,-0.016156
677,-4.031975,-0.053988,9.026699,-0.821262,34.662502,-1.545074,-0.205497,24.653721,-1.978366,0.976805,0.001934,0.213486,-0.016483
678,-4.184737,-0.074673,8.948059,-0.146869,32.292915,-1.084273,-0.259427,25.802689,-2.037969,0.974608,0.001764,0.223276,-0.016829
679,-4.344218,-0.105017,8.888119,-0.653569,31.385099,-1.346777,-0.317173,26.884094,-2.098397,0.972451,0.001565,0.232471,-0.017166
680,-4.455860,-0.090942,8.774354,-0.858136,31.011293,-1.206437,-0.389640,27.932446,-2.163304,0.970275,0.001257,0.241368,-0.017499
681,-4.567894,-0.074721,8.652143,-0.510276,31.206600,-0.481648,-0.443859,28.967085,-2.209391,0.968051,0.001072,0.250126,-0.017698
682,-4.684783,-0.137740,8.545692,-0.855210,32.434914,0.136309,-0.493244,30.016998,-2.234780,0.965717,0.000893,0.258992,-0.017721
683,-4.837167,-0.131727,8.438920,-1.812076,33.452633,-0.139946,-0.571690,31.101336,-2.260463,0.963221,0.000483,0.268130,-0.017665
684,-5.055179,-0.165017,8.367200,-2.245557,34.731331,-0.161380,-0.680389,32.232346,-2.296455,0.960524,-0.000141,0.277640,-0.017603
685,-5.285198,-0.188353,8.303914,-2.489848,35.352432,-0.494119,-0.813369,33.408508,-2.347163,0.957618,-0.000910,0.287503,-0.017577
686,-5.478127,-0.210893,8.236359,-2.609020,35.059528,-1.153414,-0.969362,34.595387,-2.424151,0.954578,-0.001785,0.297430,-0.017681
687,-5.665782,-0.210908,8.163304,-1.748531,33.503151,-1.057370,-1.119414,35.748703,-2.515306,0.951523,-0.002559,0.307046,-0.017890
688,-5.821747,-0.244211,8.086443,-0.826997,31.115103,-0.854508,-1.237419,36.829380,-2.602680,0.948573,-0.003069,0.316025,-0.018136
689,-5.962471,-0.236142,7.992409,-0.592120,28.524063,-1.435972,-1.340963,37.818233,-2.698682,0.945796,-0.003437,0.324217,-0.018485
690,-6.061868,-0.233807,7.880582,0.120401,25.517931,-0.564734,-1.417959,38.705956,-2.784333,0.943244,-0.003620,0.331547,-0.018822
691,-6.135559,-0.195868,7.797456,1.583724,22.302673,1.455557,-1.405557,39.478706,-2.797865,0.940989,-0.003296,0.337898,-0.018836
692,-6.176381,-0.210894,7.689141,2.470268,20.309612,2.720528,-1.299960,40.151829,-2.732773,0.939004,-0.002467,0.343399,-0.018502
693,-6.211281,-0.228373,7.596967,2.197070,19.796633,2.566355,-1.178190,40.771702,-2.648074,0.937151,-0.001586,0.348452,-0.018078
694,-6.248240,-0.226402,7.512422,0.416220,19.607098,1.226504,-1.122136,41.369377,-2.602013,0.935331,-0.001139,0.353325,-0.017782
695,-6.362816,-0.189986,7.456996,-1.024339,19.824987,0.014838,-1.153864,41.966312,-2.610533,0.933478,-0.001242,0.358197,-0.017663
696,-6.490785,-0.202040,7.379750,-1.776691,21.030209,-0.929778,-1.251340,42.598362,-2.666401,0.931481,-0.001720,0.363355,-0.017711
697,-6.621437,-0.192625,7.301200,-2.156708,22.711607,-2.178043,-1.402219,43.293240,-2.774583,0.929244,-0.002440,0.369021,-0.017989
698,-6.723970,-0.117000,7.159742,-2.081921,24.733374,-3.119525,-1.570270,44.065868,-2.920466,0.926711,-0.003139,0.375306,-0.018481
699,-6.816262,-0.085073,6.998809,-0.154561,28.377296,-1.872732,-1.671534,44.950974,-3.042816,0.923767,-0.003325,0.382471,-0.018957
700,-6.924292,-0.113362,6.824115,1.049528,32.938393,-0.802923,-1.681905,45.991219,-3.113500,0.920252,-0.002894,0.390841,-0.019274
701,-7.050685,-0.120026,6.663377,1.740884,37.569756,0.022721,-1.641904,47.199371,-3.151064,0.916082,-0.002118,0.400513,-0.019459
702,-7.217955,-0.146480,6.513993,2.116339,40.957527,1.298484,-1.561893,48.550327,-3.149623,0.911307,-0.001122,0.411267,-0.019449
703,-7.431451,-0.154643,6.394216,2.441402,42.534054,2.963318,-1.428799,49.988636,-3.083892,0.906093,0.000072,0.422647,-0.019121
704,-7.606346,-0.159937,6.262840,3.416478,41.586662,4.853957,-1.206773,51.432621,-2.925488,0.900727,0.001591,0.433992,-0.018429
705,-7.720269,-0.169137,6.138605,4.139741,39.020157,5.771007,-0.897811,52.797749,-2.687090,0.895529,0.003409,0.444646,-0.017519
706,-7.841039,-0.171932,5.983262,3.573552,35.826382,5.369598,-0.576645,54.044712,-2.430819,0.890666,0.005155,0.454325,-0.016610
707,-7.896775,-0.102725,5.810855,2.780001,33.435169,4.351709,-0.293591,55.183094,-2.197206,0.886129,0.006610,0.463122,-0.015806
708,-7.952315,-0.112035,5.660807,2.078004,32.319546,3.860259,-0.058392,56.247318,-1.994315,0.881803,0.007754,0.471312,-0.015108
709,-8.021178,-0.103907,5.477339,0.384126,31.907343,2.437949,0.082079,57.280071,-1.853063,0.877528,0.008379,0.479232,-0.014535
710,-8.137475,-0.136863,5.289973,-1.611915,32.424484,1.519142,0.084662,58.324596,-1.797053,0.873130,0.008286,0.487215,-0.014054
712,-8.306766,-0.085922,5.095666,-3.504188,34.501244,1.055064,-0.013303,59.434986,-1.784660,0.868376,0.007619,0.495665,-0.013468
713,-8.469386,-0.104648,4.906222,-4.302345,35.807545,1.601180,-0.141869,60.626389,-1.761371,0.863186,0.006689,0.504683,-0.012644
714,-8.614604,-0.132882,4.673614,-4.343655,36.047344,2.467715,-0.255612,61.866867,-1.703340,0.857685,0.005727,0.514012,-0.011603
715,-8.746293,-0.153047,4.476781,-3.676945,35.574627,3.346433,-0.315283,63.120655,-1.594712,0.852024,0.004939,0.523376,-0.010418
716,-8.847071,-0.075350,4.276545,-3.092601,33.765224,3.138750,-0.297731,64.342407,-1.431756,0.846409,0.004453,0.532435,-0.009192
717,-8.877999,-0.095136,4.091661,-2.128268,30.005682,2.650345,-0.243416,65.467773,-1.264463,0.841151,0.004180,0.540723,-0.008133
718,-8.940643,-0.039087,3.903736,-1.875006,26.700836,2.760128,-0.158394,66.471100,-1.090082,0.836393,0.004058,0.548068,-0.007199
719,-8.973927,0.000188,3.750364,-1.212759,25.042454,3.588697,0.031050,67.389549,-0.827158,0.831982,0.004230,0.554752,-0.006156
720,-9.010314,0.035930,3.599595,-0.291083,25.375383,4.318130,0.358861,68.281860,-0.449482,0.827643,0.004793,0.561213,-0.005004
721,-9.035333,0.036064,3.451886,0.946460,27.571468,4.882764,0.812924,69.213852,0.022392,0.823048,0.005728,0.567930,-0.003868
722,-9.091725,0.066507,3.296911,1.514117,31.040173,5.021653,1.370788,70.239113,0.570923,0.817919,0.006918,0.575285,-0.002807
723,-9.174122,0.080500,3.140779,1.820837,35.508362,4.058812,1.969888,71.396545,1.144608,0.812041,0.008132,0.583541,-0.001920
724,-9.275226,0.111940,2.950526,2.304560,39.686653,3.103588,2.571379,72.700218,1.703425,0.805316,0.009261,0.592772,-0.001329
725,-9.400373,0.137119,2.745873,2.237426,42.580128,2.745005,3.224523,74.125092,2.304350,0.797842,0.010333,0.602777,-0.000914
726,-9.506248,0.141409,2.547161,2.220644,43.772182,3.494230,4.030234,75.612366,3.061245,0.789894,0.011408,0.613137,-0.000456
727,-9.582735,0.124227,2.326017,2.611271,43.319248,4.472292,5.103229,77.097946,4.084455,0.781793,0.012610,0.623411,0.000116
728,-9.592238,0.104167,2.092599,2.553259,41.763008,4.115094,6.406384,78.535851,5.334816,0.773794,0.013803,0.633287,0.000644
729,-9.623913,0.131016,1.854210,1.428619,39.518547,2.987266,7.819809,79.901314,6.712168,0.766065,0.014679,0.642595,0.001063
730,-9.637009,0.146604,1.635827,0.639687,37.518204,2.077647,9.338620,81.189491,8.222099,0.758661,0.015160,0.651308,0.001422
731,-9.655047,0.166156,1.415417,-0.100409,36.224339,0.981875,11.025457,82.417831,9.921458,0.751501,0.015296,0.659552,0.001701
732,-9.699676,0.175946,1.203223,-0.481908,35.316536,0.453763,13.057355,83.606773,11.981395,0.744468,0.015176,0.667483,0.001918
733,-9.740830,0.182164,1.003392,-0.381210,34.237823,0.728298,15.891607,84.752525,14.847009,0.737548,0.015018,0.675124,0.002140
734,-9.744671,0.190115,0.833516,-0.263722,33.035480,0.606108,20.159416,85.834206,19.141634,0.730815,0.014919,0.682408,0.002366
735,-9.761872,0.172640,0.642007,-0.166071,31.598114,0.692962,26.903332,86.832878,25.907822,0.724312,0.014831,0.689308,0.002550
736,-9.744416,0.198989,0.448133,-0.184388,30.496449,0.589085,38.835152,87.715950,37.859562,0.717994,0.014763,0.695887,0.002726
737,-9.707134,0.250774,0.259380,-0.419381,29.953295,0.334219,62.230042,88.371773,61.277367,0.711765,0.014727,0.702257,0.002972
738,-9.711023,0.285046,0.092213,-0.546029,30.655294,0.564682,100.271278,88.511673,99.347313,0.705460,0.014750,0.708589,0.003348
739,-9.714458,0.236518,-0.083790,-0.204220,31.766245,0.937036,131.419037,88.006493,130.520493,0.698912,0.014832,0.715044,0.003745
740,-9.693079,0.197997,-0.244304,-0.248469,31.999765,0.505133,147.785538,87.172638,146.907944,0.692182,0.014826,0.721559,0.003999
741,-9.775915,0.187747,-0.404484,-0.271353,29.675800,0.068596,156.407242,86.265137,155.551270,0.685664,0.014659,0.727759,0.004101
742,-9.798720,0.154205,-0.513754,-0.445301,24.750040,0.240860,161.188690,85.441124,160.355774,0.679974,0.014397,0.733084,0.004126
743,-9.788586,0.146441,-0.621523,-0.877129,17.422361,0.301696,163.844025,84.812157,163.041122,0.675690,0.014069,0.737040,0.004170
744,-9.769769,0.193261,-0.702509,-1.432560,10.238047,0.440401,165.145752,84.419174,164.386215,0.673038,0.013727,0.739468,0.004364
745,-9.741686,0.232961,-0.744750,-1.507343,4.612658,1.035416,165.267853,84.328156,164.560425,0.672448,0.013466,0.740007,0.004746
746,-9.678316,0.228577,-0.762870,-1.362403,1.365680,1.532763,164.589447,84.467560,163.931274,0.673425,0.013314,0.739118,0.005201
747,-9.678383,0.270507,-0.791769,-0.771901,0.595523,1.189452,163.557159,84.619186,162.935593,0.674535,0.013399,0.738099,0.005736
748,-9.694842,0.252471,-0.779493,-0.207334,1.719315,1.177304,162.660370,84.713837,162.056335,0.675270,0.013605,0.737419,0.006159
749,-9.725198,0.259075,-0.767166,0.140562,2.415929,0.923942,162.182617,84.772018,161.580490,0.675711,0.013741,0.737011,0.006317
750,-9.769100,0.265189,-0.788341,0.262625,2.100988,0.353177,161.971802,84.804916,161.364059,0.675951,0.013826,0.736790,0.006333
751,-9.762502,0.292070,-0.807203,0.114597,1.374261,-0.084727,161.810287,84.815224,161.198151,0.676042,0.013919,0.736704,0.006373
752,-9.705427,0.272397,-0.814075,-0.349296,0.640060,0.380737,161.605743,84.819641,160.998901,0.676105,0.013985,0.736644,0.006503
753,-9.679933,0.304916,-0.844055,-0.828447,-0.339628,0.534955,161.218201,84.811859,160.631287,0.676127,0.014077,0.736619,0.006841
754,-9.675164,0.313110,-0.850374,-1.028359,-0.898000,0.811376,160.512299,84.789169,159.956604,0.676118,0.014295,0.736617,0.007445
755,-9.679774,0.337266,-0.828101,-1.078738,-1.073424,1.579203,159.428146,84.778015,158.907547,0.676259,0.014665,0.736472,0.008246
756,-9.693766,0.323809,-0.799884,-0.749161,-1.416888,2.099759,158.089157,84.802879,157.597870,0.676681,0.015119,0.736065,0.009062
757,-9.715307,0.322748,-0.775811,-0.213572,-2.178612,1.881573,156.867813,84.881012,156.389832,0.677409,0.015473,0.735382,0.009580
758,-9.722321,0.315653,-0.755798,0.459359,-2.926663,1.570154,155.848694,85.005424,155.362854,0.678369,0.015720,0.734488,0.009730
759,-9.723169,0.305471,-0.727833,1.097206,-3.244418,1.600405,155.024536,85.159607,154.507996,0.679458,0.015914,0.733480,0.009545
760,-9.691150,0.297116,-0.711808,1.463444,-3.569751,0.742476,154.494629,85.326927,153.930283,0.680554,0.016021,0.732467,0.009061
761,-9.709560,0.323616,-0.716422,1.822053,-4.107002,-0.406810,154.230194,85.482689,153.607101,0.681516,0.016094,0.731578,0.008410
762,-9.717192,0.315072,-0.719191,2.411074,-4.259487,-0.889146,154.200531,85.610855,153.503952,0.682269,0.016228,0.730881,0.007637
763,-9.721066,0.302883,-0.670068,3.265606,-3.783296,-1.470682,154.462738,85.744484,153.669220,0.682992,0.016375,0.730213,0.006589
764,-9.728465,0.267878,-0.645779,4.054526,-3.372857,-2.499413,155.275772,85.907051,154.359070,0.683782,0.016397,0.729484,0.005091
765,-9.742374,0.219474,-0.622421,4.884657,-3.218809,-3.206372,157.075867,86.092590,156.009018,0.684551,0.016175,0.728780,0.003017
766,-9.728197,0.195052,-0.591619,5.527103,-2.567361,-3.664679,159.578751,86.282532,158.337830,0.685287,0.015888,0.728099,0.000582
767,-9.757810,0.179987,-0.567660,5.577479,-1.606211,-4.241890,162.340012,86.448792,160.915222,0.685920,0.015693,0.727506,-0.001882
768,-9.778910,0.163289,-0.567762,4.990010,-1.642977,-4.713642,165.214172,86.581207,163.616104,0.686405,0.015523,0.727041,-0.004189
769,-9.769533,0.179925,-0.577874,3.972215,-2.366255,-4.445039,167.500778,86.678047,165.757462,0.686788,0.015492,0.726667,-0.006013
770,-9.761804,0.218362,-0.577944,3.137508,-2.720120,-3.382501,168.048889,86.741653,166.192703,0.687131,0.015930,0.726326,-0.006968
771,-9.751343,0.180518,-0.559229,2.052542,-2.828300,-1.625532,167.295639,86.795334,165.357864,0.687518,0.016626,0.725941,-0.007278
772,-9.711107,0.168936,-0.527503,1.289555,-3.247879,-0.279216,166.040710,86.872314,164.049774,0.688093,0.017260,0.725380,-0.007300
773,-9.695726,0.184931,-0.512078,0.874481,-3.330298,0.577246,164.035034,86.960426,162.009354,0.688811,0.017971,0.724685,-0.007018
774,-9.686812,0.182596,-0.487207,0.766119,-2.890869,1.049143,161.622620,87.036606,159.570114,0.689512,0.018735,0.724002,-0.006586
775,-9.700203,0.159439,-0.466429,0.683710,-2.347708,1.084405,159.766205,87.109306,157.688858,0.690144,0.019285,0.723387,-0.006343
776,-9.712481,0.148886,-0.460722,0.671505,-2.073080,0.853913,158.882660,87.178391,156.781052,0.690651,0.019533,0.722896,-0.006395
777,-9.740711,0.169878,-0.460560,0.654725,-1.799887,0.524220,158.393097,87.227448,156.267822,0.690993,0.019703,0.722563,-0.006517
778,-9.759250,0.158815,-0.443880,0.576908,-1.723523,0.623334,157.947372,87.268417,155.800140,0.691281,0.019865,0.722283,-0.006625
779,-9.784103,0.152930,-0.435159,0.401432,-2.288089,0.711691,157.571793,87.327309,155.406494,0.691667,0.019935,0.721910,-0.006778
780,-9.768014,0.190271,-0.414831,0.245789,-2.814549,0.577386,156.493942,87.401802,154.316589,0.692221,0.020104,0.721374,-0.006759
781,-9.764086,0.207525,-0.387566,0.077928,-2.878737,0.563837,154.351639,87.482849,152.168518,0.692937,0.020456,0.720679,-0.006479
782,-9.753373,0.203953,-0.361455,-0.045683,-2.842286,0.608281,151.868256,87.571342,149.684402,0.693742,0.020788,0.719898,-0.006156
783,-9.760679,0.203869,-0.353273,-0.184549,-2.581497,0.525986,149.677078,87.655067,147.496384,0.694482,0.020994,0.719180,-0.005911
784,-9.758148,0.190735,-0.341026,-0.242535,-2.097840,0.068199,148.352737,87.727463,146.178391,0.695045,0.020997,0.718636,-0.005832
785,-9.775899,0.199013,-0.340162,-0.335614,-1.939121,-0.369802,147.850632,87.789726,145.684967,0.695440,0.020835,0.718258,-0.005885
786,-9.764925,0.197457,-0.326222,-0.300514,-1.981780,-0.267595,147.457520,87.843056,145.301788,0.695773,0.020669,0.717940,-0.005930
787,-9.756854,0.174532,-0.314454,-0.277622,-1.977156,-0.095268,147.187866,87.904732,145.040771,0.696133,0.020454,0.717596,-0.006038
788,-9.737330,0.172021,-0.310841,-0.208949,-1.725317,-0.603574,147.463013,87.970589,145.322937,0.696444,0.020134,0.717301,-0.006272
789,-9.728641,0.189727,-0.315785,-0.099078,-1.268921,-0.669253,147.914474,88.007767,145.778976,0.696586,0.019897,0.717168,-0.006453
790,-9.718596,0.169470,-0.310736,0.161860,-0.449305,-0.246595,148.511490,88.011703,146.374527,0.696536,0.019787,0.717218,-0.006582
791,-9.730083,0.185135,-0.319416,0.305302,-0.093545,-0.412927,149.287506,87.990646,147.142426,0.696334,0.019765,0.717414,-0.006703
792,-9.707610,0.185014,-0.331781,0.471630,-0.122262,-0.118345,149.850281,87.945953,147.692032,0.696031,0.019885,0.717705,-0.006744
793,-9.700464,0.213260,-0.322800,0.618118,-0.271563,0.640234,149.328537,87.890114,147.152054,0.695790,0.020279,0.717929,-0.006575
794,-9.703126,0.233855,-0.316148,0.801220,-0.596465,1.557670,147.122284,87.829033,144.922318,0.695741,0.021058,0.717958,-0.006085
795,-9.716582,0.223789,-0.320948,0.923286,-1.223541,2.119505,144.407501,87.776131,142.178284,0.695838,0.021955,0.717841,-0.005550
796,-9.742421,0.207957,-0.317403,1.052989,-1.144109,2.353018,142.371994,87.745537,140.108200,0.695985,0.022675,0.717679,-0.005257
797,-9.794445,0.225002,-0.300553,0.985852,-0.800756,2.023329,140.834793,87.733070,138.535263,0.696161,0.023236,0.717491,-0.005137
798,-9.816275,0.216213,-0.299362,0.811900,-0.822145,1.719516,139.697586,87.736351,137.366333,0.696356,0.023631,0.717289,-0.005132
799,-9.822551,0.236922,-0.283015,0.605904,-0.683344,0.814474,138.920334,87.756500,136.564102,0.696577,0.023844,0.717067,-0.005227
800,-9.815471,0.235782,-0.265290,0.354126,-0.468335,0.181094,138.259506,87.795753,135.886749,0.696865,0.023901,0.716784,-0.005374
801,-9.768435,0.249194,-0.273506,0.105399,-0.505081,-0.484279,137.934174,87.837433,135.553802,0.697108,0.023830,0.716548,-0.005539
802,-9.740095,0.286812,-0.280671,0.065722,-0.491345,-0.818304,137.507889,87.844505,135.125259,0.697210,0.023886,0.716448,-0.005512
803,-9.715643,0.273233,-0.275375,0.114545,-0.503500,-0.464029,136.852341,87.830658,134.467300,0.697253,0.024070,0.716401,-0.005358
804,-9.713105,0.242871,-0.280440,-0.057884,-0.590409,0.106737,136.627060,87.829933,134.240829,0.697286,0.024118,0.716368,-0.005323
805,-9.725986,0.253864,-0.287689,-0.189110,-0.434639,0.385949,136.692871,87.823631,134.310150,0.697248,0.024112,0.716405,-0.005287
806,-9.759004,0.261183,-0.265650,-0.163168,-0.408637,0.726260,136.182755,87.809113,133.805283,0.697266,0.024228,0.716385,-0.005105
807,-9.761439,0.265258,-0.258594,-0.157067,-0.462105,0.624075,135.105270,87.804825,132.732941,0.697429,0.024393,0.716222,-0.004877
808,-9.770872,0.265349,-0.269852,-0.320344,-0.298856,0.207528,134.418304,87.803314,132.053665,0.697540,0.024464,0.716113,-0.004711
809,-9.760309,0.270167,-0.258585,-0.263884,-0.137104,-0.234977,134.245712,87.805901,131.890869,0.697583,0.024418,0.716073,-0.004637
810,-9.752865,0.298391,-0.253696,-0.271518,-0.330937,-0.607171,133.754486,87.809288,131.409058,0.697682,0.024423,0.715976,-0.004516
811,-9.733837,0.295416,-0.248403,-0.297467,-0.593460,-0.561170,132.821609,87.811523,130.486481,0.697856,0.024496,0.715806,-0.004316
812,-9.729788,0.241930,-0.252423,-0.454637,-1.032963,-0.114091,132.406616,87.845322,130.083771,0.698071,0.024327,0.715602,-0.004333
813,-9.717950,0.262398,-0.236831,-0.408856,-1.170336,0.033773,132.048004,87.896622,129.738815,0.698348,0.024056,0.715340,-0.004436
815,-9.728423,0.261412,-0.232681,-0.385968,-1.113941,0.334335,131.046875,87.931618,128.750366,0.698664,0.023958,0.715036,-0.004377
816,-9.723582,0.253275,-0.227754,-0.382917,-0.904926,0.491445,130.132263,87.956558,127.847878,0.698920,0.023894,0.714788,-0.004291
817,-9.720338,0.250616,-0.234196,-0.335609,-0.538673,0.534069,129.764236,87.969818,127.490990,0.699036,0.023811,0.714677,-0.004237
818,-9.728250,0.291096,-0.232265,-0.208956,-0.036557,0.312854,129.499985,87.948242,127.235451,0.698996,0.023898,0.714714,-0.004044
819,-9.732849,0.281089,-0.236061,-0.121978,0.326715,0.338944,129.323944,87.903236,127.064972,0.698850,0.024106,0.714852,-0.003767
820,-9.743063,0.275995,-0.237681,-0.035000,0.415320,0.186399,129.673813,87.869255,127.417259,0.698655,0.024203,0.715040,-0.003639
821,-9.740545,0.257432,-0.236146,0.019938,0.294836,0.557115,130.223022,87.856705,127.966316,0.698506,0.024185,0.715186,-0.003657
822,-9.749246,0.283944,-0.232268,0.033673,0.181923,0.712695,130.247147,87.843781,127.989349,0.698450,0.024251,0.715239,-0.003606
823,-9.756833,0.269022,-0.231769,0.042829,0.023192,0.958346,129.786133,87.827950,127.526848,0.698470,0.024405,0.715215,-0.003471
824,-9.757461,0.268965,-0.238287,0.003157,-0.368987,1.243589,129.323380,87.820488,127.062576,0.698525,0.024518,0.715157,-0.003377
825,-9.759841,0.308558,-0.245171,-0.183005,-0.591728,1.577790,128.325134,87.785477,126.066521,0.698576,0.024820,0.715099,-0.003048
826,-9.771320,0.324798,-0.237946,-0.289824,-0.518431,1.719894,126.725319,87.718010,124.473831,0.698634,0.025337,0.715026,-0.002441
827,-9.762351,0.316715,-0.236800,-0.350863,-0.545868,1.840572,125.254990,87.657570,123.013451,0.698713,0.025792,0.714934,-0.001864
828,-9.750825,0.329639,-0.234090,-0.392062,-0.403925,1.900117,124.098373,87.606819,121.868118,0.698779,0.026146,0.714858,-0.001370
829,-9.759119,0.349027,-0.234888,-0.451574,-0.207042,1.746058,123.088669,87.548157,120.871696,0.698801,0.026508,0.714825,-0.000844
830,-9.736787,0.339609,-0.227954,-0.250151,-0.057475,1.685027,122.356003,87.499153,120.149963,0.698801,0.026802,0.714814,-0.000417
831,-9.730931,0.342677,-0.221227,-0.057882,-0.138372,1.420940,121.809509,87.475243,119.607826,0.698850,0.026976,0.714760,-0.000189
832,-9.734787,0.365443,-0.217133,0.073346,-0.345958,1.043975,121.087830,87.460396,118.885292,0.698970,0.027161,0.714635,-0.000014
833,-9.753619,0.387342,-0.212706,0.105386,-0.547458,0.781585,120.027657,87.437996,117.821831,0.699153,0.027443,0.714445,0.000229
834,-9.746111,0.372075,-0.202773,0.204566,-0.282049,0.807569,119.009712,87.423820,116.798714,0.699358,0.027686,0.714235,0.000407
835,-9.766288,0.369399,-0.197349,0.244238,-0.030393,0.537401,118.388611,87.430824,116.170059,0.699531,0.027775,0.714062,0.000403
836,-9.766294,0.394368,-0.204999,0.170991,-0.067090,0.268815,117.993629,87.430443,115.768227,0.699627,0.027871,0.713965,0.000414
837,-9.773634,0.392623,-0.218383,-0.053321,0.068753,0.310070,117.919182,87.409424,115.691628,0.699584,0.028008,0.714001,0.000525
838,-9.762688,0.389172,-0.209018,-0.074682,0.288543,0.247523,118.114578,87.390831,115.888916,0.699481,0.028074,0.714100,0.000616
839,-9.766315,0.394262,-0.203432,-0.083837,0.175609,0.064414,118.145126,87.383560,115.922386,0.699452,0.028092,0.714127,0.000669
840,-9.754124,0.415895,-0.205551,-0.146405,0.111477,-0.403949,117.950783,87.374229,115.732361,0.699473,0.028141,0.714104,0.000771
841,-9.751668,0.409498,-0.211757,-0.215075,0.395289,-0.751714,117.987892,87.364037,115.776260,0.699434,0.028150,0.714142,0.000864
842,-9.727859,0.360385,-0.210247,-0.111309,0.511268,-0.588521,118.693108,87.389183,116.487251,0.699331,0.027885,0.714253,0.000670
843,-9.730963,0.364596,-0.215374,-0.146400,0.277811,-0.700148,119.684067,87.438911,117.482368,0.699239,0.027458,0.714360,0.000295
844,-9.735090,0.384135,-0.222846,-0.314249,0.038279,-0.605615,120.315643,87.463867,118.121681,0.699165,0.027193,0.714444,0.000125
845,-9.748096,0.369526,-0.229434,-0.402749,0.050559,-0.077634,120.708023,87.464256,118.525970,0.699073,0.027063,0.714538,0.000143
846,-9.735769,0.350987,-0.217961,-0.291354,0.404610,0.192364,121.149323,87.469589,118.978661,0.698986,0.026903,0.714629,0.000123
847,-9.742108,0.377387,-0.219945,-0.234895,0.589227,-0.073190,121.460144,87.467964,119.298439,0.698907,0.026813,0.714710,0.000144
848,-9.735580,0.374537,-0.229460,-0.189118,0.656375,-0.051763,121.763374,87.447945,119.609314,0.698770,0.026830,0.714843,0.000254
849,-9.731166,0.369718,-0.231658,-0.152496,0.656407,0.048980,122.214348,87.428230,120.066360,0.698598,0.026833,0.715011,0.000332
850,-9.723804,0.366366,-0.231878,-0.082302,0.650313,-0.099043,122.680840,87.417595,120.537132,0.698452,0.026794,0.715155,0.000346
851,-9.747550,0.373028,-0.246303,-0.196746,0.311588,-0.079207,123.120056,87.408440,120.981224,0.698317,0.026748,0.715289,0.000360
852,-9.749427,0.388057,-0.255771,-0.260833,-0.051490,-0.027242,123.342163,87.384834,121.210915,0.698184,0.026790,0.715417,0.000496
853,-9.745345,0.369463,-0.263125,-0.233364,0.063084,0.142199,123.614792,87.359879,121.491508,0.698032,0.026829,0.715563,0.000633
854,-9.742589,0.376740,-0.261887,-0.231833,0.266156,0.174244,124.057663,87.339493,121.941711,0.697855,0.026821,0.715737,0.000715
855,-9.746322,0.366622,-0.250483,-0.297446,0.084610,0.538916,124.193260,87.325920,122.085922,0.697774,0.026816,0.715815,0.000817
856,-9.741453,0.361361,-0.250503,-0.253193,-0.165675,0.457950,124.060051,87.330757,121.961510,0.697823,0.026757,0.715770,0.000867
857,-9.750856,0.380050,-0.248427,-0.256245,0.125732,0.193920,123.862534,87.333839,121.772423,0.697882,0.026720,0.715714,0.000933
858,-9.744191,0.393955,-0.241952,-0.227257,0.377443,0.233674,123.516106,87.317513,121.434448,0.697909,0.026804,0.715684,0.001123
859,-9.737725,0.388879,-0.253391,-0.172327,0.449125,0.221567,123.321320,87.291664,121.247009,0.697868,0.026923,0.715719,0.001331
860,-9.729316,0.371575,-0.271394,-0.097553,0.572803,0.314632,123.809067,87.269417,121.739059,0.697671,0.026935,0.715911,0.001397
861,-9.735268,0.395426,-0.272763,-0.050245,0.713317,0.348189,124.494827,87.236855,122.426987,0.697386,0.026979,0.716187,0.001469
862,-9.751420,0.384703,-0.264114,-0.001413,0.708787,0.664081,124.791779,87.200745,122.725067,0.697182,0.027110,0.716379,0.001612
863,-9.763084,0.371437,-0.265259,0.026054,0.481387,0.560224,124.972404,87.190903,122.905312,0.697102,0.027132,0.716457,0.001629
864,-9.769574,0.371900,-0.264534,0.094723,0.163926,-0.015213,125.192215,87.209366,123.122963,0.697114,0.027013,0.716450,0.001484
865,-9.754595,0.412816,-0.262671,0.096245,0.032612,-0.405836,125.038124,87.220329,122.966232,0.697192,0.026999,0.716375,0.001438
866,-9.737046,0.401279,-0.262928,0.134386,0.156135,-0.329389,124.660751,87.213715,122.585953,0.697262,0.027114,0.716301,0.001516
867,-9.750338,0.394489,-0.265684,0.166427,0.192707,-0.498695,124.609901,87.215965,122.530685,0.697283,0.027138,0.716280,0.001487
868,-9.752407,0.391922,-0.260895,0.119120,0.122465,-0.452895,124.682251,87.227875,122.598877,0.697308,0.027091,0.716259,0.001389
869,-9.758839,0.395305,-0.258730,0.067236,0.180377,-0.516952,124.656914,87.241035,122.571091,0.697361,0.027043,0.716209,0.001310
870,-9.768876,0.385563,-0.259733,0.035188,0.223032,-0.803806,124.762962,87.259758,122.676224,0.697402,0.026935,0.716173,0.001191
871,-9.775294,0.372122,-0.267169,0.007721,-0.005885,-1.026645,125.221359,87.294266,123.134315,0.697414,0.026686,0.716171,0.000938
872,-9.736862,0.374318,-0.274551,-0.056365,-0.105033,-1.119780,125.878754,87.328407,123.792633,0.697382,0.026397,0.716213,0.000661
873,-9.733819,0.375451,-0.287512,-0.041102,0.105663,-1.159432,126.694305,87.342590,124.610085,0.697242,0.026181,0.716357,0.000467
874,-9.724830,0.371691,-0.300716,0.050459,0.258461,-0.933527,127.746986,87.333176,125.662575,0.696964,0.026049,0.716633,0.000334
875,-9.719056,0.368265,-0.307231,0.108451,0.302953,-0.683197,128.822968,87.309357,126.735825,0.696624,0.025997,0.716966,0.000248
876,-9.732865,0.364432,-0.301688,0.119137,0.223780,-0.506117,129.599548,87.287621,127.508797,0.696361,0.025985,0.717222,0.000190
877,-9.739214,0.351074,-0.297073,0.108459,-0.101172,-0.390133,130.015976,87.287544,127.921349,0.696265,0.025934,0.717317,0.000092
878,-9.735739,0.365590,-0.294513,0.076412,-0.459760,-0.503021,130.001801,87.299911,127.904221,0.696318,0.025895,0.717266,0.000017
879,-9.741931,0.354068,-0.277367,0.038260,-0.411009,-0.368683,129.578339,87.321823,127.479263,0.696501,0.025876,0.717089,-0.000020
880,-9.746470,0.341549,-0.274408,-0.010574,-0.322639,-0.335143,129.197052,87.358917,127.097824,0.696734,0.025766,0.716867,-0.000133
881,-9.741644,0.348213,-0.283373,-0.039567,-0.173163,-0.477093,129.135605,87.387978,127.037407,0.696863,0.025629,0.716747,-0.000257
882,-9.739165,0.373708,-0.289172,-0.025836,0.013031,-0.408312,129.099442,87.380722,127.002777,0.696842,0.025661,0.716765,-0.000208
883,-9.747066,0.348933,-0.282148,-0.001423,0.231276,-0.098424,129.081314,87.362106,126.985382,0.696773,0.025749,0.716830,-0.000108
884,-9.746674,0.334881,-0.278854,-0.045674,0.100034,-0.048111,129.275116,87.368195,127.180069,0.696754,0.025680,0.716851,-0.000167
885,-9.760333,0.348489,-0.275880,-0.031941,-0.092281,-0.359448,129.343674,87.386185,127.250076,0.696810,0.025572,0.716800,-0.000258
886,-9.749771,0.354059,-0.273894,-0.042626,-0.144227,-0.321258,129.115387,87.398796,127.023399,0.696910,0.025540,0.716703,-0.000269
887,-9.740819,0.337371,-0.271403,0.027564,0.026614,-0.331924,128.991302,87.413811,126.899979,0.696996,0.025485,0.716622,-0.000317
888,-9.748025,0.326780,-0.268376,0.016882,-0.106207,-0.393045,129.150513,87.443886,127.058632,0.697080,0.025316,0.716546,-0.000493
889,-9.740998,0.336991,-0.275382,0.024512,-0.399214,-0.486187,129.276627,87.473145,127.183968,0.697168,0.025157,0.716466,-0.000661
890,-9.729312,0.346084,-0.288687,0.045876,-0.504434,-0.286239,129.284500,87.476715,127.190559,0.697181,0.025146,0.716454,-0.000688
891,-9.732567,0.340195,-0.272947,0.148113,-0.316674,0.048025,129.109039,87.467422,127.011658,0.697182,0.025242,0.716449,-0.000635
892,-9.756893,0.328287,-0.261551,0.093178,-0.544073,0.200623,128.663559,87.476555,126.562096,0.697314,0.025298,0.716319,-0.000630
893,-9.741403,0.364516,-0.265693,0.055026,-0.708925,0.057275,127.825928,87.479195,125.721886,0.697504,0.025439,0.716129,-0.000520
894,-9.744617,0.370282,-0.264560,0.097746,-0.429685,-0.038620,126.857101,87.455238,124.750748,0.697628,0.025727,0.715998,-0.000259
895,-9.746712,0.361948,-0.252167,0.096214,-0.229813,-0.058274,126.143250,87.438377,124.034081,0.697724,0.025945,0.715896,-0.000077
896,-9.735624,0.350859,-0.253747,-0.033493,-0.306151,-0.013966,125.714920,87.440590,123.604820,0.697830,0.026006,0.715792,-0.000027
897,-9.731791,0.357175,-0.259958,-0.012130,-0.251207,-0.125347,125.584091,87.444801,123.474579,0.697875,0.026001,0.715748,-0.000024
898,-9.734736,0.349003,-0.255413,0.036701,0.111998,-0.172652,125.726006,87.446640,123.615990,0.697849,0.025973,0.715773,-0.000059
899,-9.734102,0.349634,-0.249981,0.055012,0.238646,-0.097909,125.949928,87.451553,123.838478,0.697816,0.025922,0.715807,-0.000127
900,-9.740730,0.343399,-0.258280,0.012288,0.079952,-0.033861,126.180885,87.456238,124.068405,0.697782,0.025869,0.715843,-0.000194
901,-9.743206,0.348070,-0.265928,0.041284,0.035755,-0.012533,126.502586,87.454781,124.388931,0.697704,0.025832,0.715920,-0.000244
902,-9.745397,0.353073,-0.260075,0.065700,0.176190,0.039363,126.696480,87.444649,124.581017,0.697623,0.025864,0.715998,-0.000236
903,-9.739285,0.345157,-0.260548,0.109952,0.163995,0.097354,126.797913,87.437149,124.679581,0.697573,0.025903,0.716046,-0.000232
904,-9.747823,0.334952,-0.265379,0.099273,0.127391,0.030143,127.098793,87.440819,124.976784,0.697519,0.025859,0.716099,-0.000321
905,-9.738612,0.324964,-0.253982,0.074861,0.087699,-0.047822,127.476402,87.462250,125.351242,0.697517,0.025711,0.716107,-0.000509
906,-9.730217,0.345060,-0.265927,0.007722,-0.156468,-0.504150,127.715263,87.483940,125.588638,0.697547,0.025574,0.716083,-0.000663
907,-9.724963,0.353202,-0.281154,-0.006010,-0.313547,-0.536124,127.939796,87.481453,125.813210,0.697489,0.025550,0.716140,-0.000687
908,-9.740208,0.343502,-0.278516,-0.117400,-0.462952,-0.050798,128.087692,87.469513,125.962845,0.697410,0.025574,0.716216,-0.000642
909,-9.741005,0.348322,-0.269263,-0.266940,-0.737545,0.231558,127.774948,87.462173,125.656075,0.697451,0.025624,0.716175,-0.000518
910,-9.747996,0.370864,-0.272093,-0.291357,-0.949605,0.185931,126.924889,87.446030,124.814842,0.697578,0.025786,0.716045,-0.000246
911,-9.756945,0.371483,-0.258640,-0.305095,-0.766476,0.543204,125.787277,87.419876,123.686943,0.697738,0.026038,0.715880,0.000126
912,-9.765461,0.356355,-0.251650,-0.337143,-0.491843,0.611961,124.823486,87.406403,122.733719,0.697910,0.026194,0.715706,0.000411
913,-9.755627,0.363302,-0.250403,-0.349352,-0.465932,0.358656,124.218582,87.405426,122.139786,0.698047,0.026224,0.715571,0.000577
914,-9.751466,0.365941,-0.250575,-0.262374,-0.497975,0.279312,123.775261,87.404968,121.706230,0.698150,0.026233,0.715471,0.000706
915,-9.739348,0.357670,-0.251541,-0.175395,-0.311781,0.190775,123.613441,87.407616,121.551216,0.698198,0.026199,0.715425,0.000756
916,-9.739075,0.356619,-0.252859,-0.086886,-0.058419,0.060993,123.824799,87.413811,121.766357,0.698169,0.026113,0.715456,0.000716
918,-9.730378,0.354556,-0.255468,-0.067045,-0.485602,-0.126779,124.126930,87.424660,122.070496,0.698137,0.025999,0.715492,0.000626
919,-9.708672,0.367677,-0.269324,0.068768,-0.638057,-0.421299,124.413712,87.430824,122.356361,0.698092,0.025928,0.715538,0.000546
920,-9.725549,0.378673,-0.265077,0.328179,-0.431889,-0.689764,124.674126,87.423439,122.609726,0.698005,0.025971,0.715621,0.000502
921,-9.744595,0.359466,-0.229709,0.314445,-0.804219,-0.196822,124.313057,87.437149,122.238029,0.698138,0.026022,0.715491,0.000420
922,-9.762063,0.336060,-0.199966,0.085549,-2.031323,-0.076376,122.807053,87.509903,120.725113,0.698734,0.025907,0.714913,0.000221
923,-9.784265,0.352471,-0.172089,-0.164715,-3.113612,-0.581575,119.944260,87.622322,117.863335,0.699747,0.025680,0.713929,0.000006
924,-9.808207,0.382577,-0.127887,-0.575210,-4.452370,-1.112502,115.150200,87.735313,113.081635,0.701144,0.025516,0.712563,-0.000007
925,-9.809119,0.332315,-0.106216,-1.141343,-6.236526,-1.011693,109.441689,87.843781,107.400208,0.702665,0.025218,0.711074,0.000029
926,-9.789881,0.364554,-0.108714,-1.242057,-7.907485,-1.487783,103.207092,87.954071,101.201706,0.704217,0.024710,0.709554,-0.000034
927,-9.782403,0.387621,-0.075373,-1.278680,-9.734035,-0.805633,94.905510,88.027512,92.937263,0.706065,0.024287,0.707730,0.000001
928,-9.777017,0.378312,0.011387,-1.455689,-12.186241,1.141536,84.075600,88.001984,82.146820,0.708378,0.024140,0.705420,0.000341
929,-9.784383,0.358092,0.120837,-1.591501,-15.644112,2.679729,71.381348,87.823990,69.495834,0.711379,0.024284,0.702388,0.001019
930,-9.786824,0.410091,0.259370,-1.647967,-20.153440,3.042973,58.417244,87.452316,56.576149,0.715289,0.024616,0.698393,0.001901
931,-9.810887,0.420841,0.417007,-1.814303,-25.122173,3.828929,46.955166,86.849113,45.159821,0.720245,0.025073,0.693261,0.002925
932,-9.767348,0.410858,0.587368,-1.959280,-29.103710,4.500400,38.055840,86.023346,36.309166,0.726146,0.025599,0.687052,0.004056
933,-9.724106,0.454473,0.750608,-1.974553,-31.275530,3.752752,31.592686,85.045593,29.895220,0.732636,0.026088,0.680101,0.005160
934,-9.688204,0.446582,0.907931,-1.869281,-31.468199,2.718217,26.867392,84.010017,25.215794,0.739263,0.026397,0.672873,0.006043
935,-9.639054,0.470181,1.071928,-1.631251,-30.340895,1.544799,23.319145,82.984848,21.706333,0.745676,0.026497,0.665748,0.006631
936,-9.624279,0.457223,1.244906,-1.443577,-29.562994,0.502595,20.511589,81.990059,18.929268,0.751803,0.026404,0.658823,0.006925
937,-9.641775,0.451754,1.395109,-0.969033,-30.338434,-1.208002,18.035347,81.005074,16.469725,0.757817,0.026076,0.651910,0.006814
938,-9.628106,0.457455,1.559829,-0.187776,-32.879326,-1.681076,15.794549,79.972122,14.220581,0.764027,0.025678,0.644642,0.006328
939,-9.589484,0.459056,1.752848,0.460730,-36.471584,-0.716707,13.932522,78.825424,12.324256,0.770724,0.025514,0.636632,0.005761
940,-9.550985,0.486665,1.954119,0.514131,-39.683887,0.172936,12.495196,77.547852,10.840304,0.777965,0.025660,0.627760,0.005358
941,-9.492824,0.516091,2.178878,0.318820,-41.130711,0.867323,11.418394,76.178307,9.718884,0.785531,0.026016,0.618253,0.005195
942,-9.453404,0.539173,2.430185,0.215075,-40.870045,1.755546,10.645278,74.774368,8.907546,0.793110,0.026535,0.608478,0.005279
943,-9.400045,0.536842,2.670356,-0.190801,-39.974617,2.002881,10.069625,73.379906,8.304567,0.800486,0.027094,0.598713,0.005540
944,-9.354565,0.523190,2.894022,-0.506656,-39.036453,1.442959,9.548110,72.017670,7.768309,0.807583,0.027483,0.589085,0.005789
945,-9.333073,0.484816,3.126468,-0.813376,-39.013828,1.420087,9.027317,70.677162,7.243878,0.814470,0.027642,0.579517,0.005945
946,-9.260163,0.486434,3.361923,-0.737107,-40.021206,1.030939,8.515347,69.320305,6.732070,0.821334,0.027662,0.569745,0.006013
947,-9.165543,0.492327,3.583543,-1.072841,-41.748844,0.464781,8.004086,67.915733,6.221549,0.828322,0.027565,0.559541,0.005974
948,-9.051557,0.476942,3.787850,-1.373483,-42.858479,0.110717,7.488738,66.466080,5.713956,0.835409,0.027298,0.548919,0.005856
949,-8.928785,0.512044,3.981474,-1.597818,-42.877041,-0.531723,6.995736,65.004051,5.232634,0.842420,0.026920,0.538118,0.005677
950,-8.789631,0.545338,4.171303,-1.417750,-42.292812,-1.048966,6.553586,63.558643,4.795757,0.849209,0.026550,0.527361,0.005431
951,-8.681374,0.553295,4.367378,-1.474172,-42.003048,-1.340325,6.159420,62.135059,4.399360,0.855757,0.026206,0.516689,0.005125
952,-8.579276,0.522032,4.580543,-1.272716,-42.828701,-1.219691,5.796051,60.707619,4.030280,0.862183,0.025854,0.505914,0.004771
953,-8.495046,0.524878,4.811019,-1.084997,-44.873558,-1.215046,5.462514,59.233398,3.683961,0.868672,0.025537,0.494710,0.004375
954,-8.375936,0.544919,5.058597,-0.917097,-47.847729,-0.075084,5.194712,57.669449,3.398378,0.875378,0.025395,0.482754,0.004103
955,-8.222721,0.519979,5.304489,-0.765981,-50.330593,1.560807,5.014796,56.002613,3.205604,0.882321,0.025493,0.469939,0.004141
956,-8.050019,0.513059,5.527435,-0.892598,-51.107483,2.618345,4.898338,54.274849,3.089214,0.889305,0.025731,0.456569,0.004481
957,-7.875676,0.573403,5.745072,-0.961203,-48.829453,2.504003,4.825485,52.573757,3.022504,0.895973,0.026062,0.443315,0.004988
958,-7.695435,0.580443,5.946311,-0.947377,-44.299122,2.655207,4.784575,50.991711,2.988727,0.901992,0.026448,0.430907,0.005557
959,-7.571104,0.564021,6.123455,-1.168558,-38.821121,1.916766,4.739549,49.590393,2.956919,0.907182,0.026713,0.419846,0.006068
960,-7.470960,0.562904,6.291809,-1.171552,-33.318607,0.844107,4.665735,48.392273,2.896551,0.911522,0.026767,0.410329,0.006357
961,-7.372618,0.547593,6.449077,-0.887690,-29.143581,-0.117187,4.568986,47.370117,2.802460,0.915157,0.026677,0.402162,0.006368
962,-7.286106,0.528283,6.599150,-0.941083,-27.591600,-0.545965,4.453014,46.450283,2.681829,0.918376,0.026471,0.394775,0.006172
963,-7.197062,0.482948,6.731737,-0.931954,-27.985163,-0.770315,4.315231,45.552238,2.540747,0.921468,0.026128,0.387531,0.005856
964,-7.077790,0.499844,6.860028,-0.994556,-29.459106,-1.423460,4.160380,44.620739,2.377932,0.924618,0.025702,0.379989,0.005407
965,-6.943116,0.509027,6.974878,-1.363841,-32.184330,-1.873626,3.992971,43.613655,2.196880,0.927956,0.025222,0.371805,0.004848
966,-6.805251,0.521412,7.072668,-1.585079,-34.259529,-1.653876,3.825705,42.524750,2.018270,0.931479,0.024719,0.362929,0.004301
967,-6.654368,0.537883,7.169841,-1.809329,-35.408470,-1.331855,3.677306,41.384045,1.863659,0.935072,0.024268,0.353604,0.003870
968,-6.499311,0.561611,7.295391,-1.906879,-36.139301,-1.356176,3.548376,40.212311,1.729595,0.938661,0.023884,0.343995,0.003525
969,-6.385729,0.526816,7.436954,-1.873193,-37.227177,-1.057001,3.428040,39.013191,1.605403,0.942229,0.023515,0.334128,0.003213
970,-6.229445,0.514550,7.588157,-1.668625,-38.383713,-0.931804,3.313223,37.778446,1.487229,0.945793,0.023150,0.323932,0.002916
971,-6.053614,0.485718,7.763974,-1.595308,-39.624218,-1.151483,3.198554,36.495663,1.364738,0.949378,0.022776,0.313299,0.002568
972,-5.845608,0.471111,7.904914,-1.387730,-40.361229,-1.499356,3.078936,35.168751,1.229192,0.952961,0.022369,0.302258,0.002106
973,-5.648855,0.488647,8.029548,-1.474640,-39.399918,-1.665632,2.965802,33.839485,1.091292,0.956421,0.021987,0.291157,0.001577
974,-5.446833,0.494899,8.140325,-1.250225,-36.442699,-1.242878,2.874820,32.573769,0.972461,0.959593,0.021698,0.280553,0.001108
975,-5.301620,0.492902,8.258647,-1.211954,-31.993103,-0.884206,2.808840,31.435848,0.881797,0.962340,0.021508,0.270994,0.000766
976,-5.176775,0.497562,8.352362,-1.069907,-27.723495,-0.301220,2.765164,30.455017,0.820991,0.964630,0.021399,0.262736,0.000574
977,-5.078022,0.470729,8.440737,-0.995012,-23.859705,-0.273686,2.733029,29.623333,0.778581,0.966516,0.021319,0.255721,0.000470
978,-4.995513,0.468873,8.516950,-0.759914,-21.797968,-0.226331,2.704904,28.903370,0.740686,0.968107,0.021243,0.249637,0.000367
979,-4.900138,0.433490,8.589859,-0.590460,-22.023552,-0.244612,2.677967,28.221123,0.701770,0.969579,0.021169,0.243861,0.000241
980,-4.773376,0.418765,8.634851,-0.535492,-24.138241,-0.583360,2.641725,27.498648,0.649951,0.971102,0.021043,0.237734,0.000029
981,-4.632327,0.416207,8.683208,-0.491214,-26.361309,-0.951103,2.598027,26.697752,0.580909,0.972746,0.020887,0.230929,-0.000303
982,-4.483954,0.409044,8.752434,-0.349279,-28.804153,-1.143364,2.551977,25.810768,0.498477,0.974511,0.020734,0.223379,-0.000734
983,-4.329345,0.389574,8.842287,-0.375213,-30.586323,-1.651499,2.498701,24.844568,0.399395,0.976367,0.020543,0.215137,-0.001287
984,-4.173092,0.422571,8.924578,-0.559825,-30.355835,-2.292380,2.439266,23.846666,0.281675,0.978211,0.020318,0.206606,-0.001993
985,-4.020988,0.414086,9.011106,-0.546035,-28.904617,-2.547187,2.380551,22.874908,0.153797,0.979935,0.020094,0.198282,-0.002804
986,-3.895689,0.402987,9.079802,-0.639067,-27.706682,-2.884398,2.318425,21.951752,0.018448,0.981507,0.019830,0.190360,-0.003694
987,-3.764240,0.411695,9.134585,-1.002177,-26.279816,-2.705845,2.253288,21.079922,-0.115229,0.982933,0.019515,0.182866,-0.004585
988,-3.642951,0.402741,9.170909,-0.942592,-23.829014,-2.054251,2.194924,20.279461,-0.228673,0.984192,0.019205,0.175979,-0.005336
989,-3.522217,0.375492,9.205337,-0.821985,-22.321199,-1.610193,2.145306,19.550964,-0.320175,0.985295,0.018923,0.169706,-0.005931
990,-3.405890,0.384728,9.226707,-0.898224,-20.566160,-1.059322,2.103789,18.880119,-0.391318,0.986275,0.018669,0.163925,-0.006379
991,-3.296225,0.382718,9.272804,-0.843218,-18.197697,-0.116284,2.075842,18.277954,-0.431739,0.987126,0.018482,0.158735,-0.006596
992,-3.216417,0.376274,9.315479,-0.321276,-15.958924,0.703154,2.068361,17.753393,-0.438207,0.987844,0.018423,0.154214,-0.006563
993,-3.145635,0.365977,9.364507,-0.444815,-14.766916,0.550573,2.068995,17.289558,-0.431803,0.988461,0.018415,0.150215,-0.006438
994,-3.078694,0.374912,9.411612,-1.457972,-14.275298,-0.213907,2.045515,16.856016,-0.440553,0.989026,0.018220,0.146474,-0.006419
995,-3.022545,0.344286,9.456082,-2.269726,-14.752634,-1.098942,1.979556,16.425478,-0.478807,0.989578,0.017694,0.142755,-0.006602
996,-2.937699,0.339900,9.479322,-3.125753,-16.549900,-2.313583,1.871523,15.957281,-0.555291,0.990165,0.016846,0.138705,-0.007065
997,-2.832268,0.325979,9.514526,-4.213713,-18.716482,-3.656397,1.721156,15.416474,-0.676391,0.990823,0.015675,0.134023,-0.007863
998,-2.728932,0.288179,9.552279,-5.107890,-21.740679,-4.584162,1.526574,14.781726,-0.837635,0.991565,0.014151,0.128526,-0.008962
999,-2.594179,0.233631,9.589074,-4.738635,-24.807642,-4.350704,1.315378,14.037147,-1.012273,0.992390,0.012471,0.122078,-0.010169
1000,-2.469645,0.234039,9.623869,-4.605888,-28.173716,-4.758132,1.116739,13.179571,-1.188287,0.993281,0.010870,0.114648,-0.011419
