seq,ax,ay,az,wroll,wpitch,wyaw,roll,pitch,yaw,q0,q1,q2,q3
6116,-0.153032,-0.664929,9.890185,-0.642757,-0.313243,-0.124030,-3.846276,0.884478,-0.059462,0.999407,-0.033554,0.007732,-0.000260
6117,-0.155090,-0.739439,9.867806,-0.447806,-0.261349,-0.096568,-3.895840,0.880262,-0.064992,0.999393,-0.033986,0.007696,-0.000306
6118,-0.152396,-0.760684,9.868025,-0.253279,-0.116373,-0.259854,-3.994809,0.874980,-0.071830,0.999363,-0.034848,0.007653,-0.000360
6119,-0.162695,-0.746090,9.852620,-0.011365,0.059167,-0.362098,-4.077088,0.879742,-0.083300,0.999338,-0.035565,0.007698,-0.000453
6120,-0.157967,-0.738801,9.867149,0.371193,0.291195,-0.365150,-4.120838,0.894167,-0.096576,0.999323,-0.035946,0.007828,-0.000562
6121,-0.161272,-0.732356,9.882619,0.561665,0.463685,-0.433816,-4.135057,0.912457,-0.111223,0.999317,-0.036068,0.007992,-0.000683
6122,-0.174093,-0.697985,9.856157,0.715756,0.262375,-0.291898,-4.117004,0.936045,-0.124202,0.999321,-0.035910,0.008202,-0.000790
6123,-0.175377,-0.682248,9.863448,1.098966,-0.016722,0.185731,-4.064382,0.956240,-0.125884,0.999336,-0.035451,0.008378,-0.000802
6124,-0.161354,-0.665914,9.864267,1.659283,-0.593473,0.620629,-3.984945,0.952442,-0.111199,0.999361,-0.034759,0.008340,-0.000681
6125,-0.153291,-0.666179,9.887912,1.575635,-0.912464,0.739650,-3.900116,0.920942,-0.086347,0.999389,-0.034021,0.008058,-0.000480
6126,-0.144044,-0.664452,9.876387,1.433876,-1.109437,0.519911,-3.832929,0.874665,-0.062865,0.999412,-0.033437,0.007647,-0.000293
6127,-0.138688,-0.679416,9.885676,1.468932,-1.307940,0.190301,-3.788684,0.820580,-0.048449,0.999428,-0.033053,0.007171,-0.000186
6128,-0.134329,-0.675830,9.870443,1.493158,-1.553710,-0.311738,-3.760103,0.762270,-0.047640,0.999440,-0.032804,0.006662,-0.000197
6129,-0.130962,-0.672880,9.883753,1.294569,-1.228727,-1.041135,-3.737983,0.710159,-0.067443,0.999449,-0.032610,0.006213,-0.000386
6130,-0.120535,-0.680309,9.891431,1.102026,-0.693142,-2.063509,-3.728987,0.673127,-0.117383,0.999453,-0.032529,0.005904,-0.000833
6131,-0.133479,-0.676567,9.913118,0.448620,-0.137636,-3.468887,-3.738294,0.660900,-0.208910,0.999450,-0.032606,0.005824,-0.001634
6132,-0.125266,-0.674534,9.915192,-1.062288,0.495741,-4.547710,-3.776718,0.671156,-0.342948,0.999436,-0.032934,0.005952,-0.002798
6133,-0.136505,-0.683833,9.931036,-2.716588,1.364102,-5.238949,-3.863397,0.703291,-0.508038,0.999404,-0.033680,0.006283,-0.004224
6134,-0.136687,-0.714092,9.931706,-3.821616,1.850996,-5.048203,-4.002894,0.758562,-0.683143,0.999352,-0.034884,0.006824,-0.005727
6135,-0.157508,-0.726469,9.915934,-4.418525,1.640563,-3.928168,-4.172350,0.821886,-0.836950,0.999287,-0.036348,0.007433,-0.007038
6136,-0.140230,-0.737363,9.891569,-4.412595,1.213390,-2.272536,-4.340239,0.871059,-0.943856,0.999222,-0.037802,0.007908,-0.007943
6137,-0.148352,-0.769144,9.895834,-3.214865,0.859359,-1.112836,-4.481673,0.899310,-1.002979,0.999169,-0.039029,0.008184,-0.008439
6138,-0.141797,-0.787497,9.882861,-1.563941,0.648705,-0.291895,-4.575681,0.914171,-1.028513,0.999134,-0.039845,0.008329,-0.008649
6139,-0.151173,-0.780034,9.860139,-0.509544,0.541793,0.219281,-4.612278,0.922994,-1.031325,0.999120,-0.040163,0.008410,-0.008668
6140,-0.149846,-0.777759,9.865821,0.541949,0.347922,0.413070,-4.597177,0.929998,-1.021775,0.999126,-0.040032,0.008466,-0.008584
6141,-0.167647,-0.785061,9.868889,1.813173,0.016783,0.899841,-4.543490,0.936391,-1.000218,0.999146,-0.039565,0.008511,-0.008397
6142,-0.160613,-0.770806,9.891397,2.734946,-0.393665,1.540734,-4.454501,0.936182,-0.958959,0.999179,-0.038792,0.008488,-0.008044
6143,-0.155600,-0.729492,9.894043,3.318071,-0.735504,2.343372,-4.328178,0.918969,-0.892567,0.999227,-0.037697,0.008308,-0.007480
6144,-0.157650,-0.717330,9.908317,3.863092,-1.182629,2.869818,-4.177865,0.890274,-0.803073,0.999283,-0.036394,0.008019,-0.006720
6145,-0.159435,-0.688821,9.878695,3.845016,-1.388616,2.839303,-4.022015,0.855870,-0.704678,0.999339,-0.035044,0.007680,-0.005883
6146,-0.157439,-0.678822,9.888709,3.025791,-1.269529,2.418156,-3.884456,0.824884,-0.613851,0.999387,-0.033852,0.007376,-0.005110
6147,-0.159053,-0.669695,9.883477,2.194248,-0.845198,2.061099,-3.786906,0.808381,-0.536834,0.999419,-0.033007,0.007205,-0.004449
6148,-0.153737,-0.675335,9.894673,1.270971,-0.404060,1.426323,-3.738354,0.807437,-0.477586,0.999435,-0.032587,0.007178,-0.003936
6149,-0.147503,-0.660480,9.888245,0.568878,0.259821,0.710668,-3.725572,0.818818,-0.442138,0.999439,-0.032477,0.007267,-0.003624
6150,-0.156159,-0.662192,9.900263,0.127733,1.270091,-0.104171,-3.730707,0.856665,-0.433948,0.999436,-0.032521,0.007595,-0.003541
6151,-0.126406,-0.714991,9.772470,0.784944,1.199870,-0.212521,-3.766476,0.894217,-0.442662,0.999423,-0.032831,0.007926,-0.003604
6152,-0.096280,-0.735419,9.730648,0.707806,-1.138218,0.744198,-3.833993,0.854905,-0.435280,0.999406,-0.033422,0.007583,-0.003547
6153,-0.088234,-0.721921,9.758719,0.943531,-3.439867,1.819926,-3.893124,0.720494,-0.388782,0.999398,-0.033945,0.006399,-0.003177
6154,-0.081186,-0.682817,9.840577,1.916678,-4.787747,2.704924,-3.887882,0.534964,-0.304854,0.999411,-0.033909,0.004756,-0.002500
6155,-0.077441,-0.649640,9.899011,2.842962,-5.483850,3.495334,-3.802449,0.340211,-0.190302,0.999444,-0.033171,0.003022,-0.001561
6156,-0.097227,-0.541986,10.038665,3.171592,-4.934457,3.838675,-3.640432,0.181528,-0.056684,0.999494,-0.031763,0.001599,-0.000444
6157,-0.100033,-0.478439,10.080642,3.691429,-2.768794,2.834645,-3.413322,0.101475,0.062788,0.999556,-0.029783,0.000869,0.000574
6158,-0.099217,-0.474254,10.026902,3.756535,-0.444278,1.409466,-3.177086,0.110567,0.136942,0.999614,-0.027723,0.000931,0.001221
6159,-0.083829,-0.505140,9.943866,3.064430,0.558854,0.698421,-2.990152,0.180379,0.172248,0.999657,-0.026093,0.001534,0.001544
6160,-0.041663,-0.507276,9.905473,2.266644,0.205199,0.660293,-2.871193,0.233859,0.194404,0.999682,-0.025057,0.001998,0.001747
6161,-0.005793,-0.534408,9.888112,1.614937,0.009764,0.379516,-2.821458,0.225463,0.211485,0.999693,-0.024623,0.001921,0.001893
6162,0.009192,-0.548632,9.859737,1.725841,0.406105,0.536665,-2.819423,0.189219,0.226171,0.999694,-0.024605,0.001602,0.002014
6163,0.026079,-0.521777,9.859379,2.161778,0.030213,1.285867,-2.807100,0.141200,0.255953,0.999697,-0.024497,0.001177,0.002263
6164,0.020525,-0.516140,9.882161,1.889836,-0.312095,1.406389,-2.775478,0.083636,0.300869,0.999703,-0.024220,0.000666,0.002642
6166,-0.002791,-0.483842,9.871058,2.225362,-0.139937,1.540657,-2.726396,0.048449,0.350221,0.999712,-0.023791,0.000350,0.003065
6167,-0.029161,-0.434638,9.906735,2.352166,-0.657183,1.702408,-2.633228,0.042522,0.404838,0.999730,-0.022978,0.000290,0.003540
6168,-0.065248,-0.402895,9.951919,2.120667,-0.925368,1.299582,-2.510125,0.059925,0.456100,0.999752,-0.021905,0.000436,0.003991
6169,-0.077641,-0.391259,9.969139,1.637430,-0.509718,0.590053,-2.394503,0.103258,0.488760,0.999772,-0.020898,0.000812,0.004283
6170,-0.069760,-0.372025,9.934895,1.260953,-0.123089,0.117041,-2.299180,0.155963,0.501148,0.999788,-0.020069,0.001273,0.004400
6171,-0.033632,-0.384308,9.926903,0.542519,-0.508868,-0.148458,-2.238674,0.176286,0.501165,0.999798,-0.019541,0.001453,0.004403
6172,-0.017884,-0.406630,9.903502,0.051146,-0.276956,-0.351407,-2.231587,0.159674,0.493349,0.999800,-0.019479,0.001309,0.004332
6173,0.010084,-0.419180,9.879335,-0.100179,-0.318398,-0.250706,-2.260894,0.122689,0.483636,0.999796,-0.019733,0.000987,0.004241
6174,0.004162,-0.421522,9.893693,-0.446877,-0.788687,-0.288867,-2.304559,0.070446,0.475322,0.999789,-0.020112,0.000531,0.004159
6175,-0.020292,-0.397307,9.911991,-0.405819,-0.706370,-0.507077,-2.334324,0.035844,0.463055,0.999784,-0.020371,0.000230,0.004046
6176,-0.067211,-0.383727,9.901709,0.105469,-0.033105,-0.919064,-2.327966,0.059188,0.439814,0.999786,-0.020316,0.000438,0.003848
6177,-0.076711,-0.373952,9.894043,0.397152,0.167405,-1.472949,-2.294131,0.127421,0.399936,0.999793,-0.020022,0.001042,0.003512
6178,-0.079827,-0.364186,9.901194,0.452379,0.126804,-2.014629,-2.247952,0.195917,0.341764,0.999802,-0.019621,0.001651,0.003015
6179,-0.057168,-0.359943,9.896774,0.724286,0.114987,-2.307589,-2.196284,0.240143,0.269760,0.999811,-0.019170,0.002050,0.002394
6180,-0.019902,-0.393268,9.922834,0.970037,0.072269,-2.789782,-2.159988,0.240904,0.184786,0.999819,-0.018852,0.002072,0.001652
6181,0.029530,-0.437834,9.938898,1.038341,0.187793,-3.004955,-2.166812,0.192423,0.087943,0.999820,-0.018909,0.001664,0.000799
6182,0.036509,-0.457365,9.922562,1.251274,0.403796,-2.266435,-2.205398,0.124300,-0.000476,0.999814,-0.019245,0.001085,0.000017
6183,0.029325,-0.417338,9.924386,1.201883,-0.010309,-1.115911,-2.226464,0.064828,-0.057207,0.999811,-0.019428,0.000575,-0.000488
6184,0.015911,-0.407946,9.939666,0.460012,-0.289928,-0.662727,-2.228697,0.017437,-0.086682,0.999811,-0.019448,0.000167,-0.000753
6185,0.037189,-0.379946,9.941312,-0.006992,-0.575600,0.225349,-2.228825,-0.032836,-0.093415,0.999811,-0.019449,-0.000271,-0.000821
6186,0.018760,-0.353321,9.937902,-0.522561,-0.601796,0.855546,-2.216342,-0.079875,-0.074666,0.999813,-0.019340,-0.000684,-0.000665
6187,-0.017837,-0.333309,9.937312,-0.668643,-0.496418,0.883016,-2.191507,-0.087205,-0.045057,0.999817,-0.019124,-0.000753,-0.000408
6188,-0.037712,-0.351036,9.936390,-0.848316,-0.196931,0.500024,-2.174330,-0.053217,-0.021633,0.999820,-0.018974,-0.000461,-0.000198
6189,-0.027275,-0.336913,9.930160,-0.706072,0.123943,0.344395,-2.163638,-0.006689,-0.007557,0.999822,-0.018880,-0.000057,-0.000067
6190,-0.076209,-0.313790,9.891622,-0.345473,0.591424,0.275750,-2.128195,0.065964,0.002326,0.999827,-0.018571,0.000575,0.000031
6191,-0.075303,-0.295946,9.894488,-0.276171,0.314387,-0.110284,-2.068735,0.156113,0.004634,0.999836,-0.018052,0.001361,0.000065
6192,-0.001033,-0.332364,9.943399,-0.988304,-0.456023,-1.034986,-2.037679,0.173209,-0.014228,0.999841,-0.017781,0.001514,-0.000097
6193,0.036773,-0.394431,9.968451,-1.360690,-0.335920,-1.683522,-2.083708,0.109383,-0.059040,0.999834,-0.018182,0.000964,-0.000498
6194,0.043889,-0.438935,9.958923,-1.130833,0.124289,-1.611826,-2.186549,0.035420,-0.113836,0.999817,-0.019080,0.000328,-0.000987
6195,0.061559,-0.477577,9.960177,-1.026376,0.196908,-1.596592,-2.314038,-0.030154,-0.167441,0.999795,-0.020193,-0.000234,-0.001466
6196,0.046726,-0.509431,9.938774,-0.977003,0.484785,-1.396716,-2.455433,-0.078445,-0.217609,0.999768,-0.021427,-0.000644,-0.001913
6197,0.005736,-0.483168,9.877718,-0.408637,1.270475,-0.740574,-2.566953,-0.068534,-0.254321,0.999746,-0.022400,-0.000548,-0.002232
6198,-0.013560,-0.459843,9.836946,-0.027534,1.327095,-0.383500,-2.615872,-0.008473,-0.274933,0.999737,-0.022826,-0.000019,-0.002400
6199,-0.033016,-0.456497,9.819112,0.129506,0.936748,-0.414005,-2.628427,0.060543,-0.289930,0.999734,-0.022934,0.000586,-0.002517
6200,-0.040215,-0.442411,9.839554,-0.082589,0.428926,-0.423146,-2.626929,0.116953,-0.304906,0.999733,-0.022919,0.001081,-0.002637
6201,-0.026233,-0.421663,9.890009,-0.099175,-0.112603,-0.325479,-2.608024,0.140742,-0.317566,0.999736,-0.022754,0.001291,-0.002743
6202,-0.016182,-0.440763,9.944703,-0.408725,-0.388807,-0.427716,-2.593064,0.130659,-0.329673,0.999739,-0.022623,0.001205,-0.002850
6203,-0.021742,-0.428133,9.918182,-0.138476,0.126912,-0.069125,-2.584638,0.121086,-0.337707,0.999741,-0.022550,0.001123,-0.002922
6204,-0.026669,-0.408975,9.925399,-0.248055,-0.083643,0.220803,-2.559318,0.124447,-0.335145,0.999746,-0.022329,0.001151,-0.002900
6205,-0.024593,-0.421263,9.943541,-0.565149,-0.335379,0.260479,-2.539990,0.122398,-0.326749,0.999750,-0.022161,0.001131,-0.002827
6206,-0.035473,-0.416920,9.911520,-0.499313,0.128586,0.356617,-2.533443,0.128542,-0.316267,0.999751,-0.022103,0.001182,-0.002734
6207,-0.052717,-0.390442,9.866560,-0.276196,0.176105,0.576360,-2.509791,0.158117,-0.300870,0.999756,-0.021897,0.001437,-0.002595
6208,-0.051024,-0.391224,9.900454,-0.664878,-0.653736,0.452773,-2.478290,0.179719,-0.283255,0.999762,-0.021622,0.001621,-0.002437
6209,-0.049046,-0.419072,9.890071,-0.794332,-0.446010,0.104871,-2.475187,0.183910,-0.273091,0.999763,-0.021594,0.001656,-0.002348
6210,-0.051468,-0.449337,9.828401,-0.219134,-0.081131,-0.038558,-2.500370,0.195345,-0.271636,0.999758,-0.021814,0.001756,-0.002333
6211,-0.044883,-0.453196,9.824311,-0.132393,-0.773750,0.016381,-2.532193,0.197774,-0.271475,0.999752,-0.022092,0.001778,-0.002330
6212,-0.017119,-0.459521,9.876646,-0.071583,-1.661865,0.020957,-2.560560,0.154274,-0.269140,0.999747,-0.022340,0.001398,-0.002318
6213,-0.001464,-0.496477,9.891718,-0.125360,-1.495742,-0.462771,-2.604589,0.078968,-0.274235,0.999739,-0.022726,0.000743,-0.002377
6214,0.016145,-0.490588,9.903712,0.266349,-1.593666,-0.085882,-2.652118,-0.002041,-0.281087,0.999729,-0.023142,0.000039,-0.002453
6215,0.027611,-0.451048,9.935159,0.257044,-1.833511,0.265069,-2.659765,-0.089146,-0.275477,0.999727,-0.023211,-0.000722,-0.002421
6216,0.032162,-0.456680,9.949715,0.045012,-1.612463,0.008704,-2.646997,-0.169489,-0.268275,0.999729,-0.023101,-0.001425,-0.002375
6217,0.032367,-0.463365,9.924789,-0.034332,-0.997609,0.034641,-2.646304,-0.223271,-0.265543,0.999729,-0.023096,-0.001894,-0.002362
6218,0.035658,-0.432238,9.889590,0.513573,-0.823653,0.658743,-2.627587,-0.253087,-0.252645,0.999732,-0.022933,-0.002157,-0.002255
6219,0.034957,-0.426770,9.874261,0.425317,-0.991449,0.594656,-2.584862,-0.276187,-0.230515,0.999741,-0.022560,-0.002364,-0.002065
6220,0.037211,-0.420415,9.895134,0.152431,-1.291963,0.547355,-2.547400,-0.303146,-0.209919,0.999748,-0.022233,-0.002604,-0.001890
6221,0.051641,-0.443454,9.906536,-0.260982,-1.294960,0.419180,-2.536814,-0.339482,-0.191967,0.999749,-0.022141,-0.002925,-0.001740
6222,0.060537,-0.451503,9.912862,-0.311409,-1.182046,0.376454,-2.554397,-0.380618,-0.176836,0.999745,-0.022294,-0.003286,-0.001617
6223,0.064407,-0.446707,9.922681,-0.551059,-1.203410,0.272691,-2.577504,-0.419938,-0.164193,0.999739,-0.022496,-0.003631,-0.001515
6224,0.079238,-0.476403,9.946397,-0.329956,-0.982173,0.376455,-2.609511,-0.458302,-0.151611,0.999732,-0.022775,-0.003968,-0.001414
6225,0.091575,-0.481481,9.935184,0.394583,-0.471076,1.101267,-2.638870,-0.491008,-0.125661,0.999725,-0.023031,-0.004258,-0.001195
6226,0.087142,-0.434350,9.913183,1.264332,-0.320077,1.916107,-2.614867,-0.509334,-0.074798,0.999730,-0.022820,-0.004429,-0.000754
6227,0.077410,-0.429613,9.901427,1.501068,-0.275784,1.961885,-2.545478,-0.511800,-0.009991,0.999743,-0.022212,-0.004463,-0.000186
6228,0.092313,-0.423279,9.917951,1.704208,-0.298638,2.135841,-2.471394,-0.514633,0.058478,0.999757,-0.021563,-0.004501,0.000413
6229,0.090669,-0.380096,9.923243,1.500050,-0.379536,2.001556,-2.383832,-0.525706,0.127540,0.999773,-0.020796,-0.004610,0.001017
6230,0.085307,-0.392987,9.908354,0.642806,-0.475650,0.904413,-2.312787,-0.535738,0.176194,0.999784,-0.020174,-0.004705,0.001443
6231,0.087141,-0.423484,9.919424,0.165175,-0.417609,0.365764,-2.301294,-0.543740,0.197971,0.999786,-0.020073,-0.004779,0.001632
6232,0.099347,-0.389663,9.929568,-0.147705,-0.223814,0.277261,-2.308243,-0.553638,0.209177,0.999784,-0.020133,-0.004867,0.001728
6233,0.087931,-0.395472,9.928893,-0.776318,0.383518,-0.648976,-2.316127,-0.549617,0.202808,0.999783,-0.020202,-0.004831,0.001673
6234,0.066314,-0.407020,9.883580,-1.218849,0.772806,-1.154050,-2.350445,-0.512137,0.172003,0.999779,-0.020503,-0.004499,0.001409
6235,0.055407,-0.409481,9.894475,-1.234159,0.945533,-1.149460,-2.396628,-0.452379,0.132488,0.999773,-0.020908,-0.003971,0.001073
6236,0.055919,-0.412088,9.903287,-1.270786,1.234200,-1.486677,-2.438551,-0.388537,0.087040,0.999768,-0.021276,-0.003406,0.000687
6237,0.038836,-0.443995,9.914137,-1.267827,1.017763,-1.726237,-2.490766,-0.326440,0.031973,0.999760,-0.021733,-0.002854,0.000217
6238,0.034172,-0.456516,9.900344,-1.078841,0.351178,-1.311174,-2.554812,-0.278999,-0.019482,0.999749,-0.022293,-0.002430,-0.000224
6239,0.039166,-0.451720,9.906931,-0.636495,0.328440,-1.103640,-2.602020,-0.252849,-0.060119,0.999740,-0.022706,-0.002194,-0.000575
6240,0.034633,-0.458867,9.912528,-0.284094,0.438395,-1.227236,-2.626753,-0.232171,-0.099471,0.999735,-0.022922,-0.002006,-0.000914
6241,0.026309,-0.453972,9.902846,0.059202,0.200460,-0.902209,-2.634615,-0.210971,-0.135397,0.999733,-0.022991,-0.001813,-0.001224
6242,0.034551,-0.442533,9.884893,0.698625,0.372966,-0.397123,-2.615190,-0.194071,-0.157491,0.999737,-0.022822,-0.001662,-0.001413
6243,0.044231,-0.451062,9.887017,1.295323,0.479739,-0.275052,-2.575104,-0.185061,-0.169351,0.999745,-0.022472,-0.001581,-0.001514
6244,0.044963,-0.453595,9.922826,1.341069,0.298039,-0.275057,-2.534719,-0.185011,-0.179084,0.999753,-0.022120,-0.001580,-0.001598
6245,0.053576,-0.442441,9.929946,1.342546,0.151385,-0.023287,-2.495352,-0.195905,-0.184373,0.999760,-0.021777,-0.001674,-0.001646
6246,0.067896,-0.431735,9.923794,1.466136,0.134334,-0.021773,-2.449656,-0.220470,-0.185344,0.999768,-0.021379,-0.001889,-0.001658
6247,0.064402,-0.428500,9.913239,1.215866,-0.003288,-0.261355,-2.406875,-0.250307,-0.190168,0.999776,-0.021006,-0.002149,-0.001705
6248,0.046308,-0.409600,9.919374,0.919851,-0.036998,-0.310191,-2.369689,-0.266808,-0.199681,0.999782,-0.020682,-0.002292,-0.001790
6249,0.049525,-0.389303,9.900345,0.820800,-0.241502,-0.061467,-2.325969,-0.275048,-0.205751,0.999789,-0.020301,-0.002363,-0.001844
6250,0.051020,-0.394041,9.901106,0.677500,-0.384972,-0.127084,-2.285877,-0.289231,-0.208544,0.999796,-0.019951,-0.002487,-0.001870
6251,0.041604,-0.395805,9.907567,0.428812,-0.174370,-0.272046,-2.263275,-0.296164,-0.214841,0.999800,-0.019754,-0.002547,-0.001926
6252,0.037404,-0.399523,9.920153,0.294493,-0.183419,-0.322396,-2.255283,-0.290676,-0.224483,0.999801,-0.019685,-0.002498,-0.002009
6253,0.042566,-0.393361,9.921919,0.158638,-0.190943,-0.259829,-2.253006,-0.285800,-0.233905,0.999801,-0.019665,-0.002453,-0.002090
6254,0.054584,-0.395920,9.939375,0.245579,-0.108530,-0.235414,-2.250182,-0.289602,-0.241937,0.999802,-0.019641,-0.002485,-0.002161
6255,0.062748,-0.395426,9.920965,0.584284,-0.044526,-0.101135,-2.241856,-0.301637,-0.247415,0.999803,-0.019568,-0.002590,-0.002210
6256,0.063986,-0.381262,9.912398,0.923045,-0.261324,0.094178,-2.216103,-0.319608,-0.247340,0.999807,-0.019344,-0.002747,-0.002212
6257,0.072796,-0.354480,9.923944,1.710597,-0.259938,0.121639,-2.153022,-0.343583,-0.243533,0.999817,-0.018794,-0.002958,-0.002181
6258,0.072122,-0.341511,9.916189,3.563363,-0.015934,0.019394,-2.032970,-0.363977,-0.241231,0.999835,-0.017747,-0.003138,-0.002161
6259,0.064032,-0.322681,9.901418,5.774718,0.280029,-0.082847,-1.845524,-0.366878,-0.242665,0.999863,-0.016111,-0.003167,-0.002169
6260,0.062490,-0.269372,9.923437,7.954120,0.562326,0.164351,-1.574825,-0.352818,-0.242005,0.999899,-0.013749,-0.003050,-0.002154
6261,0.051884,-0.231112,9.931711,10.196149,0.702761,0.574823,-1.223591,-0.325952,-0.230495,0.999937,-0.010683,-0.002823,-0.002042
6262,0.040647,-0.177132,9.892219,12.334335,0.911933,1.009713,-0.807935,-0.285354,-0.204736,0.999970,-0.007055,-0.002478,-0.001804
6263,0.028314,-0.095938,9.920485,13.473052,1.112006,1.302692,-0.336595,-0.231759,-0.166621,0.999993,-0.002940,-0.002018,-0.001460
6264,0.021374,0.003737,9.947360,14.707961,1.438723,1.505639,0.180805,-0.170541,-0.119920,0.999997,0.001576,-0.001490,-0.001044
6265,0.001734,0.104552,9.938454,16.611279,2.114877,1.189771,0.756300,-0.093176,-0.074539,0.999978,0.006599,-0.000817,-0.000645
6266,-0.020264,0.211895,9.971304,18.296452,2.495063,0.793027,1.398761,0.008444,-0.039964,0.999925,0.012206,0.000069,-0.000350
6267,-0.053070,0.308868,9.981931,20.604174,2.420609,0.631272,2.104494,0.124339,-0.013420,0.999831,0.018364,0.001083,-0.000137
6269,-0.038805,0.490034,9.970320,22.229959,1.007848,-0.291918,2.892832,0.208274,-0.004731,0.999680,0.025242,0.001816,-0.000087
6270,-0.042343,0.646561,9.945308,22.722267,-0.638542,-0.934333,3.747522,0.224718,-0.024160,0.999463,0.032698,0.001953,-0.000275
6271,-0.040564,0.803920,9.941961,23.039198,-2.362810,-1.028937,4.627061,0.180157,-0.059826,0.999183,0.040369,0.001550,-0.000585
6272,-0.018591,0.974577,9.870142,23.177711,-3.011368,-0.972471,5.526948,0.089446,-0.100432,0.998836,0.048214,0.000737,-0.000913
6273,0.003918,1.150769,9.857005,22.100224,-2.716979,-0.824443,6.428890,-0.015088,-0.139936,0.998426,0.056073,-0.000200,-0.001212
6274,-0.000873,1.249042,9.843192,21.285063,-1.607689,0.355104,7.284956,-0.092020,-0.156371,0.997979,0.063529,-0.000888,-0.001311
6275,0.004291,1.343225,9.850176,21.298071,-0.469294,1.324059,8.082813,-0.123976,-0.133351,0.997512,0.070476,-0.001161,-0.001085
6276,0.003400,1.452751,9.820502,21.306210,0.658471,1.919154,8.848582,-0.116947,-0.079449,0.997019,0.077141,-0.001071,-0.000613
6277,-0.012676,1.558160,9.843342,21.268360,0.934845,2.103763,9.590898,-0.081210,-0.008924,0.996499,0.083599,-0.000713,-0.000018
6278,-0.015881,1.684537,9.833468,21.514206,0.634461,2.247164,10.322825,-0.043071,0.067278,0.995945,0.089962,-0.000322,0.000619
6279,-0.030262,1.798635,9.795224,22.146070,0.729308,2.012129,11.065003,-0.007126,0.141577,0.995341,0.096410,0.000057,0.001236
6280,-0.041348,1.939354,9.777223,22.666559,0.834880,1.770978,11.828115,0.037653,0.208928,0.994676,0.103036,0.000515,0.001780
6281,-0.041741,2.068590,9.769081,22.575180,0.424680,1.340613,12.601540,0.077883,0.264475,0.993957,0.109746,0.000929,0.002219
6282,-0.019378,2.203062,9.714465,23.493979,0.064706,0.754627,13.390242,0.094130,0.300681,0.993177,0.116584,0.001122,0.002510
6283,-0.018077,2.349372,9.696554,24.599001,-0.219089,-0.200608,14.219633,0.092359,0.309182,0.992307,0.123769,0.001134,0.002578
6284,-0.020279,2.486380,9.672817,25.395798,-0.898106,-0.586671,15.082058,0.079916,0.291861,0.991348,0.131234,0.001026,0.002433
6285,-0.019527,2.634674,9.589580,25.216036,-1.545063,-0.983421,15.958258,0.051539,0.255887,0.990316,0.138811,0.000755,0.002149
6286,-0.021774,2.759159,9.521889,24.804340,-1.677755,-0.945291,16.825008,0.016394,0.210052,0.989239,0.146298,0.000410,0.001792
6287,-0.037234,2.859367,9.497635,23.121326,-1.503636,-0.547072,17.632776,-0.008117,0.170814,0.988184,0.153268,0.000158,0.001484
6288,-0.022408,2.954215,9.456109,20.462944,-1.485124,0.296702,18.334864,-0.031065,0.151774,0.987226,0.159320,-0.000057,0.001351
6289,-0.008381,3.070415,9.441512,17.824242,-1.207276,0.789534,18.931480,-0.064407,0.154832,0.986383,0.164458,-0.000332,0.001425
6290,-0.005950,3.160142,9.434237,16.703754,-0.992016,1.126729,19.456543,-0.097255,0.173112,0.985619,0.168977,-0.000581,0.001632
6291,0.001552,3.260293,9.439442,16.420948,-0.924764,1.073284,19.952566,-0.126820,0.197054,0.984877,0.173242,-0.000792,0.001885
6292,0.008247,3.381219,9.438559,17.200294,-0.691198,0.961856,20.468481,-0.152262,0.219768,0.984086,0.177675,-0.000967,0.002123
6293,0.000015,3.473397,9.394211,18.866341,-0.494218,0.752755,21.040615,-0.164927,0.239676,0.983187,0.182586,-0.001033,0.002319
6294,0.002067,3.569421,9.322204,21.161167,-0.426899,0.842717,21.689362,-0.167936,0.259094,0.982137,0.188150,-0.001014,0.002496
6295,0.006385,3.670292,9.271797,22.955540,-0.190214,1.013556,22.412025,-0.169538,0.284183,0.980930,0.194340,-0.000969,0.002720
6296,0.009374,3.799634,9.202020,23.225588,-0.098516,1.254595,23.176861,-0.171643,0.317405,0.979610,0.200883,-0.000911,0.003014
6297,0.012830,3.923212,9.138892,22.970810,-0.228097,1.573462,23.952188,-0.180799,0.358623,0.978227,0.207507,-0.000894,0.003389
6298,0.026929,4.030014,9.094434,22.543550,-0.046440,1.608527,24.710823,-0.198321,0.405223,0.976830,0.213980,-0.000934,0.003825
6299,0.019550,4.144220,9.052582,21.342545,0.101637,1.565772,25.430677,-0.212231,0.453651,0.975465,0.220112,-0.000935,0.004269
6300,0.013241,4.261170,9.034240,20.564140,0.004104,1.507729,26.108871,-0.217641,0.500763,0.974143,0.225882,-0.000863,0.004686
6301,0.015405,4.368819,8.993780,21.702242,-0.236842,1.506132,26.787056,-0.225226,0.544318,0.972787,0.231644,-0.000812,0.005076
6302,0.032469,4.483493,8.935138,22.210161,-0.885265,0.857568,27.495369,-0.248267,0.571121,0.971335,0.237654,-0.000920,0.005356
6303,0.040262,4.613905,8.872193,22.802122,-1.606996,0.054915,28.234600,-0.288243,0.565285,0.969780,0.243916,-0.001236,0.005398
6304,0.046789,4.723288,8.800960,23.078295,-1.861804,-0.653125,28.997219,-0.331700,0.528903,0.968136,0.250366,-0.001647,0.005193
6305,0.046533,4.820495,8.704327,22.242069,-1.873967,-1.339817,29.750654,-0.363957,0.469479,0.966470,0.256726,-0.002018,0.004775
6306,0.049813,4.929359,8.651473,19.708971,-1.620586,-1.875460,30.443642,-0.377813,0.394042,0.964903,0.262565,-0.002279,0.004184
6307,0.038618,4.998460,8.576758,17.752556,-0.801039,-1.738198,31.048656,-0.365777,0.321901,0.963506,0.267654,-0.002324,0.003561
6308,0.016806,5.074331,8.551242,15.263412,0.004879,-1.407206,31.559752,-0.320731,0.270669,0.962305,0.271947,-0.002051,0.003034
6309,0.020045,5.158482,8.543272,13.822438,0.407978,-0.966365,31.989681,-0.261414,0.241230,0.961281,0.275554,-0.001613,0.002652
6310,0.035333,5.246010,8.535995,13.277065,0.524101,-0.462900,32.373295,-0.215990,0.229853,0.960354,0.278770,-0.001251,0.002452
6311,0.028893,5.299733,8.479598,13.940266,0.772897,-0.469045,32.763500,-0.180494,0.228751,0.959400,0.282038,-0.000948,0.002359
6312,0.017704,5.371608,8.452838,14.657015,0.562389,-0.347013,33.192242,-0.145507,0.229680,0.958338,0.285625,-0.000644,0.002284
6313,0.028619,5.453125,8.395968,16.188721,0.136689,0.078700,33.670769,-0.129133,0.232535,0.957138,0.289624,-0.000491,0.002269
6314,0.023516,5.500331,8.302135,18.021149,-0.022021,-0.015898,34.217934,-0.129810,0.234545,0.955744,0.294191,-0.000481,0.002289
6315,0.010349,5.553930,8.212720,18.877010,-0.047928,-0.289061,34.812653,-0.123509,0.229762,0.954204,0.299147,-0.000429,0.002236
6316,0.001791,5.639381,8.155729,18.922602,-0.252307,-0.139585,35.422066,-0.110911,0.221183,0.952600,0.304218,-0.000335,0.002133
6317,0.010638,5.751101,8.113333,18.103027,-0.375824,0.098401,36.022552,-0.107820,0.214693,0.950993,0.309205,-0.000315,0.002073
6318,0.006636,5.839122,8.062203,16.865377,-0.432222,0.121247,36.591629,-0.112638,0.209793,0.949446,0.313924,-0.000359,0.002047
6319,0.012790,5.938219,8.036417,15.748250,-0.613752,0.078481,37.118782,-0.121097,0.202114,0.947992,0.318289,-0.000440,0.002008
6320,0.020087,5.990551,7.993408,14.743941,-0.668663,0.209693,37.599503,-0.137901,0.193067,0.946648,0.322263,-0.000596,0.001983
6321,0.030674,6.046791,7.951172,13.734847,-0.836535,0.992511,38.023808,-0.173085,0.193636,0.945448,0.325766,-0.000878,0.002090
6322,0.046817,6.117275,7.883097,13.886973,-1.068564,1.450358,38.432858,-0.235469,0.206068,0.944277,0.329140,-0.001348,0.002374
6323,0.050492,6.163479,7.805452,14.613050,-0.969468,1.000282,38.878925,-0.300087,0.216751,0.942987,0.332814,-0.001840,0.002655
6324,0.041911,6.228481,7.753570,14.792961,-0.705481,0.644740,39.352448,-0.338831,0.220431,0.941603,0.336708,-0.002137,0.002807
6325,0.045587,6.315895,7.711136,15.499378,-0.673371,0.534821,39.847904,-0.359763,0.221022,0.940137,0.340776,-0.002294,0.002883
6326,0.044305,6.405718,7.643784,16.740007,-0.703802,-0.154971,40.391006,-0.368883,0.211134,0.938512,0.345228,-0.002385,0.002841
6327,0.031854,6.463728,7.601367,18.281256,-0.720448,-0.646436,40.981766,-0.358177,0.185636,0.936720,0.350061,-0.002361,0.002612
6328,0.036226,6.536024,7.541749,19.935307,-0.846941,-0.522973,41.613159,-0.341845,0.154022,0.934779,0.355216,-0.002311,0.002316
6329,0.051650,6.592042,7.419950,20.275549,-1.062005,-0.712267,42.279224,-0.338417,0.117679,0.932699,0.360643,-0.002384,0.002023
6330,0.056658,6.694616,7.361358,19.926117,-1.139801,-1.011372,42.950214,-0.342146,0.071769,0.930572,0.366097,-0.002549,0.001676
6331,0.065775,6.783786,7.305282,19.987114,-1.261886,-0.758058,43.611240,-0.352712,0.022885,0.928445,0.371458,-0.002784,0.001329
6332,0.064872,6.852047,7.198462,18.776999,-1.388563,-0.878581,44.251175,-0.369526,-0.027396,0.926356,0.376635,-0.003077,0.000993
6333,0.066774,6.940281,7.127917,16.950439,-1.541172,-1.377543,44.844334,-0.380454,-0.088460,0.924394,0.381423,-0.003364,0.000553
6334,0.063137,7.029408,7.118003,16.971666,-2.020310,-1.112033,45.395149,-0.392703,-0.159719,0.922550,0.385860,-0.003699,0.000036
6335,0.056292,7.090770,7.005910,19.031507,-2.793915,-0.445242,45.978313,-0.424145,-0.235086,0.920574,0.390546,-0.004209,-0.000443
6336,0.073210,7.124886,6.893709,20.795425,-3.468343,-0.607021,46.637001,-0.478725,-0.322522,0.918312,0.395826,-0.004951,-0.000931
6337,0.082239,7.180399,6.800956,22.336536,-3.942904,-1.006815,47.348835,-0.543093,-0.431105,0.915832,0.401515,-0.005851,-0.001542
6338,0.075996,7.275466,6.697471,23.273417,-4.283140,-1.144196,48.105915,-0.601583,-0.556589,0.913156,0.407547,-0.006774,-0.002296
6339,0.099597,7.393989,6.587844,23.288809,-4.415843,-1.179352,48.898090,-0.659836,-0.690859,0.910313,0.413838,-0.007737,-0.003105
6340,0.119259,7.464980,6.516216,24.013733,-4.649312,-1.823291,49.700432,-0.720715,-0.838123,0.907387,0.420186,-0.008780,-0.003994
6341,0.104700,7.513787,6.360029,23.769609,-4.218969,-2.822812,50.501446,-0.750537,-1.001217,0.904420,0.426503,-0.009651,-0.005108
6342,0.112153,7.631640,6.265656,20.756012,-3.318590,-2.928203,51.256920,-0.740940,-1.159201,0.901581,0.432443,-0.010205,-0.006324
6343,0.134382,7.705606,6.213108,17.115139,-3.016430,-1.701389,51.888088,-0.741787,-1.289776,0.899178,0.437391,-0.010744,-0.007289
6344,0.132069,7.761231,6.151118,13.512164,-2.871488,-0.791906,52.370831,-0.773292,-1.392364,0.897320,0.441161,-0.011417,-0.007926
6345,0.142377,7.852046,6.111087,7.072360,-1.846093,-0.341713,52.671051,-0.811947,-1.465679,0.896156,0.443498,-0.012024,-0.008319
6346,0.170189,7.946147,6.178492,1.340427,-1.186972,0.468666,52.750706,-0.859313,-1.503786,0.895844,0.444111,-0.012547,-0.008425
6347,0.185188,7.925272,6.181343,-0.724925,-1.037555,0.632122,52.675938,-0.920656,-1.520895,0.896132,0.443516,-0.013088,-0.008330
6348,0.178574,7.891346,6.174313,-2.491457,-0.773682,0.214193,52.508595,-0.972904,-1.534466,0.896777,0.442198,-0.013537,-0.008253
6349,0.181167,7.862578,6.180814,-3.714743,-0.306811,-0.032897,52.292999,-0.999953,-1.544971,0.897606,0.440505,-0.013773,-0.008257
6350,0.180389,7.824735,6.163295,-3.712440,-0.227492,0.019042,52.086903,-1.012279,-1.550691,0.898396,0.438888,-0.013877,-0.008279
6351,0.167911,7.793412,6.195557,-4.218203,-0.338872,-0.055725,51.879921,-1.017030,-1.557179,0.899187,0.437263,-0.013924,-0.008337
6352,0.157946,7.779650,6.219026,-4.069343,-0.453246,0.101377,51.667091,-1.015171,-1.565781,0.899997,0.435591,-0.013927,-0.008438
6353,0.162273,7.765336,6.224079,-2.882814,-0.418058,0.034137,51.480911,-1.011082,-1.574557,0.900703,0.434128,-0.013914,-0.008545
6354,0.162672,7.730302,6.239471,-2.483662,-0.291317,-0.588534,51.321190,-0.997123,-1.588358,0.901307,0.432873,-0.013844,-0.008725
6355,0.163685,7.727177,6.272876,-2.778816,-0.260724,-0.728995,51.162338,-0.974036,-1.608059,0.901905,0.431624,-0.013725,-0.008987
6356,0.165396,7.701590,6.270678,-1.782975,-0.184381,-0.460475,51.021927,-0.956407,-1.625193,0.902432,0.430519,-0.013639,-0.009205
6357,0.163630,7.703160,6.283897,-2.294611,-0.088224,-0.333840,50.904392,-0.945929,-1.636232,0.902872,0.429593,-0.013589,-0.009345
6358,0.169323,7.707345,6.301102,-2.598603,-0.014983,-0.326197,50.786316,-0.939868,-1.643905,0.903314,0.428662,-0.013560,-0.009442
6359,0.163637,7.690385,6.304773,-1.893879,-0.053145,-0.033197,50.683647,-0.938822,-1.648111,0.903697,0.427853,-0.013559,-0.009491
6360,0.157339,7.671283,6.303017,-1.207399,-0.062283,0.020195,50.611500,-0.937302,-1.649402,0.903966,0.427284,-0.013546,-0.009516
6361,0.153157,7.668711,6.296078,-1.167800,-0.079023,-0.191962,50.563782,-0.928895,-1.652912,0.904144,0.426908,-0.013489,-0.009580
6362,0.154424,7.657607,6.302394,-0.491829,0.026313,-0.326301,50.534687,-0.914551,-1.659059,0.904252,0.426680,-0.013396,-0.009686
6363,0.157509,7.649127,6.313194,-0.337784,-0.065219,-0.190520,50.512875,-0.904507,-1.664909,0.904333,0.426508,-0.013337,-0.009772
6364,0.159852,7.661105,6.322126,-0.755980,-0.118632,-0.205770,50.484447,-0.902532,-1.671312,0.904438,0.426284,-0.013342,-0.009833
6365,0.165203,7.659262,6.327048,-0.820141,-0.033215,-0.378156,50.450386,-0.902838,-1.679333,0.904564,0.426014,-0.013372,-0.009899
6366,0.171471,7.665433,6.326906,-1.119247,-0.147731,-0.143075,50.415489,-0.910499,-1.687143,0.904693,0.425736,-0.013458,-0.009936
6367,0.170921,7.658233,6.330647,-1.226045,-0.413327,0.076761,50.378345,-0.930325,-1.695074,0.904830,0.425439,-0.013641,-0.009930
6368,0.167001,7.648721,6.329153,-1.157361,-0.369134,-0.063555,50.340656,-0.948750,-1.705000,0.904969,0.425138,-0.013820,-0.009944
6369,0.170543,7.666789,6.340382,-0.888729,-0.280666,-0.164224,50.314381,-0.958856,-1.715883,0.905065,0.424927,-0.013938,-0.009996
6370,0.167885,7.659003,6.332639,-0.702426,-0.324943,-0.135206,50.303612,-0.965338,-1.727097,0.905104,0.424840,-0.014030,-0.010062
6372,0.159230,7.652032,6.358407,-0.966349,-0.225738,-0.019261,50.282593,-0.965604,-1.735915,0.905181,0.424673,-0.014063,-0.010133
6373,0.170734,7.649710,6.361031,-1.530989,-0.096017,0.011237,50.235943,-0.966102,-1.740041,0.905354,0.424304,-0.014078,-0.010169
6374,0.180165,7.644650,6.377481,-1.885086,-0.031973,0.125740,50.169876,-0.977308,-1.740060,0.905598,0.423780,-0.014161,-0.010136
6375,0.182894,7.621366,6.385779,-2.144661,-0.151072,0.510369,50.084213,-1.000890,-1.735275,0.905915,0.423100,-0.014322,-0.010022
6376,0.188485,7.612767,6.406024,-2.256297,-0.192354,0.788192,49.983822,-1.035903,-1.725271,0.906285,0.422302,-0.014553,-0.009826
6377,0.203211,7.605483,6.389077,-1.844447,-0.178738,0.713565,49.898731,-1.079255,-1.713579,0.906599,0.421624,-0.014846,-0.009585
6378,0.194672,7.595395,6.401237,-1.267681,-0.085752,0.593132,49.843140,-1.115212,-1.702824,0.906803,0.421180,-0.015086,-0.009375
6379,0.197523,7.593786,6.413223,-1.142594,-0.070528,0.536716,49.798405,-1.137399,-1.692572,0.906968,0.420824,-0.015220,-0.009218
6380,0.196046,7.578229,6.406002,-1.035806,-0.004922,0.315469,49.758980,-1.150676,-1.684299,0.907113,0.420511,-0.015292,-0.009109
6381,0.189304,7.576845,6.409498,-1.299787,0.037838,0.036183,49.720455,-1.148975,-1.680103,0.907255,0.420206,-0.015260,-0.009087
6382,0.181020,7.571609,6.432737,-1.351717,0.019615,-0.212646,49.670868,-1.131166,-1.681175,0.907437,0.419816,-0.015119,-0.009168
6383,0.183997,7.591499,6.439734,-1.321240,-0.055059,-0.279899,49.621895,-1.109025,-1.686865,0.907616,0.419431,-0.014960,-0.009300
6384,0.174505,7.601329,6.457012,-0.916824,-0.193822,-0.229657,49.589657,-1.088842,-1.695635,0.907734,0.419178,-0.014830,-0.009448
6385,0.175864,7.598908,6.456560,-0.800780,-0.346316,0.060150,49.569294,-1.075562,-1.704484,0.907808,0.419017,-0.014755,-0.009569
6386,0.183905,7.591139,6.472269,-0.681728,-0.451551,0.243199,49.548046,-1.079065,-1.711395,0.907885,0.418847,-0.014807,-0.009614
6387,0.192902,7.585123,6.469313,-0.468123,-0.566002,0.408005,49.526310,-1.099248,-1.717206,0.907963,0.418671,-0.014986,-0.009589
6388,0.192750,7.581898,6.457750,-0.442145,-0.663682,0.586563,49.515163,-1.128732,-1.722111,0.908003,0.418578,-0.015237,-0.009521
6389,0.192665,7.563848,6.456345,-0.576383,-0.637737,0.499578,49.503136,-1.155727,-1.726947,0.908046,0.418478,-0.015467,-0.009463
6390,0.205454,7.568790,6.462590,-0.307816,-0.430216,0.139465,49.489094,-1.176125,-1.733575,0.908096,0.418362,-0.015652,-0.009443
6391,0.212176,7.571977,6.467284,-0.094174,-0.379899,0.080000,49.483887,-1.194221,-1.741492,0.908114,0.418317,-0.015824,-0.009440
6392,0.210807,7.577986,6.464835,-0.309280,-0.296008,-0.026776,49.482689,-1.207959,-1.749593,0.908117,0.418304,-0.015962,-0.009454
6393,0.221463,7.582356,6.478394,-0.310761,-0.431861,0.099927,49.477573,-1.224314,-1.758129,0.908135,0.418260,-0.016122,-0.009463
6394,0.223936,7.572598,6.457253,-0.026877,-0.740168,0.534897,49.478931,-1.256863,-1.766250,0.908128,0.418264,-0.016410,-0.009408
6395,0.217922,7.567928,6.454865,-0.197675,-1.020975,0.783661,49.487041,-1.298408,-1.774544,0.908097,0.418321,-0.016770,-0.009321
6396,0.222720,7.574317,6.456744,-0.562266,-0.979767,0.776018,49.486153,-1.338158,-1.783268,0.908098,0.418306,-0.017117,-0.009245
6397,0.230987,7.569449,6.470522,-0.641567,-1.045368,0.924016,49.471420,-1.379256,-1.790634,0.908150,0.418181,-0.017468,-0.009155
6398,0.235297,7.541965,6.455843,-0.679752,-1.028565,0.942308,49.445396,-1.422528,-1.796585,0.908242,0.417967,-0.017831,-0.009048
6399,0.250783,7.542595,6.470703,-0.791233,-0.705068,0.717999,49.411274,-1.462478,-1.800298,0.908365,0.417689,-0.018158,-0.008937
6400,0.258561,7.549860,6.489987,-0.937860,-0.375492,0.556284,49.367283,-1.494744,-1.799759,0.908524,0.417334,-0.018408,-0.008822
6401,0.264713,7.550883,6.486241,-1.029519,-0.320586,0.664660,49.322990,-1.522668,-1.795004,0.908684,0.416979,-0.018609,-0.008690
6402,0.275197,7.558569,6.491715,-1.119558,-0.232129,0.640302,49.285995,-1.553232,-1.787776,0.908818,0.416682,-0.018822,-0.008528
6403,0.282842,7.544569,6.516228,-1.119628,-0.171162,0.460326,49.240795,-1.583561,-1.780678,0.908981,0.416319,-0.019034,-0.008368
6404,0.286070,7.530878,6.496436,-1.163985,-0.343664,0.434473,49.191074,-1.612916,-1.777105,0.909160,0.415920,-0.019250,-0.008242
6405,0.295258,7.529800,6.483470,-1.243286,-0.413940,0.379635,49.156097,-1.645471,-1.777926,0.909285,0.415637,-0.019509,-0.008136
6406,0.306274,7.531404,6.499814,-0.709106,-0.349966,0.355349,49.135326,-1.682041,-1.779870,0.909358,0.415465,-0.019805,-0.008022
6407,0.298742,7.509636,6.503222,0.011149,-0.511802,0.582811,49.125687,-1.717780,-1.780551,0.909391,0.415382,-0.020090,-0.007900
6408,0.294909,7.527825,6.501785,0.188182,-0.610999,0.761358,49.131721,-1.748882,-1.780125,0.909367,0.415425,-0.020336,-0.007782
6409,0.293101,7.545423,6.510387,0.374458,-0.328660,0.520207,49.153587,-1.767598,-1.778377,0.909287,0.415595,-0.020479,-0.007697
6410,0.300115,7.552173,6.507727,0.553136,-0.275197,0.665099,49.184891,-1.779267,-1.773561,0.909172,0.415842,-0.020556,-0.007610
6411,0.301524,7.524184,6.512397,0.528750,-0.418587,0.611636,49.205780,-1.794956,-1.768494,0.909096,0.416006,-0.020664,-0.007509
6412,0.311246,7.541642,6.502531,-0.103015,-0.246131,0.240806,49.209526,-1.808515,-1.767493,0.909082,0.416034,-0.020768,-0.007451
6413,0.314904,7.539484,6.483201,-0.136481,0.005645,-0.082692,49.216930,-1.813191,-1.769165,0.909054,0.416091,-0.020812,-0.007446
6414,0.317573,7.535129,6.502419,-0.337830,0.049884,-0.163555,49.217243,-1.811289,-1.771404,0.909053,0.416094,-0.020805,-0.007471
6415,0.301350,7.525131,6.515283,-0.218900,0.179624,-0.493193,49.197754,-1.794745,-1.775335,0.909125,0.415941,-0.020686,-0.007566
6416,0.301469,7.553278,6.495578,-0.376068,0.378070,-0.555844,49.188381,-1.762732,-1.779740,0.909161,0.415872,-0.020448,-0.007719
6417,0.295470,7.530338,6.493474,0.023848,0.339985,-0.406382,49.196110,-1.731580,-1.781584,0.909134,0.415938,-0.020208,-0.007845
6418,0.296968,7.522998,6.488096,-0.073755,0.295776,-0.493412,49.201603,-1.705969,-1.783553,0.909116,0.415986,-0.020012,-0.007953
6419,0.294014,7.535925,6.497652,-0.024877,0.251540,-0.449181,49.205379,-1.685108,-1.787073,0.909103,0.416019,-0.019860,-0.008056
6420,0.303101,7.535357,6.491312,0.088109,-0.029257,-0.018842,49.213932,-1.681088,-1.789585,0.909072,0.416087,-0.019838,-0.008089
6421,0.299595,7.519353,6.475379,0.089721,-0.302459,0.014795,49.226532,-1.694609,-1.794098,0.909025,0.416184,-0.019962,-0.008074
6422,0.308783,7.518510,6.513385,-0.239943,-0.287270,-0.221639,49.217255,-1.710480,-1.803586,0.909057,0.416106,-0.020122,-0.008093
6423,0.312386,7.525685,6.531268,0.028370,-0.294985,0.204206,49.186451,-1.732047,-1.810301,0.909167,0.415857,-0.020315,-0.008073
6424,0.298102,7.527503,6.513773,0.029707,-0.569685,0.562844,49.166611,-1.757411,-1.812220,0.909238,0.415694,-0.020522,-0.008000
6425,0.296337,7.539243,6.499615,-0.255631,-0.543706,0.294238,49.164043,-1.774030,-1.816958,0.909245,0.415670,-0.020671,-0.007977
6426,0.291323,7.521512,6.524509,-0.270921,-0.194187,0.016426,49.152218,-1.772208,-1.822779,0.909288,0.415576,-0.020677,-0.008032
6427,0.284486,7.542130,6.495537,-0.171728,-0.052149,-0.002033,49.145641,-1.753697,-1.825754,0.909313,0.415526,-0.020540,-0.008124
6428,0.286264,7.548762,6.490252,-0.356134,-0.158838,-0.255494,49.162468,-1.730595,-1.832002,0.909253,0.415663,-0.020381,-0.008255
6429,0.306185,7.525781,6.494764,-0.262879,0.128072,-0.583617,49.171642,-1.713658,-1.842121,0.909220,0.415737,-0.020284,-0.008395
6430,0.311766,7.497477,6.492883,-0.084363,0.279074,-0.641526,49.164158,-1.704807,-1.850285,0.909247,0.415678,-0.020243,-0.008493
6431,0.311976,7.518939,6.516093,-0.256909,-0.053672,-0.383529,49.145721,-1.705737,-1.858229,0.909313,0.415530,-0.020277,-0.008556
6432,0.307936,7.511099,6.504349,-0.116620,-0.230765,-0.148434,49.129307,-1.716853,-1.867303,0.909371,0.415396,-0.020397,-0.008591
6433,0.298408,7.503144,6.507931,0.028257,-0.203337,0.007259,49.118553,-1.726541,-1.874031,0.909409,0.415308,-0.020498,-0.008611
6434,0.295243,7.527495,6.486849,0.179375,-0.214008,0.086592,49.127808,-1.730384,-1.878440,0.909375,0.415380,-0.020545,-0.008630
6435,0.298579,7.545141,6.521813,0.182561,-0.136167,0.173542,49.148659,-1.733792,-1.880463,0.909299,0.415544,-0.020581,-0.008630
6436,0.307605,7.525527,6.487800,0.695371,-0.136182,0.384133,49.174168,-1.745981,-1.878149,0.909206,0.415745,-0.020671,-0.008563
6437,0.309929,7.524682,6.493870,0.610018,-0.227784,0.480314,49.206581,-1.768135,-1.873653,0.909088,0.415998,-0.020833,-0.008441
6438,0.309701,7.537040,6.497693,0.335400,-0.250703,0.440674,49.227718,-1.789960,-1.869834,0.909010,0.416163,-0.020994,-0.008327
6439,0.313557,7.536353,6.505477,0.114141,-0.233933,0.468158,49.235085,-1.809311,-1.866058,0.908982,0.416218,-0.021134,-0.008226
6440,0.315407,7.528618,6.492515,0.120214,-0.310240,0.457492,49.235420,-1.828919,-1.862743,0.908980,0.416218,-0.021277,-0.008128
6441,0.315657,7.542604,6.494776,-0.155958,-0.153068,0.161458,49.237068,-1.841350,-1.861928,0.908973,0.416229,-0.021373,-0.008076
6442,0.325016,7.557168,6.488043,-0.392352,-0.082886,0.167569,49.241611,-1.849458,-1.861766,0.908956,0.416263,-0.021437,-0.008045
6443,0.327931,7.539635,6.485847,-0.138906,-0.060038,0.138615,49.248386,-1.860994,-1.860743,0.908930,0.416315,-0.021525,-0.007993
6444,0.322949,7.527610,6.494220,-0.210607,-0.031067,-0.049050,49.244568,-1.866655,-1.860983,0.908944,0.416284,-0.021571,-0.007975
6445,0.318209,7.534718,6.491707,-0.241146,-0.041729,0.036381,49.234760,-1.864119,-1.861965,0.908980,0.416206,-0.021554,-0.007994
6446,0.303669,7.544979,6.500939,-0.343363,-0.207972,0.187351,49.227272,-1.855749,-1.862756,0.909007,0.416148,-0.021490,-0.008032
6447,0.304530,7.541979,6.502408,-0.355551,-0.123927,0.057507,49.217724,-1.842122,-1.864351,0.909043,0.416075,-0.021387,-0.008096
6448,0.311657,7.535094,6.496890,-0.143431,0.130985,-0.020411,49.211212,-1.828576,-1.863919,0.909068,0.416026,-0.021277,-0.008143
6449,0.321366,7.539903,6.509225,-0.392158,0.108112,-0.061629,49.202076,-1.822312,-1.861790,0.909101,0.415955,-0.021219,-0.008151
6450,0.326302,7.525308,6.522363,-0.702033,0.176741,-0.343876,49.171612,-1.820849,-1.862223,0.909212,0.415713,-0.021207,-0.008165
6451,0.326471,7.502689,6.516033,-0.703778,0.283498,-0.247666,49.123997,-1.818934,-1.862094,0.909385,0.415336,-0.021188,-0.008180
6452,0.321544,7.490753,6.503319,-0.479662,0.181212,-0.183511,49.082829,-1.817455,-1.860256,0.909534,0.415010,-0.021167,-0.008178
6453,0.321334,7.502005,6.515459,-1.149663,0.201013,-0.418456,49.042454,-1.812339,-1.861592,0.909680,0.414690,-0.021128,-0.008215
6454,0.317506,7.491353,6.517102,-0.640104,0.242185,-0.249042,49.001579,-1.804040,-1.862956,0.909829,0.414367,-0.021064,-0.008263
6455,0.320135,7.498573,6.527495,-0.495229,0.095667,-0.079625,48.972992,-1.801664,-1.861994,0.909932,0.414140,-0.021040,-0.008270
6456,0.324769,7.492323,6.519641,-0.350302,0.019310,-0.352695,48.955055,-1.805197,-1.865154,0.909997,0.413997,-0.021078,-0.008285
6457,0.319779,7.467182,6.516114,-0.103157,0.184049,-0.517422,48.941658,-1.802497,-1.871931,0.910045,0.413890,-0.021080,-0.008351
6458,0.315671,7.471974,6.513619,0.105823,0.150445,-0.572313,48.934082,-1.791046,-1.879413,0.910072,0.413830,-0.021015,-0.008453
6459,0.304467,7.488895,6.517594,-0.243604,0.171815,-0.775269,48.933155,-1.769397,-1.890154,0.910076,0.413825,-0.020882,-0.008617
6460,0.288990,7.489302,6.518156,-0.127579,0.355000,-0.781460,48.933304,-1.731545,-1.900771,0.910077,0.413831,-0.020620,-0.008838
6461,0.298154,7.513204,6.532967,-0.003903,0.544278,-0.644203,48.939632,-1.692929,-1.905335,0.910056,0.413888,-0.020330,-0.009013
6462,0.299823,7.542659,6.546666,-0.330316,0.503069,-0.595369,48.948994,-1.666830,-1.906185,0.910024,0.413967,-0.020127,-0.009112
6463,0.292270,7.537892,6.551481,-0.144020,0.393179,-0.253542,48.955666,-1.649650,-1.904641,0.910001,0.414023,-0.019986,-0.009161
6464,0.307621,7.524020,6.539380,0.039178,0.208471,0.248566,48.963345,-1.654674,-1.897409,0.909973,0.414085,-0.020000,-0.009084
6465,0.313438,7.522539,6.527800,0.144580,0.014531,0.575279,48.978493,-1.686947,-1.885949,0.909918,0.414201,-0.020216,-0.008874
6466,0.306663,7.513828,6.515406,0.095900,-0.106146,0.694441,48.998486,-1.724729,-1.873694,0.909844,0.414355,-0.020473,-0.008636
6467,0.312545,7.509833,6.527331,0.291299,-0.249668,0.917321,49.013481,-1.762978,-1.860811,0.909788,0.414469,-0.020731,-0.008393
6469,0.318885,7.496552,6.524585,0.518627,-0.303156,1.010497,49.022629,-1.806957,-1.846569,0.909754,0.414536,-0.021029,-0.008119
6470,0.317681,7.506935,6.531649,0.591791,-0.300155,1.068544,49.031796,-1.848552,-1.831158,0.909719,0.414604,-0.021304,-0.007844
6471,0.319121,7.514128,6.524307,0.524611,-0.323048,1.012093,49.045589,-1.882447,-1.816126,0.909667,0.414710,-0.021520,-0.007599
6472,0.321182,7.514154,6.505547,0.509410,-0.280300,0.964760,49.068840,-1.909949,-1.802336,0.909582,0.414892,-0.021690,-0.007386
6473,0.318342,7.510499,6.506588,0.190573,0.052408,0.708335,49.088882,-1.923735,-1.787223,0.909509,0.415052,-0.021746,-0.007212
6474,0.320091,7.520149,6.500331,0.166241,0.343942,0.595318,49.103264,-1.921678,-1.768293,0.909459,0.415170,-0.021662,-0.007067
6475,0.320886,7.502615,6.487011,0.091570,0.533235,0.363282,49.117874,-1.910623,-1.747137,0.909408,0.415292,-0.021498,-0.006936
6476,0.320491,7.501296,6.499419,-0.073210,0.829335,-0.030490,49.119698,-1.888056,-1.726399,0.909404,0.415314,-0.021244,-0.006853
6477,0.320039,7.508962,6.515299,0.178492,0.902638,-0.038183,49.112362,-1.858636,-1.705037,0.909434,0.415265,-0.020933,-0.006792
6478,0.324760,7.532146,6.505811,0.422641,0.692080,0.122017,49.121910,-1.839184,-1.684020,0.909402,0.415348,-0.020703,-0.006694
6479,0.319091,7.532520,6.524987,0.099185,0.524224,-0.219788,49.134430,-1.825147,-1.669888,0.909359,0.415453,-0.020541,-0.006630
6480,0.315799,7.536934,6.532991,0.207463,0.476931,-0.427323,49.132450,-1.804520,-1.664104,0.909368,0.415441,-0.020356,-0.006659
6481,0.316609,7.544939,6.509971,0.361602,0.260247,-0.112981,49.144215,-1.789997,-1.660775,0.909326,0.415538,-0.020230,-0.006684
6482,0.315060,7.515371,6.513386,-0.029018,0.313632,-0.480704,49.151588,-1.779901,-1.660071,0.909300,0.415598,-0.020148,-0.006713
6483,0.314347,7.492123,6.519332,-0.137557,0.385325,-0.682086,49.127026,-1.762897,-1.663260,0.909390,0.415406,-0.020023,-0.006805
6484,0.325601,7.521586,6.507779,-0.189584,0.115160,-0.231843,49.105755,-1.759222,-1.666427,0.909468,0.415237,-0.020004,-0.006847
6485,0.318372,7.526552,6.505346,-0.340598,-0.127565,-0.050142,49.102787,-1.772843,-1.669836,0.909477,0.415210,-0.020124,-0.006825
6486,0.309626,7.492575,6.513581,-0.247556,-0.075730,-0.237774,49.088787,-1.779432,-1.675404,0.909527,0.415097,-0.020196,-0.006848
6487,0.308762,7.510543,6.505812,-0.328507,-0.181025,-0.060757,49.070843,-1.779745,-1.681634,0.909592,0.414954,-0.020220,-0.006899
6488,0.309065,7.535659,6.501661,-0.311594,-0.194761,0.001803,49.074398,-1.783039,-1.687449,0.909578,0.414980,-0.020267,-0.006933
6489,0.304257,7.503268,6.509603,-0.091759,0.099756,-0.352233,49.079178,-1.776936,-1.692826,0.909561,0.415018,-0.020238,-0.006997
6490,0.308607,7.509057,6.526900,-0.113201,0.241686,-0.417864,49.067200,-1.760859,-1.696667,0.909605,0.414925,-0.020124,-0.007088
6491,0.316291,7.528383,6.506629,-0.023154,0.116527,-0.184361,49.066822,-1.754816,-1.698789,0.909607,0.414923,-0.020084,-0.007127
6492,0.307502,7.527831,6.518401,0.073096,0.134795,-0.237724,49.080563,-1.753513,-1.700629,0.909557,0.415032,-0.020081,-0.007144
6493,0.297858,7.522704,6.527396,-0.006239,0.191268,-0.309460,49.083126,-1.740625,-1.702539,0.909549,0.415054,-0.019986,-0.007205
6494,0.305540,7.523942,6.516928,0.120404,0.049370,0.073533,49.084160,-1.732919,-1.702058,0.909545,0.415064,-0.019923,-0.007229
6495,0.304685,7.503184,6.496235,0.231838,0.053923,0.009471,49.094460,-1.736783,-1.699986,0.909508,0.415145,-0.019947,-0.007197
6496,0.301981,7.488775,6.506945,0.143291,0.185136,-0.249916,49.095966,-1.734099,-1.699455,0.909503,0.415158,-0.019924,-0.007202
6497,0.307839,7.492767,6.512585,0.191976,0.172906,-0.086608,49.085556,-1.730418,-1.698134,0.909541,0.415076,-0.019889,-0.007207
6498,0.316692,7.482483,6.515662,0.252823,0.032449,0.096594,49.072075,-1.741116,-1.694807,0.909589,0.414968,-0.019961,-0.007144
6499,0.307263,7.482631,6.512599,0.275511,0.079685,-0.141363,49.058689,-1.751319,-1.693209,0.909637,0.414860,-0.020035,-0.007096
6500,0.298019,7.504828,6.516837,0.109073,0.134622,-0.173405,49.052723,-1.744936,-1.693571,0.909659,0.414814,-0.019986,-0.007123
6501,0.293893,7.506971,6.535315,-0.046673,0.159086,-0.269593,49.042557,-1.728129,-1.694372,0.909697,0.414736,-0.019854,-0.007192
6502,0.292195,7.505329,6.521309,-0.075769,0.200342,-0.260497,49.029171,-1.708508,-1.695298,0.909746,0.414633,-0.019701,-0.007273
6503,0.293007,7.520095,6.516951,-0.116946,0.246156,-0.291058,49.028618,-1.690571,-1.695785,0.909750,0.414631,-0.019561,-0.007342
6504,0.297496,7.523101,6.518592,-0.263332,0.343813,-0.329208,49.033417,-1.676258,-1.695469,0.909733,0.414672,-0.019446,-0.007391
6505,0.302532,7.504125,6.520535,-0.112232,0.310195,-0.152147,49.030880,-1.671128,-1.692610,0.909743,0.414653,-0.019395,-0.007387
6506,0.295239,7.509525,6.513763,-0.029824,0.160600,0.021870,49.029205,-1.673221,-1.688131,0.909749,0.414640,-0.019395,-0.007344
6507,0.297888,7.517372,6.513551,-0.151821,0.027804,0.024966,49.034691,-1.678370,-1.685498,0.909729,0.414683,-0.019427,-0.007304
6508,0.290292,7.505921,6.511150,-0.191421,0.104078,-0.011634,49.036953,-1.680508,-1.683927,0.909721,0.414701,-0.019438,-0.007283
6509,0.284475,7.505669,6.524422,-0.377594,0.165141,-0.136790,49.026360,-1.671392,-1.682130,0.909760,0.414619,-0.019359,-0.007304
6510,0.280805,7.499797,6.527020,-0.521110,0.160617,-0.342848,49.002659,-1.653032,-1.683021,0.909847,0.414434,-0.019215,-0.007381
6511,0.281764,7.506751,6.520031,-0.605068,0.192709,-0.304752,48.980488,-1.633378,-1.685562,0.909928,0.414261,-0.019066,-0.007476
6512,0.269192,7.516562,6.526167,-0.627895,0.435392,-0.587121,48.966858,-1.604830,-1.687621,0.909979,0.414157,-0.018846,-0.007598
6513,0.275483,7.511741,6.535451,-0.525606,0.559047,-0.750461,48.953426,-1.567571,-1.689923,0.910029,0.414056,-0.018558,-0.007753
6514,0.263708,7.498816,6.533340,-0.388280,0.475159,-0.639113,48.937477,-1.532486,-1.692118,0.910089,0.413935,-0.018286,-0.007900
6515,0.264109,7.516662,6.521014,-0.519424,0.391265,-0.550648,48.931767,-1.502466,-1.694509,0.910111,0.413894,-0.018056,-0.008029
6516,0.272723,7.513944,6.524912,-0.499406,0.408016,-0.613180,48.934803,-1.484147,-1.697736,0.910100,0.413921,-0.017922,-0.008120
6517,0.271207,7.485229,6.533748,-0.346775,0.354528,-0.489488,48.924988,-1.475395,-1.700341,0.910136,0.413844,-0.017862,-0.008174
6518,0.263982,7.493949,6.518775,-0.249112,0.131674,-0.356653,48.915493,-1.471032,-1.703508,0.910170,0.413769,-0.017838,-0.008216
6519,0.269888,7.499536,6.519351,-0.187958,0.088873,-0.248232,48.921139,-1.473096,-1.707693,0.910150,0.413812,-0.017870,-0.008241
6520,0.265207,7.494770,6.533135,-0.103962,0.154410,-0.213049,48.924076,-1.477431,-1.709888,0.910139,0.413835,-0.017912,-0.008242
6521,0.255754,7.508280,6.543898,-0.615145,0.033836,-0.022278,48.912312,-1.476848,-1.710106,0.910181,0.413741,-0.017908,-0.008248
6522,0.254291,7.514101,6.548316,-0.863856,-0.132478,0.234063,48.889317,-1.478587,-1.709068,0.910264,0.413558,-0.017916,-0.008237
6523,0.246307,7.494913,6.555687,-1.634489,-0.005783,0.137883,48.843163,-1.477715,-1.706614,0.910431,0.413192,-0.017897,-0.008228
6524,0.245839,7.489236,6.577623,-2.788256,0.075163,0.035570,48.751034,-1.467534,-1.703378,0.910763,0.412462,-0.017798,-0.008253
6525,0.248394,7.474761,6.598068,-4.480736,0.027916,0.069084,48.604607,-1.458985,-1.700308,0.911290,0.411300,-0.017708,-0.008282
6526,0.255111,7.453736,6.618966,-6.363975,0.265978,-0.298675,48.396603,-1.450577,-1.698494,0.912036,0.409647,-0.017620,-0.008330
6527,0.265768,7.459784,6.656380,-9.561007,0.706942,-1.069227,48.107262,-1.428208,-1.700950,0.913068,0.407346,-0.017429,-0.008474
6528,0.254237,7.397856,6.720302,-12.622325,0.784728,-1.470494,47.703495,-1.387077,-1.709965,0.914499,0.404132,-0.017103,-0.008752
6529,0.246927,7.327324,6.756967,-15.042909,0.568030,-1.229361,47.191589,-1.342869,-1.722498,0.916296,0.400048,-0.016754,-0.009083
6530,0.241785,7.252149,6.806094,-16.520477,0.406256,-0.661672,46.613605,-1.314381,-1.730906,0.918303,0.395424,-0.016508,-0.009333
6531,0.229344,7.170011,6.878361,-18.091152,0.163617,-0.090941,45.981903,-1.302719,-1.731406,0.920469,0.390358,-0.016365,-0.009468
6532,0.216275,7.042910,6.963736,-18.436687,-0.216308,0.351568,45.298672,-1.303424,-1.727332,0.922781,0.384863,-0.016300,-0.009530
6533,0.230449,6.990403,7.023041,-18.045206,-0.368880,0.612502,44.615616,-1.320089,-1.721216,0.925058,0.379354,-0.016357,-0.009523
6534,0.232979,6.934390,7.112630,-17.610802,-0.175102,0.206637,43.968033,-1.339700,-1.716545,0.927186,0.374118,-0.016447,-0.009513
6535,0.232899,6.855832,7.197284,-17.623447,0.088878,-0.949996,43.332752,-1.333958,-1.725335,0.929246,0.368972,-0.016375,-0.009694
6536,0.228367,6.781878,7.270037,-17.069963,0.223173,-1.648868,42.708290,-1.299492,-1.752321,0.931242,0.363904,-0.016128,-0.010112
6537,0.225170,6.738629,7.319245,-16.940508,0.323898,-1.949481,42.115108,-1.250835,-1.789817,0.933112,0.359081,-0.015797,-0.010653
6538,0.218117,6.691562,7.399361,-17.952234,0.746581,-2.324859,41.530052,-1.189935,-1.830905,0.934931,0.354317,-0.015372,-0.011257
6539,0.204793,6.626766,7.474343,-19.493395,1.323387,-2.590376,40.909470,-1.109060,-1.869839,0.936835,0.349256,-0.014769,-0.011905
6540,0.191377,6.530805,7.553132,-20.697369,1.765917,-2.576653,40.238110,-1.012135,-1.901727,0.938864,0.343774,-0.014000,-0.012544
6541,0.170900,6.436609,7.620703,-21.866299,2.112323,-2.785721,39.521351,-0.902387,-1.928747,0.940995,0.337909,-0.013100,-0.013177
6542,0.157321,6.333268,7.709990,-23.033739,2.402265,-2.393569,38.761417,-0.787509,-1.948031,0.943215,0.331678,-0.012123,-0.013755
6543,0.131114,6.206357,7.774640,-23.218554,2.522829,-2.063979,37.971279,-0.674907,-1.955083,0.945479,0.325183,-0.011119,-0.014216
6544,0.111420,6.087873,7.862164,-22.967014,2.368745,-1.674891,37.175331,-0.567825,-1.954491,0.947715,0.318625,-0.010132,-0.014586
6545,0.088166,6.016233,7.934091,-22.285065,2.207044,-1.027933,36.405762,-0.473365,-1.944807,0.949833,0.312268,-0.009225,-0.014831
6546,0.090454,5.914502,8.027156,-21.741850,2.202473,-0.441983,35.670067,-0.398583,-1.921440,0.951821,0.306177,-0.008446,-0.014896
6547,0.095102,5.812080,8.097973,-20.592846,2.061990,-0.197763,34.962605,-0.347822,-1.888956,0.953696,0.300305,-0.007846,-0.014810
6548,0.095350,5.691123,8.176466,-19.596495,1.710849,0.257087,34.283958,-0.320614,-1.852126,0.955462,0.294658,-0.007437,-0.014620
6549,0.089328,5.622538,8.221826,-19.161631,1.518380,0.289273,33.635002,-0.308140,-1.814209,0.957120,0.289246,-0.007154,-0.014376
6550,0.091298,5.589211,8.345574,-20.160950,1.568525,0.347399,32.997231,-0.298876,-1.776882,0.958720,0.283918,-0.006904,-0.014127
6551,0.078890,5.492955,8.412573,-22.696838,1.727031,1.043345,32.304790,-0.290137,-1.727541,0.960424,0.278124,-0.006625,-0.013776
6552,0.053180,5.364425,8.460608,-24.260777,1.878011,0.909119,31.536816,-0.267714,-1.668030,0.962273,0.271687,-0.006204,-0.013373
6553,0.040296,5.274861,8.520593,-25.345522,1.968052,0.477274,30.730179,-0.223182,-1.615167,0.964167,0.264915,-0.005612,-0.013075
6554,0.036677,5.133327,8.596292,-24.814291,1.676627,0.524560,29.917261,-0.175682,-1.570223,0.966026,0.258077,-0.005018,-0.012842
6555,0.031391,4.943378,8.591939,-22.774059,1.441638,0.349076,29.131647,-0.137115,-1.532013,0.967776,0.251454,-0.004520,-0.012638
6556,0.020682,4.843503,8.652590,-18.945448,1.205126,-0.535965,28.443474,-0.096130,-1.513524,0.969270,0.245643,-0.004058,-0.012597
6557,0.025589,4.798988,8.732074,-15.838378,0.635937,-0.506962,27.895142,-0.063134,-1.514395,0.970434,0.241006,-0.003720,-0.012693
6558,0.022559,4.718152,8.764502,-13.358283,0.382569,-0.014054,27.459993,-0.052153,-1.514229,0.971342,0.237320,-0.003578,-0.012728
6559,0.021980,4.649416,8.806586,-12.423936,0.808224,-0.000281,27.083311,-0.044109,-1.505348,0.972117,0.234127,-0.003450,-0.012681
6560,0.027249,4.618256,8.863994,-12.305932,0.884416,-0.094835,26.726730,-0.031056,-1.493960,0.972842,0.231103,-0.003277,-0.012621
6561,0.035732,4.574508,8.892929,-12.570862,0.852211,-0.050503,26.376141,-0.023727,-1.483123,0.973546,0.228126,-0.003154,-0.012554
6562,0.024812,4.486923,8.913541,-13.566767,1.422745,-0.106881,25.998137,-0.008648,-1.468641,0.974294,0.224916,-0.002956,-0.012471
6563,0.023219,4.424611,8.978728,-15.066389,1.772045,-0.482191,25.560747,0.026860,-1.454200,0.975146,0.221200,-0.002579,-0.012427
6564,0.007034,4.338829,9.005386,-15.981694,1.532367,-0.555384,25.070768,0.070886,-1.446149,0.976083,0.217033,-0.002135,-0.012453
6565,-0.009535,4.240047,9.021343,-16.971853,1.706276,-0.674383,24.539917,0.122764,-1.442031,0.977076,0.212514,-0.001628,-0.012524
6566,-0.017585,4.124952,9.061593,-17.637133,1.742877,-0.158611,23.965794,0.178291,-1.431042,0.978128,0.207622,-0.001071,-0.012539
6567,-0.017012,4.023491,9.097267,-17.553316,1.318611,0.212215,23.367584,0.217642,-1.409737,0.979200,0.202517,-0.000631,-0.012432
6568,-0.021096,3.929388,9.115729,-17.617500,1.114036,0.241251,22.770786,0.239862,-1.386846,0.980243,0.197417,-0.000337,-0.012277
6569,-0.025225,3.855824,9.176438,-17.983738,1.136816,0.416779,22.175621,0.257238,-1.362253,0.981257,0.192325,-0.000083,-0.012097
6570,-0.025812,3.762530,9.218219,-17.976080,0.656031,0.798309,21.579784,0.263433,-1.332174,0.982246,0.187221,0.000082,-0.011850
6572,-0.033529,3.668724,9.273126,-17.907393,0.622357,0.522159,20.984154,0.262951,-1.303810,0.983209,0.182113,0.000184,-0.011605
6573,-0.041533,3.572622,9.316586,-17.806681,0.822198,0.323810,20.389151,0.273957,-1.282020,0.984143,0.177006,0.000373,-0.011434
6574,-0.042433,3.465429,9.368997,-16.888132,0.842003,0.503882,19.804543,0.291486,-1.259510,0.985035,0.171985,0.000616,-0.011265
6575,-0.032011,3.360562,9.389675,-15.936084,0.980780,0.603095,19.243681,0.304446,-1.231972,0.985867,0.167162,0.000822,-0.011044
6576,-0.035254,3.273294,9.435249,-14.895540,1.485738,0.494797,18.714659,0.322939,-1.201248,0.986631,0.162611,0.001076,-0.010801
6577,-0.041934,3.184206,9.445699,-14.433308,1.670266,0.175916,18.212526,0.356630,-1.173918,0.987335,0.158288,0.001451,-0.010608
6578,-0.055585,3.082455,9.478705,-14.541825,1.841099,-0.123143,17.710257,0.403854,-1.155053,0.988019,0.153963,0.001930,-0.010502
6579,-0.060567,3.007725,9.507469,-14.278061,1.894451,0.087451,17.205776,0.457040,-1.137037,0.988686,0.149616,0.002459,-0.010407
6580,-0.068181,2.923347,9.528496,-13.870831,1.834867,0.021858,16.715836,0.507634,-1.117252,0.989316,0.145391,0.002966,-0.010290
6581,-0.076823,2.823148,9.553276,-13.945852,1.602847,-0.214640,16.224699,0.554491,-1.104249,0.989929,0.141153,0.003430,-0.010223
6582,-0.081729,2.752370,9.581188,-13.204534,1.018327,0.089045,15.741388,0.586724,-1.094442,0.990515,0.136978,0.003764,-0.010162
6583,-0.075734,2.701510,9.598166,-12.307425,0.525311,0.363750,15.301317,0.593241,-1.080343,0.991034,0.133173,0.003876,-0.010033
6584,-0.086721,2.614070,9.606364,-11.948895,0.036866,0.095228,14.890265,0.583396,-1.070474,0.991507,0.129617,0.003838,-0.009922
6585,-0.080671,2.559832,9.622747,-11.881800,-0.576685,-0.046649,14.488114,0.559829,-1.071931,0.991957,0.126134,0.003667,-0.009895
6586,-0.074097,2.492231,9.623868,-11.175273,-0.817933,0.092250,14.106327,0.519802,-1.076814,0.992373,0.122826,0.003348,-0.009883
6587,-0.066074,2.420319,9.637074,-10.902119,-0.744853,-0.374641,13.739809,0.476981,-1.087525,0.992762,0.119648,0.002997,-0.009920
6588,-0.063582,2.358192,9.650158,-10.862453,-0.835034,-0.626381,13.375796,0.438183,-1.109807,0.993137,0.116491,0.002670,-0.010064
6589,-0.055241,2.314741,9.671861,-10.625889,-0.702417,-0.780466,13.022664,0.402771,-1.138348,0.993490,0.113428,0.002366,-0.010268
6590,-0.056697,2.251091,9.677405,-10.380116,-0.533159,-0.696510,12.683078,0.374718,-1.166758,0.993821,0.110482,0.002125,-0.010481
6591,-0.054874,2.199331,9.710576,-10.531089,-0.336396,-0.731587,12.344751,0.356460,-1.192999,0.994141,0.107546,0.001973,-0.010685
6592,-0.051125,2.164076,9.735188,-10.486670,-0.080115,-0.173081,12.012675,0.344490,-1.209031,0.994447,0.104664,0.001886,-0.010807
6593,-0.045616,2.109742,9.756021,-10.120213,0.101381,0.251147,11.695201,0.334562,-1.207471,0.994734,0.101907,0.001831,-0.010780
6594,-0.043521,2.067737,9.751578,-9.636203,0.363738,0.452592,11.398058,0.328315,-1.194177,0.994996,0.099327,0.001816,-0.010654
6595,-0.048130,2.014218,9.783673,-9.172001,0.786337,0.557900,11.119888,0.334426,-1.173656,0.995236,0.096911,0.001912,-0.010476
6596,-0.047895,1.984288,9.797003,-8.735234,0.885454,0.701352,10.860448,0.350064,-1.147471,0.995455,0.094659,0.002093,-0.010257
6597,-0.047704,1.926810,9.798586,-8.728760,0.998288,0.235964,10.610372,0.368630,-1.125990,0.995660,0.092487,0.002294,-0.010081
6598,-0.051438,1.881206,9.794527,-9.225881,1.436138,-0.531558,10.347325,0.399155,-1.123179,0.995869,0.090204,0.002585,-0.010076
6599,-0.061629,1.807557,9.808974,-9.953525,1.649695,-1.033572,10.051999,0.446275,-1.139531,0.996095,0.087641,0.003008,-0.010247
6600,-0.076318,1.739169,9.788503,-10.547036,1.422301,-1.650040,9.718054,0.500855,-1.174717,0.996340,0.084744,0.003487,-0.010584
6601,-0.092501,1.683322,9.801956,-11.746383,1.367383,-2.304664,9.349366,0.559395,-1.231997,0.996600,0.081545,0.003989,-0.011113
6602,-0.100565,1.602215,9.809109,-11.911212,1.419297,-2.327559,8.951199,0.621136,-1.300894,0.996867,0.078090,0.004518,-0.011740
6603,-0.109801,1.530899,9.821519,-11.433702,1.213317,-2.144452,8.550067,0.678041,-1.368025,0.997124,0.074608,0.005010,-0.012346
6604,-0.123759,1.469168,9.853223,-11.288839,1.298796,-2.243643,8.159470,0.733212,-1.434452,0.997362,0.071217,0.005491,-0.012941
6605,-0.138994,1.420164,9.877643,-11.082870,1.826827,-2.489326,7.782413,0.802513,-1.505423,0.997578,0.067946,0.006095,-0.013582
6606,-0.147663,1.341014,9.883213,-10.208533,1.726185,-2.242135,7.424244,0.879245,-1.575823,0.997771,0.064841,0.006766,-0.014219
6607,-0.156415,1.304611,9.877235,-10.026922,1.173841,-2.564111,7.088891,0.941836,-1.649173,0.997943,0.061932,0.007313,-0.014871
6608,-0.162886,1.242358,9.879913,-9.784186,0.726754,-2.612940,6.769588,0.984771,-1.730844,0.998097,0.059162,0.007686,-0.015584
6609,-0.155006,1.183284,9.881882,-9.565895,0.143790,-2.287910,6.455124,1.001913,-1.810156,0.998243,0.056431,0.007839,-0.016262
6610,-0.142019,1.148950,9.879426,-9.764117,-0.375196,-1.920139,6.148047,0.986777,-1.879952,0.998382,0.053758,0.007718,-0.016842
6611,-0.140918,1.084576,9.874293,-10.282746,-0.427299,-2.347371,5.833244,0.956291,-1.951624,0.998518,0.051015,0.007467,-0.017432
6612,-0.144843,0.999705,9.897798,-10.191156,-0.265735,-2.269528,5.494471,0.932037,-2.029151,0.998654,0.048065,0.007274,-0.018076
6613,-0.137870,0.942552,9.894081,-10.000489,-0.214015,-2.191692,5.148601,0.913130,-2.103956,0.998784,0.045052,0.007135,-0.018698
6614,-0.138423,0.903219,9.896212,-10.221740,-0.328616,-2.213040,4.811341,0.893143,-2.177763,0.998902,0.042114,0.006988,-0.019313
6615,-0.131260,0.828527,9.913747,-10.360579,-0.482891,-2.132152,4.469398,0.868179,-2.250914,0.999012,0.039133,0.006803,-0.019922
6616,-0.125147,0.784779,9.932156,-10.255282,-0.214508,-1.204375,4.125954,0.841107,-2.307119,0.999117,0.036137,0.006609,-0.020383
6617,-0.121545,0.758605,9.923967,-10.679304,0.136275,-0.516167,3.796828,0.821833,-2.335399,0.999213,0.033266,0.006491,-0.020605
6618,-0.126600,0.685467,9.930675,-11.864702,0.735818,-0.136197,3.448258,0.820883,-2.344823,0.999308,0.030227,0.006543,-0.020667
6619,-0.137070,0.591949,9.916723,-12.403278,1.564319,0.184253,3.052059,0.850606,-2.341644,0.999405,0.026776,0.006875,-0.020623
6620,-0.152661,0.505254,9.910618,-12.487307,2.073978,0.573363,2.626064,0.910558,-2.326153,0.999496,0.023071,0.007477,-0.020474
6621,-0.171874,0.426303,9.889968,-12.310485,2.003857,0.574883,2.193098,0.985541,-2.304506,0.999574,0.019306,0.008212,-0.020269
6622,-0.185368,0.348868,9.904484,-11.070114,1.811696,0.986875,1.780990,1.059886,-2.276744,0.999636,0.015721,0.008937,-0.020008
6623,-0.194418,0.304571,9.919125,-8.932417,1.360114,1.397343,1.434785,1.121802,-2.235842,0.999681,0.012709,0.009543,-0.019630
6624,-0.192027,0.289709,9.934506,-6.449603,0.725359,1.675063,1.194118,1.158626,-2.183587,0.999711,0.010611,0.009910,-0.019158
6625,-0.190028,0.266593,9.969060,-3.636893,0.340761,1.969577,1.074402,1.168008,-2.121543,0.999731,0.009562,0.010017,-0.018607
6626,-0.185048,0.262148,9.968920,-0.209025,-0.075959,2.262570,1.082285,1.155320,-2.049481,0.999743,0.009623,0.009911,-0.017978
6627,-0.176501,0.274025,9.962902,1.847168,-0.636178,1.788027,1.195726,1.119572,-1.980515,0.999747,0.010601,0.009588,-0.017383
6628,-0.172756,0.296506,9.955326,3.306788,-1.133852,1.163944,1.374529,1.064523,-1.930220,0.999741,0.012149,0.009086,-0.016953
6629,-0.174764,0.320785,9.954390,4.093458,-1.423931,0.504763,1.588310,1.004210,-1.901867,0.999726,0.014003,0.008531,-0.016715
6630,-0.165811,0.367149,9.936007,4.307920,-1.570509,-0.380256,1.819921,0.944349,-1.899671,0.999700,0.016015,0.007975,-0.016705
6631,-0.156732,0.386928,9.926847,3.841770,-1.739961,-1.114211,2.041492,0.881845,-1.924991,0.999668,0.017941,0.007394,-0.016932
6632,-0.163703,0.394084,9.886817,3.701929,-1.721628,-1.468217,2.226427,0.828119,-1.969196,0.999635,0.019549,0.006890,-0.017320
6633,-0.162023,0.444861,9.920952,3.201910,-1.265232,-1.578082,2.394099,0.796237,-2.021108,0.999600,0.021010,0.006577,-0.017777
6634,-0.141118,0.466563,9.938513,3.095624,-1.040819,-1.423959,2.556527,0.771268,-2.071898,0.999562,0.022426,0.006324,-0.018225
6635,-0.137208,0.457236,9.908480,3.062370,-1.115557,-1.126402,2.693343,0.740760,-2.115517,0.999530,0.023616,0.006028,-0.018607
6636,-0.130189,0.493979,9.900929,2.510192,-0.886642,-1.213378,2.808482,0.712314,-2.155763,0.999501,0.024618,0.005752,-0.018958
6637,-0.124150,0.524589,9.935190,1.909291,-0.531089,-1.159967,2.916189,0.691998,-2.196014,0.999472,0.025556,0.005548,-0.019310
6638,-0.116375,0.496250,9.905152,1.685118,-0.547888,-1.022631,2.990860,0.674346,-2.233083,0.999449,0.026206,0.005373,-0.019633
6639,-0.118374,0.498966,9.882575,1.170758,-0.628769,-0.973803,3.024446,0.655710,-2.267503,0.999437,0.026498,0.005197,-0.019930
6640,-0.114762,0.511512,9.902976,0.729626,-0.665376,-0.871568,3.040351,0.637483,-2.299538,0.999428,0.026635,0.005028,-0.020206
6641,-0.108534,0.506837,9.916596,0.607400,-0.788980,-0.664043,3.045647,0.614280,-2.326570,0.999424,0.026678,0.004818,-0.020437
6642,-0.101597,0.493567,9.913982,0.454550,-0.854627,-0.601482,3.034691,0.584458,-2.349395,0.999424,0.026578,0.004555,-0.020628
6643,-0.094406,0.512604,9.920575,0.178131,-0.779913,-0.673200,3.020047,0.552157,-2.372311,0.999424,0.026446,0.004270,-0.020820
6644,-0.090351,0.506680,9.910902,0.304640,-0.575498,-0.689983,3.012264,0.524333,-2.396343,0.999423,0.026374,0.004023,-0.021023
6645,-0.095405,0.508616,9.918880,0.258722,-0.325250,-0.709821,3.005826,0.510154,-2.420576,0.999421,0.026316,0.003895,-0.021231
6646,-0.097032,0.529310,9.937118,0.345670,-0.088670,-0.584699,3.012619,0.511230,-2.442514,0.999415,0.026376,0.003898,-0.021423
6647,-0.092941,0.545042,9.928720,0.768495,0.060932,-0.525190,3.046854,0.518420,-2.460868,0.999403,0.026676,0.003951,-0.021586
6648,-0.098386,0.560105,9.917138,1.192966,0.080830,-0.564865,3.108274,0.528481,-2.478618,0.999385,0.027215,0.004022,-0.021745
6649,-0.106871,0.559297,9.941689,1.612842,-0.033502,-0.538927,3.182123,0.542701,-2.496683,0.999363,0.027862,0.004128,-0.021909
6650,-0.104917,0.587173,9.928163,1.973222,-0.095942,-0.564873,3.270514,0.555162,-2.514882,0.999337,0.028636,0.004215,-0.022074
6651,-0.100744,0.586453,9.913419,2.000953,-0.298817,-0.506889,3.365682,0.557674,-2.532800,0.999310,0.029467,0.004214,-0.022234
6652,-0.100731,0.592515,9.914971,1.688279,-0.484937,-0.459587,3.442520,0.550121,-2.549496,0.999287,0.030136,0.004129,-0.022381
6653,-0.102315,0.585620,9.915200,1.520421,-0.437582,-0.259693,3.495127,0.541313,-2.562393,0.999271,0.030594,0.004039,-0.022493
6654,-0.104752,0.616686,9.920868,0.780347,-0.306266,-0.088795,3.533360,0.538694,-2.568945,0.999259,0.030927,0.004006,-0.022550
6655,-0.092244,0.608236,9.943527,0.124223,-0.271125,0.016491,3.551063,0.534141,-2.570713,0.999254,0.031080,0.003963,-0.022565
6656,-0.089248,0.588296,9.929530,0.061499,-0.138393,0.010387,3.536429,0.524711,-2.570852,0.999259,0.030951,0.003883,-0.022563
6657,-0.082510,0.589393,9.918081,-0.077607,-0.095724,0.132463,3.509048,0.514347,-2.568964,0.999267,0.030710,0.003799,-0.022543
6658,-0.081728,0.597585,9.922414,-0.386009,0.004910,-0.137623,3.483161,0.504390,-2.569304,0.999274,0.030482,0.003717,-0.022543
6659,-0.084068,0.578095,9.937963,-0.346516,0.088783,-0.256643,3.451048,0.500497,-2.575941,0.999282,0.030202,0.003688,-0.022599
6660,-0.098652,0.569764,9.917834,0.182716,-0.074452,-0.072011,3.419202,0.505457,-2.581649,0.999289,0.029925,0.003736,-0.022649
6661,-0.103501,0.589059,9.927823,0.013183,-0.274216,-0.023191,3.405336,0.514350,-2.583733,0.999291,0.029806,0.003816,-0.022669
6662,-0.113288,0.591975,9.938966,0.107773,-0.006989,-0.238357,3.405444,0.530862,-2.588381,0.999290,0.029810,0.003958,-0.022713
6663,-0.102419,0.592315,9.924341,0.431281,-0.084647,0.132433,3.415632,0.547492,-2.590221,0.999286,0.029903,0.004101,-0.022734
6664,-0.086371,0.600312,9.891836,0.332152,-0.424919,0.208729,3.434578,0.539703,-2.584992,0.999282,0.030066,0.004031,-0.022687
6665,-0.077334,0.603352,9.919588,-0.287288,-0.132060,-0.296344,3.444782,0.517508,-2.586918,0.999280,0.030151,0.003834,-0.022698
6666,-0.061572,0.600098,9.927232,-0.168216,-0.017828,-0.342109,3.442652,0.492127,-2.597638,0.999280,0.030128,0.003611,-0.022785
6667,-0.030081,0.582681,9.930255,-0.101133,-0.836125,0.231663,3.431723,0.433879,-2.600378,0.999285,0.030021,0.003104,-0.022794
6668,-0.037143,0.552662,9.917062,-0.469153,-1.509506,0.138605,3.392313,0.345126,-2.596757,0.999299,0.029660,0.002339,-0.022738
6669,-0.056187,0.563504,9.905002,-0.477098,-1.566165,-0.047547,3.341861,0.271842,-2.598464,0.999313,0.029205,0.001709,-0.022733
6670,-0.066232,0.584339,9.899348,-0.291019,-1.465379,0.321721,3.319903,0.229404,-2.596896,0.999320,0.029005,0.001344,-0.022709
6671,-0.082668,0.576925,9.916299,-0.187217,-0.810459,0.336964,3.316191,0.223741,-2.588120,0.999323,0.028972,0.001298,-0.022631
6672,-0.090553,0.584970,9.923367,-0.141384,0.128439,0.094315,3.316902,0.261991,-2.581578,0.999323,0.028985,0.001633,-0.022583
6673,-0.076606,0.593827,9.937096,0.124260,0.868910,0.233152,3.331351,0.322002,-2.575095,0.999319,0.029123,0.002155,-0.022542
6675,-0.056358,0.581329,9.958941,0.069421,1.093371,0.346063,3.344943,0.370643,-2.563497,0.999317,0.029251,0.002579,-0.022454
6676,-0.042469,0.555476,9.934913,0.195960,0.742305,0.364379,3.337041,0.389091,-2.549975,0.999321,0.029185,0.002745,-0.022340
6677,-0.043234,0.575769,9.926296,-0.130723,0.117979,0.257577,3.323340,0.378415,-2.538887,0.999327,0.029063,0.002658,-0.022240
6678,-0.060047,0.582806,9.946942,-0.380964,-0.297216,0.169081,3.316003,0.359154,-2.531950,0.999330,0.028996,0.002493,-0.022175
6679,-0.068534,0.588239,9.948342,-0.660127,-0.544414,0.027171,3.307631,0.345120,-2.529438,0.999334,0.028920,0.002373,-0.022149
6680,-0.077192,0.581671,9.914219,-0.524222,-0.403917,-0.036924,3.298702,0.341732,-2.530445,0.999336,0.028841,0.002345,-0.022157
6681,-0.072267,0.587424,9.924779,-0.626342,-0.126053,-0.062873,3.292220,0.349045,-2.532540,0.999337,0.028786,0.002409,-0.022177
6682,-0.067766,0.562510,9.928052,-0.255511,0.087673,0.178219,3.281124,0.358942,-2.530638,0.999340,0.028691,0.002498,-0.022163
6683,-0.070537,0.556221,9.901265,0.063311,0.464651,0.010362,3.267385,0.376202,-2.527042,0.999343,0.028575,0.002652,-0.022135
6684,-0.065077,0.565137,9.930264,0.304345,0.487579,0.121751,3.266569,0.396253,-2.523983,0.999343,0.028571,0.002828,-0.022114
6685,-0.052648,0.573195,9.950474,0.658376,0.017515,0.379638,3.284521,0.395478,-2.515146,0.999340,0.028728,0.002820,-0.022037
6686,-0.059240,0.580524,9.934551,0.771370,-0.202341,0.252994,3.316674,0.378227,-2.504746,0.999335,0.029004,0.002666,-0.021943
6687,-0.066915,0.572866,9.925392,0.609661,-0.222217,-0.004885,3.343965,0.366614,-2.501003,0.999329,0.029240,0.002560,-0.021908
6688,-0.066603,0.584281,9.925853,0.423507,-0.469396,-0.015568,3.362227,0.357379,-2.502010,0.999324,0.029398,0.002476,-0.021914
6689,-0.077288,0.587899,9.906250,0.202297,-0.135131,-0.342121,3.378018,0.357390,-2.508518,0.999319,0.029536,0.002472,-0.021971
6690,-0.083915,0.562766,9.925468,-0.130437,0.322826,-0.558814,3.370064,0.381111,-2.523380,0.999318,0.029471,0.002676,-0.022107
6691,-0.075926,0.571953,9.919206,-0.139762,0.290934,-0.630542,3.346834,0.409254,-2.542696,0.999319,0.029274,0.002921,-0.022282
6692,-0.060014,0.596313,9.914015,-0.219089,0.330603,-0.642749,3.343024,0.420254,-2.563260,0.999315,0.029244,0.003013,-0.022464
6693,-0.055738,0.584161,9.929063,-0.351745,0.357935,-0.642740,3.344294,0.418090,-2.583900,0.999311,0.029255,0.002988,-0.022644
6694,-0.057427,0.572057,9.950510,-0.154925,-0.209865,-0.392480,3.332980,0.404403,-2.601000,0.999311,0.029154,0.002867,-0.022789
6695,-0.051153,0.597700,9.938875,0.135046,-0.773096,-0.119329,3.337585,0.370392,-2.610434,0.999309,0.029188,0.002567,-0.022863
6696,-0.057707,0.588368,9.936971,0.223682,-0.941072,0.117197,3.358171,0.328281,-2.612044,0.999305,0.029359,0.002195,-0.022866
6697,-0.065637,0.579672,9.929978,0.350362,-1.040247,0.103463,3.370835,0.296159,-2.610290,0.999303,0.029463,0.001913,-0.022843
6698,-0.066959,0.587567,9.930779,0.452597,-0.855494,0.115663,3.384036,0.277170,-2.608505,0.999300,0.029574,0.001745,-0.022823
6699,-0.056628,0.578446,9.912792,0.791328,-0.409809,-0.036935,3.402090,0.268788,-2.608453,0.999296,0.029730,0.001668,-0.022821
6700,-0.057939,0.579399,9.902764,0.928580,0.061798,-0.267357,3.421746,0.273882,-2.613900,0.999290,0.029903,0.001707,-0.022870
6701,-0.048453,0.582059,9.941611,1.096328,0.087798,-0.200220,3.444032,0.283322,-2.621582,0.999282,0.030099,0.001783,-0.022939
6702,-0.035162,0.583361,9.958479,1.129764,-0.179302,-0.365016,3.466187,0.275357,-2.631150,0.999275,0.030291,0.001707,-0.023021
6703,-0.035182,0.583311,9.951368,1.201312,-0.835579,-0.513025,3.486352,0.245197,-2.646878,0.999267,0.030461,0.001436,-0.023151
6704,-0.035330,0.607884,9.937210,0.722091,-1.647467,-0.496234,3.509411,0.194374,-2.666240,0.999258,0.030652,0.000983,-0.023306
6705,-0.029811,0.617174,9.918972,0.322352,-1.874883,-0.676290,3.532734,0.131077,-2.689332,0.999248,0.030842,0.000420,-0.023491
6706,-0.029426,0.622254,9.894987,0.012687,-1.545269,-0.766321,3.548960,0.077177,-2.716819,0.999239,0.030973,-0.000061,-0.023716
6707,-0.033817,0.628563,9.876938,-0.051270,-1.154502,-0.554225,3.562774,0.048076,-2.741549,0.999230,0.031087,-0.000324,-0.023924
6708,-0.023147,0.641769,9.872161,-0.244855,-0.438672,-0.480991,3.580654,0.041403,-2.760395,0.999222,0.031242,-0.000391,-0.024086
6709,-0.014294,0.645067,9.887136,-0.194242,0.423581,-0.433693,3.601636,0.053771,-2.775599,0.999212,0.031427,-0.000292,-0.024222
6710,-0.014800,0.637097,9.914138,-0.120808,1.084367,-0.296364,3.617219,0.086296,-2.786143,0.999206,0.031570,-0.000015,-0.024323
6711,-0.019112,0.632275,9.935761,-0.145141,1.302621,-0.371136,3.621861,0.131770,-2.794725,0.999202,0.031620,0.000378,-0.024410
6712,-0.020570,0.624225,9.953829,-0.013919,0.991340,-0.265848,3.618321,0.171522,-2.802911,0.999200,0.031598,0.000723,-0.024493
6713,-0.020210,0.619262,9.958787,0.086715,0.329031,-0.091889,3.610946,0.187528,-2.807498,0.999201,0.031537,0.000863,-0.024537
6714,-0.024228,0.602801,9.945618,0.234560,-0.174610,-0.024744,3.597721,0.180715,-2.809333,0.999204,0.031420,0.000806,-0.024551
6715,-0.032325,0.599036,9.928489,0.255683,-0.890305,0.077495,3.579541,0.159030,-2.809651,0.999210,0.031257,0.000621,-0.024548
6716,-0.036535,0.612255,9.916211,0.189910,-1.343457,0.040869,3.569423,0.126989,-2.810057,0.999213,0.031162,0.000344,-0.024543
6717,-0.038669,0.634337,9.900817,0.177744,-1.170905,-0.085790,3.580131,0.098778,-2.813410,0.999210,0.031249,0.000094,-0.024564
6718,-0.030114,0.631530,9.891941,0.220610,-0.798436,-0.104110,3.602280,0.081950,-2.818591,0.999203,0.031439,-0.000058,-0.024605
6719,-0.028508,0.633908,9.894736,0.060502,-0.302379,-0.186518,3.619443,0.078435,-2.824556,0.999197,0.031588,-0.000094,-0.024656
6720,-0.016609,0.658335,9.910561,-0.157502,0.106652,-0.329960,3.640214,0.084906,-2.833320,0.999189,0.031770,-0.000045,-0.024734
6721,-0.005799,0.655582,9.903292,-0.051940,0.269898,-0.268920,3.666789,0.088684,-2.842838,0.999180,0.032003,-0.000020,-0.024818
6722,-0.011919,0.626803,9.898548,-0.169349,0.358343,-0.241450,3.672590,0.093145,-2.850645,0.999176,0.032054,0.000015,-0.024887
6723,-0.019841,0.628970,9.914186,-0.395258,0.556714,-0.294857,3.655278,0.109069,-2.858603,0.999179,0.031907,0.000156,-0.024961
6724,-0.016356,0.636142,9.931946,-0.457848,0.521623,-0.302488,3.638016,0.128223,-2.867401,0.999182,0.031760,0.000324,-0.025043
6725,-0.019022,0.605588,9.913531,-0.116152,0.381210,-0.201775,3.616257,0.140711,-2.874863,0.999186,0.031573,0.000435,-0.025112
6726,-0.024985,0.606617,9.927400,-0.110266,0.121790,-0.119375,3.588466,0.148014,-2.879733,0.999192,0.031333,0.000504,-0.025156
6727,-0.015766,0.613792,9.946589,-0.191288,-0.099514,-0.146839,3.567222,0.143698,-2.884179,0.999197,0.031147,0.000470,-0.025193
6728,-0.022857,0.621121,9.931983,0.036038,-0.307098,-0.131576,3.560402,0.130855,-2.889241,0.999198,0.031084,0.000358,-0.025234
6729,-0.027394,0.604728,9.930131,0.046666,-0.426108,-0.163622,3.555879,0.120322,-2.894923,0.999198,0.031043,0.000265,-0.025281
6730,-0.034183,0.612902,9.952885,-0.604995,-0.537415,-0.418457,3.536695,0.114336,-2.905622,0.999201,0.030874,0.000215,-0.025372
6731,-0.029352,0.625689,9.920406,-0.452369,-0.509839,-0.569530,3.522722,0.109931,-2.923129,0.999201,0.030751,0.000175,-0.025524
6732,-0.018377,0.633088,9.899742,0.026946,-0.294641,-0.326910,3.534722,0.102150,-2.938830,0.999195,0.030854,0.000100,-0.025659
6733,-0.009525,0.612864,9.912844,-0.032449,-0.117676,-0.368107,3.547394,0.091334,-2.950793,0.999189,0.030962,-0.000001,-0.025760
6734,-0.008342,0.622834,9.903925,0.323136,-0.133011,-0.233822,3.557189,0.079500,-2.961058,0.999184,0.031045,-0.000109,-0.025846
6735,-0.000965,0.617453,9.896238,0.930507,-0.099537,0.114096,3.583954,0.065023,-2.963284,0.999176,0.031275,-0.000242,-0.025862
6736,-0.007112,0.595737,9.903407,0.962446,0.103329,0.194975,3.603733,0.055792,-2.958158,0.999172,0.031445,-0.000325,-0.025814
6737,-0.023127,0.616853,9.921384,0.499934,0.066752,0.022542,3.610924,0.063303,-2.954381,0.999171,0.031510,-0.000260,-0.025784
6738,-0.018960,0.619084,9.912658,0.539539,0.036336,0.117143,3.620624,0.076199,-2.951955,0.999169,0.031597,-0.000149,-0.025766
6739,-0.014064,0.627334,9.914173,0.284678,0.086734,0.185807,3.630958,0.082601,-2.946789,0.999167,0.031689,-0.000094,-0.025723
6740,-0.017236,0.633717,9.920247,0.127528,0.178307,0.074414,3.640055,0.088720,-2.942177,0.999165,0.031770,-0.000042,-0.025684
6741,-0.019877,0.628641,9.934189,-0.197490,0.126461,-0.087337,3.639349,0.097693,-2.942069,0.999165,0.031765,0.000037,-0.025686
6742,-0.013928,0.614385,9.943127,-0.289148,0.034912,-0.043086,3.619987,0.101258,-2.944087,0.999170,0.031597,0.000072,-0.025704
6743,-0.019983,0.641520,9.928734,-0.280014,0.062376,-0.007989,3.608057,0.102584,-2.944839,0.999173,0.031494,0.000086,-0.025711
6744,-0.029713,0.633428,9.929781,-0.344005,0.164681,-0.047667,3.608548,0.113966,-2.945507,0.999173,0.031500,0.000185,-0.025720
6745,-0.030424,0.633121,9.920973,-0.417178,0.025930,-0.012577,3.603638,0.129107,-2.946295,0.999174,0.031461,0.000317,-0.025731
6746,-0.025516,0.635415,9.936239,-0.443038,0.039729,0.083552,3.598316,0.137377,-2.945027,0.999175,0.031416,0.000391,-0.025722
6747,-0.029248,0.627086,9.920164,-0.195775,0.128274,0.022512,3.594469,0.144547,-2.943072,0.999177,0.031385,0.000455,-0.025707
6748,-0.027044,0.611675,9.923856,-0.302631,-0.100580,0.022510,3.581702,0.148857,-2.942306,0.999180,0.031274,0.000496,-0.025702
6749,-0.026770,0.608484,9.916036,-0.325634,-0.208907,-0.081254,3.558612,0.145313,-2.943638,0.999186,0.031072,0.000470,-0.025712
6750,-0.027211,0.610711,9.919637,-0.162448,-0.074611,-0.037003,3.540771,0.142285,-2.945923,0.999191,0.030916,0.000447,-0.025731
6751,-0.021513,0.616162,9.901050,0.153405,-0.031890,0.045397,3.539216,0.139912,-2.945897,0.999191,0.030902,0.000426,-0.025730
6752,-0.022488,0.626902,9.908478,-0.142540,-0.050224,0.034717,3.548684,0.135881,-2.944627,0.999189,0.030983,0.000389,-0.025718
6753,-0.024338,0.620650,9.918461,-0.095141,0.050482,-0.003431,3.555079,0.135331,-2.944081,0.999187,0.031039,0.000383,-0.025713
6754,-0.024370,0.618816,9.922562,-0.017281,0.169512,-0.003431,3.557374,0.139873,-2.943958,0.999187,0.031060,0.000422,-0.025714
6755,-0.018404,0.638594,9.938771,-0.186549,0.218318,-0.029371,3.566123,0.143711,-2.944072,0.999184,0.031137,0.000454,-0.025716
6756,-0.024678,0.623640,9.931101,-0.267301,0.315947,-0.154495,3.571948,0.149525,-2.946544,0.999182,0.031189,0.000502,-0.025739
6757,-0.024166,0.606759,9.928740,-0.070497,0.367818,-0.168227,3.561930,0.160138,-2.951216,0.999183,0.031104,0.000596,-0.025782
6758,-0.027819,0.611918,9.927577,-0.137728,0.268625,-0.185012,3.548393,0.170153,-2.956461,0.999186,0.030989,0.000685,-0.025831
6759,-0.037007,0.617676,9.927277,-0.270503,0.320542,-0.284199,3.539475,0.184391,-2.963665,0.999186,0.030914,0.000809,-0.025897
6760,-0.042355,0.593452,9.922777,-0.230917,0.370983,-0.311672,3.521472,0.205926,-2.972900,0.999188,0.030762,0.000999,-0.025983
6761,-0.035085,0.604648,9.923004,-0.212731,0.267267,-0.090416,3.500178,0.222088,-2.978987,0.999192,0.030580,0.001143,-0.026041
6762,-0.032752,0.599984,9.915224,-0.315029,0.314540,-0.108726,3.484782,0.228587,-2.981733,0.999196,0.030447,0.001202,-0.026066
6763,-0.039187,0.604582,9.907866,-0.301320,0.544924,-0.169761,3.471721,0.239906,-2.985507,0.999198,0.030336,0.001303,-0.026102
6764,-0.032964,0.619561,9.936262,-0.420256,0.393815,0.002672,3.469161,0.250871,-2.987300,0.999198,0.030316,0.001399,-0.026120
6765,-0.038772,0.614563,9.919539,-0.259890,0.474624,0.005729,3.473625,0.258202,-2.986216,0.999197,0.030357,0.001462,-0.026113
6766,-0.045495,0.610567,9.915691,-0.325400,0.549375,-0.050729,3.475423,0.273159,-2.985879,0.999196,0.030376,0.001592,-0.026114
6767,-0.049504,0.619013,9.919575,-0.404627,0.593641,-0.029366,3.476579,0.293759,-2.985995,0.999195,0.030391,0.001771,-0.026120
6768,-0.050808,0.605804,9.931753,-0.369440,0.662317,-0.024789,3.473702,0.315718,-2.985578,0.999195,0.030370,0.001963,-0.026123
6769,-0.050995,0.588897,9.893830,-0.113129,0.640935,0.028620,3.460769,0.335367,-2.984228,0.999198,0.030262,0.002138,-0.026116
6770,-0.050698,0.584079,9.903126,-0.276531,0.636304,0.001155,3.440279,0.350767,-2.982531,0.999204,0.030087,0.002277,-0.026105
6771,-0.066322,0.589003,9.901023,-0.211017,0.753792,-0.137704,3.421034,0.373093,-2.983480,0.999208,0.029924,0.002476,-0.026118
6772,-0.078430,0.588544,9.918639,-0.146979,0.740152,-0.059888,3.409459,0.408366,-2.985321,0.999209,0.029831,0.002786,-0.026143
6773,-0.086271,0.592466,9.935237,-0.172938,0.631950,-0.024800,3.402106,0.446624,-2.985386,0.999210,0.029776,0.003121,-0.026153
6774,-0.099060,0.603244,9.930281,-0.107258,0.571090,-0.050750,3.404533,0.486159,-2.985398,0.999207,0.029806,0.003465,-0.026164
6775,-0.108342,0.612512,9.916112,0.069919,0.809353,0.027061,3.422648,0.533211,-2.984262,0.999201,0.029974,0.003872,-0.026167
6776,-0.098753,0.613157,9.932552,0.073171,0.992609,0.216269,3.447086,0.578894,-2.978211,0.999193,0.030198,0.004266,-0.026127
6778,-0.112903,0.606938,9.930622,-0.006044,1.023216,0.051465,3.462957,0.621935,-2.971588,0.999188,0.030345,0.004640,-0.026081
6779,-0.131064,0.598647,9.926215,-0.051788,1.211075,-0.008057,3.465577,0.677802,-2.968580,0.999185,0.030381,0.005127,-0.026069
6780,-0.131749,0.595323,9.935610,-0.120496,1.374526,-0.090469,3.458293,0.740507,-2.967670,0.999184,0.030331,0.005676,-0.026078
6781,-0.132477,0.583870,9.930683,-0.074826,1.276953,-0.079793,3.443109,0.794233,-2.967997,0.999184,0.030211,0.006147,-0.026094
6782,-0.138718,0.583811,9.888635,-0.198557,1.447881,-0.333100,3.424023,0.842776,-2.972341,0.999185,0.030056,0.006574,-0.026143
6783,-0.129915,0.590945,9.886248,-0.345103,1.826242,-0.148460,3.408691,0.890102,-2.977187,0.999184,0.029933,0.006989,-0.026197
6784,-0.123638,0.603066,9.905131,-0.462540,1.751250,-0.021794,3.401854,0.925267,-2.976371,0.999183,0.029881,0.007297,-0.026198
6785,-0.135610,0.602776,9.946970,-0.644006,1.477841,-0.032457,3.396410,0.949537,-2.973873,0.999184,0.029839,0.007511,-0.026182
6786,-0.143116,0.612034,9.977059,-0.836123,0.960323,0.043855,3.388278,0.964895,-2.971005,0.999185,0.029771,0.007647,-0.026161
6787,-0.161561,0.584515,10.003661,-0.727724,0.081249,0.341419,3.368726,0.966220,-2.963462,0.999192,0.029601,0.007665,-0.026094
6788,-0.158936,0.562838,9.975080,-0.338767,-0.947305,0.509273,3.334347,0.942177,-2.950430,0.999205,0.029295,0.007467,-0.025972
6789,-0.140874,0.546608,9.917363,-0.155920,-1.667696,0.597782,3.297123,0.880694,-2.935009,0.999223,0.028955,0.006943,-0.025820
6790,-0.139437,0.534382,9.878615,-0.189808,-1.771628,0.545906,3.256727,0.803788,-2.919796,0.999242,0.028585,0.006285,-0.025666
6791,-0.139887,0.538520,9.872332,-0.376250,-1.721327,0.304808,3.216716,0.738780,-2.909374,0.999259,0.028221,0.005730,-0.025557
6792,-0.127136,0.558681,9.891555,-0.577771,-1.487859,0.197992,3.190022,0.685206,-2.904149,0.999269,0.027977,0.005270,-0.025497
6793,-0.137520,0.556960,9.907157,-0.820357,-0.778215,-0.117879,3.170707,0.657069,-2.904866,0.999276,0.027802,0.005029,-0.025495
6794,-0.152599,0.547069,9.915341,-0.869174,0.053690,-0.423079,3.143806,0.675953,-2.914525,0.999279,0.027572,0.005197,-0.025583
6795,-0.134045,0.542639,9.947260,-0.768490,0.458326,-0.291865,3.113257,0.714299,-2.926009,0.999281,0.027315,0.005536,-0.025691
6796,-0.124209,0.535077,9.937334,-0.467927,0.536228,-0.096551,3.087770,0.739975,-2.931643,0.999285,0.027098,0.005764,-0.025745
6797,-0.124867,0.522782,9.928313,-0.466488,0.322582,-0.203366,3.062540,0.752737,-2.935989,0.999289,0.026881,0.005880,-0.025784
6798,-0.119152,0.528804,9.925029,-0.475716,0.113458,-0.284237,3.038823,0.752515,-2.943819,0.999293,0.026675,0.005881,-0.025851
6799,-0.120531,0.526149,9.931999,-0.544398,-0.168941,-0.177417,3.019967,0.740623,-2.951571,0.999296,0.026508,0.005780,-0.025915
6800,-0.132579,0.538144,9.915726,-0.648095,-0.352081,-0.221667,3.007346,0.729192,-2.958574,0.999298,0.026396,0.005682,-0.025973
6801,-0.132872,0.514007,9.926743,-0.626695,-0.194860,-0.291862,2.989955,0.726123,-2.967548,0.999300,0.026244,0.005657,-0.026050
6802,-0.131220,0.503242,9.913784,-0.411645,-0.103248,-0.181999,2.960883,0.727794,-2.975844,0.999305,0.025991,0.005676,-0.026121
6803,-0.116324,0.505069,9.901156,-0.361394,-0.239075,-0.244562,2.936475,0.720231,-2.983383,0.999309,0.025777,0.005614,-0.026184
6804,-0.101137,0.527512,9.923913,-0.437636,-0.109533,-0.209457,2.929071,0.697151,-2.991162,0.999310,0.025708,0.005413,-0.026246
6805,-0.110996,0.517108,9.910865,-0.316950,-0.207353,-0.050750,2.931467,0.674358,-2.995576,0.999310,0.025724,0.005212,-0.026280
6806,-0.127838,0.529184,9.902939,-0.293908,-0.280590,-0.066009,2.938219,0.667053,-2.997735,0.999308,0.025781,0.005147,-0.026297
6807,-0.110586,0.536917,9.947097,-0.263157,0.107023,0.037756,2.954483,0.667228,-2.998054,0.999305,0.025923,0.005144,-0.026301
6808,-0.104594,0.523740,9.960491,-0.006629,0.216808,0.281911,2.969019,0.663410,-2.992235,0.999303,0.026049,0.005109,-0.026250
6809,-0.122282,0.514360,9.914884,0.033091,-0.245567,0.167467,2.974693,0.660327,-2.984721,0.999304,0.026097,0.005083,-0.026184
6810,-0.129299,0.529457,9.912793,-0.078232,-0.514024,0.024026,2.981609,0.659267,-2.982102,0.999303,0.026157,0.005072,-0.026161
6811,-0.125435,0.527899,9.912384,0.051597,-0.471172,0.188820,2.994902,0.656491,-2.979255,0.999300,0.026272,0.005046,-0.026136
6812,-0.139209,0.517691,9.904808,0.083695,-0.249736,0.062160,3.003057,0.663739,-2.975636,0.999299,0.026345,0.005108,-0.026107
6813,-0.139515,0.499801,9.910387,0.068336,-0.080118,-0.044669,2.994690,0.684763,-2.975759,0.999300,0.026276,0.005293,-0.026112
6814,-0.120682,0.499921,9.909403,0.178018,0.171788,-0.232366,2.978338,0.700634,-2.980535,0.999301,0.026138,0.005434,-0.026157
6815,-0.102245,0.482250,9.894715,-0.003813,0.478418,-0.565017,2.954075,0.703234,-2.993574,0.999304,0.025927,0.005459,-0.026270
6816,-0.102871,0.486123,9.901202,-0.718222,0.502652,-0.993797,2.911363,0.700911,-3.019046,0.999308,0.025555,0.005443,-0.026489
6817,-0.116173,0.495925,9.908168,-1.138009,0.421661,-1.279140,2.862624,0.705494,-3.056307,0.999309,0.025133,0.005486,-0.026813
6818,-0.134306,0.508774,9.914557,-1.257006,0.395754,-1.273038,2.824842,0.724842,-3.098083,0.999307,0.024810,0.005655,-0.027180
6819,-0.149095,0.496553,9.938539,-1.456811,0.243330,-1.042630,2.789238,0.755994,-3.135994,0.999303,0.024509,0.005927,-0.027515
6820,-0.151652,0.494733,9.951752,-1.349919,0.347301,-0.958713,2.750466,0.790311,-3.168745,0.999301,0.024181,0.006229,-0.027806
6821,-0.148296,0.483700,9.945813,-1.134688,0.489361,-0.792393,2.716960,0.822030,-3.197134,0.999299,0.023898,0.006507,-0.028058
6822,-0.148145,0.481665,9.937144,-1.186493,0.408565,-0.587922,2.686373,0.846680,-3.219297,0.999299,0.023638,0.006725,-0.028255
6823,-0.147782,0.485137,9.933408,-1.236709,0.552032,-0.507047,2.661100,0.866799,-3.236559,0.999298,0.023424,0.006903,-0.028408
6824,-0.147299,0.471795,9.938026,-1.068719,0.738184,-0.235430,2.637772,0.887574,-3.247701,0.999299,0.023226,0.007088,-0.028508
6825,-0.152351,0.467489,9.952165,-0.993859,0.469596,0.059077,2.613313,0.905058,-3.249562,0.999302,0.023017,0.007246,-0.028526
6826,-0.144826,0.459553,9.944969,-0.635196,0.246742,0.208621,2.593946,0.909161,-3.244440,0.999307,0.022849,0.007288,-0.028481
6827,-0.130977,0.448630,9.925845,-0.351352,0.141265,0.353593,2.580074,0.894523,-3.234744,0.999313,0.022724,0.007166,-0.028392
6828,-0.131235,0.434937,9.932379,-0.421609,-0.182474,0.532136,2.560199,0.866392,-3.220131,0.999322,0.022543,0.006928,-0.028258
6829,-0.125450,0.445377,9.928242,-0.464389,-0.577924,0.423805,2.539759,0.827224,-3.204859,0.999333,0.022354,0.006595,-0.028116
6830,-0.123870,0.425110,9.921450,-0.618573,-0.594922,0.231547,2.514707,0.783769,-3.194903,0.999343,0.022125,0.006224,-0.028020
6831,-0.128926,0.423696,9.932929,-0.870483,-0.553849,0.182721,2.475444,0.750281,-3.189031,0.999354,0.021774,0.005942,-0.027960
6832,-0.138097,0.419100,9.916265,-0.704263,-0.825459,0.326156,2.437604,0.727507,-3.181695,0.999365,0.021438,0.005754,-0.027890
6833,-0.128033,0.427905,9.916306,-0.844667,-1.042092,0.147621,2.409848,0.701428,-3.175153,0.999373,0.021189,0.005535,-0.027827
6834,-0.125341,0.421516,9.944447,-0.792742,-0.909310,-0.044647,2.387197,0.671757,-3.174744,0.999379,0.020985,0.005282,-0.027817
6835,-0.123554,0.409071,9.940652,-0.070991,-1.115260,0.141514,2.371573,0.643457,-3.174547,0.999383,0.020842,0.005039,-0.027809
6836,-0.123568,0.426415,9.924223,0.223561,-1.635510,0.132356,2.379463,0.607452,-3.171829,0.999384,0.020902,0.004723,-0.027780
6837,-0.107900,0.430314,9.939922,0.495331,-1.836863,-0.116371,2.408670,0.557240,-3.173791,0.999381,0.021144,0.004278,-0.027789
6838,-0.084642,0.438960,9.931046,1.026539,-1.772820,0.027070,2.454311,0.492108,-3.177627,0.999375,0.021527,0.003698,-0.027812
6839,-0.079619,0.443452,9.910279,0.893975,-1.557749,0.013342,2.507387,0.427303,-3.179174,0.999367,0.021974,0.003120,-0.027815
6840,-0.068609,0.475573,9.913417,0.172502,-1.176321,-0.152979,2.556931,0.376062,-3.183270,0.999358,0.022394,0.002660,-0.027842
6841,-0.063967,0.473020,9.935438,-0.281885,-0.587345,-0.114827,2.592468,0.343339,-3.188790,0.999351,0.022696,0.002365,-0.027884
6842,-0.061289,0.458545,9.938534,-0.727273,-0.079211,-0.017167,2.595616,0.332525,-3.191362,0.999350,0.022721,0.002269,-0.027905
6843,-0.075898,0.440517,9.929996,-1.145381,0.102470,0.037761,2.563827,0.343399,-3.191006,0.999356,0.022446,0.002372,-0.027903
6844,-0.072537,0.437746,9.923918,-1.148512,0.154501,0.213236,2.517038,0.363987,-3.186698,0.999365,0.022043,0.002564,-0.027868
6845,-0.076366,0.412645,9.923062,-1.168494,0.394198,0.262059,2.462531,0.386670,-3.178499,0.999377,0.021573,0.002776,-0.027800
6846,-0.084660,0.398684,9.913064,-1.344221,0.572880,0.106406,2.393637,0.418904,-3.171875,0.999390,0.020980,0.003075,-0.027746
6847,-0.094161,0.417014,9.913934,-1.583912,0.827899,0.075879,2.331625,0.462917,-3.167987,0.999401,0.020450,0.003475,-0.027719
6848,-0.097154,0.409211,9.921489,-1.487741,0.875387,0.205575,2.284623,0.511482,-3.162141,0.999408,0.020051,0.003911,-0.027675
6849,-0.098619,0.369838,9.920349,-1.365766,0.892302,0.287969,2.226207,0.554835,-3.152876,0.999419,0.019552,0.004305,-0.027599
6850,-0.097108,0.372260,9.929770,-1.402580,0.861835,0.330691,2.159207,0.589409,-3.141658,0.999431,0.018975,0.004624,-0.027504
6851,-0.097649,0.357717,9.948833,-1.411884,0.632928,0.350528,2.095999,0.611833,-3.129552,0.999443,0.018429,0.004837,-0.027400
6852,-0.100013,0.341009,9.929068,-1.210653,0.245290,0.252869,2.031415,0.620370,-3.119191,0.999455,0.017867,0.004928,-0.027308
6853,-0.102685,0.335658,9.919873,-1.160482,0.304749,-0.009591,1.971555,0.623643,-3.115033,0.999465,0.017346,0.004972,-0.027270
6854,-0.109758,0.351592,9.938024,-1.056753,0.510733,-0.078257,1.931033,0.635544,-3.116068,0.999471,0.016995,0.005085,-0.027279
6855,-0.111327,0.333708,9.931169,-0.664549,0.626717,-0.136243,1.906724,0.655992,-3.118957,0.999472,0.016788,0.005269,-0.027306
6856,-0.106922,0.330510,9.910892,-0.098433,0.673993,-0.055367,1.893684,0.674842,-3.121432,0.999473,0.016679,0.005436,-0.027329
6857,-0.112779,0.330392,9.926932,0.276958,0.770075,-0.066047,1.898096,0.693231,-3.122641,0.999471,0.016722,0.005595,-0.027343
6858,-0.127841,0.332514,9.938825,0.638628,0.748728,-0.227796,1.916113,0.720435,-3.126658,0.999465,0.016885,0.005828,-0.027383
6859,-0.137918,0.326257,9.920099,1.203208,0.516886,-0.304095,1.945392,0.752720,-3.134821,0.999457,0.017149,0.006101,-0.027460
6860,-0.137814,0.346669,9.926320,2.121833,0.175176,-0.082839,2.002781,0.775276,-3.140831,0.999446,0.017655,0.006283,-0.027519
6861,-0.131224,0.347720,9.925472,3.698163,-0.058270,0.121635,2.105149,0.779396,-3.140035,0.999429,0.018549,0.006294,-0.027518
6862,-0.118335,0.370359,9.932402,5.703257,-0.224692,0.457343,2.265078,0.763724,-3.130541,0.999406,0.019939,0.006121,-0.027441
6863,-0.095774,0.429842,9.939059,8.740050,-0.495038,1.180643,2.528292,0.722236,-3.103554,0.999366,0.022224,0.005701,-0.027212
6864,-0.084113,0.487264,9.947211,11.253654,-0.911990,1.433968,2.906704,0.655456,-3.060779,0.999302,0.025506,0.005039,-0.026843
6865,-0.075653,0.560675,9.953820,13.939779,-1.292328,1.437044,3.381464,0.574069,-3.014678,0.999202,0.029626,0.004230,-0.026441
6866,-0.071676,0.666330,9.939909,17.491154,-1.919767,1.653746,3.966008,0.485978,-2.966391,0.999053,0.034701,0.003341,-0.026015
6867,-0.068150,0.777510,9.918386,19.586857,-2.656948,1.524059,4.650995,0.388377,-2.918933,0.998843,0.040649,0.002352,-0.025586
6868,-0.063460,0.889826,9.889649,20.965397,-3.244502,0.912173,5.396223,0.278872,-2.886693,0.998569,0.047120,0.001244,-0.025275
6869,-0.038333,1.023078,9.869911,22.389717,-3.302536,0.625307,6.188399,0.162208,-2.871865,0.998226,0.053996,0.000060,-0.025099
6870,-0.033037,1.166673,9.886061,23.601967,-3.021784,0.428466,7.028021,0.053434,-2.866342,0.997807,0.061285,-0.001068,-0.024992
6871,-0.030581,1.292973,9.899909,24.113749,-2.794327,0.179730,7.888885,-0.033690,-2.868687,0.997319,0.068760,-0.002015,-0.024952
6872,-0.017871,1.402154,9.883738,25.939127,-2.694982,0.132406,8.764194,-0.107219,-2.876548,0.996764,0.076360,-0.002850,-0.024955
6873,-0.005868,1.586796,9.876054,27.811781,-2.287388,-0.061412,9.697758,-0.170322,-2.888471,0.996107,0.084464,-0.003611,-0.024988
6875,0.004065,1.781929,9.826012,30.078373,-2.149878,0.179653,10.727492,-0.223669,-2.899515,0.995305,0.093399,-0.004308,-0.025007
6876,0.011931,1.988249,9.749757,31.147383,-1.897915,0.394773,11.842683,-0.270915,-2.903298,0.994349,0.103070,-0.004964,-0.024954
6877,0.035974,2.207421,9.703650,30.725809,-1.505620,0.397794,12.995580,-0.314087,-2.902795,0.993262,0.113059,-0.005589,-0.024856
6878,0.036227,2.460672,9.669806,30.257231,-1.125562,0.104786,14.166836,-0.346989,-2.905543,0.992054,0.123198,-0.006130,-0.024786
6879,0.030080,2.632621,9.593136,28.958683,-1.030787,-0.127205,15.322829,-0.362422,-2.915735,0.990758,0.133195,-0.006525,-0.024793
6880,0.024622,2.813270,9.578034,26.877184,-0.838284,-0.440091,16.406364,-0.362671,-2.933827,0.989451,0.142556,-0.006784,-0.024886
6881,0.037830,2.958109,9.533230,25.720181,-0.938777,-0.420323,17.412157,-0.361652,-2.956505,0.988156,0.151234,-0.007023,-0.025023
6882,0.017217,3.097688,9.460711,25.794395,-0.727957,-0.276967,18.377346,-0.356463,-2.976330,0.986843,0.159552,-0.007217,-0.025141
6883,0.022887,3.217873,9.422576,25.163408,-0.446899,0.159349,19.308825,-0.340845,-2.984493,0.985512,0.167571,-0.007299,-0.025174
6884,0.030820,3.370818,9.369583,25.408152,-0.252877,0.758957,20.217278,-0.330271,-2.973970,0.984154,0.175382,-0.007391,-0.025041
6885,0.030760,3.504000,9.308177,25.877169,0.090641,1.326531,21.132921,-0.323268,-2.942394,0.982728,0.183244,-0.007480,-0.024722
6886,0.018614,3.653126,9.263384,27.980392,0.949952,1.355439,22.085266,-0.298179,-2.894391,0.981181,0.191413,-0.007391,-0.024290
6887,0.020693,3.804391,9.219206,27.814524,1.192803,1.233272,23.064907,-0.254566,-2.840707,0.979519,0.199807,-0.007132,-0.023843
6888,0.019697,3.936271,9.123322,27.790489,0.927476,1.462083,24.033403,-0.218104,-2.785229,0.977806,0.208090,-0.006921,-0.023375
6889,0.011786,4.052112,9.100616,26.780478,0.762843,1.881638,24.959183,-0.195544,-2.722556,0.976105,0.215991,-0.006799,-0.022827
6890,0.014813,4.183980,9.042642,26.163902,0.271643,2.348505,25.830177,-0.192255,-2.651119,0.974449,0.223409,-0.006805,-0.022173
6891,0.032563,4.271865,8.945031,23.148405,-1.246588,2.943586,26.622030,-0.237927,-2.578861,0.972897,0.230133,-0.007201,-0.021420
6892,0.058312,4.384597,8.867512,21.744173,-1.974506,3.329673,27.327621,-0.339769,-2.509782,0.971476,0.236104,-0.008054,-0.020580
6893,0.071742,4.538004,8.849443,20.054665,-1.870839,3.300731,27.990046,-0.459740,-2.441572,0.970109,0.241698,-0.009044,-0.019703
6894,0.092728,4.646009,8.808481,18.224855,-1.776313,3.117665,28.602709,-0.574087,-2.376136,0.968815,0.246865,-0.009975,-0.018854
6895,0.095849,4.716456,8.754389,16.573511,-1.703096,2.600393,29.149761,-0.674453,-2.320452,0.967634,0.251474,-0.010790,-0.018116
6896,0.108985,4.826422,8.732680,16.049799,-1.417707,2.444730,29.657822,-0.756213,-2.272332,0.966517,0.255751,-0.011453,-0.017479
6897,0.130791,4.928904,8.698614,15.471260,-1.445143,2.257027,30.159069,-0.832839,-2.227873,0.965394,0.259967,-0.012074,-0.016880
6898,0.131435,4.949525,8.666162,15.034504,-1.229939,1.510827,30.629358,-0.897232,-2.195692,0.964323,0.263919,-0.012611,-0.016411
6899,0.125610,4.993254,8.610162,16.146313,-1.087888,0.695911,31.083807,-0.931923,-2.182854,0.963270,0.267736,-0.012937,-0.016172
6900,0.143527,5.092508,8.557595,17.383308,-1.301362,0.184643,31.584576,-0.954325,-2.189956,0.962089,0.271938,-0.013213,-0.016122
6901,0.141143,5.187467,8.512263,17.564548,-1.267656,-0.447166,32.129414,-0.971271,-2.215501,0.960781,0.276504,-0.013493,-0.016232
6902,0.123773,5.266423,8.483205,18.279881,-1.192668,-0.792155,32.691498,-0.967058,-2.254108,0.959408,0.281209,-0.013632,-0.016499
6903,0.133031,5.362693,8.410004,20.072552,-1.561695,-0.645817,33.299484,-0.960627,-2.298357,0.957896,0.286291,-0.013776,-0.016813
6904,0.131537,5.488795,8.338345,21.944792,-1.840724,-0.545243,33.992863,-0.968744,-2.345829,0.956139,0.292075,-0.014066,-0.017104
6905,0.130909,5.617847,8.270309,24.102608,-1.773365,-0.755970,34.778381,-0.977030,-2.397656,0.954107,0.298614,-0.014387,-0.017417
6906,0.132982,5.731833,8.170185,27.031151,-1.539678,-1.197119,35.663723,-0.973647,-2.456224,0.951762,0.305970,-0.014650,-0.017801
6907,0.144681,5.825005,8.045821,29.183027,-1.722612,-1.124006,36.636921,-0.970473,-2.519734,0.949119,0.314034,-0.014948,-0.018211
6908,0.161453,5.958074,7.921216,29.752541,-2.398511,0.081405,37.658020,-1.002586,-2.575402,0.946274,0.322465,-0.015531,-0.018446
6909,0.195729,6.084424,7.820321,27.520449,-3.080647,1.149584,38.650227,-1.093322,-2.616207,0.943439,0.330621,-0.016555,-0.018385
6910,0.219180,6.188628,7.761337,23.858318,-3.176930,1.189373,39.517056,-1.219484,-2.652024,0.940904,0.337715,-0.017835,-0.018181
6911,0.239158,6.295944,7.724576,19.950161,-2.902418,0.495210,40.219414,-1.337731,-2.695088,0.938807,0.343442,-0.019044,-0.018069
6912,0.234077,6.397643,7.685324,16.821529,-2.160888,-0.319563,40.779976,-1.414744,-2.746658,0.937105,0.348004,-0.019918,-0.018163
6913,0.221599,6.445840,7.637629,14.617431,-1.046886,-1.731089,41.232517,-1.422988,-2.805800,0.935714,0.351690,-0.020239,-0.018542
6914,0.206313,6.505684,7.598892,14.399949,0.245768,-3.289202,41.629749,-1.351146,-2.875112,0.934479,0.354937,-0.019932,-0.019260
6915,0.178729,6.561743,7.534876,15.564980,1.323350,-4.053912,42.045315,-1.211032,-2.946609,0.933176,0.358345,-0.019084,-0.020209
6916,0.147801,6.599990,7.462286,18.809914,1.734155,-3.543002,42.541470,-1.040893,-3.003910,0.931604,0.362414,-0.017970,-0.021130
6917,0.143167,6.661831,7.363005,22.387611,1.517747,-2.674983,43.162868,-0.891077,-3.041251,0.929616,0.367491,-0.016989,-0.021817
6918,0.120721,6.747123,7.270817,25.745733,0.881629,-1.446781,43.916851,-0.786665,-3.062224,0.927171,0.373621,-0.016356,-0.022215
6919,0.129383,6.906429,7.125397,28.693750,-0.136056,0.564289,44.816353,-0.751432,-3.063497,0.924208,0.380896,-0.016250,-0.022213
6920,0.153324,7.065941,6.984472,29.425110,-1.033345,2.036844,45.833157,-0.802309,-3.047338,0.920797,0.389072,-0.016800,-0.021765
6921,0.174642,7.206383,6.870174,28.140936,-1.918536,2.210943,46.864552,-0.910497,-3.035247,0.917264,0.397320,-0.017819,-0.021141
6922,0.189728,7.314112,6.771626,25.022490,-2.176588,2.014265,47.810802,-1.034845,-3.038985,0.913954,0.404850,-0.018998,-0.020583
6923,0.216283,7.428087,6.669535,20.992903,-1.885304,1.079046,48.619930,-1.144953,-3.056181,0.911072,0.411263,-0.020080,-0.020190
6924,0.211653,7.448434,6.628794,17.268106,-1.217064,-0.329253,49.256943,-1.207428,-3.087221,0.908767,0.416300,-0.020800,-0.020097
6925,0.194839,7.481821,6.571896,15.640944,-0.917969,-0.637491,49.748451,-1.217264,-3.123675,0.906967,0.420185,-0.021097,-0.020260
6926,0.193377,7.531386,6.472460,14.608810,-0.640164,-0.217942,50.186069,-1.210134,-3.151251,0.905351,0.423642,-0.021220,-0.020423
6927,0.196907,7.603434,6.396198,14.829644,-0.106012,-0.788716,50.630268,-1.192996,-3.170435,0.903698,0.427149,-0.021236,-0.020556
6928,0.189471,7.703912,6.355099,16.184412,0.423560,-1.380860,51.119518,-1.149171,-3.188489,0.901862,0.431012,-0.021046,-0.020772
6929,0.182198,7.743743,6.278114,16.797646,0.361082,-1.120025,51.648712,-1.094129,-3.203760,0.899857,0.435183,-0.020768,-0.021004
6930,0.186998,7.755096,6.189485,18.021191,0.237531,-1.181116,52.202145,-1.049774,-3.218916,0.897741,0.439533,-0.020580,-0.021192
6931,0.179884,7.816008,6.114141,19.244684,0.338256,-1.516828,52.790619,-1.006506,-3.238027,0.895466,0.444145,-0.020424,-0.021404
6932,0.175690,7.905966,6.040589,19.740353,0.014766,-0.923244,53.412567,-0.970041,-3.257234,0.893037,0.449004,-0.020331,-0.021585
6933,0.178151,7.958972,5.923020,20.463491,-0.504070,-0.082425,54.066288,-0.965737,-3.273430,0.890458,0.454090,-0.020485,-0.021612
6934,0.179623,8.039253,5.814287,21.719320,-0.816933,0.083967,54.768860,-0.987513,-3.291353,0.887655,0.459532,-0.020858,-0.021537
6935,0.174965,8.088161,5.729737,21.328669,-1.146568,0.360208,55.484962,-1.018847,-3.314024,0.884763,0.465058,-0.021326,-0.021454
6936,0.187122,8.145576,5.617275,19.692776,-0.908553,0.421290,56.158100,-1.054944,-3.334897,0.882014,0.470234,-0.021815,-0.021341
6937,0.180370,8.196263,5.526416,17.960712,-0.049474,-0.565953,56.770523,-1.065525,-3.349324,0.879486,0.474935,-0.022069,-0.021291
6938,0.162759,8.262269,5.493407,15.775249,0.936325,-1.419013,57.295891,-1.020423,-3.354261,0.877296,0.478973,-0.021842,-0.021416
6939,0.156669,8.311494,5.425098,14.024502,1.766518,-1.661757,57.736069,-0.936292,-3.342746,0.875447,0.482364,-0.021233,-0.021598
6940,0.134159,8.389825,5.370039,13.138973,2.439554,-2.301263,58.134285,-0.823792,-3.317376,0.873763,0.485436,-0.020343,-0.021808
6941,0.110240,8.437887,5.317677,13.254498,2.256566,-2.443359,58.524895,-0.690980,-3.291402,0.872099,0.488449,-0.019296,-0.022107
6942,0.097341,8.446807,5.279706,14.053529,1.290767,-1.981171,58.918945,-0.575166,-3.278204,0.870407,0.491475,-0.018436,-0.022438
6943,0.093100,8.456510,5.179348,15.145507,0.762856,-2.266604,59.341194,-0.485290,-3.284292,0.868581,0.494700,-0.017864,-0.022804
6944,0.070563,8.478677,5.131530,16.466375,0.946009,-2.585582,59.804268,-0.393281,-3.300032,0.866563,0.498225,-0.017328,-0.023251
6945,0.080243,8.533484,5.018788,17.349394,0.807155,-2.288028,60.313625,-0.307890,-3.314790,0.864328,0.502089,-0.016852,-0.023659
6946,0.063601,8.578870,4.963069,17.460392,0.390538,-1.674533,60.850605,-0.249559,-3.329620,0.861956,0.506145,-0.016590,-0.023949
6947,0.043332,8.655638,4.843948,17.334988,-0.087093,-0.346944,61.399815,-0.221781,-3.341333,0.859515,0.510275,-0.016548,-0.024081
6948,0.042874,8.763977,4.741983,16.706369,-0.772242,1.217143,61.974064,-0.243085,-3.347049,0.856948,0.514570,-0.016853,-0.023945
6949,0.056837,8.831362,4.601815,16.929583,-1.681726,2.122075,62.581879,-0.318839,-3.357541,0.854213,0.519089,-0.017592,-0.023590
6950,0.061747,8.831105,4.517071,17.459599,-1.573424,2.340350,63.212265,-0.418142,-3.372275,0.851353,0.523755,-0.018527,-0.023148
6951,0.084485,8.828483,4.377345,17.978878,-0.917310,2.201551,63.854008,-0.512017,-3.376105,0.848415,0.528492,-0.019369,-0.022639
6952,0.108636,8.851911,4.298558,19.056593,0.056173,1.191495,64.516434,-0.582450,-3.364908,0.845355,0.533373,-0.019967,-0.022116
6953,0.109801,8.869743,4.197678,20.817762,0.942685,0.149388,65.208351,-0.607897,-3.340830,0.842127,0.538465,-0.020174,-0.021699
6954,0.098818,8.918461,4.136872,21.617388,1.435551,0.013594,65.919640,-0.595784,-3.303804,0.838774,0.543692,-0.020044,-0.021360
6955,0.087611,9.027153,3.997597,21.570147,1.029685,-0.586163,66.646065,-0.562295,-3.270054,0.835313,0.549011,-0.019773,-0.021147
6956,0.081425,9.150572,3.921280,21.245344,0.921388,-1.152385,67.383644,-0.510512,-3.251551,0.831760,0.554392,-0.019443,-0.021135
6957,0.093837,9.157414,3.798818,21.080696,0.230158,-0.175828,68.105698,-0.478517,-3.242251,0.828249,0.559631,-0.019300,-0.021101
6958,0.110578,9.165549,3.716800,20.195602,-0.639664,0.697113,68.787239,-0.502443,-3.245378,0.824908,0.564541,-0.019612,-0.020891
6959,0.138181,9.210376,3.558494,19.397488,-1.125014,0.103796,69.441063,-0.557141,-3.268275,0.821675,0.569222,-0.020237,-0.020671
6960,0.152987,9.252408,3.486243,19.533295,-1.062591,1.268445,70.090256,-0.634455,-3.295043,0.818440,0.573845,-0.021040,-0.020360
6961,0.168393,9.313174,3.378049,20.639519,-1.607490,2.973296,70.752174,-0.761918,-3.313665,0.815122,0.578529,-0.022158,-0.019727
6962,0.170114,9.403455,3.267128,20.514433,-1.522155,3.204038,71.442543,-0.914458,-3.330146,0.811634,0.583389,-0.023440,-0.018932
6963,0.184716,9.449738,3.119791,20.046207,-1.200263,3.350741,72.144508,-1.057555,-3.339864,0.808056,0.588313,-0.024614,-0.018122
6964,0.194023,9.470679,3.059057,18.280863,-0.943950,3.515664,72.799904,-1.191728,-3.339957,0.804689,0.592890,-0.025660,-0.017287
6965,0.224155,9.474924,2.983436,15.744572,-0.716614,2.742117,73.344688,-1.310564,-3.335693,0.801871,0.596679,-0.026551,-0.016515
6966,0.249237,9.422093,2.880985,12.878423,-0.402315,1.967120,73.770744,-1.410763,-3.330372,0.799654,0.599631,-0.027283,-0.015855
6967,0.272350,9.437103,2.816298,10.643856,-0.086508,1.474500,74.095299,-1.496728,-3.320886,0.797960,0.601873,-0.027876,-0.015259
6968,0.280010,9.489671,2.772813,9.105083,-0.062147,1.003233,74.353584,-1.564550,-3.310394,0.796606,0.603654,-0.028326,-0.014766
6969,0.292306,9.526625,2.713663,8.913812,-0.295657,1.204860,74.595436,-1.624653,-3.304843,0.795335,0.605319,-0.028745,-0.014350
6970,0.288816,9.522170,2.667939,9.271986,-0.622232,1.935922,74.852692,-1.695140,-3.304615,0.793978,0.607083,-0.029264,-0.013910
6971,0.288705,9.570766,2.626974,9.709554,-1.105946,2.212132,75.128220,-1.771158,-3.313366,0.792518,0.608967,-0.029869,-0.013495
6972,0.292030,9.587483,2.544089,11.159024,-1.739175,2.051820,75.459427,-1.841521,-3.340650,0.790755,0.611228,-0.030539,-0.013221
6973,0.309378,9.581699,2.484046,12.089852,-2.190821,2.218036,75.849976,-1.914226,-3.386482,0.788665,0.613886,-0.031329,-0.013043
6974,0.322974,9.556038,2.420968,12.185937,-2.416638,2.007386,76.251045,-1.992931,-3.443813,0.786509,0.616603,-0.032223,-0.012902
6975,0.341767,9.588538,2.373153,12.519932,-2.376948,1.047542,76.645073,-2.056666,-3.508862,0.784379,0.619266,-0.033055,-0.012892
6976,0.362514,9.598228,2.303013,13.571081,-2.219774,0.220511,77.059013,-2.096855,-3.577901,0.782131,0.622063,-0.033750,-0.013025
6978,0.362183,9.612652,2.235251,14.712295,-2.372368,0.399077,77.513321,-2.127316,-3.649679,0.779652,0.625128,-0.034400,-0.013213
6979,0.360382,9.622496,2.131684,16.682169,-2.674494,0.150335,78.028976,-2.152137,-3.729607,0.776823,0.628598,-0.035066,-0.013464
6980,0.362846,9.670585,1.976168,19.262770,-2.982730,0.228106,78.660164,-2.171857,-3.821782,0.773339,0.632832,-0.035781,-0.013783
6981,0.347363,9.681442,1.787396,22.025507,-3.271135,-0.019221,79.441605,-2.181436,-3.926777,0.768994,0.638055,-0.036523,-0.014190
6982,0.325172,9.699859,1.616319,23.668636,-2.859130,-1.238713,80.343010,-2.148535,-4.035933,0.763935,0.644060,-0.037028,-0.014815
6983,0.314817,9.719384,1.488956,23.537155,-2.085468,-2.723817,81.273682,-2.055044,-4.132670,0.758659,0.650243,-0.037078,-0.015686
6984,0.306393,9.709869,1.364346,22.846958,-1.398781,-3.490195,82.164337,-1.920991,-4.208782,0.753558,0.656141,-0.036754,-0.016666
6985,0.295843,9.671633,1.249285,21.651384,-0.336722,-4.439602,82.990120,-1.762783,-4.257001,0.748786,0.661592,-0.036119,-0.017631
6986,0.281764,9.668321,1.128414,19.919977,0.592573,-4.273457,83.740227,-1.598181,-4.271147,0.744417,0.666529,-0.035247,-0.018445
6987,0.287221,9.730980,1.035339,19.157351,0.948106,-2.668197,84.428200,-1.478906,-4.258533,0.740389,0.671028,-0.034514,-0.018850
6988,0.286257,9.764246,0.916911,19.391064,1.271578,-1.303850,85.096916,-1.428546,-4.228526,0.736458,0.675362,-0.034123,-0.018753
6989,0.299185,9.823558,0.790239,18.750494,1.946001,0.451277,85.766411,-1.444682,-4.177345,0.732510,0.679663,-0.034031,-0.018130
6990,0.312228,9.878774,0.693704,17.624685,2.095501,2.015769,86.406616,-1.527213,-4.108613,0.728723,0.683740,-0.034246,-0.017010
6991,0.337823,9.932398,0.652470,15.276320,2.165659,2.783794,86.956413,-1.656402,-4.033572,0.725461,0.687211,-0.034695,-0.015595
6992,0.352179,9.899560,0.542426,11.764987,1.695646,2.972057,87.385178,-1.812302,-3.964418,0.722911,0.689894,-0.035319,-0.014089
6993,0.350096,9.857814,0.519349,9.004176,0.983027,2.679577,87.684471,-1.959204,-3.914675,0.721128,0.691749,-0.035979,-0.012796
6994,0.339863,9.842494,0.452562,6.969585,0.427598,1.573474,87.891235,-2.050328,-3.886644,0.719891,0.693028,-0.036404,-0.012003
6995,0.332697,9.844884,0.380004,5.347265,0.220085,0.486953,88.067284,-2.077411,-3.873661,0.718829,0.694129,-0.036513,-0.011701
6996,0.308782,9.819489,0.341551,5.601982,0.116336,-1.573350,88.237160,-2.025719,-3.868135,0.717795,0.695212,-0.036174,-0.011926
6997,0.295289,9.822729,0.274781,6.253636,0.929667,-4.480722,88.443520,-1.871021,-3.853812,0.716528,0.696557,-0.035142,-0.012713
6998,0.251156,9.934538,0.206359,5.280458,2.170246,-6.788439,88.674225,-1.624952,-3.808018,0.715103,0.698086,-0.033354,-0.013857
6999,0.221956,9.855359,0.197217,7.374369,2.725685,-8.609342,88.920692,-1.314522,-3.732788,0.713571,0.699731,-0.030993,-0.015214
7000,0.168783,9.820634,0.254054,8.283680,3.372689,-9.882380,89.164391,-0.958938,-3.635811,0.712047,0.701365,-0.028224,-0.016723
7001,0.128852,9.839296,0.167970,8.377947,3.510035,-9.739279,89.403107,-0.593437,-3.524276,0.710547,0.702959,-0.025309,-0.018215
7002,0.076700,9.835769,0.206075,8.789480,3.259791,-8.535547,89.637115,-0.263499,-3.413254,0.709074,0.704501,-0.022622,-0.019505
7003,0.083578,9.771088,0.174056,9.379226,1.996331,-6.963794,89.853035,-0.010274,-3.326146,0.707717,0.705900,-0.020559,-0.020485
7004,0.054149,9.877129,0.139896,6.886425,0.416999,-4.395266,90.018051,0.135643,-3.285983,0.706680,0.706951,-0.019441,-0.021108
7005,0.038103,9.937724,0.026552,5.317077,-1.598749,-1.999014,90.144791,0.181814,-3.305697,0.705886,0.707737,-0.019301,-0.021493
7006,0.036268,9.897598,0.035409,4.718481,-2.955297,0.053977,90.264099,0.146003,-3.381736,0.705141,0.708452,-0.020014,-0.021719
7007,0.027992,9.831092,-0.016884,4.403710,-4.360673,1.266146,90.368683,0.060406,-3.504039,0.704487,0.709058,-0.021317,-0.021923
7008,0.026874,9.790284,-0.058382,4.389817,-4.545308,1.480215,90.497536,-0.032539,-3.652960,0.703679,0.709803,-0.022835,-0.022238
7009,0.032202,9.796311,-0.076737,4.049472,-4.122625,0.961712,90.631409,-0.106040,-3.797911,0.702835,0.710580,-0.024210,-0.022644
7010,0.043597,9.755548,-0.061854,5.860481,-3.702993,0.430945,90.767815,-0.155689,-3.928636,0.701973,0.711377,-0.025353,-0.023108
7011,0.028387,9.760798,-0.136372,6.647662,-3.956294,-0.122832,90.955063,-0.173647,-4.056382,0.700787,0.712490,-0.026295,-0.023736
7012,0.028168,9.836894,-0.205842,5.611789,-4.320992,-0.377660,91.185120,-0.162831,-4.194257,0.699324,0.713866,-0.027135,-0.024592
7013,0.023509,9.756395,-0.356487,5.113770,-4.407972,-0.316652,91.469765,-0.144737,-4.339730,0.697513,0.715570,-0.027995,-0.025523
7014,0.009611,9.760057,-0.377715,4.665001,-3.449697,-1.555798,91.784645,-0.099414,-4.470118,0.695504,0.717463,-0.028606,-0.026521
7015,-0.005132,9.806645,-0.416170,1.805051,-2.575351,-1.824542,92.020157,-0.019805,-4.568839,0.693985,0.718885,-0.028798,-0.027560
7016,0.005968,9.864212,-0.402366,-0.870621,-1.171502,-1.815482,92.123779,0.053570,-4.629134,0.693301,0.719515,-0.028757,-0.028359
7017,0.010041,9.854756,-0.367083,-2.460364,0.331538,-1.139391,92.098068,0.091673,-4.641337,0.693450,0.719366,-0.028597,-0.028679
7018,0.000158,9.943550,-0.222144,-3.937964,1.259305,-0.386959,91.936073,0.099535,-4.614016,0.694471,0.718394,-0.028337,-0.028603
7019,0.004627,9.881316,-0.213121,-4.089981,1.199798,0.896481,91.697945,0.074696,-4.573455,0.695979,0.716953,-0.028175,-0.028260
7020,0.015341,9.864565,-0.208068,-3.573537,1.147921,0.986726,91.477196,0.018538,-4.535297,0.697382,0.715607,-0.028224,-0.027731
7021,0.019834,9.837633,-0.193583,-2.628163,1.006016,0.906100,91.296875,-0.041169,-4.500150,0.698530,0.714503,-0.028325,-0.027189
7022,0.013748,9.833520,-0.148737,-1.543880,1.169294,0.245518,91.155785,-0.076991,-4.464242,0.699426,0.713642,-0.028287,-0.026782
7023,0.021167,9.856726,-0.162634,-1.478800,1.114363,-0.274751,91.046608,-0.085027,-4.426097,0.700117,0.712983,-0.028073,-0.026526
7024,0.015189,9.867182,-0.148668,-1.535587,0.941935,-0.395258,90.960205,-0.078975,-4.391570,0.700661,0.712465,-0.027801,-0.026373
7025,0.005591,9.872090,-0.135960,-1.517570,1.187609,-0.544835,90.876770,-0.059902,-4.355784,0.701183,0.711968,-0.027443,-0.026293
7026,-0.007551,9.865809,-0.132810,-1.832143,1.389029,-0.665508,90.795540,-0.026584,-4.312531,0.701690,0.711488,-0.026952,-0.026255
7027,-0.012687,9.856977,-0.116735,-1.888787,1.108256,-0.650420,90.713120,0.013503,-4.270635,0.702202,0.711003,-0.026427,-0.026266
7028,-0.023088,9.847000,-0.100151,-1.359497,0.877840,-0.743685,90.636330,0.056621,-4.237288,0.702676,0.710549,-0.025938,-0.026346
7029,-0.019267,9.874993,-0.118704,-1.283265,0.798489,-1.160409,90.585167,0.104189,-4.209029,0.702988,0.710252,-0.025460,-0.026479
7030,-0.019187,9.852478,-0.076113,-1.162793,0.552814,-1.369514,90.536186,0.151864,-4.186118,0.703286,0.709967,-0.025014,-0.026645
7031,-0.019604,9.845795,-0.048269,-0.918976,0.282726,-1.363384,90.465057,0.194505,-4.171882,0.703720,0.709543,-0.024647,-0.026837
7032,-0.024293,9.836869,-0.063878,-0.682749,0.191170,-1.193931,90.406479,0.228744,-4.163746,0.704076,0.709192,-0.024373,-0.027012
7033,-0.025702,9.840181,-0.052222,-0.620348,0.229318,-1.239598,90.366875,0.257145,-4.156520,0.704316,0.708956,-0.024144,-0.027151
7034,-0.022255,9.825293,-0.043690,-0.565593,0.207955,-0.967812,90.327477,0.274965,-4.149080,0.704557,0.708719,-0.023979,-0.027224
7035,-0.023659,9.860733,-0.064765,-0.495454,0.218638,-0.554066,90.304024,0.276011,-4.141844,0.704704,0.708577,-0.023922,-0.027191
7036,-0.029919,9.876405,-0.070097,-0.443445,0.017217,-0.346340,90.302284,0.269001,-4.137763,0.704717,0.708565,-0.023940,-0.027123
7037,-0.030212,9.880469,-0.087464,-0.252448,-0.175047,-0.272931,90.318863,0.261346,-4.140206,0.704616,0.708665,-0.024006,-0.027087
7038,-0.034632,9.891070,-0.090703,-0.032372,-0.165890,0.134620,90.351799,0.249517,-4.145707,0.704414,0.708864,-0.024121,-0.027041
7039,-0.037976,9.873259,-0.065175,0.259273,-0.059074,0.455138,90.376930,0.231472,-4.149426,0.704262,0.709014,-0.024260,-0.026947
7040,-0.042038,9.855721,-0.065570,0.474454,-0.114006,0.546707,90.391953,0.213306,-4.152411,0.704172,0.709102,-0.024394,-0.026850
7041,-0.037206,9.856199,-0.077172,0.465350,-0.005665,0.507020,90.413193,0.197214,-4.154508,0.704044,0.709228,-0.024511,-0.026758
7042,-0.039525,9.856349,-0.065887,0.448587,0.224749,0.470368,90.430855,0.184153,-4.150966,0.703939,0.709335,-0.024573,-0.026652
7043,-0.028732,9.847533,-0.091458,0.590557,0.336142,0.319289,90.454712,0.172346,-4.141697,0.703796,0.709481,-0.024594,-0.026517
7044,-0.031957,9.862493,-0.107337,0.546530,0.282735,-0.111020,90.498459,0.168450,-4.131336,0.703528,0.709751,-0.024564,-0.026420
7045,-0.027636,9.862111,-0.090267,0.603152,0.359032,-0.358224,90.535515,0.176668,-4.120518,0.703300,0.709982,-0.024455,-0.026396
7046,-0.018111,9.860473,-0.101056,0.627631,0.475003,-0.239135,90.563179,0.179219,-4.106503,0.703131,0.710156,-0.024359,-0.026320
7047,-0.009540,9.860028,-0.104876,0.398825,0.450590,-0.081803,90.589317,0.166517,-4.091002,0.702975,0.710317,-0.024347,-0.026141
7048,-0.010349,9.848384,-0.069677,0.183554,0.363614,-0.072455,90.586433,0.147857,-4.077445,0.703000,0.710298,-0.024377,-0.025943
7049,-0.010505,9.848976,-0.067753,0.018440,0.326992,0.306135,90.555336,0.126153,-4.066061,0.703201,0.710105,-0.024432,-0.025745
7050,-0.017211,9.847342,-0.083657,-0.119111,0.151511,0.576318,90.529747,0.101034,-4.058278,0.703366,0.709944,-0.024532,-0.025547
7051,-0.022757,9.832457,-0.083482,-0.085633,0.000444,0.594624,90.516090,0.082005,-4.055944,0.703456,0.709857,-0.024632,-0.025418
7052,-0.022787,9.846399,-0.069777,-0.322279,0.085895,0.614393,90.495239,0.069375,-4.054708,0.703588,0.709727,-0.024697,-0.025336
7053,-0.022966,9.851453,-0.079191,-0.206429,0.018754,0.566993,90.473167,0.060192,-4.053151,0.703727,0.709589,-0.024739,-0.025275
7054,-0.020102,9.854750,-0.081557,-0.388042,-0.062121,0.591307,90.460167,0.051973,-4.054038,0.703809,0.709508,-0.024792,-0.025232
7055,-0.013867,9.859664,-0.095193,-0.760290,0.011123,0.742303,90.449646,0.037571,-4.055058,0.703878,0.709440,-0.024884,-0.025151
7056,-0.002450,9.869461,-0.072957,-0.892989,-0.002610,0.743825,90.428215,0.013285,-4.055100,0.704015,0.709303,-0.025029,-0.025006
7057,0.009035,9.852468,-0.071263,-0.699230,-0.068225,0.798832,90.398026,-0.020592,-4.056464,0.704210,0.709110,-0.025239,-0.024811
7058,0.015747,9.849301,-0.076556,-0.978447,-0.147572,0.951539,90.373138,-0.062283,-4.060254,0.704372,0.708947,-0.025514,-0.024582
