seq,ax,ay,az,wroll,wpitch,wyaw,roll,pitch,yaw
1,0.101221,-0.519065,9.943401,-3.097498,0.010792,0.444908,-2.988240,-0.582442,0.000000
2,0.105429,-0.503241,9.947958,-2.659300,0.051203,0.651621,-3.065531,-0.583054,0.018198
3,0.099246,-0.547047,9.941422,-2.828419,0.110408,0.499599,-3.156432,-0.578528,0.037215
4,0.111399,-0.554918,9.905560,-2.617673,0.084634,0.532678,-3.243276,-0.581245,0.054218
5,0.104857,-0.562015,9.915489,-2.432455,0.072074,0.517389,-3.319267,-0.580386,0.071546
6,0.101306,-0.568867,9.910621,-1.549820,0.108085,0.708528,-3.375774,-0.577064,0.091771
8,0.096194,-0.592217,9.931068,-1.730727,0.092734,0.688252,-3.428881,-0.570525,0.114813
9,0.089226,-0.563907,9.920753,-1.054109,-0.063800,0.887073,-3.453327,-0.563082,0.140995
10,0.066727,-0.550426,9.895972,-1.297020,-0.204870,0.670552,-3.461853,-0.547968,0.167182
11,0.068613,-0.476633,9.824015,-2.701946,-0.602149,0.084798,-3.453535,-0.544541,0.180581
12,0.012794,-0.495514,9.822926,-5.631509,-0.915733,-0.874469,-3.557091,-0.545783,0.169034
13,0.026541,-0.488303,9.767245,-7.283698,-1.366550,-1.337256,-3.726518,-0.564484,0.134707
15,0.225518,-0.712987,9.678473,-9.585990,-1.784500,-4.630199,-4.017065,-0.658689,0.039038
16,0.346251,-0.791685,9.508768,-11.813841,-2.216337,-8.654064,-4.390766,-0.807232,-0.176990
17,0.448285,-0.978453,9.567209,-14.853484,-2.808396,-12.037042,-4.881258,-1.003842,-0.514314
18,0.688144,-0.978051,9.669890,-15.514210,-2.898425,-15.082788,-5.400061,-1.281119,-0.956712
19,0.755129,-0.911506,9.852186,-15.239543,-2.371980,-17.519691,-5.871087,-1.564821,-1.489733
20,0.612515,-0.784872,10.080667,-15.918579,-0.698040,-15.168241,-6.280878,-1.758967,-2.026795
22,0.650885,-0.871351,10.226650,-15.802609,2.344655,-12.413945,-6.699969,-1.872614,-2.487074
23,0.230074,-0.887283,10.314610,-13.754817,6.557735,-8.153562,-7.068080,-1.739181,-2.845509
24,-0.134095,-1.494676,10.412931,-10.992892,9.882727,-2.982200,-7.508343,-1.378169,-3.064865
25,-0.062189,-1.797322,10.087175,-4.466509,12.252489,0.092540,-7.880261,-0.949870,-3.162663
26,-0.241149,-1.846337,9.888105,-1.307844,13.982888,2.846835,-8.106170,-0.415700,-3.175892
27,-0.652703,-2.021280,9.844052,-1.335310,14.843511,8.305071,-8.323816,0.267591,-3.061183
28,-0.595171,-2.078097,9.799317,-1.185770,14.373526,12.957618,-8.546106,0.930323,-2.781283
29,-0.539224,-1.532263,9.576974,-3.337325,13.909644,15.217513,-8.640783,1.551397,-2.385509
30,-0.806084,-1.340338,9.846189,-11.388107,13.465600,18.435690,-8.819205,2.213946,-1.897643
31,-0.869975,-1.357145,10.016543,-9.814878,11.973245,18.985023,-9.082453,2.837269,-1.344105
32,-0.976467,-1.108436,9.974265,-1.703058,9.547023,16.047617,-9.106147,3.396070,-0.822134
33,-1.031376,-1.128438,9.858356,2.363683,7.499558,12.455496,-8.945185,3.860803,-0.397736
34,-1.067986,-1.226359,10.156526,5.807847,5.067560,9.200604,-8.693478,4.216121,-0.074541
35,-1.041187,-1.441289,10.052194,12.183315,3.404628,3.945225,-8.369097,4.462658,0.119678
36,-1.072830,-1.582705,9.648026,11.016132,2.286452,0.601831,-8.044846,4.652559,0.179937
37,-0.828998,-1.902712,9.636567,3.340878,1.395638,-1.642898,-7.975768,4.716582,0.153539
38,-0.671945,-1.975396,9.580420,2.371915,0.295446,-4.912956,-8.077814,4.689312,0.041057
39,-0.666941,-1.898733,9.206774,1.801986,-0.283718,-6.524681,-8.205228,4.632631,-0.148160
40,-0.760451,-1.774577,9.091034,-3.344194,-1.302349,-4.779369,-8.385818,4.585495,-0.331485
41,-0.676549,-1.791275,9.492542,-7.402389,-2.394224,-3.221746,-8.680429,4.480379,-0.455266
42,-0.635505,-1.731965,9.625822,-5.190691,-3.055248,-0.748371,-8.959750,4.347693,-0.508097
43,-0.460720,-1.773843,9.684402,-6.229671,-2.741683,0.812361,-9.210427,4.173782,-0.493092
44,-0.384196,-2.052662,9.611849,-7.936246,-2.036643,1.044360,-9.573889,4.006958,-0.450658
45,-0.200807,-2.252201,9.651793,-5.677157,-0.935497,-0.243701,-9.966000,3.820214,-0.429960
46,-0.142455,-2.131460,9.429881,-0.650040,0.574597,-3.774873,-10.341888,3.506856,-0.495337
47,-0.288110,-1.915704,9.375523,-0.519482,1.939189,-9.206019,-10.433887,3.420395,-0.715986
48,-0.486672,-1.835928,9.495128,-1.032408,2.683206,-14.006819,-10.506555,3.399073,-1.110899
49,-0.419100,-1.826469,9.633343,1.201331,2.809223,-17.650967,-10.545639,3.345887,-1.647331
50,-0.526032,-1.745098,9.662664,1.414961,2.288882,-21.253677,-10.525334,3.298733,-2.302133
51,-0.657059,-1.801497,9.779475,-1.243201,0.990320,-21.792328,-10.557673,3.249241,-3.020284
52,-0.520909,-1.940961,9.733949,-1.871882,-0.759917,-19.421040,-10.679713,3.121206,-3.699970
53,-0.518951,-2.128718,9.723698,-3.675526,-2.877902,-16.813232,-10.881823,2.952085,-4.286949
54,-0.674913,-2.320646,9.985456,-5.244177,-5.476553,-11.115428,-11.155005,2.780324,-4.723855
55,-0.537730,-2.232878,9.962073,-1.202001,-7.762389,-3.115000,-11.340250,2.543558,-4.921123
56,-0.502432,-2.221553,9.801696,0.551287,-9.518729,3.444953,-11.419559,2.292307,-4.866842
57,-0.333574,-2.281087,9.864789,0.345287,-10.672329,8.663618,-11.474970,1.996519,-4.610373
58,-0.088560,-2.063237,9.740149,3.677908,-10.907322,13.552684,-11.420274,1.657142,-4.183933
59,0.056428,-1.790052,9.495234,4.666708,-9.779663,14.933646,-11.234824,1.326036,-3.657304
60,0.063246,-1.855278,9.553351,-0.214727,-8.528403,13.813617,-11.138933,1.046323,-3.133636
61,0.264429,-1.869089,9.778155,-2.129764,-7.075723,12.052699,-11.150794,0.755043,-2.665327
62,0.129292,-1.825746,9.788496,-0.630910,-5.413056,10.060494,-11.159141,0.553757,-2.267439
63,0.005938,-1.835886,9.807490,-0.465034,-4.328212,9.557877,-11.144826,0.433135,-1.918078
64,0.016683,-1.734868,9.794315,-0.085529,-3.974286,9.717510,-11.095737,0.336727,-1.578291
65,-0.009742,-1.725410,9.703197,0.467932,-3.467767,9.993114,-11.036831,0.267293,-1.233726
66,-0.051611,-1.815376,9.531533,-0.071169,-3.307635,9.205149,-11.016189,0.222236,-0.899434
67,-0.027438,-1.892513,9.569386,-3.229153,-3.560435,7.130174,-11.075792,0.161920,-0.611962
68,-0.053452,-2.004835,9.605688,-5.505834,-3.500924,4.565094,-11.249063,0.095154,-0.400197
69,-0.049362,-1.951134,9.567679,-8.310485,-3.259828,1.633790,-11.481392,0.018789,-0.279443
70,-0.084114,-2.178573,9.744476,-14.620187,-3.316288,-1.656105,-11.900456,-0.060271,-0.261062
71,-0.165590,-2.081887,9.746870,-14.502690,-3.304080,-2.683053,-12.369366,-0.126293,-0.312809
72,-0.094282,-2.055790,9.738944,-14.168512,-2.910391,-2.300046,-12.800747,-0.205606,-0.375470
73,0.082066,-2.440126,9.868604,-14.434023,-2.002466,-5.304593,-13.307681,-0.320791,-0.484174
74,-0.033614,-2.365054,9.801741,-8.037343,-0.682540,-10.865066,-13.675179,-0.394842,-0.739285
75,-0.076120,-2.169395,9.618434,-4.469729,0.146037,-14.093924,-13.822535,-0.453610,-1.144388
76,0.140230,-2.450264,9.586864,-7.164514,0.716733,-16.521671,-14.028938,-0.573515,-1.646081
77,-0.021944,-2.586009,9.269968,-8.034291,1.140941,-19.202723,-14.342476,-0.645964,-2.234160
78,-0.108115,-2.327432,8.846404,-11.157862,0.609918,-16.796337,-14.660305,-0.692508,-2.825943
79,0.057912,-2.652032,8.874154,-18.540289,-0.662703,-12.827406,-15.224172,-0.793871,-3.306906
80,0.065682,-2.696040,9.594158,-17.772749,-1.178466,-10.094473,-15.818298,-0.894586,-3.671536
81,-0.259082,-2.639878,10.691454,-12.290098,-1.138792,-5.966845,-16.193455,-0.885548,-3.922205
82,-0.017335,-3.123784,11.949109,-7.523107,-1.210511,-2.119987,-16.428263,-0.908117,-4.043021
83,0.254955,-3.823225,12.682912,-6.448855,-1.308170,-1.993335,-16.666033,-0.974403,-4.098513
84,0.287871,-4.433690,12.754342,-7.758099,-1.529429,-3.046224,-17.015049,-1.052572,-4.167222
85,0.316094,-4.505383,11.559758,-13.503208,-2.736436,-1.501987,-17.564741,-1.158337,-4.221434
86,0.736333,-4.364580,9.680108,-27.033590,-4.799487,-2.181024,-18.541435,-1.430017,-4.246489
87,0.327054,-3.391461,7.679111,-43.556313,-8.219087,-2.390076,-19.923399,-1.688356,-4.258824
88,-0.077805,-2.516724,5.795311,-52.307495,-11.536448,0.834205,-21.621101,-1.871303,-4.186296
89,-0.112700,-1.715944,4.922301,-54.367493,-11.675307,4.333152,-23.196520,-2.029611,-3.981993
90,-0.077481,-1.739076,4.913113,-47.566444,-11.013056,5.698855,-24.634943,-2.156853,-3.694655
91,-0.165845,-2.074075,5.353692,-27.247221,-9.188049,6.385522,-25.657707,-2.181110,-3.382277
92,0.227992,-2.833076,6.531842,-2.650827,-4.762865,6.022352,-26.030869,-2.280542,-3.100521
93,0.483285,-3.110556,8.034122,13.476679,-0.360570,4.427760,-25.623281,-2.328103,-2.906663
94,0.855420,-4.384661,9.577117,15.126204,0.712156,5.816351,-25.125004,-2.368216,-2.753477
95,1.232747,-5.360937,10.971416,20.041210,2.039711,4.975566,-24.619568,-2.425355,-2.607907
96,0.977146,-5.340952,11.405721,21.904366,3.570214,2.709567,-23.982101,-2.393960,-2.527926
97,0.953682,-5.030966,11.023423,14.112991,3.226881,2.083938,-23.440340,-2.369917,-2.498681
98,0.791967,-5.026831,10.669697,10.168473,2.703489,1.395746,-23.145723,-2.335338,-2.482688
99,0.569232,-4.175872,9.746046,16.945108,2.766052,-0.688668,-22.717842,-2.288174,-2.505744
100,0.516604,-3.499693,8.827093,15.225390,2.756896,-3.532993,-22.150084,-2.274825,-2.605012
101,1.385731,-3.863614,8.900347,5.439630,0.904422,-5.077230,-21.882751,-2.565864,-2.761136
102,0.966211,-4.259905,9.082728,1.757572,-0.914481,-6.536015,-21.923780,-2.781689,-2.942634
103,1.042296,-4.122386,9.237067,0.008861,-2.507547,-6.064504,-21.994484,-3.061451,-3.120085
104,1.042432,-4.059513,9.206798,-4.875627,-4.541605,-2.925675,-22.157047,-3.360824,-3.220321
105,0.875416,-3.932752,9.115625,-6.683848,-6.339146,2.526457,-22.402601,-3.606639,-3.163940
106,0.287374,-3.464721,8.947694,-4.659182,-6.053611,5.390789,-22.532112,-3.646039,-2.968303
107,0.903414,-3.314033,9.009010,0.589764,-4.146018,7.098469,-22.495255,-3.806211,-2.713546
108,1.105613,-3.492684,9.207828,8.455673,-1.663150,6.914001,-22.281519,-3.936193,-2.460574
109,1.087459,-3.412312,9.352636,14.899420,0.332947,0.996633,-21.808146,-4.022652,-2.329206
110,0.850039,-3.244033,9.418672,15.956649,1.526408,-4.183715,-21.175346,-4.056693,-2.389904
111,1.072468,-3.872404,9.372236,11.836651,1.480630,-4.340885,-20.788883,-4.160850,-2.540753
112,0.910574,-3.784654,9.331136,10.218090,1.018633,-5.524269,-20.492586,-4.230099,-2.709937
113,0.788550,-3.811430,9.195347,8.297396,-0.186490,-4.852127,-20.288874,-4.290696,-2.878234
114,0.730048,-3.821787,9.171896,9.738316,-0.505051,-0.883986,-20.113878,-4.328283,-2.965195
115,0.974412,-4.011190,9.230154,10.907028,-0.827320,1.066670,-19.956491,-4.407225,-2.955290
116,0.810084,-3.407587,9.321323,15.355782,-0.405297,0.071832,-19.548674,-4.432317,-2.930853
117,0.766337,-3.236717,9.259879,17.699839,-0.842727,0.876852,-19.012804,-4.447628,-2.909467
119,0.788096,-3.196743,9.309104,12.801853,-1.170291,-1.121253,-18.527367,-4.485370,-2.903539
120,0.757762,-3.158470,9.424629,9.381635,-1.035345,-3.059839,-18.172104,-4.533318,-2.959924
121,0.678172,-2.944529,9.379666,7.142096,-0.242145,-3.789573,-17.865677,-4.557255,-3.063761
122,0.685689,-2.805145,9.352847,3.214056,0.401873,-3.707057,-17.634150,-4.564543,-3.184845
123,0.681167,-2.809744,9.508706,-3.265331,1.579966,-4.425653,-17.565807,-4.542155,-3.324471
124,0.694047,-2.632786,9.565886,-1.742811,2.864976,-3.943216,-17.524475,-4.488105,-3.478927
125,0.833636,-2.540173,9.647976,-1.346136,3.456988,-4.239634,-17.422546,-4.446134,-3.638814
126,0.671720,-2.552505,9.709174,1.190865,3.850705,-4.154679,-17.277737,-4.344768,-3.806585
127,0.602773,-2.459770,9.762295,5.655111,3.392955,-3.602792,-17.000916,-4.226019,-3.963842
128,0.598453,-2.372642,9.700557,9.267742,2.070255,-2.811361,-16.592588,-4.133502,-4.091446
129,0.467911,-2.347674,9.598596,10.431491,0.755497,-0.944856,-16.133112,-4.036857,-4.164419
130,0.371828,-2.349127,9.502141,9.518869,-0.278539,1.452294,-15.705252,-3.934442,-4.158331
131,0.544871,-2.327502,9.390512,7.182560,-0.804441,2.932362,-15.356537,-3.896434,-4.082979
132,0.421768,-2.387350,9.356243,6.008563,-0.311517,4.577337,-15.103722,-3.811921,-3.956943
133,0.548266,-2.339608,9.143933,8.631216,0.571795,5.328146,-14.844460,-3.742390,-3.797730
134,0.728949,-2.257978,8.564512,7.589940,1.823966,3.856255,-14.592527,-3.716233,-3.658631
135,0.546728,-1.975844,8.042628,4.365216,3.784289,3.270406,-14.369391,-3.604679,-3.565243
136,0.499584,-1.713578,8.148168,1.790536,5.282257,3.450571,-14.151575,-3.430517,-3.491460
137,0.422375,-1.364895,8.549034,5.420712,6.258849,2.440408,-13.786188,-3.198533,-3.440275
138,0.160072,-1.222264,9.354079,10.268579,8.062492,4.089934,-13.223296,-2.842264,-3.388915
139,0.007716,-1.052179,11.171107,17.783762,8.358522,6.058378,-12.391951,-2.411934,-3.285852
140,0.200305,-1.193780,13.211543,28.021196,8.048759,6.590926,-11.311541,-2.036951,-3.140188
141,0.033663,-1.387715,14.107557,36.670143,7.436863,8.014614,-10.009326,-1.654689,-2.956128
142,0.106939,-1.933410,14.295733,30.062885,5.772078,10.689561,-8.845322,-1.333420,-2.693034
143,0.182576,-2.327435,13.770706,13.610357,3.721235,11.829427,-8.199671,-1.097761,-2.351436
144,0.010047,-2.468705,12.003388,-6.852304,4.130183,13.416389,-8.271723,-0.863179,-1.956771
145,-0.284848,-2.389490,9.705174,-28.087084,5.158657,14.496744,-9.110018,-0.529524,-1.520450
146,-0.130344,-2.098567,7.800711,-49.656040,5.805649,12.606123,-10.643250,-0.220610,-1.102826
147,-0.345267,-1.412171,6.162163,-59.617283,6.928730,9.377264,-12.488793,0.204329,-0.778608
148,-0.310153,-1.027632,5.221262,-57.644260,7.359041,6.374243,-14.277940,0.631720,-0.568711
149,-0.132308,-1.024350,5.204357,-45.130146,6.025382,1.971949,-15.747715,0.907320,-0.484306
150,-0.186030,-1.090350,5.673134,-26.838877,3.358064,-0.318466,-16.644035,1.104135,-0.497930
151,-0.346269,-1.568293,6.731883,-7.259727,0.507635,-0.973088,-17.008062,1.245415,-0.536515
152,-0.062858,-2.730434,8.521845,6.653661,-2.629668,-3.237561,-17.056669,1.151745,-0.592475
153,-0.160858,-2.997835,10.237488,21.952589,-4.730866,-6.487782,-16.569315,0.980803,-0.709229
154,-0.392525,-3.464054,11.709923,26.701269,-6.050792,-5.808745,-15.797040,0.804021,-0.850337
155,-0.156447,-3.323007,12.034173,24.555819,-6.453636,-6.916567,-14.969571,0.553527,-0.992508
156,0.058984,-2.924489,11.879535,18.243065,-5.501459,-9.229870,-14.237179,0.262004,-1.195644
157,-0.069121,-2.156370,10.933331,12.452178,-3.972481,-9.734951,-13.598930,0.045900,-1.458526
158,-0.129540,-2.060713,9.983900,0.675085,-3.285815,-9.104744,-13.294965,-0.103329,-1.731361
159,-0.012512,-1.694801,9.169851,-5.082232,-3.183578,-10.369737,-13.223403,-0.265594,-2.019025
160,0.108773,-2.112294,9.335824,-9.721045,-3.279712,-10.897706,-13.433072,-0.461703,-2.335903
161,0.051115,-2.534002,9.555076,-10.992141,-3.734438,-9.852448,-13.830187,-0.637203,-2.641611
162,0.153083,-2.593931,9.746615,-10.976882,-3.967904,-8.427234,-14.229287,-0.835472,-2.903576
163,0.322752,-2.635578,9.802210,-12.281549,-3.998423,-7.529989,-14.635825,-1.068331,-3.125789
164,0.511633,-2.556795,9.614939,-12.865977,-3.601682,-7.787870,-15.043360,-1.339112,-3.338089
165,0.393677,-2.356127,9.472789,-13.300867,-3.191208,-7.922152,-15.399394,-1.555316,-3.559047
166,0.403148,-2.363745,9.540098,-12.005356,-3.185104,-8.067115,-15.720396,-1.758883,-3.785078
167,0.228260,-2.375102,9.542375,-8.238354,-2.645029,-7.025612,-15.947829,-1.890416,-3.998169
168,0.198324,-2.397526,9.647925,-3.959705,-2.278259,-4.826735,-16.036306,-1.979173,-4.162994
169,0.139435,-2.524898,9.820918,-0.635638,-1.957961,-1.962180,-16.025324,-2.013664,-4.250008
170,0.080093,-2.572147,9.749337,4.893392,-1.858923,1.898805,-15.896182,-1.994103,-4.231890
171,0.126135,-2.355891,9.556623,7.910499,-1.733668,5.405340,-15.595493,-1.954057,-4.097670
172,0.391039,-2.351019,9.681077,7.724875,-1.951976,6.571260,-15.257482,-1.973498,-3.888656
173,0.420972,-2.308648,9.683691,8.885455,-1.919604,6.767664,-14.909617,-1.998816,-3.657012
174,0.449227,-2.112811,9.634221,10.269697,-1.846862,6.882820,-14.487087,-2.030606,-3.420888
175,0.614868,-1.968573,9.721362,8.743918,-1.502836,4.970682,-14.040914,-2.110008,-3.215462
176,0.559694,-1.834770,9.734148,8.280628,-0.867529,3.391322,-13.607984,-2.169853,-3.070488
177,0.434445,-1.635402,9.643083,8.228066,-0.359315,3.352921,-13.151514,-2.181863,-2.956690
178,0.471106,-1.474953,9.636745,6.493227,0.250311,3.057498,-12.699713,-2.189264,-2.853245
179,0.431144,-1.400266,9.675733,4.538792,0.792615,2.760966,-12.305072,-2.169329,-2.764320
180,0.342109,-1.311984,9.695601,3.891138,1.159219,3.731623,-11.945223,-2.108615,-2.668375
181,0.369950,-1.324933,9.749158,2.330473,1.006095,4.565669,-11.640935,-2.049782,-2.544145
182,0.475711,-1.354088,9.818867,1.372959,0.750251,4.445506,-11.397712,-2.028297,-2.406517
183,0.517937,-1.350239,9.804319,0.755299,0.219421,4.534433,-11.191048,-2.033239,-2.265938
184,0.611028,-1.390927,9.806224,-1.024307,-0.335331,3.593219,-10.887533,-2.160747,-2.134426
185,0.678611,-1.419625,9.828364,-2.321988,-0.498494,1.428347,-10.673638,-2.333376,-2.049915
186,0.682370,-1.345941,9.887789,-1.918215,-0.145646,-1.425642,-10.445040,-2.500626,-2.047113
187,0.618204,-1.245308,9.891331,-1.861173,0.791362,-5.201536,-10.336891,-2.562069,-2.156671
188,0.555419,-1.197327,9.951897,-2.182222,2.155695,-10.040540,-10.216177,-2.590100,-2.414909
189,0.373453,-1.130733,9.987122,-1.822129,3.849315,-14.252665,-10.073936,-2.541982,-2.832137
190,0.252289,-1.135473,10.006866,-0.702367,5.701228,-18.412848,-9.909912,-2.428795,-3.399562
191,0.157011,-1.142552,9.986838,0.486329,7.997746,-22.607616,-9.714842,-2.251079,-4.119555
192,0.040927,-1.154908,9.951262,1.733010,10.153879,-25.668623,-9.492263,-1.997207,-4.975721
193,-0.072366,-1.117699,9.871998,2.593632,12.197093,-28.369513,-9.238745,-1.670198,-5.942794
194,-0.100353,-1.136409,9.869244,2.025988,14.186899,-31.926443,-8.999928,-1.300796,-7.027828
195,-0.096318,-1.217456,9.868300,1.478181,15.543447,-34.840961,-8.817255,-0.910674,-8.231104
196,-0.140784,-1.167098,9.868340,1.252344,16.079046,-36.595776,-8.647434,-0.505018,-9.517272
197,-0.128857,-1.185261,10.138404,-0.604708,16.442217,-38.638988,-8.522814,-0.115455,-10.868079
198,-0.263174,-1.067836,10.510817,-0.290367,16.297255,-39.557598,-8.393894,0.289424,-12.267267
199,-0.330637,-1.070451,10.622509,0.298640,15.381700,-36.777359,-8.263552,0.681942,-13.631800
200,-0.416630,-1.099567,10.706091,-2.219137,14.980381,-32.265198,-8.183495,1.075922,-14.873072
201,-0.506275,-1.262757,10.680985,-6.099566,14.586692,-27.431067,-8.258271,1.484960,-15.960233
202,-0.562973,-1.542483,10.339226,-9.673283,13.533804,-21.045069,-8.537394,1.895827,-16.860672
203,-0.447111,-1.891567,9.772769,-13.741400,12.514485,-14.637709,-9.046884,2.255373,-17.547018
204,-0.397997,-1.853367,9.369888,-17.164051,11.554678,-10.381903,-9.659397,2.578277,-18.054708
205,-0.341196,-1.950086,9.093024,-18.955488,9.151345,-6.919578,-10.367019,2.833706,-18.425482
206,-0.250523,-1.955219,8.907060,-17.457027,6.354324,-4.978601,-11.054933,2.979944,-18.687960
207,-0.320554,-1.748011,8.973389,-15.567932,3.534414,-4.235475,-11.584957,3.058202,-18.882502
208,-0.357472,-1.680273,9.161027,-13.340543,0.898647,-3.733286,-11.990328,3.059323,-19.031185
209,-0.435834,-1.728285,9.420123,-10.452396,-1.680166,-1.694230,-12.291700,3.007107,-19.113121
210,-0.533674,-1.620370,9.560651,-8.188354,-4.223882,3.103699,-12.451060,2.927778,-19.059729
211,-0.600992,-1.611773,9.812946,-7.232028,-6.576858,10.958056,-12.525956,2.835153,-18.779913
212,-0.544709,-1.724927,9.973536,-6.791467,-8.250797,20.046888,-12.585749,2.724455,-18.210785
213,-0.482205,-1.771904,10.008761,-10.320902,-10.319456,29.466686,-12.689264,2.607548,-17.329554
214,-0.260520,-2.081077,9.992779,-15.029908,-13.024921,38.223972,-12.992082,2.424223,-16.136053
215,-0.025064,-2.280808,9.978718,-17.895596,-15.466402,43.102356,-13.448101,2.156589,-14.699664
216,0.186324,-2.487659,9.893141,-22.145298,-17.909409,44.562668,-14.056597,1.799552,-13.135986
217,0.423096,-2.567396,9.673247,-23.828394,-20.138786,43.630325,-14.773086,1.335307,-11.536173
218,0.586403,-2.677659,9.533913,-23.259224,-21.789837,41.028622,-15.524192,0.789614,-9.966634
219,0.665985,-2.545880,9.419488,-21.624958,-21.882917,36.464581,-16.189232,0.207638,-8.495073
220,0.633053,-2.479430,9.290521,-20.379803,-20.286800,31.117737,-16.780996,-0.341491,-7.183254
222,0.425108,-2.485021,9.156980,-18.965269,-15.821943,23.599503,-17.324596,-0.755751,-6.106170
223,0.262750,-2.523391,9.173404,-19.438305,-11.102256,17.109741,-17.842106,-1.016165,-5.302981
224,0.135200,-2.504711,9.231658,-18.670765,-6.175042,10.708485,-18.319885,-1.134105,-4.761170
225,-0.086553,-2.507246,9.292953,-17.959684,-1.128807,4.867242,-18.743774,-1.085503,-4.474655
226,-0.291212,-2.669171,9.466756,-18.451033,4.276021,0.123139,-19.171566,-0.874438,-4.423623
227,-0.269371,-2.645466,9.637487,-16.445967,8.486050,-1.068608,-19.531702,-0.567426,-4.534320
228,-0.269407,-2.578698,9.632631,-13.742027,12.630464,-1.939912,-19.780573,-0.162116,-4.741757
229,-0.290639,-2.690003,9.617563,-13.778649,16.951885,-2.101660,-20.007301,0.348852,-5.033527
230,-0.226546,-2.875972,9.474678,-11.697287,20.162432,-3.153023,-20.255175,0.921142,-5.406367
231,-0.071862,-2.774764,9.258657,-8.988770,21.171068,-4.790340,-20.408064,1.467496,-5.856303
232,0.001797,-2.891941,9.073849,-11.672873,20.214314,-7.085332,-20.607250,1.942653,-6.367468
233,0.067680,-3.054574,9.053130,-14.009064,17.325737,-9.705347,-20.929459,2.288766,-6.921172
234,0.089289,-3.052848,9.074727,-13.505508,12.169634,-11.489153,-21.266006,2.465289,-7.473847
235,-0.064854,-3.083105,9.266251,-15.072634,6.303976,-11.380813,-21.593700,2.503700,-7.959023
236,-0.165729,-3.323437,9.478149,-15.756248,0.131607,-9.220102,-21.983038,2.401652,-8.308632
237,-0.190593,-3.496105,9.587156,-11.567583,-6.344420,-6.401718,-22.326605,2.152188,-8.475933
238,-0.252522,-3.584108,9.621183,-7.021852,-11.943041,-2.979067,-22.527487,1.791092,-8.445959
239,-0.245450,-3.631886,9.592503,-3.939482,-15.490817,-0.725275,-22.607876,1.346282,-8.251885
240,-0.165975,-3.618249,9.459432,-2.846919,-17.762920,0.036162,-22.626369,0.835542,-7.961309
241,-0.183048,-3.430156,9.188517,-4.273659,-18.055899,-0.247660,-22.627241,0.322420,-7.639790
242,-0.229403,-3.385180,8.935842,-7.578814,-15.879929,-1.181526,-22.718958,-0.129604,-7.351583
243,-0.391938,-3.317194,8.798133,-10.298013,-12.635811,-2.448045,-22.898613,-0.442569,-7.142318
244,-0.439678,-3.260408,8.777252,-13.293405,-9.290982,-2.119971,-23.146414,-0.634103,-7.004838
245,-0.296673,-3.275488,8.843989,-14.556870,-5.972094,-0.069127,-23.446798,-0.748262,-6.894104
246,-0.110275,-3.553797,9.064684,-11.666312,-2.386060,0.422145,-23.760715,-0.797781,-6.811217
247,-0.042952,-3.460297,9.340915,-6.375472,1.322049,-1.428880,-23.874557,-0.767497,-6.815078
248,0.189250,-3.548470,9.480416,-1.855225,6.424854,-4.712748,-23.835308,-0.709810,-6.973079
249,0.155533,-3.514762,9.517081,3.109067,11.726029,-10.081030,-23.632973,-0.550088,-7.348982
250,-0.051106,-3.354445,9.507656,6.312441,16.986004,-13.950853,-23.268114,-0.244897,-7.952296
251,-0.238791,-3.110320,9.481268,5.402989,21.669069,-15.992542,-22.822763,0.208891,-8.731288
252,-0.358804,-3.052954,9.339535,2.566294,24.762121,-15.614113,-22.460346,0.783650,-9.606538
253,-0.573210,-2.912681,9.263257,-1.590328,24.273825,-12.881180,-22.200594,1.456122,-10.463120
254,-0.568153,-3.008309,9.187174,-6.900548,21.498167,-8.326292,-22.142504,2.094094,-11.188448
255,-0.530872,-3.204393,9.153964,-10.690948,17.239307,-6.177789,-22.292000,2.627340,-11.755618
256,-0.479681,-3.204700,9.085726,-11.875066,11.660524,-5.210352,-22.519920,2.993980,-12.187572
257,-0.427155,-3.261793,9.133085,-13.259080,5.323356,-3.956042,-22.785997,3.163782,-12.475949
258,-0.291304,-3.523230,9.223042,-12.877599,-0.186762,-3.743938,-23.113550,3.118279,-12.629935
259,-0.373034,-3.549062,9.298500,-8.412741,-4.027516,-4.236812,-23.344471,2.959019,-12.695528
260,-0.259864,-3.569970,9.412789,-5.812563,-7.134301,-2.649850,-23.442663,2.679680,-12.676534
261,-0.277081,-3.742485,9.472166,-4.243912,-10.617989,0.423364,-23.503975,2.351702,-12.528312
262,-0.287973,-3.762580,9.474185,-2.313617,-13.109824,2.881630,-23.507069,1.991295,-12.245554
263,-0.328985,-3.479127,9.343721,-1.308031,-14.138298,4.636445,-23.399633,1.638070,-11.870760
264,-0.189810,-3.492908,9.220956,-3.844120,-14.846328,6.885658,-23.337589,1.262872,-11.425003
265,-0.244899,-3.399334,8.867027,-3.822757,-14.409913,6.752903,-23.331175,0.934021,-10.948200
266,-0.200514,-3.399499,8.719857,-4.017636,-11.832474,4.649078,-23.347221,0.638678,-10.531156
267,-0.003739,-3.634257,8.678545,-4.408484,-8.224861,2.263341,-23.446127,0.359645,-10.235836
268,0.118170,-3.867794,8.768665,-5.569924,-4.626404,0.234670,-23.620762,0.135254,-10.071790
269,0.147913,-3.969816,8.861748,-6.081321,-0.678509,-2.900296,-23.830639,-0.009111,-10.052539
270,0.148608,-4.107442,9.104291,-6.357724,3.548629,-6.253469,-24.050266,-0.068128,-10.202154
271,0.111390,-4.066792,9.195464,-6.001308,7.272062,-8.795277,-24.236109,-0.036674,-10.510805
272,-0.043649,-3.887310,9.273933,-5.656449,9.141321,-10.435647,-24.345631,0.090141,-10.931956
273,-0.224678,-3.693951,9.208742,-4.035916,9.908861,-11.416817,-24.374910,0.283068,-11.414719
274,-0.259363,-3.606970,9.260690,-1.483642,9.416134,-9.978697,-24.308960,0.482674,-11.894497
275,-0.134152,-3.499666,9.301995,0.674791,7.061190,-8.083450,-24.139587,0.617004,-12.301267
276,-0.078572,-3.359181,9.453787,0.305636,3.435055,-5.382893,-23.897606,0.672568,-12.585777
277,-0.045598,-3.290475,9.503510,-1.017223,-0.168192,-1.299846,-23.670168,0.655933,-12.706580
278,0.058118,-3.325502,9.571148,-3.171711,-3.791275,2.726741,-23.510454,0.558287,-12.646542
279,0.023003,-3.284970,9.487148,-9.796562,-7.123053,4.849802,-23.493341,0.413376,-12.433825
280,-0.104016,-3.207772,9.354883,-17.426844,-9.567681,7.846343,-23.693666,0.260644,-12.093985
281,-0.119191,-3.352123,9.121049,-19.898844,-11.313340,10.046727,-24.106682,0.093236,-11.642414
282,-0.109891,-3.457698,8.923599,-19.868326,-11.385058,10.457201,-24.588652,-0.075553,-11.137341
283,-0.123159,-3.554489,8.864658,-17.598278,-10.083410,10.092144,-25.044827,-0.210438,-10.644377
284,-0.122993,-3.598084,8.871150,-10.331809,-8.287054,9.794104,-25.339670,-0.295026,-10.193369
285,-0.095260,-3.772110,8.991959,-1.784287,-5.478209,8.130312,-25.403933,-0.328816,-9.817866
286,-0.081842,-3.828597,9.117657,3.893520,-2.018018,5.709139,-25.240580,-0.302048,-9.563177
287,-0.116955,-3.681602,9.148248,7.747846,0.937092,2.323581,-24.891005,-0.213946,-9.452124
288,-0.188625,-3.473232,9.168032,8.878924,3.663280,-0.196416,-24.420677,-0.067723,-9.477441
289,-0.225561,-3.392375,9.215735,7.757596,5.938497,-2.716448,-23.946487,0.120590,-9.620643
290,-0.411721,-3.174795,9.133041,8.744295,6.619847,-3.950078,-23.446415,0.374712,-9.842923
291,-0.509553,-2.809995,9.159698,7.070069,6.694404,-3.394324,-22.877253,0.654459,-10.081581
292,-0.513741,-2.681655,9.217767,3.846435,5.635361,-1.887008,-22.372900,0.921351,-10.283162
293,-0.506414,-2.563858,9.149420,-0.214932,3.039711,1.221004,-21.980173,1.150279,-10.386352
294,-0.586099,-2.191350,9.011420,-3.944048,0.604797,4.754908,-21.629072,1.362496,-10.350748
295,-0.387575,-2.094938,9.092762,-12.884200,-1.047316,7.206931,-21.458784,1.477000,-10.195143
296,-0.259733,-2.320884,9.102718,-17.779963,-2.585285,6.638670,-21.580971,1.509341,-9.981265
297,-0.159990,-2.283165,9.047201,-19.426437,-3.238381,3.281634,-21.794521,1.454779,-9.792871
298,-0.040504,-2.330296,9.071050,-18.956451,-2.997285,-2.089623,-22.031456,1.309512,-9.708265
299,0.185115,-2.666886,9.169558,-17.209267,-2.704307,-6.765059,-22.315573,1.052289,-9.752234
300,0.304697,-2.966564,9.210264,-12.367506,-2.280100,-11.370302,-22.565474,0.727867,-9.915247
301,0.322528,-3.024064,9.210481,-7.995729,-1.395064,-14.504553,-22.673836,0.385915,-10.184045
302,0.355616,-3.320772,9.483144,-5.246012,-0.537494,-13.985738,-22.718699,0.063530,-10.502005
303,0.390275,-3.558563,9.755458,-2.540546,0.558121,-13.349427,-22.709663,-0.213959,-10.827319
304,0.380515,-3.745735,9.947316,-0.593465,2.285468,-13.352479,-22.654953,-0.427492,-11.177249
305,0.248140,-3.914331,9.965672,0.578446,4.409557,-13.868242,-22.592150,-0.540884,-11.578121
306,0.190048,-3.930786,9.748475,-0.202828,5.604356,-13.006094,-22.550781,-0.582964,-12.013814
307,0.059962,-3.995509,9.431152,-0.843214,6.635369,-11.123376,-22.583620,-0.538288,-12.443221
308,-0.079029,-4.123265,9.111404,-0.581188,7.230295,-8.700392,-22.690748,-0.406452,-12.840782
309,-0.203017,-4.032394,8.843476,-0.050229,6.722218,-7.162212,-22.789154,-0.219049,-13.192466
310,-0.243461,-3.945996,8.691552,-0.471491,4.882538,-3.410935,-22.877529,-0.030240,-13.453948
311,-0.315384,-4.136695,8.695512,0.287819,2.927776,0.901299,-23.136412,0.253796,-13.575381
312,-0.287160,-4.170568,8.785516,1.615549,1.019387,2.890781,-23.333481,0.474364,-13.576821
313,-0.267716,-4.146733,8.981750,1.384001,-0.656709,4.108085,-23.357729,0.577195,-13.498177
314,-0.261516,-4.250207,9.250342,0.418112,-1.698261,5.843970,-23.393673,0.650128,-13.352591
315,-0.207668,-4.302650,9.361099,0.354670,-2.338167,6.041143,-23.443876,0.691359,-13.164325
316,-0.134335,-4.236619,9.518687,0.569300,-2.496615,4.863693,-23.454502,0.692097,-12.978315
317,-0.125108,-4.086062,9.504044,0.214577,-2.465380,3.603821,-23.430716,0.673408,-12.819729
318,-0.022263,-3.994769,9.327353,0.022024,-2.392369,2.445764,-23.413256,0.613568,-12.691051
319,0.047776,-3.967348,9.075624,0.328289,-2.194390,1.620253,-23.426954,0.485688,-12.589085
320,0.067523,-3.819298,9.005746,0.398701,-1.391879,0.600421,-23.370995,0.361446,-12.520733
321,0.053948,-3.653211,8.977277,1.595868,-0.547786,-0.614742,-23.218204,0.266633,-12.498190
322,0.012180,-3.597395,9.018685,1.781169,-0.073774,-0.836636,-23.020432,0.215617,-12.508144
323,-0.087833,-3.568175,9.111518,0.593712,0.243011,-0.596678,-22.821442,0.239373,-12.527151
325,-0.168179,-3.405489,9.163304,-0.395419,-0.249051,-0.160913,-22.575092,0.309472,-12.536090
326,-0.264984,-3.292571,9.182492,-1.355073,-0.713174,0.706287,-22.316402,0.423935,-12.518361
327,-0.245247,-3.245654,9.146832,-3.956936,-1.021870,1.500781,-22.261236,0.463034,-12.471839
328,-0.190189,-3.302247,9.141455,-6.086814,-1.187616,2.204288,-22.299757,0.485806,-12.401978
329,-0.200149,-3.251748,9.099945,-6.659161,-1.225428,2.084795,-22.369125,0.511236,-12.322838
330,-0.230840,-3.264583,9.078933,-7.864562,-0.588516,1.182118,-22.468994,0.547284,-12.262894
331,-0.156908,-3.319915,9.136798,-8.894685,-0.053910,0.372001,-22.609106,0.566124,-12.237010
332,-0.297217,-3.361091,9.276059,-9.482459,-0.090318,0.283469,-22.765396,0.625961,-12.227617
333,-0.397336,-3.350089,9.326394,-9.700824,-0.722620,0.681835,-22.918585,0.703498,-12.206668
334,-0.414527,-3.419743,9.348779,-10.015164,-1.322309,1.756086,-23.088869,0.772720,-12.153921
335,-0.336307,-3.433431,9.341072,-9.929712,-1.822812,2.096368,-23.258318,0.808867,-12.071630
336,-0.318253,-3.500514,9.300946,-9.629106,-1.436753,-0.804417,-23.435776,0.820673,-12.017244
337,-0.171375,-3.764124,9.179868,-9.466509,-1.314229,-1.127516,-23.681271,0.776996,-12.005698
338,-0.055201,-3.807934,9.137491,-10.883245,0.288444,-4.049266,-23.951515,0.706360,-12.051636
339,-0.003513,-3.704373,9.227962,-11.520232,2.738004,-9.948096,-24.205072,0.626161,-12.246110
340,-0.225457,-3.652780,9.325157,-11.264554,3.924099,-11.490411,-24.429207,0.617085,-12.567957
341,-0.390441,-3.544984,9.364450,-10.194685,3.172704,-7.896548,-24.587788,0.673988,-12.871401
342,-0.453014,-3.200210,9.444211,-9.424076,2.990549,-7.567125,-24.607950,0.757580,-13.118856
343,-0.541934,-3.033613,9.428351,-7.187731,1.862349,-5.635391,-24.535112,0.859155,-13.324394
344,-0.421139,-3.000271,9.371902,-6.190620,-0.175599,-0.984573,-24.409195,0.919378,-13.417794
345,-0.100145,-2.964057,9.311967,-5.894686,-0.835473,0.573786,-24.262890,0.885472,-13.409426
346,0.120806,-2.975889,9.228398,-6.902765,0.007254,-0.327558,-24.145874,0.795190,-13.396220
347,0.145199,-3.036488,9.182831,-8.097676,1.118023,-1.375303,-24.091413,0.717645,-13.428861
348,0.126524,-3.074701,9.313326,-9.552843,1.557356,-1.841760,-24.080650,0.662660,-13.497499
349,-0.090695,-3.131930,9.379891,-8.172329,1.664968,-1.709945,-24.081341,0.679428,-13.576677
350,-0.376031,-3.177901,9.360362,-6.125690,2.046521,-2.606725,-24.042307,0.780145,-13.670162
351,-0.468827,-3.332111,9.465200,-5.118817,0.748634,-1.881664,-23.988970,0.886315,-13.753496
352,-0.537787,-3.279415,9.602283,-3.297816,-0.377314,-0.855357,-23.866190,0.981416,-13.786913
353,-0.607587,-3.229688,9.648499,0.116315,-1.256388,0.548223,-23.648493,1.077570,-13.768817
354,-0.477780,-3.238149,9.513140,2.794621,-3.457546,2.191378,-23.358589,1.108884,-13.678813
355,-0.159359,-3.298176,9.596661,4.819786,-6.329549,3.122984,-23.015779,0.989797,-13.495829
356,-0.247155,-3.128407,9.497547,8.540867,-8.072972,3.571088,-22.561607,0.843162,-13.238337
357,-0.146528,-3.121908,9.367769,10.513951,-9.368809,4.870021,-22.049738,0.640570,-12.923202
358,0.166266,-3.185989,9.215977,12.441195,-9.495461,5.430035,-21.533907,0.345225,-12.570402
359,0.285934,-3.157095,9.158914,11.643136,-6.257447,2.050110,-21.024912,0.056116,-12.287995
360,0.299806,-3.092426,9.266864,10.057699,-2.724929,-1.956970,-20.552395,-0.166214,-12.171732
361,0.313361,-3.060205,9.395972,9.760143,0.758759,-5.243813,-20.112772,-0.318007,-12.224012
362,0.322923,-3.055265,9.478317,9.619759,3.899113,-10.290049,-19.692398,-0.410922,-12.451403
363,0.074292,-2.971434,9.531331,8.917832,6.053720,-14.303232,-19.277294,-0.395815,-12.845346
364,-0.096412,-2.961835,9.641363,10.314054,5.980475,-14.602314,-18.859289,-0.321657,-13.313968
365,-0.321068,-3.275224,9.812385,11.823195,5.165631,-12.386670,-18.485815,-0.189632,-13.751690
366,-0.279093,-3.245856,10.293521,12.166528,2.756195,-11.651175,-18.054953,-0.109190,-14.118020
367,-0.465845,-2.782380,11.038215,18.604408,0.194166,-7.097813,-17.371553,-0.035572,-14.364884
368,-0.585423,-3.051819,11.689195,20.815474,-5.438025,-1.464096,-16.610233,-0.016083,-14.397441
369,-0.472436,-3.599529,13.097459,15.227534,-8.151120,4.483962,-15.977423,-0.108153,-14.197219
370,-0.365187,-3.882926,13.931412,21.328184,-8.546335,9.188390,-15.378820,-0.223846,-13.837288
371,-0.178425,-4.025786,13.742450,45.810135,-7.528543,11.880122,-14.364408,-0.332054,-13.398442
372,0.094980,-3.898856,13.027956,65.297729,-5.274751,8.629901,-12.721738,-0.447517,-13.004184
373,0.426795,-3.644889,12.465095,72.002647,1.448477,4.342051,-10.728066,-0.528749,-12.801840
374,0.663832,-2.710783,11.658767,81.026970,4.192091,-3.757561,-8.422990,-0.569377,-12.857636
375,0.556477,-1.796826,10.419900,93.364075,9.549616,-9.597278,-5.727479,-0.510086,-13.175226
376,0.170854,-1.152846,10.735553,81.426758,15.714355,-11.765618,-2.976462,-0.173620,-13.710571
377,-0.155946,-0.618499,10.532440,64.368439,12.284074,-9.319559,-0.684903,0.292953,-14.261706
378,-0.104263,0.213426,10.308750,58.667580,9.787660,-6.929960,1.356621,0.647495,-14.682654
379,-1.020318,1.000923,9.275904,55.803417,6.165112,0.588274,3.408744,1.178193,-14.901481
380,-0.268345,1.996984,8.939455,32.748211,-3.649640,6.046509,5.272028,1.237177,-14.822272
381,0.012803,2.480940,7.843723,9.903580,-10.284364,10.108523,6.566359,0.930630,-14.481455
382,0.109295,2.601110,7.416084,-10.189807,-8.531075,8.399487,7.204911,0.518010,-14.073189
383,0.002262,2.585808,6.961089,-31.714512,-9.333713,1.630481,7.202055,0.191985,-13.802454
384,0.777766,2.335285,6.877655,-51.849098,-6.187254,-6.429457,6.456284,-0.357500,-13.773228
385,0.107092,1.899779,6.878914,-66.064621,-0.516916,-11.739677,5.039220,-0.454273,-14.003976
386,-0.175111,1.786532,6.917318,-72.961807,1.385914,-17.300150,3.313379,-0.302668,-14.446053
387,-0.022509,0.968961,6.630257,-70.131210,3.340624,-20.744164,1.301659,-0.160203,-15.043897
388,0.147131,0.084297,6.051081,-51.060196,5.096965,-17.715202,-0.639887,-0.062988,-15.670604
389,0.019116,-0.727481,5.288113,-25.555878,5.902654,-14.934965,-2.211588,0.107767,-16.230320
390,-0.328624,-0.766583,4.157246,-1.591218,6.645780,-14.928862,-3.053419,0.511471,-16.761663
391,0.092750,-1.366359,3.266017,15.465578,6.218520,-15.516343,-3.818875,0.592120,-17.302399
392,-0.119020,-1.228852,2.526909,29.266048,4.350787,-14.242195,-4.220987,0.822738,-17.811663
393,-0.222502,-1.251548,2.543401,33.563053,1.868106,-12.295115,-4.330372,1.074893,-18.236645
394,-0.189038,-0.879834,3.294594,35.511662,0.197218,-14.484818,-3.774891,1.180763,-18.629543
395,-0.164029,-0.792617,4.669295,29.324032,-1.418738,-17.178076,-3.051149,1.166379,-19.066317
396,-0.427516,0.541490,6.638606,23.452271,-3.164396,-20.797571,-1.842015,1.183805,-19.570419
397,-0.687635,0.880825,9.266434,8.342558,-3.024011,-17.501574,-0.987330,1.211543,-20.072180
398,-0.676279,2.126945,11.317818,-5.439601,-2.604382,-17.373396,-0.371323,1.216276,-20.534691
399,-0.942501,2.250708,13.146143,-24.759344,-3.091152,-12.112004,-0.355012,1.261414,-20.920223
400,-0.670168,2.695776,14.304338,-32.752140,-3.808337,-7.131384,-0.720767,1.218964,-21.145241
401,-0.183831,1.471183,14.810319,-37.641209,-3.043848,-0.377637,-1.518239,1.084136,-21.197256
402,-0.218859,1.504026,14.420625,-34.722111,-2.436530,-0.632466,-2.290652,0.986074,-21.164158
403,-0.189962,0.387189,14.656082,-38.066940,-1.345493,2.037903,-3.252548,0.915059,-21.110510
404,-0.054310,-0.115375,14.055516,-32.108200,-0.330753,1.100985,-4.223690,0.856139,-21.050907
405,0.139013,-1.190652,14.072859,-30.090927,0.793855,-0.919340,-5.239076,0.792359,-21.052799
406,-0.300141,-1.383174,13.715762,-22.343803,2.176343,-1.517503,-6.095872,0.858688,-21.115488
407,0.283994,-2.195341,14.047225,-18.692263,2.376239,-2.146184,-6.885882,0.824462,-21.210810
408,-0.073849,-2.037595,13.864190,-7.791051,3.461172,-4.258065,-7.380571,0.878462,-21.356209
409,0.051281,-1.851642,14.088113,-3.231586,3.790772,-4.335887,-7.562669,0.921228,-21.545488
410,-0.251003,-2.131027,13.615369,3.969256,4.196669,-1.613637,-7.619344,1.040550,-21.707626
411,-0.295527,-1.841738,13.327934,6.946336,2.861483,-2.842006,-7.460397,1.152884,-21.840330
412,-0.445028,-1.764508,12.637094,10.680277,5.322801,-0.078555,-7.206892,1.317459,-21.964300
413,-0.261738,-1.520105,12.331364,12.190943,8.077097,0.745445,-6.836139,1.523687,-22.094530
414,-0.719413,-1.362346,12.342936,12.837935,10.691008,5.245399,-6.411408,1.919600,-22.207863
415,-0.188048,-1.347334,12.270841,17.089165,7.524712,10.807398,-5.923379,2.182717,-22.178900
416,-0.085263,-1.121671,11.613394,34.709026,4.710905,14.255989,-5.069393,2.329505,-21.965269
417,-0.014713,-0.388436,10.999245,36.210537,-0.535226,17.208654,-3.774823,2.329980,-21.580643
418,0.118992,0.188454,10.304786,32.156151,-5.967522,17.516891,-2.428639,2.120021,-21.042448
419,0.464724,0.750512,9.149551,28.777752,-8.743180,14.228521,-1.087892,1.664338,-20.464046
420,-0.057061,1.810187,8.081650,15.537297,-6.547373,7.895931,0.311653,1.370822,-20.013628
421,-0.016578,2.115068,7.811507,-15.031569,-2.952292,5.231665,1.067259,1.159680,-19.742409
422,-0.200112,2.184357,7.904418,-28.726749,0.601588,0.258674,1.095516,1.133841,-19.643469
423,-0.268855,2.078799,7.604932,-38.596436,2.373187,1.895992,0.739897,1.221247,-19.639854
424,-0.041752,1.710308,7.629915,-50.399471,2.649380,-0.226570,-0.073933,1.254467,-19.662443
425,0.116745,1.047631,7.663377,-49.168049,4.424031,-3.273843,-1.258702,1.260478,-19.777906
426,0.054149,0.343008,7.204530,-39.673740,4.698698,-4.480850,-2.468873,1.318748,-19.972828
428,0.436320,-0.213543,6.073893,-27.232868,3.778564,-6.141057,-3.509353,1.175899,-20.200100
429,0.126801,-0.960398,5.169867,-8.306815,3.677853,-11.744255,-4.428965,1.150360,-20.511095
430,-0.024441,-1.228693,4.045871,7.692514,4.572046,-15.131809,-5.070687,1.209815,-20.945532
431,-0.068822,-1.394597,3.822161,18.082541,3.922002,-17.370342,-5.422137,1.288998,-21.454205
432,-0.161130,-1.457662,2.998446,27.224360,2.585291,-17.434431,-5.742153,1.415107,-21.972584
433,-0.427088,-1.263178,3.704372,28.751810,2.396076,-17.068209,-5.523222,1.681110,-22.474295
434,-0.590989,-0.989278,4.404011,27.434937,2.238906,-13.485336,-5.003525,1.995464,-22.924984
435,-0.537805,-0.761997,6.013032,26.835249,0.268936,-10.344981,-4.267220,2.153910,-23.269039
436,-0.758947,-0.008437,7.352431,21.935503,-0.458930,-2.849636,-3.292313,2.320239,-23.445351
437,-0.489834,0.809427,9.943556,9.731152,-0.600841,-0.441725,-2.395554,2.324270,-23.479988
438,-0.806639,1.077441,11.379115,3.981464,-1.401952,2.816125,-1.786626,2.379682,-23.427904
439,-0.229750,1.520079,13.046422,-8.991955,-1.845997,1.760185,-1.441299,2.262143,-23.333597
440,-0.414965,1.931812,13.810545,-18.188707,-1.392797,1.293252,-1.399427,2.184384,-23.260513
441,0.045334,1.526675,14.458384,-26.219654,-2.196959,-2.236214,-1.731696,2.009062,-23.239183
442,-0.159667,0.705543,14.799047,-29.698765,-2.251893,-5.248391,-2.398205,1.865691,-23.298874
443,0.125202,0.259679,14.971067,-32.187550,-0.733597,-9.667471,-3.216317,1.692293,-23.472260
444,0.053713,-0.395175,15.291592,-30.205372,0.481040,-12.614033,-4.128276,1.576007,-23.769276
445,0.046603,-0.688181,15.503628,-27.345787,1.572076,-14.915129,-4.972603,1.492829,-24.155962
446,-0.218889,-1.487280,15.358120,-21.097122,1.877262,-13.631825,-5.779750,1.477553,-24.566864
447,-0.361529,-1.378284,15.222122,-12.025495,3.226180,-10.758508,-6.284066,1.515995,-24.938387
448,-0.328842,-1.603996,14.786300,-5.592193,2.801972,-10.380078,-6.567323,1.563301,-25.275951
449,-0.709615,-1.817754,13.887088,3.342101,3.400136,-6.965057,-6.655060,1.697139,-25.566168
450,-0.658778,-2.100279,12.924650,11.417298,2.690580,-2.751977,-6.554703,1.834424,-25.757490
451,-0.508254,-1.622324,12.182044,15.476260,2.515099,-1.160436,-6.182594,1.935841,-25.864834
452,-0.552844,-1.667319,11.399280,15.609015,2.045114,-0.168585,-5.798287,2.045788,-25.931732
453,-0.487385,-1.748262,11.428974,15.447268,1.161603,5.779472,-5.448519,2.123638,-25.893393
454,-0.081317,-1.676039,11.207459,21.534184,-0.962486,7.071931,-5.008449,2.061018,-25.727713
455,-0.320949,-1.723644,11.178761,28.773174,-2.535715,6.942227,-4.391508,2.004296,-25.506458
456,-0.191083,-1.093382,11.130602,39.500427,-3.870899,9.745353,-3.361833,1.873328,-25.218121
457,-0.020242,-0.324467,10.569042,45.434753,-5.019921,12.926908,-1.924471,1.668509,-24.822598
458,0.154766,0.677943,9.561275,42.895615,-6.089595,9.905575,-0.215399,1.380392,-24.401480
459,0.181909,1.663373,8.779698,29.356077,-5.604351,8.492568,1.483661,1.073735,-24.034391
460,0.120999,2.540348,7.821687,11.099906,-3.765611,7.996642,2.955267,0.826791,-23.715204
461,-0.209783,2.923338,6.893792,-16.931345,-2.781389,3.344095,3.867224,0.756100,-23.494865
462,-0.116292,3.033867,6.578550,-42.611145,-2.567760,1.094882,3.969929,0.675835,-23.383596
463,-0.299563,2.728177,6.637394,-58.640991,-0.466560,4.004821,3.286416,0.708069,-23.284147
464,-0.053393,2.383578,6.851134,-72.056931,1.408803,6.014465,2.013807,0.698803,-23.153721
465,0.442218,1.965111,6.884480,-81.484100,2.338091,2.451430,0.280276,0.539581,-23.074869
466,0.400798,1.168750,6.768457,-73.711029,1.892521,1.364971,-1.700451,0.411117,-23.068249
467,0.677150,0.170076,6.609507,-54.299736,3.149884,-3.612598,-3.568781,0.176190,-23.151552
468,0.426183,-0.263867,6.095156,-29.009047,4.631557,-13.100802,-4.834412,0.076015,-23.444525
469,0.108725,-0.078448,4.511346,-6.263601,3.001868,-19.317423,-5.202046,0.085058,-23.920296
470,-0.213678,-1.087353,4.122482,15.908096,1.761291,-20.448133,-5.528927,0.244265,-24.443771
471,0.212967,-1.399120,3.735462,35.342281,1.884891,-24.589495,-5.469837,0.069856,-25.015060
472,0.083709,-1.570328,3.568669,46.954575,1.790284,-24.085939,-5.082993,-0.011075,-25.635460
473,-0.336704,-1.286730,3.514830,46.544102,1.236373,-20.887600,-4.354198,0.228556,-26.215204
474,-0.117047,-1.884755,5.162657,46.287746,1.582758,-15.203528,-3.670345,0.275040,-26.695608
475,-0.335401,-0.612734,6.609831,41.389526,1.218062,-10.183233,-2.365158,0.421549,-27.050611
476,-0.581901,0.067944,8.607485,24.680643,2.238906,-2.652792,-1.179274,0.636453,-27.254797
477,-0.794050,1.402412,10.266951,6.578588,1.335558,0.820215,-0.236644,0.878822,-27.316534
478,0.138374,1.640468,12.217738,-10.086044,-1.008263,6.139591,0.103652,0.808572,-27.225773
479,-0.288486,2.306836,13.364178,-23.308189,-0.555064,5.573472,0.062140,0.804563,-27.051054
480,0.200552,1.840882,14.007136,-33.888954,-0.931967,6.466139,-0.469547,0.699855,-26.873375
481,0.511358,1.591184,14.234720,-37.943340,-1.212738,5.466658,-1.262010,0.529271,-26.691580
482,0.305378,0.769035,14.176747,-40.010967,-0.938071,4.798302,-2.276171,0.409530,-26.533667
483,0.348284,-0.028303,13.921268,-37.923500,0.476462,1.670155,-3.401258,0.312809,-26.445065
484,0.331084,-0.825204,13.557934,-35.134109,0.909825,1.133029,-4.561811,0.251387,-26.425394
485,0.282338,-1.227203,13.285048,-31.429163,1.884891,0.740866,-5.651390,0.224328,-26.434744
486,-0.027234,-1.750981,12.749238,-25.922098,2.730254,-1.349652,-6.667945,0.290771,-26.496685
487,0.093831,-2.203877,12.608008,-21.460291,2.716521,-3.145666,-7.580901,0.333083,-26.615747
488,-0.111076,-2.284726,12.641111,-15.300130,2.658535,-4.052065,-8.296820,0.411399,-26.765850
489,-0.162567,-2.175791,12.851887,-8.769169,2.217543,-6.910123,-8.744738,0.478773,-26.952930
490,-0.379108,-2.382066,13.395640,0.453524,3.348253,-7.293130,-8.945158,0.588435,-27.185415
491,-0.470599,-1.965671,13.917436,9.506840,2.925572,-6.127324,-8.744232,0.720409,-27.417414
492,-0.577971,-2.082561,13.955647,17.905533,2.681424,-4.634968,-8.299416,0.863148,-27.610773
493,-0.676936,-1.629896,13.291840,27.294552,2.248061,-2.741295,-7.520041,1.024445,-27.757099
494,-0.512716,-1.727673,12.562995,32.089012,1.556817,-0.081607,-6.596117,1.142211,-27.836761
495,-0.338678,-1.024209,11.225249,32.658180,-0.048456,-0.362378,-5.502005,1.193998,-27.860540
496,-0.040473,-1.052930,10.113669,29.424746,-0.748856,-0.429518,-4.541336,1.131825,-27.860682
497,0.279140,-0.551846,9.556397,25.872681,-0.433327,-0.924341,-3.604369,0.971264,-27.863510
498,0.129203,-0.271629,9.528683,17.249966,-0.728169,-3.645488,-2.824260,0.860741,-27.907536
499,0.197412,-0.281585,9.837345,9.764066,-0.842952,-3.073689,-2.338989,0.729382,-27.974789
500,0.045601,-0.389478,10.376140,15.066947,-1.261393,-3.798926,-1.937839,0.642193,-28.039139
501,-0.024430,-0.777289,10.938640,22.243666,-2.200175,-3.668119,-1.454815,0.557275,-28.096899
502,-0.423150,-0.136198,11.293466,31.077248,-3.834441,-4.470756,-0.573685,0.537423,-28.136473
503,-0.212625,0.146800,11.041160,35.095009,-6.546011,-1.745453,0.539891,0.399303,-28.105978
504,0.140400,0.990894,10.260644,35.484119,-7.972751,-1.455527,1.905785,0.110392,-27.995173
505,0.289172,1.606481,8.941081,23.027990,-7.936129,-0.108134,3.246052,-0.237830,-27.851957
506,-0.272264,2.531757,7.682139,3.221478,-5.224559,1.625317,4.411285,-0.339121,-27.697979
507,0.204956,2.646284,6.713498,-24.622084,-2.494679,6.921804,4.926815,-0.535368,-27.502508
508,0.337764,2.539560,6.412129,-48.656937,1.224002,10.907521,4.598287,-0.692124,-27.242901
509,0.424106,2.734567,6.469636,-69.082977,4.111053,8.360752,3.646510,-0.771542,-27.032709
510,0.840206,2.234008,6.886735,-83.890556,6.767689,2.688887,1.938418,-0.905444,-26.998344
511,1.294358,1.528632,7.352481,-82.913963,7.066770,-2.615230,-0.212401,-1.131679,-27.148619
512,0.707515,0.909907,6.980564,-69.407997,8.644577,-11.580042,-2.237991,-1.112638,-27.505346
513,0.712024,0.064005,6.742457,-42.774494,9.190859,-24.616024,-3.863814,-1.092023,-28.149200
514,-0.111178,-0.137795,5.325826,-7.942192,7.646622,-29.193800,-4.531121,-0.757808,-28.975681
515,0.147758,-0.994462,4.744832,16.863253,6.134430,-25.270645,-4.740850,-0.652341,-29.762213
516,-0.095213,-1.719754,3.288736,39.442371,5.519482,-27.582422,-4.982191,-0.430030,-30.503021
517,-0.035987,-1.817829,2.977215,55.748409,4.240756,-26.419668,-4.788056,-0.297414,-31.240770
518,-0.036190,-1.879521,2.925659,58.662930,4.394875,-19.401936,-4.368238,-0.178466,-31.883207
519,-0.085323,-2.090734,4.468294,48.396500,5.090697,-12.710753,-3.706210,-0.011259,-32.386311
520,-0.570588,-1.171622,5.720813,41.908264,5.261600,-10.647702,-2.669102,0.405616,-32.800938
521,-0.349977,0.396728,8.082764,26.368240,4.239230,-1.397542,-1.314246,0.647407,-33.063393
522,-0.167965,0.621189,10.226389,7.141580,2.386757,4.794664,-0.543488,0.767538,-33.091343
523,-0.537108,1.766218,11.971053,-8.520519,-0.156961,8.595744,-0.115830,0.894564,-32.936447
524,-0.093153,2.051060,13.096827,-18.159790,-1.858368,11.504158,-0.082776,0.839716,-32.645138
525,0.086904,2.073595,13.858845,-26.593580,-4.994145,13.321535,-0.355813,0.672139,-32.239380
526,0.032864,1.794016,14.274972,-33.121490,-6.365952,11.374454,-0.920142,0.453546,-31.788023
527,0.340549,1.611442,13.965987,-31.114897,-6.776426,11.792558,-1.558506,0.157532,-31.339294
528,0.827594,1.071053,13.810152,-32.999416,-7.023625,9.051995,-2.272094,-0.232854,-30.914404
529,0.797048,0.364247,13.401659,-34.371223,-5.801359,2.902516,-3.147146,-0.588557,-30.613661
531,0.550088,-0.129289,12.892460,-29.181549,-2.863953,-2.339038,-4.024616,-0.818553,-30.502705
532,0.783505,-0.762573,12.879374,-25.809254,-0.002842,-5.467185,-4.861908,-1.004815,-30.561741
533,0.529408,-1.101781,13.354551,-23.221285,2.530194,-10.177717,-5.626838,-1.047560,-30.778275
534,0.302362,-1.384235,13.630415,-16.287479,5.855186,-11.313005,-6.254690,-0.957439,-31.135014
535,0.311155,-1.786136,14.074358,-8.639541,7.581007,-10.086161,-6.691965,-0.795771,-31.553341
536,0.325458,-1.567487,13.945532,-4.252505,8.697985,-11.125317,-6.876624,-0.604238,-32.005226
537,-0.031100,-1.978195,13.295693,2.374589,8.041837,-10.884220,-6.981041,-0.345366,-32.472031
538,0.011578,-1.405005,12.164217,6.996618,7.312444,-12.643612,-6.809796,-0.134436,-32.938461
539,-0.074842,-1.557455,10.951473,6.976781,5.821615,-14.033731,-6.650935,0.047437,-33.413036
540,-0.189241,-1.229949,10.035949,6.493062,4.817556,-16.403492,-6.454143,0.209539,-33.900394
541,-0.422149,-1.289011,9.693731,2.269300,2.655320,-16.257004,-6.372592,0.381180,-34.375214
542,-0.330939,-0.917684,9.585827,-4.727068,0.584639,-15.445211,-6.368876,0.455434,-34.787357
543,-0.202298,-1.429415,10.090885,-8.139038,-1.434161,-13.087657,-6.660514,0.426021,-35.111965
544,-0.108776,-1.531181,10.652674,-1.220492,-3.098945,-8.636532,-6.887240,0.323524,-35.309925
545,-0.026515,-2.085756,11.165908,12.013860,-5.158945,-2.004860,-6.902110,0.164538,-35.329556
546,-0.266973,-1.295175,11.393958,43.054237,-5.952426,4.660382,-6.009227,0.053398,-35.155956
547,0.049915,-0.907020,11.903828,59.822632,-5.296278,6.819567,-4.297394,-0.118039,-34.876106
548,0.100098,0.082202,11.338600,72.142952,-3.839019,9.311403,-1.972505,-0.259085,-34.565159
549,0.080272,1.393601,10.329951,69.472588,-2.529775,8.943655,0.751574,-0.352915,-34.258553
550,-0.044022,3.120538,9.112258,52.627895,0.204684,5.432501,3.591278,-0.355221,-34.044479
551,0.288711,2.856442,8.066443,15.447193,2.040372,3.100887,5.463712,-0.402798,-33.954536
552,-0.043654,3.404011,6.215209,-9.019495,3.213808,1.405583,6.727247,-0.287308,-33.948677
553,0.187235,3.192139,5.582676,-42.618847,4.274326,-1.037423,7.061162,-0.238657,-34.022232
554,0.196994,3.201160,5.851673,-71.290985,4.066801,-3.069956,6.338786,-0.172296,-34.166836
555,0.767623,2.525636,6.256198,-89.048180,2.904045,-1.890415,4.582585,-0.369349,-34.309715
556,1.059604,1.984675,6.930703,-92.624954,2.299779,-5.351214,2.276544,-0.676879,-34.462543
557,1.054634,1.730930,7.548297,-88.453072,2.815542,-10.984931,-0.056023,-0.936267,-34.726318
558,0.844847,1.120117,7.651234,-64.409065,2.366920,-14.099345,-2.051419,-1.112499,-35.087833
559,0.578984,0.128417,7.068745,-29.428749,2.963557,-17.938574,-3.373382,-1.216977,-35.517609
560,0.162342,-0.421515,6.040246,5.823181,3.833334,-22.722351,-3.764812,-1.156774,-36.048901
561,0.062713,-0.832064,4.209807,31.846313,4.661912,-24.937994,-3.523396,-1.053651,-36.672729
562,-0.095800,-1.968999,3.905555,51.626884,4.742786,-20.503654,-3.349225,-0.835502,-37.289330
563,-0.085759,-1.864546,3.717149,61.662899,5.020504,-18.469597,-2.709571,-0.617385,-37.852085
564,-0.404440,-2.536583,3.816807,60.304825,4.860282,-11.525109,-2.316974,-0.203835,-38.326508
565,-0.260380,-1.738036,5.166101,49.647762,2.455424,-5.123852,-1.387639,0.046913,-38.619484
566,-0.511049,-1.200878,7.442735,35.799988,0.528180,0.982902,-0.423309,0.282771,-38.707390
567,-0.721563,0.339608,8.880991,22.471029,-0.921450,4.890798,0.630372,0.495432,-38.626842
568,-0.440937,0.735259,10.411564,4.985448,-3.112679,8.604900,1.237112,0.526816,-38.402401
569,-0.153237,1.861509,11.966710,-7.812490,-4.278485,8.661360,1.575011,0.415254,-38.088020
570,-0.046934,1.763037,12.920959,-14.938561,-3.990086,9.149655,1.526815,0.266979,-37.756161
571,0.401558,1.919067,13.648492,-19.676559,-3.126412,7.698500,1.304184,0.050323,-37.451138
572,0.761247,1.698103,13.789291,-21.139923,-3.594871,5.882649,0.944378,-0.220759,-37.194481
573,0.683990,1.634474,13.737908,-22.777241,-1.861420,3.258057,0.540933,-0.440583,-37.011330
574,0.788335,1.328151,13.700871,-25.626144,-0.835998,1.471198,0.023969,-0.626218,-36.918381
575,0.726375,0.523877,13.117788,-26.376900,1.542920,-3.552148,-0.685826,-0.742255,-36.952942
576,0.360519,0.370100,12.555631,-27.335180,3.636489,-6.770325,-1.415543,-0.706599,-37.145138
577,0.380228,-0.268486,12.264296,-27.527447,5.655289,-8.924932,-2.272962,-0.617722,-37.454067
578,-0.026205,-0.782644,11.940838,-21.489359,5.836874,-8.728087,-3.119616,-0.407674,-37.813694
579,0.035675,-1.028228,11.597293,-15.927361,5.791096,-9.220962,-3.806798,-0.225594,-38.177479
580,-0.201360,-0.887599,11.365036,-12.198329,5.381824,-6.895107,-4.283542,-0.002330,-38.513138
581,-0.192515,-1.102959,10.960569,-7.422931,3.994370,-2.137242,-4.666897,0.186163,-38.742363
582,-0.039988,-1.300023,10.566621,-3.527292,3.063181,0.991557,-4.957587,0.297772,-38.849670
583,0.047440,-1.231940,10.239318,-2.144875,2.329072,2.320587,-5.142333,0.359237,-38.883694
584,0.144346,-1.143339,9.890810,-0.126370,2.087415,3.367669,-5.250384,0.377357,-38.877644
585,0.179073,-0.909939,9.667123,0.978435,1.212823,3.379830,-5.249670,0.292434,-38.844677
586,0.108981,-0.789113,9.594353,0.174104,0.864282,2.113463,-5.177125,0.236897,-38.809731
587,0.094353,-0.504468,9.513048,-0.876600,0.549298,0.899881,-5.080947,0.223315,-38.794231
588,0.026993,-0.407269,9.517022,-3.711088,0.205085,0.677327,-5.021962,0.218163,-38.786320
589,-0.049736,-0.183666,9.565840,-5.995122,0.292789,-0.193230,-4.979516,0.230681,-38.787453
590,0.097890,-0.173425,9.764551,-8.164711,0.940507,-1.242320,-5.005710,0.207911,-38.820271
591,0.237540,-0.096100,9.806550,-8.485783,1.266712,-3.753130,-5.047435,0.156063,-38.906387
592,0.290900,-0.084625,9.938960,-11.828187,2.316206,-7.226800,-5.141634,0.105696,-39.078278
593,0.434120,-0.106453,9.988605,-14.233672,3.426737,-10.351032,-5.328357,0.041804,-39.352909
594,0.427665,-0.300255,9.951826,-16.827745,4.845848,-13.859135,-5.640627,0.012102,-39.735085
595,0.198833,-0.385872,9.781340,-19.633923,5.915522,-16.853001,-6.049085,0.076314,-40.222164
596,0.130134,-0.545007,9.780103,-23.357182,7.059966,-17.033060,-6.587233,0.184163,-40.773262
597,-0.095830,-0.730309,9.761734,-23.901936,7.528425,-15.919134,-7.221288,0.375238,-41.334846
598,-0.188034,-0.933345,9.788250,-23.825640,8.051817,-14.477135,-7.890698,0.598415,-41.880913
599,-0.111627,-1.097961,9.788333,-23.869892,7.305640,-12.304217,-8.575125,0.786454,-42.383488
600,0.004380,-1.256635,9.916009,-22.356173,5.729359,-10.064158,-9.243935,0.899649,-42.804821
601,-0.088962,-1.376320,10.016540,-19.888752,4.403330,-9.180647,-9.846580,0.991277,-43.150307
602,-0.025760,-1.466159,10.045130,-17.873005,2.325020,-8.680143,-10.372231,1.007214,-43.430511
603,-0.018905,-1.487424,10.030844,-15.993064,0.823509,-8.175062,-10.816296,0.964483,-43.646473
604,-0.096777,-1.526031,9.998070,-13.829302,0.004087,-8.652677,-11.186125,0.907546,-43.826141
605,-0.155132,-1.505834,9.831032,-13.751479,0.020872,-8.217789,-11.503222,0.856286,-43.992676
606,0.057252,-1.472325,9.628989,-15.765701,-0.563558,-7.592159,-11.833849,0.739000,-44.138760
607,0.213344,-1.545416,9.803828,-21.045403,-0.963350,-6.676604,-12.275929,0.571154,-44.253582
608,0.180550,-1.738218,9.985521,-26.265594,-1.393661,-6.466027,-12.907206,0.411633,-44.343147
609,0.165299,-1.842570,10.169254,-31.888630,-1.738520,-6.589627,-13.697759,0.251769,-44.417538
610,0.222017,-2.338410,10.308330,-35.909443,-2.615928,-7.082500,-14.726515,0.062085,-44.475250
611,0.091886,-2.970238,10.146572,-37.327026,-3.006565,-6.865819,-15.966128,-0.106387,-44.511250
612,0.062266,-3.344002,9.712615,-36.644939,-2.133735,-8.028574,-17.288851,-0.259555,-44.557568
613,0.099601,-3.658215,9.222616,-35.775162,-1.648491,-11.008706,-18.651936,-0.419506,-44.653797
614,0.211251,-4.099420,8.929235,-35.032036,-1.256328,-11.475639,-20.071514,-0.613796,-44.785282
615,0.151699,-4.167215,8.679836,-34.700912,-0.758876,-13.447135,-21.451021,-0.789552,-44.942333
616,0.057369,-4.189806,8.838326,-33.918110,-0.200387,-16.479149,-22.727673,-0.949606,-45.145706
617,0.016799,-4.200433,8.861232,-30.561075,-0.470476,-19.689695,-23.872263,-1.132723,-45.388943
618,-0.134980,-4.168040,9.017707,-27.603832,-0.472002,-18.685637,-24.829920,-1.291049,-45.633106
619,-0.246977,-4.092360,8.978143,-23.868366,-1.047276,-18.655117,-25.617434,-1.420453,-45.850834
620,-0.321183,-4.030545,8.899169,-19.559153,-1.569143,-17.191755,-26.230778,-1.534456,-46.031860
621,-0.123382,-3.985831,8.708525,-16.122768,-2.469439,-15.278245,-26.702694,-1.702914,-46.160107
622,-0.193282,-3.947632,8.517496,-14.470190,-3.180520,-12.076854,-27.085516,-1.831700,-46.223686
623,-0.028365,-4.008484,8.230944,-13.240294,-3.998416,-11.577876,-27.459595,-2.001984,-46.233742
624,-0.153880,-3.931280,8.230535,-13.020560,-4.068608,-10.726409,-27.770449,-2.128868,-46.216366
625,0.118573,-3.945615,8.519535,-12.718428,-3.618460,-9.516351,-28.023769,-2.314977,-46.190758
626,0.240773,-3.797187,8.947142,-11.912739,-2.387039,-8.533655,-28.154331,-2.487924,-46.180504
627,0.417030,-3.847286,9.515130,-10.316621,-0.299573,-8.172010,-28.190372,-2.641948,-46.221081
628,0.476294,-3.782113,10.043612,-7.949911,1.861137,-7.586055,-28.091429,-2.732911,-46.332836
629,0.675827,-3.875845,10.193260,-5.897541,3.689196,-7.679137,-27.935078,-2.810067,-46.514511
630,0.612466,-3.949041,9.981523,-4.204767,4.624534,-7.512805,-27.764277,-2.829600,-46.746582
631,0.479744,-3.942270,9.592165,-3.618290,4.708405,-7.026028,-27.603609,-2.797440,-46.994339
632,0.400003,-3.899011,9.115235,-4.496701,3.635624,-5.252896,-27.498362,-2.746471,-47.212490
634,0.421867,-4.036941,8.798309,-6.136549,2.169155,-2.561158,-27.516769,-2.709701,-47.360767
635,0.529496,-4.171348,8.704415,-7.201123,0.920893,-0.144086,-27.629448,-2.707594,-47.432350
636,0.551336,-4.317160,8.781189,-8.786559,0.159456,1.354373,-27.810566,-2.709401,-47.446499
637,0.524728,-4.594670,8.863777,-9.178844,-0.095103,2.050354,-28.076757,-2.698363,-47.430771
638,0.598559,-4.767046,8.927095,-7.993413,0.123888,1.811322,-28.352461,-2.703643,-47.412430
639,0.599859,-4.726846,8.930640,-5.332411,0.684685,1.074839,-28.542021,-2.705482,-47.413769
640,0.526384,-4.630289,8.824365,-0.539692,0.932668,0.773244,-28.545179,-2.702769,-47.435459
641,0.507067,-4.502753,8.757079,7.533767,1.307303,0.367887,-28.367706,-2.675235,-47.472240
642,0.533298,-4.221596,8.748825,19.425215,1.445148,-0.287882,-27.809492,-2.659656,-47.523575
643,0.449355,-3.923568,8.741426,35.751091,0.720334,0.209569,-26.753227,-2.631323,-47.564529
644,0.582944,-3.539441,8.718492,56.558609,-0.163177,-0.725823,-25.058249,-2.672855,-47.577694
645,0.672047,-2.797952,8.558834,76.583328,-0.514140,-4.336163,-22.599243,-2.796560,-47.593300
646,0.516149,-2.113479,8.489097,87.379250,-1.049740,-5.476029,-19.565884,-2.910676,-47.623829
647,0.378825,-1.691366,8.700838,90.623367,-1.873739,-5.059451,-16.312313,-2.990951,-47.642342
648,0.350101,-1.204469,9.112385,88.508438,-2.684006,-7.340710,-13.028390,-3.078681,-47.657970
649,0.133610,-0.843459,9.628064,78.344246,-3.355413,-6.657095,-9.975381,-3.113301,-47.673565
650,-0.245644,-0.939978,10.286341,66.249763,-4.971368,-1.235482,-7.443084,-3.045953,-47.605251
651,0.011656,-0.511869,10.628743,60.181160,-5.667190,1.517287,-5.208546,-3.063567,-47.424934
652,0.192776,-0.209450,10.726279,53.483871,-5.900657,4.187657,-3.210229,-3.134745,-47.174107
653,0.021134,0.184715,10.405325,45.866451,-5.952538,7.315804,-1.436431,-3.158462,-46.853165
654,0.208344,0.723375,9.976790,40.118290,-4.373205,10.247107,0.188497,-3.212966,-46.482334
655,0.423880,1.242040,9.557371,31.801996,-3.352361,9.284248,1.670745,-3.296949,-46.124596
656,0.349572,1.110763,9.628631,19.683096,-2.905265,7.459241,2.716451,-3.338366,-45.820686
657,0.433431,1.213869,9.648228,17.079866,-2.006495,5.268013,3.509756,-3.384163,-45.585827
658,0.653314,1.283209,9.507813,14.447645,-1.628065,2.869257,4.210414,-3.473932,-45.427887
659,0.660385,1.134945,9.776526,6.091678,-2.432228,-2.096104,4.655780,-3.556648,-45.359379
660,0.916074,0.977888,10.224861,2.748375,-1.489206,-5.590473,4.843894,-3.685926,-45.403847
661,0.804149,0.979485,9.956035,4.240730,-1.200806,-7.909880,5.007042,-3.756099,-45.543262
662,0.635837,0.986861,9.804143,-3.439253,-0.767444,-10.429183,5.075787,-3.758959,-45.758106
663,0.629281,0.837466,10.284575,-9.196569,0.138956,-11.315746,4.877276,-3.725154,-46.038734
664,0.403833,0.770106,10.119409,-5.574457,0.437506,-9.780676,4.638854,-3.614719,-46.328907
665,0.125337,0.849019,9.777487,-5.542246,0.144760,-7.874990,4.496883,-3.438130,-46.573532
666,0.200313,0.861699,9.991263,-7.904212,0.097687,-5.455067,4.318606,-3.302757,-46.755592
667,0.271668,0.863447,10.047142,-5.592937,-0.789085,-3.073544,4.142587,-3.215257,-46.859829
668,0.345564,0.876367,9.808412,-3.917045,-1.177379,-1.370252,4.044316,-3.180803,-46.890652
669,0.516700,0.854275,9.961835,-5.602110,-1.167733,-1.555868,3.939179,-3.203410,-46.895435
670,0.576228,0.820640,10.016255,-3.567274,-1.276476,-2.139796,3.834637,-3.241860,-46.908825
671,0.537693,0.861599,9.936291,0.205479,-1.200682,-2.527174,3.900408,-3.258599,-46.934441
672,0.466418,0.930961,9.897119,1.960966,-0.817435,-2.174234,4.084340,-3.226820,-46.967148
673,0.337345,0.918620,10.018200,2.084117,-0.080728,-0.920758,4.208955,-3.172315,-46.995045
674,0.200161,0.870896,9.907491,2.632718,0.661344,1.572705,4.360604,-2.962440,-46.994884
675,0.231400,0.830881,9.891400,1.201897,1.598865,4.893448,4.437851,-2.853123,-46.941822
676,0.274074,0.797361,9.874057,-0.567566,2.504442,7.984071,4.446311,-2.740602,-46.830193
677,0.346317,0.735583,9.879368,-2.124264,3.237286,10.166777,4.379977,-2.635302,-46.672596
678,0.472027,0.743358,9.814511,-2.397466,3.350134,11.219252,4.289740,-2.562874,-46.485443
679,0.565635,0.803863,9.857039,-2.280929,2.923531,10.644728,4.218276,-2.525525,-46.289043
680,0.627397,0.865016,9.913087,-1.669394,2.246861,8.440586,4.180493,-2.520434,-46.114780
681,0.636079,0.942773,9.891011,-0.101997,1.662950,5.677249,4.205635,-2.532207,-45.988293
682,0.651276,1.034276,9.920356,0.003270,0.863396,2.192039,4.373483,-2.623403,-45.923344
683,0.640128,1.044353,9.944351,-0.163614,0.197502,-1.063340,4.532477,-2.712689,-45.924252
684,0.636599,0.947504,9.917520,-0.630538,-0.294543,-3.677720,4.616396,-2.802909,-45.983902
685,0.621581,0.840082,9.874358,-3.447986,-0.847810,-7.058186,4.572416,-2.846648,-46.105579
686,0.592939,0.864156,9.900775,-10.270094,-1.127615,-11.269574,4.390426,-2.882988,-46.313190
687,0.604283,0.697021,9.901370,-18.923019,-1.187198,-14.643119,3.930648,-2.917597,-46.613853
688,0.567907,0.521296,9.885695,-30.128283,-1.208012,-18.234287,3.134858,-2.936168,-47.002434
689,0.570453,0.401296,9.961697,-40.370293,-1.198857,-21.576063,2.009526,-2.952662,-47.477081
690,0.477982,0.287144,9.798330,-48.535522,-0.734975,-23.233219,0.621836,-2.943610,-48.016548
691,0.135358,0.161701,9.635994,-53.101089,0.357587,-21.383797,-0.934044,-2.826058,-48.568504
692,0.338622,-0.092585,9.681487,-54.881847,1.149543,-18.638659,-2.592480,-2.762186,-49.082222
693,0.183447,-0.350669,9.612394,-50.203358,0.188209,-15.080199,-4.205074,-2.673141,-49.505463
694,0.078768,-0.383334,9.553454,-34.968517,0.661246,-8.709460,-5.440292,-2.570578,-49.795090
695,0.098317,-0.368382,9.896122,-5.037490,1.996431,3.146981,-5.903934,-2.433968,-49.904736
696,0.722170,-0.792614,9.885776,30.777506,1.109868,13.450029,-5.441407,-2.444933,-49.778114
697,0.283462,-0.668795,9.647970,50.464996,-0.557968,17.270947,-4.101852,-2.350108,-49.453869
698,0.459831,-0.437567,9.865245,60.713112,0.510180,20.263287,-2.288191,-2.317764,-49.037910
699,0.559659,-0.262740,9.844957,58.642185,-0.029041,19.038706,-0.385728,-2.321916,-48.598724
700,0.640444,-0.129846,9.669336,41.166550,-1.518114,11.665207,1.155708,-2.406491,-48.213253
701,0.399153,0.272913,9.843327,16.624308,-1.564488,3.137450,2.082791,-2.450788,-47.985661
702,0.567729,0.451108,10.003105,8.412019,-0.475171,-0.402595,2.502383,-2.523556,-47.920166
703,0.538316,0.618626,9.837695,5.943052,-0.244112,-3.308726,2.787061,-2.562536,-47.956013
704,0.494624,0.660247,9.851146,4.189666,0.134342,-4.506424,3.005360,-2.573788,-48.053562
705,0.452577,0.704110,9.847629,3.044273,0.345419,-5.012509,3.180850,-2.561114,-48.182446
706,0.399224,0.813490,9.857733,2.024984,0.435932,-4.740439,3.344832,-2.527944,-48.319572
707,0.383082,0.869745,9.875023,1.444984,0.365556,-3.556327,3.571230,-2.477389,-48.438801
708,0.426796,0.928909,9.878088,1.757731,0.368331,-2.471546,3.803285,-2.459555,-48.528046
709,0.458946,1.022611,9.824829,1.718315,0.529466,-1.336544,4.071740,-2.462537,-48.591179
710,0.496394,1.009546,9.851688,0.331219,0.773872,-0.293360,4.281392,-2.482088,-48.632210
711,0.503176,0.945664,9.868348,0.626290,1.032854,0.106609,4.415032,-2.497221,-48.662075
712,0.577261,0.967411,9.846265,1.733763,1.250876,0.077261,4.569836,-2.547473,-48.694321
713,0.573554,0.983922,9.820492,1.622734,1.314161,0.230411,4.735004,-2.587321,-48.729176
714,0.580504,0.944526,9.860354,0.673584,1.213968,-0.152967,4.842929,-2.626272,-48.766438
715,0.552842,0.957221,9.854039,0.949553,1.058023,-0.877992,4.938390,-2.647991,-48.814297
716,0.575480,0.989157,9.848832,-0.026152,0.883126,-1.463182,5.033422,-2.683916,-48.874317
717,0.517311,0.971771,9.868423,-2.025139,0.814324,-1.866839,5.063920,-2.684445,-48.943645
718,0.463239,0.968721,9.795269,-4.439711,0.823219,-1.354835,4.993040,-2.654634,-49.010670
719,0.395254,0.859483,9.855144,-8.071583,0.879622,0.207934,4.795244,-2.607838,-49.051449
720,0.377798,0.737706,9.880537,-10.047525,0.876710,3.155415,4.479564,-2.563385,-49.034039
721,0.359271,0.677797,9.834550,-11.083082,0.607403,6.416261,4.111259,-2.528268,-48.932011
722,0.399726,0.603866,9.819550,-12.399956,0.021447,9.169031,3.698870,-2.526604,-48.740437
723,0.480510,0.519239,9.913999,-12.941659,-0.750671,10.524053,3.248891,-2.571506,-48.477848
