seq,ax,ay,az,wroll,wpitch,wyaw,roll,pitch,yaw,q0,q1,q2,q3
34,9.835690,-0.049873,-0.004511,0.028305,0.119026,-0.071432,-95.171928,-89.709259,95.171928,-0.706942,0.001792,0.707267,-0.001793
36,9.841990,-0.049008,0.009841,0.214812,0.141492,-0.064520,-94.075287,-89.711288,94.079361,-0.706978,0.001753,0.707231,-0.001804
37,9.840743,-0.056811,0.012608,0.243804,0.196443,-0.052308,-92.375191,-89.713326,92.387474,-0.707031,0.001698,0.707178,-0.001843
38,9.842628,-0.057220,0.015415,0.237700,0.240715,-0.037040,-90.263306,-89.713326,90.282410,-0.707096,0.001648,0.707113,-0.001892
39,9.840512,-0.051096,0.014760,0.220915,0.243787,-0.020249,-88.013634,-89.714012,88.040924,-0.707166,0.001601,0.707044,-0.001939
40,9.839227,-0.050444,0.011723,0.234649,0.227017,-0.006513,-85.957893,-89.713326,85.992706,-0.707229,0.001553,0.706980,-0.001985
41,9.837783,-0.054227,0.007366,0.181241,0.190404,-0.012613,-84.308762,-89.711967,84.350357,-0.707280,0.001512,0.706929,-0.002029
43,9.837156,-0.054341,0.009404,0.170559,0.147691,-0.000391,-82.829781,-89.709930,82.877815,-0.707328,0.001490,0.706881,-0.002079
44,9.842755,-0.047400,0.004911,0.169034,0.108025,-0.009539,-81.783051,-89.708588,81.836334,-0.707362,0.001461,0.706847,-0.002120
45,9.848220,-0.057386,0.009973,0.170559,0.097346,-0.017156,-81.057594,-89.706581,81.116623,-0.707387,0.001436,0.706822,-0.002164
46,9.845667,-0.054065,0.009196,0.178189,0.083623,-0.015602,-80.299828,-89.701950,80.364693,-0.707415,0.001424,0.706793,-0.002224
47,9.843518,-0.055265,0.009762,0.187345,0.085155,-0.014056,-79.685143,-89.698036,79.755966,-0.707438,0.001403,0.706770,-0.002279
48,9.845956,-0.049285,0.009432,0.158352,0.086684,-0.024732,-79.074966,-89.697388,79.151611,-0.707459,0.001370,0.706750,-0.002317
50,9.838048,-0.056139,0.016052,0.136991,0.092802,-0.020147,-78.083176,-89.694176,78.164948,-0.707492,0.001342,0.706716,-0.002349
51,9.832522,-0.051152,0.011843,0.100367,0.101975,-0.026239,-77.022728,-89.691620,77.108139,-0.707529,0.001324,0.706679,-0.002380
52,9.830812,-0.050128,0.013136,0.056116,0.111136,-0.035398,-76.147141,-89.692261,76.234993,-0.707557,0.001298,0.706651,-0.002386
53,9.831141,-0.050568,0.015794,-0.024759,0.114199,-0.044559,-75.058487,-89.694176,75.146965,-0.707591,0.001282,0.706617,-0.002376
54,9.829686,-0.048277,0.014557,-0.096478,0.105054,-0.058300,-73.961555,-89.695457,74.048241,-0.707623,0.001276,0.706585,-0.002346
55,9.836985,-0.044896,0.012151,-0.113263,0.098947,-0.073578,-73.158401,-89.699989,73.241280,-0.707641,0.001265,0.706567,-0.002291
57,9.838060,-0.043719,0.011204,-0.087321,0.068414,-0.070554,-72.702911,-89.705917,72.782867,-0.707644,0.001244,0.706565,-0.002229
58,9.837931,-0.044641,0.012771,-0.015604,0.062295,-0.056843,-72.396309,-89.711967,72.474411,-0.707643,0.001219,0.706566,-0.002182
59,9.841136,-0.042716,0.013066,0.072900,0.063811,-0.041604,-72.011635,-89.716759,72.090439,-0.707646,0.001183,0.706563,-0.002158
60,9.842614,-0.055134,0.014205,0.124782,0.069908,-0.024810,-71.820969,-89.716072,71.903229,-0.707653,0.001166,0.706556,-0.002181
61,9.838609,-0.056747,0.010882,0.111049,0.059213,-0.030868,-72.191307,-89.709259,72.277336,-0.707653,0.001181,0.706555,-0.002245
62,9.833945,-0.059036,0.012369,0.066798,0.065299,-0.039970,-72.753273,-89.703262,72.842583,-0.707648,0.001207,0.706560,-0.002307
64,9.835555,-0.056891,0.015045,0.043908,0.083603,-0.046027,-72.859604,-89.696098,72.950424,-0.707656,0.001233,0.706552,-0.002356
65,9.830573,-0.053831,0.016755,0.025597,0.065295,-0.044472,-72.503357,-89.692261,72.595825,-0.707674,0.001246,0.706534,-0.002383
66,9.827072,-0.049146,0.013789,0.016441,0.045456,-0.053621,-72.191711,-89.692894,72.285019,-0.707684,0.001238,0.706524,-0.002383
67,9.827809,-0.044227,0.016081,0.005760,0.048501,-0.055165,-71.792801,-89.696098,71.885674,-0.707689,0.001207,0.706520,-0.002357
68,9.835593,-0.044654,0.017067,0.017968,0.051555,-0.053665,-71.076591,-89.701294,71.170059,-0.707701,0.001167,0.706508,-0.002322
69,9.842133,-0.045836,0.013573,-0.000344,0.039343,-0.065892,-70.648499,-89.705917,70.742226,-0.707704,0.001134,0.706504,-0.002293
71,9.843313,-0.043031,0.012021,0.013390,0.051531,-0.072013,-70.593117,-89.711967,70.687172,-0.707695,0.001101,0.706513,-0.002262
72,9.843608,-0.039757,0.013345,0.040856,0.059142,-0.072041,-70.354782,-89.718147,70.449814,-0.707688,0.001053,0.706521,-0.002225
73,9.837390,-0.048725,0.012770,0.072900,0.063704,-0.055266,-70.203773,-89.721634,70.300850,-0.707685,0.001019,0.706524,-0.002214
74,9.832171,-0.048791,0.017376,0.059167,0.069801,-0.062879,-69.995636,-89.720238,70.094704,-0.707693,0.001010,0.706516,-0.002232
75,9.827915,-0.052830,0.017187,0.053063,0.056073,-0.047591,-69.634567,-89.717453,69.734917,-0.707711,0.001015,0.706498,-0.002260
76,9.831174,-0.053242,0.016042,0.021019,0.040814,-0.052131,-69.638321,-89.711967,69.740585,-0.707720,0.001034,0.706488,-0.002295
78,9.831901,-0.046584,0.017366,0.001182,0.039286,-0.036853,-69.550140,-89.709930,69.653175,-0.707727,0.001042,0.706482,-0.002307
79,9.841153,-0.040814,0.018485,-0.011025,0.034711,-0.038392,-68.991257,-89.714691,69.093491,-0.707738,0.001022,0.706471,-0.002285
80,9.844104,-0.043800,0.016255,0.016441,0.030132,-0.033833,-68.496613,-89.718842,68.599022,-0.707744,0.000995,0.706465,-0.002259
81,9.843759,-0.045663,0.017097,0.036279,0.037757,-0.039942,-68.293518,-89.718147,68.396698,-0.707746,0.000978,0.706463,-0.002253
82,9.844502,-0.049129,0.018805,0.066796,0.048440,-0.038405,-68.043953,-89.716759,68.148506,-0.707755,0.000970,0.706454,-0.002266
83,9.846035,-0.054117,0.017157,0.101892,0.043861,-0.049054,-68.038239,-89.714012,68.145737,-0.707764,0.000975,0.706444,-0.002306
85,9.840643,-0.060752,0.015145,0.115626,0.046903,-0.044418,-68.630699,-89.705917,68.742210,-0.707763,0.001001,0.706445,-0.002377
86,9.839572,-0.058812,0.012591,0.123256,0.051459,-0.035197,-69.590439,-89.698036,69.705956,-0.707751,0.001033,0.706457,-0.002457
87,9.839047,-0.055216,0.012212,0.112574,0.054482,-0.027523,-70.469147,-89.692894,70.588341,-0.707734,0.001047,0.706473,-0.002519
88,9.835090,-0.061013,0.009622,0.088159,0.055974,-0.024427,-71.456810,-89.688469,71.579468,-0.707712,0.001064,0.706495,-0.002578
89,9.833371,-0.058945,0.010430,0.054588,0.071198,-0.033534,-72.445297,-89.684097,72.570412,-0.707691,0.001091,0.706517,-0.002633
90,9.834101,-0.051826,0.011030,0.040854,0.060488,-0.042670,-72.969170,-89.682861,73.096031,-0.707676,0.001094,0.706532,-0.002655
92,9.832432,-0.047410,0.014485,0.010335,0.065050,-0.042681,-72.894707,-89.686592,73.022301,-0.707672,0.001069,0.706535,-0.002641
93,9.830454,-0.048864,0.011680,0.004233,0.069614,-0.056432,-72.640457,-89.690987,72.768036,-0.707673,0.001039,0.706535,-0.002614
94,9.832202,-0.048459,0.014844,-0.004922,0.072652,-0.062548,-72.360352,-89.694809,72.487663,-0.707675,0.001015,0.706533,-0.002590
95,9.830174,-0.049774,0.015413,0.017966,0.057389,-0.059502,-71.903870,-89.696739,72.031807,-0.707685,0.000995,0.706523,-0.002572
96,9.828572,-0.055621,0.015879,0.022543,0.057387,-0.059488,-71.633087,-89.695457,71.761597,-0.707694,0.000992,0.706513,-0.002578
97,9.831274,-0.056759,0.012436,0.030174,0.048222,-0.067087,-71.797508,-89.692261,71.926720,-0.707695,0.001006,0.706513,-0.002602
99,9.835361,-0.051542,0.014909,0.050011,0.049733,-0.060962,-71.960884,-89.691620,72.091568,-0.707691,0.001005,0.706516,-0.002617
100,9.833671,-0.047985,0.012219,0.068322,0.052771,-0.056386,-71.918243,-89.694176,72.050674,-0.707688,0.000978,0.706520,-0.002615
101,9.838302,-0.046720,0.014108,0.056114,0.057334,-0.050296,-71.800758,-89.698685,71.935028,-0.707684,0.000941,0.706524,-0.002603
102,9.836662,-0.040584,0.013703,0.051535,0.061900,-0.039644,-71.399170,-89.704590,71.535637,-0.707685,0.000892,0.706523,-0.002576
103,9.837998,-0.041955,0.013851,0.057640,0.060362,-0.039680,-70.921089,-89.711967,71.059654,-0.707686,0.000837,0.706522,-0.002543
104,9.835238,-0.042698,0.014887,0.048485,0.055775,-0.029024,-70.480820,-89.714691,70.620689,-0.707689,0.000794,0.706519,-0.002522
106,9.839053,-0.041114,0.014712,0.045433,0.035931,-0.021417,-70.107010,-89.719536,70.248489,-0.707692,0.000756,0.706517,-0.002504
107,9.837477,-0.049054,0.015424,0.039329,0.034399,-0.012265,-70.000839,-89.720932,70.144302,-0.707693,0.000741,0.706515,-0.002506
108,9.839540,-0.050184,0.014740,0.039329,0.040496,-0.010717,-70.169365,-89.717453,70.313499,-0.707694,0.000752,0.706514,-0.002533
109,9.836597,-0.049743,0.019025,0.033225,0.045076,-0.004592,-70.059830,-89.714012,70.205116,-0.707705,0.000765,0.706503,-0.002560
110,9.836879,-0.050568,0.016862,0.027121,0.049661,-0.003046,-69.785568,-89.709930,69.932037,-0.707721,0.000778,0.706487,-0.002586
111,9.835819,-0.053140,0.018054,0.025596,0.064922,-0.013701,-69.631142,-89.704590,69.778397,-0.707735,0.000796,0.706473,-0.002615
113,9.834914,-0.044572,0.014162,0.034750,0.061864,-0.024374,-69.480675,-89.703926,69.628944,-0.707741,0.000795,0.706466,-0.002626
114,9.834531,-0.045260,0.016567,0.048484,0.063378,-0.028964,-69.232697,-89.706581,69.382507,-0.707743,0.000768,0.706465,-0.002617
115,9.841959,-0.044194,0.015735,0.045431,0.064896,-0.042711,-68.853821,-89.710609,69.005371,-0.707748,0.000739,0.706459,-0.002606
116,9.842731,-0.040448,0.016705,0.040854,0.057258,-0.054939,-68.350456,-89.715378,68.503456,-0.707753,0.000699,0.706455,-0.002584
117,9.840010,-0.039300,0.021595,0.037803,0.060315,-0.050392,-67.321304,-89.718842,67.475227,-0.707770,0.000650,0.706438,-0.002551
118,9.841405,-0.046825,0.023685,0.025596,0.063388,-0.061083,-66.032555,-89.720238,66.187737,-0.707804,0.000622,0.706405,-0.002537
120,9.841884,-0.045082,0.022003,0.016439,0.058828,-0.068704,-65.038925,-89.718842,65.194649,-0.707834,0.000613,0.706374,-0.002536
121,9.836759,-0.051032,0.017343,0.030174,0.054249,-0.054951,-64.834976,-89.716759,64.991486,-0.707844,0.000615,0.706363,-0.002548
122,9.839444,-0.054473,0.017399,0.045433,0.057286,-0.057959,-65.364677,-89.712646,65.522018,-0.707841,0.000639,0.706367,-0.002586
123,9.848066,-0.051533,0.015019,0.046958,0.043531,-0.059444,-66.061317,-89.709259,66.220276,-0.707830,0.000658,0.706378,-0.002625
124,9.845006,-0.049016,0.017006,0.042381,0.045036,-0.042635,-66.582794,-89.707916,66.743362,-0.707818,0.000662,0.706390,-0.002647
125,9.844020,-0.046709,0.016622,0.036277,0.046545,-0.034995,-66.788383,-89.709930,66.950867,-0.707811,0.000656,0.706396,-0.002657
127,9.843304,-0.050307,0.019991,0.022543,0.051115,-0.038035,-66.762367,-89.707916,66.925888,-0.707814,0.000654,0.706394,-0.002667
128,9.842880,-0.055081,0.020838,0.019492,0.040437,-0.041055,-66.693390,-89.704590,66.857536,-0.707826,0.000673,0.706381,-0.002694
129,9.835787,-0.053933,0.021188,0.033225,0.051124,-0.045594,-66.648140,-89.699333,66.813019,-0.707840,0.000697,0.706367,-0.002729
130,9.837955,-0.053782,0.020263,0.051535,0.057229,-0.050139,-66.552353,-89.694809,66.718620,-0.707853,0.000711,0.706354,-0.002760
131,9.839647,-0.062255,0.019228,0.060692,0.060276,-0.057720,-66.791916,-89.689095,66.960136,-0.707860,0.000736,0.706347,-0.002808
132,9.839952,-0.054940,0.015843,0.066795,0.063311,-0.051569,-67.311989,-89.684097,67.482239,-0.707856,0.000759,0.706351,-0.002857
134,9.841200,-0.050721,0.016580,0.069847,0.073968,-0.050028,-67.605156,-89.684097,67.777115,-0.707847,0.000749,0.706360,-0.002875
135,9.841642,-0.054915,0.014910,0.074425,0.073943,-0.050016,-67.876122,-89.684097,68.051155,-0.707837,0.000736,0.706369,-0.002891
136,9.842993,-0.055367,0.013128,0.080529,0.066282,-0.045416,-68.480843,-89.682251,68.658028,-0.707820,0.000733,0.706386,-0.002920
137,9.843174,-0.053139,0.015054,0.075951,0.060148,-0.039295,-69.022118,-89.681633,69.201782,-0.707803,0.000725,0.706403,-0.002944
138,9.837798,-0.053365,0.013993,0.092736,0.063175,-0.045387,-69.387718,-89.681633,69.570396,-0.707791,0.000711,0.706415,-0.002964
139,9.837438,-0.059441,0.011590,0.085106,0.061617,-0.042310,-70.066391,-89.680405,70.252007,-0.707772,0.000709,0.706434,-0.002999
141,9.835499,-0.050392,0.012498,0.045432,0.058531,-0.045343,-70.713699,-89.681023,70.901131,-0.707751,0.000704,0.706455,-0.003020
142,9.834016,-0.050282,0.015605,0.019491,0.063088,-0.054506,-70.783501,-89.683479,70.971970,-0.707743,0.000681,0.706463,-0.003010
143,9.837767,-0.046470,0.017834,0.045432,0.070712,-0.051469,-70.313911,-89.687843,70.503723,-0.707751,0.000648,0.706456,-0.002991
144,9.841117,-0.047444,0.019222,0.017966,0.069188,-0.049962,-69.535339,-89.691620,69.725662,-0.707768,0.000612,0.706439,-0.002968
145,9.838008,-0.040743,0.020477,0.011861,0.075299,-0.043889,-68.491463,-89.696739,68.682533,-0.707790,0.000570,0.706417,-0.002932
146,9.841090,-0.057430,0.022618,0.045431,0.084468,-0.040837,-67.559013,-89.696739,67.751701,-0.707819,0.000555,0.706387,-0.002928
147,9.842202,-0.055231,0.018054,0.050009,0.085997,-0.048430,-67.294472,-89.690353,67.488281,-0.707840,0.000573,0.706366,-0.002966
148,9.837717,-0.050667,0.016998,0.028646,0.082932,-0.048410,-67.294006,-89.688469,67.489403,-0.707844,0.000575,0.706362,-0.002984
149,9.839369,-0.050392,0.018595,0.046957,0.072236,-0.049929,-67.179276,-89.689728,67.375275,-0.707846,0.000563,0.706360,-0.002987
150,9.839816,-0.061583,0.015132,0.050009,0.067639,-0.060579,-67.520805,-89.686592,67.718613,-0.707842,0.000573,0.706364,-0.003017
151,9.839411,-0.049488,0.014737,0.039328,0.059982,-0.054447,-68.098984,-89.685341,68.298897,-0.707828,0.000580,0.706379,-0.003042
152,9.837472,-0.048127,0.014819,0.039328,0.049272,-0.040720,-68.357353,-89.687210,68.558418,-0.707812,0.000556,0.706394,-0.003034
153,9.838134,-0.052075,0.014358,0.031698,0.044669,-0.040720,-68.717873,-89.689728,68.919945,-0.707795,0.000540,0.706411,-0.003033
154,9.835684,-0.055045,0.012512,0.027120,0.055320,-0.036124,-69.359749,-89.689095,69.562706,-0.707776,0.000544,0.706430,-0.003049
155,9.837735,-0.043335,0.016862,0.030173,0.059877,-0.039179,-69.505127,-89.691620,69.709274,-0.707767,0.000528,0.706439,-0.003044
156,9.836094,-0.043038,0.013939,0.022543,0.069017,-0.052944,-69.133690,-89.697388,69.338531,-0.707765,0.000481,0.706442,-0.003008
157,9.835328,-0.049677,0.015386,0.033224,0.068998,-0.060587,-68.983505,-89.701950,69.189194,-0.707761,0.000451,0.706446,-0.002989
158,9.836916,-0.048968,0.012641,0.051535,0.078132,-0.062108,-69.079521,-89.702606,69.286736,-0.707754,0.000435,0.706452,-0.002990
160,9.836339,-0.046734,0.017326,0.050010,0.075064,-0.068211,-68.936882,-89.705917,69.145676,-0.707754,0.000412,0.706452,-0.002988
161,9.830209,-0.045916,0.017695,0.056113,0.070482,-0.056008,-68.383713,-89.707245,68.594063,-0.707766,0.000383,0.706440,-0.002981
162,9.827879,-0.045934,0.021389,0.079002,0.056755,-0.037703,-67.654114,-89.708588,67.866989,-0.707785,0.000355,0.706421,-0.002980
163,9.828002,-0.043621,0.018855,0.092736,0.068969,-0.023978,-66.900009,-89.709259,67.116165,-0.707805,0.000322,0.706402,-0.002983
164,9.827318,-0.049083,0.021868,0.101891,0.062871,-0.022451,-66.307030,-89.707916,66.525932,-0.707823,0.000299,0.706383,-0.002999
165,9.827738,-0.051186,0.019711,0.118676,0.056771,-0.016326,-66.026428,-89.704590,66.248962,-0.707840,0.000293,0.706366,-0.003039
166,9.830818,-0.056833,0.019418,0.118676,0.049138,-0.017814,-66.254936,-89.698685,66.481445,-0.707847,0.000303,0.706359,-0.003098
167,9.832175,-0.064631,0.015964,0.095787,0.055227,-0.026902,-67.102661,-89.689095,67.332787,-0.707843,0.000344,0.706362,-0.003182
168,9.834098,-0.067024,0.018053,0.089683,0.049106,-0.025290,-68.185562,-89.679794,68.418854,-0.707836,0.000404,0.706370,-0.003280
169,9.836568,-0.059674,0.013984,0.072897,0.038402,-0.023699,-69.133530,-89.671349,69.369217,-0.707822,0.000446,0.706382,-0.003355
170,9.834340,-0.067484,0.018300,0.056112,0.036855,-0.025168,-69.944527,-89.664864,70.182205,-0.707810,0.000483,0.706395,-0.003419
171,9.836380,-0.065597,0.016284,0.048483,0.033790,-0.026631,-70.610176,-89.655647,70.850067,-0.707804,0.000530,0.706400,-0.003486
172,9.839893,-0.066298,0.022857,0.062216,0.039894,-0.028104,-70.847229,-89.648895,71.088753,-0.707811,0.000565,0.706393,-0.003544
173,9.841014,-0.060574,0.022744,0.050009,0.035331,-0.034174,-70.526146,-89.643372,70.769745,-0.707833,0.000580,0.706371,-0.003583
174,9.838341,-0.059913,0.024622,0.048483,0.042978,-0.040265,-69.964378,-89.641724,70.209137,-0.707858,0.000576,0.706346,-0.003598
175,9.842241,-0.051837,0.020457,0.048483,0.049090,-0.034171,-69.374382,-89.642822,69.621170,-0.707876,0.000548,0.706328,-0.003591
176,9.839479,-0.052580,0.021493,0.021016,0.059769,-0.031146,-68.839493,-89.647232,69.086868,-0.707885,0.000507,0.706319,-0.003564
177,9.838037,-0.051973,0.012668,0.019490,0.050591,-0.029644,-68.836296,-89.652824,69.084274,-0.707874,0.000474,0.706330,-0.003539
178,9.832575,-0.057072,0.014027,0.011860,0.045972,-0.037282,-69.453308,-89.656219,69.701904,-0.707844,0.000456,0.706360,-0.003527
179,9.835760,-0.061900,0.013975,-0.003400,0.052040,-0.038789,-70.170044,-89.656219,70.419052,-0.707819,0.000466,0.706385,-0.003539
180,9.836513,-0.057682,0.015907,-0.000348,0.055066,-0.041820,-70.664909,-89.654518,70.913635,-0.707804,0.000479,0.706400,-0.003551
181,9.838573,-0.055283,0.020398,0.037800,0.050480,-0.035713,-70.554008,-89.656219,70.803879,-0.707807,0.000470,0.706397,-0.003549
182,9.840678,-0.049030,0.026449,0.037800,0.052024,-0.025050,-69.607529,-89.658501,69.858650,-0.707835,0.000438,0.706369,-0.003533
183,9.845184,-0.043374,0.024228,0.042379,0.056627,-0.026622,-68.195290,-89.664284,68.447357,-0.707871,0.000379,0.706333,-0.003491
184,9.846250,-0.046351,0.028231,0.056112,0.049023,-0.029721,-66.722427,-89.668388,66.976303,-0.707907,0.000317,0.706297,-0.003449
185,9.843746,-0.048370,0.029275,0.068319,0.044477,-0.029749,-65.265411,-89.671349,65.521301,-0.707949,0.000271,0.706255,-0.003428
186,9.844451,-0.048641,0.022057,0.057638,0.039912,-0.041973,-64.444176,-89.673141,64.702087,-0.707970,0.000234,0.706234,-0.003418
187,9.841920,-0.052210,0.018042,0.050009,0.036841,-0.057235,-64.559547,-89.676147,64.819359,-0.707959,0.000210,0.706245,-0.003415
188,9.840929,-0.052674,0.020797,0.065268,0.041396,-0.052648,-64.904251,-89.677361,65.166336,-0.707945,0.000195,0.706259,-0.003425
189,9.835907,-0.049424,0.016601,0.068320,0.049001,-0.046541,-65.211411,-89.680405,65.475266,-0.707930,0.000175,0.706274,-0.003431
190,9.836851,-0.052811,0.012528,0.043905,0.047433,-0.060270,-65.981041,-89.683479,66.246582,-0.707898,0.000157,0.706307,-0.003436
191,9.833214,-0.058236,0.012354,0.043904,0.058064,-0.058717,-67.168900,-89.682861,67.435730,-0.707859,0.000162,0.706345,-0.003459
192,9.834163,-0.059831,0.014664,0.053059,0.062602,-0.054096,-68.234222,-89.679184,68.503036,-0.707832,0.000183,0.706372,-0.003500
193,9.833723,-0.059512,0.011522,0.046955,0.054935,-0.055579,-69.228745,-89.676147,69.499451,-0.707807,0.000205,0.706397,-0.003541
194,9.836085,-0.065982,0.012061,0.045428,0.050316,-0.044844,-70.421135,-89.670753,70.692780,-0.707778,0.000238,0.706426,-0.003594
195,9.842569,-0.065056,0.010369,0.036273,0.048751,-0.041729,-71.658539,-89.664864,71.931519,-0.707749,0.000283,0.706454,-0.003654
196,9.848252,-0.058788,0.009133,0.036273,0.050234,-0.049320,-72.735413,-89.661957,73.009933,-0.707717,0.000304,0.706486,-0.003690
197,9.845804,-0.055573,0.009443,0.027116,0.039512,-0.044733,-73.552177,-89.663696,73.827354,-0.707686,0.000297,0.706517,-0.003696
198,9.846961,-0.057033,0.013927,0.010331,0.047117,-0.038626,-73.930229,-89.664284,74.206108,-0.707670,0.000288,0.706533,-0.003695
199,9.843958,-0.047664,0.013490,0.004228,0.037949,-0.055426,-73.820847,-89.668388,74.097099,-0.707667,0.000262,0.706536,-0.003671
200,9.837652,-0.042084,0.013001,0.033220,0.054722,-0.047846,-73.434540,-89.678574,73.711777,-0.707664,0.000199,0.706540,-0.003616
201,9.835439,-0.040133,0.015006,0.036272,0.040980,-0.032648,-72.812500,-89.689095,73.090393,-0.707666,0.000122,0.706538,-0.003554
202,9.834406,-0.041331,0.012941,0.062212,0.047075,-0.043385,-72.235123,-89.698685,72.514580,-0.707666,0.000050,0.706538,-0.003502
203,9.836327,-0.045864,0.008767,0.083575,0.059258,-0.043417,-72.226051,-89.706581,72.507904,-0.707654,-0.000006,0.706551,-0.003476
204,9.836542,-0.045963,0.010579,0.091205,0.072962,-0.034276,-72.465767,-89.709259,72.750511,-0.707639,-0.000045,0.706566,-0.003472
205,9.840225,-0.039229,0.014729,0.069842,0.063794,-0.029724,-72.099121,-89.714012,72.387108,-0.707641,-0.000094,0.706564,-0.003456
206,9.843096,-0.040905,0.016833,0.060687,0.063798,-0.032810,-71.164925,-89.720238,71.454903,-0.707657,-0.000148,0.706547,-0.003429
207,9.845054,-0.036552,0.018185,0.039324,0.065334,-0.025217,-69.952232,-89.724464,70.243752,-0.707681,-0.000200,0.706524,-0.003398
208,9.841681,-0.035914,0.018604,0.050006,0.045509,-0.028311,-68.632401,-89.730202,68.925812,-0.707705,-0.000257,0.706500,-0.003359
209,9.845945,-0.041416,0.019297,0.069842,0.033313,-0.032914,-67.600967,-89.734589,67.895683,-0.707725,-0.000300,0.706481,-0.003341
210,9.843169,-0.046951,0.017692,0.092732,0.016534,-0.052744,-67.203117,-89.734589,67.501244,-0.707736,-0.000319,0.706469,-0.003355
211,9.837473,-0.044715,0.019873,0.094257,0.018066,-0.054253,-66.986488,-89.732391,67.287407,-0.707745,-0.000332,0.706460,-0.003381
212,9.838347,-0.047952,0.020619,0.075946,0.016552,-0.060337,-66.612709,-89.730934,66.916138,-0.707760,-0.000342,0.706445,-0.003406
213,9.839776,-0.048036,0.021369,0.057635,0.025721,-0.061836,-66.245560,-89.727318,66.551659,-0.707778,-0.000341,0.706427,-0.003434
214,9.833896,-0.045138,0.018966,0.019487,0.034884,-0.072499,-65.890358,-89.726601,66.197227,-0.707791,-0.000345,0.706413,-0.003446
215,9.839296,-0.054924,0.019808,0.007280,0.050145,-0.069413,-65.840065,-89.722343,66.147118,-0.707801,-0.000329,0.706403,-0.003468
216,9.840817,-0.057595,0.016588,0.002701,0.051664,-0.069350,-66.337212,-89.716072,66.644867,-0.707806,-0.000282,0.706399,-0.003516
217,9.841104,-0.060503,0.016238,0.027116,0.047071,-0.064702,-67.208969,-89.706581,67.517006,-0.707800,-0.000228,0.706404,-0.003576
218,9.842986,-0.057560,0.015783,0.028642,0.040950,-0.067688,-68.041321,-89.699333,68.350243,-0.707791,-0.000184,0.706412,-0.003631
219,9.844902,-0.059719,0.018113,0.045427,0.040938,-0.053900,-68.615257,-89.693535,68.925667,-0.707788,-0.000149,0.706416,-0.003681
220,9.836644,-0.047917,0.013839,0.051531,0.043974,-0.040141,-68.983650,-89.691620,69.295433,-0.707781,-0.000143,0.706423,-0.003706
221,9.838882,-0.045890,0.014599,0.054584,0.042424,-0.035575,-69.185951,-89.695457,69.499741,-0.707766,-0.000173,0.706437,-0.003698
222,9.840255,-0.046354,0.011250,0.027117,0.050025,-0.038642,-69.476486,-89.699333,69.791611,-0.707747,-0.000205,0.706456,-0.003684
223,9.834754,-0.048544,0.012481,0.019487,0.059149,-0.023389,-69.924492,-89.702606,70.239830,-0.707728,-0.000222,0.706476,-0.003676
224,9.833933,-0.047760,0.010415,-0.001876,0.060644,-0.029493,-70.402435,-89.704590,70.718086,-0.707709,-0.000229,0.706494,-0.003672
225,9.840057,-0.055107,0.008494,-0.052233,0.060606,-0.044735,-71.241211,-89.705246,71.555901,-0.707684,-0.000214,0.706519,-0.003675
226,9.834586,-0.059277,0.009609,-0.041551,0.069724,-0.047743,-72.267456,-89.701294,72.580750,-0.707661,-0.000170,0.706543,-0.003700
227,9.836122,-0.058890,0.010841,0.001175,0.074274,-0.038536,-73.026108,-89.696098,73.338882,-0.707648,-0.000124,0.706556,-0.003737
228,9.837708,-0.053613,0.012063,0.028641,0.069676,-0.061393,-73.346710,-89.692261,73.660416,-0.707643,-0.000106,0.706560,-0.003762
229,9.837621,-0.048601,0.013256,0.065263,0.063560,-0.061390,-73.225357,-89.694176,73.540138,-0.707644,-0.000125,0.706559,-0.003761
230,9.833692,-0.048512,0.019813,0.130879,0.055937,-0.046141,-72.493973,-89.696739,72.811821,-0.707663,-0.000166,0.706540,-0.003760
231,9.838306,-0.049033,0.016041,0.120196,0.049845,-0.059881,-71.665878,-89.698036,71.988251,-0.707686,-0.000210,0.706518,-0.003768
232,9.839297,-0.044116,0.017374,0.107990,0.046797,-0.075156,-70.999260,-89.701950,71.325562,-0.707699,-0.000262,0.706504,-0.003763
233,9.838318,-0.053260,0.010989,0.072893,0.052888,-0.075157,-70.857063,-89.705246,71.185966,-0.707698,-0.000298,0.706506,-0.003764
234,9.839127,-0.057566,0.008964,0.048477,0.054381,-0.070545,-71.670227,-89.701294,72.001167,-0.707676,-0.000292,0.706527,-0.003795
235,9.842115,-0.061149,0.004567,0.033218,0.060438,-0.076596,-73.031631,-89.697388,73.364441,-0.707641,-0.000263,0.706561,-0.003840
236,9.841465,-0.059633,0.006722,0.045424,0.068020,-0.053653,-74.388397,-89.692894,74.721909,-0.707606,-0.000231,0.706596,-0.003888
237,9.835114,-0.060101,0.006969,0.028640,0.066456,-0.036822,-75.360207,-89.687843,75.695549,-0.707582,-0.000202,0.706620,-0.003932
238,9.840502,-0.055197,0.011033,0.033217,0.060328,-0.023058,-75.832489,-89.684723,76.168694,-0.707572,-0.000184,0.706630,-0.003962
239,9.839218,-0.052927,0.006305,0.053055,0.067935,-0.015419,-76.138367,-89.684723,76.475632,-0.707563,-0.000188,0.706640,-0.003976
240,9.839641,-0.045665,0.011599,0.050003,0.060285,-0.015435,-76.199295,-89.687843,76.538071,-0.707556,-0.000218,0.706646,-0.003967
241,9.838119,-0.041375,0.013249,0.053054,0.051126,-0.029212,-75.585716,-89.694809,75.925972,-0.707565,-0.000275,0.706637,-0.003931
242,9.837996,-0.039180,0.011193,0.077469,0.052649,-0.032319,-74.896088,-89.704590,75.238976,-0.707573,-0.000349,0.706630,-0.003884
243,9.833946,-0.041928,0.012090,0.097306,0.055694,-0.032364,-74.339111,-89.711967,74.684631,-0.707577,-0.000418,0.706626,-0.003850
244,9.834532,-0.045723,0.016930,0.077469,0.054173,-0.046119,-73.536102,-89.716072,73.884888,-0.707594,-0.000466,0.706609,-0.003838
245,9.830240,-0.050731,0.011681,0.075943,0.060281,-0.044589,-73.017693,-89.716759,73.368889,-0.707609,-0.000487,0.706593,-0.003849
246,9.835204,-0.055978,0.013470,0.068314,0.061800,-0.041505,-73.059898,-89.711967,73.413506,-0.707614,-0.000479,0.706588,-0.003887
247,9.835458,-0.058061,0.014563,0.053054,0.052642,-0.042982,-73.109589,-89.705917,73.464973,-0.707624,-0.000452,0.706578,-0.003938
248,9.837739,-0.051371,0.016157,0.034743,0.045017,-0.042949,-72.911041,-89.701294,73.268417,-0.707638,-0.000437,0.706564,-0.003971
249,9.840224,-0.046339,0.013419,0.043899,0.054171,-0.036845,-72.552277,-89.702606,72.910606,-0.707648,-0.000453,0.706554,-0.003971
250,9.841831,-0.038469,0.019095,0.057632,0.058754,-0.032299,-71.684746,-89.707916,72.045464,-0.707664,-0.000503,0.706538,-0.003943
251,9.837949,-0.042046,0.017466,0.075943,0.057241,-0.032338,-70.462242,-89.712646,70.824211,-0.707689,-0.000562,0.706513,-0.003911
252,9.844266,-0.039251,0.017213,0.062210,0.057247,-0.033896,-69.503395,-89.717453,69.867874,-0.707707,-0.000614,0.706495,-0.003887
253,9.844329,-0.035060,0.017084,0.050003,0.063353,-0.052250,-68.447609,-89.724464,68.814667,-0.707721,-0.000677,0.706481,-0.003848
254,9.843541,-0.032960,0.019837,0.045425,0.043522,-0.053829,-67.100403,-89.733124,67.468369,-0.707739,-0.000749,0.706464,-0.003795
255,9.841661,-0.037352,0.012943,0.027113,0.037412,-0.067602,-66.314880,-89.741310,66.684120,-0.707741,-0.000808,0.706461,-0.003751
256,9.840466,-0.030151,0.013990,0.019484,0.045020,-0.056958,-65.997337,-89.747437,66.367729,-0.707729,-0.000863,0.706474,-0.003706
257,9.831265,-0.030162,0.020452,0.030165,0.048068,-0.057006,-64.825829,-89.757713,65.196602,-0.707736,-0.000928,0.706467,-0.003651
258,9.830058,-0.036482,0.018877,0.056106,0.037397,-0.038721,-63.598309,-89.760971,63.970711,-0.707755,-0.000972,0.706448,-0.003625
259,9.827908,-0.041380,0.023308,0.037795,0.043516,-0.043291,-62.790264,-89.759338,63.164555,-0.707778,-0.000982,0.706425,-0.003634
260,9.828699,-0.037180,0.022469,0.030165,0.040485,-0.031071,-61.875446,-89.757713,62.250450,-0.707807,-0.000985,0.706396,-0.003645
261,9.831223,-0.033554,0.018289,0.019484,0.028282,-0.029554,-61.226139,-89.758522,61.602139,-0.707819,-0.001004,0.706384,-0.003637
263,9.834393,-0.037280,0.009798,0.022536,0.029780,-0.034137,-61.736877,-89.761787,62.113777,-0.707797,-0.001021,0.706406,-0.003628
264,9.834512,-0.040629,0.013182,0.019484,0.046525,-0.038703,-62.920490,-89.763435,63.297909,-0.707765,-0.001020,0.706438,-0.003637
265,9.839685,-0.038345,0.009535,0.056106,0.046488,-0.035635,-64.005630,-89.764267,64.384491,-0.707738,-0.001020,0.706465,-0.003652
266,9.842976,-0.047787,0.015280,0.066788,0.055615,-0.031025,-65.028053,-89.760971,65.408943,-0.707720,-0.001008,0.706482,-0.003690
267,9.843365,-0.054613,0.020002,0.060684,0.072400,-0.046215,-65.525520,-89.752129,65.908150,-0.707733,-0.000961,0.706469,-0.003763
268,9.843724,-0.055068,0.020491,0.059158,0.080043,-0.041557,-65.644615,-89.739052,66.029251,-0.707762,-0.000902,0.706440,-0.003846
269,9.844810,-0.050660,0.015560,0.054580,0.076991,-0.030812,-65.924934,-89.731659,66.311638,-0.707777,-0.000859,0.706425,-0.003912
270,9.840034,-0.050065,0.013664,0.036269,0.076971,-0.033822,-66.524696,-89.725891,66.912811,-0.707773,-0.000833,0.706429,-0.003957
271,9.835823,-0.045861,0.010445,0.050003,0.075411,-0.041427,-67.270378,-89.723755,67.659828,-0.707756,-0.000825,0.706446,-0.003982
272,9.833934,-0.045218,0.007758,0.062210,0.067735,-0.050573,-68.225075,-89.725174,68.616173,-0.707725,-0.000837,0.706477,-0.003993
273,9.834656,-0.043934,0.006323,0.065261,0.050897,-0.052095,-69.405525,-89.729477,69.799103,-0.707685,-0.000857,0.706517,-0.003999
274,9.832913,-0.040583,0.007489,0.068313,0.041694,-0.049050,-70.448189,-89.734589,70.843910,-0.707646,-0.000888,0.706555,-0.003995
275,9.831992,-0.045127,0.009410,0.068313,0.037080,-0.042949,-71.215675,-89.738304,71.613708,-0.707619,-0.000915,0.706582,-0.003997
276,9.835913,-0.042608,0.009355,0.063735,0.034001,-0.044472,-71.808311,-89.739052,72.208389,-0.707600,-0.000933,0.706602,-0.004005
277,9.837873,-0.052015,0.007242,0.065261,0.037023,-0.029189,-72.682182,-89.738304,73.084801,-0.707578,-0.000932,0.706623,-0.004033
278,9.838123,-0.053171,0.007731,0.074417,0.047675,-0.032194,-73.796860,-89.733124,74.200806,-0.707557,-0.000906,0.706644,-0.004087
279,9.841564,-0.060198,0.008773,0.066787,0.050703,-0.047391,-74.732491,-89.724464,75.139244,-0.707543,-0.000866,0.706658,-0.004155
280,9.845775,-0.054750,0.010766,0.071364,0.056792,-0.058011,-75.241638,-89.716072,75.650887,-0.707540,-0.000831,0.706660,-0.004218
281,9.842340,-0.058071,0.011193,0.054579,0.050681,-0.057963,-75.408615,-89.710609,75.819847,-0.707544,-0.000808,0.706656,-0.004267
282,9.843393,-0.050466,0.013847,0.043898,0.041527,-0.070139,-75.257538,-89.707245,75.670563,-0.707553,-0.000800,0.706647,-0.004296
283,9.842203,-0.050724,0.013464,0.031690,0.038479,-0.053343,-74.842026,-89.707245,75.256210,-0.707566,-0.000809,0.706634,-0.004302
284,9.838777,-0.045553,0.013270,0.046949,0.040007,-0.042663,-74.434753,-89.709259,74.850395,-0.707576,-0.000829,0.706624,-0.004298
285,9.833574,-0.050310,0.012945,0.053053,0.043058,-0.041139,-74.104935,-89.710609,74.522438,-0.707584,-0.000850,0.706616,-0.004297
286,9.835214,-0.045059,0.010433,0.053053,0.049153,-0.031985,-74.001976,-89.712646,74.421043,-0.707585,-0.000871,0.706615,-0.004299
287,9.835877,-0.042476,0.011765,0.054579,0.055244,-0.018271,-73.827988,-89.715378,74.248146,-0.707583,-0.000906,0.706616,-0.004286
288,9.838394,-0.047282,0.016642,0.053053,0.059825,-0.022861,-73.223289,-89.718147,73.645927,-0.707598,-0.000933,0.706602,-0.004281
289,9.837000,-0.045828,0.012034,0.016431,0.067457,-0.036595,-72.666504,-89.718147,73.090202,-0.707613,-0.000947,0.706586,-0.004281
290,9.835962,-0.045637,0.008881,-0.004932,0.073542,-0.025917,-72.685425,-89.720238,73.108757,-0.707610,-0.000958,0.706590,-0.004272
291,9.832299,-0.045673,0.013635,0.011854,0.064372,-0.019816,-72.642731,-89.721634,73.067101,-0.707609,-0.000966,0.706591,-0.004266
292,9.825263,-0.042703,0.008077,0.011854,0.064355,-0.022876,-72.624939,-89.723045,73.049652,-0.707606,-0.000981,0.706594,-0.004255
293,9.822877,-0.039056,0.003567,0.010327,0.055158,-0.038158,-73.248550,-89.728760,73.673462,-0.707578,-0.001012,0.706622,-0.004229
294,9.828753,-0.044031,0.008505,0.027112,0.035283,-0.035123,-73.940292,-89.733856,74.365692,-0.707550,-0.001040,0.706650,-0.004208
295,9.830800,-0.045731,0.009510,0.036268,0.021530,-0.035120,-74.351509,-89.735329,74.778137,-0.707536,-0.001051,0.706664,-0.004210
296,9.836157,-0.055033,0.013003,0.034742,0.024576,-0.047297,-74.596458,-89.731659,75.023933,-0.707535,-0.001036,0.706665,-0.004239
297,9.841314,-0.058750,0.016599,0.037794,0.024588,-0.045709,-74.498001,-89.723755,74.926819,-0.707552,-0.000992,0.706648,-0.004298
298,9.844155,-0.059718,0.020148,0.028638,0.029194,-0.039538,-73.956154,-89.713326,74.385895,-0.707585,-0.000941,0.706614,-0.004363
299,9.838553,-0.052615,0.019187,0.034742,0.036855,-0.030336,-73.145653,-89.705917,73.576431,-0.707622,-0.000910,0.706577,-0.004408
300,9.839458,-0.049450,0.019920,0.045423,0.030777,-0.028796,-72.246300,-89.701950,72.678513,-0.707655,-0.000910,0.706544,-0.004424
301,9.841910,-0.047583,0.014055,0.050002,0.046046,-0.022694,-71.693848,-89.702606,72.127617,-0.707671,-0.000926,0.706527,-0.004428
302,9.839988,-0.048310,0.015106,0.062209,0.052143,-0.021172,-71.493645,-89.703926,71.929489,-0.707675,-0.000946,0.706523,-0.004431
303,9.842154,-0.047580,0.013818,0.071364,0.050609,-0.024227,-71.342690,-89.703926,71.780472,-0.707678,-0.000967,0.706521,-0.004437
304,9.844213,-0.053969,0.010134,0.071364,0.058218,-0.034896,-71.672356,-89.703262,72.112251,-0.707668,-0.000976,0.706530,-0.004457
305,9.845851,-0.055134,0.005707,0.065259,0.068860,-0.030288,-72.673218,-89.701294,73.116188,-0.707642,-0.000967,0.706556,-0.004494
306,9.843746,-0.048899,0.004209,0.039319,0.062704,-0.045532,-73.867332,-89.701950,74.311157,-0.707604,-0.000970,0.706594,-0.004512
307,9.844760,-0.048038,0.007961,0.028637,0.065714,-0.047061,-74.612480,-89.705246,75.057495,-0.707576,-0.000989,0.706623,-0.004506
308,9.841851,-0.043916,0.006091,0.016430,0.068732,-0.045550,-74.986748,-89.709930,75.432465,-0.707557,-0.001018,0.706641,-0.004486
309,9.843837,-0.039284,0.013710,0.025586,0.062612,-0.034902,-74.706245,-89.716759,75.152916,-0.707555,-0.001064,0.706644,-0.004449
310,9.840968,-0.043850,0.017645,0.027112,0.062626,-0.042561,-73.541000,-89.721634,73.988861,-0.707581,-0.001107,0.706617,-0.004417
311,9.839130,-0.042940,0.019538,0.045423,0.051970,-0.025792,-72.130630,-89.723755,72.579361,-0.707619,-0.001136,0.706580,-0.004403
312,9.837349,-0.039746,0.015160,0.025586,0.036727,-0.031916,-71.059891,-89.725891,71.510040,-0.707644,-0.001170,0.706555,-0.004383
313,9.836485,-0.045126,0.013830,0.053052,0.042828,-0.016669,-70.677048,-89.728035,71.128334,-0.707650,-0.001196,0.706549,-0.004374
314,9.830597,-0.053380,0.014585,0.060682,0.039770,-0.018172,-70.805954,-89.724464,71.259193,-0.707652,-0.001187,0.706546,-0.004406
315,9.836045,-0.050817,0.016727,0.057630,0.035193,-0.018134,-70.904091,-89.719536,71.359230,-0.707660,-0.001166,0.706538,-0.004451
316,9.838238,-0.056225,0.019671,0.050001,0.030627,-0.024198,-70.703354,-89.711967,71.160309,-0.707679,-0.001142,0.706519,-0.004498
317,9.841909,-0.053591,0.020214,0.074416,0.030646,-0.002792,-70.372551,-89.706581,70.831688,-0.707704,-0.001115,0.706494,-0.004550
318,9.842972,-0.051136,0.018902,0.068312,0.016927,-0.014974,-70.062355,-89.701294,70.523758,-0.707722,-0.001107,0.706475,-0.004587
319,9.844515,-0.050814,0.011096,0.045423,0.023020,-0.019538,-70.369110,-89.699989,70.832588,-0.707715,-0.001108,0.706482,-0.004609
320,9.837766,-0.054565,0.008933,0.051526,0.019932,-0.014940,-71.442276,-89.699333,71.906982,-0.707684,-0.001102,0.706513,-0.004636
321,9.835401,-0.056707,0.008775,0.051525,0.032101,-0.011855,-72.689644,-89.696739,73.156723,-0.707650,-0.001083,0.706547,-0.004676
322,9.835401,-0.060465,0.004083,0.039318,0.033579,-0.037752,-74.157440,-89.691620,74.625351,-0.707611,-0.001054,0.706586,-0.004723
323,9.837935,-0.060712,0.011601,0.031689,0.042701,-0.042280,-75.238190,-89.687210,75.707634,-0.707584,-0.001020,0.706612,-0.004770
324,9.836049,-0.056311,0.013486,0.042370,0.048797,-0.037669,-75.369179,-89.684097,75.839439,-0.707586,-0.001003,0.706610,-0.004803
325,9.837568,-0.053490,0.013387,0.042370,0.059476,-0.037657,-75.126213,-89.682861,75.598015,-0.707595,-0.001008,0.706601,-0.004816
326,9.839868,-0.049875,0.008238,0.050000,0.057935,-0.033085,-75.105400,-89.682861,75.578537,-0.707593,-0.001030,0.706603,-0.004812
327,9.836907,-0.051105,0.006861,0.065257,0.064008,-0.023941,-75.506226,-89.687843,75.981033,-0.707574,-0.001058,0.706622,-0.004807
328,9.831803,-0.052960,0.005085,0.065257,0.063970,-0.017838,-76.154198,-89.689728,76.631721,-0.707550,-0.001078,0.706646,-0.004815
329,9.835523,-0.047977,0.008396,0.054577,0.063939,-0.027000,-76.576691,-89.692261,77.056015,-0.707533,-0.001102,0.706663,-0.004815
330,9.840462,-0.043560,0.010765,0.051524,0.057821,-0.031608,-76.378883,-89.697388,76.860077,-0.707531,-0.001147,0.706665,-0.004791
331,9.839599,-0.044719,0.013645,0.062207,0.059346,-0.051479,-75.716316,-89.703926,76.199371,-0.707543,-0.001201,0.706653,-0.004761
332,9.842492,-0.042995,0.019237,0.053051,0.054788,-0.057613,-74.440048,-89.707916,74.924751,-0.707574,-0.001254,0.706622,-0.004732
333,9.844475,-0.038769,0.018902,0.051524,0.050240,-0.057652,-72.758797,-89.714691,73.245728,-0.707614,-0.001315,0.706582,-0.004692
334,9.843976,-0.045417,0.018426,0.060681,0.047210,-0.043946,-71.380768,-89.719536,71.869797,-0.707647,-0.001363,0.706550,-0.004667
335,9.839381,-0.041554,0.017370,0.054577,0.047224,-0.051589,-70.385551,-89.721634,70.875870,-0.707671,-0.001399,0.706526,-0.004655
336,9.836880,-0.037503,0.020690,0.045420,0.047240,-0.034833,-69.153893,-89.725891,69.645958,-0.707696,-0.001447,0.706501,-0.004627
337,9.831463,-0.040599,0.025419,0.031688,0.047272,-0.021127,-67.441132,-89.728035,67.934898,-0.707737,-0.001488,0.706459,-0.004603
338,9.833413,-0.043120,0.025701,0.039318,0.057993,-0.025715,-65.698250,-89.726601,66.193184,-0.707787,-0.001509,0.706409,-0.004597
339,9.832273,-0.042940,0.021341,0.037791,0.056490,-0.037922,-64.527130,-89.725174,65.022705,-0.707823,-0.001523,0.706374,-0.004598
340,9.833952,-0.042332,0.020647,0.042370,0.065652,-0.039448,-63.851326,-89.725174,64.348129,-0.707841,-0.001540,0.706356,-0.004598
341,9.832784,-0.052368,0.020046,0.045422,0.067176,-0.054684,-63.669628,-89.722343,64.168304,-0.707853,-0.001535,0.706343,-0.004620
342,9.828864,-0.044371,0.009472,0.062207,0.071723,-0.069915,-64.353767,-89.720932,64.853981,-0.707837,-0.001532,0.706359,-0.004646
343,9.826266,-0.045133,0.007378,0.062206,0.067085,-0.062277,-65.669540,-89.725174,66.172173,-0.707791,-0.001550,0.706404,-0.004653
344,9.829544,-0.046187,0.014068,0.071361,0.068565,-0.063791,-66.617050,-89.727318,67.121605,-0.707760,-0.001564,0.706435,-0.004666
345,9.830109,-0.049224,0.011072,0.057628,0.060905,-0.060716,-67.293869,-89.727318,67.801407,-0.707743,-0.001568,0.706453,-0.004688
346,9.832585,-0.047192,0.011956,0.051524,0.059345,-0.050010,-68.098610,-89.726601,68.607521,-0.707722,-0.001566,0.706474,-0.004712
347,9.840194,-0.056555,0.017297,0.051524,0.060856,-0.040814,-68.574936,-89.723045,69.085419,-0.707719,-0.001546,0.706477,-0.004753
348,9.842275,-0.049427,0.015632,0.053050,0.059325,-0.042297,-68.756653,-89.717453,69.268425,-0.707726,-0.001523,0.706469,-0.004798
349,9.840090,-0.047952,0.016071,0.039317,0.054738,-0.031598,-68.768570,-89.716072,69.282326,-0.707729,-0.001522,0.706466,-0.004817
350,9.843365,-0.055075,0.020485,0.039317,0.057793,-0.026992,-68.600021,-89.710609,69.114929,-0.707743,-0.001508,0.706452,-0.004847
351,9.842155,-0.051279,0.017442,0.054576,0.060849,-0.030009,-68.427620,-89.705917,68.944595,-0.707760,-0.001490,0.706435,-0.004885
352,9.841515,-0.048843,0.017907,0.045421,0.059320,-0.040675,-68.266846,-89.703262,68.784889,-0.707768,-0.001491,0.706426,-0.004904
353,9.841645,-0.051273,0.019602,0.017954,0.054742,-0.045239,-67.980148,-89.701950,68.498993,-0.707780,-0.001493,0.706414,-0.004915
354,9.847635,-0.054686,0.014777,0.005747,0.063889,-0.048264,-68.079628,-89.699333,68.599632,-0.707783,-0.001479,0.706411,-0.004934
355,9.841095,-0.051655,0.016459,0.014902,0.062345,-0.046712,-68.391090,-89.696098,68.911194,-0.707778,-0.001465,0.706416,-0.004952
356,9.843197,-0.055461,0.015783,0.005747,0.062330,-0.048212,-68.629654,-89.694809,69.149925,-0.707776,-0.001451,0.706418,-0.004970
357,9.842106,-0.051716,0.021419,0.004221,0.065379,-0.037507,-68.497810,-89.691620,69.018463,-0.707787,-0.001437,0.706407,-0.004985
358,9.841347,-0.052811,0.016828,0.027109,0.077585,-0.035966,-68.192215,-89.689095,68.713326,-0.707800,-0.001433,0.706393,-0.004996
359,9.835980,-0.044661,0.015146,0.043895,0.079094,-0.040547,-68.104050,-89.690987,68.625771,-0.707799,-0.001451,0.706395,-0.004992
360,9.837923,-0.044752,0.013494,0.062206,0.077541,-0.032939,-68.048996,-89.696098,68.572662,-0.707789,-0.001492,0.706405,-0.004973
361,9.837100,-0.037435,0.013463,0.049999,0.069881,-0.040607,-67.944679,-89.705917,68.470604,-0.707775,-0.001548,0.706419,-0.004941
362,9.837218,-0.043155,0.010826,0.046946,0.062218,-0.040643,-68.025665,-89.711967,68.553207,-0.707755,-0.001602,0.706439,-0.004906
363,9.834182,-0.046890,0.017408,0.053050,0.059143,-0.043702,-68.133972,-89.714691,68.662956,-0.707745,-0.001628,0.706449,-0.004901
364,9.833799,-0.045499,0.017639,0.066784,0.048457,-0.034543,-67.854332,-89.714691,68.385109,-0.707752,-0.001645,0.706442,-0.004908
366,9.833995,-0.041891,0.017152,0.051524,0.046927,-0.037603,-67.502579,-89.718147,68.035416,-0.707757,-0.001673,0.706437,-0.004904
367,9.834450,-0.047016,0.015485,0.056103,0.053020,-0.026925,-67.385605,-89.720238,67.920784,-0.707757,-0.001693,0.706437,-0.004906
368,9.836264,-0.051210,0.010104,0.063732,0.051466,-0.031481,-68.088089,-89.718147,68.624428,-0.707740,-0.001691,0.706454,-0.004933
369,9.838574,-0.057370,0.005339,0.045420,0.046837,-0.025332,-69.793030,-89.714012,70.331184,-0.707699,-0.001662,0.706494,-0.004983
370,9.839087,-0.062693,0.008373,0.031687,0.052888,-0.034417,-71.695839,-89.707245,72.235359,-0.707658,-0.001607,0.706536,-0.005054
371,9.838294,-0.063078,0.005467,0.039315,0.051316,-0.041970,-73.364166,-89.698036,73.905380,-0.707623,-0.001546,0.706570,-0.005129
372,9.836223,-0.058647,0.011927,0.051522,0.034499,-0.038859,-74.451202,-89.691620,74.993690,-0.707599,-0.001506,0.706594,-0.005187
373,9.839171,-0.054115,0.019322,0.063730,0.045186,-0.034253,-74.234962,-89.687210,74.779167,-0.707612,-0.001497,0.706580,-0.005220
374,9.839107,-0.051425,0.021243,0.083567,0.042162,-0.034246,-73.174438,-89.686592,73.721375,-0.707649,-0.001513,0.706543,-0.005235
375,9.838900,-0.051214,0.018708,0.083567,0.034556,-0.035774,-72.212257,-89.685341,72.761856,-0.707680,-0.001539,0.706512,-0.005243
376,9.837632,-0.052420,0.016278,0.077463,0.048297,-0.040351,-71.718300,-89.684723,72.270538,-0.707696,-0.001562,0.706496,-0.005253
377,9.835779,-0.053181,0.012389,0.068307,0.060492,-0.047974,-71.703995,-89.687210,72.258247,-0.707695,-0.001579,0.706496,-0.005266
378,9.832028,-0.050868,0.004001,0.045417,0.055872,-0.055599,-72.484169,-89.689728,73.040489,-0.707666,-0.001598,0.706526,-0.005270
379,9.831545,-0.047694,0.009649,0.043892,0.052773,-0.058660,-73.314972,-89.694176,73.872917,-0.707631,-0.001627,0.706561,-0.005259
380,9.829541,-0.043529,0.011532,0.060677,0.048172,-0.058685,-73.392563,-89.699989,73.952438,-0.707617,-0.001675,0.706575,-0.005233
381,9.828620,-0.037087,0.019455,0.045418,0.039018,-0.058731,-72.506950,-89.707916,73.068199,-0.707629,-0.001744,0.706563,-0.005186
382,9.832141,-0.034325,0.022043,0.039315,0.035995,-0.071001,-70.639801,-89.718842,71.202408,-0.707666,-0.001827,0.706527,-0.005120
383,9.830509,-0.038424,0.022866,0.034737,0.028398,-0.078681,-68.643074,-89.726601,69.207352,-0.707706,-0.001900,0.706487,-0.005062
384,9.832320,-0.034929,0.018432,0.025582,0.029944,-0.080247,-67.124100,-89.732391,67.689041,-0.707731,-0.001961,0.706461,-0.005014
385,9.835894,-0.040458,0.017063,0.007271,0.029945,-0.081799,-66.297859,-89.737556,66.863548,-0.707739,-0.002007,0.706454,-0.004974
386,9.838156,-0.043011,0.012169,0.002692,0.037559,-0.081799,-66.353859,-89.740555,66.919586,-0.707730,-0.002025,0.706463,-0.004958
387,9.837508,-0.047336,0.011444,0.017952,0.048211,-0.055838,-67.122475,-89.743591,67.689095,-0.707709,-0.002021,0.706484,-0.004966
388,9.837747,-0.046752,0.010965,0.059152,0.058861,-0.046651,-68.027550,-89.742073,68.595016,-0.707690,-0.002010,0.706503,-0.004993
389,9.832686,-0.041750,0.007728,0.060678,0.069505,-0.046636,-68.871544,-89.742073,69.440361,-0.707666,-0.002017,0.706526,-0.005011
390,9.830885,-0.040511,0.006729,0.063730,0.081669,-0.054268,-69.670784,-89.745888,70.242508,-0.707638,-0.002042,0.706555,-0.005011
391,9.836182,-0.043774,0.008399,0.091196,0.075525,-0.049686,-70.355141,-89.748215,70.928886,-0.707615,-0.002065,0.706577,-0.005020
392,9.836325,-0.046325,0.009371,0.083567,0.066340,-0.057297,-70.947021,-89.747437,71.524231,-0.707601,-0.002075,0.706592,-0.005045
393,9.835492,-0.041892,0.012961,0.057626,0.066324,-0.060334,-71.042061,-89.747437,71.621689,-0.707599,-0.002087,0.706594,-0.005062
394,9.837129,-0.054497,0.020129,0.071359,0.055654,-0.054197,-70.486061,-89.742828,71.067841,-0.707622,-0.002079,0.706570,-0.005097
395,9.841585,-0.055349,0.019489,0.066782,0.061784,-0.051081,-69.875740,-89.730202,70.459427,-0.707659,-0.002040,0.706532,-0.005164
396,9.837528,-0.059887,0.014123,0.053048,0.054161,-0.049482,-69.989288,-89.720932,70.574715,-0.707677,-0.001991,0.706514,-0.005238
397,9.841172,-0.060651,0.011539,0.046945,0.055671,-0.053982,-70.854904,-89.710609,71.441742,-0.707672,-0.001935,0.706518,-0.005314
398,9.843493,-0.061439,0.009173,0.059152,0.041908,-0.038651,-72.042358,-89.701950,72.631683,-0.707653,-0.001883,0.706537,-0.005387
399,9.844413,-0.053251,0.012305,0.036263,0.049512,-0.055389,-72.847511,-89.698036,73.437897,-0.707637,-0.001857,0.706553,-0.005432
400,9.841490,-0.050047,0.012365,0.039315,0.051022,-0.041644,-73.011993,-89.698036,73.604424,-0.707631,-0.001863,0.706558,-0.005442
401,9.841011,-0.044564,0.015357,0.062204,0.063223,-0.040130,-72.680847,-89.699989,73.274506,-0.707637,-0.001893,0.706553,-0.005432
402,9.835795,-0.038622,0.013683,0.060678,0.063220,-0.037116,-71.963707,-89.706581,72.559074,-0.707646,-0.001952,0.706543,-0.005399
403,9.837601,-0.036512,0.011060,0.039315,0.073886,-0.043273,-71.368813,-89.716759,71.966278,-0.707646,-0.002023,0.706544,-0.005349
404,9.838583,-0.034078,0.006974,0.024056,0.073854,-0.031122,-71.196945,-89.727318,71.794975,-0.707630,-0.002093,0.706560,-0.005291
405,9.836506,-0.038087,0.005258,0.011848,0.069232,-0.034219,-71.603394,-89.736816,72.202400,-0.707601,-0.002148,0.706589,-0.005244
406,9.832494,-0.037964,0.000606,-0.000359,0.060019,-0.035773,-72.693268,-89.745125,73.292412,-0.707558,-0.002183,0.706632,-0.005210
407,9.834939,-0.046439,-0.002826,-0.003412,0.062999,-0.041878,-74.640083,-89.749771,75.239098,-0.707500,-0.002193,0.706691,-0.005200
408,9.833135,-0.055429,-0.001875,0.016424,0.062928,-0.044886,-76.976173,-89.746666,77.576012,-0.707443,-0.002160,0.706748,-0.005235
409,9.837379,-0.061329,-0.007931,0.043891,0.059800,-0.038704,-79.643982,-89.736069,80.243881,-0.707380,-0.002097,0.706810,-0.005310
410,9.837159,-0.062268,-0.008415,0.051520,0.059717,-0.038616,-82.449326,-89.725891,83.051384,-0.707309,-0.002028,0.706881,-0.005398
411,9.840856,-0.063921,-0.005331,0.048467,0.058122,-0.029376,-84.548775,-89.714691,85.152351,-0.707254,-0.001963,0.706936,-0.005483
412,9.839115,-0.060802,-0.004044,0.069830,0.062651,-0.015573,-85.864273,-89.703262,86.469711,-0.707217,-0.001910,0.706972,-0.005560
413,9.836823,-0.051994,-0.003262,0.077460,0.061087,-0.014015,-86.688583,-89.699333,87.295898,-0.707192,-0.001897,0.706997,-0.005603
414,9.830013,-0.054330,-0.002657,0.072882,0.065635,-0.024687,-87.221733,-89.698685,87.831741,-0.707175,-0.001907,0.707014,-0.005624
415,9.829113,-0.057783,0.005168,0.095771,0.054945,-0.026191,-87.083809,-89.697388,87.696899,-0.707180,-0.001908,0.707009,-0.005658
416,9.829059,-0.063364,0.006143,0.111031,0.051908,-0.038356,-86.363823,-89.691620,86.980797,-0.707205,-0.001894,0.706983,-0.005714
417,9.832172,-0.065153,0.008132,0.092719,0.044299,-0.048981,-85.584099,-89.683479,86.204132,-0.707234,-0.001868,0.706953,-0.005782
418,9.837633,-0.069822,0.008121,0.056097,0.045846,-0.062648,-84.848122,-89.673141,85.470581,-0.707264,-0.001829,0.706923,-0.005852
419,9.836935,-0.067820,0.013165,0.048467,0.041298,-0.053426,-83.940414,-89.665451,84.564270,-0.707301,-0.001786,0.706885,-0.005916
420,9.836338,-0.064366,0.009531,0.027104,0.053533,-0.053380,-83.026291,-89.657356,83.651443,-0.707338,-0.001759,0.706848,-0.005958
421,9.834892,-0.055314,0.009485,-0.011043,0.062703,-0.054897,-82.326797,-89.657356,82.952446,-0.707364,-0.001763,0.706822,-0.005958
422,9.840484,-0.053223,0.010426,0.004216,0.067292,-0.044236,-81.535034,-89.661957,82.160316,-0.707389,-0.001792,0.706797,-0.005928
423,9.834106,-0.050211,0.009098,0.025579,0.073403,-0.030532,-80.776848,-89.667206,81.402893,-0.707412,-0.001832,0.706775,-0.005894
424,9.836223,-0.045296,0.007077,0.019475,0.084081,-0.033629,-80.192642,-89.675545,80.818878,-0.707425,-0.001887,0.706762,-0.005848
425,9.837010,-0.042713,0.008170,0.014897,0.077969,-0.041315,-79.625984,-89.685966,80.253555,-0.707434,-0.001955,0.706754,-0.005787
426,9.839975,-0.049174,0.008359,0.042364,0.076437,-0.030674,-79.096123,-89.692894,79.724533,-0.707443,-0.002007,0.706744,-0.005746
427,9.831683,-0.046314,0.006997,0.027104,0.068796,-0.036801,-78.788124,-89.697388,79.417679,-0.707448,-0.002045,0.706740,-0.005723
428,9.834339,-0.049279,0.008618,0.016423,0.050474,-0.032241,-78.593536,-89.700638,79.223763,-0.707449,-0.002074,0.706738,-0.005703
429,9.835027,-0.055204,0.008282,0.002690,0.041311,-0.036812,-78.555717,-89.701950,79.185959,-0.707451,-0.002076,0.706737,-0.005704
430,9.839169,-0.060361,0.008730,-0.004940,0.038251,-0.026094,-78.725578,-89.696098,79.355797,-0.707451,-0.002047,0.706737,-0.005733
431,9.836763,-0.060518,0.009410,0.002690,0.030615,-0.036730,-78.909950,-89.690353,79.540375,-0.707452,-0.002007,0.706735,-0.005772
