seq,ax,ay,az,wroll,wpitch,wyaw,roll,pitch,yaw,q0,q1,q2,q3
60,0.254314,-2.315526,9.470533,-10.423427,1.691298,-0.961830,-13.739161,-1.494210,0.365285,0.992737,-0.119558,-0.013327,0.001605
61,-0.424076,-2.447859,9.085090,-16.125221,8.772925,-8.975979,-14.176574,-1.364909,0.162416,0.992288,-0.123373,-0.011995,-0.000063
62,-0.570100,-2.795593,9.154468,-21.940771,9.589139,-7.866823,-14.803366,-1.138632,-0.185908,0.991615,-0.128834,-0.009644,-0.002889
63,-0.726386,-2.996271,9.413952,-23.035242,9.717625,-5.432330,-15.547698,-0.886299,-0.484138,0.990767,-0.135290,-0.007092,-0.005232
64,-0.660456,-3.298846,9.402598,-23.164351,9.720853,-1.226740,-16.315163,-0.605400,-0.679765,0.989846,-0.141923,-0.004388,-0.006622
65,-0.431056,-3.514937,8.837650,-23.054266,8.340178,3.347455,-17.085110,-0.307169,-0.732343,0.988880,-0.148557,-0.001701,-0.006718
66,-0.193124,-3.813147,8.712279,-23.736088,6.544668,6.642175,-17.865250,-0.020826,-0.648028,0.987856,-0.155271,0.000699,-0.005615
68,-0.106683,-4.032370,8.308990,-22.022394,3.653041,7.387722,-18.627647,0.213583,-0.479231,0.986808,-0.161833,0.002516,-0.003825
69,0.063429,-4.261569,7.813489,-21.776693,1.561949,5.842151,-19.356737,0.367405,-0.299139,0.985760,-0.168108,0.003599,-0.002034
70,0.335749,-4.597709,7.949236,-21.909086,1.637419,2.812165,-20.083969,0.466302,-0.181485,0.984672,-0.174362,0.004283,-0.000850
71,0.276501,-4.785312,8.097419,-20.651447,2.210955,-0.813089,-20.793194,0.538187,-0.172717,0.983572,-0.180452,0.004891,-0.000635
72,0.074292,-4.887943,7.883592,-18.534256,2.800843,-2.852611,-21.447105,0.594273,-0.259840,0.982523,-0.186056,0.005517,-0.001263
73,-0.124989,-5.044184,8.462487,-15.943136,3.689576,-3.653962,-22.023230,0.654710,-0.400637,0.981570,-0.190984,0.006276,-0.002340
74,-0.220323,-5.379333,8.494798,-10.204615,3.370381,-3.273943,-22.460833,0.719985,-0.552024,0.980827,-0.194719,0.007101,-0.003501
75,-0.437930,-5.484023,8.278287,-7.662666,1.741994,-2.114087,-22.760117,0.764165,-0.667667,0.980309,-0.197270,0.007687,-0.004396
76,-0.443595,-5.751525,8.353278,-0.412031,0.082274,-0.348727,-22.895359,0.776248,-0.717313,0.980073,-0.198423,0.007881,-0.004791
77,-0.416345,-5.859216,8.373546,4.542808,-0.348564,1.780008,-22.826187,0.781429,-0.693608,0.980193,-0.197833,0.007882,-0.004584
78,-0.360744,-5.910119,8.212839,7.030717,-0.996259,2.723358,-22.632229,0.789758,-0.615714,0.980529,-0.196178,0.007812,-0.003916
79,-0.399155,-5.720330,8.247488,7.479838,-1.367627,3.447924,-22.388866,0.792742,-0.505597,0.980947,-0.194103,0.007643,-0.002985
80,-0.309631,-5.718213,8.289597,7.529984,-1.399926,4.139648,-22.136839,0.797975,-0.371076,0.981374,-0.191953,0.007456,-0.001841
81,-0.200235,-5.446212,8.309625,5.002006,-2.042518,3.535502,-21.926025,0.792786,-0.230967,0.981727,-0.190157,0.007175,-0.000663
82,-0.150788,-5.300577,8.415019,4.276994,-2.548366,2.295839,-21.769779,0.757956,-0.112261,0.981988,-0.188826,0.006680,0.000287
83,-0.032043,-5.140632,8.479583,4.030981,-2.275641,0.173144,-21.630463,0.698465,-0.044282,0.982220,-0.187637,0.006059,0.000764
84,0.061825,-5.091972,8.643490,3.899430,-1.567138,-3.221366,-21.498571,0.620209,-0.067984,0.982439,-0.186506,0.005428,0.000427
85,0.076729,-4.917746,8.670225,5.843065,-0.898597,-6.977889,-21.337639,0.519844,-0.211226,0.982703,-0.185121,0.004799,-0.000972
86,0.254120,-4.900817,9.081546,4.384936,-0.241778,-7.467569,-21.168966,0.414834,-0.428731,0.982974,-0.183669,0.004246,-0.003013
87,0.244488,-4.590360,8.695401,5.071118,0.352566,-9.253609,-21.013046,0.316241,-0.689410,0.983216,-0.182327,0.003810,-0.005412
88,0.021929,-4.447396,8.829848,3.989010,1.023912,-9.176998,-20.863455,0.227886,-0.984505,0.983436,-0.181040,0.003511,-0.008089
89,-0.077679,-4.302599,8.973752,4.280298,0.194583,-6.732885,-20.726496,0.152707,-1.239606,0.983631,-0.179863,0.003257,-0.010401
90,-0.108561,-4.156518,9.079616,3.969490,0.625793,-5.245946,-20.589405,0.095099,-1.431242,0.983826,-0.178687,0.003049,-0.012140
91,-0.295000,-4.014651,8.734519,4.548116,0.655382,-5.488413,-20.447678,0.052397,-1.606289,0.984026,-0.177470,0.002938,-0.013713
92,-0.382722,-4.088427,9.199444,4.367023,0.076334,-3.555684,-20.299175,0.011358,-1.751841,0.984236,-0.176197,0.002791,-0.015030
93,-0.112597,-4.025194,9.012960,4.188068,-0.814596,-1.569429,-20.156572,-0.029701,-1.827738,0.984444,-0.174975,0.002536,-0.015749
94,-0.087001,-3.960194,8.832158,3.245855,-0.282288,-1.240813,-20.032635,-0.062940,-1.865441,0.984626,-0.173914,0.002290,-0.016126
95,-0.184389,-3.699396,8.897626,2.482282,-0.831308,0.538156,-19.937164,-0.084386,-1.870107,0.984769,-0.173097,0.002100,-0.016200
96,-0.196505,-3.732626,8.837835,1.623123,-0.688793,2.218041,-19.868818,-0.092557,-1.818288,0.984879,-0.172512,0.001942,-0.015768
97,-0.124196,-3.764146,8.910438,1.049353,-1.218698,3.075409,-19.824425,-0.092497,-1.724514,0.984959,-0.172131,0.001795,-0.014963
98,-0.195059,-3.826101,9.033775,0.616374,-1.115899,3.280897,-19.796846,-0.093193,-1.611658,0.985014,-0.171896,0.001617,-0.013994
99,-0.068048,-3.801754,9.107119,0.153605,-1.447038,2.814301,-19.784199,-0.098987,-1.501608,0.985046,-0.171790,0.001400,-0.013057
100,0.156818,-4.070271,9.054225,-0.905637,-1.661329,1.671871,-19.796904,-0.122414,-1.413714,0.985036,-0.171902,0.001068,-0.012337
101,0.092950,-4.029647,9.131057,-1.070991,-1.071332,-0.400254,-19.829939,-0.158071,-1.378335,0.984989,-0.172190,0.000712,-0.012086
102,-0.043480,-3.974559,9.008311,-1.345117,0.157315,-1.652960,-19.870134,-0.184014,-1.405350,0.984925,-0.172538,0.000534,-0.012357
103,0.235428,-3.967509,9.072281,-1.843292,0.700810,-0.965611,-19.923130,-0.185414,-1.451252,0.984840,-0.172994,0.000597,-0.012753
104,-0.035420,-4.065157,9.012043,-2.251029,2.101711,-1.103826,-19.991228,-0.153286,-1.499611,0.984733,-0.173575,0.000954,-0.013120
105,-0.318767,-3.884574,8.947314,-1.910985,2.929817,-0.077286,-20.060501,-0.081237,-1.546818,0.984624,-0.174162,0.001653,-0.013415
106,-0.305770,-3.749453,9.046770,-1.469103,2.614912,1.042020,-20.116835,0.011074,-1.563451,0.984539,-0.174635,0.002478,-0.013417
107,-0.190777,-3.758843,9.087921,-0.703544,1.546183,1.882330,-20.153034,0.092960,-1.541561,0.984488,-0.174937,0.003152,-0.013103
108,-0.603770,-3.734655,9.014215,-0.235099,1.817605,1.113263,-20.168621,0.162791,-1.514013,0.984468,-0.175063,0.003712,-0.012759
109,-0.372402,-3.613920,9.156590,0.975661,0.559012,1.309016,-20.156193,0.213890,-1.489766,0.984489,-0.174951,0.004113,-0.012473
110,-0.318479,-3.663565,9.267702,3.108970,-0.055512,1.961058,-20.087933,0.240517,-1.441472,0.984599,-0.174364,0.004260,-0.012020
111,-0.232880,-3.711936,9.273104,5.526625,-0.806248,3.719027,-19.943596,0.259421,-1.347600,0.984827,-0.173125,0.004266,-0.011190
112,-0.214157,-3.694942,9.356791,7.516536,-1.216161,4.587324,-19.725559,0.274691,-1.205931,0.985168,-0.171254,0.004164,-0.009957
113,-0.000878,-3.919359,9.469997,8.809392,-2.270740,4.836848,-19.452667,0.272595,-1.038464,0.985586,-0.168914,0.003876,-0.008530
114,-0.066359,-4.174942,9.447595,10.136045,-3.639738,4.949722,-19.136097,0.233511,-0.851949,0.986062,-0.166199,0.003245,-0.006992
115,0.077403,-4.352664,9.436278,11.190374,-5.516331,3.800737,-18.780069,0.136564,-0.664419,0.986584,-0.163145,0.002122,-0.005526
116,0.162327,-4.400432,9.480588,11.811268,-6.174780,1.105337,-18.396606,-0.022083,-0.524759,0.987130,-0.159851,0.000542,-0.004551
117,0.187497,-4.595693,9.617548,12.424934,-6.042167,-2.888309,-17.992798,-0.224866,-0.489378,0.987686,-0.156379,-0.001270,-0.004525
118,0.082304,-4.392855,9.315598,15.466105,-5.267954,-8.378459,-17.527288,-0.461772,-0.610686,0.988300,-0.152377,-0.003171,-0.005881
119,0.143199,-4.062345,9.059984,16.489449,-3.595592,-14.255345,-16.991543,-0.714920,-0.927129,0.988968,-0.147779,-0.004975,-0.008923
120,-0.086182,-3.825350,8.586998,14.896963,-0.097664,-18.188229,-16.461388,-0.929696,-1.427307,0.989576,-0.143243,-0.006246,-0.013488
121,-0.252390,-3.753850,8.766979,10.855638,3.794693,-17.841103,-16.022150,-1.038723,-2.021185,0.990024,-0.139495,-0.006517,-0.018727
122,-0.189700,-3.316835,8.694675,8.229325,5.147761,-14.946203,-15.693947,-1.044872,-2.587727,0.990314,-0.136691,-0.005948,-0.023612
123,-0.231431,-2.997944,8.929601,4.963645,5.857845,-9.273749,-15.466425,-0.976658,-3.025929,0.990494,-0.134732,-0.004890,-0.027309
124,-0.108630,-2.886385,9.257648,4.108932,6.144681,-3.709471,-15.311159,-0.841231,-3.287723,0.990624,-0.133368,-0.003451,-0.029408
125,0.128299,-2.701511,9.707615,7.242727,4.352283,0.360286,-15.120718,-0.687024,-3.387538,0.990833,-0.131686,-0.002052,-0.030089
126,0.103808,-2.496924,9.384953,11.712234,0.843139,1.755199,-14.804982,-0.594184,-3.375787,0.991202,-0.128933,-0.001345,-0.029877
127,0.157659,-2.550595,9.283386,14.605235,-1.716691,3.195641,-14.367243,-0.587447,-3.292163,0.991710,-0.125142,-0.001492,-0.029141
128,0.265296,-2.546809,9.348594,15.889461,-3.655099,3.847250,-13.860481,-0.645603,-3.156419,0.992283,-0.120767,-0.002268,-0.028019
129,0.127015,-2.456866,9.459027,16.139965,-4.636291,6.421222,-13.329086,-0.739663,-2.957523,0.992872,-0.116180,-0.003414,-0.026380
130,-0.069090,-2.321939,9.536012,16.698984,-5.364010,8.555281,-12.785655,-0.845527,-2.676682,0.993465,-0.111482,-0.004730,-0.024032
131,-0.209809,-2.218036,9.652392,17.405111,-4.807343,11.782779,-12.222981,-0.937556,-2.309014,0.994064,-0.106602,-0.005988,-0.020904
132,-0.203288,-2.202789,9.718993,16.902905,-4.544862,14.136462,-11.658842,-1.000565,-1.854135,0.994646,-0.101691,-0.007042,-0.016982
133,-0.223724,-2.397007,9.474696,14.690360,-4.991372,15.137666,-11.141436,-1.059814,-1.344412,0.995156,-0.097171,-0.008065,-0.012574
134,-0.217268,-2.681708,9.147832,9.835853,-5.502315,13.821636,-10.742421,-1.139790,-0.837243,0.995527,-0.093673,-0.009219,-0.008205
135,0.107294,-2.839080,9.122516,2.881175,-6.099956,12.186891,-10.540140,-1.249644,-0.375377,0.995705,-0.091880,-0.010558,-0.004263
136,0.292705,-3.022906,9.241630,-4.915648,-6.055501,8.512649,-10.582746,-1.385357,0.001066,0.995666,-0.092214,-0.012039,-0.001106
137,-0.065031,-3.079323,9.292027,-11.883949,-5.646806,6.183900,-10.869842,-1.531175,0.278189,0.995416,-0.094674,-0.013531,0.001151
138,-0.272085,-2.834373,9.320957,-15.983856,-4.521513,7.014779,-11.341238,-1.654911,0.526853,0.994999,-0.098732,-0.014825,0.003148
139,0.190823,-2.799311,9.562085,-18.427059,-3.371259,8.808461,-11.923130,-1.730525,0.811875,0.994465,-0.103740,-0.015755,0.005477
140,0.287962,-2.618141,9.726827,-18.920383,-2.517766,7.068048,-12.554065,-1.770362,1.091470,0.993857,-0.109172,-0.016397,0.007777
141,0.092421,-2.446610,9.675641,-17.165375,-3.085340,4.554770,-13.162037,-1.818200,1.301223,0.993242,-0.114407,-0.017062,0.009461
142,0.440792,-2.318871,9.648406,-13.559072,-2.170473,2.976228,-13.678708,-1.874197,1.443656,0.992697,-0.118856,-0.017737,0.010559
143,0.708758,-2.523415,9.859322,-9.591806,-0.372176,-0.185372,-14.066374,-1.904157,1.499007,0.992280,-0.122201,-0.018091,0.010946
144,0.266588,-2.288458,9.833037,-4.556818,0.497729,-4.363833,-14.299716,-1.920624,1.424964,0.992034,-0.124231,-0.018176,0.010251
145,-0.065299,-2.590343,9.775060,-0.660743,1.097943,-2.409029,-14.382787,-1.922718,1.308939,0.991953,-0.124968,-0.018075,0.009231
146,0.207357,-2.823487,9.740664,2.662810,2.692318,1.646086,-14.348505,-1.864655,1.280938,0.992000,-0.124683,-0.017539,0.009057
147,0.184536,-2.888801,9.749802,4.713467,2.804052,3.833565,-14.227670,-1.753328,1.346873,0.992140,-0.123640,-0.016637,0.009767
148,0.045110,-2.916476,9.582249,5.201416,1.036903,4.678427,-14.066065,-1.656572,1.468856,0.992313,-0.122235,-0.015915,0.010950
149,0.162190,-2.952685,9.339717,4.091766,0.053050,6.992990,-13.916430,-1.591904,1.653311,0.992460,-0.120922,-0.015535,0.012637
150,0.296477,-2.774984,9.201594,3.141863,-0.503307,7.451197,-13.802326,-1.541481,1.888922,0.992557,-0.119910,-0.015333,0.014746
151,0.198912,-2.604042,9.114110,1.245066,-1.179111,5.775791,-13.735113,-1.516226,2.109789,0.992599,-0.119302,-0.015335,0.016695
152,0.162028,-2.603725,9.042826,-0.116418,-1.319254,5.385107,-13.721354,-1.512509,2.300439,0.992585,-0.119158,-0.015499,0.018352
153,0.071059,-2.393753,9.112144,0.061646,-0.697957,6.546041,-13.727556,-1.497973,2.501659,0.992546,-0.119187,-0.015584,0.020109
154,-0.012809,-2.651334,9.171835,0.467753,-0.760384,8.740275,-13.725264,-1.461133,2.755006,0.992505,-0.119141,-0.015528,0.022342
155,-0.167738,-2.782547,9.273324,0.761698,-0.697353,10.094635,-13.712556,-1.410294,3.065824,0.992458,-0.119001,-0.015408,0.025089
156,-0.111619,-2.765888,9.238274,4.132297,-2.172086,12.867707,-13.640271,-1.366281,3.449095,0.992446,-0.118334,-0.015407,0.028464
157,-0.065824,-3.008454,9.174839,3.023141,-3.064720,14.266703,-13.531935,-1.344961,3.909321,0.992437,-0.117340,-0.015666,0.032487
158,0.024816,-3.015051,9.368098,1.841431,-3.185447,14.675866,-13.462416,-1.333618,4.402815,0.992359,-0.116673,-0.016051,0.036782
159,0.063998,-2.509924,9.432943,1.540163,-3.083886,11.169118,-13.416383,-1.335087,4.846166,0.992256,-0.116211,-0.016499,0.040626
160,0.156720,-2.735899,9.485402,-1.602816,-3.173665,7.229536,-13.425051,-1.365363,5.168730,0.992127,-0.116227,-0.017091,0.043387
161,0.331700,-2.730363,9.499530,-1.800066,-2.613735,1.344445,-13.485731,-1.425848,5.330206,0.992000,-0.116703,-0.017802,0.044714
162,0.259642,-2.379744,9.693944,0.685937,-0.260627,-5.446818,-13.502929,-1.488359,5.274879,0.992000,-0.116835,-0.018294,0.044168
163,0.157158,-2.524223,9.548542,1.124774,0.835043,-10.780413,-13.465768,-1.542094,5.009546,0.992134,-0.116534,-0.018475,0.041821
164,0.125663,-2.926042,9.592047,0.343649,2.432302,-13.362466,-13.430294,-1.582714,4.605385,0.992308,-0.116277,-0.018403,0.038286
165,0.131979,-2.324493,9.638116,2.289832,4.352333,-13.590670,-13.373666,-1.576865,4.142022,0.992513,-0.115862,-0.017865,0.034288
166,-0.081326,-2.551898,9.571632,0.569458,4.880292,-12.658957,-13.313572,-1.528048,3.680660,0.992707,-0.115426,-0.016960,0.030350
167,-0.048176,-2.818788,9.323537,-0.501118,4.288595,-10.944172,-13.301522,-1.469941,3.262518,0.992829,-0.115398,-0.016033,0.026788
168,0.038751,-2.616139,9.306085,-1.382837,3.645323,-8.810341,-13.324080,-1.417109,2.911564,0.992888,-0.115654,-0.015226,0.023798
169,0.058139,-2.495941,9.417862,-3.912525,3.159622,-5.828602,-13.405944,-1.363190,2.647894,0.992861,-0.116410,-0.014508,0.021557
171,0.039985,-2.677059,9.125978,-4.966905,2.605710,-4.511505,-13.549519,-1.309981,2.457851,0.992753,-0.117688,-0.013879,0.019948
172,0.240617,-2.686511,9.360041,-6.155157,2.262286,-2.049937,-13.732079,-1.256957,2.332407,0.992590,-0.119295,-0.013321,0.018894
173,0.050957,-2.638951,9.407341,-6.602017,1.512855,-0.723722,-13.943421,-1.206965,2.272458,0.992381,-0.121141,-0.012859,0.018404
174,0.299758,-2.812101,9.261390,-7.598292,1.205287,-0.211897,-14.179554,-1.166833,2.246311,0.992137,-0.123196,-0.012522,0.018194
175,0.184104,-2.840456,8.878570,-6.337242,1.292578,-1.137488,-14.411167,-1.132056,2.214226,0.991893,-0.125211,-0.012222,0.017929
176,0.349687,-3.096206,8.663820,-10.066635,-0.291454,-1.470425,-14.683652,-1.126805,2.167955,0.991600,-0.127575,-0.012168,0.017506
177,0.373715,-2.989997,7.981483,-12.134775,-0.368164,-4.104430,-15.051926,-1.161286,2.080923,0.991195,-0.130765,-0.012423,0.016674
178,0.471197,-3.285895,7.398420,-18.802544,1.211058,-2.650250,-15.565249,-1.177403,1.968593,0.990614,-0.135213,-0.012505,0.015628
179,0.184089,-3.483863,7.231236,-23.653469,1.552096,-4.346334,-16.270292,-1.165189,1.843883,0.989781,-0.141321,-0.012341,0.014489
180,0.096461,-3.325311,7.378940,-34.977871,1.457826,-3.960076,-17.244446,-1.157024,1.696827,0.988562,-0.149747,-0.012201,0.013125
181,-0.003368,-3.559415,7.714961,-42.899700,1.294574,-3.301755,-18.539667,-1.150703,1.567544,0.986821,-0.160925,-0.012113,0.011882
182,-0.152537,-3.700151,8.158442,-49.245735,2.082683,-0.739501,-20.073547,-1.119993,1.485373,0.984588,-0.174133,-0.011882,0.011060
183,0.051777,-3.588596,8.631607,-50.941277,0.615429,-1.569699,-21.741993,-1.092003,1.433548,0.981955,-0.188458,-0.011717,0.010488
184,0.179169,-3.701151,8.969177,-54.574501,1.411651,-3.342142,-23.498472,-1.092284,1.344790,0.978959,-0.203496,-0.011721,0.009548
185,-0.053682,-4.138540,8.952235,-50.512939,2.867200,-3.057690,-25.247084,-1.071124,1.218217,0.975751,-0.218425,-0.011444,0.008331
186,0.147671,-4.364970,8.704687,-46.963333,4.193007,-1.108329,-26.869255,-0.995848,1.104351,0.972573,-0.232235,-0.010691,0.007354
187,0.275473,-4.781917,8.559760,-43.020607,4.084840,-2.839558,-28.366676,-0.904229,0.982367,0.969467,-0.244943,-0.009750,0.006378
188,-0.234841,-5.125877,8.616254,-39.538593,5.013275,-0.921867,-29.740490,-0.801941,0.853863,0.966472,-0.256567,-0.008676,0.005406
189,-0.208266,-5.580578,8.069269,-31.270981,3.059047,2.673804,-30.919958,-0.671178,0.811333,0.963787,-0.266514,-0.007532,0.005263
190,0.337781,-6.059108,8.062820,-22.866827,2.449173,1.486709,-31.822323,-0.557032,0.822842,0.961661,-0.274103,-0.006643,0.005573
191,0.050672,-5.621935,7.581089,-12.722301,4.297314,-0.849169,-32.414982,-0.456117,0.772055,0.960235,-0.279082,-0.005703,0.005359
192,-0.368996,-5.827843,7.710605,-13.821139,5.443886,-1.111326,-32.856560,-0.336856,0.657069,0.959159,-0.282793,-0.004441,0.004669
193,0.121102,-5.936772,7.466576,-14.857001,4.740769,-5.202774,-33.333584,-0.252095,0.476240,0.957981,-0.286793,-0.003299,0.003350
194,-0.170658,-5.834265,7.985469,-20.253244,6.244663,-7.130530,-33.917572,-0.213379,0.203591,0.956513,-0.291680,-0.002299,0.001156
195,-0.550529,-5.704921,7.828973,-24.719904,5.357393,-6.492091,-34.666073,-0.181546,-0.092927,0.954587,-0.297926,-0.001271,-0.001246
196,-0.427414,-6.494495,8.580283,-32.116482,2.932567,-6.426349,-35.612446,-0.192636,-0.348530,0.952089,-0.305802,-0.000670,-0.003410
197,0.009016,-6.294972,8.322149,-27.844496,1.051815,-5.976997,-36.610859,-0.261056,-0.554776,0.949379,-0.314088,-0.000642,-0.005312
198,-0.180269,-6.570353,8.590849,-24.666544,1.123481,-4.251237,-37.485123,-0.334864,-0.712776,0.946944,-0.321326,-0.000769,-0.006829
199,-0.006355,-6.444311,8.192678,-17.992853,1.325085,-3.205786,-38.195309,-0.378924,-0.835902,0.944924,-0.327192,-0.000738,-0.007975
200,0.219254,-6.881127,8.051380,-15.933284,0.844168,-2.942119,-38.760014,-0.414350,-0.938590,0.943291,-0.331847,-0.000693,-0.008926
201,0.290922,-6.459501,7.696697,-11.511783,1.887358,-3.629775,-39.216564,-0.447882,-1.052384,0.941950,-0.335605,-0.000600,-0.009963
202,0.082055,-6.871243,7.653378,-11.120285,2.542652,-2.131119,-39.592808,-0.451706,-1.173442,0.940832,-0.338696,-0.000241,-0.010970
203,0.057806,-6.566432,7.400378,-9.850158,1.968156,-1.994566,-39.941544,-0.437920,-1.274348,0.939788,-0.341557,0.000207,-0.011757
204,0.246638,-6.986848,7.309106,-11.061075,0.270198,-1.356049,-40.289547,-0.445375,-1.341100,0.938738,-0.344410,0.000382,-0.012325
205,0.214267,-6.706927,7.300997,-8.795283,0.577914,-1.994517,-40.620068,-0.470898,-1.392786,0.937734,-0.347118,0.000365,-0.012825
206,0.132513,-7.120097,7.204557,-7.861320,0.691833,-2.708513,-40.897053,-0.506018,-1.465987,0.936881,-0.349387,0.000332,-0.013529
207,0.285094,-6.980035,7.380763,-6.377228,0.889435,-5.054998,-41.133282,-0.571029,-1.580927,0.936139,-0.351323,0.000181,-0.014667
208,0.147853,-7.056454,7.328563,-4.852342,1.935436,-5.601864,-41.318680,-0.652627,-1.745582,0.935540,-0.352845,0.000046,-0.016262
209,0.191484,-6.754963,7.554594,-3.536062,2.342647,-4.959416,-41.456360,-0.715475,-1.924798,0.935083,-0.353976,0.000106,-0.017918
210,0.293810,-6.844831,7.588593,-3.623244,0.986604,-3.061600,-41.573921,-0.762520,-2.061686,0.934692,-0.354941,0.000165,-0.019180
211,0.146939,-6.629084,7.620852,-3.288810,-0.583172,0.825674,-41.688679,-0.782272,-2.094007,0.934328,-0.355879,0.000123,-0.019505
212,0.101758,-6.634747,7.583052,-2.431674,-2.428691,4.983768,-41.785431,-0.755305,-1.988317,0.934048,-0.356665,0.000030,-0.018560
213,0.530134,-6.809792,7.677753,-1.434705,-4.418902,8.513234,-41.852947,-0.690402,-1.744546,0.933882,-0.357207,-0.000190,-0.016371
214,0.256157,-6.790236,7.508974,0.231375,-4.872674,9.610500,-41.876701,-0.604177,-1.416216,0.933858,-0.357392,-0.000507,-0.013426
215,0.220403,-6.712811,7.629611,1.858988,-5.166064,11.283036,-41.845428,-0.496447,-1.045194,0.934001,-0.357127,-0.000789,-0.010066
216,0.333891,-7.022964,7.602629,3.210365,-6.462343,11.439814,-41.764103,-0.388507,-0.633685,0.934290,-0.356455,-0.001197,-0.006375
217,0.347795,-7.200864,7.841409,4.510920,-6.547799,10.331436,-41.637981,-0.309051,-0.218503,0.934701,-0.355420,-0.001843,-0.002741
218,0.037213,-7.592546,7.782221,4.624962,-6.393704,9.594607,-41.487648,-0.250156,0.173096,0.935171,-0.354186,-0.002577,0.000639
219,0.052098,-7.735388,8.444984,-2.811137,-7.295520,8.766613,-41.458992,-0.218446,0.553489,0.935253,-0.353943,-0.003493,0.003843
220,0.177216,-7.929687,9.137584,-9.859212,-9.130049,7.523037,-41.671749,-0.242938,0.938236,0.934576,-0.355663,-0.004894,0.006898
221,-0.101520,-8.073177,9.608243,-11.907758,-8.072282,5.978281,-42.036308,-0.306153,1.297117,0.933415,-0.358611,-0.006554,0.009608
222,-0.060426,-8.242331,10.061628,-13.212987,-4.907514,3.586999,-42.456512,-0.359008,1.560573,0.932070,-0.362009,-0.007851,0.011560
223,-0.161065,-8.339556,10.300551,-8.844886,-0.476717,0.782381,-42.824879,-0.375546,1.674957,0.930890,-0.364993,-0.008387,0.012411
224,-0.406330,-8.637446,9.584868,-3.990359,3.807350,0.797652,-43.038681,-0.316867,1.656458,0.930208,-0.366738,-0.007874,0.012433
225,-0.399729,-8.609974,8.908062,6.355864,10.431649,2.381018,-42.998798,-0.107163,1.533355,0.930342,-0.366447,-0.005774,0.012107
226,-0.203101,-8.042263,8.582058,22.374039,12.869755,4.660565,-42.520206,0.257727,1.356002,0.931867,-0.362601,-0.002195,0.011843
227,-0.523669,-7.852934,7.659379,35.415581,10.252954,7.197847,-41.558037,0.676465,1.245039,0.934861,-0.354797,0.001665,0.012252
228,-0.283499,-6.953563,6.938022,44.419682,8.218790,8.477942,-40.227768,1.080516,1.241419,0.938879,-0.343948,0.005128,0.013414
229,0.143895,-6.234900,6.766841,51.976055,6.600404,5.941963,-38.620892,1.424066,1.270555,0.943564,-0.330771,0.008061,0.014572
230,0.039768,-6.101838,6.672578,51.247341,3.467387,2.898536,-36.900505,1.646741,1.284809,0.948390,-0.316581,0.010083,0.015182
231,0.078425,-5.857066,6.669696,46.671829,2.387676,-3.499021,-35.270824,1.719604,1.219757,0.952794,-0.303060,0.011075,0.014689
232,0.461081,-5.024334,6.675661,40.386009,6.188991,-6.514113,-33.826702,1.742117,1.001695,0.956560,-0.291008,0.012001,0.012785
233,0.351099,-4.680905,6.590321,28.348421,6.659218,-7.698338,-32.691051,1.790674,0.685909,0.959421,-0.281480,0.013310,0.010141
234,0.104744,-4.521844,6.576322,22.836432,6.597206,-6.921543,-31.848333,1.847011,0.361758,0.961482,-0.274377,0.014633,0.007457
235,0.167379,-3.891188,6.569118,23.110971,7.429422,-10.005407,-31.094461,1.899025,-0.001124,0.963278,-0.267996,0.015968,0.004432
236,-0.053617,-4.001826,6.258568,16.031408,5.808642,-7.902586,-30.454453,1.935712,-0.370588,0.964763,-0.262556,0.017148,0.001316
237,-0.465306,-4.087977,6.450490,14.984102,2.760763,-8.602414,-29.947966,1.920706,-0.680346,0.965916,-0.258243,0.017725,-0.001404
238,-0.314333,-3.432211,6.802723,22.013033,0.309970,-7.290618,-29.339674,1.834186,-0.935888,0.967278,-0.253081,0.017551,-0.003847
239,-0.701916,-3.677528,7.153914,25.154566,-1.912730,-0.400535,-28.556635,1.749007,-1.035146,0.968991,-0.246460,0.017018,-0.004989
240,-0.534079,-4.060781,7.768921,27.361076,-4.612192,3.061005,-27.678688,1.674424,-0.944843,0.970862,-0.239050,0.016159,-0.004510
241,-0.383205,-4.053934,8.260401,36.706841,-5.889394,7.208983,-26.604321,1.597023,-0.712564,0.973077,-0.229975,0.014993,-0.002844
242,-0.373174,-3.795843,8.310712,44.227673,-6.968379,11.210377,-25.245420,1.538691,-0.342800,0.975747,-0.218470,0.013756,0.000015
243,-0.332232,-4.565107,8.960467,39.945702,-7.644130,12.110511,-23.830765,1.478775,0.111886,0.978369,-0.206462,0.012425,0.003620
244,0.045492,-4.161635,9.075193,42.437630,-6.701239,8.442130,-22.447685,1.393797,0.520923,0.980781,-0.194680,0.011045,0.006826
245,-0.315877,-3.922562,8.813940,39.289776,-6.767395,10.320127,-21.077042,1.300825,0.894633,0.983023,-0.182966,0.009732,0.009751
246,-0.243136,-3.568276,8.834678,28.903652,-5.545866,8.310235,-19.932657,1.217647,1.257340,0.984775,-0.173164,0.008566,0.012645
247,-0.088612,-3.847482,9.098056,20.182190,-4.959039,7.777224,-19.108229,1.142311,1.568619,0.985965,-0.166090,0.007557,0.015152
248,-0.521758,-3.779514,9.049549,19.283003,-3.771455,7.704275,-18.444836,1.087758,1.859814,0.986874,-0.160391,0.006768,0.017540
249,-0.424376,-3.546115,8.888455,17.647663,-3.679313,6.326948,-17.824482,1.042534,2.120687,0.987691,-0.155055,0.006120,0.019690
250,-0.532042,-3.441448,9.091715,13.047061,-2.230135,5.480124,-17.309040,1.008001,2.338068,0.988343,-0.150616,0.005624,0.021492
251,-0.685102,-3.304790,9.063795,11.583399,-0.943553,6.791090,-16.894794,1.017616,2.549097,0.988838,-0.147055,0.005514,0.023305
252,-0.759899,-3.170389,9.167203,7.690745,-1.127133,8.673557,-16.568890,1.058816,2.805854,0.989194,-0.144262,0.005613,0.025558
253,-0.413542,-2.769286,8.957214,5.908045,-3.969599,7.108479,-16.337154,1.051964,3.082200,0.989420,-0.142273,0.005262,0.027924
254,-0.478787,-2.976159,9.568786,-2.146699,-3.542243,5.599314,-16.270275,0.991283,3.320715,0.989449,-0.141692,0.004460,0.029906
255,-0.205884,-2.901287,9.070345,0.881197,-5.414261,5.012802,-16.287886,0.897705,3.532400,0.989380,-0.141828,0.003385,0.031619
256,-0.083801,-2.960721,9.024137,-2.968704,-4.589259,2.015898,-16.320391,0.770525,3.691633,0.989308,-0.142079,0.002081,0.032837
257,0.139936,-2.815657,9.002552,-6.957865,-3.780281,-3.103862,-16.485594,0.631643,3.713666,0.989109,-0.143467,0.000807,0.032857
258,0.018969,-3.303419,8.999206,-12.842649,-2.025262,-4.941270,-16.816645,0.500589,3.612957,0.988730,-0.146289,-0.000290,0.031823
259,0.205142,-3.441459,8.514509,-12.998343,-1.065032,-5.132685,-17.248497,0.402176,3.467590,0.988218,-0.149989,-0.001069,0.030440
260,0.004757,-3.671643,8.836766,-22.178728,-0.016150,-4.037518,-17.835690,0.338944,3.327320,0.987478,-0.155037,-0.001580,0.029140
261,-0.037330,-3.516116,8.638377,-22.591400,-0.569090,-5.094620,-18.582609,0.281996,3.185893,0.986485,-0.161459,-0.002061,0.027831
262,-0.187514,-3.299896,8.342810,-25.534950,1.145497,-3.951786,-19.385334,0.242077,3.040157,0.985367,-0.168359,-0.002385,0.026504
263,-0.332968,-3.157407,8.177159,-33.252968,2.221539,-1.405819,-20.365545,0.264432,2.937236,0.983912,-0.176788,-0.002260,0.025633
264,-0.482464,-3.267977,8.033235,-45.968391,1.432024,-0.920330,-21.686069,0.307156,2.879333,0.981820,-0.188125,-0.002095,0.025180
265,-0.359151,-3.419200,7.684560,-48.140884,2.934206,-4.047885,-23.254881,0.342620,2.774931,0.979173,-0.201558,-0.001952,0.024319
266,-0.419286,-3.514699,7.402198,-57.492287,3.492526,0.483815,-25.015696,0.416441,2.676958,0.975975,-0.216596,-0.001512,0.023591
267,-0.177611,-4.611264,7.540367,-62.354725,1.395342,-0.383193,-27.012875,0.489802,2.643013,0.972053,-0.233586,-0.001231,0.023423
268,-0.233413,-4.643396,7.406275,-56.312664,3.143364,-1.472662,-28.990561,0.542009,2.579859,0.967885,-0.250337,-0.001056,0.022978
269,-0.063471,-4.960224,7.301163,-48.735069,3.374292,-0.083115,-30.741611,0.623558,2.503465,0.963955,-0.265112,-0.000545,0.022505
270,-0.106036,-5.325511,7.711915,-42.634762,3.736889,0.724744,-32.264729,0.730080,2.450820,0.960345,-0.277919,0.000177,0.022313
271,0.180443,-5.636640,8.043435,-28.828772,5.024863,-3.726236,-33.457237,0.825553,2.329701,0.957414,-0.287912,0.001047,0.021541
272,-0.364120,-5.583539,7.902807,-18.322367,6.767177,-1.490347,-34.245766,0.940837,2.147986,0.955430,-0.294507,0.002327,0.020329
274,-0.027787,-5.937285,8.346435,-14.257648,4.712316,-1.299017,-34.791370,1.072218,2.001487,0.954027,-0.299066,0.003706,0.019463
275,-0.089132,-5.790729,8.555256,-8.763033,5.158780,-2.718493,-35.177952,1.168607,1.852250,0.953025,-0.302288,0.004836,0.018488
276,-0.275424,-5.787809,8.228561,-10.045214,3.734131,-1.373957,-35.494385,1.250166,1.710881,0.952198,-0.304921,0.005839,0.017543
277,-0.077786,-6.134039,8.306220,-15.057811,2.214932,-1.925559,-35.915058,1.298528,1.608320,0.951082,-0.308413,0.006452,0.016844
278,-0.082267,-5.862645,8.249834,-16.113329,1.465045,-3.213230,-36.436939,1.297431,1.502893,0.949682,-0.312735,0.006654,0.015996
279,-0.311769,-6.099657,8.151387,-17.158838,1.769645,-2.978538,-36.994041,1.278967,1.387862,0.948169,-0.317340,0.006741,0.015025
280,-0.004329,-6.341448,8.235132,-17.147051,0.945822,-2.967563,-37.568142,1.254940,1.281590,0.946583,-0.322079,0.006766,0.014114
281,-0.021768,-6.332854,8.179365,-14.799655,1.373051,-3.352612,-38.102879,1.220830,1.174643,0.945087,-0.326484,0.006724,0.013166
282,-0.609987,-6.310329,8.147793,-13.731345,1.541530,-0.423217,-38.580078,1.219932,1.095133,0.943728,-0.330413,0.006891,0.012536
283,-0.346468,-6.771862,8.131719,-14.736965,-0.786915,3.781865,-39.053772,1.264749,1.130940,0.942345,-0.334315,0.007103,0.012990
284,0.127957,-6.499425,7.928571,-13.747993,-3.203613,2.997807,-39.525642,1.284666,1.260564,0.940943,-0.338202,0.006830,0.014142
285,-0.561847,-6.590126,7.707437,-13.313290,-2.742913,4.596952,-39.973080,1.289364,1.421215,0.939594,-0.341883,0.006334,0.015500
286,-0.315935,-6.555946,7.763394,-13.600742,-3.178622,4.734744,-40.417469,1.314319,1.603800,0.938231,-0.345535,0.005928,0.017095
287,-0.006273,-7.190098,7.750850,-14.413338,-3.814650,4.324315,-40.879971,1.324232,1.794318,0.936798,-0.349330,0.005359,0.018706
288,0.164426,-6.822980,7.808401,-10.330438,-2.478280,0.545692,-41.289394,1.298527,1.924428,0.935526,-0.352677,0.004682,0.019708
289,-0.285019,-7.215615,7.489061,-9.357256,-0.381828,-0.293235,-41.616772,1.265658,1.959094,0.934513,-0.355347,0.004250,0.019902
290,0.184645,-7.379733,7.534960,-9.882599,0.503248,-2.812955,-41.938301,1.232722,1.919151,0.933524,-0.357963,0.004051,0.019486
291,0.121233,-7.294891,7.372741,-8.028973,1.467299,-4.447493,-42.239182,1.176042,1.807290,0.932607,-0.360403,0.003890,0.018408
292,0.078517,-6.799762,7.159209,-6.344507,2.569319,-4.165968,-42.481792,1.129082,1.655837,0.931871,-0.362367,0.003948,0.017036
293,-0.281165,-6.901352,7.009521,-10.091747,2.956821,-2.502374,-42.758572,1.121628,1.511673,0.931015,-0.364611,0.004305,0.015851
294,-0.128835,-6.971196,7.227063,-11.617229,2.365009,0.294360,-43.122143,1.161432,1.424323,0.929861,-0.367563,0.004858,0.015283
295,-0.380540,-6.863696,7.193445,-9.908814,0.992080,1.922392,-43.481163,1.227415,1.412870,0.928698,-0.370478,0.005382,0.015419
296,-0.359565,-6.936643,7.104945,-8.960894,-0.165772,2.850485,-43.794609,1.292223,1.460959,0.927666,-0.373023,0.005708,0.016034
297,-0.465544,-7.169363,7.134895,-8.012670,-1.097129,1.552551,-44.075966,1.327946,1.528426,0.926733,-0.375306,0.005736,0.016710
298,-0.283166,-7.242098,7.136325,-4.607538,-1.675796,-0.484389,-44.285267,1.307211,1.573383,0.926042,-0.376999,0.005390,0.017016
299,-0.201504,-7.195937,7.241572,-1.767956,-2.709397,-2.178851,-44.391106,1.223920,1.592687,0.925702,-0.377848,0.004638,0.016902
300,-0.106885,-7.158143,7.414194,0.579730,-3.157095,-2.455907,-44.410648,1.100017,1.605879,0.925651,-0.377997,0.003591,0.016601
301,-0.061601,-7.332592,7.813562,3.213828,-3.261123,-2.274915,-44.347092,0.968414,1.624321,0.925874,-0.377473,0.002476,0.016315
302,0.092477,-7.432431,8.047715,4.967847,-4.016977,-2.124545,-44.210213,0.830374,1.656489,0.926335,-0.376355,0.001274,0.016119
303,0.079462,-7.419804,9.123655,1.262819,-5.786736,-1.915548,-44.105507,0.666245,1.722001,0.926685,-0.375492,-0.000254,0.016110
304,-0.024124,-7.278563,9.793368,2.799394,-7.938719,-0.125852,-44.036453,0.478252,1.856727,0.926910,-0.374912,-0.002206,0.016585
305,0.031843,-7.544011,10.266167,3.072839,-9.343677,2.815351,-43.936962,0.302137,2.089004,0.927215,-0.374078,-0.004375,0.017892
306,-0.215422,-7.642404,10.302880,5.030535,-8.941210,5.192106,-43.800568,0.174940,2.396399,0.927619,-0.372940,-0.006383,0.019971
307,-0.533911,-7.875428,10.117855,3.217538,-6.001460,7.782903,-43.662128,0.144443,2.724779,0.928010,-0.371794,-0.007672,0.022539
308,-0.526623,-8.154257,9.120034,9.713304,-2.541974,9.325965,-43.445507,0.237767,3.029509,0.928639,-0.370037,-0.007857,0.025325
309,-0.456004,-8.152465,8.152954,20.301840,0.733252,7.955103,-42.943863,0.412766,3.260103,0.930177,-0.365990,-0.007062,0.027790
310,-0.278975,-7.986112,7.245022,32.584244,3.247192,4.658725,-42.061420,0.603405,3.370349,0.932916,-0.358853,-0.005641,0.029337
311,0.006002,-7.569894,6.712865,44.065598,3.007592,-0.379919,-40.784161,0.728374,3.355039,0.936845,-0.348461,-0.004245,0.029653
312,0.351962,-7.024600,6.249478,57.635880,1.302527,-2.315944,-39.090431,0.754267,3.274904,0.941910,-0.334584,-0.003359,0.029129
313,0.298962,-6.492121,5.894203,60.298710,0.383718,-1.645539,-37.126270,0.735657,3.205964,0.947526,-0.318389,-0.002822,0.028561
314,0.167613,-5.998726,6.334239,56.279884,-0.119833,-0.262409,-35.184277,0.720618,3.177749,0.952794,-0.302283,-0.002388,0.028330
315,0.179312,-5.776349,6.771115,48.766655,-1.215559,1.350704,-33.433678,0.712653,3.205227,0.957295,-0.287690,-0.002091,0.028573
316,0.178143,-5.608999,6.993151,36.764408,-0.955179,3.038017,-32.007462,0.722016,3.286321,0.960780,-0.275755,-0.001851,0.029299
317,0.173585,-5.220928,8.045234,28.643532,-0.280045,0.623047,-30.916681,0.736506,3.348989,0.963343,-0.266599,-0.001596,0.029876
318,0.167522,-5.008534,8.399749,25.867233,-0.079075,-1.349934,-30.008337,0.725051,3.341624,0.965429,-0.258952,-0.001439,0.029800
319,0.341243,-5.065248,8.250357,12.196426,1.955062,-5.425819,-29.375395,0.696155,3.228086,0.966877,-0.253610,-0.001267,0.028785
320,0.278432,-4.774870,8.239622,4.822498,4.435922,-7.063511,-29.094585,0.687119,2.994449,0.967553,-0.251240,-0.000761,0.026796
321,0.063480,-4.170225,7.726515,4.886923,5.017791,-10.711609,-28.936790,0.681028,2.658910,0.967973,-0.249908,-0.000044,0.023950
322,0.090205,-4.211814,6.429046,0.407726,6.210506,-13.156098,-28.853624,0.652612,2.220202,0.968242,-0.249199,0.000688,0.020181
323,0.138936,-3.995628,5.643870,2.500444,8.013137,-15.266942,-28.811092,0.631676,1.690874,0.968419,-0.248832,0.001668,0.015662
324,-0.231451,-3.585114,5.493759,13.827513,7.214734,-12.653436,-28.544830,0.631101,1.160801,0.969056,-0.246570,0.002840,0.011175
325,-0.049687,-3.137155,5.953801,17.755924,4.870945,-15.743527,-28.023907,0.584707,0.648561,0.970210,-0.242145,0.003580,0.006727
326,-0.185764,-3.707724,6.981391,17.888802,4.467615,-11.582674,-27.434271,0.510652,0.173137,0.971466,-0.237133,0.003971,0.002524
327,-0.139669,-3.532030,8.233838,23.030594,2.489852,-8.009352,-26.755266,0.465333,-0.170436,0.972859,-0.231360,0.004295,-0.000507
328,-0.236004,-3.614701,9.645173,25.186989,1.004587,-4.901627,-25.953360,0.422330,-0.389107,0.974452,-0.224539,0.004354,-0.002481
329,-0.160395,-3.841973,10.080883,27.124258,1.355849,-8.725013,-25.083069,0.360234,-0.611006,0.976124,-0.217127,0.004226,-0.004522
330,-0.776725,-4.259612,9.753994,29.472530,2.164599,-2.553190,-24.141035,0.335098,-0.806248,0.977867,-0.209089,0.004331,-0.006269
331,-0.522132,-3.815964,9.334736,32.162960,0.446911,-0.377703,-23.114269,0.355793,-0.868665,0.979697,-0.200315,0.004561,-0.006805
332,-0.572371,-3.642154,9.143628,27.803886,-1.886236,2.550003,-22.114649,0.347784,-0.825959,0.981410,-0.191764,0.004361,-0.006492
333,-0.364965,-3.556811,8.928119,22.156647,-4.928993,5.007701,-21.281151,0.289092,-0.666855,0.982788,-0.184629,0.003554,-0.005253
334,-0.282329,-3.135786,9.013591,19.039534,-6.658140,10.560787,-20.593262,0.201721,-0.355372,0.983890,-0.178738,0.002286,-0.002737
335,-0.052963,-2.770875,9.027265,17.071558,-7.427578,9.069396,-19.990383,0.095356,0.032897,0.984822,-0.173566,0.000770,0.000427
336,-0.020929,-2.968386,9.224002,13.585624,-7.590104,8.668573,-19.479319,-0.040401,0.395737,0.985581,-0.169169,-0.000932,0.003344
337,-0.090570,-2.908345,9.043653,15.113362,-5.095996,6.307545,-19.001551,-0.157691,0.701108,0.986265,-0.165049,-0.002367,0.005807
338,-0.076046,-3.051179,9.015328,13.743241,-3.616285,5.643513,-18.521410,-0.231254,0.936336,0.986934,-0.160905,-0.003307,0.007740
339,-0.050609,-3.282417,8.828105,12.083400,-2.403245,3.961217,-18.091772,-0.276235,1.119788,0.987516,-0.157194,-0.003917,0.009271
340,0.083648,-3.432720,9.056231,8.223477,-2.029132,1.723451,-17.753916,-0.317406,1.232653,0.987966,-0.154274,-0.004396,0.010200
341,0.074687,-3.365971,9.174727,6.289811,-0.355973,-0.181907,-17.512247,-0.347530,1.269200,0.988285,-0.152186,-0.004683,0.010485
342,-0.094612,-3.330834,9.406553,5.897666,0.510879,-0.175046,-17.309090,-0.346883,1.262737,0.988554,-0.150434,-0.004651,0.010438
343,-0.106415,-3.085812,9.377330,4.797512,1.251068,-1.732761,-17.130602,-0.328250,1.223659,0.988791,-0.148897,-0.004423,0.010132
344,-0.199774,-3.279939,9.297882,0.107433,1.770955,-3.046486,-17.048351,-0.303540,1.132715,0.988906,-0.148193,-0.004085,0.009383
345,-0.014534,-3.198204,9.025464,-2.096949,1.769634,-3.234515,-17.080910,-0.277886,1.015313,0.988873,-0.148480,-0.003714,0.008402
346,-0.233720,-2.994913,9.021254,-5.578138,2.182798,-3.979872,-17.208210,-0.250403,0.880992,0.988717,-0.149585,-0.003311,0.007275
347,-0.215850,-3.095258,9.002049,-11.521594,1.488957,-4.010119,-17.492594,-0.231730,0.735630,0.988351,-0.152043,-0.002975,0.006037
348,-0.175346,-3.019648,8.850173,-13.945169,1.087212,-4.568812,-17.916418,-0.234376,0.586342,0.987789,-0.155701,-0.002817,0.004736
349,-0.152583,-2.963608,8.914201,-18.104767,0.102557,-3.351346,-18.450006,-0.256743,0.454729,0.987058,-0.160302,-0.002848,0.003558
350,-0.409866,-3.075459,8.815681,-21.352589,-1.214771,-1.082117,-19.107290,-0.298175,0.390726,0.986123,-0.165961,-0.003132,0.002931
351,0.013839,-3.043206,8.351647,-25.707117,-2.496706,1.578813,-19.891741,-0.353857,0.419164,0.984962,-0.172705,-0.003673,0.003070
352,0.064198,-3.457432,7.751979,-33.879768,-2.769698,4.755053,-20.885639,-0.399509,0.548690,0.983422,-0.181235,-0.004296,0.004077
353,0.014577,-4.017323,7.486917,-40.196026,-2.758342,6.326371,-22.121559,-0.417671,0.754371,0.981401,-0.191821,-0.004840,0.005761
354,0.550863,-3.917131,6.774003,-42.167477,-2.569418,5.237983,-23.495638,-0.424841,0.966493,0.979018,-0.203565,-0.005347,0.007503
355,0.175262,-4.274264,6.487129,-45.668190,-0.011192,6.002378,-24.960661,-0.387052,1.154922,0.976322,-0.216059,-0.005476,0.009110
356,0.407730,-4.284630,6.094196,-50.300327,0.232617,6.878347,-26.560932,-0.290354,1.346891,0.973194,-0.229672,-0.005166,0.010857
357,0.387251,-4.581310,6.553390,-55.072422,2.996156,6.361427,-28.317387,-0.140963,1.517922,0.969540,-0.244571,-0.004433,0.012543
358,0.261360,-4.441825,7.114490,-57.587296,4.713453,5.685986,-30.194567,0.069491,1.630489,0.965385,-0.260441,-0.003120,0.013895
359,-0.123727,-5.219110,7.934155,-56.783913,5.947910,7.289291,-32.099819,0.333552,1.723741,0.960896,-0.276484,-0.001362,0.015260
360,0.298168,-5.349022,8.009594,-49.655334,5.534903,3.697372,-33.872875,0.593588,1.773399,0.956478,-0.291349,0.000447,0.016313
361,-0.063494,-5.785029,8.601861,-42.000011,7.449199,0.107565,-35.400925,0.807954,1.702417,0.952498,-0.304099,0.002199,0.016296
362,-0.177346,-5.727177,8.277075,-34.269608,5.802589,-2.413706,-36.674290,0.964396,1.541464,0.949067,-0.314676,0.003756,0.015415
363,-0.285832,-6.110937,7.860871,-32.586948,4.684663,-2.950148,-37.791500,1.049642,1.364349,0.945967,-0.323914,0.004810,0.014230
364,-0.186142,-6.119507,7.505772,-33.902012,1.962342,-5.031580,-38.902702,1.053988,1.191189,0.942802,-0.333064,0.005211,0.012864
365,-0.262552,-6.336204,7.718783,-38.014923,0.706906,-3.193599,-40.103554,1.001090,1.056835,0.939280,-0.342917,0.005044,0.011658
366,-0.355806,-6.692565,7.419558,-39.475647,-0.663036,-4.077131,-41.396431,0.922320,0.964597,0.935368,-0.353485,0.004554,0.010719
367,-0.253943,-6.990672,7.636233,-37.393562,0.097585,-4.971601,-42.679005,0.814318,0.858761,0.931372,-0.363924,0.003892,0.009566
368,-0.082018,-7.113519,7.775084,-31.915733,1.347387,-7.463018,-43.836216,0.689979,0.691313,0.927671,-0.373301,0.003334,0.007844
369,-0.057938,-7.128039,7.526235,-29.952225,4.605990,-6.115416,-44.869862,0.603021,0.460018,0.924285,-0.381645,0.003332,0.005719
370,-0.057034,-7.298742,7.189846,-28.049696,6.855100,-7.733082,-45.839607,0.573178,0.162164,0.921036,-0.389444,0.004056,0.003251
371,0.039412,-7.610421,7.174247,-24.765022,8.590448,-7.295428,-46.723381,0.570295,-0.196961,0.918011,-0.396521,0.005250,0.000396
372,0.044040,-7.809029,6.848353,-20.723831,9.243800,-7.805877,-47.485455,0.588375,-0.585928,0.915349,-0.402596,0.006759,-0.002613
373,0.198802,-7.881479,6.511272,-17.497274,10.167254,-7.739649,-48.126781,0.613867,-0.999623,0.913066,-0.407683,0.008448,-0.005781
374,0.015829,-8.105800,6.842508,-13.039518,10.579999,-9.496691,-48.640591,0.628877,-1.448896,0.911199,-0.411735,0.010208,-0.009261
375,0.124768,-8.189529,7.056644,-9.292872,9.602481,-8.552257,-49.017693,0.624076,-1.900178,0.909796,-0.414688,0.011833,-0.012828
377,-0.009372,-7.857034,7.174540,-5.355911,7.372050,-4.145241,-49.265747,0.649180,-2.252606,0.908853,-0.416614,0.013341,-0.015507
378,-0.013770,-7.820311,7.314157,-3.468890,4.325918,1.575042,-49.415020,0.743736,-2.428388,0.908288,-0.417759,0.014752,-0.016538
379,0.095205,-7.808129,7.378044,-1.289265,0.875762,6.765933,-49.494030,0.905688,-2.403857,0.908006,-0.418357,0.015957,-0.015741
380,0.124533,-8.029602,7.330650,2.655241,-2.591231,10.816387,-49.467598,1.109838,-2.191667,0.908130,-0.418139,0.016796,-0.013318
381,-0.033623,-8.228098,7.388254,7.576693,-4.596409,12.341872,-49.289864,1.324755,-1.849321,0.908808,-0.416742,0.017235,-0.009847
382,-0.066456,-8.726021,7.811421,7.251073,-6.015649,10.299063,-49.033405,1.494488,-1.468565,0.909758,-0.414737,0.017182,-0.006248
383,0.278189,-7.754368,8.813409,10.100481,-8.714235,3.633499,-48.735432,1.507999,-1.130764,0.910847,-0.412417,0.016057,-0.003559
384,-0.319990,-7.790384,9.908249,19.827581,-10.269999,3.068782,-48.228962,1.381791,-0.819577,0.912676,-0.408442,0.013927,-0.001601
385,-0.459006,-7.590155,10.352685,26.822262,-11.107720,6.352518,-47.443005,1.258829,-0.450039,0.915467,-0.402225,0.011637,0.000824
386,-0.253680,-7.321640,10.766577,31.987259,-10.480263,11.115506,-46.452835,1.225926,0.011524,0.918901,-0.394344,0.009791,0.004311
387,-0.612422,-7.044769,10.561919,39.198792,-7.523775,17.501074,-45.254040,1.359184,0.558806,0.922931,-0.384752,0.009072,0.009064
388,-0.993467,-7.878252,9.563046,48.590771,-6.666124,26.998661,-43.772278,1.710364,1.253086,0.927707,-0.372851,0.009773,0.015709
389,-0.652898,-7.913964,8.028324,47.774059,-8.711102,30.969667,-42.136433,2.181203,2.134560,0.932695,-0.359683,0.011063,0.024219
390,-0.547432,-7.726520,7.525739,49.694260,-10.980028,32.157520,-40.470188,2.629531,3.141952,0.937464,-0.346242,0.012041,0.033650
391,-0.993135,-7.355247,6.905478,51.092339,-13.813877,33.185066,-38.736805,3.005389,4.245568,0.942112,-0.332216,0.012443,0.043624
392,-0.502479,-6.892630,6.456477,49.350300,-18.567123,31.306925,-36.999134,3.239257,5.426912,0.946460,-0.318084,0.011758,0.053835
393,-0.402847,-6.130186,6.251532,44.730354,-19.795193,29.241257,-35.363747,3.319200,6.620977,0.950261,-0.304691,0.010015,0.063777
394,-0.254476,-6.032991,6.907120,35.935108,-17.876953,24.754725,-33.956280,3.314829,7.720006,0.953279,-0.293085,0.007951,0.072785
395,-0.151867,-5.580008,7.014932,34.011993,-14.914886,16.116135,-32.741077,3.233003,8.590786,0.955788,-0.282972,0.005888,0.079762
396,-0.098216,-5.281329,6.923024,31.056507,-13.184372,8.758531,-31.623970,3.056842,9.192094,0.958144,-0.273565,0.003755,0.084315
397,-0.068254,-4.927639,7.736857,31.782843,-9.555490,-0.708967,-30.561062,2.801168,9.503282,0.960511,-0.264514,0.001673,0.086304
398,-0.094171,-5.084682,7.768566,32.743629,-7.752032,-8.401973,-29.485355,2.474694,9.516253,0.963065,-0.255274,-0.000293,0.085676
399,-0.078062,-4.147634,7.394442,38.006191,-6.327411,-15.215091,-28.315685,2.078484,9.285051,0.965926,-0.245175,-0.002265,0.082889
400,-0.146878,-3.956848,7.066548,32.913368,-4.271890,-16.498161,-27.146648,1.675751,8.899272,0.968771,-0.235060,-0.004034,0.078829
401,0.159946,-4.217694,7.460861,31.581841,-3.137300,-20.153252,-26.084660,1.291414,8.408408,0.971334,-0.225854,-0.005594,0.073952
402,0.052404,-4.159367,6.933866,31.555431,-3.613889,-19.061632,-25.042959,0.907586,7.867419,0.973767,-0.216818,-0.007159,0.068682
403,0.127373,-4.010081,7.684884,28.706089,-1.359639,-20.145929,-24.045860,0.560874,7.307469,0.976000,-0.208182,-0.008497,0.063345
404,-0.158379,-4.547420,8.274548,23.276875,-0.454770,-17.734890,-23.183834,0.280033,6.741110,0.977877,-0.200732,-0.009424,0.058084
405,-0.068963,-4.662499,9.517492,17.066385,-1.497441,-19.555374,-22.512947,0.008637,6.181049,0.979336,-0.194921,-0.010450,0.052891
406,-0.126015,-4.040344,10.213799,14.636950,-0.119198,-18.356224,-21.983303,-0.255836,5.606669,0.980499,-0.190330,-0.011514,0.047585
407,-0.140286,-4.000597,10.549769,8.223156,1.179734,-17.389040,-21.598885,-0.460651,5.046922,0.981362,-0.187015,-0.012195,0.042496
408,-0.262071,-3.745143,9.737550,3.977738,1.004521,-16.053392,-21.390530,-0.631254,4.515019,0.981891,-0.185225,-0.012719,0.037684
409,0.058229,-3.139681,8.753347,6.552977,1.886562,-16.818449,-21.208492,-0.785510,3.987096,0.982348,-0.183674,-0.013135,0.032931
410,0.153527,-2.658725,7.433370,12.411818,3.390193,-13.414366,-20.885139,-0.884302,3.485174,0.982996,-0.180930,-0.013097,0.028507
411,0.166794,-2.724564,6.640497,10.752826,3.425689,-12.335638,-20.492155,-0.929372,3.043407,0.983712,-0.177596,-0.012702,0.024689
412,-0.004141,-2.558301,6.617848,16.428755,2.563350,-12.319505,-20.032156,-0.978064,2.623297,0.984499,-0.173680,-0.012384,0.021057
413,0.033378,-2.597647,7.408514,18.732368,2.547436,-12.848189,-19.438675,-1.039344,2.199671,0.985454,-0.168612,-0.012178,0.017387
414,0.039178,-2.434739,8.521440,20.552078,2.512151,-9.972398,-18.776785,-1.084115,1.812632,0.986462,-0.162951,-0.011913,0.014062
415,-0.274805,-2.659587,9.748405,19.483376,2.701756,-9.348468,-18.103214,-1.103352,1.479574,0.987438,-0.157181,-0.011539,0.011235
416,-0.325665,-2.560477,10.018019,20.746370,2.495777,-9.364206,-17.426491,-1.116014,1.156076,0.988377,-0.151377,-0.011154,0.008496
417,-0.288884,-2.663451,10.037725,17.099165,2.908963,-7.805494,-16.789917,-1.114071,0.856045,0.989221,-0.145913,-0.010708,0.005971
418,-0.557479,-2.485261,9.804205,16.744383,2.766293,-3.555866,-16.221910,-1.077198,0.647550,0.989945,-0.141029,-0.010103,0.004268
419,-0.541803,-2.862652,9.562798,12.670161,1.065015,-2.622526,-15.729552,-1.043987,0.530919,0.990548,-0.136787,-0.009659,0.003343
420,-0.438132,-2.615603,9.017022,11.196801,0.100595,-3.285438,-15.329934,-1.051619,0.430871,0.991021,-0.133339,-0.009596,0.002502
421,-0.130658,-2.552657,9.141751,7.475992,-0.915206,-1.772817,-15.017266,-1.086810,0.353080,0.991380,-0.130640,-0.009805,0.001815
422,-0.120977,-2.556845,9.250389,5.831609,-0.348781,-1.669541,-14.794504,-1.121908,0.303071,0.991630,-0.128716,-0.010049,0.001362
423,0.362835,-2.671626,9.340292,3.531765,-1.079505,-3.366425,-14.636951,-1.166259,0.227918,0.991803,-0.127358,-0.010348,0.000676
424,0.269935,-2.560563,9.535609,2.534227,0.859553,-4.264727,-14.533327,-1.201864,0.105749,0.991915,-0.126471,-0.010521,-0.000411
425,0.371969,-2.578692,9.526778,2.132143,0.903759,-2.685417,-14.453064,-1.202419,-0.013791,0.992002,-0.125787,-0.010394,-0.001439
426,0.140388,-2.650139,9.478037,0.612022,2.218461,-1.268082,-14.405744,-1.168438,-0.090590,0.992056,-0.125384,-0.010017,-0.002063
427,0.196335,-2.624675,9.437781,-0.862412,1.939732,0.419167,-14.409313,-1.104839,-0.121553,0.992057,-0.125418,-0.009432,-0.002261
428,0.211944,-2.564048,9.511550,-2.763593,1.698523,2.556605,-14.470368,-1.033754,-0.088645,0.991996,-0.125944,-0.008852,-0.001904
429,0.113381,-2.533143,9.422566,-4.614025,1.400283,4.097770,-14.594977,-0.955934,0.005758,0.991866,-0.127016,-0.008281,-0.001010
430,0.173266,-2.651090,9.502254,-9.051798,0.984285,5.258743,-14.825006,-0.877898,0.146505,0.991614,-0.128998,-0.007762,0.000279
431,0.185198,-2.738107,9.491346,-12.254296,0.489527,4.764795,-15.182393,-0.810899,0.301498,0.991210,-0.132082,-0.007362,0.001673
432,0.283807,-2.709219,9.542475,-15.818538,-0.386973,3.834171,-15.652175,-0.771107,0.439181,0.990660,-0.136137,-0.007188,0.002881
433,0.220395,-2.796769,9.528031,-18.095823,-0.757842,2.618639,-16.218864,-0.759869,0.547793,0.989972,-0.141028,-0.007239,0.003797
434,0.415094,-2.854991,9.405775,-19.159889,-1.429066,1.344695,-16.840761,-0.775956,0.621461,0.989188,-0.146393,-0.007492,0.004373
435,0.119787,-2.902301,9.337866,-22.281322,-1.974448,0.334388,-17.532042,-0.821826,0.664915,0.988283,-0.152352,-0.007972,0.004642
436,0.216151,-2.954620,9.297681,-23.923676,-2.687530,0.651349,-18.302687,-0.890650,0.704422,0.987231,-0.158988,-0.008651,0.004833
437,0.151317,-3.129892,9.088685,-27.007069,-2.816238,1.894940,-19.152609,-0.963917,0.774046,0.986017,-0.166295,-0.009418,0.005261
438,0.124187,-3.287029,8.805740,-28.379078,-3.647699,2.820302,-20.077574,-1.039070,0.884282,0.984632,-0.174234,-0.010273,0.006018
439,0.184715,-3.250466,8.522127,-33.389149,-4.766606,3.670053,-21.109816,-1.132356,1.034860,0.983008,-0.183074,-0.011368,0.007067
440,0.286032,-3.390964,8.439941,-34.799953,-5.727450,5.095980,-22.250336,-1.240934,1.235237,0.981116,-0.192816,-0.012705,0.008487
441,-0.061294,-3.413302,7.663802,-37.800140,-7.010284,8.127670,-23.466650,-1.351048,1.520809,0.978982,-0.203172,-0.014241,0.010596
442,0.406993,-4.185145,7.412005,-38.638718,-8.512988,6.616316,-24.748606,-1.487040,1.850863,0.976604,-0.214047,-0.016134,0.012994
443,0.552203,-4.108361,6.717355,-34.509739,-6.032212,3.509147,-25.974611,-1.633701,2.107067,0.974215,-0.224419,-0.018021,0.014711
444,-0.063679,-5.099540,7.114705,-31.124598,-2.956337,4.503795,-27.073847,-1.707825,2.293546,0.971986,-0.233709,-0.019170,0.015968
445,0.294553,-5.339334,6.806409,-20.485182,-1.522264,1.350390,-27.937534,-1.728972,2.414837,0.970178,-0.241003,-0.019724,0.016805
446,0.695675,-5.093036,6.898428,-11.634621,1.346654,-4.529075,-28.471466,-1.756465,2.369483,0.969049,-0.245523,-0.019938,0.016270
447,-0.255020,-4.458502,7.444253,-12.574540,5.082473,-2.511840,-28.870266,-1.718469,2.215014,0.968213,-0.248928,-0.019338,0.014979
448,-0.179618,-5.068758,8.476254,-22.373257,3.974566,0.098497,-29.449619,-1.606259,2.106418,0.966965,-0.253860,-0.018226,0.014213
449,0.326816,-4.575245,8.042048,-25.322372,3.193529,-2.243267,-30.242069,-1.520628,2.015863,0.965204,-0.260570,-0.017396,0.013519
450,-0.161713,-4.525982,8.473266,-38.721855,4.696584,0.928701,-31.307167,-1.418788,1.929608,0.962757,-0.269561,-0.016463,0.012872
451,-0.102422,-5.638578,8.648531,-50.575752,3.511070,5.053898,-32.795586,-1.250190,1.941660,0.959182,-0.282070,-0.015247,0.013174
452,0.820886,-6.043115,8.216633,-50.965126,2.989753,0.790252,-34.488056,-1.106502,1.962719,0.954915,-0.296227,-0.014297,0.013495
453,0.109133,-6.082762,7.526829,-49.125977,4.714297,0.306290,-36.154732,-0.990810,1.903042,0.950516,-0.310110,-0.013371,0.013104
454,0.371138,-6.448232,7.521831,-51.477184,4.990056,0.021375,-37.829552,-0.858196,1.810241,0.945895,-0.324000,-0.012204,0.012516
455,0.150198,-6.872321,7.138506,-49.834557,5.794911,-2.142444,-39.515728,-0.739951,1.670325,0.941042,-0.337914,-0.011004,0.011535
456,0.079940,-6.761571,7.360746,-45.650223,7.344404,-3.741630,-41.104149,-0.636145,1.453830,0.936288,-0.350959,-0.009651,0.009930
457,-0.258443,-6.695890,7.139477,-41.469200,7.888113,-1.928970,-42.553436,-0.509706,1.214177,0.931794,-0.362805,-0.007989,0.008259
458,-0.010787,-7.079254,7.499864,-37.959389,8.041135,-0.749721,-43.875469,-0.346845,1.000095,0.927561,-0.373558,-0.006068,0.006965
459,-0.341863,-6.904986,7.664684,-26.317133,7.380936,-0.312495,-44.945747,-0.175662,0.807734,0.924041,-0.382226,-0.004111,0.005928
460,0.135176,-6.797184,7.765393,-13.592053,5.243623,0.707754,-45.610603,-0.022831,0.663010,0.921812,-0.387593,-0.002426,0.005256
461,-0.014871,-6.471673,7.572000,-4.909370,4.184647,-1.328833,-45.919018,0.079397,0.543308,0.920769,-0.390079,-0.001211,0.004636
462,0.136311,-6.547985,7.681445,-1.800506,4.793907,-1.998622,-46.031113,0.143608,0.397184,0.920391,-0.390982,-0.000202,0.003680
463,0.221860,-6.476645,7.629689,6.183464,4.704394,-4.341551,-45.958580,0.177621,0.209921,0.920642,-0.390400,0.000712,0.002292
464,0.161226,-6.558510,7.266671,8.631447,6.061870,-4.836452,-45.712402,0.193010,-0.025342,0.921481,-0.388419,0.001638,0.000450
465,0.146804,-6.639464,6.992334,4.576703,7.533510,-5.622038,-45.493313,0.227011,-0.309200,0.922220,-0.386650,0.002870,-0.001722
466,0.244621,-7.147460,7.144958,4.661593,8.942238,-3.698187,-45.340782,0.309015,-0.613832,0.922726,-0.385409,0.004553,-0.003903
467,-0.312732,-7.486210,7.378808,9.306298,7.846933,-0.442155,-45.109692,0.457117,-0.861101,0.923491,-0.383526,0.006566,-0.005410
468,-0.035556,-7.315501,7.316199,11.991014,5.199634,1.909877,-44.756088,0.628462,-0.997338,0.924661,-0.380652,0.008385,-0.005960
469,-0.125669,-7.366730,7.732345,9.521827,4.018685,3.873506,-44.398079,0.805668,-1.036476,0.925840,-0.377742,0.009927,-0.005718
470,-0.184934,-7.642970,8.073297,9.080896,3.839876,4.475863,-44.087929,0.996635,-1.028212,0.926853,-0.375216,0.011429,-0.005052
471,-0.179154,-7.542772,8.073048,8.470304,3.364255,2.121249,-43.795502,1.159400,-1.032375,0.927800,-0.372833,0.012747,-0.004585
472,-0.024083,-7.979877,7.696816,5.443172,4.473366,-1.891966,-43.565437,1.256479,-1.119810,0.928537,-0.370948,0.013807,-0.005005
473,-0.410734,-8.119811,7.935470,-0.312277,5.201557,-4.462668,-43.484081,1.300378,-1.307685,0.928789,-0.370260,0.014767,-0.006396
474,-0.335239,-8.031874,8.429129,-5.154693,3.133539,-6.590941,-43.580322,1.274110,-1.536996,0.928464,-0.371014,0.015302,-0.008326
475,-0.555112,-7.754226,9.405984,-10.262553,0.134424,-4.925096,-43.841007,1.180771,-1.713420,0.927607,-0.373115,0.015139,-0.010024
476,-0.495663,-7.830657,10.260036,-7.140273,-2.382235,1.139722,-44.131401,1.109875,-1.732783,0.926659,-0.375473,0.014655,-0.010375
477,-0.222880,-7.470490,11.036325,-2.135830,-4.652839,6.106884,-44.282711,1.109915,-1.564387,0.926177,-0.376718,0.014115,-0.008994
478,-0.465718,-7.599479,11.147058,8.744036,-4.828984,11.207046,-44.166164,1.197814,-1.247292,0.926577,-0.375802,0.013777,-0.006156
480,-0.210854,-8.068702,9.851833,25.398876,-5.381355,16.641216,-43.586826,1.396620,-0.794634,0.928469,-0.371146,0.013890,-0.001914
481,-0.249429,-8.161660,8.441592,41.707409,-6.011183,20.200403,-42.452900,1.676324,-0.215918,0.932065,-0.361990,0.014318,0.003540
482,-0.121370,-7.833423,7.195951,49.964874,-7.417598,17.720215,-40.905712,1.928929,0.405280,0.936801,-0.349441,0.014535,0.009195
483,-0.473836,-7.409586,6.260096,53.761230,-6.747637,18.227766,-39.155804,2.132974,1.016528,0.941931,-0.335173,0.014564,0.014593
484,0.038499,-6.670467,5.764691,52.182407,-8.883156,15.873463,-37.367123,2.280149,1.624311,0.946929,-0.320513,0.014307,0.019798
485,-0.517001,-5.567503,6.379134,43.771263,-7.606431,16.502199,-35.744152,2.380733,2.222140,0.951236,-0.307152,0.013819,0.024825
486,-0.126340,-5.463180,7.025847,32.124123,-8.397204,13.925824,-34.455452,2.454434,2.790581,0.954479,-0.296513,0.013240,0.029594
487,-0.985653,-5.076021,7.613070,26.340202,-7.406235,14.803410,-33.457687,2.503735,3.335438,0.956861,-0.288261,0.012539,0.034151
488,-0.710510,-4.815147,8.261539,19.376938,-9.658861,11.377162,-32.672977,2.503686,3.856630,0.958647,-0.281757,0.011491,0.038424
489,-0.564295,-5.022054,8.872971,14.464999,-9.319363,6.649707,-32.091007,2.397653,4.280329,0.959946,-0.276898,0.009773,0.041660
490,-0.491624,-4.982608,8.771649,17.583588,-9.630984,1.596912,-31.545597,2.201726,4.563983,0.961199,-0.272294,0.007653,0.043530
491,-0.412466,-4.356265,8.582437,21.147703,-8.818775,-3.426072,-30.895418,1.922745,4.697444,0.962746,-0.266760,0.005244,0.043961
492,0.237915,-4.068759,8.186388,20.470720,-7.627597,-8.444075,-30.202875,1.585892,4.666392,0.964427,-0.260832,0.002745,0.042904
493,0.132432,-3.735591,7.663007,22.341484,-6.225377,-9.527004,-29.493046,1.236335,4.521569,0.966144,-0.254742,0.000385,0.040890
494,-0.290407,-3.242597,6.419156,17.566927,-4.651514,-8.128767,-28.831184,0.934596,4.352836,0.967708,-0.249066,-0.001561,0.038809
495,-0.123570,-3.288560,6.143086,5.545950,-2.828232,-9.665638,-28.448832,0.683010,4.152292,0.968634,-0.245764,-0.003128,0.036580
496,-0.385276,-3.759745,6.132086,3.013177,-1.198033,-9.453912,-28.308733,0.472276,3.904008,0.969035,-0.244527,-0.004335,0.034035
497,-0.536681,-3.909801,6.411303,2.604409,-1.368841,-10.696955,-28.216944,0.275515,3.628475,0.969328,-0.243709,-0.005387,0.031290
498,-0.357183,-3.949903,6.917751,1.760756,-1.838639,-8.605969,-28.144983,0.076448,3.370155,0.969564,-0.243063,-0.006503,0.028686
499,-0.257146,-4.136950,8.057303,5.525617,-1.944818,-6.679491,-28.023487,-0.099121,3.175089,0.969879,-0.242004,-0.007547,0.026671
500,-0.243024,-4.230309,8.792842,13.328093,-2.835673,-5.559606,-27.708796,-0.264830,3.031945,0.970580,-0.239312,-0.008578,0.025133
501,0.014067,-3.807115,9.368424,19.253597,-2.482139,-3.909449,-27.165163,-0.416092,2.932631,0.971730,-0.234678,-0.009538,0.024021
502,-0.001178,-3.949738,9.436563,21.525606,-0.850605,-0.153307,-26.485249,-0.496118,2.897165,0.973114,-0.228893,-0.010004,0.023616
503,-0.168873,-4.121171,9.326795,27.706398,0.401591,0.625453,-25.664831,-0.499243,2.907356,0.974725,-0.221919,-0.009881,0.023768
504,-0.137410,-3.763152,9.176023,33.417530,0.885951,-0.759802,-24.646069,-0.480766,2.896119,0.976662,-0.213250,-0.009491,0.023793
505,0.064090,-3.520741,9.291182,34.975742,1.335706,-0.405317,-23.506020,-0.454988,2.863304,0.978742,-0.203531,-0.008975,0.023652
506,-0.274529,-3.475013,8.961743,32.823017,1.850860,1.670191,-22.376152,-0.397852,2.861974,0.980701,-0.193883,-0.008250,0.023825
507,-0.237046,-3.184147,9.098516,30.517414,1.262870,2.813943,-21.320904,-0.321737,2.911912,0.982433,-0.184858,-0.007459,0.024451
508,-0.205599,-2.871748,9.421425,24.780619,0.847842,2.359557,-20.399700,-0.258060,2.979952,0.983871,-0.176964,-0.006820,0.025192
509,-0.171165,-2.955592,9.623122,21.874643,0.399341,5.013817,-19.622595,-0.196470,3.088314,0.985023,-0.170296,-0.006281,0.026261
510,-0.302704,-2.901441,9.468897,20.206615,0.287806,6.189844,-18.921764,-0.123859,3.260751,0.986003,-0.164277,-0.005742,0.027887
511,-0.151950,-2.708756,9.534447,18.628660,0.362179,4.948458,-18.274807,-0.054310,3.433211,0.986869,-0.158717,-0.005225,0.029501
512,-0.079405,-2.607233,9.524681,16.256407,-0.109908,3.994469,-17.693476,-0.004330,3.573680,0.987623,-0.153716,-0.004833,0.030804
513,-0.052501,-2.518512,9.252505,15.115449,0.542263,1.709837,-17.170610,0.031017,3.662247,0.988288,-0.149214,-0.004503,0.031636
514,0.004405,-2.339456,9.424716,11.872643,0.699971,0.072871,-16.720797,0.059398,3.684632,0.988859,-0.145341,-0.004162,0.031883
515,-0.041129,-2.451069,9.330881,9.381151,0.998792,-1.565904,-16.366610,0.079406,3.652721,0.989312,-0.142290,-0.003851,0.031645
516,0.046033,-2.217843,9.274560,5.317268,1.082781,-3.233552,-16.121761,0.090289,3.566220,0.989636,-0.140182,-0.003584,0.030919
517,-0.073173,-2.185330,9.527063,2.602645,1.643267,-4.063343,-15.989980,0.100261,3.436787,0.989831,-0.139050,-0.003305,0.029817
518,-0.059140,-2.189508,9.675788,-0.790108,1.009388,-4.638039,-15.960039,0.102816,3.285192,0.989906,-0.138796,-0.003091,0.028512
519,-0.056536,-2.282620,9.481681,-2.247961,1.198860,-7.350782,-16.010988,0.083132,3.082969,0.989893,-0.139237,-0.003028,0.026740
520,0.067706,-2.134913,9.815817,-5.328322,1.604659,-9.657012,-16.137589,0.049532,2.797653,0.989804,-0.140331,-0.002999,0.024231
521,-0.165897,-2.546479,9.613107,-5.575945,1.782707,-9.397932,-16.319506,0.014942,2.476955,0.989645,-0.141903,-0.002939,0.021414
522,0.005290,-2.478704,9.177546,-6.179605,1.408953,-9.876381,-16.515406,-0.024833,2.153788,0.989458,-0.143596,-0.002914,0.018568
523,0.075091,-2.527268,9.249539,-8.130399,1.190476,-8.858159,-16.753628,-0.072716,1.842209,0.989205,-0.145654,-0.002970,0.015812
524,0.012080,-2.464624,9.209087,-9.099346,1.284582,-7.462737,-17.040346,-0.112369,1.569960,0.988873,-0.148130,-0.002999,0.013404
525,0.055712,-2.566622,9.030207,-11.076589,0.996685,-6.096945,-17.376110,-0.142955,1.342849,0.988459,-0.151030,-0.003003,0.011395
526,0.232230,-2.532434,9.127924,-14.691592,1.093661,-7.272146,-17.804949,-0.177149,1.119932,0.987907,-0.154731,-0.003040,0.009416
527,0.142991,-2.572752,9.368487,-19.454250,0.772387,-8.168032,-18.373135,-0.227509,0.865665,0.987146,-0.159630,-0.003166,0.007140
528,-0.159841,-2.758130,9.062049,-21.861246,1.189727,-8.181263,-19.060493,-0.284030,0.597096,0.986184,-0.165553,-0.003307,0.004728
529,-0.122267,-3.110669,8.346202,-24.674669,-0.250103,-6.245545,-19.834784,-0.349354,0.365194,0.985049,-0.172217,-0.003552,0.002614
530,-0.127556,-3.096759,7.710303,-28.346457,-1.314791,-5.363723,-20.717203,-0.441043,0.192718,0.983694,-0.179800,-0.004088,0.000962
531,-0.089784,-3.082467,7.703604,-34.504082,-1.915341,-4.279473,-21.763494,-0.549561,0.062410,0.982008,-0.188778,-0.004812,-0.000371
532,-0.183140,-3.687411,7.422792,-36.780193,-2.347005,-2.547305,-22.950605,-0.658677,-0.015750,0.979994,-0.198943,-0.005606,-0.001278
533,0.163025,-3.939856,7.491238,-36.722885,-1.741443,-4.702206,-24.174454,-0.769585,-0.099213,0.977806,-0.209401,-0.006386,-0.002253
534,0.198316,-3.780756,8.104383,-35.360218,0.068826,-6.818156,-25.373371,-0.875142,-0.261893,0.975551,-0.219630,-0.006949,-0.003907
535,0.193252,-4.330035,9.375788,-34.715584,1.485021,-8.051435,-26.537447,-0.960060,-0.496006,0.973253,-0.229544,-0.007161,-0.006136
536,-0.112537,-4.504586,9.635993,-21.587891,2.443050,-5.872241,-27.471701,-1.006935,-0.732445,0.971330,-0.237487,-0.007018,-0.008295
537,0.060099,-4.289996,10.033391,-12.891020,2.796310,-5.597512,-28.042637,-1.018565,-0.942221,0.970117,-0.242336,-0.006631,-0.010131
538,-0.028021,-4.305878,10.067257,-4.917868,1.337232,-1.985793,-28.336893,-1.017420,-1.086172,0.969478,-0.244834,-0.006288,-0.011363
539,0.006166,-4.426212,9.939220,1.121164,0.771053,-1.394694,-28.398998,-1.013271,-1.152443,0.969339,-0.245363,-0.006105,-0.011918
540,-0.283277,-4.077747,8.919249,8.130754,0.592062,2.436284,-28.244879,-0.985010,-1.147938,0.969671,-0.244057,-0.005891,-0.011812
541,0.058781,-4.326715,8.303761,3.062817,-0.892786,2.336804,-28.059553,-0.951859,-1.075427,0.970075,-0.242483,-0.005783,-0.011118
542,0.165585,-4.483590,7.890090,0.531402,0.516032,2.064892,-28.000767,-0.922892,-1.007704,0.970208,-0.241980,-0.005687,-0.010481
543,0.220987,-4.413466,7.254920,-4.113088,1.497332,1.864130,-28.061108,-0.862490,-0.965677,0.970089,-0.242485,-0.005259,-0.010000
544,-0.005017,-4.570217,6.954629,-12.942916,1.817069,3.732383,-28.346167,-0.769709,-0.909594,0.969495,-0.244890,-0.004569,-0.009340
545,0.084609,-4.854938,6.766043,-23.554564,2.284683,3.912403,-28.955429,-0.648624,-0.830591,0.968194,-0.250033,-0.003668,-0.008433
546,0.032333,-5.202796,6.928945,-33.457298,0.720310,5.358390,-29.906710,-0.529024,-0.720701,0.966099,-0.258053,-0.002837,-0.007267
547,0.140260,-4.782294,6.682291,-35.741222,-1.125636,5.960690,-31.061329,-0.439218,-0.554842,0.963464,-0.267767,-0.002396,-0.005691
548,-0.026546,-5.205362,7.615710,-45.764271,-2.418186,7.802454,-32.421207,-0.368879,-0.328840,0.960231,-0.279175,-0.002290,-0.003654
549,0.146451,-5.540807,7.840874,-44.762978,-3.353653,6.075981,-33.931232,-0.322891,-0.082706,0.956475,-0.291798,-0.002485,-0.001513
550,0.255962,-5.434475,8.207132,-41.148750,-3.460259,2.999523,-35.363930,-0.330243,0.106067,0.952754,-0.303729,-0.003027,0.000007
551,0.051867,-5.306935,8.433654,-36.832703,0.268054,3.168210,-36.664082,-0.312635,0.220280,0.949246,-0.314517,-0.003194,0.000967
552,0.008973,-5.844427,8.614401,-40.133770,1.415471,4.337662,-37.947029,-0.214350,0.303062,0.945666,-0.325125,-0.002629,0.001893
553,-0.089704,-6.326689,8.418281,-33.849636,3.779482,3.801058,-39.180042,-0.062111,0.355269,0.942112,-0.335284,-0.001550,0.002739
554,-0.003238,-6.389922,8.240328,-28.133141,4.861629,4.002190,-40.212940,0.131897,0.363551,0.939049,-0.343767,-0.000010,0.003375
555,-0.012726,-6.474416,8.232760,-23.610031,5.214764,5.372361,-41.075203,0.361115,0.372866,0.936429,-0.350828,0.001809,0.004153
556,0.049469,-6.675571,8.120724,-18.999838,4.806234,4.101879,-41.785278,0.590758,0.380888,0.934227,-0.356627,0.003631,0.004944
557,-0.063754,-6.903020,8.294169,-10.626696,4.859584,3.159822,-42.279240,0.791476,0.362939,0.932670,-0.360652,0.005300,0.005445
558,0.103479,-6.295569,8.023933,-3.821096,2.998830,2.982600,-42.520210,0.957260,0.350322,0.931898,-0.362612,0.006677,0.005878
559,-0.076180,-6.187020,8.450012,-2.705243,1.970743,5.281555,-42.628178,1.111424,0.395778,0.931540,-0.363492,0.007780,0.006743
560,-0.022973,-6.701239,8.447959,0.253330,0.149209,6.308336,-42.666607,1.268255,0.513965,0.931395,-0.363813,0.008677,0.008204
561,-0.007315,-6.627758,8.360226,4.510527,-1.637869,5.641356,-42.583450,1.384839,0.677385,0.931633,-0.363150,0.009113,0.009895
562,-0.067502,-6.624221,8.246455,4.939726,-2.212667,5.107532,-42.421627,1.458516,0.852920,0.932120,-0.361849,0.009172,0.011543
563,-0.139678,-6.802909,8.085656,4.662991,-1.152884,0.692127,-42.258785,1.482153,0.962195,0.932619,-0.360534,0.009037,0.012494
564,-0.195517,-6.983037,7.906840,4.295854,0.820129,-2.055482,-42.109814,1.462741,0.949102,0.933091,-0.359320,0.008937,0.012314
565,-0.052925,-7.261639,8.020577,3.920189,0.915771,-2.904333,-41.974930,1.428832,0.868316,0.933526,-0.358214,0.008927,0.011540
566,-0.061886,-7.519820,7.987999,3.162567,-0.743666,-1.709521,-41.858334,1.379586,0.809167,0.933901,-0.357258,0.008722,0.010895
567,-0.115214,-6.936218,9.379642,-2.647660,-4.126040,0.447388,-41.848839,1.305111,0.847669,0.933936,-0.357182,0.007996,0.010976
568,-0.070056,-6.790448,10.361975,-3.052040,-8.835984,6.572062,-41.938713,1.222439,1.079100,0.933641,-0.357926,0.006591,0.012610
569,0.171989,-6.969866,11.505412,2.171682,-10.849025,10.494972,-41.944340,1.168474,1.510060,0.933577,-0.357990,0.004804,0.015953
570,-0.372288,-6.447586,12.587757,12.661919,-8.300893,10.357297,-41.687466,1.162152,1.981946,0.934304,-0.355913,0.003323,0.019770
571,-0.627525,-6.005206,12.588240,23.226089,-5.752622,9.339234,-41.081005,1.203046,2.383127,0.936094,-0.350979,0.002533,0.023155
572,-0.450953,-7.079364,10.887033,33.836952,-3.813137,8.464869,-40.122849,1.274696,2.712204,0.938914,-0.343157,0.002328,0.026044
573,-0.215794,-7.526620,9.760584,42.600487,-1.199379,5.617064,-38.843605,1.359054,2.946481,0.942617,-0.332674,0.002633,0.028188
574,-0.425733,-7.140235,8.060526,49.062153,1.267956,2.505153,-37.313522,1.442919,3.052365,0.946934,-0.320077,0.003406,0.029259
575,-0.087251,-7.005713,6.341000,43.788979,-1.237500,1.965389,-35.764771,1.487183,3.111953,0.951150,-0.307260,0.004009,0.029823
576,0.290644,-6.866278,6.273904,39.169140,-1.462383,-0.650575,-34.381268,1.463087,3.155995,0.954783,-0.295752,0.004054,0.030077
577,-0.369676,-5.665870,6.034388,45.617855,-0.001986,-0.028613,-32.968262,1.436312,3.160281,0.958360,-0.283951,0.004190,0.029995
578,0.055497,-5.096492,6.009323,35.056713,-0.947865,-5.101830,-31.625486,1.377223,3.096277,0.961648,-0.272688,0.004198,0.029266
579,0.014384,-5.183969,6.873627,25.176311,-0.313976,-7.694255,-30.625662,1.248570,2.924939,0.964054,-0.264256,0.003766,0.027491
580,-0.334093,-4.745075,7.302740,30.458845,-1.057611,-9.237000,-29.703226,1.086712,2.692566,0.966226,-0.256450,0.003142,0.025139
581,-0.260886,-4.774100,7.701433,22.750635,-0.970359,-10.405593,-28.821117,0.897241,2.423502,0.968250,-0.248965,0.002319,0.022430
583,0.020164,-4.689856,8.508159,11.981091,-1.114046,-12.475406,-28.246689,0.684350,2.105193,0.969565,-0.244071,0.001308,0.019272
584,-0.567813,-4.775828,9.046458,9.960994,-1.590048,-5.767004,-27.883551,0.501218,1.858313,0.970387,-0.240971,0.000338,0.016792
585,-0.418397,-4.194276,8.867301,8.791095,-6.359865,-1.793399,-27.571350,0.325438,1.808377,0.971058,-0.238304,-0.001002,0.016002
586,-0.132598,-4.282209,8.707001,-1.613997,-7.349499,2.753621,-27.451176,0.130306,1.928186,0.971301,-0.237257,-0.002888,0.016615
587,-0.047882,-4.021587,8.123012,-0.064220,-8.620576,6.265611,-27.478859,-0.036404,2.184458,0.971211,-0.237458,-0.004836,0.018441
588,0.065055,-4.383135,7.461575,1.979604,-7.670434,6.374063,-27.447470,-0.180206,2.496577,0.971227,-0.237151,-0.006696,0.020790
589,0.538500,-3.602656,6.962234,13.629770,-3.758384,1.690311,-27.188143,-0.287806,2.703385,0.971726,-0.234918,-0.007985,0.022338
590,0.517181,-3.405980,6.225481,18.673527,-0.648442,-5.260581,-26.649673,-0.380520,2.683461,0.972825,-0.230331,-0.008627,0.022020
591,0.689418,-3.651672,6.320640,19.110567,0.089436,-6.200012,-26.018764,-0.473890,2.516385,0.974110,-0.224966,-0.008971,0.020463
592,0.195871,-3.240483,6.830332,20.711760,2.292495,-8.703362,-25.352945,-0.545820,2.275319,0.975442,-0.219308,-0.009003,0.018325
593,0.273891,-3.028836,8.009768,18.974247,0.692998,-8.498118,-24.688709,-0.622109,1.994432,0.976738,-0.213659,-0.009023,0.015841
594,-0.369479,-3.485743,8.461165,11.928045,0.006016,-5.574697,-24.171122,-0.708497,1.776136,0.977720,-0.209249,-0.009290,0.013861
595,-0.268607,-3.935580,9.327685,6.538345,-1.312679,3.628285,-23.863083,-0.741594,1.755390,0.978281,-0.206617,-0.009498,0.013649
596,-0.567615,-3.496013,9.818669,7.870265,0.571914,5.763275,-23.624779,-0.689678,1.903606,0.978691,-0.204578,-0.009291,0.015027
597,-0.058224,-4.031770,9.867963,10.504934,-1.400363,9.097565,-23.321127,-0.603681,2.136263,0.979198,-0.201979,-0.008926,0.017192
598,-0.172913,-4.294385,8.926697,16.780163,0.404780,8.892241,-22.869141,-0.501294,2.418606,0.979942,-0.198112,-0.008471,0.019819
599,0.082792,-4.338786,8.816841,20.171360,-0.110570,7.042520,-22.255165,-0.395029,2.661970,0.980945,-0.192863,-0.007864,0.022126
600,-0.113565,-3.928128,8.779424,26.320389,2.001039,2.142584,-21.481146,-0.308901,2.792376,0.982198,-0.186242,-0.007188,0.023436
601,0.267852,-4.092596,8.613687,28.049957,1.436159,-2.543842,-20.574858,-0.258193,2.765604,0.983645,-0.178480,-0.006526,0.023342
602,0.050014,-3.512253,8.449920,28.101288,3.738133,-4.680130,-19.638451,-0.218877,2.623052,0.985098,-0.170452,-0.005785,0.022227
603,0.236760,-3.050418,8.933879,21.610998,3.234940,-4.008293,-18.809408,-0.157013,2.447965,0.986338,-0.163341,-0.004842,0.020850
604,0.158625,-2.689925,9.243842,14.706899,4.144457,-3.549235,-18.203812,-0.080402,2.289474,0.987213,-0.158145,-0.003853,0.019616
605,0.267485,-2.795383,8.939264,5.426431,4.391194,-2.383596,-17.868214,0.024179,2.151327,0.987693,-0.155275,-0.002707,0.018578
606,0.181376,-2.411509,8.948496,-6.944560,6.000058,-2.888072,-17.893751,0.161956,2.014449,0.987676,-0.155519,-0.001338,0.017584
607,0.056715,-2.775826,9.254605,-24.561335,6.181324,-1.189969,-18.419399,0.333566,1.886481,0.986964,-0.160073,0.000238,0.016715
608,-0.335922,-2.892316,9.196057,-33.321671,9.074327,-0.549911,-19.384964,0.564481,1.776492,0.985582,-0.168413,0.002245,0.016110
609,-0.416421,-3.140306,9.202525,-39.378551,9.866830,-1.759115,-20.598303,0.847907,1.632466,0.983742,-0.178868,0.004733,0.015338
610,-0.611651,-3.288715,9.758220,-43.529427,9.937231,-3.532170,-21.983360,1.123438,1.430356,0.981508,-0.190763,0.007243,0.014121
611,-0.726861,-3.870866,9.721578,-38.294220,9.865446,-3.584009,-23.351995,1.382335,1.193565,0.979158,-0.202474,0.009705,0.012640
612,-0.767102,-4.091860,9.463367,-24.346619,10.835135,-7.128988,-24.403803,1.625596,0.890669,0.977258,-0.211437,0.012222,0.010594
613,-0.728106,-4.271050,9.495944,-11.466902,9.736207,-12.175068,-25.013601,1.803146,0.455111,0.976128,-0.216588,0.014501,0.007284
614,-0.902050,-4.124568,9.127204,6.215398,9.247563,-11.533817,-25.116966,1.922925,-0.037082,0.975938,-0.217400,0.016449,0.003333
615,-0.483793,-4.648070,8.927303,11.086557,7.422872,-11.454176,-24.844566,2.013596,-0.501819,0.976445,-0.215005,0.018101,-0.000496
616,-0.509251,-4.490231,8.950934,19.344357,6.361042,-15.025476,-24.354929,2.038944,-0.998949,0.977340,-0.210747,0.019230,-0.004767
617,-0.425158,-4.116704,8.878082,21.984625,4.084837,-15.449578,-23.684856,1.991411,-1.533942,0.978528,-0.204944,0.019753,-0.009533
618,-0.170192,-4.011992,8.892707,15.849622,1.103670,-11.625527,-23.069429,1.891872,-1.982585,0.979581,-0.199625,0.019632,-0.013648
619,0.099118,-4.199176,9.237967,5.691169,-1.391177,-9.998506,-22.720842,1.747265,-2.312781,0.980154,-0.196615,0.018920,-0.016781
620,0.063862,-3.550999,8.953840,7.887422,-3.385590,-8.757015,-22.501902,1.553409,-2.570689,0.980505,-0.194741,0.017668,-0.019354
621,0.024980,-3.390589,8.897933,3.580915,-3.947287,-3.743575,-22.314423,1.361076,-2.716765,0.980810,-0.193157,0.016236,-0.020959
622,0.325594,-3.409713,9.021765,-3.373207,-6.438874,-1.088421,-22.311104,1.170382,-2.725509,0.980824,-0.193170,0.014619,-0.021356
623,0.268252,-4.028642,9.314507,-10.417079,-6.417469,-3.154874,-22.540586,0.945333,-2.709041,0.980447,-0.195185,0.012708,-0.021570
624,0.232826,-4.301735,9.184117,-10.125871,-6.250883,-9.434084,-22.884579,0.669600,-2.820971,0.979840,-0.198176,0.010609,-0.022967
625,-0.060497,-4.592927,9.169111,-11.904642,-5.995895,-12.191960,-23.254065,0.340730,-3.072669,0.979140,-0.201389,0.008315,-0.025662
626,-0.079533,-4.865589,8.869953,-16.246092,-8.628229,-12.025810,-23.723988,-0.043635,-3.345677,0.978226,-0.205478,0.005628,-0.028647
627,-0.377389,-5.070676,8.425435,-16.899372,-8.941303,-9.030066,-24.275436,-0.453989,-3.547118,0.977143,-0.210280,0.002636,-0.031090
628,-0.091921,-4.743816,7.709248,-15.907474,-11.044721,-2.604933,-24.821697,-0.837653,-3.585057,0.976079,-0.215033,-0.000413,-0.032119
629,0.057959,-4.713034,7.453779,-23.755070,-13.050140,5.543934,-25.486319,-1.180580,-3.369995,0.974828,-0.220769,-0.003558,-0.030950
630,0.312724,-4.885154,7.863570,-30.884560,-13.486294,9.342295,-26.406342,-1.469970,-2.953031,0.973087,-0.228632,-0.006599,-0.028013
631,0.729354,-5.146579,8.207098,-35.037037,-11.792135,7.666196,-27.517160,-1.716947,-2.508995,0.970887,-0.238066,-0.009343,-0.024825
632,0.704132,-5.377857,8.340816,-36.179672,-9.491899,4.245039,-28.714893,-1.935916,-2.166478,0.968377,-0.248200,-0.011676,-0.022500
633,0.429771,-5.500334,8.504466,-34.551762,-6.921707,0.150584,-29.900698,-2.138187,-1.968549,0.965756,-0.258209,-0.013593,-0.021406
634,0.317689,-5.682724,8.474539,-30.613220,-3.582269,-2.027716,-30.989120,-2.304555,-1.906789,0.963238,-0.267378,-0.014932,-0.021403
635,0.202445,-5.792531,8.024918,-25.329367,-0.996003,-2.487515,-31.920443,-2.408639,-1.931100,0.961007,-0.275211,-0.015572,-0.021977
636,0.019430,-5.954853,7.810373,-18.696018,1.667366,-1.237376,-32.651703,-2.432209,-1.989518,0.959214,-0.281348,-0.015486,-0.022622
637,0.311280,-6.061070,7.766751,-11.367770,4.329416,0.726155,-33.150196,-2.352873,-2.050869,0.957986,-0.285518,-0.014571,-0.023005
638,0.430557,-6.060834,7.706615,-4.729222,6.443730,1.424761,-33.415779,-2.183076,-2.119324,0.957344,-0.287729,-0.012927,-0.023185
639,0.319579,-5.828995,7.795884,-0.147034,6.687118,2.216751,-33.494526,-1.966986,-2.189257,0.957175,-0.288369,-0.010929,-0.023236
640,0.091074,-5.582377,7.788512,3.130229,6.611444,3.568672,-33.443466,-1.728900,-2.231000,0.957338,-0.287918,-0.008845,-0.022983
641,0.105251,-5.513589,7.631714,3.269130,4.238647,5.665391,-33.337658,-1.493203,-2.201958,0.957649,-0.287002,-0.006969,-0.022142
642,-0.109325,-5.427903,7.690644,0.113828,1.287270,6.438869,-33.284203,-1.305422,-2.083901,0.957832,-0.286525,-0.005705,-0.020684
643,-0.271030,-5.165061,7.724573,-0.457111,-0.759694,7.894666,-33.294178,-1.166917,-1.889025,0.957860,-0.286583,-0.005033,-0.018709
644,-0.081102,-5.063563,7.909259,0.334094,-1.981479,9.355871,-33.301392,-1.047256,-1.623593,0.957896,-0.286620,-0.004695,-0.016192
645,0.028803,-5.179570,8.368710,-0.227090,-3.829084,10.612703,-33.305397,-0.945475,-1.292211,0.957939,-0.286631,-0.004673,-0.013167
646,-0.118507,-4.923203,8.672961,3.511673,-3.966459,10.993400,-33.256542,-0.856474,-0.919836,0.958107,-0.286201,-0.004864,-0.009830
647,0.195667,-4.660502,8.802407,8.944865,-3.502699,11.675258,-33.054337,-0.754164,-0.535397,0.958645,-0.284490,-0.004980,-0.006351
648,0.305873,-4.625981,9.217047,8.809170,-3.917256,11.977506,-32.763279,-0.643958,-0.137203,0.959387,-0.282036,-0.005054,-0.002734
649,-0.021684,-4.160430,9.538146,9.117413,-3.979813,11.077429,-32.468616,-0.547695,0.257408,0.960116,-0.279552,-0.005217,0.000821
650,0.118604,-3.616546,9.440852,11.972919,-4.172481,10.537586,-32.120480,-0.470104,0.634545,0.960955,-0.276619,-0.005474,0.004186
651,0.153606,-3.371516,9.604076,10.657756,-5.486581,11.499246,-31.746374,-0.412547,1.031421,0.961833,-0.273465,-0.005924,0.007673
652,-0.046550,-3.411368,10.034225,7.538823,-6.889903,13.550471,-31.446291,-0.369426,1.495111,0.962507,-0.270924,-0.006639,0.011685
653,0.004685,-3.412437,10.108665,6.752647,-7.422791,15.118756,-31.211342,-0.324590,2.027284,0.962995,-0.268924,-0.007487,0.016276
654,0.347637,-3.705424,9.960242,6.129000,-7.716523,16.434544,-30.999651,-0.268893,2.607895,0.963393,-0.267114,-0.008342,0.021302
655,0.295090,-3.926651,10.040663,6.071911,-6.552960,16.267097,-30.798668,-0.193032,3.197674,0.963734,-0.265396,-0.009032,0.026452
656,0.161708,-4.009813,10.198463,7.423998,-4.670588,13.846814,-30.575045,-0.097766,3.724728,0.964112,-0.263497,-0.009391,0.031124
657,0.033888,-3.959353,10.005030,12.519793,-2.650290,9.783583,-30.242968,-0.003749,4.126140,0.964749,-0.260696,-0.009423,0.034745
658,0.112488,-3.894531,9.532851,19.921785,-0.705422,4.433282,-29.702143,0.065917,4.359374,0.965890,-0.256143,-0.009193,0.036910
659,0.180255,-3.952411,9.153187,24.390940,0.536232,-1.751213,-28.963560,0.085009,4.399795,0.967506,-0.249915,-0.008882,0.037352
660,0.189770,-4.017803,8.959744,27.770117,1.126618,-7.247861,-28.094398,0.037390,4.254898,0.969424,-0.242566,-0.008694,0.036091
661,0.324324,-3.980676,8.670965,32.708149,1.009897,-12.187593,-27.086380,-0.081355,3.951459,0.971621,-0.234015,-0.008763,0.033351
662,0.424934,-3.939788,8.431087,35.170414,0.170239,-16.378687,-25.953808,-0.276531,3.516846,0.974016,-0.224380,-0.009241,0.029360
663,0.381409,-3.926380,8.606080,35.138710,-1.074456,-18.727682,-24.778374,-0.540975,2.994847,0.976395,-0.214355,-0.010216,0.024511
664,0.300873,-3.938193,8.804318,36.558128,-1.692469,-18.548800,-23.576952,-0.837595,2.447187,0.978691,-0.204094,-0.011516,0.019410
665,0.344958,-3.786736,8.705231,38.952183,-1.962216,-18.962538,-22.309090,-1.137255,1.895227,0.980958,-0.193259,-0.012935,0.014305
666,0.412269,-3.579795,8.757182,38.844063,-2.194278,-19.695049,-20.999788,-1.439265,1.321919,0.983139,-0.182065,-0.014451,0.009053
667,0.429985,-3.374782,8.988029,37.001362,-2.213732,-19.769812,-19.719511,-1.736987,0.730757,0.985113,-0.171119,-0.016025,0.003687
668,0.281485,-3.131224,9.142384,35.575298,-1.471561,-18.549610,-18.491039,-2.004100,0.147219,0.986861,-0.160618,-0.017467,-0.001542
669,0.070061,-2.819337,9.338216,34.375504,-0.039559,-16.549841,-17.305197,-2.207795,-0.402069,0.988419,-0.150481,-0.018518,-0.006366
670,0.191590,-2.531442,9.570873,32.742119,0.762929,-14.109955,-16.167189,-2.343300,-0.895355,0.989804,-0.140742,-0.019145,-0.010609
671,0.157499,-2.269728,9.729070,33.129913,1.085611,-12.094882,-15.051593,-2.431018,-1.324698,0.991065,-0.131177,-0.019515,-0.014236
672,0.216243,-2.181456,9.810545,33.145050,1.323706,-8.725652,-13.932312,-2.478809,-1.671054,0.992242,-0.121555,-0.019700,-0.017094
673,0.265874,-2.040596,9.796657,34.733292,1.129615,-5.452887,-12.790750,-2.493375,-1.910690,0.993363,-0.111707,-0.019762,-0.018989
674,0.575197,-1.825128,9.806949,36.152328,0.361742,-3.845653,-11.602624,-2.501526,-2.067588,0.994440,-0.101430,-0.019890,-0.020151
675,0.469872,-1.637355,9.751458,37.513821,-0.442107,-1.310834,-10.371307,-2.519053,-2.151727,0.995454,-0.090756,-0.020191,-0.020681
676,0.563137,-1.422094,9.739513,37.505711,-0.751695,1.479836,-9.121408,-2.537940,-2.145545,0.996382,-0.079895,-0.020584,-0.020419
677,0.572782,-1.068410,9.729705,40.048004,-1.430872,1.402578,-7.831367,-2.566578,-2.092631,0.997221,-0.068668,-0.021093,-0.019743
678,0.756578,-0.847340,9.735658,40.065952,-1.968218,-0.286222,-6.497487,-2.620467,-2.067024,0.997946,-0.057059,-0.021804,-0.019299
679,0.626782,-0.638580,9.702931,39.629539,-2.766851,-1.383116,-5.168521,-2.701950,-2.086632,0.998520,-0.045497,-0.022728,-0.019248
680,0.571060,-0.413608,9.790930,38.904705,-3.105530,-2.537273,-3.857054,-2.804744,-2.144038,0.998944,-0.034094,-0.023826,-0.019516
681,0.494672,-0.224266,9.764640,37.272205,-3.358294,-2.918560,-2.583390,-2.917506,-2.228823,0.999222,-0.023026,-0.025008,-0.020011
682,0.399778,-0.038893,9.771162,34.325279,-2.920243,-1.871785,-1.386303,-3.024879,-2.305043,0.999370,-0.012622,-0.026143,-0.020425
683,0.262574,0.151859,9.797390,32.259037,-2.206792,-0.009203,-0.275069,-3.110691,-2.335207,0.999420,-0.002952,-0.027088,-0.020435
684,0.283034,0.289239,9.798525,28.992861,-1.289163,1.869863,0.744021,-3.168931,-2.304435,0.999398,0.005933,-0.027775,-0.019921
686,0.273123,0.394676,9.740861,24.497944,-0.388274,3.996593,1.630072,-3.198757,-2.207169,0.999332,0.013679,-0.028177,-0.018854
687,0.264633,0.395607,9.798184,20.597393,0.644193,6.016399,2.372299,-3.200150,-2.040031,0.999248,0.020192,-0.028281,-0.017213
688,0.289552,0.461861,9.852105,18.124554,1.234696,7.258178,3.005254,-3.179089,-1.817278,0.999157,0.025770,-0.028142,-0.015119
689,0.410531,0.544362,9.835550,15.825914,1.247165,7.674544,3.557212,-3.151938,-1.566093,0.999059,0.030647,-0.027911,-0.012801
690,0.417140,0.632962,9.822088,14.781670,1.060839,7.480361,4.053352,-3.130260,-1.311144,0.998947,0.035037,-0.027699,-0.010464
691,0.460247,0.684548,9.841909,14.074506,0.742854,6.569208,4.521407,-3.117777,-1.075043,0.998818,0.039175,-0.027552,-0.008298
692,0.517220,0.786233,9.831137,13.357103,0.272322,5.395401,4.967689,-3.117430,-0.874618,0.998671,0.043113,-0.027506,-0.006444
693,0.567603,0.844153,9.770339,11.543779,-0.359996,4.691883,5.373552,-3.134067,-0.707054,0.998516,0.046689,-0.027605,-0.004879
694,0.511362,0.878007,9.822984,9.349203,-0.713722,4.904880,5.713087,-3.167329,-0.549330,0.998371,0.049684,-0.027841,-0.003409
695,0.547682,0.899738,9.886615,6.828727,-1.196726,5.051788,5.973688,-3.215870,-0.387225,0.998248,0.051991,-0.028198,-0.001911
696,0.553198,0.963822,9.915848,5.256595,-1.150180,4.776039,6.166104,-3.272054,-0.228210,0.998147,0.053705,-0.028616,-0.000452
697,0.509768,1.055479,9.809165,3.562619,-0.836017,4.930444,6.304033,-3.322517,-0.070722,0.998068,0.054944,-0.028980,0.000978
698,0.442083,1.008060,9.904932,0.571788,-0.204843,5.198751,6.363261,-3.358362,0.095439,0.998028,0.055502,-0.029212,0.002458
699,0.405053,1.005731,9.872332,-0.112619,0.346833,5.626183,6.360356,-3.375963,0.275320,0.998020,0.055523,-0.029278,0.004032
700,0.431174,0.999062,9.811606,-0.240701,1.010162,6.432560,6.342544,-3.375710,0.477919,0.998020,0.055419,-0.029178,0.005792
701,0.495334,1.003795,9.847585,-0.283604,1.417874,7.388883,6.320076,-3.360891,0.711738,0.998021,0.055282,-0.028938,0.007815
702,0.562713,0.969647,9.940951,-0.700160,1.444467,7.315420,6.289116,-3.340386,0.960991,0.998022,0.055074,-0.028642,0.009969
703,0.626837,1.046806,9.881082,1.225100,1.209284,6.298967,6.284458,-3.321263,1.191764,0.998007,0.055090,-0.028364,0.011968
704,0.702652,1.126935,9.881908,1.931880,0.829829,4.276205,6.326713,-3.306875,1.370985,0.997970,0.055501,-0.028148,0.013533
705,0.689706,1.187258,9.889486,2.463078,0.231248,2.057889,6.393792,-3.301010,1.478042,0.997926,0.056111,-0.028037,0.014479
706,0.714789,1.243086,9.882461,3.507864,-0.582455,0.058824,6.491317,-3.310802,1.512500,0.997871,0.056969,-0.028092,0.014807
707,0.682447,1.291354,9.866337,5.253515,-1.106216,-1.542221,6.638950,-3.335953,1.484678,0.997794,0.058250,-0.028306,0.014614
708,0.663360,1.347063,9.829227,5.899026,-1.294495,-2.198438,6.828726,-3.368392,1.417958,0.997696,0.059889,-0.028600,0.014097
709,0.645531,1.345614,9.871083,6.026810,-1.208311,-2.191031,7.032081,-3.400979,1.340166,0.997589,0.061643,-0.028900,0.013488
710,0.597928,1.401873,9.841047,6.704650,-0.902519,-2.187120,7.248850,-3.426816,1.263252,0.997472,0.063513,-0.029142,0.012887
711,0.521777,1.348942,9.751341,6.046638,-0.398606,-2.338755,7.466022,-3.438658,1.185520,0.997355,0.065384,-0.029265,0.012272
712,0.535003,1.298372,9.739649,4.250181,0.053444,-2.538328,7.642516,-3.433680,1.104031,0.997263,0.066899,-0.029250,0.011605
713,0.553691,1.250417,9.754680,2.007290,0.184934,-3.443900,7.752688,-3.416400,1.005576,0.997213,0.067832,-0.029147,0.010766
714,0.508802,1.258896,9.741554,1.513177,0.329904,-4.615467,7.819205,-3.389724,0.873416,0.997192,0.068376,-0.028987,0.009617
715,0.505189,1.148740,9.776812,-0.698571,0.524063,-6.802006,7.843767,-3.349705,0.686514,0.997202,0.068541,-0.028749,0.007973
716,0.556781,1.235699,9.839603,-1.478944,1.069192,-10.783453,7.824091,-3.283482,0.399291,0.997248,0.068296,-0.028345,0.005430
717,0.498158,1.373878,9.922811,-4.178937,0.850708,-14.048531,7.752752,-3.195700,-0.007068,0.997324,0.067576,-0.027825,0.001824
718,0.397426,1.333143,9.864079,-7.857516,1.109939,-14.439637,7.577802,-3.100042,-0.473980,0.997448,0.065944,-0.027264,-0.002338
719,0.308473,1.310352,9.691164,-12.663948,2.067021,-15.239872,7.261478,-2.983779,-0.958350,0.997634,0.063085,-0.026512,-0.006695
720,0.276215,1.318302,9.752257,-17.163223,2.934120,-14.655702,6.788978,-2.840270,-1.443295,0.997878,0.058876,-0.025484,-0.011102
721,0.201306,1.175742,9.775331,-20.700502,2.873520,-11.566759,6.178369,-2.694934,-1.867099,0.998159,0.053486,-0.024356,-0.014998
722,0.177982,1.140597,9.755831,-18.248602,2.818583,-7.330915,5.543185,-2.568657,-2.171084,0.998421,0.047910,-0.023300,-0.017835
723,0.209767,1.355615,9.845439,-8.877119,1.999614,-2.379738,5.097846,-2.473841,-2.324925,0.998592,0.044015,-0.022463,-0.019303
724,0.415837,1.462120,10.036551,5.806639,-0.345373,6.402012,5.043675,-2.452358,-2.255625,0.998628,0.043561,-0.022240,-0.018718
725,0.453794,1.245661,9.898927,22.624523,-3.339725,15.132730,5.502141,-2.546606,-1.903535,0.998481,0.047610,-0.022990,-0.015521
726,0.333361,1.135740,9.853015,30.306896,-4.079925,19.100296,6.358698,-2.728684,-1.348249,0.998124,0.055162,-0.024424,-0.010424
727,0.373898,1.190132,9.848081,31.520702,-3.892535,19.706190,7.358074,-2.937881,-0.721309,0.997602,0.063984,-0.025985,-0.004635
728,0.387584,1.113401,9.855618,27.220327,-3.162660,17.440765,8.305297,-3.138716,-0.123258,0.997002,0.072357,-0.027393,0.000911
729,0.339851,1.081524,9.786862,17.351265,-1.633726,11.636706,9.021872,-3.290694,0.344472,0.996480,0.078703,-0.028387,0.005254
730,0.303131,1.424146,9.820463,6.347569,0.480850,5.303039,9.400853,-3.354814,0.620515,0.996182,0.082068,-0.028730,0.007793
731,0.423967,1.592366,9.813226,2.294558,0.820260,3.541717,9.536186,-3.357623,0.769703,0.996073,0.083281,-0.028636,0.009126
732,0.409083,1.517649,9.753240,1.986382,0.970211,3.539455,9.600433,-3.347788,0.891243,0.996018,0.083870,-0.028457,0.010191
733,0.449856,1.491364,9.693188,1.482947,1.196955,3.073825,9.651566,-3.330606,1.006146,0.995974,0.084342,-0.028218,0.011190
734,0.413386,1.498315,9.705283,0.878423,1.406308,2.775059,9.684932,-3.304203,1.109701,0.995946,0.084656,-0.027909,0.012079
735,0.465407,1.511039,9.735479,0.433305,1.397743,3.115522,9.700782,-3.274662,1.214515,0.995930,0.084817,-0.027573,0.012972
736,0.505532,1.594579,9.756136,0.277930,1.506317,3.357431,9.706114,-3.245133,1.329197,0.995921,0.084888,-0.027231,0.013948
737,0.540135,1.617045,9.779125,-0.515334,1.491407,3.685943,9.695149,-3.215664,1.453524,0.995921,0.084820,-0.026884,0.015005
738,0.551114,1.629299,9.787369,-0.909250,1.341661,3.914178,9.663974,-3.190409,1.586534,0.995932,0.084577,-0.026571,0.016135
739,0.539196,1.618061,9.827909,-0.697399,0.972466,3.784790,9.629803,-3.173885,1.719703,0.995942,0.084309,-0.026334,0.017272
740,0.527462,1.621589,9.831906,-0.100035,0.416564,3.467746,9.609688,-3.171261,1.842936,0.995938,0.084163,-0.026224,0.018337
741,0.511400,1.643187,9.818670,0.308436,-0.148725,2.751326,9.607440,-3.184166,1.946036,0.995920,0.084168,-0.026260,0.019242
742,0.497102,1.642006,9.822149,0.612801,-0.402011,2.066041,9.618456,-3.206627,2.023786,0.995892,0.084285,-0.026397,0.019936
743,0.419831,1.633003,9.810766,0.956440,-0.265090,1.786147,9.641157,-3.228331,2.085321,0.995859,0.084499,-0.026536,0.020492
744,0.414115,1.601954,9.779525,1.312583,-0.360701,2.096662,9.675464,-3.249473,2.147466,0.995817,0.084815,-0.026668,0.021056
745,0.402726,1.571683,9.741792,1.894976,-0.621097,2.848633,9.724446,-3.279490,2.226080,0.995758,0.085263,-0.026861,0.021772
746,0.412940,1.569379,9.733788,2.291875,-0.797998,4.210631,9.787768,-3.322737,2.338211,0.995678,0.085846,-0.027141,0.022793
747,0.442827,1.587153,9.764415,3.499373,-1.045632,5.598307,9.875163,-3.380924,2.494313,0.995564,0.086652,-0.027511,0.024214
748,0.538358,1.644689,9.843739,5.051502,-1.639389,6.441929,10.006325,-3.459649,2.684582,0.995401,0.087851,-0.028021,0.025957
749,0.584470,1.721525,9.837527,6.228141,-1.718798,6.900229,10.181498,-3.553739,2.894090,0.995190,0.089442,-0.028635,0.027892
750,0.576437,1.772289,9.829189,6.083419,-1.290330,7.247251,10.372660,-3.645164,3.117584,0.994956,0.091177,-0.029205,0.029952
751,0.600460,1.731800,9.781158,5.029959,-1.317091,7.041460,10.543303,-3.731117,3.344348,0.994731,0.092736,-0.029723,0.032032
752,0.610853,1.653295,9.709107,2.492999,-1.277748,6.406188,10.654679,-3.814836,3.557163,0.994554,0.093778,-0.030245,0.033975
753,0.659455,1.549754,9.664439,1.123104,-1.268458,5.948383,10.701840,-3.894658,3.752098,0.994430,0.094259,-0.030763,0.035743
754,0.728540,1.637266,9.505462,1.596120,-1.587561,4.420381,10.736091,-3.973552,3.913429,0.994325,0.094621,-0.031304,0.037216
755,0.845066,1.701378,9.602503,-2.056169,-1.957220,2.282478,10.721485,-4.052406,4.012433,0.994278,0.094543,-0.031912,0.038134
756,0.846119,1.686280,9.773189,-3.504632,-2.100772,1.169016,10.625646,-4.129496,4.056569,0.994316,0.093745,-0.032577,0.038552
757,0.796912,1.789348,9.818689,-3.022368,-2.650245,0.127143,10.516365,-4.211286,4.063304,0.994375,0.092821,-0.033318,0.038644
