seq,ax,ay,az,wroll,wpitch,wyaw,roll,pitch,yaw
1,9.823484,-0.073328,-0.005144,-1.192092,0.286446,-0.355971,-94.014107,-89.571129,93.585983
2,9.825576,-0.054066,-0.002738,-0.680884,0.217172,-0.286286,-93.000656,-89.583626,92.541786
3,9.824777,-0.054273,-0.002551,-0.368086,0.160229,-0.187484,-92.196449,-89.591217,91.720085
4,9.831243,-0.044700,-0.010188,-0.213769,0.092932,-0.191821,-91.641747,-89.598465,91.154976
5,9.833900,-0.046363,-0.005737,-0.119457,0.093917,-0.159816,-91.221550,-89.603363,90.729546
6,9.836516,-0.034224,-0.007886,0.219245,0.028137,-0.108348,-90.936378,-89.607826,90.445740
8,9.840017,-0.043592,-0.008766,0.429807,-0.005959,-0.031573,-90.876778,-89.610832,90.397247
9,9.844829,-0.039812,-0.013749,0.393085,-0.016090,-0.058254,-90.920425,-89.612854,90.455162
10,9.841754,-0.047287,-0.009208,0.329090,0.012508,-0.041816,-90.920341,-89.614372,90.467239
11,9.842883,-0.047291,-0.012803,0.249671,0.000512,-0.060823,-90.882782,-89.615898,90.438843
12,9.838602,-0.057273,-0.013702,0.156575,0.017571,-0.061362,-90.834373,-89.616913,90.397263
13,9.835912,-0.053945,-0.013276,-0.008217,0.043046,-0.108140,-90.686264,-89.619995,90.252068
15,9.832318,-0.057366,-0.010080,-0.073769,0.064039,-0.116540,-90.422928,-89.624138,89.987534
16,9.830692,-0.054936,-0.007705,-0.037105,0.076167,-0.103410,-90.071358,-89.627274,89.632721
17,9.830723,-0.053217,-0.011565,0.025379,0.065286,-0.102008,-89.705574,-89.630966,89.267624
18,9.836093,-0.048767,-0.005813,0.045321,0.102240,-0.105713,-89.265556,-89.634697,88.828270
19,9.838958,-0.046858,-0.006850,0.046821,0.120715,-0.108055,-88.669067,-89.638466,88.233940
20,9.840422,-0.037421,-0.009616,0.109330,0.121484,-0.123085,-88.008240,-89.642273,87.575508
22,9.841905,-0.041345,-0.008857,0.121543,0.130828,-0.134168,-87.301674,-89.646675,86.872528
23,9.838048,-0.041985,-0.006757,0.097158,0.128712,-0.134691,-86.557816,-89.651131,86.132103
24,9.836150,-0.044574,-0.005580,0.101746,0.122336,-0.126412,-85.821083,-89.655083,85.399048
25,9.835460,-0.042345,-0.001380,0.117074,0.123309,-0.135297,-85.079933,-89.659081,84.661659
26,9.838033,-0.051454,0.003869,0.126298,0.136536,-0.095941,-84.290138,-89.661957,83.875771
27,9.835904,-0.056016,0.006372,0.048500,0.141650,-0.071539,-83.454620,-89.665451,83.043205
29,9.837309,-0.060133,0.012914,0.101995,0.182785,-0.035287,-82.499992,-89.665451,82.090477
30,9.835901,-0.056015,0.006613,0.112562,0.158675,-0.040261,-81.502159,-89.664864,81.096954
31,9.836402,-0.054051,0.003123,0.117070,0.124293,-0.049936,-80.661232,-89.664864,80.260086
32,9.832698,-0.056901,0.005110,0.149126,0.104828,-0.046924,-79.964622,-89.666039,79.567451
33,9.836206,-0.048354,0.002745,0.254389,0.092962,-0.066488,-79.342583,-89.668976,78.952095
34,9.837989,-0.048312,0.003862,0.187258,0.100650,-0.090102,-78.701256,-89.671349,78.318466
36,9.841990,-0.049008,0.009841,0.214813,0.137776,-0.083773,-77.916000,-89.673744,77.539513
37,9.840743,-0.056811,0.012608,0.243812,0.198764,-0.047379,-76.867294,-89.672546,76.498055
38,9.842628,-0.057220,0.015415,0.237734,0.248354,-0.029863,-75.539032,-89.672546,75.178108
39,9.840512,-0.051096,0.014760,0.220941,0.245761,-0.030221,-74.099342,-89.671944,73.746490
40,9.839227,-0.050444,0.011723,0.234607,0.215999,-0.017860,-72.769402,-89.670753,72.423714
41,9.837783,-0.054227,0.007366,0.181090,0.162824,-0.012519,-71.695328,-89.668976,71.356529
43,9.837156,-0.054341,0.009404,0.170422,0.122858,0.000289,-70.901459,-89.667801,70.568069
44,9.842755,-0.047400,0.004911,0.168850,0.067696,-0.029050,-70.352654,-89.667206,70.025520
45,9.848220,-0.057386,0.009973,0.170391,0.070126,-0.007464,-69.940620,-89.666618,69.619087
46,9.845667,-0.054065,0.009196,0.178021,0.052975,-0.015248,-69.582901,-89.666618,69.267212
47,9.843518,-0.055265,0.009762,0.187173,0.055112,-0.010000,-69.261612,-89.666039,68.951775
48,9.845956,-0.049285,0.009432,0.158206,0.054753,-0.037904,-68.914307,-89.666618,68.610527
50,9.838048,-0.056139,0.016052,0.136902,0.079223,-0.012848,-68.500793,-89.666618,68.201851
51,9.832522,-0.051152,0.011843,0.100236,0.075011,-0.032961,-68.039597,-89.666039,67.744354
52,9.830812,-0.050128,0.013136,0.056004,0.086644,-0.044688,-67.525696,-89.666039,67.233017
53,9.831141,-0.050568,0.015794,-0.024839,0.096086,-0.051917,-66.937096,-89.666039,66.644814
54,9.829686,-0.048277,0.014557,-0.096572,0.081808,-0.071499,-66.332680,-89.667206,66.038414
55,9.836985,-0.044896,0.012151,-0.113380,0.067188,-0.095683,-65.749992,-89.668976,65.452347
57,9.838060,-0.043719,0.011204,-0.087452,0.032676,-0.094683,-65.262947,-89.670753,64.962105
58,9.837931,-0.044641,0.012771,-0.015722,0.030312,-0.076681,-64.889412,-89.673744,64.586967
59,9.841136,-0.042716,0.013066,0.072795,0.032163,-0.065642,-64.545456,-89.674942,64.243904
60,9.842614,-0.055134,0.014205,0.124602,0.041053,-0.011546,-64.250359,-89.674942,63.952141
61,9.838609,-0.056747,0.010882,0.110804,0.020095,-0.012241,-64.055206,-89.675545,63.760654
62,9.833945,-0.059036,0.012369,0.066554,0.030028,-0.014447,-63.886276,-89.675545,63.594635
64,9.835555,-0.056891,0.015045,0.043718,0.055702,-0.026600,-63.605068,-89.675545,63.315388
65,9.830573,-0.053831,0.016755,0.025450,0.041675,-0.033563,-63.269268,-89.674942,62.980633
66,9.827072,-0.049146,0.013789,0.016279,0.012394,-0.055817,-63.007435,-89.675545,62.719368
67,9.827809,-0.044227,0.016081,0.005666,0.021669,-0.070946,-62.746346,-89.677963,62.458836
68,9.835593,-0.044654,0.017067,0.017881,0.027272,-0.067222,-62.429115,-89.679794,62.142021
69,9.842133,-0.045836,0.013573,-0.000493,0.004454,-0.074924,-62.146915,-89.681633,61.860165
71,9.843313,-0.043031,0.012021,0.013237,0.011872,-0.088021,-61.873817,-89.683479,61.587124
72,9.843608,-0.039757,0.013345,0.040744,0.023217,-0.096195,-61.515015,-89.685966,61.229343
73,9.837390,-0.048725,0.012770,0.072708,0.025850,-0.051685,-61.165585,-89.686592,60.881672
74,9.832171,-0.048791,0.017376,0.059035,0.044981,-0.057812,-60.811924,-89.688469,60.530365
75,9.827915,-0.052830,0.017187,0.052893,0.030125,-0.029803,-60.478191,-89.689095,60.198124
76,9.831174,-0.053242,0.016042,0.020825,0.010884,-0.032499,-60.272694,-89.689728,59.994305
78,9.831901,-0.046584,0.017366,0.001056,0.012868,-0.036129,-60.104572,-89.690353,59.826473
79,9.841153,-0.040814,0.018485,-0.011093,0.011303,-0.054007,-59.900726,-89.691620,59.622505
80,9.844104,-0.043800,0.016255,0.016317,0.000016,-0.040024,-59.723881,-89.693535,59.445557
81,9.843759,-0.045663,0.017097,0.036150,0.010002,-0.039918,-59.569851,-89.694176,59.292358
82,9.844502,-0.049129,0.018805,0.066661,0.025563,-0.027649,-59.364754,-89.694809,59.089027
83,9.846035,-0.054117,0.017157,0.101693,0.015882,-0.023274,-59.169758,-89.696098,58.896858
85,9.840643,-0.060752,0.015145,0.115345,0.012753,0.001132,-59.054001,-89.695457,58.784527
86,9.839572,-0.058812,0.012591,0.122955,0.009652,0.004849,-58.998833,-89.696098,58.733776
87,9.839047,-0.055216,0.012212,0.112296,0.011405,0.001973,-58.950058,-89.696098,58.688877
88,9.835090,-0.061013,0.009622,0.087799,0.005219,0.021923,-58.941074,-89.694809,58.683254
89,9.833371,-0.058945,0.010430,0.054255,0.022691,0.006580,-58.910820,-89.694809,58.655067
90,9.834101,-0.051826,0.011030,0.040586,0.013518,-0.023561,-58.784283,-89.693535,58.530392
92,9.832432,-0.047410,0.014485,0.010147,0.027866,-0.036258,-58.576572,-89.694176,58.323292
93,9.830454,-0.048864,0.011680,0.003993,0.023929,-0.045226,-58.305614,-89.694176,58.052528
94,9.832202,-0.048459,0.014844,-0.005120,0.035762,-0.051856,-57.987469,-89.695457,57.734325
95,9.830174,-0.049774,0.015413,0.017761,0.021673,-0.044134,-57.675301,-89.696739,57.422176
96,9.828572,-0.055621,0.015879,0.022293,0.022561,-0.026268,-57.438370,-89.698036,57.186245
97,9.831274,-0.056759,0.012436,0.029866,0.002988,-0.030039,-57.273407,-89.697388,57.021965
99,9.835361,-0.051542,0.014909,0.049776,0.011487,-0.038728,-57.117317,-89.699333,56.867092
100,9.833671,-0.047985,0.012219,0.068081,0.006586,-0.043912,-56.923641,-89.699989,56.675766
101,9.838302,-0.046720,0.014108,0.055906,0.016491,-0.040866,-56.713482,-89.701294,56.467430
102,9.836662,-0.040584,0.013703,0.051372,0.019700,-0.047322,-56.460575,-89.701950,56.216240
103,9.837998,-0.041955,0.013851,0.057464,0.018295,-0.042609,-56.198135,-89.702606,55.955521
104,9.835238,-0.042698,0.014887,0.048314,0.016425,-0.028976,-55.976917,-89.703926,55.736225
106,9.839053,-0.041114,0.014712,0.045271,-0.004231,-0.025408,-55.842525,-89.702606,55.603359
107,9.837477,-0.049054,0.015424,0.039107,-0.003782,0.007344,-55.830177,-89.703262,55.592346
108,9.839540,-0.050184,0.014740,0.039089,0.000382,0.012283,-55.873947,-89.703262,55.637291
109,9.836597,-0.049743,0.019025,0.033043,0.017480,0.016984,-55.877815,-89.702606,55.642399
110,9.836879,-0.050568,0.016862,0.026904,0.015606,0.020666,-55.857136,-89.701950,55.622986
111,9.835819,-0.053140,0.018054,0.025372,0.034067,0.017179,-55.793140,-89.701294,55.559673
113,9.834914,-0.044572,0.014162,0.034549,0.019268,-0.018759,-55.649624,-89.700638,55.416992
114,9.834531,-0.045260,0.016567,0.048305,0.027354,-0.021313,-55.453651,-89.701294,55.222652
115,9.841959,-0.044194,0.015735,0.045249,0.026032,-0.037913,-55.204388,-89.701294,54.974880
116,9.842731,-0.040448,0.016705,0.040714,0.020772,-0.060537,-54.900303,-89.701950,54.672379
117,9.840010,-0.039300,0.021595,0.037729,0.037682,-0.058447,-54.525650,-89.703262,54.299072
118,9.841405,-0.046825,0.023685,0.025478,0.046320,-0.046246,-54.110161,-89.703926,53.884464
120,9.841884,-0.045082,0.022003,0.016311,0.036142,-0.058081,-53.696480,-89.704590,53.471554
121,9.836759,-0.051032,0.017343,0.029931,0.017338,-0.026082,-53.395439,-89.703926,53.170990
122,9.839444,-0.054473,0.017399,0.045156,0.020093,-0.018454,-53.211269,-89.704590,52.988411
123,9.848066,-0.051533,0.015019,0.046678,-0.000921,-0.028297,-53.069584,-89.705917,52.847866
124,9.845006,-0.049016,0.017006,0.042145,0.006236,-0.018398,-52.963150,-89.705917,52.743092
125,9.844020,-0.046709,0.016622,0.036056,0.006602,-0.017076,-52.859276,-89.706581,52.640400
127,9.843304,-0.050307,0.019991,0.022330,0.020876,-0.009349,-52.735443,-89.707245,52.517723
128,9.842880,-0.055081,0.020838,0.019243,0.012431,0.001721,-52.632851,-89.706581,52.415840
129,9.835787,-0.053933,0.021188,0.032989,0.023896,-0.006020,-52.529541,-89.706581,52.313335
130,9.837955,-0.053782,0.020263,0.051288,0.026986,-0.011034,-52.363697,-89.705917,52.148903
131,9.839647,-0.062255,0.019228,0.060352,0.026590,0.006121,-52.214226,-89.704590,52.001652
132,9.839952,-0.054940,0.015843,0.066479,0.019335,-0.009033,-52.089474,-89.704590,51.879234
134,9.841200,-0.050721,0.016580,0.069577,0.031767,-0.019780,-51.899963,-89.704590,51.691883
135,9.841642,-0.054915,0.014910,0.074094,0.026475,-0.007335,-51.695309,-89.703926,51.489449
136,9.842993,-0.055367,0.013128,0.080169,0.013162,-0.001235,-51.576180,-89.704590,51.372780
137,9.843174,-0.053139,0.015054,0.075633,0.012325,-0.001543,-51.503975,-89.704590,51.303108
138,9.837798,-0.053365,0.013993,0.092402,0.012096,-0.006876,-51.423065,-89.705246,51.224758
139,9.837438,-0.059441,0.011590,0.084686,0.003366,0.013949,-51.395409,-89.704590,51.200371
141,9.835499,-0.050392,0.012498,0.045107,0.002830,-0.015478,-51.374001,-89.704590,51.181332
142,9.834016,-0.050282,0.015605,0.019203,0.016406,-0.024916,-51.242451,-89.703926,51.050381
143,9.837767,-0.046470,0.017834,0.045205,0.030345,-0.032682,-51.008018,-89.704590,50.817429
144,9.841117,-0.047444,0.019222,0.017743,0.032453,-0.027885,-50.727249,-89.705246,50.537590
145,9.838008,-0.040743,0.020477,0.011714,0.041699,-0.040744,-50.401398,-89.704590,50.212387
146,9.841090,-0.057430,0.022618,0.045144,0.056452,0.011418,-50.097649,-89.703926,49.909298
147,9.842202,-0.055231,0.018054,0.049686,0.043867,-0.002385,-49.868816,-89.703262,49.682194
148,9.837717,-0.050667,0.016998,0.028350,0.036927,-0.015675,-49.632755,-89.702606,49.447029
149,9.839369,-0.050392,0.018595,0.046679,0.030210,-0.017872,-49.398327,-89.701950,49.213860
150,9.839816,-0.061583,0.015132,0.049577,0.014985,0.004301,-49.259296,-89.701294,49.076397
151,9.839411,-0.049488,0.014737,0.039009,0.005829,-0.024686,-49.164715,-89.701294,48.983776
152,9.837472,-0.048127,0.014819,0.039022,-0.004783,-0.014715,-49.078365,-89.700638,48.898674
153,9.838134,-0.052075,0.014358,0.031347,-0.010716,-0.002898,-49.077610,-89.701294,48.899277
154,9.835684,-0.055045,0.012512,0.026719,-0.005274,0.010517,-49.131813,-89.701950,48.954453
155,9.837735,-0.043335,0.016862,0.029939,0.012094,-0.026729,-49.080078,-89.701950,48.903496
156,9.836094,-0.043038,0.013939,0.022277,0.012688,-0.041170,-48.876923,-89.702606,48.701199
157,9.835328,-0.049677,0.015386,0.032907,0.016698,-0.028885,-48.657494,-89.703926,48.482635
158,9.836916,-0.048968,0.012641,0.051192,0.017607,-0.031914,-48.444450,-89.704590,48.270744
160,9.836339,-0.046734,0.017326,0.049740,0.027912,-0.044007,-48.170685,-89.705246,47.998653
161,9.830209,-0.045916,0.017695,0.055853,0.024059,-0.033462,-47.878002,-89.705917,47.707676
162,9.827879,-0.045934,0.021389,0.078779,0.020671,-0.014418,-47.663902,-89.703926,47.495724
163,9.828002,-0.043621,0.018855,0.092506,0.025113,-0.007026,-47.505123,-89.703926,47.340530
164,9.827318,-0.049083,0.021868,0.101637,0.027410,0.010614,-47.385017,-89.703926,47.223385
165,9.827738,-0.051186,0.019711,0.118374,0.014572,0.022818,-47.354843,-89.703926,47.197052
166,9.830818,-0.056833,0.019418,0.118312,0.005712,0.037428,-47.432961,-89.701950,47.278816
167,9.832175,-0.064631,0.015964,0.095304,0.001568,0.050474,-47.602043,-89.701950,47.451519
168,9.834098,-0.067024,0.018053,0.089200,0.001473,0.058208,-47.824432,-89.699989,47.676929
169,9.836568,-0.059674,0.013984,0.072446,-0.021102,0.037380,-48.070766,-89.698685,47.926014
170,9.834340,-0.067484,0.018300,0.055632,-0.009890,0.057852,-48.342052,-89.698036,48.199295
171,9.836380,-0.065597,0.016284,0.048003,-0.018570,0.050000,-48.631954,-89.696098,48.491066
172,9.839893,-0.066298,0.022857,0.061808,0.006886,0.049551,-48.864075,-89.694809,48.724564
173,9.841014,-0.060574,0.022744,0.049660,0.002069,0.025936,-48.996056,-89.694176,48.858738
174,9.838341,-0.059913,0.024622,0.048164,0.015106,0.017330,-49.042313,-89.693535,48.906906
175,9.842241,-0.051837,0.020457,0.048198,0.008914,-0.000499,-49.018681,-89.692894,48.884537
176,9.839479,-0.052580,0.021493,0.020734,0.022424,0.004621,-48.952648,-89.692261,48.819977
177,9.838037,-0.051973,0.012668,0.019109,-0.012682,0.004370,-48.947189,-89.692261,48.815331
178,9.832575,-0.057072,0.014027,0.011442,-0.013362,0.011606,-49.040394,-89.691620,48.908844
179,9.835760,-0.061900,0.013975,-0.003866,-0.007206,0.023955,-49.160568,-89.692261,49.028790
180,9.836513,-0.057682,0.015907,-0.000746,0.001637,0.008309,-49.239380,-89.692894,49.107738
181,9.838573,-0.055283,0.020398,0.037481,0.010173,0.007124,-49.241966,-89.692261,49.110664
182,9.840678,-0.049030,0.026449,0.037616,0.029199,-0.000560,-49.162155,-89.692261,49.032387
183,9.845184,-0.043374,0.024228,0.042225,0.026950,-0.018661,-48.990845,-89.690987,48.862499
184,9.846250,-0.046351,0.028231,0.055972,0.030489,-0.012903,-48.790955,-89.689728,48.664108
185,9.843746,-0.048370,0.029275,0.068167,0.028487,-0.006727,-48.612644,-89.689728,48.488018
186,9.844451,-0.048641,0.022057,0.057395,0.002405,-0.017989,-48.489517,-89.689728,48.366627
187,9.841920,-0.052210,0.018042,0.049680,-0.012576,-0.022613,-48.428932,-89.690353,48.308044
188,9.840929,-0.052674,0.020797,0.064966,0.000105,-0.016328,-48.376194,-89.691620,48.257381
189,9.835907,-0.049424,0.016601,0.068002,-0.004352,-0.019284,-48.310535,-89.691620,48.193478
190,9.836851,-0.052811,0.012528,0.043504,-0.017712,-0.022866,-48.272583,-89.692894,48.157574
191,9.833214,-0.058236,0.012354,0.043446,-0.007344,-0.005124,-48.272503,-89.694176,48.158955
192,9.834163,-0.059831,0.014664,0.052612,0.004166,0.004319,-48.275837,-89.694176,48.164421
193,9.833723,-0.059512,0.011522,0.046476,-0.012593,0.001882,-48.306011,-89.693535,48.195831
194,9.836085,-0.065982,0.012061,0.044889,-0.015544,0.031315,-48.438194,-89.693535,48.329788
195,9.842569,-0.065056,0.010369,0.035726,-0.021786,0.031271,-48.652218,-89.692894,48.544678
196,9.848252,-0.058788,0.009133,0.035779,-0.023568,0.004782,-48.830761,-89.692894,48.724850
197,9.845804,-0.055573,0.009443,0.026662,-0.032962,-0.000251,-48.972038,-89.694176,48.866600
198,9.846961,-0.057033,0.013927,0.009917,-0.011821,0.010045,-49.096287,-89.693535,48.992115
199,9.843958,-0.047664,0.013490,0.003907,-0.021867,-0.034034,-49.125957,-89.694176,49.021782
200,9.837652,-0.042084,0.013001,0.032951,-0.006201,-0.042365,-49.035519,-89.695457,48.931759
201,9.835439,-0.040133,0.015006,0.036047,-0.013850,-0.032122,-48.928589,-89.696739,48.825981
202,9.834406,-0.041331,0.012941,0.061950,-0.013593,-0.038679,-48.845840,-89.698036,48.744614
203,9.836327,-0.045864,0.008767,0.083219,-0.013325,-0.024908,-48.775707,-89.699333,48.677216
204,9.836542,-0.045963,0.010579,0.090869,0.005910,-0.014933,-48.707687,-89.699989,48.612251
205,9.840225,-0.039229,0.014729,0.069622,0.008881,-0.029672,-48.575184,-89.699333,48.482212
206,9.843096,-0.040905,0.016833,0.060473,0.014862,-0.027503,-48.395969,-89.699989,48.305191
207,9.845054,-0.036552,0.018185,0.039168,0.020111,-0.032084,-48.184998,-89.701294,48.096195
208,9.841681,-0.035914,0.018604,0.049859,0.001216,-0.036456,-47.986553,-89.701294,47.899136
209,9.845945,-0.041416,0.019297,0.069645,-0.009178,-0.024498,-47.872963,-89.702606,47.787189
210,9.843169,-0.046951,0.017692,0.092461,-0.030555,-0.027680,-47.853020,-89.703262,47.770233
211,9.837473,-0.044715,0.019873,0.094033,-0.022322,-0.035199,-47.839962,-89.704590,47.760326
212,9.838347,-0.047952,0.020619,0.075699,-0.021246,-0.031360,-47.796719,-89.705917,47.719612
213,9.839776,-0.048036,0.021369,0.057395,-0.009560,-0.032102,-47.729511,-89.707245,47.654682
214,9.833896,-0.045138,0.018966,0.019250,-0.007114,-0.050609,-47.586590,-89.708588,47.513069
215,9.839296,-0.054924,0.019808,0.006954,0.010701,-0.018446,-47.424141,-89.708588,47.351109
216,9.840817,-0.057595,0.016588,0.002312,0.002814,-0.010119,-47.328419,-89.708588,47.255363
217,9.841104,-0.060503,0.016238,0.026693,-0.002895,0.003156,-47.312202,-89.708588,47.239845
218,9.842986,-0.057560,0.015783,0.028243,-0.010332,-0.008434,-47.333691,-89.710609,47.262226
219,9.844902,-0.059719,0.018113,0.045032,-0.003450,0.011593,-47.371868,-89.709930,47.301472
220,9.836644,-0.047917,0.013839,0.051208,-0.012689,-0.008922,-47.415768,-89.710609,47.347107
221,9.838882,-0.045890,0.014599,0.054291,-0.011879,-0.010297,-47.430275,-89.711288,47.363361
222,9.840255,-0.046354,0.011250,0.026783,-0.013804,-0.011854,-47.441467,-89.711288,47.376102
223,9.834754,-0.048544,0.012481,0.019146,-0.000835,0.010047,-47.471485,-89.710609,47.406967
224,9.833933,-0.047760,0.010415,-0.002231,-0.005205,0.001687,-47.512024,-89.710609,47.447662
225,9.840057,-0.055107,0.008494,-0.052681,-0.010767,0.007633,-47.573174,-89.710609,47.507927
226,9.834586,-0.059277,0.009609,-0.042027,0.001788,0.016738,-47.651649,-89.710609,47.584251
227,9.836122,-0.058890,0.010841,0.000717,0.010027,0.024534,-47.714615,-89.709930,47.646526
228,9.837708,-0.053613,0.012063,0.028248,0.008904,-0.014094,-47.690121,-89.709259,47.623280
229,9.837621,-0.048601,0.013256,0.064933,0.006116,-0.028774,-47.557407,-89.709259,47.491650
230,9.833692,-0.048512,0.019813,0.130619,0.017475,-0.013358,-47.402836,-89.710609,47.340439
231,9.838306,-0.049033,0.016041,0.119889,0.000157,-0.025283,-47.269794,-89.711288,47.211205
232,9.839297,-0.044116,0.017374,0.107745,0.000825,-0.054543,-47.083683,-89.711967,47.029140
233,9.838318,-0.053260,0.010989,0.072487,-0.011674,-0.027234,-46.922611,-89.713326,46.871265
234,9.839127,-0.057566,0.008964,0.048007,-0.015961,-0.009445,-46.904526,-89.714012,46.855537
235,9.842115,-0.061149,0.004567,0.032667,-0.022435,-0.004862,-46.964214,-89.714691,46.916325
236,9.841465,-0.059633,0.006722,0.044913,-0.008212,0.013748,-47.058495,-89.714691,47.011726
237,9.835114,-0.060101,0.006969,0.028129,-0.008752,0.031936,-47.202415,-89.714012,47.156803
238,9.840502,-0.055197,0.011033,0.032799,-0.002898,0.030919,-47.372776,-89.714012,47.328255
239,9.839218,-0.052927,0.006305,0.052610,-0.008933,0.031439,-47.540573,-89.713326,47.497322
240,9.839641,-0.045665,0.011599,0.049687,-0.001056,0.009772,-47.655739,-89.712646,47.614346
241,9.838119,-0.041375,0.013249,0.052799,-0.005323,-0.016774,-47.654392,-89.712646,47.614765
242,9.837996,-0.039180,0.011193,0.077214,-0.009729,-0.026155,-47.593433,-89.714691,47.556229
243,9.833946,-0.041928,0.012090,0.097033,-0.003932,-0.017741,-47.525116,-89.714691,47.490681
244,9.834532,-0.045723,0.016930,0.077211,0.008748,-0.020056,-47.424335,-89.714691,47.392685
245,9.830240,-0.050731,0.011681,0.075579,-0.000470,-0.003558,-47.347530,-89.714691,47.318527
246,9.835204,-0.055978,0.013470,0.067917,0.006176,0.014903,-47.357517,-89.714691,47.330635
247,9.835458,-0.058061,0.014563,0.052648,0.000154,0.019350,-47.417423,-89.714012,47.392506
248,9.837739,-0.051371,0.016157,0.034419,-0.002902,-0.000452,-47.464928,-89.714012,47.441704
249,9.840224,-0.046339,0.013419,0.043596,-0.001712,-0.009190,-47.453163,-89.714012,47.431530
250,9.841831,-0.038469,0.019095,0.057468,0.019418,-0.027460,-47.325279,-89.714012,47.304890
251,9.837949,-0.042046,0.017466,0.075725,0.013021,-0.016691,-47.143730,-89.713326,47.125832
252,9.844266,-0.039251,0.017213,0.062015,0.011980,-0.026058,-46.983150,-89.715378,46.967789
253,9.844329,-0.035060,0.017084,0.049847,0.017495,-0.056205,-46.721355,-89.714691,46.707314
254,9.843541,-0.032960,0.019837,0.045316,0.005426,-0.063146,-46.388973,-89.716759,46.376614
255,9.841661,-0.037352,0.012943,0.026886,-0.020926,-0.063080,-46.130764,-89.718147,46.119411
256,9.840466,-0.030151,0.013990,0.019338,-0.010117,-0.072294,-45.886536,-89.720932,45.875992
257,9.831265,-0.030162,0.020452,0.030085,0.012061,-0.071051,-45.538265,-89.722343,45.529064
258,9.830058,-0.036482,0.018877,0.055945,-0.003222,-0.033115,-45.264561,-89.724464,45.256527
259,9.827908,-0.041380,0.023308,0.037627,0.015735,-0.022522,-45.096497,-89.724464,45.090221
260,9.828699,-0.037180,0.022469,0.030029,0.010124,-0.022099,-44.922981,-89.723755,44.917755
261,9.831223,-0.033554,0.018289,0.019341,-0.014499,-0.030794,-44.803921,-89.725891,44.799099
263,9.834393,-0.037280,0.009798,0.022271,-0.037690,-0.024106,-44.795654,-89.725891,44.791672
264,9.834512,-0.040629,0.013182,0.019221,-0.010613,-0.018472,-44.807266,-89.727318,44.804127
265,9.839685,-0.038345,0.009535,0.055831,-0.020850,-0.021775,-44.782990,-89.727318,44.780983
266,9.842976,-0.047787,0.015280,0.066477,0.005277,0.010583,-44.792576,-89.728035,44.792606
267,9.843365,-0.054613,0.020002,0.060352,0.035929,0.015281,-44.752205,-89.727318,44.754311
268,9.843724,-0.055068,0.020491,0.058825,0.044630,0.020964,-44.644016,-89.726601,44.648125
269,9.844810,-0.050660,0.015560,0.054239,0.026550,0.018503,-44.565292,-89.724464,44.571346
270,9.840034,-0.050065,0.013664,0.035913,0.020456,0.013465,-44.529007,-89.725174,44.536808
271,9.835823,-0.045861,0.010445,0.049655,0.009176,-0.006611,-44.472336,-89.723045,44.481350
272,9.833934,-0.045218,0.007758,0.061841,-0.006522,-0.017668,-44.404213,-89.723045,44.414684
273,9.834656,-0.043934,0.006323,0.064891,-0.027517,-0.022738,-44.385109,-89.725174,44.398163
274,9.832913,-0.040583,0.007489,0.067990,-0.032990,-0.029086,-44.400715,-89.725174,44.415928
275,9.831992,-0.045127,0.009410,0.067965,-0.031467,-0.009295,-44.460495,-89.725891,44.477886
276,9.835913,-0.042608,0.009355,0.063414,-0.034156,-0.017888,-44.552876,-89.728760,44.572411
277,9.837873,-0.052015,0.007242,0.064828,-0.036718,0.024970,-44.742886,-89.729477,44.764500
278,9.838123,-0.053171,0.007731,0.073981,-0.024027,0.025225,-45.015759,-89.729477,45.040016
279,9.841564,-0.060198,0.008773,0.066296,-0.017448,0.029950,-45.253071,-89.728760,45.279964
280,9.845775,-0.054750,0.010766,0.070948,-0.005217,0.002888,-45.389404,-89.729477,45.417904
281,9.842340,-0.058071,0.011193,0.054136,-0.009880,0.012339,-45.463360,-89.729477,45.493896
282,9.843393,-0.050466,0.013847,0.043556,-0.011190,-0.022143,-45.489754,-89.729477,45.522129
283,9.842203,-0.050724,0.013464,0.031343,-0.015182,-0.004505,-45.489223,-89.730202,45.522766
284,9.838777,-0.045553,0.013270,0.046650,-0.013990,-0.008603,-45.528389,-89.730202,45.563107
285,9.833574,-0.050310,0.012945,0.052706,-0.011623,0.006962,-45.587124,-89.730934,45.623688
286,9.835214,-0.045059,0.010433,0.052733,-0.012632,0.000816,-45.667175,-89.730934,45.705105
287,9.835877,-0.042476,0.011765,0.054298,-0.002448,0.006955,-45.722897,-89.730934,45.763237
288,9.838394,-0.047282,0.016642,0.052774,0.016443,0.016277,-45.742020,-89.729477,45.784225
289,9.837000,-0.045828,0.012034,0.016120,0.010542,-0.001861,-45.708607,-89.729477,45.751865
290,9.835962,-0.045637,0.008881,-0.005273,0.007237,0.008159,-45.678524,-89.729477,45.721863
291,9.832299,-0.045673,0.013635,0.011559,0.011794,0.014366,-45.685879,-89.729477,45.729225
292,9.825263,-0.042703,0.008077,0.011532,-0.004543,0.002562,-45.708187,-89.728035,45.752201
293,9.822877,-0.039056,0.003567,0.009995,-0.026906,-0.023443,-45.735695,-89.728760,45.779926
294,9.828753,-0.044031,0.008505,0.026782,-0.032095,-0.005785,-45.812176,-89.730202,45.857281
295,9.830800,-0.045731,0.009510,0.035934,-0.042418,-0.000613,-45.985626,-89.731659,46.031254
296,9.836157,-0.055033,0.013003,0.034357,-0.028587,0.014253,-46.199089,-89.732391,46.245773
297,9.841314,-0.058750,0.016599,0.037413,-0.017550,0.026403,-46.415951,-89.732391,46.464180
298,9.844155,-0.059718,0.020148,0.028286,-0.002279,0.034937,-46.616188,-89.732391,46.665855
299,9.838553,-0.052615,0.019187,0.034449,0.002750,0.023001,-46.755054,-89.732391,46.805614
300,9.839458,-0.049450,0.019920,0.045168,-0.001231,0.014817,-46.839687,-89.730202,46.891312
301,9.841910,-0.047583,0.014055,0.049706,-0.003071,0.015137,-46.921856,-89.730202,46.974678
302,9.839988,-0.048310,0.015106,0.061918,0.006129,0.018560,-46.994213,-89.730934,47.049404
303,9.842154,-0.047580,0.013818,0.071067,0.000817,0.013074,-47.049606,-89.730202,47.106800
304,9.844213,-0.053969,0.010134,0.070970,-0.002345,0.020696,-47.132004,-89.730202,47.191792
305,9.845851,-0.055134,0.005707,0.064810,-0.004540,0.028360,-47.263813,-89.728760,47.326092
306,9.843746,-0.048899,0.004209,0.038914,-0.014947,-0.005415,-47.366695,-89.728760,47.430237
307,9.844760,-0.048038,0.007961,0.028279,-0.000821,-0.009650,-47.370583,-89.729477,47.435741
308,9.841851,-0.043916,0.006091,0.016092,-0.003076,-0.019953,-47.309814,-89.730202,47.375401
309,9.843837,-0.039284,0.013710,0.025369,0.013022,-0.022529,-47.182594,-89.730202,47.248623
310,9.840968,-0.043850,0.017645,0.026891,0.024405,-0.016479,-46.991386,-89.729477,47.058460
311,9.839130,-0.042940,0.019538,0.045228,0.018931,-0.001993,-46.834705,-89.730202,46.902924
312,9.837349,-0.039746,0.015160,0.025375,-0.009431,-0.017219,-46.762100,-89.730202,46.831455
313,9.836485,-0.045126,0.013830,0.052776,-0.007278,0.013881,-46.796566,-89.730202,46.867069
314,9.830597,-0.053380,0.014585,0.060336,-0.007965,0.036516,-46.953300,-89.728035,47.026104
315,9.836045,-0.050817,0.016727,0.057331,-0.006208,0.028548,-47.144001,-89.728035,47.218552
316,9.838238,-0.056225,0.019671,0.049683,-0.002109,0.037619,-47.321751,-89.728035,47.397957
317,9.841909,-0.053591,0.020214,0.074130,-0.000484,0.050706,-47.535362,-89.727318,47.613789
318,9.842972,-0.051136,0.018902,0.068037,-0.018023,0.030605,-47.770878,-89.725891,47.851673
319,9.844515,-0.050814,0.011096,0.045073,-0.034491,0.024392,-48.032452,-89.725891,48.114948
320,9.837766,-0.054565,0.008933,0.051120,-0.043389,0.039539,-48.380585,-89.726601,48.464615
321,9.835401,-0.056707,0.008775,0.051103,-0.030991,0.048338,-48.775146,-89.726601,48.861183
322,9.835401,-0.060465,0.004083,0.038816,-0.042515,0.032613,-49.149502,-89.725174,49.236942
323,9.837935,-0.060712,0.011601,0.031269,-0.010862,0.028037,-49.426342,-89.725891,49.514568
324,9.836049,-0.056311,0.013486,0.042013,0.001182,0.019327,-49.556175,-89.725174,49.646347
325,9.837568,-0.053490,0.013387,0.042039,0.011648,0.010694,-49.587852,-89.723755,49.679028
326,9.839868,-0.049875,0.008238,0.049646,-0.004988,0.004464,-49.603363,-89.723755,49.696190
327,9.836907,-0.051105,0.006861,0.064878,-0.002947,0.017121,-49.669655,-89.723045,49.764809
328,9.831803,-0.052960,0.005085,0.064842,-0.008046,0.028530,-49.799553,-89.724464,49.896488
329,9.835523,-0.047977,0.008396,0.054243,0.001676,0.004426,-49.886425,-89.723755,49.985657
330,9.840462,-0.043560,0.010765,0.051257,0.002506,-0.013352,-49.854046,-89.722343,49.954590
331,9.839599,-0.044719,0.013645,0.061960,0.012382,-0.029727,-49.717106,-89.723045,49.819706
332,9.842492,-0.042995,0.019237,0.052879,0.023942,-0.040525,-49.462963,-89.723755,49.567776
333,9.844475,-0.038769,0.018902,0.051385,0.018072,-0.052259,-49.142006,-89.725174,49.248543
334,9.843976,-0.045417,0.018426,0.060472,0.013282,-0.018398,-48.897655,-89.725174,49.005337
335,9.839381,-0.041554,0.017370,0.054390,0.009970,-0.036621,-48.708488,-89.725174,48.818344
336,9.836880,-0.037503,0.020690,0.045305,0.019453,-0.031141,-48.474518,-89.725174,48.586510
337,9.831463,-0.040599,0.025419,0.031591,0.033018,-0.007759,-48.247135,-89.725891,48.359890
338,9.833413,-0.043120,0.025701,0.039197,0.044066,-0.004690,-48.017399,-89.724464,48.131268
339,9.832273,-0.042940,0.021341,0.037624,0.029199,-0.017301,-47.777622,-89.725891,47.893238
340,9.833952,-0.042332,0.020647,0.042198,0.035712,-0.020435,-47.521870,-89.724464,47.638279
341,9.832784,-0.052368,0.020046,0.045146,0.034949,-0.006123,-47.277153,-89.723755,47.395409
342,9.828864,-0.044371,0.009472,0.061894,0.008138,-0.044405,-47.048172,-89.724464,47.168037
343,9.826266,-0.045133,0.007378,0.061863,-0.002901,-0.034097,-46.846230,-89.725174,46.967991
344,9.829544,-0.046187,0.014068,0.071075,0.018066,-0.031937,-46.648315,-89.725891,46.772514
345,9.830109,-0.049224,0.011072,0.057281,0.001573,-0.019489,-46.473186,-89.725891,46.599190
346,9.832585,-0.047192,0.011956,0.051205,0.002446,-0.014331,-46.380844,-89.726601,46.508934
347,9.840194,-0.056555,0.017297,0.051168,0.019459,0.022260,-46.343323,-89.726601,46.473213
348,9.842275,-0.049427,0.015632,0.052745,0.012891,-0.000110,-46.314274,-89.725891,46.445892
349,9.840090,-0.047952,0.016071,0.039030,0.009328,0.006128,-46.271446,-89.725891,46.404274
350,9.843365,-0.055075,0.020485,0.039005,0.025023,0.031340,-46.273338,-89.724464,46.408104
351,9.842155,-0.051279,0.017442,0.054269,0.018936,0.016950,-46.277908,-89.724464,46.414158
352,9.841515,-0.048843,0.017907,0.045141,0.018398,-0.001213,-46.220886,-89.723755,46.358337
353,9.841645,-0.051273,0.019602,0.017667,0.018440,0.001153,-46.128910,-89.723755,46.267372
354,9.847635,-0.054686,0.014777,0.005375,0.013216,0.007941,-46.070389,-89.721634,46.209488
355,9.841095,-0.051655,0.016459,0.014576,0.016349,0.000675,-46.018024,-89.720932,46.157227
356,9.843197,-0.055461,0.015783,0.005375,0.014126,0.010122,-45.967976,-89.720238,46.107777
357,9.842106,-0.051716,0.021419,0.003942,0.033333,0.009831,-45.898792,-89.719536,46.038548
358,9.841347,-0.052811,0.016828,0.026771,0.031783,0.014390,-45.796555,-89.718147,45.936916
359,9.835980,-0.044661,0.015146,0.043618,0.027894,-0.014042,-45.651257,-89.716759,45.792683
360,9.837923,-0.044752,0.013494,0.061909,0.021046,-0.006173,-45.484379,-89.718147,45.627777
361,9.837100,-0.037435,0.013463,0.049773,0.012922,-0.034929,-45.304134,-89.718842,45.449196
362,9.837218,-0.043155,0.010826,0.046634,-0.002675,-0.017927,-45.150867,-89.717453,45.297535
363,9.834182,-0.046890,0.017408,0.052766,0.013370,-0.009617,-45.057671,-89.718147,45.206314
364,9.833799,-0.045499,0.017639,0.066516,0.003269,-0.004276,-44.983154,-89.718842,45.133373
366,9.833995,-0.041891,0.017152,0.051286,0.000184,-0.017721,-44.919613,-89.718842,45.071934
367,9.834450,-0.047016,0.015485,0.055796,0.001396,0.008070,-44.891129,-89.719536,45.044895
368,9.836264,-0.051210,0.010104,0.063328,-0.015827,0.015765,-44.980206,-89.718147,45.136776
369,9.838574,-0.057370,0.005339,0.044907,-0.034170,0.039574,-45.231220,-89.719536,45.389317
370,9.839087,-0.062693,0.008373,0.031154,-0.018820,0.045450,-45.559738,-89.718147,45.718876
371,9.838294,-0.063078,0.005467,0.038753,-0.028364,0.038250,-45.870358,-89.717453,46.030991
372,9.836223,-0.058647,0.011927,0.051074,-0.025940,0.027740,-46.156399,-89.718842,46.318306
373,9.839171,-0.054115,0.019322,0.063407,0.006709,0.018525,-46.308422,-89.717453,46.472416
374,9.839107,-0.051425,0.021243,0.083292,0.009408,0.010312,-46.333912,-89.716072,46.500370
375,9.838900,-0.051214,0.018708,0.083268,-0.005741,0.007938,-46.364998,-89.716072,46.533646
376,9.837632,-0.052420,0.016278,0.077126,0.000889,0.006744,-46.407757,-89.716072,46.579067
377,9.835779,-0.053181,0.012389,0.067922,0.001813,0.001242,-46.417133,-89.716759,46.591526
378,9.832028,-0.050868,0.004001,0.044968,-0.027216,-0.013130,-46.449596,-89.716072,46.625473
379,9.831545,-0.047694,0.009649,0.043535,-0.013601,-0.025321,-46.458729,-89.717453,46.636097
380,9.829541,-0.043529,0.011532,0.060382,-0.012351,-0.037108,-46.374577,-89.718842,46.553745
381,9.828620,-0.037087,0.019455,0.045269,0.001800,-0.055349,-46.182343,-89.719536,46.363064
382,9.832141,-0.034325,0.022043,0.039218,0.006357,-0.074869,-45.850891,-89.720932,46.033302
383,9.830509,-0.038424,0.022866,0.034605,0.001064,-0.069450,-45.486069,-89.723045,45.669712
384,9.832320,-0.034929,0.018432,0.025437,-0.010406,-0.079975,-45.145313,-89.725891,45.330124
385,9.835894,-0.040458,0.017063,0.007056,-0.014337,-0.064187,-44.851460,-89.727318,45.036674
386,9.838156,-0.043011,0.012169,0.002403,-0.020762,-0.055578,-44.640354,-89.729477,44.825592
387,9.837508,-0.047336,0.011444,0.017614,-0.011894,-0.016036,-44.541119,-89.730202,44.726593
388,9.837747,-0.046752,0.010965,0.058815,-0.002339,-0.007987,-44.513973,-89.730934,44.700798
389,9.832686,-0.041750,0.007728,0.060359,-0.000958,-0.022288,-44.443638,-89.730934,44.632732
390,9.830885,-0.040511,0.006729,0.063413,0.008369,-0.033250,-44.282028,-89.730934,44.473141
391,9.836182,-0.043774,0.008399,0.090863,0.007053,-0.018766,-44.109722,-89.733124,44.303101
392,9.836325,-0.046325,0.009371,0.083217,0.000593,-0.018531,-43.992630,-89.733124,44.189339
393,9.835492,-0.041892,0.012961,0.057353,0.010986,-0.034166,-43.826332,-89.733124,44.025211
394,9.837129,-0.054497,0.020129,0.071029,0.021071,0.009067,-43.680798,-89.733124,43.882015
395,9.841585,-0.055349,0.019489,0.066436,0.025017,0.014740,-43.627144,-89.732391,43.830360
396,9.837528,-0.059887,0.014123,0.052604,0.001400,0.029352,-43.674049,-89.731659,43.879425
397,9.841172,-0.060651,0.011539,0.046468,-0.004834,0.026570,-43.823116,-89.730934,44.030369
398,9.843493,-0.061439,0.009173,0.058646,-0.025438,0.043617,-44.074947,-89.730202,44.283485
399,9.844413,-0.053251,0.012305,0.035870,-0.008447,0.002407,-44.273155,-89.730202,44.483101
400,9.841490,-0.050047,0.012365,0.038956,-0.006453,0.006479,-44.330276,-89.729477,44.541279
401,9.841011,-0.044564,0.015357,0.061929,0.014587,-0.008021,-44.304314,-89.728760,44.517208
402,9.835795,-0.038622,0.013683,0.060445,0.009664,-0.022191,-44.166950,-89.730934,44.382175
403,9.837601,-0.036512,0.011060,0.039076,0.012494,-0.034205,-43.967735,-89.730934,44.184338
404,9.838583,-0.034078,0.006974,0.023801,0.000408,-0.028622,-43.774414,-89.731659,43.992142
405,9.836506,-0.038087,0.005258,0.011536,-0.009274,-0.019452,-43.672569,-89.732391,43.891052
406,9.832494,-0.037964,0.000606,-0.000714,-0.031905,-0.020889,-43.669342,-89.732391,43.888302
407,9.834939,-0.046439,-0.002826,-0.003880,-0.038507,-0.001998,-43.784729,-89.733856,44.003361
408,9.833135,-0.055429,-0.001875,0.015880,-0.035151,0.021356,-44.016670,-89.734589,44.235733
409,9.837379,-0.061329,-0.007931,0.043237,-0.055222,0.044410,-44.411243,-89.735329,44.631218
410,9.837159,-0.062268,-0.008415,0.050856,-0.055879,0.046602,-44.921627,-89.734589,45.143066
411,9.840856,-0.063921,-0.005331,0.047823,-0.047496,0.059746,-45.452667,-89.733856,45.675968
412,9.839115,-0.060802,-0.004044,0.069233,-0.038316,0.063547,-45.980659,-89.734589,46.205788
413,9.836823,-0.051994,-0.003262,0.076957,-0.036853,0.038440,-46.425274,-89.733856,46.652653
414,9.830013,-0.054330,-0.002657,0.072366,-0.029898,0.033824,-46.773979,-89.733124,47.003380
415,9.829113,-0.057783,0.005168,0.095303,-0.017222,0.041778,-47.079384,-89.733856,47.311970
416,9.829059,-0.063364,0.006143,0.110524,-0.017045,0.045212,-47.376698,-89.732391,47.612621
417,9.832172,-0.065153,0.008132,0.092218,-0.018603,0.038966,-47.669033,-89.732391,47.908272
418,9.837633,-0.069822,0.008121,0.055556,-0.016834,0.038026,-47.942780,-89.730934,48.184978
419,9.836935,-0.067820,0.013165,0.047998,-0.006430,0.040729,-48.189594,-89.730202,48.433308
420,9.836338,-0.064366,0.009531,0.026631,-0.004611,0.030028,-48.384655,-89.729477,48.629745
421,9.834892,-0.055314,0.009485,-0.011433,0.004506,0.001576,-48.458519,-89.729477,48.703907
422,9.840484,-0.053223,0.010426,0.003856,0.011806,0.005815,-48.433170,-89.729477,48.678417
423,9.834106,-0.050211,0.009098,0.025232,0.013926,0.010814,-48.403305,-89.728035,48.649117
424,9.836223,-0.045296,0.007077,0.019151,0.018499,-0.006722,-48.327007,-89.728035,48.573631
425,9.837010,-0.042713,0.008170,0.014607,0.015307,-0.021918,-48.170780,-89.727318,48.417976
426,9.839975,-0.049174,0.008359,0.042015,0.014040,0.007776,-48.060711,-89.728035,48.307945
427,9.831683,-0.046314,0.006997,0.026766,0.002217,-0.006421,-48.019566,-89.727318,48.268368
428,9.834339,-0.049279,0.008618,0.016073,-0.011515,0.006748,-48.044041,-89.727318,48.293697
429,9.835027,-0.055204,0.008282,0.002282,-0.021574,0.019416,-48.191265,-89.728035,48.441296
430,9.839169,-0.060361,0.008730,-0.005388,-0.023058,0.044828,-48.457912,-89.727318,48.707726
431,9.836763,-0.060518,0.009410,0.002250,-0.028330,0.034110,-48.775093,-89.727318,49.025059
