seq,ax,ay,az,wroll,wpitch,wyaw,roll,pitch,yaw,q0,q1,q2,q3
60,0.280137,-3.003489,9.316925,-7.371702,-8.818624,45.312885,-17.867718,-1.639203,0.528341,0.987767,-0.155212,-0.014847,0.002333
61,-1.281408,-4.759032,9.139272,6.150408,5.446303,16.437386,-17.914310,-1.376522,1.525329,0.987671,-0.155513,-0.013937,0.011277
62,-1.610258,-4.624605,8.818722,14.393380,1.338705,10.600453,-17.579626,-1.132409,1.920381,0.988094,-0.152618,-0.012325,0.015050
63,-1.427139,-4.666428,8.642472,16.982840,-1.733805,7.796780,-17.062399,-1.047754,2.215385,0.988735,-0.148139,-0.011908,0.017761
64,-1.705788,-4.617430,8.452452,16.600403,-3.879262,3.140344,-16.506521,-1.084805,2.417105,0.989407,-0.143313,-0.012394,0.019514
65,-1.770035,-4.430014,8.417109,16.370737,-4.503592,-2.111962,-15.958190,-1.214307,2.472762,0.990064,-0.138545,-0.013487,0.019897
66,-1.590431,-4.364494,8.374545,13.911619,-4.809383,-7.980750,-15.450809,-1.409449,2.352897,0.990674,-0.134137,-0.014945,0.018691
67,-1.258362,-4.460313,8.512382,10.344244,-5.499660,-14.854023,-15.037948,-1.675510,2.030880,0.991174,-0.130563,-0.016812,0.015655
68,-1.823850,-4.247872,8.668522,9.849411,-5.874502,-22.453442,-14.683655,-2.018475,1.478378,0.991594,-0.127533,-0.019116,0.010543
69,-1.511777,-4.178161,8.714993,10.614800,-7.277569,-26.522976,-14.314092,-2.435239,0.742533,0.991981,-0.124422,-0.021891,0.003780
70,-1.390868,-4.194742,8.743374,8.917774,-9.520481,-29.527124,-13.949273,-2.934830,-0.095828,0.992272,-0.121411,-0.025317,-0.003939
71,-1.323422,-4.228811,8.746605,6.251287,-11.901463,-31.380598,-13.645574,-3.523777,-0.997731,0.992379,-0.119004,-0.029493,-0.012293
72,-1.370369,-4.142342,8.690602,2.967499,-13.590803,-31.354757,-13.430070,-4.181747,-1.916625,0.992269,-0.117443,-0.034275,-0.020865
73,-0.610715,-4.338242,8.707734,-2.187358,-14.896525,-27.914375,-13.349580,-4.872540,-2.770035,0.991915,-0.117115,-0.039401,-0.028925
74,-0.296016,-4.451510,8.742870,-6.730691,-14.434670,-25.534136,-13.429277,-5.554650,-3.526220,0.991330,-0.118212,-0.044506,-0.036183
75,-0.194918,-4.380083,8.795872,-7.999360,-11.387759,-23.530230,-13.603466,-6.164458,-4.224069,0.990617,-0.120150,-0.048996,-0.042905
76,0.039557,-4.311070,8.888535,-7.407902,-7.850352,-21.441063,-13.787107,-6.653488,-4.880303,0.989903,-0.122167,-0.052457,-0.049156
77,0.208029,-4.211891,9.032829,-4.401902,-4.647555,-19.548807,-13.910536,-7.019230,-5.498055,0.989284,-0.123643,-0.054899,-0.054923
78,0.261767,-4.070798,8.956716,-0.775825,-1.927033,-17.335096,-13.925454,-7.273325,-6.072854,0.988828,-0.124145,-0.056465,-0.060153
79,0.349840,-4.045123,8.993079,0.076337,0.246335,-15.754458,-13.868995,-7.432831,-6.605890,0.988501,-0.123988,-0.057296,-0.064886
80,0.579737,-4.012833,9.021878,0.376358,0.944068,-14.782240,-13.795991,-7.535213,-7.109101,0.988221,-0.123656,-0.057679,-0.069294
81,0.648297,-3.962752,8.989144,0.893154,1.502345,-12.984004,-13.713834,-7.605629,-7.572328,0.987976,-0.123216,-0.057838,-0.073317
82,0.642561,-4.007489,8.947571,-2.680062,1.388596,-11.637902,-13.688691,-7.655994,-7.986086,0.987700,-0.123234,-0.057845,-0.076922
83,0.541446,-4.162699,9.082387,-5.869279,1.080013,-10.971596,-13.780500,-7.705606,-8.365290,0.987308,-0.124243,-0.057800,-0.080285
84,0.539913,-4.110560,8.951371,-3.662454,2.251269,-9.689771,-13.892229,-7.734141,-8.716095,0.986917,-0.125399,-0.057584,-0.083392
85,0.342436,-4.167054,8.951535,-1.985538,4.047264,-8.024646,-13.944136,-7.703220,-9.030752,0.986648,-0.125985,-0.056934,-0.086096
86,0.093898,-4.194117,8.972997,-1.090000,5.987686,-6.719803,-13.957988,-7.600121,-9.312051,0.986486,-0.126178,-0.055725,-0.088421
87,-0.115603,-4.232498,9.000255,1.816119,8.534626,-4.660017,-13.914007,-7.410870,-9.556502,0.986468,-0.125795,-0.053860,-0.090314
88,-0.185335,-4.035904,8.825609,5.475194,11.157798,-2.836851,-13.767082,-7.122032,-9.757915,0.986651,-0.124431,-0.051266,-0.091692
89,-0.229290,-4.009184,8.906932,3.636529,12.135718,-1.578860,-13.595408,-6.762170,-9.922397,0.986924,-0.122780,-0.048124,-0.092678
90,-0.075569,-4.046575,8.813526,-0.756152,12.176647,-0.054583,-13.533445,-6.374668,-10.044760,0.987118,-0.122027,-0.044702,-0.093327
91,0.090194,-4.025157,8.776598,-0.226426,8.769365,0.069979,-13.540998,-6.035244,-10.126833,0.987232,-0.121884,-0.041681,-0.093703
92,0.054763,-4.071217,8.878972,2.641579,6.009424,2.552751,-13.499187,-5.785538,-10.141988,0.987398,-0.121351,-0.039546,-0.093574
93,-0.025076,-4.020708,8.998993,5.738468,3.385760,6.172105,-13.370050,-5.599440,-10.036354,0.987716,-0.120070,-0.038156,-0.092438
94,0.050940,-3.687120,9.131665,11.671770,-1.864681,6.859746,-13.099982,-5.525018,-9.829700,0.988199,-0.117621,-0.037944,-0.090495
95,-0.212021,-3.412378,9.569100,13.322874,-3.336140,11.411493,-12.714137,-5.541537,-9.511898,0.988828,-0.114197,-0.038708,-0.087640
96,-0.218223,-3.273681,9.700373,12.599581,-3.893184,16.408783,-12.328632,-5.558528,-9.030881,0.989556,-0.110716,-0.039614,-0.083371
97,0.123847,-3.138281,9.721447,8.215915,-3.663303,18.641994,-12.039847,-5.558156,-8.430495,0.990255,-0.108012,-0.040388,-0.078083
98,0.344223,-3.162679,9.606084,1.579308,-3.070185,17.130934,-11.935512,-5.543853,-7.821153,0.990761,-0.106886,-0.040904,-0.072767
99,0.093001,-3.491293,9.481910,-5.068265,0.028316,16.321703,-12.047278,-5.477334,-7.262689,0.991031,-0.107618,-0.040782,-0.067919
100,0.192877,-3.531925,8.881305,-10.456520,2.602871,11.728884,-12.348264,-5.335421,-6.813031,0.991070,-0.109994,-0.039808,-0.064008
101,-0.044998,-3.683630,8.738403,-16.777472,5.493874,7.214967,-12.827591,-5.134644,-6.533169,0.990846,-0.113951,-0.038082,-0.061564
102,-0.190856,-3.839005,8.500054,-18.275034,6.429800,2.845715,-13.422047,-4.902746,-6.414582,0.990406,-0.118949,-0.035880,-0.060505
103,-0.280358,-3.919786,8.526937,-17.494101,6.811692,0.102971,-14.017716,-4.676502,-6.419230,0.989867,-0.123997,-0.033604,-0.060495
104,-0.270056,-4.050486,8.616240,-15.671836,5.045351,-1.404711,-14.564826,-4.490243,-6.489260,0.989302,-0.128659,-0.031627,-0.061057
105,-0.126724,-4.345423,8.975371,-12.223946,3.729698,-2.633987,-15.021780,-4.365980,-6.592045,0.988775,-0.132575,-0.030192,-0.061931
106,-0.005701,-4.398460,9.117595,-7.187253,2.642046,-4.209142,-15.334838,-4.293298,-6.730340,0.988363,-0.135278,-0.029232,-0.063123
107,-0.021476,-4.372408,9.429349,-4.741079,2.316201,-5.753569,-15.520009,-4.257730,-6.912899,0.988055,-0.136904,-0.028605,-0.064703
108,-0.110286,-4.309592,9.603887,-4.082807,3.178533,-6.397797,-15.650768,-4.223878,-7.133187,0.987785,-0.138070,-0.027974,-0.066595
110,0.021304,-4.095391,9.399233,-5.285411,2.560238,-6.549817,-15.789728,-4.190258,-7.367445,0.987492,-0.139307,-0.027318,-0.068608
111,-0.028198,-3.851947,8.991795,-5.474976,-0.643683,-6.054644,-15.953563,-4.217005,-7.578823,0.987153,-0.140783,-0.027191,-0.070500
112,-0.096411,-3.736925,8.594800,-3.256996,-4.121067,-4.619884,-16.087885,-4.342453,-7.728359,0.986843,-0.142042,-0.028004,-0.071970
113,-0.202182,-3.713495,8.403517,-1.984567,-6.566747,-1.887569,-16.170940,-4.543703,-7.783278,0.986622,-0.142879,-0.029618,-0.072705
114,0.126895,-3.953850,8.703471,-0.785184,-10.786126,-0.316366,-16.220768,-4.831700,-7.737761,0.986463,-0.143450,-0.032125,-0.072672
115,0.144630,-4.027469,8.982807,4.200412,-11.454859,2.329740,-16.175674,-5.178316,-7.601651,0.986446,-0.143203,-0.035310,-0.071904
116,0.284465,-4.000784,9.275814,6.554963,-9.142380,4.099885,-16.014814,-5.478472,-7.402788,0.986626,-0.141907,-0.038243,-0.070497
117,0.444221,-3.887050,9.411482,3.753639,-6.186389,3.494593,-15.861694,-5.689390,-7.210099,0.986827,-0.140626,-0.040392,-0.069034
118,0.624275,-3.863287,9.455664,-0.978577,-4.435171,0.384973,-15.826591,-5.842015,-7.098994,0.986859,-0.140357,-0.041865,-0.068244
119,0.460918,-3.911387,9.143362,-3.704937,-1.838298,-3.251446,-15.902886,-5.955622,-7.116408,0.986696,-0.141074,-0.042777,-0.068555
120,0.375137,-3.950167,8.752192,-6.340537,-0.440574,-6.822078,-16.054497,-6.038333,-7.268158,0.986373,-0.142476,-0.043210,-0.070016
121,0.260389,-4.279160,8.718221,-10.086161,-0.284736,-8.863398,-16.301914,-6.122765,-7.517242,0.985863,-0.144740,-0.043472,-0.072354
122,0.418813,-4.737317,8.909545,-9.317349,-0.647775,-10.143264,-16.592913,-6.227387,-7.818385,0.985241,-0.147411,-0.043801,-0.075182
123,0.341079,-4.719470,8.793134,-3.246238,-0.534200,-9.460802,-16.768454,-6.339997,-8.127589,0.984744,-0.149099,-0.044253,-0.078045
124,0.268660,-4.487820,8.629445,0.291224,-0.264918,-7.413713,-16.787989,-6.433808,-8.394715,0.984480,-0.149422,-0.044698,-0.080464
125,0.377752,-4.461694,8.892854,0.902258,-0.206921,-6.915705,-16.742414,-6.510164,-8.622589,0.984333,-0.149163,-0.045091,-0.082498
126,0.303332,-4.223091,8.984095,3.545457,0.144492,-5.364829,-16.645844,-6.569945,-8.819625,0.984280,-0.148446,-0.045419,-0.084225
127,0.168458,-3.916669,9.069502,3.040317,1.641591,-3.129478,-16.519468,-6.581776,-8.964775,0.984329,-0.147425,-0.045427,-0.085436
128,0.260263,-3.883759,9.182797,3.094019,2.013292,-2.235042,-16.405390,-6.548687,-9.068477,0.984417,-0.146466,-0.045095,-0.086242
129,0.421818,-3.818427,9.247635,5.113274,1.772126,-1.279842,-16.260149,-6.504611,-9.142922,0.984571,-0.145220,-0.044731,-0.086772
130,0.504530,-3.769576,9.318069,9.115945,0.908564,-1.522724,-16.016485,-6.474658,-9.200575,0.984852,-0.143130,-0.044585,-0.087137
131,0.611597,-3.807255,9.363119,10.596967,1.129194,-2.686740,-15.679235,-6.461128,-9.277806,0.985218,-0.140253,-0.044631,-0.087654
132,0.593898,-3.737279,9.298286,13.143328,1.525674,-3.007845,-15.271887,-6.443829,-9.381736,0.985640,-0.136779,-0.044669,-0.088370
133,0.574368,-3.557977,9.211114,14.097948,0.832038,-2.687145,-14.806381,-6.430501,-9.484246,0.986116,-0.132806,-0.044794,-0.089055
134,0.482462,-3.555344,9.274030,14.262215,0.379462,-1.377982,-14.325754,-6.427974,-9.555322,0.986611,-0.128695,-0.045065,-0.089476
135,0.347966,-3.513742,9.283181,15.916351,-0.307716,2.234945,-13.824319,-6.423293,-9.541670,0.987178,-0.124368,-0.045431,-0.089155
136,0.360520,-3.402991,9.191207,18.266445,-1.274277,6.441181,-13.271126,-6.414918,-9.393996,0.987885,-0.119536,-0.045943,-0.087654
137,0.462305,-3.334543,9.198317,19.868879,-2.535927,10.012653,-12.667209,-6.415104,-9.110745,0.988714,-0.114213,-0.046688,-0.084967
138,0.533207,-3.305832,9.165434,21.803640,-3.009834,13.091317,-12.017246,-6.422946,-8.712322,0.989630,-0.108444,-0.047614,-0.081267
139,0.607887,-3.287829,9.138910,22.204012,-2.812340,13.983860,-11.335784,-6.426546,-8.247890,0.990576,-0.102363,-0.048543,-0.076972
140,0.642028,-3.294627,9.104720,21.593079,-2.121931,12.152680,-10.655780,-6.424157,-7.801842,0.991458,-0.096290,-0.049354,-0.072822
141,0.603471,-3.168059,9.102401,19.648035,-1.311015,9.621715,-10.009776,-6.415434,-7.432281,0.992219,-0.090534,-0.049980,-0.069337
142,0.538880,-3.014350,9.074239,14.981058,-0.284370,7.688556,-9.465055,-6.392926,-7.141657,0.992822,-0.085677,-0.050331,-0.066565
143,0.470008,-3.063234,9.298684,7.661617,1.825639,5.989115,-9.112287,-6.330770,-6.919505,0.993240,-0.082492,-0.050157,-0.064443
144,0.422444,-2.955886,9.538696,7.674378,2.495915,5.150062,-8.875582,-6.230544,-6.746440,0.993556,-0.080316,-0.049542,-0.062774
145,0.379627,-2.690828,9.632016,8.765348,3.209400,4.364634,-8.616958,-6.112467,-6.603347,0.993872,-0.077957,-0.048757,-0.061348
146,0.393750,-2.536575,9.785673,10.653456,2.686200,3.218030,-8.305027,-5.996712,-6.492188,0.994197,-0.075151,-0.047992,-0.060180
147,0.320188,-2.446026,10.007419,12.335230,2.993747,2.291268,-7.929956,-5.890070,-6.414202,0.994530,-0.071815,-0.047311,-0.059285
148,0.234932,-2.158250,10.086660,15.415837,3.642190,1.130542,-7.471695,-5.772865,-6.372283,0.994886,-0.067766,-0.046555,-0.058668
149,0.167246,-1.822272,10.018734,14.282041,5.402514,-1.022802,-6.975017,-5.623145,-6.389532,0.995231,-0.063392,-0.045499,-0.058539
150,0.116942,-1.746144,10.092717,8.653291,8.070809,-2.324655,-6.584829,-5.406837,-6.471888,0.995495,-0.059934,-0.043775,-0.058996
151,-0.271693,-1.844703,10.345578,1.228893,14.682681,-7.119005,-6.401874,-5.047927,-6.672148,0.995638,-0.058248,-0.040648,-0.060500
152,-0.408926,-1.566442,10.285923,-0.703778,21.226484,-13.953186,-6.358368,-4.492358,-7.089381,0.995651,-0.057730,-0.035632,-0.063854
153,-0.313696,-0.950461,9.628633,11.474118,19.768999,-16.268665,-6.136703,-3.868062,-7.666028,0.995644,-0.055630,-0.030049,-0.068517
154,-0.478836,-1.055856,9.637450,-5.980239,18.606802,-15.765881,-6.007587,-3.288083,-8.265150,0.995511,-0.054309,-0.024801,-0.073435
155,-0.455599,-1.553106,10.036569,-28.558832,15.715414,-11.201929,-6.556205,-2.769450,-8.775912,0.995041,-0.058844,-0.019682,-0.077740
156,-0.016890,-2.148771,10.083274,-29.538258,8.059289,-4.351934,-7.510642,-2.409020,-9.082928,0.994391,-0.066937,-0.015725,-0.080366
157,-0.064150,-2.376001,9.699508,-7.043394,1.493386,3.405054,-8.118799,-2.254024,-9.120724,0.994030,-0.072113,-0.013930,-0.080682
158,-0.094862,-2.495202,9.138411,-16.436016,2.110110,10.553643,-8.518738,-2.161259,-8.899037,0.993947,-0.075494,-0.012990,-0.078749
159,0.157330,-2.494854,9.148288,-19.887808,-1.217221,17.381502,-9.141071,-2.075137,-8.440973,0.993848,-0.080786,-0.012138,-0.074788
160,0.077744,-2.011560,7.808020,10.657613,-5.405494,19.844881,-9.317898,-2.084781,-7.810596,0.994116,-0.082257,-0.012559,-0.069345
161,-0.025875,-1.268172,7.140438,15.258466,-9.006060,23.755379,-8.914458,-2.208239,-7.054616,0.994810,-0.078735,-0.014394,-0.062821
162,0.050941,-1.397586,7.468575,-11.873194,-13.353202,26.609850,-8.894213,-2.446576,-6.166913,0.995230,-0.078554,-0.017084,-0.055269
163,0.187745,-2.351513,9.074758,-27.064756,-17.511499,24.102266,-9.585492,-2.816810,-5.248721,0.995064,-0.084560,-0.020643,-0.047665
164,0.266169,-3.249552,9.933600,-16.100435,-16.587326,15.865582,-10.345245,-3.260123,-4.493154,0.994659,-0.091161,-0.024776,-0.041587
165,0.316503,-3.700772,10.857771,-25.167179,-13.325089,10.550947,-11.065057,-3.668341,-3.967408,0.994129,-0.097406,-0.028503,-0.037520
166,0.210088,-3.910268,11.202653,-30.515942,-9.247234,5.219861,-12.015408,-3.983688,-3.633530,0.993292,-0.105642,-0.031233,-0.035146
167,0.286056,-4.231066,11.305760,-30.891407,-4.310224,-0.901750,-13.047382,-4.188081,-3.513651,0.992268,-0.114598,-0.032805,-0.034588
168,0.053747,-4.204755,10.937447,-26.757265,0.521512,-6.057898,-14.000950,-4.276057,-3.611668,0.991218,-0.122899,-0.033172,-0.035800
169,-0.217134,-3.768710,10.044015,-24.691647,2.213649,-4.677906,-14.844649,-4.276011,-3.796605,0.990227,-0.130247,-0.032697,-0.037642
170,-0.218229,-3.924599,9.971575,-27.616550,2.954340,-4.076013,-15.704280,-4.231388,-3.960358,0.989183,-0.137706,-0.031832,-0.039247
171,-0.103592,-4.134155,9.761577,-25.239441,3.208304,-4.396842,-16.573105,-4.172040,-4.124940,0.988074,-0.145231,-0.030813,-0.040832
172,-0.060972,-4.083004,9.398314,-25.158541,2.161422,-1.620957,-17.404179,-4.115705,-4.247300,0.986971,-0.152411,-0.029868,-0.042035
173,-0.046846,-4.200659,8.903580,-24.104364,1.061332,2.022629,-18.224466,-4.062703,-4.257392,0.985870,-0.159460,-0.029096,-0.042262
174,0.092536,-4.285640,8.513469,-20.086550,0.360704,4.726263,-18.967941,-4.004599,-4.158088,0.984872,-0.165813,-0.028465,-0.041514
175,0.272585,-3.999460,8.097684,-13.143211,-0.822363,6.175524,-19.533871,-3.952138,-3.983572,0.984122,-0.170619,-0.028069,-0.040078
176,0.449918,-3.841467,7.918936,-7.819868,-2.243872,7.577556,-19.899298,-3.923074,-3.750001,0.983662,-0.173692,-0.028046,-0.038119
177,0.651012,-3.978754,7.975685,-5.401690,-2.442384,6.090648,-20.136175,-3.918616,-3.508673,0.983381,-0.175665,-0.028299,-0.036099
178,0.732442,-3.913288,8.248622,-3.592757,-1.165325,2.850413,-20.297102,-3.923565,-3.347692,0.983181,-0.177007,-0.028539,-0.034765
179,0.623277,-3.789367,8.564840,-3.114306,1.206349,-1.816903,-20.409979,-3.916916,-3.331743,0.983014,-0.177970,-0.028473,-0.034646
180,0.430903,-4.040887,8.927058,-4.638482,5.471552,-6.440303,-20.527777,-3.860729,-3.499976,0.982797,-0.179010,-0.027692,-0.036032
181,0.186910,-4.254572,9.264995,-2.639565,10.747438,-9.529047,-20.626339,-3.701168,-3.844891,0.982583,-0.179900,-0.025751,-0.038766
182,-0.224952,-4.181302,9.505104,1.376858,15.169421,-8.088737,-20.620934,-3.400237,-4.272603,0.982538,-0.179867,-0.022500,-0.041965
183,-0.547175,-4.265837,9.598749,4.514521,19.287758,-3.555106,-20.501688,-2.930577,-4.656478,0.982719,-0.178775,-0.017915,-0.044510
184,-0.413478,-4.296047,9.319270,8.413988,22.189598,1.098149,-20.273724,-2.296772,-4.935898,0.983128,-0.176651,-0.012133,-0.045904
185,-0.214382,-4.012730,9.009759,9.137538,21.929815,3.496447,-19.975327,-1.579898,-5.116973,0.983663,-0.173853,-0.005823,-0.046347
186,-0.062392,-4.059042,8.707272,3.953707,20.132391,4.605067,-19.754890,-0.874670,-5.228191,0.984063,-0.171701,0.000312,-0.046239
187,0.268418,-4.108595,8.350557,-0.772155,17.387266,2.701640,-19.700998,-0.244979,-5.324888,0.984175,-0.170991,0.005843,-0.046132
188,0.548304,-4.076186,8.054906,-4.785209,11.393615,-1.234531,-19.793522,0.214704,-5.464145,0.984013,-0.171590,0.010036,-0.046635
189,0.318595,-4.134439,8.294771,-11.189238,3.486460,-5.192985,-20.060644,0.411312,-5.649561,0.983544,-0.173782,0.012114,-0.047904
190,0.044454,-4.375892,8.571011,-12.672596,-3.347921,-7.256990,-20.459490,0.341557,-5.845285,0.982846,-0.177214,0.011985,-0.049648
191,-0.054849,-4.422302,8.766097,-7.385437,-10.899855,-8.499642,-20.794205,0.026775,-6.007603,0.982231,-0.180209,0.009686,-0.051500
192,-0.472924,-4.484819,8.723229,-2.242720,-19.773781,-5.303800,-20.954403,-0.532835,-6.040704,0.981906,-0.181831,0.005015,-0.052656
193,-0.678951,-4.290217,8.823512,-0.484380,-25.313267,-0.807905,-21.002317,-1.270980,-5.867060,0.981799,-0.182563,-0.001564,-0.052336
194,-0.602031,-4.238530,8.595110,-0.402513,-26.771753,3.977339,-21.027296,-2.062383,-5.506421,0.981760,-0.183080,-0.008911,-0.050500
195,-0.579748,-4.330580,8.466791,-2.996880,-26.891792,9.972050,-21.106579,-2.813388,-4.967527,0.981671,-0.183969,-0.016176,-0.047082
196,-0.554431,-4.229035,8.354465,-6.327428,-24.547461,16.074097,-21.300743,-3.455542,-4.251568,0.981444,-0.185703,-0.022759,-0.042006
197,-0.124520,-4.140607,8.544138,-9.886844,-18.869112,17.729847,-21.621399,-3.922698,-3.460705,0.981035,-0.188384,-0.027942,-0.036059
198,0.211752,-4.473543,8.629824,-9.431972,-13.383744,17.662642,-21.996134,-4.202393,-2.711279,0.980534,-0.191446,-0.031471,-0.030201
199,0.448217,-4.589408,8.775373,-5.725171,-8.563229,15.315164,-22.296801,-4.333960,-2.062435,0.980138,-0.193849,-0.033615,-0.024955
200,0.564506,-4.495426,8.816547,-2.282971,-2.745953,10.480336,-22.465746,-4.344645,-1.591763,0.979942,-0.195155,-0.034472,-0.020998
201,0.587916,-4.527355,8.948635,-2.261829,3.791866,4.565376,-22.558249,-4.232583,-1.366123,0.979861,-0.195873,-0.033882,-0.018905
202,0.379031,-4.570175,9.090150,-1.665537,9.421728,-1.443509,-22.620947,-4.009223,-1.402752,0.979821,-0.196411,-0.031899,-0.018856
203,0.211280,-4.280670,9.024132,0.742364,14.801118,-5.476898,-22.618624,-3.680889,-1.665059,0.979882,-0.196441,-0.028641,-0.020538
204,0.054899,-4.263958,8.994865,0.761829,19.163452,-8.572666,-22.567234,-3.248169,-2.099447,0.980011,-0.196063,-0.024206,-0.023503
205,-0.099343,-4.195065,8.982748,1.224638,21.151350,-9.798263,-22.505787,-2.744940,-2.640496,0.980126,-0.195573,-0.018990,-0.027264
206,-0.162705,-4.173475,8.812243,0.643720,20.651066,-9.672859,-22.450062,-2.225244,-3.207222,0.980196,-0.195083,-0.013592,-0.031223
207,-0.195177,-3.991771,8.602881,0.873273,19.300886,-8.530231,-22.406334,-1.725537,-3.742014,0.980215,-0.194645,-0.008420,-0.034948
208,-0.278198,-3.988350,8.484840,1.334519,15.946986,-8.635230,-22.356712,-1.291266,-4.230382,0.980217,-0.194127,-0.003892,-0.038389
209,-0.384986,-3.995478,8.405196,0.328025,10.840690,-7.750175,-22.320553,-0.982095,-4.652716,0.980178,-0.193729,-0.000545,-0.041480
210,-0.392932,-4.253253,8.513382,0.243734,5.469998,-7.344867,-22.305647,-0.826152,-4.988722,0.980099,-0.193546,0.001351,-0.044091
211,-0.548681,-4.256529,8.689631,4.379492,0.014788,-6.290099,-22.224966,-0.827659,-5.233685,0.980138,-0.192853,0.001720,-0.046190
213,-0.467860,-4.410065,8.765443,8.125521,-6.017446,-2.773100,-22.014858,-0.977127,-5.335935,0.980427,-0.191112,0.000526,-0.047316
214,-0.247378,-4.475473,8.880096,9.006954,-10.670766,1.518656,-21.730858,-1.242917,-5.251678,0.980890,-0.188782,-0.002005,-0.047032
215,0.143477,-4.360234,8.998506,11.281636,-12.729481,3.672360,-21.398129,-1.573704,-5.027769,0.981466,-0.186046,-0.005339,-0.045642
216,0.528930,-4.073809,8.842875,11.509143,-13.138852,4.957291,-21.027102,-1.923550,-4.737587,0.982107,-0.182969,-0.008949,-0.043692
217,0.878242,-4.026956,8.812953,8.558064,-12.096558,5.261793,-20.703892,-2.255853,-4.428448,0.982661,-0.180273,-0.012409,-0.041534
218,1.066609,-4.027215,8.844208,4.779774,-9.329928,2.388276,-20.491848,-2.545206,-4.183209,0.983011,-0.178509,-0.015350,-0.039854
219,1.145816,-4.019853,8.949862,0.053502,-6.614644,-1.975501,-20.415974,-2.791780,-4.083738,0.983100,-0.177911,-0.017647,-0.039370
220,0.975219,-3.898939,8.965885,-1.722626,-2.881167,-3.986739,-20.441973,-2.974769,-4.121587,0.982997,-0.178189,-0.019150,-0.039980
221,0.840849,-3.751798,9.107346,-1.628215,0.431863,-4.175673,-20.491903,-3.060581,-4.234893,0.982855,-0.178660,-0.019692,-0.041093
222,0.532013,-3.670993,9.310505,-0.614437,4.206552,-3.669100,-20.521353,-3.033969,-4.384636,0.982762,-0.178931,-0.019219,-0.042341
223,0.269372,-3.695619,9.488599,1.191315,7.592038,-3.291311,-20.502588,-2.890429,-4.562417,0.982765,-0.178756,-0.017717,-0.043641
224,0.012138,-3.685194,9.468483,2.195523,10.387506,-2.344612,-20.436863,-2.642519,-4.755419,0.982860,-0.178143,-0.015315,-0.044905
225,-0.155646,-3.802373,9.395700,4.262888,11.149576,0.217178,-20.322409,-2.318373,-4.913798,0.983056,-0.177074,-0.012334,-0.045753
226,-0.281316,-3.895593,9.355921,4.123408,10.402527,2.136312,-20.179432,-1.967761,-5.001353,0.983321,-0.175735,-0.009247,-0.045955
227,-0.203574,-3.964839,9.224820,2.842838,8.501366,3.187003,-20.062593,-1.641389,-5.026444,0.983555,-0.174619,-0.006454,-0.045668
228,-0.219552,-3.822724,9.169611,0.952304,5.121656,6.518497,-20.001326,-1.372656,-4.952240,0.983726,-0.173995,-0.004283,-0.044622
229,-0.446774,-3.659358,8.983992,0.889452,0.371108,11.643639,-19.976372,-1.183121,-4.699032,0.983890,-0.173707,-0.003049,-0.042161
230,-0.566936,-3.713160,9.109790,-0.866447,-3.856948,13.210280,-19.984266,-1.096164,-4.289799,0.984034,-0.173736,-0.002920,-0.038516
231,-0.580680,-3.804932,9.054083,-0.908752,-6.461413,15.537718,-20.023703,-1.093805,-3.780670,0.984136,-0.174059,-0.003660,-0.034141
232,-0.639295,-3.725435,8.862922,-0.658656,-8.551870,17.501179,-20.061647,-1.140159,-3.177518,0.984239,-0.174374,-0.004965,-0.029033
233,-0.522076,-3.830246,8.730692,-0.991663,-8.800714,16.969324,-20.102327,-1.214534,-2.538523,0.984315,-0.174706,-0.006568,-0.023659
234,-0.180290,-4.044999,8.876695,-0.740726,-7.842337,14.001608,-20.143942,-1.297381,-1.958299,0.984348,-0.175039,-0.008157,-0.018804
235,0.089462,-4.070470,8.857186,0.111833,-6.685119,12.094190,-20.165913,-1.374822,-1.466457,0.984377,-0.175198,-0.009571,-0.014699
236,0.134913,-4.087527,8.941319,-0.531837,-3.960386,7.462075,-20.181898,-1.428984,-1.099227,0.984388,-0.175307,-0.010596,-0.011628
237,0.169587,-4.117565,9.063243,-0.731334,-0.407639,1.626718,-20.207142,-1.444997,-0.931874,0.984363,-0.175509,-0.010987,-0.010217
238,0.138069,-4.044301,9.142513,-1.336348,2.907516,-2.527389,-20.240883,-1.411077,-0.960369,0.984313,-0.175800,-0.010649,-0.010413
239,0.114171,-3.949257,9.152342,-1.514611,5.632358,-6.681856,-20.283764,-1.330698,-1.153703,0.984238,-0.176181,-0.009658,-0.011954
240,0.007857,-3.810385,9.062845,-0.565902,8.160101,-10.801098,-20.310577,-1.216161,-1.506815,0.984168,-0.176429,-0.008127,-0.014813
241,-0.026452,-3.721508,8.949587,-1.833693,9.535053,-12.919848,-20.341085,-1.076898,-1.980067,0.984067,-0.176704,-0.006198,-0.018665
242,0.005740,-3.822531,8.944140,-2.845323,9.669416,-13.290618,-20.409941,-0.928985,-2.501095,0.983882,-0.177296,-0.004110,-0.022914
243,-0.140311,-3.730844,8.974535,-2.643668,9.308479,-12.672227,-20.493706,-0.783862,-3.017110,0.983654,-0.178001,-0.002046,-0.027122
244,-0.319967,-3.701327,8.993500,-1.427293,8.774862,-11.429757,-20.555561,-0.642444,-3.499005,0.983450,-0.178503,-0.000067,-0.031039
245,-0.327066,-3.780622,9.075136,-1.493189,7.422184,-7.692565,-20.600319,-0.501703,-3.892257,0.983281,-0.178846,0.001767,-0.034195
246,-0.345976,-3.819190,9.205628,-0.059167,5.560674,-3.152811,-20.624380,-0.362825,-4.137622,0.983180,-0.179006,0.003349,-0.036083
247,-0.208709,-3.774452,9.287909,2.012977,2.335479,0.999636,-20.591436,-0.252258,-4.217519,0.983215,-0.178687,0.004412,-0.036597
248,0.095509,-3.792826,9.273829,3.131955,-1.656082,3.953777,-20.506018,-0.212654,-4.144169,0.983374,-0.177945,0.004611,-0.035909
249,0.335643,-3.849889,9.295309,3.718139,-6.088839,6.577353,-20.392761,-0.272259,-3.934591,0.983609,-0.176998,0.003740,-0.034207
250,0.369654,-3.904708,9.318708,1.935595,-9.666522,7.050317,-20.300457,-0.439467,-3.630305,0.983827,-0.176260,0.001809,-0.031855
251,0.405776,-3.738867,9.285598,-0.330079,-11.699467,5.430283,-20.276922,-0.701293,-3.311667,0.983925,-0.176125,-0.000935,-0.029521
252,0.209978,-3.491286,9.073721,-2.807778,-12.110037,4.946635,-20.333782,-1.013386,-3.011683,0.983878,-0.176677,-0.004063,-0.027426
253,-0.002600,-3.361751,8.869529,-4.443020,-10.828921,3.994037,-20.460201,-1.319737,-2.738662,0.983707,-0.177810,-0.007086,-0.025560
254,-0.077070,-3.531341,8.734936,-5.324597,-8.316182,3.150398,-20.628660,-1.576694,-2.515072,0.983456,-0.179285,-0.009604,-0.024053
255,-0.019387,-3.484491,8.634892,-1.174716,-5.332314,0.886952,-20.741163,-1.765701,-2.371670,0.983279,-0.180268,-0.011428,-0.023128
256,-0.016894,-3.543379,8.678818,1.906500,-1.958813,-0.025887,-20.730780,-1.874285,-2.315237,0.983289,-0.180189,-0.012451,-0.022813
257,-0.032529,-3.776606,8.891523,4.357379,1.466382,-1.963662,-20.625458,-1.893687,-2.343403,0.983445,-0.179291,-0.012594,-0.023073
258,-0.045935,-3.805881,8.919546,6.908177,4.361877,-3.737754,-20.433701,-1.836060,-2.466545,0.983728,-0.177650,-0.011947,-0.024020
259,-0.173514,-3.519022,8.983200,7.507570,7.162533,-3.963005,-20.187674,-1.700493,-2.653688,0.984090,-0.175533,-0.010548,-0.025395
260,-0.478345,-3.304613,9.022840,4.386221,8.223090,-1.350345,-19.984694,-1.490090,-2.825026,0.984393,-0.173765,-0.008525,-0.026530
261,-0.787762,-3.097162,8.926606,1.508390,5.502864,2.410837,-19.885027,-1.269015,-2.886500,0.984560,-0.172869,-0.006556,-0.026718
262,-0.641107,-2.843632,8.932652,-2.100376,3.159427,7.123674,-19.897015,-1.079173,-2.786208,0.984589,-0.172930,-0.005073,-0.025572
263,-0.309948,-2.916769,9.240449,-4.878245,0.734540,9.045726,-20.017445,-0.926167,-2.555069,0.984473,-0.173927,-0.004083,-0.023360
264,-0.106617,-2.831017,9.399989,-4.458859,-1.939807,7.430283,-20.177227,-0.850651,-2.290302,0.984288,-0.175277,-0.003806,-0.020976
265,0.201294,-2.737012,9.436687,-4.577991,-3.558326,5.212895,-20.331329,-0.863673,-2.060897,0.984091,-0.176595,-0.004243,-0.019031
266,0.548736,-2.875502,9.470305,-3.329097,-3.214085,0.592413,-20.465193,-0.935727,-1.930878,0.983898,-0.177749,-0.005042,-0.018031
267,0.532907,-3.095541,9.367743,0.839492,-2.235814,-4.427093,-20.506233,-1.043150,-1.958982,0.983819,-0.178117,-0.005914,-0.018441
268,0.242453,-3.126216,9.031525,4.277429,-1.542366,-6.872432,-20.418013,-1.167959,-2.113475,0.983916,-0.177385,-0.006761,-0.019956
269,0.082163,-3.308652,8.875040,4.301957,-1.620983,-4.673676,-20.271570,-1.284273,-2.275641,0.984098,-0.176155,-0.007536,-0.021518
270,0.101804,-3.540544,8.913293,4.301132,-0.898961,-2.456706,-20.125938,-1.364700,-2.372705,0.984292,-0.174923,-0.008106,-0.022465
271,0.076012,-3.686024,9.018363,2.927289,-0.425566,-0.577568,-20.004496,-1.402766,-2.412659,0.984464,-0.173889,-0.008396,-0.022857
272,0.075651,-3.675098,9.169562,0.270771,-0.120148,1.017071,-19.951439,-1.408802,-2.402670,0.984546,-0.173434,-0.008474,-0.022776
273,0.195848,-3.896678,9.412180,-2.468565,-0.046754,1.926377,-19.989216,-1.394654,-2.355600,0.984500,-0.173752,-0.008416,-0.022353
274,0.311557,-3.861727,9.417572,-3.549034,1.433144,-0.014935,-20.090042,-1.362023,-2.333585,0.984355,-0.174612,-0.008149,-0.022122
275,0.273766,-3.884151,9.561783,-4.895970,2.474538,-2.773851,-20.229239,-1.316885,-2.399678,0.984135,-0.175805,-0.007634,-0.022631
276,0.279121,-3.887281,9.345826,-4.394212,3.433489,-5.093403,-20.380520,-1.270014,-2.556865,0.983877,-0.177106,-0.006958,-0.023918
277,0.216120,-4.047283,9.033678,-4.553885,4.119269,-6.078637,-20.524900,-1.217101,-2.775361,0.983612,-0.178348,-0.006134,-0.025720
278,0.079452,-3.973301,8.917392,-3.481735,4.015188,-7.325835,-20.653481,-1.168741,-3.032228,0.983358,-0.179455,-0.005288,-0.027856
279,-0.146261,-4.129585,8.988493,-2.777824,3.757624,-5.800677,-20.752779,-1.124872,-3.282723,0.983144,-0.180308,-0.004493,-0.029941
280,-0.294766,-4.227317,8.897697,-2.818876,3.153464,-3.904493,-20.842381,-1.074625,-3.474865,0.982958,-0.181071,-0.003735,-0.031513
281,-0.339573,-4.227181,9.143191,-3.298557,1.698274,-0.823902,-20.942465,-1.027197,-3.577343,0.982777,-0.181921,-0.003138,-0.032320
282,-0.370368,-4.166678,9.226481,-2.826288,-0.467771,3.110720,-21.045052,-0.994423,-3.549106,0.982626,-0.182792,-0.002873,-0.032029
283,-0.349655,-4.274237,9.165772,-3.262926,-2.266077,8.830509,-21.150007,-0.965329,-3.346999,0.982516,-0.183680,-0.002918,-0.030252
284,-0.110155,-4.148787,9.074388,-2.165371,-3.399501,9.948814,-21.245907,-0.940230,-3.020999,0.982447,-0.184487,-0.003202,-0.027420
285,0.001156,-4.216984,9.086929,-0.203766,-3.888922,9.949288,-21.291182,-0.933168,-2.667847,0.982455,-0.184864,-0.003701,-0.024382
286,0.051148,-4.214314,8.930333,1.943310,-3.467457,9.776455,-21.267902,-0.928152,-2.316961,0.982563,-0.184651,-0.004228,-0.021364
287,0.202364,-4.163264,9.011646,3.912071,-2.441168,7.558609,-21.175211,-0.915426,-2.011952,0.982767,-0.183842,-0.004626,-0.018725
288,0.235220,-4.049709,9.101510,5.565508,-1.136072,4.329898,-21.020517,-0.899788,-1.805607,0.983047,-0.182505,-0.004845,-0.016924
289,0.142641,-4.151259,9.112359,6.145593,-0.189123,2.966200,-20.827209,-0.877055,-1.684121,0.983373,-0.180838,-0.004870,-0.015837
290,0.076328,-4.006294,9.002245,6.500191,0.419684,2.757786,-20.617758,-0.839733,-1.596249,0.983717,-0.179033,-0.004716,-0.015015
291,-0.024767,-3.979293,9.046259,4.904200,0.921144,2.945638,-20.428833,-0.785487,-1.515059,0.984026,-0.177402,-0.004401,-0.014227
292,-0.140705,-4.012977,9.124248,4.081238,1.246154,2.668483,-20.280058,-0.719066,-1.439904,0.984269,-0.176115,-0.003964,-0.013473
293,-0.194809,-3.933768,9.098619,4.487893,1.394433,2.167401,-20.137960,-0.649923,-1.379472,0.984499,-0.174885,-0.003479,-0.012844
294,-0.269452,-3.810714,9.091556,4.389553,0.898274,3.132972,-19.990751,-0.583731,-1.309598,0.984735,-0.173612,-0.003033,-0.012139
295,-0.211320,-3.831632,9.019273,3.668818,0.207368,4.121963,-19.857492,-0.525189,-1.202193,0.984950,-0.172459,-0.002705,-0.011124
296,-0.175053,-3.849468,9.049617,3.468655,-0.425718,4.053071,-19.739677,-0.482446,-1.072759,0.985141,-0.171440,-0.002543,-0.009944
297,-0.145867,-3.811262,9.007158,2.858750,-0.979952,4.478393,-19.635391,-0.456599,-0.930979,0.985309,-0.170539,-0.002541,-0.008685
298,-0.140503,-3.746996,8.961797,2.220866,-1.896006,5.376850,-19.552082,-0.446663,-0.760155,0.985445,-0.169818,-0.002715,-0.007199
299,0.011046,-3.723268,8.978590,1.163939,-2.530277,5.398176,-19.497204,-0.456158,-0.566234,0.985537,-0.169341,-0.003087,-0.005544
300,0.080353,-3.763391,9.128520,0.559293,-2.363831,4.385045,-19.469967,-0.478655,-0.385302,0.985584,-0.169103,-0.003548,-0.004020
301,0.190389,-3.746852,9.095411,1.437202,-2.032228,2.693807,-19.437862,-0.508441,-0.249649,0.985634,-0.168823,-0.004006,-0.002896
302,0.153220,-3.527872,9.174360,1.014843,-1.107409,0.308436,-19.397598,-0.541169,-0.185060,0.985694,-0.168474,-0.004383,-0.002387
303,0.210942,-3.525585,9.295664,-0.012004,-0.210807,-2.183106,-19.380672,-0.572272,-0.207239,0.985717,-0.168330,-0.004618,-0.002623
304,0.120409,-3.610973,9.349410,0.733556,0.866549,-4.268877,-19.367577,-0.597639,-0.312312,0.985732,-0.168222,-0.004683,-0.003564
305,-0.044967,-3.401806,9.254823,2.316906,1.445056,-5.907324,-19.314915,-0.617455,-0.485114,0.985801,-0.167776,-0.004602,-0.005077
306,-0.166174,-3.340986,9.279956,0.633748,1.236163,-5.972044,-19.263525,-0.640666,-0.686765,0.985865,-0.167343,-0.004509,-0.006844
307,-0.172977,-3.527466,9.175310,-0.257299,0.891796,-4.380925,-19.255260,-0.664124,-0.861363,0.985864,-0.167280,-0.004457,-0.008380
308,-0.185935,-3.574062,9.103485,-1.184371,0.338939,-3.776808,-19.277691,-0.689633,-0.996486,0.985819,-0.167479,-0.004477,-0.009581
309,-0.178219,-3.581164,9.064839,-3.275361,-0.752641,-3.018465,-19.350714,-0.733609,-1.101093,0.985700,-0.168115,-0.004696,-0.010548
310,-0.107670,-3.541939,9.106277,-6.799403,-1.131765,-2.153762,-19.517675,-0.791930,-1.171939,0.985443,-0.169558,-0.005077,-0.011250
311,-0.061086,-3.545712,9.121952,-8.593274,-0.435099,-1.984779,-19.773415,-0.839744,-1.228111,0.985053,-0.171763,-0.005379,-0.011816
312,-0.010003,-3.487532,9.164678,-9.324828,0.969434,-3.915697,-20.070633,-0.864886,-1.323592,0.984592,-0.174324,-0.005419,-0.012688
313,-0.045401,-3.393979,9.209608,-8.467904,1.987441,-5.319966,-20.364735,-0.871791,-1.485068,0.984121,-0.176859,-0.005196,-0.014100
314,-0.129606,-3.220256,9.286122,-7.234822,3.026935,-6.208110,-20.623289,-0.860730,-1.694314,0.983693,-0.179087,-0.004743,-0.015890
316,-0.071721,-3.347390,9.389414,-4.982341,2.738643,-7.268204,-20.823277,-0.850290,-1.938403,0.983344,-0.180812,-0.004240,-0.017977
317,-0.009667,-3.290539,9.343652,-3.006377,2.361633,-6.283384,-20.952818,-0.851348,-2.179759,0.983099,-0.181932,-0.003846,-0.020054
318,0.079683,-3.329502,9.217631,-2.568527,1.931258,-5.130448,-21.042715,-0.852692,-2.383017,0.982919,-0.182710,-0.003517,-0.021803
319,0.131138,-3.478978,9.220842,-4.024442,2.004846,-3.829787,-21.150185,-0.845241,-2.545975,0.982716,-0.183635,-0.003172,-0.023191
320,0.192206,-3.663949,9.113087,-4.129894,1.885902,-3.248534,-21.284149,-0.827513,-2.679429,0.982475,-0.184784,-0.002778,-0.024311
321,0.204483,-3.706686,9.041589,-4.942819,2.388314,-1.204181,-21.434023,-0.788204,-2.774497,0.982216,-0.186063,-0.002254,-0.025066
322,0.204469,-3.772788,9.160318,-5.191135,2.084122,-1.183954,-21.602079,-0.733483,-2.838861,0.981933,-0.187494,-0.001643,-0.025531
323,0.119888,-3.684762,9.418020,-4.070920,2.371548,-0.192974,-21.755848,-0.672955,-2.887627,0.981675,-0.188799,-0.001010,-0.025851
324,0.056348,-3.659147,9.443920,-1.559177,1.873868,0.043022,-21.849365,-0.608192,-2.916216,0.981520,-0.189587,-0.000387,-0.025990
325,0.063706,-3.517020,9.562296,0.584420,1.505722,0.641302,-21.865509,-0.551666,-2.926592,0.981496,-0.189713,0.000118,-0.025986
326,-0.084351,-3.410192,9.515378,3.394662,1.473269,0.011263,-21.799114,-0.501532,-2.934952,0.981607,-0.189134,0.000546,-0.025975
327,-0.215546,-3.416243,9.456977,5.325531,1.534726,-0.783816,-21.653522,-0.459728,-2.965461,0.981843,-0.187878,0.000921,-0.026168
328,-0.251997,-3.478027,9.340536,7.369804,1.426522,-2.099134,-21.441439,-0.431474,-3.028272,0.982177,-0.186053,0.001217,-0.026662
329,-0.194510,-3.329833,9.203741,9.296033,0.848170,-2.052120,-21.163090,-0.421296,-3.106493,0.982608,-0.183664,0.001365,-0.027320
330,-0.032839,-3.369224,9.203512,9.918358,0.003069,-3.808888,-20.842125,-0.443046,-3.202762,0.983094,-0.180915,0.001254,-0.028184
331,0.264058,-3.415761,9.226962,11.904092,-0.548703,-6.493868,-20.477098,-0.512164,-3.360195,0.983620,-0.177798,0.000815,-0.029646
332,0.352125,-3.288486,9.161626,13.194076,-0.702314,-7.572657,-20.056709,-0.612970,-3.572879,0.984200,-0.174213,0.000164,-0.031628
333,0.086800,-3.403145,9.049591,11.475410,-0.881135,-4.379154,-19.643503,-0.705440,-3.751280,0.984762,-0.170688,-0.000479,-0.033299
334,0.024483,-3.380566,9.307246,10.025990,-0.236116,-1.295470,-19.284088,-0.754441,-3.834269,0.985263,-0.167612,-0.000884,-0.034083
335,0.208402,-3.378938,9.337452,10.777778,0.198866,-0.291861,-18.937033,-0.763627,-3.859101,0.985758,-0.164630,-0.001030,-0.034307
336,0.278859,-3.403945,9.279381,10.926155,-0.200253,-0.779684,-18.575079,-0.769369,-3.876025,0.986268,-0.161517,-0.001164,-0.034457
337,0.169619,-3.568588,9.114623,9.542803,0.837910,-0.892662,-18.233532,-0.768093,-3.905816,0.986736,-0.158577,-0.001215,-0.034708
338,0.470003,-3.466462,9.320592,11.951351,2.646950,-4.881614,-17.873856,-0.742711,-4.015348,0.987198,-0.155473,-0.000956,-0.035614
339,0.256494,-3.521963,9.053068,13.817147,3.856447,-7.764247,-17.441433,-0.703453,-4.249084,0.987707,-0.151736,-0.000443,-0.037573
340,-0.284514,-3.561414,8.982852,12.746105,3.368256,-5.673429,-16.995760,-0.654801,-4.498667,0.988210,-0.147878,0.000153,-0.039660
341,-0.745370,-3.493784,9.012894,8.971416,3.928385,1.504424,-16.632740,-0.558441,-4.600370,0.988647,-0.144714,0.000987,-0.040417
342,-0.608948,-3.461825,9.219304,9.324303,1.367016,6.817170,-16.328814,-0.434316,-4.492504,0.989076,-0.142051,0.001817,-0.039335
343,-0.407874,-3.553805,9.061212,8.441894,-3.514108,12.079485,-16.034996,-0.380787,-4.180035,0.989544,-0.139502,0.001798,-0.036576
344,-0.098907,-3.585928,9.183780,4.798666,-6.655581,14.753284,-15.817756,-0.420901,-3.703409,0.989948,-0.137643,0.000810,-0.032510
345,0.172186,-3.516600,9.203840,2.187563,-7.111851,13.984524,-15.705649,-0.511444,-3.180074,0.990214,-0.136698,-0.000629,-0.028097
346,0.522690,-3.545663,9.165441,0.762339,-6.381690,10.251094,-15.660946,-0.618679,-2.730357,0.990362,-0.136329,-0.002101,-0.024337
347,0.502135,-3.472975,9.147546,-3.142293,-5.358183,5.461061,-15.704262,-0.736240,-2.425318,0.990363,-0.136718,-0.003472,-0.021842
348,0.244249,-3.267534,9.208062,-3.098908,-2.910897,1.828649,-15.810446,-0.835784,-2.270916,0.990256,-0.137647,-0.004497,-0.020630
349,0.218206,-3.251952,9.126214,-2.648547,-0.634909,-1.499297,-15.906575,-0.891100,-2.249475,0.990139,-0.138486,-0.004984,-0.020515
350,0.170633,-3.304705,9.118364,-3.288859,0.534330,-2.647171,-16.004505,-0.911683,-2.315461,0.990007,-0.139338,-0.005064,-0.021115
351,0.009540,-3.203562,9.211607,-5.204255,1.194747,-3.249843,-16.144434,-0.911198,-2.417887,0.989817,-0.140552,-0.004909,-0.022005
352,-0.040221,-3.223625,9.292452,-7.216735,1.690146,-3.091043,-16.349644,-0.894610,-2.532810,0.989542,-0.142326,-0.004583,-0.022986
353,-0.005168,-3.269276,9.309221,-8.211924,2.009216,-3.674939,-16.604858,-0.867488,-2.658441,0.989200,-0.144529,-0.004139,-0.024046
354,-0.098660,-3.293535,9.341443,-9.201919,1.677499,-2.930254,-16.893253,-0.840371,-2.781576,0.988809,-0.147017,-0.003687,-0.025084
355,-0.095694,-3.185795,9.312083,-8.523330,1.328008,-2.849207,-17.187122,-0.820732,-2.888366,0.988407,-0.149551,-0.003314,-0.025989
356,-0.110262,-3.265627,9.268866,-9.187616,0.761640,-1.540401,-17.481157,-0.809282,-2.968592,0.988002,-0.152087,-0.003042,-0.026674
357,-0.063117,-3.264000,9.222118,-8.846272,0.005286,-0.105067,-17.781298,-0.805442,-2.998606,0.987594,-0.154674,-0.002898,-0.026936
358,0.008188,-3.288992,9.214553,-9.975268,-0.835421,1.240086,-18.095303,-0.812813,-2.976352,0.987171,-0.157381,-0.002919,-0.026762
359,0.132579,-3.300657,9.203462,-10.708747,-1.266386,1.376598,-18.440783,-0.832440,-2.923960,0.986702,-0.160359,-0.003080,-0.026347
360,0.174376,-3.381388,9.278879,-11.373160,-0.827601,0.804147,-18.809483,-0.853907,-2.878376,0.986189,-0.163536,-0.003245,-0.025995
361,0.214194,-3.407227,9.286409,-10.309882,-0.174446,-0.509080,-19.171015,-0.868078,-2.868284,0.985669,-0.166649,-0.003300,-0.025939
362,0.217680,-3.466982,9.303121,-10.194479,0.498393,-1.915334,-19.512146,-0.876329,-2.908198,0.985159,-0.169586,-0.003234,-0.026304
363,0.125770,-3.522954,9.288811,-9.534400,1.306121,-3.343393,-19.839542,-0.877481,-3.000859,0.984649,-0.172402,-0.003030,-0.027111
364,0.060237,-3.486012,9.325735,-9.466479,1.467874,-3.787683,-20.154274,-0.874636,-3.128362,0.984141,-0.175109,-0.002736,-0.028210
365,0.014833,-3.542550,9.218398,-8.669175,1.187535,-3.414622,-20.454578,-0.874772,-3.256313,0.983647,-0.177690,-0.002465,-0.029315
366,-0.027068,-3.632838,9.220017,-9.185050,1.164396,-3.227006,-20.750351,-0.877034,-3.373736,0.983154,-0.180231,-0.002224,-0.030333
367,-0.049447,-3.572251,9.190550,-8.184320,0.773116,-3.153405,-21.038134,-0.884799,-3.484611,0.982668,-0.182704,-0.002037,-0.031301
368,-0.032857,-3.508618,9.174314,-6.085875,0.475196,-2.145804,-21.274565,-0.897268,-3.574506,0.982262,-0.184735,-0.001935,-0.032096
369,0.044146,-3.565142,9.219585,-3.839779,0.205636,-0.911702,-21.439182,-0.905263,-3.626104,0.981980,-0.186149,-0.001873,-0.032554
370,0.039294,-3.457934,9.320590,0.022915,0.111008,0.356716,-21.502628,-0.903744,-3.636643,0.981874,-0.186693,-0.001825,-0.032643
371,0.092516,-3.214011,9.357017,6.110790,-1.098535,2.620997,-21.401224,-0.900915,-3.584425,0.982054,-0.185822,-0.001915,-0.032189
372,0.090960,-3.208665,9.377100,10.939722,-2.022458,5.866298,-21.119419,-0.898103,-3.433715,0.982550,-0.183403,-0.002211,-0.030888
373,0.177485,-3.184523,9.465496,12.177708,-2.892498,8.072683,-20.737978,-0.891614,-3.187443,0.983220,-0.180125,-0.002645,-0.028757
374,0.133129,-3.056485,9.422216,12.266253,-2.959243,8.861237,-20.335213,-0.883892,-2.888903,0.983919,-0.176658,-0.003140,-0.026172
375,0.189120,-2.962088,9.437472,11.826202,-3.124157,9.377914,-19.938595,-0.874412,-2.568570,0.984595,-0.173240,-0.003633,-0.023395
376,0.199747,-2.930887,9.460247,9.491361,-2.626879,8.608365,-19.588074,-0.863227,-2.254016,0.985182,-0.170215,-0.004076,-0.020663
377,0.244358,-2.878319,9.534079,6.894045,-1.930900,7.210104,-19.319067,-0.847020,-1.980108,0.985627,-0.167889,-0.004386,-0.018273
378,0.161925,-2.780151,9.517774,6.524632,-1.260676,6.088624,-19.098730,-0.824306,-1.753287,0.985984,-0.165982,-0.004555,-0.016281
379,0.149273,-2.707651,9.568950,6.340048,-0.875073,5.197896,-18.886995,-0.796759,-1.563822,0.986317,-0.164149,-0.004619,-0.014602
380,0.137845,-2.762811,9.567546,6.280641,-0.579547,4.246462,-18.678789,-0.769042,-1.406981,0.986634,-0.162348,-0.004629,-0.013204
381,0.144328,-2.765811,9.604062,6.034558,-0.573160,3.442756,-18.475225,-0.746441,-1.279373,0.986937,-0.160588,-0.004637,-0.012065
382,0.067589,-2.652658,9.517211,6.709171,-0.494987,3.218486,-18.264261,-0.728357,-1.168388,0.987243,-0.158764,-0.004657,-0.011075
383,0.132309,-2.739209,9.579561,6.598918,-0.134153,2.062229,-18.043547,-0.710908,-1.081483,0.987557,-0.156858,-0.004647,-0.010293
384,0.168047,-2.756451,9.629897,6.373524,-0.059559,0.991845,-17.827948,-0.698324,-1.032057,0.987855,-0.154996,-0.004625,-0.009842
385,0.122781,-2.643192,9.572416,5.681711,0.206795,0.557938,-17.627319,-0.688137,-1.008196,0.988128,-0.153265,-0.004586,-0.009614
386,0.083656,-2.716269,9.615017,5.735204,0.733817,-0.124488,-17.437063,-0.671018,-1.006032,0.988382,-0.151623,-0.004457,-0.009565
387,0.093423,-2.738762,9.684776,6.070878,1.253365,-1.551066,-17.239874,-0.647737,-1.042566,0.988640,-0.149922,-0.004225,-0.009842
388,0.075984,-2.608284,9.566184,6.139043,1.355151,-1.710697,-17.035656,-0.622232,-1.107330,0.988901,-0.148160,-0.003939,-0.010361
389,0.065801,-2.769723,9.625663,5.903460,1.455327,-1.025476,-16.834343,-0.590708,-1.164603,0.989157,-0.146422,-0.003611,-0.010808
390,0.059318,-2.700483,9.710338,9.167090,0.978242,-1.019853,-16.582724,-0.561654,-1.208920,0.989473,-0.144248,-0.003329,-0.011146
391,0.001418,-2.586344,9.629730,10.372123,0.837574,1.238582,-16.257025,-0.531581,-1.213963,0.989880,-0.141433,-0.003094,-0.011143
392,0.009127,-2.697643,9.636638,10.096007,0.277740,2.419934,-15.916377,-0.496772,-1.160534,0.990303,-0.138485,-0.002891,-0.010630
393,0.012919,-2.678188,9.645818,13.033663,-0.176607,2.759822,-15.531590,-0.471722,-1.077885,0.990771,-0.135155,-0.002808,-0.009876
394,-0.058251,-2.494906,9.603972,14.559705,-0.530091,2.879276,-15.072469,-0.458284,-0.984107,0.991313,-0.131181,-0.002838,-0.009038
395,-0.147750,-2.549684,9.570422,14.017814,-0.306402,4.770333,-14.597180,-0.439123,-0.857281,0.991859,-0.127064,-0.002851,-0.007907
396,-0.158212,-2.641242,9.536826,15.195377,-1.086070,4.191313,-14.111435,-0.424511,-0.706853,0.992399,-0.122854,-0.002919,-0.006577
397,-0.119441,-2.530779,9.550045,14.894627,-1.274158,3.747976,-13.610986,-0.431028,-0.568928,0.992933,-0.118515,-0.003147,-0.005376
398,-0.070626,-2.471081,9.667318,12.444565,-1.436360,3.358506,-13.156308,-0.447572,-0.443235,0.993400,-0.114572,-0.003437,-0.004290
399,-0.006210,-2.494905,9.645526,10.977213,-1.864535,3.424339,-12.766943,-0.475817,-0.320715,0.993786,-0.111192,-0.003815,-0.003243
400,0.143345,-2.583533,9.644229,8.713795,-2.358376,1.377149,-12.439585,-0.527024,-0.227245,0.994100,-0.108350,-0.004357,-0.002470
401,0.281885,-2.585272,9.750860,6.816707,-2.488615,-0.203926,-12.181117,-0.601810,-0.190885,0.994339,-0.106107,-0.005045,-0.002214
402,0.189916,-2.822604,10.204762,5.279366,-3.086668,-2.387343,-11.979265,-0.701735,-0.213652,0.994519,-0.104358,-0.005896,-0.002493
403,0.073025,-2.832627,10.966770,6.619200,-5.470696,-5.147086,-11.779692,-0.867184,-0.307159,0.994687,-0.102633,-0.007253,-0.003443
404,-0.181941,-2.439414,12.260484,9.900290,-7.378218,-5.735459,-11.502053,-1.113546,-0.441587,0.994909,-0.100238,-0.009282,-0.004808
405,-0.472823,-2.691802,13.142090,19.278189,-5.982735,-6.516889,-11.012334,-1.371774,-0.598446,0.995295,-0.096007,-0.011414,-0.006347
406,-0.554507,-2.879425,14.076747,22.921021,-4.423728,-5.012895,-10.305029,-1.577684,-0.755478,0.995835,-0.089887,-0.013120,-0.007802
407,-0.348702,-3.062808,14.271182,25.000526,-3.903572,-3.849872,-9.502851,-1.739695,-0.877307,0.996410,-0.082937,-0.014494,-0.008886
408,0.044165,-3.106931,14.142124,33.684914,-2.632475,-2.786122,-8.521912,-1.864518,-0.969580,0.997058,-0.074424,-0.015596,-0.009645
409,0.320720,-3.613547,12.697114,42.429222,1.356604,-3.701090,-7.250044,-1.900288,-1.073982,0.997808,-0.063370,-0.015956,-0.010400
410,0.790409,-3.066624,11.957726,39.727543,2.033962,-5.514340,-5.875763,-1.861768,-1.233460,0.998487,-0.051418,-0.015672,-0.011581
411,0.978864,-2.736928,10.908392,41.940350,4.518515,-7.133130,-4.507865,-1.772311,-1.453401,0.999019,-0.039517,-0.014954,-0.013280
412,0.712177,-2.448995,9.908013,48.312279,15.065122,-8.346995,-2.996051,-1.463696,-1.732485,0.999457,-0.026330,-0.012372,-0.015446
413,0.202656,-2.183280,10.310267,52.025677,32.711388,-6.419641,-1.319110,-0.677499,-2.009371,0.999761,-0.011613,-0.005709,-0.017601
414,-0.171940,-1.833441,10.571978,60.903332,36.075047,-4.426489,0.562399,0.467588,-2.199561,0.999795,0.004985,0.003985,-0.019213
415,-0.474153,0.106499,9.124739,76.795494,31.219328,-5.955947,2.853704,1.593620,-2.338748,0.999378,0.025177,0.013391,-0.020746
416,-0.753000,0.674825,9.109076,65.639992,25.922791,1.885369,5.226575,2.547581,-2.337205,0.998485,0.046027,0.021273,-0.021382
417,-0.689913,1.665087,8.912817,53.542450,13.958091,1.956705,7.218342,3.202300,-2.201128,0.997409,0.063450,0.026673,-0.020920
419,-0.993301,2.316458,7.317813,28.902863,-1.241749,4.818146,8.600147,3.396511,-2.058779,0.996546,0.075466,0.028201,-0.020129
420,-0.830746,3.006619,6.700012,-7.215009,-7.736424,5.906030,8.970348,3.221648,-1.903550,0.996370,0.078625,0.026722,-0.018751
421,-0.421698,1.897169,7.139250,-48.296379,-7.307159,9.597607,8.056887,2.935851,-1.684183,0.997068,0.070597,0.024519,-0.016455
422,-0.263892,1.781476,6.057259,-57.353306,-5.034800,-0.158105,6.302881,2.712573,-1.552836,0.998099,0.055275,0.022887,-0.014827
423,-0.664825,1.163086,5.336245,-63.701920,-0.540141,3.221599,4.287749,2.616693,-1.509990,0.998941,0.037697,0.022322,-0.014018
424,0.284042,0.391520,4.196389,-57.087925,-5.416730,1.592429,2.278686,2.512508,-1.434869,0.999478,0.020152,0.021669,-0.012952
425,0.294932,-0.266549,3.178550,-41.825535,-2.771638,-5.942247,0.627316,2.378190,-1.511610,0.999681,0.005746,0.020678,-0.013301
426,-0.370123,-1.015463,2.472088,-27.088345,4.782822,-11.436769,-0.533232,2.412926,-1.801269,0.999646,-0.004321,0.021125,-0.015617
427,0.163286,-1.146825,2.162741,-14.032507,2.183863,-13.372943,-1.236530,2.523407,-2.216205,0.999517,-0.010360,0.022222,-0.019095
428,-0.092235,-1.118713,1.934508,5.237259,3.237860,-20.135592,-1.408092,2.601345,-2.777188,0.999380,-0.011731,0.022988,-0.023946
429,-0.618716,-1.483351,2.582423,14.755300,7.806458,-17.618607,-1.104592,2.772430,-3.410865,0.999225,-0.008912,0.024467,-0.029518
430,-0.268518,-1.096946,3.709512,24.806610,6.550057,-17.255486,-0.474981,3.004156,-3.996039,0.999044,-0.003227,0.026342,-0.034744
431,-0.434652,-0.600991,5.530952,29.044886,5.853808,-7.033312,0.400558,3.211049,-4.401308,0.998860,0.004567,0.027863,-0.038482
432,-0.900662,-0.224397,7.938294,21.539293,5.849807,-6.542295,1.230512,3.410083,-4.625000,0.998673,0.011925,0.029295,-0.040649
433,-1.067360,0.133641,10.809018,3.889270,3.502986,-0.509942,1.647359,3.568766,-4.738896,0.998539,0.015643,0.030514,-0.041766
434,-1.312963,1.015168,13.172306,-3.855044,4.088159,-5.333472,1.641921,3.698065,-4.832929,0.998469,0.015668,0.031630,-0.042598
435,-1.760938,1.053534,14.900528,-16.468184,-1.502768,2.053442,1.299756,3.742491,-4.886658,0.998478,0.012718,0.032139,-0.042976
436,-1.247028,0.782007,15.958134,-22.057005,-5.801129,0.978245,0.660786,3.619687,-4.838303,0.998586,0.007091,0.031311,-0.042370
437,-1.303308,1.104260,15.808867,-14.569669,-9.313742,3.781272,0.055076,3.367362,-4.760561,0.998705,0.001700,0.029336,-0.041528
438,-0.106550,0.225921,15.613435,-17.761248,-11.672784,5.465307,-0.475074,3.017998,-4.605228,0.998842,-0.003083,0.026479,-0.040054
439,0.017130,-0.042144,14.605169,-15.438624,-12.263095,4.709312,-1.019762,2.621298,-4.430267,0.998960,-0.008006,0.023199,-0.038437
440,0.376705,-0.659954,14.359596,-20.103865,-8.619354,0.950107,-1.607776,2.275527,-4.327991,0.999002,-0.013268,0.020370,-0.037470
441,0.602675,-1.368198,13.723191,-21.828190,-5.804832,-5.715678,-2.309352,2.032764,-4.398934,0.998917,-0.019453,0.018495,-0.038007
442,0.263537,-1.970423,13.843524,-20.854345,-0.878167,-8.209962,-3.028626,1.911039,-4.625556,0.998715,-0.025729,0.017723,-0.039895
443,-0.089706,-1.655651,13.516447,-20.284550,2.141984,-12.816363,-3.726054,1.911582,-4.976567,0.998414,-0.031751,0.018068,-0.042844
444,-0.070881,-2.095085,13.924026,-31.104908,-1.618686,-10.763576,-4.595602,1.892021,-5.369219,0.997994,-0.039271,0.018357,-0.046133
445,-0.310823,-2.259859,13.156313,-30.222954,-6.013605,-12.001763,-5.629142,1.731071,-5.736147,0.997466,-0.048282,0.017525,-0.049230
446,-0.675650,-2.107837,12.955692,-35.069584,-6.701548,-7.743227,-6.725689,1.485077,-6.040940,0.996848,-0.057891,0.016010,-0.051838
447,-0.622514,-2.997277,12.141362,-39.055103,-3.768816,3.648673,-7.961977,1.302858,-6.086242,0.996158,-0.068721,0.015011,-0.052168
448,-0.874947,-3.272040,12.066326,-35.183571,2.154732,10.240097,-9.193674,1.309801,-5.852843,0.995465,-0.079452,0.015470,-0.049971
449,-0.917542,-3.671525,12.513669,-22.378809,8.593281,17.453066,-10.142149,1.563317,-5.427214,0.994933,-0.087641,0.017758,-0.045949
450,-0.669429,-4.306640,12.582675,-5.353318,11.926771,25.037323,-10.584265,2.026293,-4.791081,0.994780,-0.091403,0.021446,-0.039984
451,-0.495154,-3.968695,12.534438,34.841125,10.354263,23.689152,-10.063626,2.536124,-4.057419,0.995347,-0.086852,0.025135,-0.033315
452,-0.191736,-2.806150,12.251401,73.011902,2.656214,19.070995,-8.234785,2.861245,-3.386186,0.996726,-0.071011,0.027012,-0.027668
453,0.243934,-1.432528,11.088194,97.004051,-6.471878,15.433825,-5.373772,2.863832,-2.805352,0.998318,-0.046238,0.026101,-0.023273
454,0.321441,-0.225944,9.528329,105.671715,-10.375537,11.943435,-1.976243,2.611435,-2.330085,0.999393,-0.016774,0.023130,-0.019931
455,-0.069882,1.675467,8.293575,95.075012,-10.002583,7.782339,1.380168,2.272727,-1.998885,0.999575,0.012386,0.019617,-0.017677
456,0.001569,2.171579,7.094354,50.636806,-10.016501,7.987796,3.815627,1.927025,-1.751369,0.999179,0.033540,0.016296,-0.015832
457,-0.309494,1.913777,6.704306,4.840222,-5.794528,7.705298,4.747438,1.645614,-1.509043,0.998944,0.041598,0.013801,-0.013751
458,-0.720549,1.692083,6.731467,-25.127272,-1.669000,6.755114,4.415743,1.503175,-1.278003,0.999104,0.038666,0.012677,-0.011649
459,-0.319315,1.947732,6.541491,-49.557369,-2.461007,0.796759,3.174235,1.426693,-1.156536,0.999485,0.027819,0.012165,-0.010433
460,0.187080,1.361992,6.709300,-62.028748,-2.283068,0.206597,1.315119,1.347813,-1.142846,0.999814,0.011592,0.011646,-0.010107
461,-0.220974,0.838975,6.134706,-53.923241,1.632296,3.596507,-0.615330,1.336683,-1.079440,0.999874,-0.005259,0.011714,-0.009356
462,0.176278,0.445015,5.115189,-41.720383,-0.677944,-3.382629,-2.208840,1.352164,-1.075721,0.999703,-0.019162,0.011978,-0.009157
463,-0.090490,-0.145880,4.330509,-22.961300,-0.987001,-9.874547,-3.291784,1.314647,-1.295403,0.999462,-0.028589,0.011791,-0.010969
464,-0.293195,-0.666085,3.070120,-2.190878,1.521010,-7.619971,-3.717633,1.306512,-1.587147,0.999318,-0.032274,0.011843,-0.013472
465,-0.335115,-1.619158,1.560000,13.231327,3.107378,-5.977095,-3.539075,1.369532,-1.818187,0.999332,-0.030684,0.012434,-0.015488
466,-0.088909,-1.963161,1.403676,28.376760,-1.307494,-4.996390,-2.850091,1.389570,-2.002464,0.999470,-0.024652,0.012555,-0.017166
467,-0.536696,-2.047434,1.799672,35.033562,0.494152,-1.017638,-1.795656,1.372225,-2.101840,0.999641,-0.015446,0.012259,-0.018150
468,0.123727,-2.231157,2.255049,29.170490,-1.291720,-1.116564,-0.726549,1.358504,-2.137266,0.999737,-0.006118,0.011971,-0.018573
469,0.037343,-2.220810,4.775935,15.947763,-1.726742,-4.232855,0.023301,1.307632,-2.225984,0.999746,0.000425,0.011405,-0.019425
470,-0.601823,-0.789735,7.858996,4.630246,-1.084667,-10.011487,0.360922,1.261317,-2.463527,0.999703,0.003385,0.010937,-0.021530
471,-1.221921,-0.415387,10.553717,-22.752380,1.068362,-14.604857,0.049821,1.262176,-2.873871,0.999625,0.000711,0.011000,-0.025080
472,-0.640683,-0.265794,13.460671,-38.284618,-3.136824,-15.086439,-0.978206,1.222980,-3.368459,0.999477,-0.008219,0.010918,-0.029297
473,-0.780512,0.108189,15.614375,-34.458870,-7.623403,-10.972771,-2.198748,1.031167,-3.797912,0.999232,-0.018877,0.009628,-0.032957
474,-1.049874,0.123620,15.983251,-22.425835,-8.055579,-7.270084,-3.151068,0.755718,-4.089859,0.998970,-0.027241,0.007569,-0.035488
475,-0.449004,-0.320192,16.015793,-19.626205,-10.341846,-2.783745,-3.853360,0.439447,-4.238631,0.998748,-0.033456,0.005073,-0.036831
476,0.239236,-0.585122,15.400358,-5.465059,-12.661490,0.123896,-4.271476,0.053690,-4.255855,0.998617,-0.037224,0.001852,-0.037088
477,0.111834,-0.614327,14.250330,-0.338585,-8.226968,0.585738,-4.368191,-0.292642,-4.218298,0.998590,-0.038178,-0.001148,-0.036874
478,0.295636,-0.918204,13.367355,-6.970987,-5.126994,3.867049,-4.490637,-0.508826,-4.127214,0.998568,-0.039312,-0.003023,-0.036155
479,0.696447,-1.410803,13.072713,-13.758065,-3.461536,3.251406,-4.837356,-0.641828,-3.997188,0.998478,-0.042370,-0.004121,-0.035080
480,0.685406,-2.081761,13.185301,-15.721788,-0.281024,2.813053,-5.329910,-0.694917,-3.890874,0.998315,-0.046673,-0.004476,-0.034192
481,0.628212,-2.049683,13.811162,-22.921249,3.210779,-2.973687,-5.973838,-0.646548,-3.898230,0.998038,-0.052269,-0.003859,-0.034259
482,0.431133,-2.442690,14.343412,-29.568174,5.968801,-3.252419,-6.847393,-0.505822,-4.018323,0.997583,-0.059836,-0.002310,-0.035260
483,0.321278,-3.030043,14.212405,-32.225639,6.347472,-5.346451,-7.876015,-0.320641,-4.186644,0.996962,-0.068733,-0.000281,-0.036633
484,-0.051800,-3.510942,13.691249,-32.920250,8.164742,-2.936672,-8.961016,-0.101486,-4.358631,0.996220,-0.078097,0.002088,-0.037980
485,0.105313,-3.445417,12.612799,-26.365154,5.144008,-4.175965,-9.949063,0.097644,-4.511825,0.995464,-0.086612,0.004262,-0.039141
486,-0.236633,-3.698567,11.327450,-21.529348,2.131852,1.533485,-10.747375,0.209139,-4.577060,0.994816,-0.093504,0.005555,-0.039585
487,-0.240229,-3.549579,10.494847,-19.474592,0.955527,3.258904,-11.430494,0.274657,-4.508647,0.994266,-0.099413,0.006300,-0.038901
488,-0.113642,-3.561360,10.105659,-27.806540,-3.976775,5.384216,-12.217793,0.254783,-4.357367,0.993609,-0.106257,0.006255,-0.037564
489,0.411260,-4.054892,10.075002,-26.593203,-4.298747,9.028858,-13.123456,0.172824,-4.093001,0.992821,-0.114147,0.005578,-0.035304
490,-0.281697,-4.584823,11.535603,-5.920226,3.745868,11.333989,-13.664076,0.242210,-3.760708,0.992371,-0.118826,0.006001,-0.032328
491,0.232275,-4.390075,11.957676,42.583984,1.983975,11.379766,-13.050815,0.422061,-3.414021,0.993086,-0.113484,0.007043,-0.029177
492,0.280538,-3.596159,11.665808,82.312653,-0.559146,12.246550,-10.966424,0.525974,-3.033196,0.995077,-0.095399,0.007096,-0.025907
493,0.257915,-2.027226,11.220218,105.730621,2.895510,11.874780,-7.830219,0.629048,-2.642583,0.997395,-0.068133,0.007050,-0.022630
494,-0.115172,-0.246645,10.387590,113.129684,0.869417,7.709654,-4.182151,0.724642,-2.325531,0.999113,-0.036352,0.007059,-0.020048
495,-0.120944,0.982157,7.992165,87.894524,-4.929518,9.571331,-0.831913,0.668439,-2.034540,0.999800,-0.007155,0.005961,-0.017711
496,-0.198304,1.615493,6.632669,32.864212,-3.129850,7.685444,1.182056,0.534314,-1.746024,0.999819,0.010385,0.004505,-0.015283
497,-0.098438,1.974990,6.236105,-14.642306,-2.925985,7.083699,1.487708,0.428555,-1.502025,0.999822,0.013030,0.003569,-0.013155
498,-0.430242,2.082948,6.237907,-41.477989,-1.646712,11.769462,0.554508,0.347590,-1.188860,0.999930,0.004870,0.002983,-0.010389
499,-0.082334,1.978280,6.212892,-63.327599,-3.697351,13.321096,-1.189717,0.261155,-0.770042,0.999921,-0.010366,0.002349,-0.006696
500,0.896113,1.667878,6.369224,-73.175285,-5.873226,9.853165,-3.462757,0.117974,-0.377952,0.999538,-0.030210,0.001129,-0.003266
501,0.502422,1.047111,6.483307,-65.795654,-2.494958,9.484453,-5.777616,0.005808,-0.045965,0.998729,-0.050398,0.000071,-0.000398
502,0.474805,0.332038,4.662839,-41.615788,-3.799511,7.141782,-7.567156,-0.066220,0.241821,0.997818,-0.065987,-0.000716,0.002068
503,0.473378,-0.621227,3.299744,-21.887966,-4.652178,-1.933141,-8.625616,-0.193655,0.347250,0.997163,-0.075196,-0.001913,0.002895
504,0.130452,-1.181771,2.367684,-5.984342,-3.114251,-4.110002,-9.089850,-0.336526,0.267314,0.996849,-0.079233,-0.003112,0.002093
505,-0.309823,-1.299685,1.050953,9.945771,-1.283048,0.120787,-9.023499,-0.419194,0.213066,0.996893,-0.078656,-0.003793,0.001566
506,-0.238201,-1.673156,0.953227,17.868395,-3.203591,0.374882,-8.560073,-0.491747,0.232552,0.997201,-0.074622,-0.004431,0.001703
507,0.315071,-1.853082,2.342353,23.726986,-5.568438,-1.695528,-7.866827,-0.639580,0.231674,0.997628,-0.068585,-0.005707,0.001634
508,0.264239,-1.593328,4.223433,21.609173,-2.373991,-3.763597,-7.110373,-0.782762,0.158784,0.998052,-0.061999,-0.006904,0.000959
509,-0.223371,-1.079486,6.323627,22.438744,0.516017,-4.047191,-6.374547,-0.828940,0.032995,0.998427,-0.055596,-0.007239,-0.000115
510,-0.342987,-1.112300,9.649326,2.485519,0.793065,-8.407795,-5.956166,-0.829566,-0.175900,0.998622,-0.051964,-0.007150,-0.001909
511,-0.351997,-0.617824,11.969488,-3.529438,0.107484,-4.766513,-5.970362,-0.837884,-0.395859,0.998609,-0.052101,-0.007122,-0.003831
512,-0.530803,-0.168877,13.878413,-13.767252,-0.354580,-3.330033,-6.256654,-0.856451,-0.529605,0.998469,-0.054605,-0.007210,-0.005023
513,-0.374928,-0.582790,15.077108,-22.094883,-3.690217,2.527766,-6.854257,-0.925079,-0.535185,0.998166,-0.059814,-0.007779,-0.005144
514,0.370184,-1.006683,15.607848,-26.797304,-4.950992,-0.172482,-7.670053,-1.063249,-0.478104,0.997707,-0.066919,-0.008979,-0.004783
515,0.449892,-0.825002,14.999008,-13.175807,-5.555717,0.082066,-8.336721,-1.236687,-0.455260,0.997286,-0.072725,-0.010475,-0.004747
516,0.783379,-1.451547,14.571266,-18.747961,-5.354499,-5.769399,-8.867213,-1.430690,-0.522001,0.996915,-0.077354,-0.012095,-0.005506
517,0.268636,-1.802358,13.695488,-15.631427,-2.318240,-5.371003,-9.435976,-1.586269,-0.684972,0.996492,-0.082325,-0.013304,-0.007095
518,0.596038,-2.002248,12.845123,-12.228699,-1.054027,-5.622668,-9.895468,-1.672395,-0.856135,0.996130,-0.086344,-0.013895,-0.008701
519,0.541703,-2.562517,12.301617,-10.967369,-0.554586,-3.628520,-10.277719,-1.725736,-1.003286,0.995818,-0.089688,-0.014214,-0.010068
520,0.420036,-3.034421,12.101801,-12.122656,0.866922,-1.519661,-10.659971,-1.736246,-1.088625,0.995504,-0.093020,-0.014202,-0.010865
522,0.183066,-2.794557,12.370964,-13.125983,2.525455,-3.615938,-11.077950,-1.696918,-1.183334,0.995154,-0.096659,-0.013741,-0.011706
523,0.332582,-3.609623,13.555536,-18.718960,3.308218,-4.963081,-11.604065,-1.629642,-1.342675,0.994691,-0.101240,-0.012963,-0.013093
524,-0.202534,-3.783792,13.696380,-10.911075,3.662233,-7.419510,-12.091600,-1.558325,-1.568596,0.994233,-0.105489,-0.012080,-0.015043
525,-0.280230,-3.775574,13.313802,-3.504015,2.851988,-6.268280,-12.325267,-1.500236,-1.814576,0.993989,-0.107534,-0.011315,-0.017147
526,-0.040916,-3.827027,12.867464,1.994815,2.037453,-7.501626,-12.344152,-1.469542,-2.056243,0.993937,-0.107717,-0.010818,-0.019216
527,0.273781,-3.587193,11.651443,13.414315,0.308123,-4.677733,-12.082006,-1.474178,-2.262964,0.994144,-0.105464,-0.010712,-0.020989
528,0.275956,-2.894816,10.228302,18.089918,-1.475754,-4.125358,-11.553272,-1.523043,-2.402614,0.994587,-0.100897,-0.011110,-0.022194
529,0.635077,-2.701830,9.387237,8.518066,-2.451656,-2.902935,-11.107007,-1.610153,-2.504598,0.994941,-0.097048,-0.011867,-0.023110
530,0.686824,-2.559773,9.067910,-3.753799,-1.184890,-4.504883,-11.024434,-1.693358,-2.614094,0.994976,-0.096358,-0.012514,-0.024121
531,0.530972,-2.437566,9.586091,-19.104855,1.235211,-4.082158,-11.401244,-1.720473,-2.754635,0.994619,-0.099650,-0.012548,-0.025406
532,0.515018,-3.309157,10.728148,-27.239126,3.061405,0.159773,-12.171325,-1.663882,-2.833187,0.993918,-0.106329,-0.011813,-0.026119
533,0.473706,-4.591311,11.792858,-8.242104,4.225962,3.629468,-12.763671,-1.531919,-2.797611,0.993382,-0.111435,-0.010568,-0.025743
534,0.145316,-3.641188,11.890605,43.707726,4.549883,7.570068,-12.176407,-1.348989,-2.646631,0.993997,-0.106294,-0.009253,-0.024210
535,0.335596,-3.316457,12.397482,67.522942,2.571686,13.463339,-10.329884,-1.164623,-2.325323,0.995665,-0.090205,-0.008293,-0.021122
536,0.538463,-2.428251,11.577990,93.412407,1.013873,15.130038,-7.657657,-1.030917,-1.863685,0.997586,-0.066910,-0.007889,-0.016827
537,0.542543,-0.858540,9.734090,103.855537,0.190813,11.417284,-4.379964,-0.965148,-1.425627,0.999153,-0.038313,-0.007940,-0.012753
538,-0.121259,1.222968,8.147889,85.350334,1.670558,9.744253,-1.235219,-0.918148,-1.074934,0.999865,-0.010853,-0.007910,-0.009466
539,0.385599,1.085773,7.200015,32.827011,0.473062,5.237922,0.729119,-0.881261,-0.825942,0.999925,0.006307,-0.007736,-0.007158
540,0.108361,1.897821,6.235820,7.581875,2.706717,1.099694,1.400852,-0.829934,-0.719319,0.999880,0.012178,-0.007319,-0.006188
541,-0.250927,2.082250,6.145965,-22.529840,4.698278,0.636699,1.151330,-0.707198,-0.687842,0.999913,0.010010,-0.006231,-0.005940
542,-0.309218,2.079161,6.535342,-45.252216,3.786907,2.585121,0.021073,-0.566270,-0.632934,0.999973,0.000157,-0.004943,-0.005522
543,0.367934,2.105251,6.450684,-58.236210,0.013061,4.446795,-1.704557,-0.501315,-0.517005,0.999869,-0.014894,-0.004307,-0.004576
544,0.244012,1.876653,6.960260,-63.816723,0.635647,7.757658,-3.739962,-0.481011,-0.314925,0.999455,-0.032643,-0.004106,-0.002884
545,0.381755,0.880836,6.485120,-54.715149,1.272979,8.646619,-5.716931,-0.427195,-0.045048,0.998749,-0.049870,-0.003704,-0.000579
546,0.585194,-0.298879,5.605750,-33.599541,-1.481929,4.976769,-7.190050,-0.405438,0.181045,0.998025,-0.062698,-0.003630,0.001355
547,0.065014,-0.283912,4.168805,-10.595915,0.474709,0.576729,-7.927247,-0.409898,0.274692,0.997599,-0.069114,-0.003734,0.002144
548,0.734021,-1.763955,3.661535,0.258906,-1.306341,-5.192241,-8.098973,-0.434256,0.200514,0.997495,-0.070611,-0.003904,0.001478
549,-0.121257,-2.288342,2.540185,22.007729,2.067528,-8.645618,-7.726077,-0.453312,-0.029724,0.997720,-0.067372,-0.003929,-0.000525
550,-0.267991,-2.304629,1.917094,32.624451,0.934254,-9.241078,-6.813269,-0.441147,-0.331869,0.998221,-0.059432,-0.003671,-0.003120
551,-0.222314,-2.369776,2.673504,23.934105,-0.572875,-8.891980,-5.868290,-0.468334,-0.632790,0.998664,-0.051209,-0.003799,-0.005724
552,-0.235931,-2.539804,4.419854,19.932703,0.387402,-7.249249,-5.134937,-0.497357,-0.900149,0.998954,-0.044828,-0.003984,-0.008042
553,-0.576671,-1.799746,5.719035,18.538416,-0.932068,-6.731619,-4.491732,-0.525950,-1.131629,0.999171,-0.039231,-0.004199,-0.010047
554,-0.216710,-1.547396,8.376753,-1.685975,-3.298422,-4.177891,-4.209102,-0.610040,-1.307522,0.999244,-0.036781,-0.004901,-0.011598
555,-0.198359,-1.022285,11.013779,-15.229318,-4.255703,-7.076774,-4.488874,-0.750006,-1.484856,0.999124,-0.039243,-0.006032,-0.013204
556,-0.295466,-0.261419,12.698239,-20.149094,-4.876613,-5.411951,-5.075682,-0.919146,-1.679488,0.998875,-0.044390,-0.007363,-0.014996
557,0.264464,-0.747857,13.972880,-28.096489,-8.994727,-3.970345,-5.877288,-1.164334,-1.813055,0.998500,-0.051418,-0.009335,-0.016320
558,-0.036369,-0.960028,14.942179,-32.012039,-8.196129,-2.247257,-6.877322,-1.460745,-1.884314,0.997971,-0.060176,-0.011736,-0.017177
559,0.281600,-0.687829,14.851634,-26.108418,-10.142386,-0.765239,-7.845584,-1.770406,-1.894791,0.997384,-0.068649,-0.014280,-0.017550
560,0.736919,-1.443365,14.806950,-29.120359,-10.148674,1.712786,-8.768125,-2.102850,-1.830526,0.996757,-0.076711,-0.017073,-0.017327
561,0.613083,-2.184482,14.153308,-21.909533,-7.343844,4.791481,-9.624503,-2.373446,-1.676718,0.996129,-0.084166,-0.019408,-0.016314
562,1.033401,-2.358959,13.575097,-19.550653,-5.680928,3.594788,-10.322936,-2.563264,-1.501246,0.995584,-0.090224,-0.021096,-0.015056
563,1.165059,-2.431028,12.748960,-15.484038,-2.640483,4.057121,-10.913731,-2.676029,-1.350151,0.995101,-0.095338,-0.022123,-0.013946
564,1.287704,-3.050903,12.117101,-15.477370,0.980606,3.009387,-11.435369,-2.680384,-1.229022,0.994671,-0.099843,-0.022203,-0.012999
565,1.038747,-3.003206,11.418981,-11.947815,2.626412,1.339797,-11.895140,-2.606788,-1.170002,0.994284,-0.103817,-0.021565,-0.012509
566,1.216958,-2.904824,10.879242,-13.255716,2.868541,-1.837928,-12.313952,-2.518932,-1.197290,0.993913,-0.107449,-0.020732,-0.012743
567,0.828024,-3.025705,10.544459,-11.798699,3.212891,-1.795022,-12.727993,-2.433021,-1.278470,0.993526,-0.111048,-0.019862,-0.013438
568,0.532777,-3.192191,10.848217,-12.802091,2.372892,-1.401044,-13.134964,-2.354198,-1.351263,0.993132,-0.114582,-0.019058,-0.014061
569,0.218359,-3.185275,11.779041,-15.964239,1.778402,-0.898429,-13.612228,-2.295774,-1.404622,0.992650,-0.118721,-0.018438,-0.014542
570,-0.118568,-3.577734,13.015861,-19.067741,1.611918,-0.354370,-14.194739,-2.245977,-1.438522,0.992038,-0.123767,-0.017896,-0.014876
571,-0.401419,-4.311615,14.091660,-19.925777,1.077270,0.193705,-14.844076,-2.203294,-1.452373,0.991327,-0.129384,-0.017427,-0.015049
572,-0.466679,-4.218222,14.077967,-8.451460,-0.479101,1.912779,-15.318213,-2.184566,-1.421066,0.990791,-0.133479,-0.017239,-0.014828
573,-0.080257,-4.230428,13.582030,-0.838750,-2.451571,2.923835,-15.476535,-2.210351,-1.330335,0.990612,-0.134836,-0.017548,-0.014098
574,0.376554,-3.989734,12.130232,9.772350,-4.080280,2.142412,-15.331987,-2.292943,-1.219961,0.990780,-0.133575,-0.018409,-0.013218
575,0.679181,-3.569124,10.192123,17.946533,-3.877852,0.868142,-14.873430,-2.408011,-1.136936,0.991294,-0.129603,-0.019551,-0.012555
576,0.997601,-2.823302,8.790863,15.834332,-3.306167,-2.046240,-14.310920,-2.528918,-1.125827,0.991895,-0.124741,-0.020671,-0.012494
577,0.999472,-2.335253,8.405718,5.287590,-0.598273,-5.633679,-13.954054,-2.623392,-1.234146,0.992247,-0.121677,-0.021413,-0.013468
578,0.710092,-2.100503,8.229529,-8.289827,2.101769,-9.439054,-13.992608,-2.659925,-1.484212,0.992167,-0.122061,-0.021458,-0.015679
579,0.773864,-2.623051,8.729700,-23.458811,4.548388,-10.431486,-14.505689,-2.634244,-1.832802,0.991563,-0.126563,-0.020781,-0.018763
580,0.763575,-3.088449,10.450891,-24.193230,4.661573,-10.874476,-15.282498,-2.577501,-2.215742,0.990626,-0.133342,-0.019717,-0.022148
581,0.320660,-2.819472,11.953809,16.642872,7.173913,-5.885367,-15.394173,-2.461155,-2.537599,0.990455,-0.134343,-0.018312,-0.024814
582,0.050435,-3.749790,12.371147,46.076023,8.055676,-3.409019,-14.340178,-2.254667,-2.752229,0.991643,-0.125224,-0.016518,-0.026278
583,0.777546,-3.349268,12.321467,72.411491,6.114478,-1.669058,-12.360676,-2.043860,-2.888824,0.993666,-0.108054,-0.015012,-0.026976
584,0.175037,-2.501365,12.075869,96.375168,6.218851,1.704637,-9.547561,-1.841510,-2.926652,0.996043,-0.083593,-0.013884,-0.026782
585,-0.051247,-0.959488,9.617510,103.371948,5.986104,5.587808,-6.223865,-1.622825,-2.833956,0.998101,-0.054614,-0.012794,-0.025458
586,0.374504,-0.320666,7.979490,64.928085,2.862779,2.862220,-3.424887,-1.463301,-2.706012,0.999184,-0.030174,-0.012055,-0.023981
587,0.293667,0.920639,7.203190,33.822121,1.533255,4.713126,-1.782930,-1.384568,-2.582992,0.999548,-0.015826,-0.011727,-0.022723
588,-0.380233,1.686783,6.267935,6.756127,2.027785,6.515626,-1.111142,-1.320013,-2.397398,0.999665,-0.009935,-0.011313,-0.021029
589,-0.211401,1.837848,6.086880,-25.589050,-0.716562,8.005454,-1.430527,-1.292345,-2.156018,0.999679,-0.012693,-0.011040,-0.018952
590,-0.082907,1.862489,7.061367,-48.326328,-1.733574,7.781284,-2.668469,-1.323212,-1.891699,0.999522,-0.023471,-0.011158,-0.016771
591,0.107313,1.652495,6.966858,-58.041443,-3.514008,9.871436,-4.448040,-1.391777,-1.592665,0.999070,-0.038969,-0.011596,-0.014358
592,0.635875,1.716833,6.916649,-60.372696,-4.880477,12.088881,-6.430566,-1.496403,-1.215220,0.998277,-0.056218,-0.012442,-0.011319
593,0.424981,0.709872,7.633365,-52.377766,-2.485275,13.794186,-8.320974,-1.563021,-0.771789,0.997243,-0.072634,-0.013115,-0.007706
594,0.773549,0.289242,6.070043,-24.193947,-3.027431,4.321652,-9.605388,-1.607166,-0.458875,0.996378,-0.083772,-0.013640,-0.005164
595,0.359831,-0.144851,4.819241,-2.987357,-0.334815,-1.423569,-10.060057,-1.653910,-0.401977,0.996035,-0.087719,-0.014069,-0.004759
596,0.416537,-1.003422,3.728352,15.000119,0.175278,-4.535175,-9.857029,-1.673590,-0.499391,0.996181,-0.085966,-0.014176,-0.005596
597,0.056660,-1.722339,2.694529,28.380522,0.729262,-11.349998,-9.126266,-1.702297,-0.763138,0.996690,-0.079646,-0.014278,-0.007820
598,0.176486,-2.168236,1.798192,34.917740,0.016922,-13.565656,-8.058936,-1.752141,-1.175746,0.997348,-0.070414,-0.014530,-0.011308
599,0.239617,-2.015134,2.696844,31.521191,0.005351,-11.478470,-6.938865,-1.806205,-1.589716,0.997934,-0.060721,-0.014892,-0.014799
600,0.287307,-2.484631,4.151943,24.552925,1.529130,-7.997077,-5.994100,-1.817283,-1.915255,0.998353,-0.052535,-0.014960,-0.017517
601,0.026541,-1.911032,6.069573,16.667721,1.717798,-8.394068,-5.298444,-1.790249,-2.192680,0.998613,-0.046506,-0.014718,-0.019833
602,0.029787,-1.478936,8.288279,3.019215,1.711116,-7.162438,-4.962189,-1.756695,-2.456168,0.998702,-0.043603,-0.014384,-0.022073
603,-0.244970,-0.825148,10.549503,-9.476055,0.005903,-4.736572,-5.063690,-1.745748,-2.656355,0.998624,-0.044510,-0.014191,-0.023826
604,-0.596928,-0.800043,12.265640,-17.611332,-2.615297,0.574480,-5.513112,-1.795648,-2.721471,0.998421,-0.048445,-0.014505,-0.024470
605,-0.075819,-0.744204,13.317793,-23.055645,-9.740770,5.177851,-6.194695,-1.990945,-2.605072,0.998109,-0.054405,-0.016115,-0.023633
606,0.345319,-0.873018,14.248179,-26.017519,-10.299105,4.553629,-7.019994,-2.304262,-2.405645,0.997677,-0.061618,-0.018780,-0.022179
607,0.028343,-1.088328,14.620344,-22.399250,-11.653343,9.449321,-7.838935,-2.636787,-2.126643,0.997196,-0.068750,-0.021682,-0.020082
608,1.053965,-1.601157,14.318648,-23.424776,-11.337605,7.509498,-8.618907,-2.975914,-1.791811,0.996684,-0.075514,-0.024716,-0.017537
609,1.074127,-2.134295,14.179149,-23.736731,-8.711634,8.568239,-9.422212,-3.263767,-1.474297,0.996105,-0.082457,-0.027323,-0.015155
610,1.140412,-2.569581,13.772502,-20.665710,-4.980212,6.037995,-10.178484,-3.447212,-1.194947,0.995525,-0.088975,-0.029033,-0.013050
611,1.072333,-2.717513,12.691791,-14.773965,-3.394565,8.490486,-10.785187,-3.540297,-0.930843,0.995043,-0.094181,-0.029989,-0.010986
612,1.570383,-3.209001,11.916659,-16.105953,-0.692485,6.329429,-11.315638,-3.560011,-0.674838,0.994613,-0.098720,-0.030330,-0.008920
613,0.990702,-3.255310,11.329525,-13.117907,1.197213,6.181772,-11.815173,-3.509841,-0.471772,0.994201,-0.103001,-0.030038,-0.007245
614,1.098308,-3.252134,10.680637,-11.599036,3.225805,2.993092,-12.235200,-3.405911,-0.337255,0.993853,-0.106609,-0.029235,-0.006092
615,0.763475,-3.153377,10.233172,-10.100454,4.411510,3.989229,-12.601837,-3.256485,-0.250784,0.993549,-0.109767,-0.028003,-0.005293
616,0.361075,-3.252976,10.204052,-11.471315,4.584343,5.929276,-12.968444,-3.073720,-0.122507,0.993242,-0.112917,-0.026528,-0.004091
617,0.183041,-3.110719,9.959967,-8.489302,3.346183,7.402046,-13.310846,-2.894534,0.064065,0.992946,-0.115847,-0.025151,-0.002372
618,0.071029,-2.988518,9.763762,-6.694914,2.114192,8.880027,-13.575901,-2.743016,0.307149,0.992710,-0.118097,-0.024084,-0.000168
619,0.032418,-3.088771,9.694729,-4.890550,0.934949,10.074278,-13.782836,-2.618995,0.602400,0.992517,-0.119836,-0.023318,0.002476
620,0.119245,-2.886550,9.497125,-2.365144,0.454197,9.195988,-13.917541,-2.519693,0.909000,0.992384,-0.120949,-0.022785,0.005208
621,0.154093,-2.900842,9.471400,-3.279167,-0.552945,7.797822,-14.023575,-2.452962,1.184519,0.992268,-0.121819,-0.022505,0.007644
622,0.393365,-2.856133,9.502991,-4.386447,-1.301931,5.538766,-14.160866,-2.428801,1.407820,0.992109,-0.122967,-0.022544,0.009577
623,0.370872,-2.810859,9.599481,-4.542171,-1.164491,3.459446,-14.316289,-2.431721,1.563419,0.991926,-0.124282,-0.022751,0.010890
625,0.442043,-2.693327,9.569047,-5.927811,-0.613369,0.769827,-14.494012,-2.442861,1.639127,0.991723,-0.125803,-0.022948,0.011497
626,0.479884,-2.681839,9.594409,-8.706600,0.045355,-2.064020,-14.737130,-2.457422,1.620626,0.991453,-0.127908,-0.023078,0.011272
627,0.470175,-2.666131,9.587087,-8.759820,1.152058,-3.717403,-15.024016,-2.462831,1.522286,0.991138,-0.130409,-0.023041,0.010358
628,0.458087,-2.641751,9.561144,-8.835327,1.962734,-5.405011,-15.310393,-2.452466,1.361827,0.990825,-0.132919,-0.022791,0.008925
629,0.513833,-2.587411,9.523227,-9.009349,2.722966,-6.736768,-15.598602,-2.431081,1.145784,0.990506,-0.135456,-0.022373,0.007025
630,0.483538,-2.592740,9.543296,-7.957626,3.229400,-6.647196,-15.871200,-2.396055,0.903970,0.990199,-0.137862,-0.021796,0.004925
631,0.485051,-2.549569,9.622634,-8.390468,3.435731,-6.622085,-16.133598,-2.350223,0.660568,0.989897,-0.140179,-0.021114,0.002828
632,0.487008,-2.655599,9.700882,-7.851640,3.585641,-7.249386,-16.393953,-2.302638,0.405651,0.989588,-0.142477,-0.020392,0.000638
633,0.436505,-2.600078,9.656094,-6.274292,4.002738,-7.171478,-16.618790,-2.249642,0.139069,0.989314,-0.144467,-0.019600,-0.001636
634,0.445483,-2.661504,9.752923,-6.126075,3.961568,-6.870428,-16.815302,-2.189801,-0.123435,0.989069,-0.146209,-0.018746,-0.003859
635,0.482531,-2.732411,9.747012,-4.210491,3.712824,-5.990444,-16.978441,-2.129719,-0.365874,0.988859,-0.147656,-0.017909,-0.005901
636,0.443294,-2.843818,9.682572,-1.714136,3.725362,-4.581260,-17.069698,-2.062745,-0.570771,0.988740,-0.148474,-0.017061,-0.007596
637,0.358095,-2.810315,9.629494,-1.439426,3.500369,-3.268411,-17.116598,-1.986062,-0.731301,0.988680,-0.148900,-0.016188,-0.008889
638,0.334922,-2.806925,9.594603,-2.206088,2.808561,-2.460466,-17.173199,-1.913734,-0.853604,0.988607,-0.149402,-0.015400,-0.009858
639,0.215451,-2.714321,9.498347,-2.824039,2.224208,-1.705328,-17.254038,-1.854169,-0.944802,0.988503,-0.150109,-0.014760,-0.010577
640,0.169324,-2.582344,9.423575,-4.694333,1.618023,-1.887936,-17.376907,-1.810869,-1.021079,0.988340,-0.151176,-0.014274,-0.011194
641,0.112388,-2.538864,9.473413,-6.676793,0.969914,-2.004466,-17.564075,-1.789213,-1.095957,0.988088,-0.152798,-0.013969,-0.011834
642,0.149183,-2.424949,9.384885,-6.588576,0.072939,-1.560319,-17.783222,-1.790702,-1.157885,0.987787,-0.154695,-0.013876,-0.012397
643,0.184126,-2.410613,9.460076,-6.763823,-0.263311,-0.810113,-18.004608,-1.805870,-1.194535,0.987480,-0.156608,-0.013933,-0.012760
644,0.270530,-2.384335,9.537861,-6.627149,-0.759674,-0.017299,-18.227543,-1.826377,-1.202346,0.987170,-0.158532,-0.014074,-0.012883
645,0.305004,-2.471322,9.671603,-6.276729,-1.406465,1.462026,-18.443705,-1.853086,-1.168119,0.986869,-0.160391,-0.014327,-0.012652
646,0.333892,-2.482161,9.622867,-5.161311,-2.042270,3.056155,-18.637260,-1.883663,-1.078403,0.986601,-0.162048,-0.014696,-0.011947
647,0.308162,-2.551614,9.698237,-5.717547,-2.638442,4.510788,-18.823362,-1.917077,-0.933840,0.986346,-0.163633,-0.015171,-0.010774
648,0.235304,-2.685247,9.626010,-5.503547,-3.495765,6.574936,-19.017403,-1.953894,-0.725792,0.986080,-0.165277,-0.015769,-0.009062
649,0.211118,-2.835528,9.553259,-4.886642,-4.293021,8.560467,-19.200251,-1.994009,-0.444777,0.985828,-0.166811,-0.016509,-0.006728
650,0.276944,-2.888558,9.511678,-4.961787,-5.085303,9.032974,-19.375961,-2.044722,-0.116183,0.985578,-0.168274,-0.017418,-0.004002
651,0.376409,-3.044491,9.525656,-4.646502,-5.716641,9.211320,-19.548693,-2.113161,0.230716,0.985321,-0.169702,-0.018514,-0.001147
652,0.484825,-3.141058,9.465669,-2.928988,-5.908960,8.962058,-19.688137,-2.193988,0.581314,0.985100,-0.170838,-0.019730,0.001724
653,0.632763,-3.147618,9.488372,-1.829601,-5.715782,7.242062,-19.779953,-2.285207,0.901169,0.984940,-0.171563,-0.020994,0.004321
654,0.679290,-3.256784,9.460549,0.149328,-5.071845,5.337413,-19.818501,-2.383371,1.159536,0.984854,-0.171835,-0.022227,0.006387
655,0.668368,-3.348361,9.408507,1.940107,-3.536774,3.987579,-19.791943,-2.465735,1.354532,0.984868,-0.171558,-0.023225,0.007944
656,0.640090,-3.297873,9.382451,3.277444,-2.001126,2.182188,-19.710550,-2.517884,1.482611,0.984972,-0.170824,-0.023859,0.008984
657,0.642263,-3.286511,9.387043,4.429041,-0.349135,0.779565,-19.584742,-2.538203,1.542317,0.985150,-0.169727,-0.024112,0.009493
658,0.593181,-3.383533,9.326248,6.785011,0.510049,-0.565295,-19.397945,-2.534505,1.544780,0.985426,-0.168121,-0.024068,0.009559
659,0.577556,-3.260535,9.316400,7.352520,1.078204,-2.721306,-19.159651,-2.527626,1.484272,0.985780,-0.166085,-0.023902,0.009098
660,0.542034,-3.214956,9.290463,7.504731,1.636745,-4.037312,-18.906681,-2.521621,1.362916,0.986154,-0.163935,-0.023656,0.008115
661,0.467066,-3.200003,9.270150,8.468501,2.134001,-4.576529,-18.633608,-2.508337,1.206614,0.986555,-0.161618,-0.023302,0.006845
662,0.374098,-3.134927,9.243487,8.515911,2.649879,-5.063175,-18.342791,-2.483670,1.028788,0.986975,-0.159152,-0.022825,0.005407
663,0.345701,-3.040107,9.317824,7.513766,2.801787,-4.767227,-18.067713,-2.448557,0.844587,0.987368,-0.156822,-0.022257,0.003922
664,0.324418,-3.062611,9.370752,7.792309,2.434168,-3.457100,-17.805946,-2.407755,0.687155,0.987736,-0.154600,-0.021684,0.002671
665,0.296882,-2.970274,9.386306,8.383898,1.741144,-2.248182,-17.531685,-2.370281,0.575335,0.988111,-0.152260,-0.021206,0.001809
666,0.362243,-2.912060,9.410975,7.643870,0.983752,-1.566444,-17.261503,-2.345921,0.501033,0.988473,-0.149945,-0.020895,0.001250
667,0.378845,-2.947889,9.519570,7.028318,0.249906,-0.827931,-17.015160,-2.338020,0.456812,0.988795,-0.147828,-0.020767,0.000924
668,0.437994,-2.881600,9.500485,7.024191,-0.489306,-0.523593,-16.780119,-2.348370,0.436410,0.989094,-0.145802,-0.020828,0.000777
669,0.454175,-2.818993,9.454721,5.998291,-0.823599,-0.101851,-16.562923,-2.372314,0.432709,0.989365,-0.143927,-0.021029,0.000754
670,0.461635,-2.765285,9.509681,4.782218,-1.042302,0.681303,-16.384003,-2.399390,0.450809,0.989583,-0.142377,-0.021284,0.000910
671,0.444976,-2.796354,9.455345,5.198610,-1.255017,1.595798,-16.219641,-2.425473,0.498027,0.989781,-0.140947,-0.021566,0.001316
672,0.488023,-2.700936,9.401196,4.444880,-1.208048,1.881066,-16.061769,-2.448787,0.565162,0.989969,-0.139569,-0.021847,0.001897
673,0.445898,-2.756850,9.358506,3.760146,-0.934521,2.094280,-15.928171,-2.464850,0.638759,0.990127,-0.138399,-0.022073,0.002539
674,0.467940,-2.836353,9.379818,3.677778,-0.531713,1.369783,-15.806888,-2.472566,0.701031,0.990270,-0.137339,-0.022211,0.003091
675,0.486641,-2.926162,9.316501,3.343269,-0.066804,-0.096412,-15.690872,-2.476414,0.724184,0.990407,-0.136331,-0.022269,0.003309
676,0.446036,-2.927001,9.391803,1.500560,0.472224,-1.873732,-15.608693,-2.478778,0.690711,0.990505,-0.135627,-0.022247,0.003033
677,0.293019,-2.965358,9.468648,1.665101,0.910953,-2.093105,-15.552912,-2.474345,0.620770,0.990574,-0.135159,-0.022125,0.002445
678,0.187665,-2.791488,9.625394,2.360412,1.043308,-1.412579,-15.483023,-2.458594,0.555696,0.990660,-0.134568,-0.021911,0.001914
679,0.165816,-2.586483,9.660430,3.246466,0.845214,0.350917,-15.388487,-2.432956,0.530239,0.990776,-0.133758,-0.021658,0.001742
680,0.160607,-2.455128,9.719918,4.086819,-0.126383,2.982310,-15.268400,-2.406703,0.580694,0.990919,-0.132712,-0.021488,0.002232
681,0.314912,-2.357895,9.671398,5.262061,-1.142737,6.056666,-15.118911,-2.387612,0.731757,0.991091,-0.131392,-0.021493,0.003588
682,0.621865,-2.341430,9.402063,3.899505,-1.987878,6.932238,-14.975494,-2.381774,0.954557,0.991247,-0.130110,-0.021691,0.005549
683,0.879182,-2.563374,9.245053,-0.923601,-1.535442,5.001941,-14.934539,-2.387144,1.162062,0.991281,-0.129715,-0.021970,0.007346
684,0.952672,-2.810851,9.135138,-3.495078,0.784029,0.509787,-15.012012,-2.375443,1.254122,0.991188,-0.130369,-0.021979,0.008140
685,0.968626,-2.876094,9.114612,-5.228433,5.625263,-5.610446,-15.152910,-2.294378,1.144156,0.991048,-0.131618,-0.021161,0.007256
686,0.893409,-3.077460,9.167581,-7.398743,10.737332,-14.283799,-15.348260,-2.118428,0.752263,0.990869,-0.133393,-0.019196,0.004036
687,0.450420,-3.261988,9.339884,-7.542943,15.281443,-21.555090,-15.573228,-1.859622,0.060580,0.990650,-0.135458,-0.016150,-0.001675
688,0.074400,-3.367392,9.273417,-5.648004,17.422836,-25.118727,-15.766403,-1.544786,-0.835924,0.990420,-0.137235,-0.012352,-0.009074
689,-0.109095,-3.426778,9.271070,-6.899480,16.865652,-24.627539,-15.952468,-1.221472,-1.789776,0.990126,-0.138902,-0.008388,-0.016945
690,-0.253295,-3.580891,9.143851,-8.286728,14.854360,-22.029524,-16.188774,-0.928842,-2.683467,0.989707,-0.140949,-0.004726,-0.024322
691,-0.459304,-3.602342,9.084733,-9.840991,11.594246,-15.743590,-16.480631,-0.683047,-3.411653,0.989194,-0.143435,-0.001630,-0.030314
692,-0.299583,-3.575349,9.096847,-10.663115,7.267319,-8.615052,-16.817467,-0.498426,-3.890735,0.988649,-0.146294,0.000664,-0.034217
693,-0.115043,-3.447496,9.135083,-9.993057,3.924640,-2.881642,-17.159950,-0.376251,-4.128549,0.988144,-0.149209,0.002129,-0.036107
694,0.005352,-3.390152,9.151233,-10.966700,0.946996,0.969898,-17.508980,-0.308390,-4.183187,0.987673,-0.152196,0.002897,-0.036481
695,0.206499,-3.265309,9.196527,-13.081935,-1.742697,4.046564,-17.910242,-0.295711,-4.099553,0.987161,-0.155652,0.003020,-0.035733
696,0.414516,-3.447292,9.351473,-16.484236,-3.091567,5.892368,-18.403999,-0.320746,-3.917094,0.986535,-0.159916,0.002704,-0.034184
697,0.494208,-3.476845,9.604838,-21.864916,-2.734993,4.683626,-19.044310,-0.356164,-3.719005,0.985681,-0.165441,0.002304,-0.032515
698,0.257944,-3.571707,9.870337,-28.736639,-1.743228,4.013676,-19.888672,-0.378090,-3.557459,0.984478,-0.172708,0.002112,-0.031143
699,0.243834,-3.770684,9.948509,-33.325535,-1.236949,3.379159,-20.923840,-0.381540,-3.424616,0.982913,-0.181598,0.002153,-0.029988
700,0.246566,-4.232985,9.783826,-37.028069,-0.840277,1.298588,-22.096848,-0.385059,-3.339380,0.981025,-0.191652,0.002287,-0.029241
701,0.200276,-4.346755,9.361976,-38.693012,-0.281986,-3.688499,-23.358517,-0.417497,-3.368929,0.978845,-0.202449,0.002384,-0.029524
702,0.117868,-4.536630,8.686350,-38.989883,-0.603194,-8.904354,-24.651548,-0.515908,-3.554771,0.976440,-0.213501,0.002225,-0.031262
703,0.342667,-4.759542,8.225449,-39.243168,-2.015118,-15.036560,-25.951540,-0.725433,-3.897061,0.973834,-0.224614,0.001469,-0.034553
704,0.434199,-4.945577,7.861577,-38.882668,-2.778586,-21.133884,-27.245544,-1.066276,-4.400679,0.971025,-0.235692,0.000006,-0.039502
705,0.359791,-4.961053,7.797964,-37.454285,-2.448481,-24.443378,-28.503496,-1.497870,-5.031814,0.968065,-0.246481,-0.001851,-0.045757
706,0.306468,-5.089564,7.874538,-36.444057,-2.405942,-24.700842,-29.714514,-1.966580,-5.708416,0.965007,-0.256882,-0.003800,-0.052518
707,0.410924,-5.278489,8.035696,-34.309532,-2.763784,-21.129732,-30.869926,-2.426113,-6.324882,0.961939,-0.266805,-0.005697,-0.058791
708,0.469645,-5.517790,8.038765,-31.560301,-2.635801,-15.688324,-31.945713,-2.822820,-6.802067,0.959006,-0.276019,-0.007319,-0.063783
709,0.330551,-5.646286,8.051363,-28.228474,-2.414424,-10.078212,-32.925579,-3.124418,-7.119591,0.956318,-0.284364,-0.008505,-0.067234
710,0.280326,-5.790977,8.017530,-25.322170,-4.009515,-4.344573,-33.809982,-3.346279,-7.261505,0.953923,-0.291847,-0.009473,-0.069037
711,0.330241,-5.758092,8.023783,-22.179760,-5.916904,2.354098,-34.605484,-3.502074,-7.195739,0.951850,-0.298526,-0.010461,-0.068956
712,0.341123,-5.872252,7.978335,-18.323225,-7.173601,7.848279,-35.296783,-3.583876,-6.930789,0.950154,-0.304274,-0.011427,-0.067036
713,0.370890,-5.881584,8.027699,-14.236135,-8.237021,11.747585,-35.865414,-3.603060,-6.514838,0.948862,-0.308950,-0.012375,-0.063699
714,0.597598,-5.949115,8.290087,-11.623481,-8.274644,13.968562,-36.328228,-3.573185,-6.005354,0.947893,-0.312712,-0.013261,-0.059454
715,0.702338,-5.868731,8.501473,-7.776528,-6.718512,14.850060,-36.684509,-3.488454,-5.469582,0.947216,-0.315567,-0.013851,-0.054836
716,0.811016,-5.768737,8.557920,-3.575236,-5.065695,13.308337,-36.903175,-3.364794,-4.975194,0.946886,-0.317277,-0.014092,-0.050438
717,0.860468,-5.450013,8.633869,-1.621441,-3.430760,10.790177,-37.013180,-3.236592,-4.568404,0.946799,-0.318102,-0.014113,-0.046737
718,0.882150,-5.228879,8.608803,-0.522760,-2.015677,8.942768,-37.066486,-3.110981,-4.250705,0.946818,-0.318474,-0.013936,-0.043772
719,0.791241,-4.985087,8.383777,3.881934,-1.270881,8.061687,-37.024277,-2.983982,-3.991127,0.947072,-0.318065,-0.013623,-0.041271
720,0.730121,-4.937371,8.215178,5.558597,-0.907883,7.434621,-36.878574,-2.857833,-3.762565,0.947594,-0.316807,-0.013263,-0.039017
721,0.554332,-4.977386,8.131226,5.282194,-0.534227,8.853513,-36.709171,-2.714525,-3.530490,0.948180,-0.315352,-0.012773,-0.036684
722,0.568768,-5.343327,8.068957,6.908772,-1.091435,10.115543,-36.518372,-2.547698,-3.260300,0.948832,-0.313712,-0.012192,-0.033971
723,0.588993,-5.485217,8.060497,7.401500,-1.363457,9.598601,-36.292320,-2.385639,-2.971293,0.949572,-0.311783,-0.011702,-0.031113
724,0.573904,-5.515491,8.286116,7.068752,-1.048426,8.799909,-36.062115,-2.237097,-2.699813,0.950302,-0.309825,-0.011267,-0.028438
725,0.508243,-5.515014,8.351802,8.837329,-0.297005,8.073601,-35.806110,-2.090225,-2.458779,0.951080,-0.307658,-0.010758,-0.026019
726,0.524002,-5.529251,8.302473,10.985923,0.449650,6.654488,-35.482689,-1.945163,-2.260648,0.952017,-0.304936,-0.010153,-0.023957
728,0.464820,-5.355798,8.253397,14.928006,0.174253,5.262895,-35.055916,-1.822056,-2.104377,0.953201,-0.301361,-0.009629,-0.022296
729,0.427881,-5.182707,8.191469,20.337473,-0.216674,4.374059,-34.472282,-1.731132,-1.971900,0.954764,-0.296481,-0.009328,-0.020908
730,0.407761,-5.129016,7.982510,26.871679,-0.729455,3.686405,-33.689064,-1.668991,-1.851679,0.956800,-0.289932,-0.009256,-0.019683
731,0.488081,-5.000873,7.878952,32.105392,-1.409257,2.098434,-32.709080,-1.646103,-1.751376,0.959265,-0.281729,-0.009479,-0.018707
732,0.528776,-4.925397,7.926872,37.111156,-2.199218,0.447058,-31.557558,-1.674573,-1.683331,0.962054,-0.272072,-0.010067,-0.018107
733,0.550301,-4.873001,8.005949,40.072853,-1.408442,-1.766620,-30.271675,-1.737558,-1.671189,0.965038,-0.261264,-0.010828,-0.018034
734,0.574869,-4.808264,8.009497,43.146225,-0.081513,-6.031325,-28.881773,-1.823510,-1.771973,0.968106,-0.249558,-0.011552,-0.018940
735,0.549081,-4.728697,8.075602,45.798485,1.272387,-10.484694,-27.391359,-1.936214,-2.024094,0.971206,-0.236984,-0.012232,-0.021158
736,0.389635,-4.497459,8.330406,47.802155,2.249245,-13.129413,-25.818485,-2.060407,-2.402358,0.974269,-0.223690,-0.012839,-0.024446
737,0.333506,-3.791326,8.543681,50.661915,2.934197,-16.074339,-24.160080,-2.187953,-2.880219,0.977269,-0.209643,-0.013405,-0.028565
738,0.198636,-3.151878,8.874137,50.273003,3.271384,-16.550682,-22.457045,-2.308342,-3.420740,0.980105,-0.195186,-0.013938,-0.033190
739,-0.002544,-2.779403,9.457429,47.729679,2.695853,-14.050343,-20.803068,-2.403947,-3.931802,0.982642,-0.181107,-0.014428,-0.037519
740,-0.050266,-2.178237,9.800762,46.144310,0.781222,-10.492541,-19.221590,-2.489251,-4.336266,0.984889,-0.167606,-0.015086,-0.040916
741,0.155989,-1.827871,9.929733,42.074238,-1.657405,-7.489511,-17.739124,-2.597670,-4.616002,0.986846,-0.154923,-0.016170,-0.043272
742,0.253714,-1.854516,10.031344,35.652119,-3.938597,-5.755792,-16.435284,-2.751357,-4.799585,0.988436,-0.143762,-0.017757,-0.044859
743,0.317847,-1.709056,9.833821,33.674164,-5.679191,-4.281139,-15.274126,-2.951101,-4.916604,0.989743,-0.133826,-0.019800,-0.045917
744,0.310687,-1.633116,9.456463,30.248257,-7.107654,-1.374849,-14.206857,-3.181020,-4.953451,0.990867,-0.124688,-0.022176,-0.046294
745,0.519987,-1.859862,9.411503,22.010254,-8.665381,0.230504,-13.338459,-3.440628,-4.909208,0.991725,-0.117255,-0.024818,-0.046002
746,0.484510,-1.981437,9.516341,16.446848,-8.655541,1.340977,-12.703186,-3.715823,-4.818246,0.992311,-0.111828,-0.027546,-0.045338
747,0.594199,-2.147311,9.478109,12.791319,-8.311326,4.715378,-12.226602,-3.970057,-4.658196,0.992746,-0.107743,-0.030088,-0.044070
748,0.730542,-2.514275,9.587962,5.961362,-7.860080,6.464363,-11.931023,-4.194461,-4.418961,0.993033,-0.105186,-0.032366,-0.042119
749,0.995408,-2.389127,9.551385,1.890772,-7.256722,5.287142,-11.818422,-4.400557,-4.174673,0.993149,-0.104199,-0.034416,-0.040153
750,0.983031,-2.088258,9.250890,-0.002734,-4.600617,4.044972,-11.802074,-4.562101,-3.981335,0.993171,-0.104042,-0.035998,-0.038615
751,0.834254,-1.887292,9.254470,-6.180587,-2.912132,2.847288,-11.916261,-4.661011,-3.842719,0.993075,-0.105014,-0.036944,-0.037538
752,0.758863,-1.885996,9.499887,-10.004452,-1.189380,0.845211,-12.192118,-4.714937,-3.767954,0.992823,-0.107393,-0.037391,-0.037028
753,0.781904,-1.725701,9.661164,-7.449952,-0.322490,-1.742524,-12.482266,-4.742682,-3.777173,0.992534,-0.109916,-0.037529,-0.037228
754,0.782510,-1.887203,10.053546,-3.942971,0.260357,-5.259458,-12.662696,-4.769036,-3.891241,0.992312,-0.111523,-0.037587,-0.038300
755,0.755465,-2.104560,10.405429,4.507328,0.938253,-9.878102,-12.632312,-4.804706,-4.142670,0.992241,-0.111352,-0.037662,-0.040501
756,0.817490,-2.063023,10.180878,19.292812,1.406650,-14.439992,-12.201501,-4.853537,-4.548350,0.992484,-0.107769,-0.037856,-0.043918
757,0.692634,-1.745143,9.857334,31.038498,1.809577,-17.724550,-11.316920,-4.910003,-5.086052,0.993047,-0.100302,-0.038213,-0.048332
758,0.586131,-1.493835,9.702260,37.512455,2.189398,-18.984991,-10.121552,-4.958051,-5.701831,0.993748,-0.090164,-0.038648,-0.053308
759,0.577310,-1.250257,9.590308,42.713013,1.907711,-17.996033,-8.730773,-4.991445,-6.323302,0.994454,-0.078323,-0.039158,-0.058250
760,0.480731,-0.978741,9.604432,47.392616,1.809066,-14.606430,-7.181475,-5.004969,-6.871973,0.995129,-0.065069,-0.039749,-0.062488
761,0.746311,-0.906974,9.639088,48.113396,1.825894,-11.567489,-5.551557,-4.992581,-7.313829,0.995713,-0.051058,-0.040329,-0.065752
762,1.052835,-1.020081,9.923153,43.263348,1.452609,-10.579483,-3.996508,-4.968482,-7.687558,0.996105,-0.037662,-0.040886,-0.068441
763,1.341790,-1.105637,10.150200,38.934891,1.242874,-13.972776,-2.591132,-4.947166,-8.100101,0.996250,-0.025580,-0.041445,-0.071517
764,1.544525,-0.929917,10.227456,35.652618,1.606003,-21.429600,-1.297149,-4.920201,-8.693485,0.996104,-0.014530,-0.041940,-0.076202
765,1.653786,-0.741086,10.101869,27.632999,1.752561,-30.544847,-0.168246,-4.876129,-9.563443,0.995611,-0.005008,-0.042269,-0.083347
766,1.720619,-0.657252,10.226401,17.282940,-0.065239,-43.532146,0.685234,-4.843647,-10.802231,0.994677,0.001970,-0.042630,-0.093790
767,1.752727,-0.442003,9.959930,12.981535,-2.027724,-58.730286,1.334288,-4.850125,-12.512683,0.993140,0.006953,-0.043326,-0.108382
768,1.557777,0.004633,9.734952,8.894778,-3.038276,-72.071350,1.884543,-4.874386,-14.701358,0.990840,0.010855,-0.044271,-0.127115
769,1.249686,0.083926,9.767136,0.345414,-4.839437,-81.974304,2.258590,-4.913784,-17.280060,0.987678,0.013028,-0.045331,-0.149224
770,1.150704,0.146710,9.880755,-1.921872,-6.902709,-91.031380,2.482811,-4.991730,-20.178179,0.983537,0.013683,-0.046655,-0.174043
771,0.995409,0.467955,9.809225,1.745838,-7.044803,-97.158951,2.757096,-5.080990,-23.331879,0.978313,0.014578,-0.048257,-0.200904
772,0.855517,0.592967,9.811337,4.447791,-6.177530,-101.469841,3.156405,-5.129441,-26.659721,0.972000,0.016459,-0.049869,-0.229039
773,0.864436,0.655708,9.872808,7.482153,-5.750484,-105.876160,3.665144,-5.121673,-30.131845,0.964541,0.019241,-0.051426,-0.258158
774,0.841543,0.939612,9.740624,13.879273,-4.755788,-109.940239,4.340818,-5.044599,-33.742756,0.955829,0.023443,-0.053064,-0.288140
775,0.688202,1.112807,9.661762,14.204240,-3.998625,-111.002724,5.127804,-4.884627,-37.434361,0.945918,0.028668,-0.054661,-0.318479
776,0.539131,1.082970,9.781919,8.613372,-4.271926,-107.433357,5.811473,-4.674938,-41.080112,0.935170,0.033139,-0.055915,-0.348183
777,0.257348,1.192866,10.129260,3.249456,-5.222454,-99.830376,6.284973,-4.469860,-44.539349,0.924126,0.035935,-0.056793,-0.376130
778,0.012254,1.128953,10.147376,0.474762,-5.728866,-89.741112,6.589410,-4.298363,-47.705799,0.913304,0.037386,-0.057466,-0.401466
779,0.158004,1.153330,9.953424,-2.679428,-7.004142,-81.341469,6.764499,-4.178277,-50.568184,0.902945,0.037767,-0.058086,-0.424135
780,0.474747,1.171402,9.924184,-6.402122,-8.052302,-78.058769,6.806888,-4.114270,-53.241222,0.892796,0.036983,-0.058618,-0.445097
781,0.452038,1.124641,9.855556,-8.059465,-7.393198,-78.940758,6.754014,-4.061738,-55.875191,0.882348,0.035434,-0.058834,-0.465558
782,0.390903,1.138961,9.721620,-11.232271,-7.302284,-82.606956,6.622637,-3.991743,-58.582954,0.871142,0.033334,-0.058566,-0.486385
783,0.372828,1.148557,9.897806,-16.293531,-9.101277,-86.392059,6.360191,-3.945508,-61.417454,0.858917,0.030115,-0.057864,-0.507943
784,0.053432,0.949144,9.965500,-25.117523,-9.643809,-89.600777,5.873938,-3.944492,-64.372215,0.845649,0.025030,-0.056365,-0.530164
785,-0.232288,0.839434,10.020341,-27.540747,-9.431484,-87.541290,5.202297,-3.977716,-67.346237,0.831729,0.018523,-0.054000,-0.552238
786,-0.242577,0.843847,9.929165,-24.086010,-11.646921,-81.681374,4.542459,-4.088800,-70.191071,0.817844,0.011910,-0.051936,-0.572967
787,-0.033674,0.924745,9.790693,-19.211100,-12.942853,-73.843742,4.013623,-4.303666,-72.811920,0.804552,0.005893,-0.050970,-0.591662
788,0.249707,1.057084,9.546809,-16.980364,-12.378365,-65.989792,3.593703,-4.569526,-75.171242,0.792186,0.000524,-0.050686,-0.608171
789,0.526901,1.021706,9.741351,-12.977941,-11.009897,-55.199852,3.262477,-4.837734,-77.216774,0.781166,-0.004100,-0.050714,-0.622247
790,0.630642,0.977535,9.799370,-8.961406,-10.429610,-44.594681,3.043124,-5.102778,-78.903000,0.771877,-0.007793,-0.051217,-0.633658
791,0.824729,1.119173,9.869440,-5.225266,-8.421757,-35.430401,2.930207,-5.346798,-80.256706,0.764289,-0.010523,-0.052112,-0.642678
792,1.111174,1.113597,9.870433,2.818240,-5.904031,-25.519003,2.987887,-5.532577,-81.288033,0.758449,-0.011666,-0.053569,-0.649422
793,0.884175,0.739686,10.064328,14.629392,-2.765785,-14.955378,3.345315,-5.639012,-81.972878,0.754572,-0.010242,-0.056237,-0.653723
794,0.665110,0.768362,9.766260,23.833958,-0.376222,-7.238281,4.023187,-5.666687,-82.347305,0.752477,-0.006133,-0.060265,-0.655827
795,0.842238,0.697031,9.969314,23.212259,1.935712,-2.512685,4.823052,-5.627625,-82.508209,0.751583,-0.000747,-0.064585,-0.656469
796,0.711893,0.566105,10.044254,24.001341,4.485328,0.745400,5.611791,-5.518106,-82.528008,0.751461,0.005045,-0.068388,-0.656204
797,0.471373,0.460019,10.026642,18.670860,4.611692,1.115840,6.318496,-5.370339,-82.481308,0.751682,0.010559,-0.071464,-0.655557
798,0.661139,0.739054,9.830966,9.216017,4.396017,-1.675564,6.782535,-5.220094,-82.473473,0.751673,0.014472,-0.073137,-0.655309
799,0.846261,0.876187,10.082963,4.807492,3.328249,-4.231345,7.023711,-5.080547,-82.556175,0.751159,0.016804,-0.073617,-0.655788
800,0.682304,1.091275,9.813177,6.211971,2.938407,-6.083797,7.221244,-4.955664,-82.714447,0.750213,0.018716,-0.073959,-0.656780
801,0.715388,1.170845,9.733217,1.881260,1.453355,-7.352391,7.374414,-4.854626,-82.928055,0.748953,0.020163,-0.074216,-0.658145
802,0.718053,1.247756,9.841659,-0.754505,1.794647,-7.254660,7.412962,-4.769694,-83.163353,0.747585,0.020754,-0.073928,-0.659713
803,0.688351,1.281859,9.890808,-0.926041,1.982535,-4.721612,7.400640,-4.681580,-83.353844,0.746480,0.021062,-0.073320,-0.661021
804,0.755652,1.253979,9.829794,-0.251464,1.865344,-1.306753,7.388424,-4.605058,-83.445534,0.745944,0.021369,-0.072770,-0.661676
805,0.807345,1.248589,9.816284,-0.116978,1.493770,1.809511,7.381026,-4.550614,-83.429977,0.746029,0.021646,-0.072372,-0.661615
806,0.867324,1.255776,9.814584,-0.081477,1.249564,4.073212,7.369529,-4.517858,-83.326546,0.746625,0.021827,-0.072073,-0.660969
807,0.931453,1.289935,9.780481,0.351773,0.774575,5.145219,7.361661,-4.504098,-83.169357,0.747531,0.021954,-0.071909,-0.659959
808,1.012207,1.291200,9.807731,0.562620,-0.167196,5.394737,7.363048,-4.516574,-82.993294,0.748545,0.022001,-0.071964,-0.658800
809,1.064229,1.332760,9.783273,1.081730,-1.107761,4.979623,7.377048,-4.559830,-82.824020,0.749519,0.021950,-0.072293,-0.657657
810,1.092838,1.318933,9.808647,1.278915,-1.799088,4.287464,7.404572,-4.627750,-82.676605,0.750367,0.021831,-0.072866,-0.656630
811,1.129676,1.281646,9.852060,2.164011,-2.393171,3.672941,7.451933,-4.714191,-82.553665,0.751071,0.021722,-0.073677,-0.655738
812,1.159103,1.359964,9.786257,4.086184,-2.713219,3.186940,7.547573,-4.813503,-82.451073,0.751650,0.021844,-0.074853,-0.654937
813,1.110991,1.417154,9.774405,3.971310,-2.440043,2.921793,7.674243,-4.912137,-82.361221,0.752149,0.022168,-0.076203,-0.654197
814,1.057595,1.420502,9.800301,3.445225,-2.128526,2.979650,7.790288,-5.000821,-82.273682,0.752635,0.022479,-0.077427,-0.653483
815,1.041418,1.434641,9.802745,3.269664,-1.893709,3.268617,7.893913,-5.081436,-82.179314,0.753161,0.022761,-0.078526,-0.652736
816,1.001363,1.484052,9.771296,2.598257,-1.560754,3.615208,7.982250,-5.154299,-82.073212,0.753755,0.022997,-0.079484,-0.651926
817,0.961166,1.418522,9.797350,1.083369,-1.262417,4.097252,8.032654,-5.218791,-81.951965,0.754440,0.023044,-0.080169,-0.651047
818,0.984968,1.401603,9.792519,1.201500,-1.248793,4.139539,8.058790,-5.279431,-81.821350,0.755183,0.022961,-0.080688,-0.650124
819,0.974201,1.401562,9.799554,1.541118,-1.033451,3.935344,8.092618,-5.335999,-81.692902,0.755910,0.022952,-0.081225,-0.649212
820,0.969396,1.433839,9.784810,2.041695,-0.902583,3.592796,8.141103,-5.385662,-81.572708,0.756585,0.023074,-0.081801,-0.648348
821,0.978696,1.460972,9.778168,2.387415,-0.831156,3.137818,8.204801,-5.430218,-81.465302,0.757184,0.023318,-0.082432,-0.647560
822,0.998078,1.507191,9.811189,2.380998,-0.793044,2.362365,8.275987,-5.470150,-81.378075,0.757666,0.023624,-0.083079,-0.646902
823,0.953089,1.518722,9.802152,2.255718,-0.493909,1.799444,8.346972,-5.501406,-81.312241,0.758026,0.023964,-0.083671,-0.646392
824,0.953591,1.481734,9.820683,1.889759,-0.381218,1.461378,8.411079,-5.523757,-81.260361,0.758307,0.024299,-0.084169,-0.645985
825,0.954373,1.502406,9.778354,2.047673,-0.240179,1.255857,8.472510,-5.540648,-81.216881,0.758540,0.024641,-0.084617,-0.645639
826,0.953418,1.495336,9.785221,1.228197,-0.086404,1.039317,8.523512,-5.551686,-81.179672,0.758740,0.024944,-0.084969,-0.645346
827,0.936548,1.486042,9.783731,0.702671,0.062998,0.796732,8.552757,-5.556614,-81.149345,0.758905,0.025132,-0.085159,-0.645120
828,0.957527,1.479678,9.798587,0.390627,-0.049266,0.465118,8.568953,-5.559518,-81.128410,0.759019,0.025238,-0.085265,-0.644967
829,0.938925,1.508578,9.771069,0.281126,-0.068160,0.130707,8.579220,-5.562933,-81.118835,0.759071,0.025294,-0.085343,-0.644893
831,0.938678,1.485000,9.829442,-0.382047,-0.092554,-0.086829,8.577507,-5.565692,-81.118515,0.759074,0.025267,-0.085351,-0.644890
832,0.984421,1.503692,9.814082,-0.005961,-0.400156,-0.240685,8.571687,-5.572998,-81.125175,0.759039,0.025182,-0.085368,-0.644933
833,1.020253,1.511020,9.764828,0.199318,-0.545852,-0.476969,8.576293,-5.586805,-81.139412,0.758959,0.025124,-0.085488,-0.645013
834,1.065339,1.526027,9.723193,-0.234848,-0.505694,-0.555694,8.577624,-5.601569,-81.159149,0.758849,0.025034,-0.085597,-0.645132
835,1.113992,1.543257,9.758138,-2.152450,-0.544429,-0.640103,8.540027,-5.615910,-81.181564,0.758732,0.024687,-0.085485,-0.645297
836,1.129873,1.478396,9.742551,-3.517072,-0.487326,-0.566379,8.447743,-5.629949,-81.204102,0.758626,0.023979,-0.085062,-0.645504
837,1.100768,1.400505,9.784983,-4.810071,-0.541658,-0.741702,8.311333,-5.643742,-81.228287,0.758519,0.022980,-0.084389,-0.645755
838,1.086439,1.380671,9.766813,-5.553132,-0.675516,-0.747526,8.141332,-5.660268,-81.255890,0.758398,0.021741,-0.083545,-0.646049
839,1.001293,1.243607,9.838975,-9.488667,-1.044198,-1.731782,7.895096,-5.682886,-81.301033,0.758190,0.019950,-0.082313,-0.646510
840,0.947138,1.049711,9.938100,-14.299388,-2.375885,-5.185739,7.510805,-5.723913,-81.423531,0.757562,0.017088,-0.080433,-0.647563
841,0.964007,1.090679,9.959037,-20.007643,-4.521065,-10.816978,6.967199,-5.804275,-81.704025,0.756048,0.012846,-0.077920,-0.649734
842,1.016998,1.049999,9.769096,-27.465424,-5.894385,-14.364390,6.220893,-5.928390,-82.143173,0.753615,0.006927,-0.074529,-0.653040
843,1.069972,0.900808,9.860179,-39.148205,-6.573045,-17.342564,5.168236,-6.082729,-82.692589,0.750491,-0.001214,-0.069533,-0.657211
844,1.269107,0.862159,9.931484,-41.565662,-7.553721,-17.974537,3.888672,-6.271151,-83.301270,0.746896,-0.011017,-0.063363,-0.661823
845,1.377717,0.939276,9.657325,-34.949135,-6.788179,-14.143189,2.674910,-6.479144,-83.852730,0.743494,-0.020411,-0.057604,-0.665944
846,1.451017,0.898965,9.565842,-27.318312,-4.061689,-7.048674,1.678693,-6.646500,-84.214905,0.741131,-0.028016,-0.052808,-0.668694
847,1.458961,0.803931,9.855413,-14.505332,-1.489892,1.066926,0.993647,-6.737010,-84.317307,0.740323,-0.033019,-0.049365,-0.669623
848,1.491239,0.767009,9.694010,11.068396,0.572559,11.098082,0.912451,-6.755987,-84.113396,0.741483,-0.033567,-0.049072,-0.668332
849,1.344339,0.700772,9.423140,25.474663,4.614646,19.830235,1.460622,-6.680646,-83.592705,0.744686,-0.029344,-0.051916,-0.664745
850,1.255742,0.546596,9.758094,27.923576,7.958319,24.331532,2.264904,-6.495296,-82.845490,0.749239,-0.022678,-0.055527,-0.659578
851,1.078877,0.484895,9.806724,33.909611,8.755848,25.644474,3.201035,-6.256618,-81.995255,0.754318,-0.014738,-0.059468,-0.653644
852,1.055234,0.625297,9.693056,30.898626,7.500560,22.592117,4.192758,-6.038380,-81.170860,0.759129,-0.006501,-0.063739,-0.647780
853,0.945793,0.718529,9.812320,19.573084,5.759086,16.207222,4.964772,-5.869802,-80.505112,0.762920,-0.000040,-0.066990,-0.643012
854,0.954198,0.843298,9.993055,11.833371,3.452946,9.149298,5.443946,-5.755097,-80.068176,0.765367,0.004060,-0.068903,-0.639882
855,0.945051,1.013390,9.773299,10.350666,0.781852,4.150686,5.790847,-5.706586,-79.839523,0.766629,0.006790,-0.070504,-0.638172
856,1.005418,1.046350,9.829025,3.836858,-0.607735,0.913812,6.018854,-5.712498,-79.754784,0.767085,0.008335,-0.071807,-0.637460
857,0.966399,1.032576,9.813046,3.118799,-0.322788,-0.611857,6.134436,-5.728472,-79.751396,0.767095,0.009022,-0.072556,-0.637354
858,1.003971,1.032802,9.809149,2.445414,-0.302233,-1.117508,6.230161,-5.735736,-79.781326,0.766920,0.009603,-0.073139,-0.637489
859,1.016180,1.035122,9.791048,1.989001,-0.201018,-0.913079,6.307538,-5.740382,-79.816040,0.766720,0.010072,-0.073603,-0.637669
860,1.038995,1.043746,9.830846,1.604738,-0.140117,-0.730832,6.370236,-5.743010,-79.844055,0.766559,0.010459,-0.073972,-0.637814
861,1.059505,1.071581,9.810547,1.871501,-0.044344,-0.256153,6.429851,-5.744230,-79.860817,0.766460,0.010840,-0.074314,-0.637887
862,1.077903,1.073924,9.795571,1.684029,0.006290,0.296968,6.489049,-5.744935,-79.860214,0.766457,0.011232,-0.074648,-0.637844
863,1.045818,1.084450,9.807618,1.110301,0.102298,0.550601,6.534188,-5.744737,-79.845894,0.766533,0.011545,-0.074896,-0.637719
864,1.021140,1.098655,9.826297,0.971472,0.092974,0.839843,6.566532,-5.744146,-79.822388,0.766660,0.011780,-0.075070,-0.637541
865,1.048383,1.137068,9.802481,1.452703,-0.190243,1.074390,6.603765,-5.749414,-79.790718,0.766832,0.012020,-0.075309,-0.637301
866,1.045668,1.149769,9.795292,1.025828,-0.345098,1.146239,6.641470,-5.762547,-79.754799,0.767028,0.012223,-0.075602,-0.637027
867,1.046381,1.177874,9.818617,0.833715,-0.473634,0.802278,6.669363,-5.779862,-79.723961,0.767196,0.012333,-0.075869,-0.636790
868,1.054226,1.183373,9.834893,1.055819,-0.552411,0.577862,6.698740,-5.799525,-79.703003,0.767309,0.012433,-0.076161,-0.636617
869,1.069193,1.205223,9.822702,1.363911,-0.570375,0.467008,6.737532,-5.820148,-79.687828,0.767389,0.012588,-0.076513,-0.636476
870,1.034722,1.203272,9.837988,1.094338,-0.309327,0.584983,6.776902,-5.836772,-79.672066,0.767472,0.012769,-0.076840,-0.636333
871,1.039246,1.206262,9.820107,1.385602,-0.158826,0.902510,6.815809,-5.847452,-79.648239,0.767600,0.012986,-0.077125,-0.636140
872,1.030824,1.194384,9.808656,1.281612,0.056450,1.458399,6.856281,-5.853830,-79.609169,0.767812,0.013248,-0.077388,-0.635846
873,1.037803,1.212303,9.788737,1.298252,0.183540,2.044687,6.893287,-5.856848,-79.550423,0.768133,0.013519,-0.077606,-0.635426
874,1.022960,1.212474,9.804132,0.716530,0.293223,2.389162,6.919243,-5.857843,-79.475716,0.768544,0.013738,-0.077748,-0.634906
875,1.022074,1.199187,9.803785,0.292114,0.284086,2.596974,6.927471,-5.858305,-79.391617,0.769009,0.013847,-0.077786,-0.634336
876,1.025668,1.202494,9.817700,-0.035466,0.160772,2.562537,6.922896,-5.861310,-79.304909,0.769489,0.013859,-0.077770,-0.633755
877,1.004003,1.191607,9.817816,-0.233594,0.092687,2.345736,6.910018,-5.866965,-79.222763,0.769945,0.013797,-0.077727,-0.633208
878,1.010167,1.151940,9.871161,-0.118325,-0.068320,2.009084,6.896738,-5.875284,-79.150284,0.770347,0.013710,-0.077701,-0.632724
