seq,ax,ay,az,wroll,wpitch,wyaw,roll,pitch,yaw,q0,q1,q2,q3
87,0.007336,-0.062466,9.925499,-0.013925,0.015454,1.028500,-0.360587,-0.042344,0.000266,0.999995,-0.003147,-0.000370,0.000001
88,0.001684,-0.061588,9.922612,0.062222,0.028578,-0.040104,-0.359794,-0.041507,0.016735,0.999995,-0.003140,-0.000363,0.000145
89,-0.000274,-0.061374,9.925228,0.054596,0.034713,-0.043156,-0.357846,-0.040461,0.015341,0.999995,-0.003123,-0.000354,0.000133
90,0.002979,-0.066406,9.929154,0.053062,0.037793,-0.038578,-0.356051,-0.039261,0.013971,0.999995,-0.003107,-0.000343,0.000121
92,0.002581,-0.065585,9.931074,0.054568,0.045443,-0.032474,-0.354256,-0.037881,0.012778,0.999995,-0.003091,-0.000331,0.000110
93,0.009117,-0.062082,9.931546,0.075920,0.046973,-0.029422,-0.352081,-0.036347,0.011737,0.999995,-0.003072,-0.000318,0.000101
94,0.008129,-0.066769,9.929852,0.056067,0.040858,-0.029422,-0.349880,-0.034889,0.010747,0.999995,-0.003053,-0.000305,0.000093
95,0.008194,-0.065815,9.932743,0.054515,0.033219,-0.024844,-0.348037,-0.033660,0.009835,0.999995,-0.003037,-0.000294,0.000085
96,0.007296,-0.067597,9.930200,0.056011,0.031684,-0.027896,-0.346194,-0.032584,0.008950,0.999995,-0.003021,-0.000285,0.000077
97,0.005766,-0.069720,9.930297,0.043763,0.042362,-0.033999,-0.344531,-0.031356,0.007911,0.999995,-0.003007,-0.000274,0.000068
99,0.005247,-0.066127,9.929557,0.023888,0.045414,-0.035525,-0.343403,-0.029900,0.006743,0.999996,-0.002997,-0.000261,0.000058
100,0.010537,-0.053086,9.932396,0.036095,0.039298,-0.044681,-0.342402,-0.028496,0.005398,0.999996,-0.002988,-0.000249,0.000046
101,0.009893,-0.056141,9.930100,0.028487,0.040799,-0.061467,-0.341325,-0.027172,0.003621,0.999996,-0.002979,-0.000237,0.000031
102,0.009598,-0.049008,9.935382,0.022415,0.046879,-0.066045,-0.340476,-0.025723,0.001487,0.999996,-0.002971,-0.000225,0.000012
103,0.011383,-0.057465,9.936277,0.037703,0.039221,-0.066045,-0.339473,-0.024301,-0.000723,0.999996,-0.002962,-0.000212,-0.000007
104,0.009638,-0.059258,9.934321,0.045335,0.046821,-0.056889,-0.338088,-0.022879,-0.002780,0.999996,-0.002950,-0.000200,-0.000025
106,0.006477,-0.069009,9.930188,0.043784,0.060535,-0.040104,-0.336602,-0.021100,-0.004407,0.999996,-0.002937,-0.000184,-0.000039
107,0.008477,-0.064561,9.928407,0.052899,0.060518,-0.035526,-0.334990,-0.019090,-0.005680,0.999996,-0.002923,-0.000166,-0.000050
108,0.009769,-0.066548,9.923735,0.051338,0.068121,-0.032474,-0.333252,-0.016952,-0.006825,0.999996,-0.002908,-0.000148,-0.000060
109,0.012123,-0.060704,9.920992,0.046733,0.065031,-0.034001,-0.331618,-0.014740,-0.007946,0.999996,-0.002894,-0.000128,-0.000070
110,0.016305,-0.063045,9.924327,0.039083,0.058872,-0.027898,-0.330187,-0.012680,-0.008990,0.999996,-0.002881,-0.000110,-0.000079
111,0.017804,-0.060675,9.926157,0.031432,0.058801,-0.037053,-0.329012,-0.010726,-0.010083,0.999996,-0.002871,-0.000093,-0.000088
113,0.019665,-0.065641,9.926683,0.039032,0.072454,-0.026373,-0.327837,-0.008544,-0.011153,0.999996,-0.002861,-0.000074,-0.000098
114,0.015193,-0.065129,9.928770,0.043569,0.067801,-0.015691,-0.326460,-0.006210,-0.011867,0.999996,-0.002849,-0.000054,-0.000104
115,0.010148,-0.067414,9.931817,0.035893,0.075375,-0.012639,-0.325136,-0.003827,-0.012353,0.999996,-0.002837,-0.000033,-0.000108
116,0.003060,-0.071068,9.928082,0.043461,0.073822,-0.030951,-0.323813,-0.001344,-0.013094,0.999996,-0.002826,-0.000011,-0.000114
117,0.003358,-0.075137,9.927976,0.046432,0.066179,-0.030951,-0.322315,0.000983,-0.014139,0.999996,-0.002813,0.000009,-0.000123
118,0.002276,-0.065387,9.926970,0.035682,0.057010,-0.038581,-0.320946,0.003030,-0.015309,0.999996,-0.002801,0.000027,-0.000134
120,0.004702,-0.068707,9.928226,0.029523,0.053939,-0.052314,-0.319860,0.004870,-0.016834,0.999996,-0.002791,0.000043,-0.000147
121,0.006084,-0.061603,9.925103,0.037106,0.049332,-0.058418,-0.318749,0.006581,-0.018689,0.999996,-0.002782,0.000058,-0.000163
122,0.009594,-0.052187,9.930328,0.035573,0.056920,-0.049263,-0.317538,0.008342,-0.020494,0.999996,-0.002771,0.000073,-0.000179
123,0.014751,-0.047754,9.934268,0.032545,0.062959,-0.037055,-0.316403,0.010332,-0.021943,0.999996,-0.002761,0.000091,-0.000191
124,0.017215,-0.056063,9.937826,0.050871,0.052192,-0.030952,-0.315013,0.012245,-0.023087,0.999996,-0.002749,0.000107,-0.000201
125,0.018228,-0.053815,9.940250,0.055448,0.059728,-0.023323,-0.313242,0.014105,-0.024002,0.999996,-0.002734,0.000124,-0.000209
127,0.017539,-0.053436,9.946262,0.058504,0.065735,-0.023324,-0.311343,0.016192,-0.024791,0.999996,-0.002717,0.000142,-0.000216
128,0.016763,-0.060708,9.940600,0.061543,0.051906,-0.037057,-0.309342,0.018147,-0.025808,0.999996,-0.002699,0.000159,-0.000225
129,0.009642,-0.061572,9.936376,0.056930,0.045725,-0.041636,-0.307368,0.019767,-0.027128,0.999996,-0.002682,0.000173,-0.000236
130,0.008118,-0.054045,9.934885,0.043176,0.050244,-0.053843,-0.305700,0.021358,-0.028728,0.999996,-0.002668,0.000187,-0.000250
131,0.005884,-0.057576,9.935334,0.030956,0.036460,-0.050791,-0.304465,0.022794,-0.030480,0.999996,-0.002657,0.000200,-0.000265
132,0.006766,-0.056310,9.931009,0.023307,0.027255,-0.035532,-0.303561,0.023848,-0.031924,0.999996,-0.002649,0.000209,-0.000278
134,0.006614,-0.054910,9.931847,0.012610,0.016523,-0.024852,-0.302963,0.024573,-0.032934,0.999996,-0.002644,0.000215,-0.000287
135,0.004654,-0.057413,9.928803,0.026326,0.019527,-0.030955,-0.302315,0.025169,-0.033868,0.999996,-0.002638,0.000220,-0.000295
136,0.003477,-0.057446,9.927336,0.015621,0.025591,-0.027904,-0.301616,0.025915,-0.034853,0.999996,-0.002632,0.000227,-0.000304
137,0.004562,-0.057082,9.926512,0.017123,0.034705,-0.040111,-0.301071,0.026914,-0.035991,0.999996,-0.002627,0.000236,-0.000313
138,0.005854,-0.057507,9.928825,0.015572,0.037710,-0.050792,-0.300527,0.028113,-0.037513,0.999996,-0.002623,0.000246,-0.000327
139,0.002350,-0.057675,9.930932,0.018599,0.043772,-0.053845,-0.299958,0.029462,-0.039264,0.999996,-0.002618,0.000258,-0.000342
141,0.006049,-0.058405,9.932929,0.007888,0.048304,-0.046216,-0.299517,0.030988,-0.040939,0.999996,-0.002614,0.000271,-0.000357
142,0.007588,-0.058251,9.934161,0.024643,0.043670,-0.040112,-0.298976,0.032513,-0.042386,0.999996,-0.002609,0.000285,-0.000369
143,0.009346,-0.059298,9.929496,0.016980,0.052757,-0.030958,-0.298283,0.034114,-0.043579,0.999996,-0.002603,0.000299,-0.000380
144,0.008142,-0.062846,9.924902,0.019987,0.061844,-0.026380,-0.297668,0.036019,-0.044545,0.999997,-0.002598,0.000315,-0.000388
145,0.013738,-0.059139,9.923911,0.027572,0.069392,-0.014172,-0.296875,0.038203,-0.045232,0.999997,-0.002591,0.000334,-0.000394
146,0.010393,-0.060825,9.924818,0.015323,0.067777,-0.032484,-0.296161,0.040485,-0.046021,0.999997,-0.002584,0.000354,-0.000401
147,0.009020,-0.063889,9.923233,0.029004,0.073800,-0.032484,-0.295423,0.042839,-0.047116,0.999997,-0.002578,0.000375,-0.000410
148,0.007460,-0.059235,9.927172,0.041162,0.064571,-0.037063,-0.294254,0.045139,-0.048287,0.999997,-0.002568,0.000395,-0.000420
149,0.004514,-0.065325,9.929663,0.036530,0.053823,-0.041641,-0.292961,0.047106,-0.049609,0.999997,-0.002556,0.000412,-0.000432
150,0.000142,-0.063992,9.932352,0.033411,0.061404,-0.055374,-0.291796,0.049018,-0.051236,0.999997,-0.002546,0.000429,-0.000446
151,0.000674,-0.061983,9.935128,0.036404,0.058310,-0.034012,-0.290634,0.051006,-0.052736,0.999997,-0.002536,0.000446,-0.000459
152,0.000285,-0.060011,9.935238,0.019568,0.043007,-0.038590,-0.289702,0.052688,-0.053954,0.999997,-0.002528,0.000461,-0.000470
153,0.000144,-0.064339,9.932593,0.019511,0.042963,-0.037064,-0.289052,0.054115,-0.055222,0.999997,-0.002522,0.000473,-0.000481
154,0.003733,-0.060917,9.929638,0.011822,0.041383,-0.027908,-0.288531,0.055515,-0.056312,0.999997,-0.002518,0.000486,-0.000490
155,0.005896,-0.059492,9.927866,-0.001959,0.033684,-0.020280,-0.288367,0.056762,-0.057122,0.999997,-0.002516,0.000497,-0.000497
156,0.006644,-0.058337,9.924623,0.010205,0.033607,-0.032487,-0.288231,0.057879,-0.058007,0.999997,-0.002515,0.000506,-0.000505
157,0.006118,-0.062082,9.923176,-0.005104,0.047263,-0.032488,-0.288147,0.059221,-0.059096,0.999997,-0.002514,0.000518,-0.000514
158,0.008187,-0.063214,9.922132,-0.005166,0.051756,-0.037066,-0.288319,0.060866,-0.060264,0.999997,-0.002516,0.000532,-0.000525
159,0.008414,-0.067133,9.926965,0.002391,0.056244,-0.037067,-0.288367,0.062660,-0.061509,0.999997,-0.002516,0.000548,-0.000535
160,0.009261,-0.073075,9.923861,0.012975,0.063780,-0.046222,-0.288112,0.064653,-0.062907,0.999997,-0.002514,0.000566,-0.000548
161,0.009810,-0.075528,9.921345,0.020488,0.066733,-0.044698,-0.287556,0.066821,-0.064433,0.999997,-0.002509,0.000585,-0.000561
162,0.011709,-0.077216,9.924396,0.024937,0.058997,-0.052328,-0.286801,0.068908,-0.066061,0.999997,-0.002502,0.000603,-0.000575
163,0.007280,-0.078805,9.925524,0.030905,0.051265,-0.055380,-0.285873,0.070737,-0.067865,0.999997,-0.002494,0.000619,-0.000591
164,0.004487,-0.073754,9.923052,0.027725,0.049652,-0.059959,-0.284898,0.072409,-0.069796,0.999997,-0.002486,0.000633,-0.000608
165,0.003392,-0.078620,9.929069,0.016915,0.049574,-0.052329,-0.284157,0.074053,-0.071675,0.999997,-0.002479,0.000648,-0.000624
166,0.001431,-0.078288,9.931805,0.009145,0.057131,-0.056908,-0.283725,0.075823,-0.073505,0.999996,-0.002476,0.000663,-0.000640
167,-0.002655,-0.082350,9.928123,0.007469,0.060124,-0.044701,-0.283450,0.077769,-0.075208,0.999996,-0.002473,0.000680,-0.000655
168,-0.000445,-0.070541,9.929584,0.013442,0.061593,-0.038598,-0.283103,0.079790,-0.076606,0.999996,-0.002470,0.000698,-0.000667
169,-0.000994,-0.072597,9.936568,0.013334,0.056953,-0.026391,-0.282659,0.081761,-0.077699,0.999996,-0.002466,0.000715,-0.000676
170,-0.001212,-0.068567,9.931011,0.034594,0.040106,-0.027918,-0.281861,0.083374,-0.078612,0.999996,-0.002459,0.000729,-0.000684
171,-0.000888,-0.067503,9.932461,0.037553,0.030886,-0.018762,-0.280660,0.084553,-0.079396,0.999996,-0.002449,0.000740,-0.000691
172,0.001024,-0.060931,9.934772,0.040531,0.036920,-0.015711,-0.279359,0.085681,-0.079976,0.999997,-0.002437,0.000749,-0.000696
173,0.001502,-0.069072,9.934557,0.023667,0.045998,-0.017237,-0.278290,0.087060,-0.080532,0.999997,-0.002428,0.000761,-0.000701
174,0.004890,-0.066828,9.930034,0.034254,0.047437,-0.030971,-0.277326,0.088613,-0.081343,0.999997,-0.002420,0.000775,-0.000708
175,0.005483,-0.068663,9.932339,0.034160,0.058020,-0.030971,-0.276188,0.090366,-0.082384,0.999997,-0.002410,0.000790,-0.000717
176,0.005207,-0.072755,9.930535,0.035577,0.053342,-0.041654,-0.275027,0.092216,-0.083603,0.999997,-0.002399,0.000806,-0.000728
177,0.006331,-0.079113,9.933702,0.046123,0.053238,-0.043181,-0.273668,0.093985,-0.085025,0.999997,-0.002388,0.000822,-0.000740
178,0.005613,-0.076816,9.931274,0.045977,0.040925,-0.041655,-0.272135,0.095548,-0.086447,0.999997,-0.002374,0.000836,-0.000752
179,0.003969,-0.080794,9.932819,0.036670,0.048452,-0.032500,-0.270760,0.097032,-0.087690,0.999997,-0.002362,0.000849,-0.000763
180,0.007750,-0.083875,9.931328,0.025819,0.055974,-0.032501,-0.269720,0.098767,-0.088781,0.999997,-0.002353,0.000864,-0.000773
181,0.008491,-0.075953,9.930360,0.016505,0.069586,-0.024873,-0.269017,0.100855,-0.089747,0.999997,-0.002347,0.000882,-0.000781
182,0.009453,-0.067671,9.930359,0.007229,0.066408,-0.027925,-0.268623,0.103118,-0.090638,0.999997,-0.002343,0.000902,-0.000789
183,0.011164,-0.068580,9.928946,0.017806,0.073903,-0.035555,-0.268207,0.105451,-0.091707,0.999997,-0.002340,0.000922,-0.000798
184,0.012004,-0.064751,9.924976,0.016183,0.073760,-0.049290,-0.267643,0.107906,-0.093132,0.999996,-0.002335,0.000944,-0.000811
185,0.008140,-0.058508,9.929231,0.011532,0.062942,-0.053868,-0.267185,0.110176,-0.094862,0.999996,-0.002331,0.000963,-0.000826
186,0.008304,-0.057657,9.933812,0.023683,0.053656,-0.050817,-0.266601,0.112111,-0.096616,0.999996,-0.002326,0.000980,-0.000841
187,0.006103,-0.062823,9.933542,0.037350,0.052002,-0.050817,-0.265587,0.113864,-0.098318,0.999996,-0.002317,0.000996,-0.000856
188,0.004526,-0.066310,9.938342,0.043364,0.056461,-0.038611,-0.264245,0.115665,-0.099817,0.999996,-0.002305,0.001011,-0.000869
189,0.005420,-0.070944,9.939092,0.049360,0.060919,-0.030983,-0.262702,0.117616,-0.100986,0.999996,-0.002292,0.001028,-0.000879
190,0.009928,-0.066559,9.938079,0.064508,0.068414,-0.029458,-0.260806,0.119767,-0.102003,0.999996,-0.002275,0.001047,-0.000888
191,0.012986,-0.069422,9.936574,0.058297,0.063682,-0.026406,-0.258762,0.121964,-0.102944,0.999996,-0.002257,0.001066,-0.000896
192,0.013166,-0.071413,9.934292,0.049019,0.065045,-0.026407,-0.256975,0.124106,-0.103834,0.999996,-0.002242,0.001085,-0.000904
193,0.012529,-0.065628,9.931134,0.039748,0.061829,-0.035564,-0.255498,0.126216,-0.104876,0.999996,-0.002229,0.001103,-0.000913
194,0.010975,-0.055484,9.937712,0.024412,0.052512,-0.040143,-0.254431,0.128116,-0.106147,0.999996,-0.002219,0.001120,-0.000924
196,0.006720,-0.060910,9.938851,0.002981,0.047786,-0.041669,-0.253978,0.129781,-0.107518,0.999996,-0.002215,0.001135,-0.000936
197,-0.000687,-0.059676,9.935822,0.004429,0.058346,-0.053877,-0.253858,0.131543,-0.109118,0.999996,-0.002214,0.001150,-0.000950
198,-0.000434,-0.052567,9.936294,0.005898,0.052136,-0.053878,-0.253690,0.133377,-0.110922,0.999996,-0.002213,0.001166,-0.000965
199,-0.002375,-0.049587,9.934926,0.002811,0.044402,-0.049301,-0.253549,0.134978,-0.112649,0.999996,-0.002211,0.001180,-0.000980
200,-0.001309,-0.060315,9.929545,0.018018,0.047351,-0.046250,-0.253206,0.136500,-0.114248,0.999996,-0.002208,0.001193,-0.000994
201,-0.005124,-0.058201,9.925977,0.025574,0.060988,-0.044724,-0.252483,0.138299,-0.115772,0.999996,-0.002202,0.001209,-0.001008
202,-0.001674,-0.062283,9.931953,0.022443,0.057837,-0.037095,-0.251686,0.140273,-0.117144,0.999996,-0.002195,0.001226,-0.001020
203,-0.002551,-0.065462,9.929294,0.016242,0.059258,-0.034044,-0.251044,0.142220,-0.118339,0.999996,-0.002189,0.001243,-0.001030
204,0.003217,-0.071947,9.934835,0.017648,0.063715,-0.046253,-0.250482,0.144263,-0.119686,0.999996,-0.002185,0.001261,-0.001042
205,0.000548,-0.068977,9.934057,0.023621,0.057484,-0.038623,-0.249798,0.146277,-0.121109,0.999996,-0.002179,0.001279,-0.001054
206,0.002081,-0.064775,9.931665,0.023508,0.046674,-0.040150,-0.249016,0.148007,-0.122430,0.999996,-0.002172,0.001294,-0.001066
207,0.000426,-0.063778,9.928982,0.027985,0.038917,-0.041677,-0.248161,0.149428,-0.123800,0.999996,-0.002164,0.001306,-0.001078
208,0.000830,-0.061767,9.932360,0.043150,0.040316,-0.035574,-0.246979,0.150743,-0.125093,0.999996,-0.002154,0.001318,-0.001089
209,-0.000870,-0.064507,9.928117,0.032371,0.040191,-0.020316,-0.245723,0.152081,-0.126030,0.999996,-0.002143,0.001330,-0.001097
210,0.002963,-0.060504,9.924321,0.023120,0.041586,-0.030998,-0.244801,0.153440,-0.126891,0.999996,-0.002135,0.001341,-0.001104
211,0.005096,-0.068833,9.925944,0.038272,0.052120,-0.027947,-0.243780,0.154998,-0.127880,0.999996,-0.002126,0.001355,-0.001113
212,0.008572,-0.070732,9.927819,0.027459,0.053485,-0.035578,-0.242687,0.156753,-0.128946,0.999996,-0.002116,0.001370,-0.001122
213,0.012508,-0.070301,9.928854,0.018167,0.054830,-0.052364,-0.241931,0.158552,-0.130420,0.999996,-0.002110,0.001386,-0.001135
214,0.011566,-0.065297,9.931116,0.016518,0.056167,-0.055417,-0.241358,0.160394,-0.132224,0.999996,-0.002105,0.001402,-0.001151
215,0.011704,-0.066344,9.930880,0.020979,0.062081,-0.047788,-0.240738,0.162358,-0.133952,0.999996,-0.002099,0.001419,-0.001166
216,0.011059,-0.063213,9.930981,0.007135,0.057315,-0.047789,-0.240274,0.164341,-0.135554,0.999996,-0.002095,0.001437,-0.001180
217,0.010168,-0.059736,9.931198,0.017722,0.061705,-0.049316,-0.239864,0.166318,-0.137180,0.999996,-0.002091,0.001454,-0.001194
218,0.008099,-0.058835,9.932485,0.017637,0.066101,-0.040162,-0.239279,0.168442,-0.138680,0.999996,-0.002086,0.001472,-0.001207
219,0.007758,-0.059891,9.932240,0.032810,0.061346,-0.049318,-0.238443,0.170560,-0.140181,0.999996,-0.002079,0.001491,-0.001220
220,0.006463,-0.059635,9.938844,0.044929,0.056593,-0.055423,-0.237153,0.172518,-0.141935,0.999996,-0.002068,0.001508,-0.001235
221,0.004707,-0.061654,9.937853,0.040258,0.045741,-0.058476,-0.235739,0.174216,-0.143840,0.999996,-0.002055,0.001523,-0.001252
222,0.005988,-0.061264,9.940165,0.044738,0.044045,-0.050848,-0.234328,0.175705,-0.145668,0.999996,-0.002043,0.001536,-0.001268
223,0.004813,-0.069911,9.938596,0.049197,0.036244,-0.052375,-0.232767,0.177036,-0.147394,0.999996,-0.002029,0.001548,-0.001283
224,0.003022,-0.065326,9.933491,0.046015,0.034553,-0.053902,-0.231186,0.178209,-0.149170,0.999996,-0.002015,0.001558,-0.001299
225,0.002801,-0.066380,9.933249,0.032158,0.037442,-0.049325,-0.229888,0.179402,-0.150895,0.999996,-0.002004,0.001568,-0.001314
226,0.005734,-0.061438,9.932809,0.036620,0.049480,-0.055430,-0.228748,0.180843,-0.152647,0.999996,-0.001994,0.001581,-0.001329
227,0.002566,-0.061186,9.927689,0.030413,0.052362,-0.053905,-0.227636,0.182534,-0.154476,0.999996,-0.001984,0.001596,-0.001345
228,0.005410,-0.050076,9.927355,0.022707,0.056770,-0.056957,-0.226757,0.184345,-0.156331,0.999996,-0.001977,0.001611,-0.001361
229,0.008859,-0.056007,9.935264,0.019589,0.053530,-0.052381,-0.226058,0.186176,-0.158160,0.999996,-0.001970,0.001627,-0.001377
230,0.007840,-0.057905,9.932960,0.024082,0.054862,-0.053907,-0.225336,0.187976,-0.159939,0.999996,-0.001964,0.001643,-0.001393
231,0.007005,-0.060812,9.935602,0.028562,0.056196,-0.035597,-0.224463,0.189821,-0.161438,0.999996,-0.001956,0.001659,-0.001406
232,0.010992,-0.062371,9.934956,0.028454,0.054470,-0.026444,-0.223516,0.191661,-0.162479,0.999996,-0.001948,0.001675,-0.001415
233,0.008019,-0.065097,9.935992,0.023756,0.054265,-0.024919,-0.222649,0.193470,-0.163342,0.999996,-0.001941,0.001691,-0.001422
234,0.007814,-0.066968,9.935390,0.028203,0.063222,-0.020342,-0.221786,0.195425,-0.164104,0.999996,-0.001933,0.001708,-0.001429
235,0.008057,-0.067080,9.935274,0.035695,0.058443,-0.027973,-0.220724,0.197450,-0.164917,0.999996,-0.001924,0.001726,-0.001436
236,0.006103,-0.066290,9.937045,0.035558,0.044513,-0.034078,-0.219540,0.199162,-0.165958,0.999996,-0.001913,0.001741,-0.001445
237,0.003217,-0.065646,9.936991,0.044581,0.036696,-0.032553,-0.218208,0.200511,-0.167074,0.999996,-0.001902,0.001753,-0.001455
238,0.001921,-0.065913,9.935642,0.055129,0.036517,-0.034080,-0.216550,0.201727,-0.168189,0.999996,-0.001887,0.001763,-0.001464
239,0.000475,-0.063279,9.933561,0.062629,0.045499,-0.040185,-0.214592,0.203089,-0.169432,0.999996,-0.001870,0.001775,-0.001475
240,0.006259,-0.055613,9.932203,0.051842,0.040736,-0.031030,-0.212688,0.204522,-0.170624,0.999996,-0.001853,0.001788,-0.001486
241,0.008019,-0.057586,9.928383,0.054799,0.051214,-0.029506,-0.210914,0.206051,-0.171639,0.999996,-0.001838,0.001801,-0.001495
242,0.008237,-0.056184,9.928504,0.044022,0.051004,-0.043240,-0.209272,0.207750,-0.172857,0.999996,-0.001823,0.001816,-0.001505
243,0.010257,-0.056714,9.930350,0.048502,0.044683,-0.038663,-0.207735,0.209340,-0.174228,0.999996,-0.001810,0.001830,-0.001517
244,0.010957,-0.056576,9.931567,0.043826,0.033777,-0.038665,-0.206201,0.210643,-0.175522,0.999996,-0.001797,0.001841,-0.001528
245,0.004122,-0.057397,9.932530,0.057458,0.039669,-0.044770,-0.204518,0.211862,-0.176917,0.999996,-0.001782,0.001852,-0.001541
246,0.006882,-0.058733,9.933668,0.055824,0.031837,-0.041719,-0.202635,0.213049,-0.178362,0.999996,-0.001765,0.001862,-0.001553
247,0.008218,-0.061605,9.935386,0.055705,0.040779,-0.034090,-0.200781,0.214254,-0.179630,0.999996,-0.001749,0.001872,-0.001564
248,0.009035,-0.064645,9.931430,0.050992,0.035981,-0.027987,-0.199007,0.215530,-0.180669,0.999996,-0.001734,0.001884,-0.001573
249,0.006477,-0.069124,9.930309,0.043206,0.028136,-0.017307,-0.197439,0.216596,-0.181428,0.999996,-0.001720,0.001893,-0.001580
250,0.007917,-0.076439,9.929026,0.032341,0.037077,-0.015783,-0.196182,0.217681,-0.181983,0.999996,-0.001709,0.001902,-0.001585
251,0.003206,-0.075701,9.930866,0.032139,0.036869,-0.024941,-0.195110,0.218911,-0.182666,0.999996,-0.001700,0.001913,-0.001591
252,0.004246,-0.078958,9.928362,0.036508,0.029040,-0.017312,-0.193969,0.220007,-0.183374,0.999996,-0.001690,0.001923,-0.001597
253,0.002707,-0.073967,9.930492,0.025620,0.037995,-0.024944,-0.192936,0.221122,-0.184082,0.999995,-0.001681,0.001932,-0.001603
254,0.004520,-0.067639,9.931596,0.033070,0.036268,-0.031048,-0.191962,0.222357,-0.185019,0.999995,-0.001672,0.001943,-0.001611
255,0.004007,-0.061908,9.936756,0.028341,0.014700,-0.038679,-0.190943,0.223202,-0.186184,0.999995,-0.001663,0.001951,-0.001622
256,0.005456,-0.062926,9.937026,0.015993,0.020596,-0.047835,-0.190209,0.223786,-0.187628,0.999995,-0.001657,0.001956,-0.001634
257,0.003164,-0.058625,9.942277,0.008231,0.023441,-0.063097,-0.189813,0.224514,-0.189479,0.999995,-0.001653,0.001962,-0.001650
258,0.005520,-0.062204,9.940279,0.011152,0.024759,-0.061572,-0.189498,0.225310,-0.191560,0.999995,-0.001650,0.001969,-0.001668
259,0.008543,-0.060773,9.936956,0.011014,0.029116,-0.056995,-0.189136,0.226201,-0.193539,0.999995,-0.001647,0.001977,-0.001686
260,0.006070,-0.066681,9.931260,0.020020,0.044152,-0.043264,-0.188626,0.227417,-0.195214,0.999995,-0.001643,0.001987,-0.001700
261,0.009320,-0.069978,9.933616,0.035108,0.037822,-0.032583,-0.187712,0.228779,-0.196483,0.999995,-0.001635,0.001999,-0.001711
262,0.010139,-0.069898,9.926400,0.062396,0.040637,-0.029532,-0.186091,0.230083,-0.197522,0.999995,-0.001620,0.002011,-0.001720
263,0.003159,-0.068051,9.926510,0.057642,0.046518,-0.041742,-0.184095,0.231532,-0.198715,0.999995,-0.001603,0.002023,-0.001731
264,0.000480,-0.074266,9.927198,0.042195,0.037160,-0.049373,-0.182438,0.232922,-0.200238,0.999995,-0.001589,0.002035,-0.001744
265,0.006544,-0.070775,9.927180,0.034370,0.044580,-0.055478,-0.181169,0.234279,-0.201990,0.999995,-0.001577,0.002047,-0.001759
266,0.000970,-0.064031,9.924654,0.032671,0.045893,-0.049376,-0.180058,0.235781,-0.203742,0.999995,-0.001568,0.002060,-0.001775
267,0.003943,-0.065465,9.927844,0.014199,0.045686,-0.044799,-0.179284,0.237302,-0.205316,0.999995,-0.001561,0.002074,-0.001788
268,0.008391,-0.068624,9.930101,0.012500,0.036303,-0.031067,-0.178844,0.238665,-0.206585,0.999995,-0.001557,0.002086,-0.001800
269,0.009559,-0.066622,9.930239,0.015376,0.051321,-0.023440,-0.178383,0.240122,-0.207498,0.999995,-0.001553,0.002098,-0.001807
270,0.010073,-0.064951,9.934704,0.022838,0.040393,-0.028019,-0.177750,0.241648,-0.208361,0.999995,-0.001547,0.002112,-0.001815
271,0.010272,-0.066891,9.939532,0.021145,0.038617,-0.035650,-0.177021,0.242962,-0.209426,0.999995,-0.001541,0.002123,-0.001824
272,0.009473,-0.067790,9.946148,0.017917,0.042946,-0.043281,-0.176376,0.244317,-0.210745,0.999995,-0.001535,0.002135,-0.001836
273,0.010164,-0.072793,9.944605,0.020779,0.036592,-0.044808,-0.175737,0.245638,-0.212218,0.999995,-0.001530,0.002146,-0.001849
274,0.009034,-0.067935,9.943368,0.028217,0.031764,-0.050913,-0.174928,0.246773,-0.213817,0.999995,-0.001523,0.002156,-0.001863
275,0.005139,-0.070119,9.941254,0.020402,0.031525,-0.044811,-0.174124,0.247823,-0.215415,0.999995,-0.001515,0.002166,-0.001877
276,0.005405,-0.065620,9.934861,0.012591,0.031294,-0.041761,-0.173581,0.248865,-0.216861,0.999995,-0.001511,0.002175,-0.001889
277,0.001344,-0.068308,9.927924,0.015467,0.032596,-0.031081,-0.173118,0.249926,-0.218079,0.999995,-0.001507,0.002184,-0.001900
278,0.002807,-0.063609,9.929989,0.019872,0.046112,-0.034134,-0.172534,0.251235,-0.219169,0.999995,-0.001501,0.002195,-0.001909
279,0.005331,-0.071253,9.928726,0.019691,0.047409,-0.024981,-0.171879,0.252791,-0.220159,0.999995,-0.001496,0.002209,-0.001918
280,0.005552,-0.072511,9.931264,0.007283,0.044121,-0.026508,-0.171433,0.254314,-0.221022,0.999995,-0.001492,0.002222,-0.001925
281,0.007924,-0.079563,9.931684,0.010111,0.046930,-0.026510,-0.171147,0.255828,-0.221910,0.999995,-0.001489,0.002235,-0.001933
282,0.004790,-0.071810,9.933659,0.002261,0.026849,-0.024985,-0.170945,0.257056,-0.222772,0.999995,-0.001487,0.002246,-0.001941
283,0.002824,-0.070551,9.935790,0.008165,0.012884,-0.014305,-0.170774,0.257716,-0.223429,0.999995,-0.001486,0.002252,-0.001946
284,-0.002683,-0.066668,9.939899,0.009504,0.005040,-0.017358,-0.170482,0.258013,-0.223958,0.999995,-0.001483,0.002254,-0.001951
285,-0.001445,-0.068167,9.938600,0.029159,0.009412,-0.021938,-0.169841,0.258252,-0.224613,0.999995,-0.001478,0.002257,-0.001957
286,-0.003734,-0.066125,9.937348,0.025926,0.006157,-0.017361,-0.168926,0.258509,-0.225269,0.999995,-0.001470,0.002259,-0.001963
287,-0.002474,-0.070870,9.937743,0.028790,0.027320,-0.020415,-0.168017,0.259066,-0.225900,0.999995,-0.001462,0.002264,-0.001968
288,-0.003318,-0.071461,9.938693,0.027062,0.040852,-0.029571,-0.167089,0.260199,-0.226737,0.999994,-0.001454,0.002274,-0.001975
289,0.002696,-0.076905,9.942791,0.014638,0.043689,-0.024996,-0.166399,0.261606,-0.227650,0.999994,-0.001448,0.002286,-0.001983
290,0.003907,-0.069432,9.942917,0.012901,0.038878,-0.009738,-0.165942,0.262980,-0.228233,0.999994,-0.001444,0.002298,-0.001988
291,0.004260,-0.064045,9.946527,0.014244,0.043218,-0.012791,-0.165492,0.264347,-0.228613,0.999994,-0.001440,0.002310,-0.001992
292,0.007243,-0.069243,9.944182,0.026268,0.033814,-0.006689,-0.164818,0.265630,-0.228941,0.999994,-0.001434,0.002321,-0.001995
293,0.008359,-0.068317,9.940585,0.027603,0.028978,-0.008217,-0.163921,0.266676,-0.229192,0.999994,-0.001426,0.002330,-0.001997
294,0.005518,-0.068388,9.938124,0.047249,0.027198,-0.014322,-0.162676,0.267611,-0.229571,0.999994,-0.001415,0.002338,-0.002000
295,0.004299,-0.070542,9.933165,0.053154,0.025426,-0.018902,-0.161005,0.268487,-0.230127,0.999994,-0.001400,0.002346,-0.002005
296,0.004389,-0.077058,9.933301,0.054461,0.016025,-0.018904,-0.159214,0.269176,-0.230759,0.999994,-0.001385,0.002352,-0.002010
297,0.003604,-0.063341,9.932775,0.034419,0.012730,-0.034164,-0.157737,0.269653,-0.231645,0.999994,-0.001372,0.002356,-0.002018
299,0.001521,-0.060700,9.933333,0.026623,0.004864,-0.034166,-0.156725,0.269943,-0.232784,0.999994,-0.001363,0.002358,-0.002028
300,0.003193,-0.056967,9.929981,0.024945,0.019887,-0.028063,-0.155870,0.270352,-0.233823,0.999994,-0.001355,0.002362,-0.002037
301,-0.002705,-0.058221,9.933011,0.024799,0.022713,-0.028064,-0.155046,0.271060,-0.234760,0.999994,-0.001348,0.002368,-0.002045
302,-0.000547,-0.058297,9.933050,0.029226,0.028598,-0.028066,-0.154150,0.271912,-0.235698,0.999994,-0.001340,0.002376,-0.002054
303,0.000542,-0.069436,9.935022,0.041256,0.032950,-0.029593,-0.152980,0.272936,-0.236662,0.999994,-0.001330,0.002385,-0.002062
304,0.001738,-0.074905,9.932164,0.050192,0.043399,-0.020440,-0.151460,0.274206,-0.237499,0.999994,-0.001317,0.002396,-0.002069
305,0.000097,-0.070733,9.933812,0.040814,0.032485,-0.029596,-0.149947,0.275469,-0.238336,0.999994,-0.001304,0.002407,-0.002077
306,0.006813,-0.073960,9.936833,0.040592,0.029188,-0.038754,-0.148595,0.276493,-0.239478,0.999994,-0.001292,0.002416,-0.002087
307,0.003248,-0.068319,9.937479,0.028167,0.033511,-0.034178,-0.147455,0.277535,-0.240696,0.999994,-0.001282,0.002425,-0.002097
308,0.004830,-0.061422,9.937372,0.034083,0.034787,-0.023498,-0.146423,0.278671,-0.241661,0.999994,-0.001273,0.002435,-0.002106
309,0.004127,-0.050806,9.942638,0.030883,0.034534,-0.031129,-0.145344,0.279824,-0.242574,0.999994,-0.001263,0.002445,-0.002114
310,0.008843,-0.055822,9.944784,0.021594,0.032744,-0.040286,-0.144475,0.280942,-0.243767,0.999994,-0.001256,0.002454,-0.002124
311,0.007640,-0.052723,9.941984,0.016876,0.032471,-0.032657,-0.143840,0.282026,-0.244985,0.999994,-0.001250,0.002464,-0.002135
312,0.011125,-0.060118,9.940255,0.006044,0.029139,-0.032659,-0.143464,0.283050,-0.246077,0.999994,-0.001247,0.002473,-0.002144
313,0.006354,-0.061607,9.940052,0.004344,0.022758,-0.040290,-0.143297,0.283912,-0.247295,0.999994,-0.001245,0.002480,-0.002155
314,0.004234,-0.069354,9.936656,-0.003480,0.020970,-0.050974,-0.143290,0.284637,-0.248818,0.999994,-0.001245,0.002487,-0.002168
315,-0.001153,-0.066224,9.932936,0.008522,0.029882,-0.040294,-0.143213,0.285481,-0.250341,0.999994,-0.001244,0.002494,-0.002182
316,-0.002952,-0.060996,9.936266,0.002232,0.029654,-0.040295,-0.143041,0.286470,-0.251687,0.999994,-0.001243,0.002503,-0.002193
317,-0.004835,-0.061049,9.933822,0.020369,0.017228,-0.044875,-0.142671,0.287248,-0.253108,0.999994,-0.001239,0.002509,-0.002206
318,0.000895,-0.059773,9.934284,0.023250,0.024627,-0.040298,-0.141951,0.287942,-0.254529,0.999994,-0.001233,0.002516,-0.002218
319,0.004519,-0.060759,9.933268,0.026131,0.016745,-0.023515,-0.141134,0.288629,-0.255595,0.999994,-0.001226,0.002521,-0.002227
320,0.004315,-0.065288,9.935323,0.007634,0.007328,-0.031145,-0.140576,0.289028,-0.256507,0.999994,-0.001221,0.002525,-0.002235
321,0.008752,-0.071854,9.933249,0.007422,0.010108,-0.029621,-0.140330,0.289316,-0.257520,0.999994,-0.001219,0.002527,-0.002244
322,0.012188,-0.068186,9.932459,0.004150,0.022024,-0.029623,-0.140142,0.289849,-0.258509,0.999994,-0.001217,0.002532,-0.002253
323,0.007790,-0.069443,9.931056,-0.009797,0.008001,-0.028099,-0.140241,0.290347,-0.259472,0.999994,-0.001218,0.002537,-0.002261
324,0.009956,-0.069638,9.930614,0.000668,0.016872,-0.035730,-0.140398,0.290759,-0.260537,0.999993,-0.001219,0.002540,-0.002270
325,0.008956,-0.066169,9.930106,0.018769,0.016584,-0.026577,-0.140080,0.291314,-0.261577,0.999993,-0.001217,0.002545,-0.002280
326,0.008040,-0.060716,9.930078,0.026210,0.016301,-0.031156,-0.139335,0.291860,-0.262540,0.999993,-0.001210,0.002550,-0.002288
327,0.006222,-0.055017,9.934250,0.024523,0.020602,-0.032683,-0.138495,0.292472,-0.263606,0.999993,-0.001203,0.002555,-0.002297
328,0.004845,-0.059812,9.934718,0.027414,0.023384,-0.035737,-0.137635,0.293203,-0.264748,0.999993,-0.001195,0.002561,-0.002307
329,0.003585,-0.060905,9.931684,0.024188,0.020067,-0.032687,-0.136781,0.293924,-0.265890,0.999993,-0.001188,0.002568,-0.002317
330,0.005496,-0.066821,9.929563,0.022470,0.028957,-0.034214,-0.136009,0.294738,-0.267007,0.999993,-0.001181,0.002575,-0.002327
331,0.002844,-0.073511,9.928806,0.005460,0.030218,-0.034216,-0.135549,0.295722,-0.268150,0.999993,-0.001177,0.002583,-0.002337
332,0.001282,-0.077182,9.924207,0.009789,0.022332,-0.035743,-0.135301,0.296595,-0.269318,0.999993,-0.001175,0.002591,-0.002347
333,0.005826,-0.069056,9.925356,0.006497,0.031224,-0.043376,-0.135037,0.297484,-0.270639,0.999993,-0.001172,0.002599,-0.002359
334,0.003332,-0.073159,9.927851,0.009320,0.027902,-0.040325,-0.134780,0.298467,-0.272036,0.999993,-0.001170,0.002607,-0.002371
335,0.000168,-0.069612,9.927665,0.015193,0.024593,-0.038801,-0.134379,0.299339,-0.273357,0.999993,-0.001166,0.002615,-0.002382
336,-0.000288,-0.068532,9.933438,0.027180,0.018241,-0.038803,-0.133679,0.300049,-0.274652,0.999993,-0.001160,0.002621,-0.002394
337,-0.000925,-0.068987,9.936562,0.036118,0.028676,-0.046434,-0.132632,0.300828,-0.276074,0.999993,-0.001151,0.002628,-0.002406
338,-0.007038,-0.075635,9.934658,0.038933,0.028444,-0.037280,-0.131388,0.301777,-0.277472,0.999993,-0.001140,0.002636,-0.002418
339,-0.008129,-0.069232,9.937636,0.014280,0.035859,-0.046438,-0.130509,0.302845,-0.278870,0.999993,-0.001132,0.002646,-0.002431
340,-0.006314,-0.065217,9.940914,0.015592,0.031065,-0.052543,-0.130020,0.303957,-0.280522,0.999993,-0.001128,0.002655,-0.002445
341,-0.004948,-0.061748,9.934062,0.016922,0.035416,-0.055596,-0.129487,0.305061,-0.282327,0.999993,-0.001123,0.002665,-0.002461
342,-0.002226,-0.065554,9.931830,0.022828,0.026024,-0.043391,-0.128834,0.306081,-0.283979,0.999993,-0.001118,0.002674,-0.002475
343,0.003735,-0.064500,9.933141,0.022623,0.015085,-0.041866,-0.128084,0.306763,-0.285401,0.999993,-0.001111,0.002680,-0.002488
344,0.005238,-0.065314,9.929314,0.031573,0.010230,-0.035764,-0.127187,0.307182,-0.286696,0.999993,-0.001103,0.002683,-0.002499
345,0.006627,-0.064916,9.932471,0.019160,0.022153,-0.017455,-0.126347,0.307720,-0.287584,0.999993,-0.001096,0.002688,-0.002507
346,0.003234,-0.062997,9.933128,0.008276,0.020347,-0.022034,-0.125893,0.308427,-0.288244,0.999993,-0.001092,0.002694,-0.002512
347,0.000803,-0.061407,9.933925,-0.005651,0.010925,-0.026613,-0.125854,0.308946,-0.289056,0.999993,-0.001091,0.002699,-0.002520
348,-0.000441,-0.059327,9.935102,-0.002785,0.018296,-0.032719,-0.125999,0.309431,-0.290046,0.999993,-0.001093,0.002703,-0.002528
349,-0.000096,-0.062434,9.939213,0.012288,0.022618,-0.035772,-0.125847,0.310111,-0.291189,0.999993,-0.001091,0.002709,-0.002538
350,0.000481,-0.065361,9.935253,0.016662,0.005574,-0.049507,-0.125373,0.310577,-0.292611,0.999992,-0.001087,0.002713,-0.002551
351,0.006175,-0.068867,9.934521,0.011868,0.005299,-0.044931,-0.124906,0.310755,-0.294186,0.999992,-0.001083,0.002715,-0.002564
352,0.007065,-0.065580,9.936096,-0.000559,0.011113,-0.044933,-0.124725,0.311025,-0.295684,0.999992,-0.001081,0.002717,-0.002577
353,0.006065,-0.068296,9.933192,0.008379,0.007770,-0.040357,-0.124603,0.311337,-0.297106,0.999992,-0.001080,0.002720,-0.002590
354,0.002514,-0.062431,9.932632,-0.005564,-0.006244,-0.037307,-0.124563,0.311360,-0.298401,0.999992,-0.001080,0.002720,-0.002601
355,0.000767,-0.061797,9.928381,-0.008811,-0.009563,-0.028153,-0.124808,0.311094,-0.299491,0.999992,-0.001082,0.002718,-0.002611
356,-0.002051,-0.064885,9.927252,0.004722,-0.005241,-0.020525,-0.124881,0.310845,-0.300302,0.999992,-0.001083,0.002715,-0.002618
357,-0.000570,-0.066265,9.925595,0.016719,0.003662,-0.017475,-0.124527,0.310818,-0.300935,0.999992,-0.001080,0.002715,-0.002623
358,-0.000267,-0.064151,9.927524,0.010405,0.011034,-0.011373,-0.124077,0.311061,-0.301417,0.999992,-0.001076,0.002717,-0.002627
359,-0.000228,-0.064979,9.925598,0.016302,0.019932,-0.012901,-0.123635,0.311577,-0.301822,0.999992,-0.001072,0.002722,-0.002631
360,0.001775,-0.065964,9.929011,0.017616,0.041032,-0.014428,-0.123072,0.312592,-0.302280,0.999992,-0.001067,0.002731,-0.002635
361,0.001057,-0.067596,9.930569,0.015871,0.031609,-0.008326,-0.122516,0.313802,-0.302662,0.999992,-0.001062,0.002741,-0.002638
362,0.000140,-0.070639,9.930679,0.024797,0.028294,-0.009854,-0.121840,0.314799,-0.302967,0.999992,-0.001056,0.002750,-0.002641
363,0.005852,-0.067274,9.930293,0.036774,0.020388,-0.009856,-0.120815,0.315610,-0.303297,0.999992,-0.001047,0.002757,-0.002644
364,0.008377,-0.068964,9.931427,0.030445,0.023143,-0.009858,-0.119697,0.316335,-0.303627,0.999992,-0.001037,0.002763,-0.002647
365,0.005864,-0.073174,9.935368,0.025626,0.021319,-0.005283,-0.118764,0.317075,-0.303881,0.999992,-0.001029,0.002770,-0.002649
366,0.005631,-0.067920,9.938124,0.036067,0.021028,-0.014439,-0.117737,0.317780,-0.304211,0.999992,-0.001020,0.002776,-0.002652
367,0.005886,-0.070928,9.940063,0.014471,0.019209,-0.017493,-0.116898,0.318450,-0.304745,0.999992,-0.001013,0.002782,-0.002657
368,0.000772,-0.073818,9.940098,-0.002564,0.023506,-0.025125,-0.116703,0.319160,-0.305457,0.999992,-0.001011,0.002788,-0.002663
369,0.001693,-0.078812,9.939281,0.010899,0.021709,-0.015972,-0.116568,0.319913,-0.306143,0.999992,-0.001010,0.002794,-0.002669
370,0.001009,-0.068728,9.935150,0.010642,0.006176,-0.034285,-0.116214,0.320376,-0.306982,0.999992,-0.001007,0.002799,-0.002676
371,0.000546,-0.064584,9.929830,0.001263,0.016587,-0.028183,-0.116021,0.320753,-0.308024,0.999992,-0.001005,0.002802,-0.002685
372,0.000854,-0.058890,9.927773,-0.011144,0.017843,-0.022081,-0.116191,0.321325,-0.308863,0.999992,-0.001006,0.002807,-0.002692
373,0.002538,-0.056780,9.925269,-0.026586,0.022145,-0.026660,-0.116824,0.321990,-0.309676,0.999992,-0.001012,0.002813,-0.002700
374,0.003641,-0.052551,9.927811,-0.034381,0.015758,-0.038869,-0.117846,0.322619,-0.310770,0.999992,-0.001021,0.002818,-0.002709
375,0.007949,-0.060732,9.928027,-0.043712,0.018514,-0.037344,-0.119155,0.323188,-0.312041,0.999992,-0.001032,0.002823,-0.002720
376,0.012482,-0.062716,9.931608,-0.031702,0.016670,-0.046502,-0.120420,0.323771,-0.313440,0.999992,-0.001043,0.002828,-0.002732
377,0.013245,-0.065959,9.931750,0.004710,0.014812,-0.058711,-0.120880,0.324292,-0.315195,0.999992,-0.001047,0.002833,-0.002748
378,0.012342,-0.065828,9.936193,0.009071,0.000748,-0.055661,-0.120661,0.324548,-0.317101,0.999992,-0.001045,0.002835,-0.002764
379,0.010874,-0.061334,9.933746,0.016497,0.001948,-0.046508,-0.120244,0.324589,-0.318804,0.999992,-0.001041,0.002835,-0.002779
380,0.006308,-0.059681,9.932816,0.014780,-0.002942,-0.052614,-0.119732,0.324569,-0.320456,0.999992,-0.001037,0.002835,-0.002794
381,0.001151,-0.065269,9.930083,0.006951,-0.009335,-0.046511,-0.119380,0.324361,-0.322108,0.999992,-0.001034,0.002833,-0.002808
382,0.000022,-0.067060,9.926933,-0.007001,-0.011134,-0.028202,-0.119387,0.324017,-0.323353,0.999992,-0.001034,0.002831,-0.002819
383,-0.003472,-0.076076,9.928698,-0.005720,-0.005292,-0.028204,-0.119605,0.323742,-0.324292,0.999992,-0.001036,0.002828,-0.002827
384,0.002323,-0.079455,9.929172,-0.001416,-0.007085,-0.023628,-0.119729,0.323534,-0.325156,0.999992,-0.001037,0.002826,-0.002835
385,0.001001,-0.081096,9.931080,0.008979,0.004846,-0.009896,-0.119606,0.323495,-0.325714,0.999991,-0.001036,0.002826,-0.002839
386,0.000246,-0.079358,9.931906,0.010219,0.010676,-0.016002,-0.119288,0.323753,-0.326146,0.999991,-0.001033,0.002828,-0.002843
387,0.001202,-0.072575,9.933836,-0.005307,0.016507,-0.016004,-0.119209,0.324205,-0.326681,0.999991,-0.001032,0.002832,-0.002848
388,0.004969,-0.063109,9.929184,-0.010110,0.023851,-0.019058,-0.119470,0.324876,-0.327267,0.999991,-0.001034,0.002838,-0.002853
389,0.000380,-0.057631,9.926075,-0.024035,0.018991,-0.034319,-0.120044,0.325588,-0.328158,0.999991,-0.001039,0.002844,-0.002861
390,0.001568,-0.051940,9.921143,-0.028777,0.009559,-0.035847,-0.120931,0.326062,-0.329328,0.999991,-0.001047,0.002848,-0.002871
391,0.002655,-0.051577,9.920197,-0.045709,-0.002930,-0.026693,-0.122178,0.326170,-0.330371,0.999991,-0.001058,0.002849,-0.002880
392,0.000471,-0.057559,9.919569,-0.026034,-0.009313,-0.037376,-0.123380,0.325964,-0.331438,0.999991,-0.001068,0.002848,-0.002889
393,-0.002352,-0.060067,9.918198,-0.029267,-0.011106,-0.041955,-0.124309,0.325621,-0.332760,0.999991,-0.001077,0.002845,-0.002901
394,-0.000743,-0.065494,9.920046,-0.017259,-0.005266,-0.032801,-0.125092,0.325345,-0.334005,0.999991,-0.001083,0.002842,-0.002912
395,-0.001015,-0.072130,9.920538,-0.002227,-0.000955,-0.035855,-0.125423,0.325239,-0.335149,0.999991,-0.001086,0.002841,-0.002922
396,-0.000697,-0.073028,9.924402,-0.007050,0.003355,-0.035857,-0.125584,0.325276,-0.336344,0.999991,-0.001088,0.002842,-0.002932
397,0.004083,-0.072815,9.925212,0.007964,0.000024,-0.034333,-0.125576,0.325330,-0.337514,0.999991,-0.001087,0.002842,-0.002942
398,0.007402,-0.069613,9.924663,0.016881,0.001251,-0.026706,-0.125167,0.325349,-0.338532,0.999991,-0.001084,0.002842,-0.002951
399,0.006425,-0.069969,9.926332,0.005969,0.005525,-0.034337,-0.124792,0.325460,-0.339549,0.999991,-0.001081,0.002843,-0.002960
400,0.010234,-0.057628,9.932882,-0.000338,0.003687,-0.031287,-0.124705,0.325611,-0.340643,0.999991,-0.001080,0.002845,-0.002970
402,0.012508,-0.061920,9.928956,0.007108,0.000309,-0.032814,-0.124598,0.325675,-0.341712,0.999991,-0.001079,0.002845,-0.002979
403,0.006150,-0.055967,9.931841,-0.023590,0.010675,-0.026713,-0.124878,0.325856,-0.342704,0.999991,-0.001081,0.002847,-0.002988
404,0.002797,-0.059267,9.934920,-0.010030,0.008856,-0.028241,-0.125444,0.326180,-0.343621,0.999991,-0.001086,0.002850,-0.002996
405,0.003395,-0.056482,9.932154,-0.004100,0.000940,-0.017560,-0.125684,0.326341,-0.344385,0.999991,-0.001088,0.002851,-0.003002
406,0.002616,-0.066295,9.929268,-0.004290,-0.006976,-0.017562,-0.125827,0.326239,-0.344970,0.999991,-0.001089,0.002850,-0.003007
407,-0.001122,-0.059591,9.932560,0.003141,0.003430,-0.032823,-0.125851,0.326178,-0.345810,0.999991,-0.001090,0.002850,-0.003015
408,0.004019,-0.060935,9.926390,0.015164,-0.006005,-0.043507,-0.125553,0.326133,-0.347082,0.999991,-0.001087,0.002849,-0.003026
409,0.007886,-0.065847,9.929122,0.016490,-0.012408,-0.038930,-0.125033,0.325823,-0.348455,0.999991,-0.001082,0.002847,-0.003038
410,0.007845,-0.074209,9.931911,0.005576,-0.006614,-0.048088,-0.124673,0.325502,-0.349905,0.999991,-0.001079,0.002844,-0.003050
411,0.004480,-0.073690,9.931970,0.006852,0.002240,-0.048090,-0.124475,0.325426,-0.351507,0.999991,-0.001078,0.002843,-0.003064
412,0.008112,-0.071906,9.927693,0.006605,0.001939,-0.028255,-0.124258,0.325493,-0.352780,0.999991,-0.001076,0.002844,-0.003075
413,0.004994,-0.075431,9.931260,0.015510,-0.002942,-0.029783,-0.123895,0.325474,-0.353747,0.999991,-0.001072,0.002844,-0.003084
414,0.002016,-0.070412,9.924928,-0.003050,0.001348,-0.037415,-0.123694,0.325445,-0.354867,0.999991,-0.001071,0.002843,-0.003094
415,-0.002358,-0.065842,9.924477,0.008934,-0.003500,-0.037417,-0.123603,0.325407,-0.356114,0.999991,-0.001070,0.002843,-0.003105
416,0.000715,-0.058421,9.928614,0.013316,-0.011397,-0.041996,-0.123240,0.325155,-0.357437,0.999991,-0.001067,0.002841,-0.003116
417,-0.000101,-0.069487,9.929587,0.014638,-0.016247,-0.046576,-0.122782,0.324692,-0.358913,0.999991,-0.001063,0.002837,-0.003129
418,0.000740,-0.071552,9.931536,0.018979,-0.005838,-0.049630,-0.122231,0.324320,-0.360515,0.999990,-0.001058,0.002834,-0.003143
419,0.000931,-0.070715,9.934189,0.023317,-0.010690,-0.049632,-0.121535,0.324041,-0.362169,0.999990,-0.001052,0.002831,-0.003158
420,0.001348,-0.074319,9.933722,0.010862,-0.010966,-0.043530,-0.120975,0.323677,-0.363721,0.999990,-0.001047,0.002828,-0.003171
421,0.001124,-0.079245,9.929029,0.007542,0.000966,-0.045058,-0.120676,0.323507,-0.365197,0.999990,-0.001044,0.002826,-0.003184
422,-0.000772,-0.075071,9.931757,-0.004936,0.008325,-0.052690,-0.120642,0.323658,-0.366827,0.999990,-0.001044,0.002828,-0.003198
423,0.001218,-0.071080,9.931182,-0.014341,0.014158,-0.037432,-0.120972,0.324030,-0.368329,0.999990,-0.001047,0.002831,-0.003211
424,0.000702,-0.077835,9.932031,-0.010021,0.021513,-0.043538,-0.121385,0.324622,-0.369680,0.999990,-0.001050,0.002836,-0.003223
425,0.007885,-0.076539,9.931436,-0.019447,0.021222,-0.046592,-0.121885,0.325331,-0.371184,0.999990,-0.001054,0.002842,-0.003236
426,0.006848,-0.078660,9.930577,-0.012089,0.014812,-0.043542,-0.122419,0.325928,-0.372687,0.999990,-0.001059,0.002848,-0.003249
427,0.011311,-0.076279,9.926194,-0.003204,0.003816,-0.035914,-0.122682,0.326236,-0.374012,0.999990,-0.001061,0.002850,-0.003261
428,0.008400,-0.075854,9.928189,-0.003468,-0.008711,-0.037443,-0.122800,0.326152,-0.375235,0.999990,-0.001062,0.002850,-0.003271
429,0.012344,-0.075427,9.928621,-0.002203,-0.005981,-0.016082,-0.122899,0.325905,-0.376126,0.999990,-0.001063,0.002848,-0.003279
430,0.005392,-0.076714,9.929824,0.011267,-0.006295,-0.019136,-0.122752,0.325699,-0.376713,0.999990,-0.001062,0.002846,-0.003284
431,0.004482,-0.076696,9.934869,0.006423,-0.006590,-0.017612,-0.122460,0.325483,-0.377325,0.999990,-0.001059,0.002844,-0.003290
