seq,ax,ay,az,wroll,wpitch,wyaw,roll,pitch,yaw,q0,q1,q2,q3
7326,-0.067165,6.980567,7.042494,-0.009500,-0.078250,0.027037,44.746975,0.388082,0.384661,0.924716,0.380628,0.004409,0.001815
7328,-0.071148,6.980669,7.034230,-0.017129,-0.082828,0.033141,44.750729,0.388044,0.383191,0.924704,0.380658,0.004404,0.001803
7329,-0.066055,6.981952,7.037333,-0.011025,-0.082828,0.034666,44.756420,0.387128,0.382092,0.924685,0.380704,0.004393,0.001797
7330,-0.064935,6.982244,7.042655,-0.000344,-0.093509,0.025511,44.758362,0.382358,0.380749,0.924678,0.380720,0.004350,0.001802
7331,-0.066513,6.983033,7.043228,0.007287,-0.088932,0.020933,44.757656,0.378559,0.379152,0.924681,0.380714,0.004314,0.001802
7332,-0.068547,6.988948,7.045588,0.007287,-0.078250,0.030088,44.758636,0.378047,0.377799,0.924678,0.380722,0.004306,0.001793
7333,-0.069249,6.997654,7.044110,-0.000344,-0.072146,0.020933,44.765560,0.379865,0.376683,0.924655,0.380778,0.004317,0.001777
7335,-0.073851,6.999148,7.037395,-0.011025,-0.073672,0.031615,44.779461,0.384889,0.375688,0.924608,0.380890,0.004354,0.001752
7336,-0.074779,6.989925,7.035952,-0.015603,-0.072147,0.034667,44.791016,0.392520,0.374842,0.924570,0.380983,0.004413,0.001719
7337,-0.070989,6.988456,7.032167,-0.035440,-0.076724,0.048400,44.796967,0.396808,0.374123,0.924550,0.381031,0.004446,0.001699
7338,-0.069309,6.983865,7.036667,-0.049173,-0.087406,0.042296,44.797459,0.396128,0.373282,0.924548,0.381035,0.004437,0.001694
7339,-0.065779,6.979859,7.036860,-0.038492,-0.088932,0.042296,44.791313,0.391734,0.372179,0.924569,0.380986,0.004398,0.001700
7340,-0.061823,6.980396,7.036329,-0.033914,-0.087406,0.039245,44.784641,0.383249,0.371036,0.924591,0.380932,0.004326,0.001720
7342,-0.061614,6.984922,7.033912,-0.032389,-0.090458,0.030089,44.783001,0.373670,0.369765,0.924597,0.380919,0.004244,0.001741
7343,-0.063525,6.990490,7.036396,-0.018655,-0.090458,0.020933,44.786976,0.367265,0.368276,0.924584,0.380952,0.004188,0.001750
7344,-0.066715,6.991331,7.032239,-0.027811,-0.085880,0.030089,44.794361,0.365825,0.366861,0.924559,0.381012,0.004171,0.001744
7345,-0.071195,6.992656,7.034083,-0.033915,-0.081302,0.037718,44.802238,0.369947,0.365758,0.924533,0.381075,0.004201,0.001721
7346,-0.076561,6.989420,7.035318,-0.030863,-0.076725,0.025511,44.806213,0.380099,0.364683,0.924520,0.381107,0.004280,0.001678
7347,-0.074906,6.986574,7.039814,-0.044596,-0.084354,0.031614,44.803493,0.391063,0.363457,0.924529,0.381084,0.004364,0.001632
7349,-0.074242,6.982972,7.038869,-0.038492,-0.082828,0.033140,44.796082,0.398137,0.362217,0.924553,0.381024,0.004417,0.001599
7350,-0.073600,6.981575,7.037197,-0.023232,-0.095036,0.016355,44.789051,0.402516,0.360672,0.924576,0.380968,0.004447,0.001572
7351,-0.070528,6.978590,7.034849,-0.018655,-0.088932,0.008725,44.783737,0.403571,0.358776,0.924594,0.380925,0.004449,0.001553
7352,-0.067019,6.976444,7.034676,-0.009499,-0.095035,0.020933,44.778824,0.399885,0.356936,0.924610,0.380885,0.004413,0.001551
7353,-0.066296,6.974315,7.028066,-0.006446,-0.093509,0.022459,44.776306,0.393651,0.355220,0.924619,0.380865,0.004357,0.001558
7354,-0.064589,6.970171,7.030155,-0.017129,-0.101139,0.019407,44.773678,0.386946,0.353415,0.924628,0.380844,0.004297,0.001566
7356,-0.063506,6.968688,7.031383,-0.026285,-0.095035,0.028563,44.767307,0.379810,0.351642,0.924649,0.380793,0.004233,0.001575
7357,-0.063778,6.969161,7.033185,-0.021707,-0.105717,0.030089,44.760044,0.373480,0.349937,0.924673,0.380735,0.004176,0.001583
7358,-0.061691,6.975477,7.031883,-0.032387,-0.105717,0.027037,44.756962,0.367342,0.348118,0.924684,0.380710,0.004121,0.001589
7359,-0.061648,6.983436,7.037891,-0.027811,-0.107243,0.036192,44.759174,0.361078,0.346388,0.924677,0.380728,0.004065,0.001595
7360,-0.068226,6.986425,7.033789,-0.018655,-0.105717,0.033140,44.765728,0.360141,0.344755,0.924655,0.380782,0.004052,0.001585
7361,-0.067610,6.988915,7.038615,-0.007974,-0.104191,0.037718,44.773785,0.363717,0.343184,0.924628,0.380846,0.004075,0.001560
7363,-0.073580,7.000007,7.042821,-0.020181,-0.102665,0.036192,44.782272,0.370285,0.341688,0.924600,0.380915,0.004124,0.001526
7364,-0.076483,6.998925,7.045784,-0.027811,-0.099613,0.049925,44.789932,0.381159,0.340388,0.924574,0.380976,0.004207,0.001479
7365,-0.080083,7.000939,7.044027,-0.018655,-0.085880,0.045348,44.795742,0.394292,0.339382,0.924555,0.381023,0.004310,0.001427
7366,-0.075944,7.001855,7.047113,-0.026285,-0.082828,0.034666,44.800838,0.404851,0.338387,0.924537,0.381063,0.004392,0.001384
7367,-0.075681,7.011155,7.044687,-0.033914,-0.076724,0.023985,44.808735,0.410414,0.337271,0.924511,0.381127,0.004433,0.001356
7368,-0.068691,7.004041,7.040611,-0.033914,-0.079776,0.031615,44.818920,0.409785,0.336171,0.924477,0.381209,0.004424,0.001349
7370,-0.066980,6.999897,7.042459,-0.021707,-0.082828,0.016355,44.823345,0.403246,0.334866,0.924463,0.381245,0.004367,0.001360
7371,-0.067740,7.001868,7.043405,-0.043069,-0.078250,0.005674,44.823841,0.397209,0.333245,0.924461,0.381249,0.004313,0.001367
7372,-0.063160,7.001424,7.050599,-0.047648,-0.079776,0.019407,44.820465,0.390121,0.331672,0.924473,0.381223,0.004251,0.001378
7373,-0.063234,6.991632,7.048691,-0.053751,-0.088932,0.016355,44.810352,0.381399,0.330056,0.924506,0.381141,0.004175,0.001394
7374,-0.062710,6.998729,7.046877,-0.050698,-0.102665,0.011777,44.802082,0.373947,0.328095,0.924534,0.381075,0.004108,0.001404
7375,-0.064909,7.002291,7.046227,-0.059855,-0.098087,0.016355,44.801533,0.369161,0.326079,0.924536,0.381071,0.004063,0.001403
7377,-0.062171,6.997553,7.043877,-0.024759,-0.111821,0.020933,44.803162,0.365161,0.324074,0.924531,0.381084,0.004024,0.001400
7378,-0.064521,6.998756,7.039252,-0.017129,-0.110295,0.007200,44.806892,0.361863,0.321827,0.924518,0.381114,0.003990,0.001393
7379,-0.064419,6.991657,7.039149,-0.014077,-0.110295,0.004148,44.809689,0.361007,0.319391,0.924509,0.381137,0.003975,0.001376
7380,-0.065664,6.991657,7.042381,-0.006448,-0.098087,0.005674,44.807426,0.361489,0.317048,0.924517,0.381119,0.003971,0.001356
7381,-0.065594,6.990698,7.038407,-0.003396,-0.110295,0.007200,44.805183,0.362716,0.314739,0.924524,0.381101,0.003973,0.001333
7382,-0.064265,6.992451,7.035896,-0.018655,-0.104191,-0.006533,44.806438,0.362970,0.312238,0.924520,0.381111,0.003967,0.001312
7384,-0.065053,6.989752,7.034924,-0.021707,-0.107243,0.010252,44.808609,0.362739,0.309817,0.924513,0.381129,0.003957,0.001293
7385,-0.065335,6.997919,7.038275,-0.023232,-0.111821,0.019407,44.811710,0.362757,0.307619,0.924502,0.381154,0.003950,0.001275
7386,-0.064272,6.988410,7.040484,-0.032389,-0.101139,0.010252,44.811020,0.362369,0.305470,0.924505,0.381148,0.003940,0.001259
7387,-0.061679,6.986170,7.045839,-0.035440,-0.096561,0.014829,44.801311,0.359981,0.303390,0.924537,0.381070,0.003913,0.001251
7388,-0.062428,6.991663,7.050996,-0.040018,-0.098087,0.033140,44.789413,0.356468,0.301605,0.924577,0.380974,0.003879,0.001248
7389,-0.065148,6.995176,7.044792,-0.033915,-0.085880,0.023985,44.784351,0.355760,0.300096,0.924594,0.380933,0.003868,0.001239
7391,-0.065197,6.993637,7.041300,-0.030861,-0.079776,0.019407,44.786430,0.357640,0.298684,0.924587,0.380950,0.003879,0.001221
7392,-0.062667,6.999979,7.042537,-0.021707,-0.095035,0.034666,44.792156,0.357602,0.297313,0.924568,0.380996,0.003874,0.001210
7393,-0.068976,6.996371,7.043033,-0.021707,-0.093509,0.039244,44.797634,0.359318,0.296012,0.924549,0.381041,0.003883,0.001193
7394,-0.071031,6.989231,7.042891,-0.029336,-0.098087,0.037718,44.796844,0.366042,0.294673,0.924552,0.381034,0.003933,0.001160
7395,-0.066777,6.987317,7.040683,-0.026285,-0.107243,0.037718,44.792500,0.370366,0.293132,0.924566,0.380999,0.003963,0.001134
7396,-0.068194,6.985083,7.041385,-0.014077,-0.105717,0.034666,44.787773,0.371681,0.291461,0.924582,0.380961,0.003968,0.001116
7398,-0.073761,6.980784,7.040932,-0.014077,-0.090458,0.020933,44.781223,0.377171,0.289775,0.924604,0.380908,0.004007,0.001084
7399,-0.068552,6.984498,7.041862,-0.017129,-0.078250,0.017881,44.775375,0.382670,0.288218,0.924623,0.380861,0.004046,0.001054
7400,-0.070070,6.984449,7.039062,-0.012550,-0.076724,0.011777,44.773354,0.384933,0.286740,0.924630,0.380844,0.004059,0.001034
7401,-0.070744,6.981816,7.047010,-0.020181,-0.079776,0.014829,44.768669,0.387736,0.285189,0.924645,0.380806,0.004076,0.001013
7402,-0.068117,6.983720,7.045848,-0.030861,-0.076724,0.022459,44.761089,0.388624,0.283748,0.924670,0.380745,0.004079,0.000998
7403,-0.067464,6.983936,7.041762,-0.038492,-0.073673,0.023985,44.757790,0.387034,0.282518,0.924681,0.380719,0.004062,0.000994
7404,-0.067782,6.981367,7.041400,-0.033914,-0.084354,0.013303,44.756535,0.385348,0.281105,0.924686,0.380709,0.004043,0.000988
7405,-0.068313,6.983463,7.042953,-0.035440,-0.095036,0.023985,44.755081,0.384293,0.279439,0.924691,0.380697,0.004029,0.000978
7406,-0.068732,6.989610,7.041003,-0.035440,-0.093510,0.028563,44.757736,0.383819,0.277874,0.924682,0.380719,0.004020,0.000967
7407,-0.069966,6.992840,7.040251,-0.035440,-0.099613,0.027037,44.765614,0.384434,0.276326,0.924656,0.380782,0.004020,0.000952
7408,-0.068019,6.997314,7.042204,-0.030861,-0.113347,0.031615,44.775322,0.384290,0.274594,0.924623,0.380861,0.004013,0.000938
7409,-0.067821,7.000807,7.041718,-0.043069,-0.111821,0.030089,44.785877,0.382546,0.272760,0.924588,0.380946,0.003993,0.000929
7411,-0.063483,7.000761,7.040110,-0.046122,-0.096561,0.031615,44.796440,0.378365,0.271124,0.924553,0.381031,0.003954,0.000929
7412,-0.064808,7.000508,7.040810,-0.043069,-0.090458,0.017881,44.804977,0.373342,0.269579,0.924525,0.381100,0.003909,0.000933
7413,-0.066883,6.999217,7.044752,-0.046122,-0.091984,0.028563,44.808723,0.371523,0.268020,0.924513,0.381131,0.003889,0.000927
7414,-0.069199,6.993122,7.045084,-0.053751,-0.085880,0.020933,44.805798,0.373218,0.266508,0.924522,0.381107,0.003897,0.000909
7415,-0.070295,6.993919,7.045545,-0.040018,-0.078250,0.031615,44.800190,0.377199,0.265175,0.924541,0.381062,0.003925,0.000885
7416,-0.072460,6.994807,7.045142,-0.030861,-0.082828,0.030089,44.796612,0.382527,0.263997,0.924553,0.381033,0.003964,0.000858
7417,-0.071477,6.994813,7.043473,-0.027811,-0.082828,0.039244,44.795536,0.387446,0.262870,0.924556,0.381024,0.004000,0.000833
7418,-0.070926,6.998662,7.042993,-0.026285,-0.079776,0.036192,44.797699,0.390255,0.261874,0.924549,0.381041,0.004019,0.000815
7419,-0.071506,6.998641,7.041656,-0.027811,-0.082828,0.043822,44.802242,0.392184,0.260948,0.924534,0.381078,0.004032,0.000801
7420,-0.072345,6.995791,7.035983,-0.026285,-0.093509,0.042296,44.807880,0.394285,0.259940,0.924515,0.381124,0.004046,0.000786
7421,-0.074316,6.991675,7.035354,-0.029336,-0.084354,0.040770,44.812077,0.397769,0.258869,0.924501,0.381157,0.004070,0.000765
7422,-0.077306,6.992309,7.034214,-0.033914,-0.087406,0.040770,44.814312,0.403858,0.257839,0.924493,0.381175,0.004116,0.000737
7423,-0.075036,6.984551,7.034031,-0.030861,-0.084354,0.030089,44.813248,0.409515,0.256659,0.924497,0.381166,0.004158,0.000708
7424,-0.071096,6.984518,7.035187,-0.014077,-0.073673,0.022459,44.808495,0.410412,0.255395,0.924513,0.381128,0.004161,0.000695
7425,-0.074149,6.984142,7.039592,-0.024759,-0.067569,0.030089,44.801842,0.410225,0.254315,0.924535,0.381075,0.004155,0.000688
7426,-0.065468,6.984341,7.044329,-0.026285,-0.076724,0.028563,44.792118,0.406304,0.253250,0.924567,0.380996,0.004120,0.000692
7427,-0.066704,6.977111,7.045768,-0.029336,-0.075198,0.042296,44.778240,0.397936,0.252214,0.924614,0.380884,0.004049,0.000712
7428,-0.066246,6.980251,7.044083,-0.032387,-0.078250,0.057555,44.765114,0.391040,0.251510,0.924657,0.380779,0.003991,0.000730
7429,-0.066785,6.982467,7.046116,-0.041544,-0.087406,0.077392,44.756935,0.385275,0.251115,0.924685,0.380713,0.003943,0.000746
7430,-0.070069,6.986474,7.045445,-0.023232,-0.091983,0.060607,44.753372,0.383053,0.250627,0.924696,0.380684,0.003924,0.000750
7431,-0.075550,6.988780,7.040761,-0.018655,-0.090458,0.049926,44.756641,0.387463,0.249821,0.924686,0.380711,0.003957,0.000729
7432,-0.078216,6.987011,7.044573,-0.012550,-0.098087,0.040770,44.760735,0.396894,0.248713,0.924672,0.380743,0.004029,0.000688
7433,-0.080914,6.988609,7.047292,-0.017129,-0.093510,0.037718,44.761105,0.408266,0.247400,0.924670,0.380746,0.004116,0.000640
7434,-0.084261,6.989697,7.045542,-0.018655,-0.091984,0.019407,44.761642,0.421475,0.245907,0.924668,0.380750,0.004218,0.000584
7435,-0.079575,6.992785,7.041643,-0.023232,-0.090458,0.016355,44.766335,0.431476,0.244229,0.924652,0.380788,0.004293,0.000537
7436,-0.081874,6.997721,7.038216,-0.030861,-0.087406,0.013303,44.777042,0.437593,0.242580,0.924617,0.380874,0.004337,0.000503
7437,-0.073449,7.003702,7.038356,-0.040018,-0.084354,0.013303,44.792091,0.438217,0.241003,0.924567,0.380995,0.004337,0.000487
7438,-0.071535,7.002469,7.039839,-0.041544,-0.084354,0.001096,44.805550,0.431804,0.239305,0.924522,0.381104,0.004280,0.000495
7439,-0.075806,6.997512,7.041701,-0.041544,-0.082828,0.001096,44.811684,0.427663,0.237424,0.924502,0.381154,0.004240,0.000493
7440,-0.069449,6.990982,7.039421,-0.043069,-0.066043,0.004148,44.810764,0.423579,0.235741,0.924505,0.381147,0.004201,0.000493
7441,-0.066024,6.985002,7.040581,-0.036965,-0.062991,0.010251,44.804295,0.414436,0.234358,0.924527,0.381095,0.004123,0.000512
7442,-0.070933,6.985369,7.039768,-0.038492,-0.067569,-0.001956,44.796055,0.407726,0.232873,0.924554,0.381029,0.004064,0.000523
7443,-0.075163,6.989005,7.038599,-0.030861,-0.070621,0.001096,44.792168,0.408462,0.231220,0.924567,0.380997,0.004064,0.000507
7444,-0.071060,6.992998,7.032639,-0.021707,-0.073672,0.004148,44.796398,0.409780,0.229624,0.924553,0.381032,0.004070,0.000490
7445,-0.074234,6.994123,7.035591,-0.020181,-0.091984,0.004148,44.804375,0.409999,0.227839,0.924526,0.381096,0.004066,0.000475
7446,-0.073889,6.990438,7.040306,-0.023232,-0.093510,0.004148,44.806477,0.411570,0.225779,0.924519,0.381113,0.004071,0.000453
7447,-0.075715,6.990418,7.042321,-0.023232,-0.093510,0.004148,44.802834,0.413846,0.223660,0.924532,0.381083,0.004083,0.000428
7448,-0.073185,6.989651,7.042248,-0.018655,-0.096561,0.010252,44.798222,0.415153,0.221570,0.924547,0.381046,0.004086,0.000407
7449,-0.071504,6.991530,7.040105,-0.023232,-0.085880,0.014829,44.795979,0.413406,0.219713,0.924554,0.381028,0.004066,0.000398
7450,-0.069553,6.995656,7.042181,-0.017129,-0.084354,0.027037,44.797188,0.409363,0.218222,0.924550,0.381038,0.004028,0.000399
7451,-0.070305,6.996930,7.043249,-0.024759,-0.075198,0.036192,44.799511,0.405046,0.217118,0.924543,0.381057,0.003990,0.000405
7452,-0.065292,6.995356,7.037799,-0.023232,-0.061465,0.040770,44.803154,0.399094,0.216455,0.924531,0.381087,0.003940,0.000419
7453,-0.064513,6.984879,7.035547,-0.027811,-0.069094,0.036193,44.804138,0.390763,0.215844,0.924528,0.381095,0.003871,0.000442
7454,-0.065178,6.981025,7.035543,-0.029336,-0.081302,0.051452,44.799152,0.383595,0.215087,0.924545,0.381055,0.003810,0.000460
7455,-0.067839,6.975264,7.034544,-0.029336,-0.079776,0.040770,44.790730,0.380040,0.214236,0.924572,0.380987,0.003779,0.000465
7456,-0.069392,6.983497,7.034377,-0.003396,-0.093509,0.040770,44.785820,0.380264,0.213137,0.924589,0.380948,0.003777,0.000456
7457,-0.075621,6.982453,7.035110,0.004234,-0.105717,0.051452,44.785854,0.385265,0.211889,0.924589,0.380948,0.003813,0.000429
7458,-0.074677,6.986061,7.032588,-0.004922,-0.096561,0.056029,44.788319,0.392792,0.210802,0.924580,0.380967,0.003870,0.000395
7459,-0.073313,6.986471,7.037432,-0.003396,-0.088932,0.034666,44.791149,0.397891,0.209717,0.924571,0.380990,0.003908,0.000369
7460,-0.072418,6.988023,7.040458,-0.012551,-0.076724,0.045348,44.790676,0.400536,0.208717,0.924572,0.380986,0.003926,0.000352
7461,-0.067624,6.979039,7.041047,-0.029336,-0.073672,0.046874,44.784626,0.398830,0.208005,0.924592,0.380938,0.003909,0.000352
7462,-0.062354,6.979718,7.040659,-0.032387,-0.058413,0.033140,44.775177,0.391108,0.207342,0.924624,0.380862,0.003845,0.000373
7463,-0.062669,6.982871,7.042816,-0.020181,-0.055361,0.023985,44.768478,0.381774,0.206644,0.924647,0.380808,0.003767,0.000399
7464,-0.061437,6.981721,7.041636,-0.017129,-0.062991,0.016355,44.764244,0.373849,0.205708,0.924661,0.380774,0.003700,0.000418
7465,-0.060142,6.978577,7.037930,-0.020181,-0.072147,0.002622,44.761429,0.366288,0.204332,0.924670,0.380751,0.003635,0.000432
7466,-0.064607,6.982321,7.036274,-0.020181,-0.073672,0.005674,44.761959,0.362402,0.202727,0.924669,0.380756,0.003598,0.000432
7467,-0.063652,6.980839,7.038103,-0.015603,-0.085880,0.007200,44.763741,0.361731,0.201022,0.924663,0.380770,0.003587,0.000420
7468,-0.061751,6.974582,7.037066,-0.032387,-0.091984,0.007200,44.761280,0.359550,0.199094,0.924671,0.380750,0.003563,0.000412
7469,-0.067900,6.976795,7.037311,-0.038492,-0.082828,0.020933,44.757061,0.360227,0.197357,0.924685,0.380716,0.003563,0.000396
7470,-0.068305,6.979238,7.038142,-0.038492,-0.081302,0.027037,44.755066,0.365049,0.195994,0.924691,0.380700,0.003597,0.000369
7471,-0.070465,6.980354,7.037136,-0.033914,-0.075199,0.011777,44.755478,0.371069,0.194627,0.924690,0.380703,0.003641,0.000338
7472,-0.078236,6.984649,7.039878,-0.043069,-0.072147,0.022459,44.757614,0.382270,0.193325,0.924683,0.380721,0.003727,0.000290
7473,-0.083781,6.991324,7.043860,-0.024759,-0.072147,0.033141,44.761551,0.399664,0.192324,0.924669,0.380752,0.003864,0.000224
7474,-0.079981,6.991761,7.045977,-0.021707,-0.072147,0.033141,44.765656,0.414879,0.191450,0.924655,0.380785,0.003984,0.000166
7475,-0.083912,6.992021,7.043976,-0.026285,-0.067569,0.017881,44.769123,0.426874,0.190445,0.924643,0.380812,0.004077,0.000118
7476,-0.079791,6.988724,7.044058,-0.035440,-0.079776,0.030089,44.771030,0.435765,0.189305,0.924637,0.380828,0.004145,0.000079
7477,-0.076605,6.984473,7.043403,-0.027811,-0.073673,0.016355,44.769238,0.437798,0.188048,0.924643,0.380813,0.004158,0.000062
7478,-0.072028,6.985357,7.040953,-0.035440,-0.062991,0.017881,44.767296,0.434154,0.186842,0.924649,0.380798,0.004124,0.000065
7479,-0.075094,6.983078,7.039697,-0.036965,-0.069095,0.019407,44.766632,0.429775,0.185737,0.924652,0.380792,0.004085,0.000071
7480,-0.072641,6.986855,7.040456,-0.036965,-0.076724,0.045348,44.767097,0.426160,0.184805,0.924650,0.380796,0.004053,0.000075
7481,-0.075929,6.984794,7.037630,-0.036965,-0.067569,0.046874,44.769272,0.423631,0.184228,0.924643,0.380814,0.004031,0.000079
7482,-0.072444,6.985202,7.036608,-0.040018,-0.059939,0.048400,44.772068,0.421825,0.183889,0.924634,0.380836,0.004015,0.000082
7483,-0.073356,6.985507,7.032975,-0.036965,-0.058413,0.045348,44.776699,0.419017,0.183652,0.924618,0.380874,0.003991,0.000089
7484,-0.068612,6.988165,7.033899,-0.035440,-0.067569,0.045348,44.783112,0.414255,0.183302,0.924597,0.380926,0.003952,0.000102
7485,-0.068970,6.982087,7.031374,-0.035440,-0.059939,0.042296,44.787540,0.407600,0.182882,0.924583,0.380962,0.003897,0.000120
7486,-0.067341,6.987574,7.029343,-0.024759,-0.058413,0.039244,44.792721,0.401582,0.182501,0.924566,0.381004,0.003847,0.000137
7487,-0.067671,6.985126,7.029704,-0.033915,-0.069095,0.046874,44.798973,0.395957,0.182073,0.924545,0.381054,0.003800,0.000152
7488,-0.066534,6.983615,7.027077,-0.043069,-0.076724,0.040770,44.802925,0.390872,0.181433,0.924532,0.381086,0.003757,0.000164
7489,-0.067700,6.980456,7.027906,-0.046122,-0.070621,0.045348,44.804272,0.386985,0.180741,0.924527,0.381097,0.003723,0.000171
7490,-0.069788,6.984664,7.035813,-0.032389,-0.081302,0.040770,44.801849,0.386024,0.179967,0.924536,0.381078,0.003713,0.000168
7491,-0.067474,6.981107,7.036827,-0.038492,-0.087406,0.052978,44.796013,0.385129,0.179063,0.924555,0.381031,0.003703,0.000164
7492,-0.064590,6.982659,7.034707,-0.024759,-0.084354,0.045348,44.790802,0.381100,0.178181,0.924572,0.380989,0.003667,0.000171
7493,-0.066797,6.984145,7.036712,-0.021707,-0.085880,0.046874,44.788464,0.377262,0.177263,0.924580,0.380970,0.003633,0.000176
7494,-0.062615,6.986773,7.035095,-0.020181,-0.087406,0.048400,44.788677,0.372955,0.176361,0.924580,0.380972,0.003596,0.000183
7495,-0.060596,6.984911,7.029713,-0.032387,-0.082828,0.048400,44.792374,0.365683,0.175537,0.924568,0.381002,0.003534,0.000200
7496,-0.061755,6.988397,7.031974,-0.027811,-0.090458,0.025511,44.797615,0.359364,0.174416,0.924550,0.381044,0.003479,0.000212
7497,-0.061847,6.986648,7.031734,-0.033915,-0.101139,0.016355,44.801739,0.355450,0.172694,0.924537,0.381078,0.003442,0.000211
7498,-0.065343,6.985321,7.034446,-0.032389,-0.108769,0.016355,44.802311,0.354784,0.170626,0.924535,0.381083,0.003430,0.000197
7499,-0.068883,6.989100,7.035217,-0.040018,-0.099613,0.007200,44.801826,0.359127,0.168461,0.924536,0.381079,0.003458,0.000165
7500,-0.069648,6.990264,7.037250,-0.046122,-0.099613,0.005674,44.802067,0.365977,0.166284,0.924535,0.381080,0.003506,0.000125
7501,-0.071071,6.980924,7.037003,-0.043069,-0.095035,0.002622,44.797855,0.373112,0.164079,0.924549,0.381046,0.003556,0.000083
7502,-0.076770,6.984200,7.038339,-0.032387,-0.093509,0.011778,44.791119,0.383205,0.161999,0.924571,0.380992,0.003630,0.000033
7503,-0.075835,6.984115,7.040164,-0.029336,-0.082828,0.013304,44.785843,0.394412,0.160195,0.924589,0.380949,0.003715,-0.000019
7504,-0.075515,6.979573,7.038974,-0.030861,-0.087406,0.002622,44.779552,0.402719,0.158348,0.924609,0.380898,0.003776,-0.000061
7505,-0.074069,6.972486,7.037088,-0.029336,-0.090458,0.007200,44.770691,0.407837,0.156321,0.924639,0.380827,0.003810,-0.000094
7506,-0.074954,6.984572,7.036684,-0.036965,-0.082828,0.019407,44.766605,0.410997,0.154580,0.924652,0.380794,0.003830,-0.000118
7507,-0.071536,6.986053,7.039394,-0.053751,-0.075198,0.007200,44.768536,0.411803,0.153065,0.924646,0.380809,0.003832,-0.000133
7508,-0.066998,6.988111,7.038508,-0.055277,-0.070621,0.005674,44.771160,0.407488,0.151537,0.924637,0.380831,0.003792,-0.000132
7509,-0.070166,6.992816,7.037476,-0.044596,-0.066043,0.025511,44.777294,0.402575,0.150357,0.924617,0.380880,0.003748,-0.000125
7510,-0.070748,6.998405,7.039140,-0.035440,-0.067569,0.022459,44.787106,0.400813,0.149435,0.924584,0.380959,0.003731,-0.000127
7511,-0.069384,6.990950,7.034842,-0.043069,-0.069095,0.019407,44.795544,0.399334,0.148394,0.924556,0.381028,0.003715,-0.000131
7512,-0.072699,6.993640,7.029233,-0.027811,-0.073672,0.048400,44.804394,0.399098,0.147589,0.924527,0.381099,0.003711,-0.000137
7514,-0.075855,6.999957,7.025666,-0.029337,-0.078250,0.054504,44.819633,0.402577,0.147136,0.924476,0.381222,0.003737,-0.000152
7515,-0.074271,6.992809,7.031013,-0.036965,-0.079776,0.036193,44.830971,0.406757,0.146440,0.924438,0.381313,0.003769,-0.000172
7516,-0.074842,6.991166,7.030645,-0.043069,-0.078250,0.031615,44.833096,0.409755,0.145409,0.924431,0.381330,0.003789,-0.000191
7517,-0.073614,7.003430,7.033292,-0.038492,-0.078250,0.037718,44.837437,0.411522,0.144431,0.924417,0.381365,0.003800,-0.000204
7518,-0.070971,7.001050,7.035274,-0.049174,-0.082828,0.025511,44.843323,0.410322,0.143338,0.924397,0.381413,0.003787,-0.000209
7519,-0.072097,6.992787,7.038405,-0.038492,-0.088932,0.020933,44.841125,0.408200,0.141863,0.924404,0.381395,0.003765,-0.000214
7520,-0.066318,6.999701,7.029697,-0.044596,-0.084354,0.034667,44.840462,0.403423,0.140488,0.924407,0.381390,0.003722,-0.000209
7521,-0.065559,6.995304,7.031287,-0.049173,-0.091984,0.039245,44.844193,0.395066,0.139327,0.924394,0.381420,0.003651,-0.000191
7522,-0.067358,6.980995,7.037191,-0.046122,-0.093510,0.033141,44.835941,0.388725,0.137957,0.924422,0.381354,0.003595,-0.000181
7523,-0.066172,6.982989,7.036124,-0.032387,-0.093510,0.033141,44.820877,0.384436,0.136449,0.924472,0.381233,0.003555,-0.000178
7524,-0.067747,6.983083,7.037179,-0.041544,-0.091984,0.034667,44.809338,0.381536,0.135002,0.924511,0.381140,0.003527,-0.000180
7525,-0.075511,6.975527,7.042840,-0.032387,-0.096561,0.036193,44.794399,0.385191,0.133534,0.924560,0.381019,0.003552,-0.000203
7526,-0.075413,6.983112,7.045235,-0.030861,-0.088932,0.034667,44.778980,0.393573,0.132095,0.924611,0.380895,0.003615,-0.000242
7527,-0.072312,6.984103,7.045410,-0.027811,-0.079776,0.042296,44.769600,0.398738,0.130966,0.924642,0.380819,0.003653,-0.000268
7528,-0.075330,6.979026,7.043437,-0.033915,-0.076724,0.049926,44.761837,0.402369,0.130173,0.924668,0.380756,0.003679,-0.000287
7529,-0.068597,6.978334,7.042718,-0.020181,-0.073672,0.051451,44.754681,0.402713,0.129564,0.924692,0.380698,0.003680,-0.000292
7530,-0.066192,6.981958,7.038536,-0.023232,-0.079776,0.046874,44.752777,0.396912,0.128919,0.924698,0.380683,0.003631,-0.000278
7531,-0.064644,6.978233,7.034475,-0.012551,-0.070620,0.043822,44.755569,0.389377,0.128251,0.924689,0.380706,0.003568,-0.000259
7532,-0.066052,6.984955,7.034073,-0.015604,-0.087406,0.043822,44.761700,0.383150,0.127478,0.924669,0.380756,0.003515,-0.000244
7533,-0.067341,6.987057,7.038383,-0.023232,-0.082828,0.025511,44.768879,0.380135,0.126353,0.924645,0.380814,0.003487,-0.000244
7534,-0.073367,6.987537,7.040201,-0.029336,-0.079776,0.030089,44.772835,0.382924,0.125135,0.924632,0.380845,0.003506,-0.000263
7535,-0.073806,6.987454,7.045978,-0.018655,-0.067569,0.034666,44.772495,0.389831,0.124175,0.924633,0.380843,0.003558,-0.000294
7536,-0.073193,6.991735,7.040677,-0.027811,-0.079776,0.040770,44.773434,0.395437,0.123350,0.924630,0.380850,0.003601,-0.000319
7537,-0.076114,6.986210,7.040877,-0.030861,-0.073673,0.030089,44.775787,0.401135,0.122410,0.924622,0.380869,0.003644,-0.000346
7538,-0.072466,6.984981,7.038415,-0.020181,-0.070621,0.042296,44.775925,0.405273,0.121579,0.924621,0.380870,0.003674,-0.000366
7539,-0.067974,6.990182,7.037642,-0.023232,-0.081302,0.030089,44.779110,0.403159,0.120680,0.924611,0.380896,0.003654,-0.000366
7540,-0.065434,6.984495,7.033241,-0.032387,-0.095035,0.025511,44.783798,0.396350,0.119307,0.924595,0.380934,0.003595,-0.000355
7541,-0.068931,6.987560,7.031604,-0.023232,-0.096561,0.022459,44.789127,0.391042,0.117668,0.924578,0.380977,0.003546,-0.000351
7542,-0.063929,6.983796,7.029172,-0.030861,-0.101139,0.027037,44.794880,0.386028,0.115978,0.924559,0.381024,0.003500,-0.000348
7543,-0.064869,6.986080,7.025535,-0.046122,-0.098087,0.028563,44.801079,0.379521,0.114346,0.924538,0.381074,0.003442,-0.000340
7544,-0.061780,6.980775,7.024277,-0.055277,-0.087406,0.034667,44.806393,0.373011,0.112962,0.924521,0.381117,0.003385,-0.000329
7545,-0.066149,6.984303,7.024551,-0.050700,-0.087406,0.028563,44.810017,0.368847,0.111691,0.924509,0.381146,0.003347,-0.000326
7546,-0.065712,6.978494,7.024934,-0.058329,-0.087406,0.034667,44.811340,0.368309,0.110406,0.924504,0.381157,0.003339,-0.000334
7547,-0.070413,6.987840,7.025912,-0.043069,-0.088932,0.045348,44.813210,0.370722,0.109304,0.924498,0.381172,0.003354,-0.000351
7548,-0.070749,6.989847,7.030723,-0.030861,-0.095036,0.045348,44.817688,0.375819,0.108252,0.924483,0.381208,0.003392,-0.000377
7549,-0.072008,6.993437,7.031415,-0.030861,-0.091984,0.034666,44.821732,0.381155,0.107035,0.924469,0.381241,0.003431,-0.000405
7550,-0.068933,7.000626,7.035673,-0.046122,-0.082828,0.039244,44.827202,0.384392,0.105900,0.924451,0.381285,0.003453,-0.000425
7551,-0.070863,7.006204,7.039482,-0.044596,-0.067569,0.030089,44.833515,0.386260,0.105005,0.924430,0.381336,0.003465,-0.000438
7552,-0.069482,7.000304,7.040967,-0.046122,-0.062991,0.017881,44.836071,0.388389,0.104066,0.924422,0.381356,0.003480,-0.000453
7553,-0.064537,6.997262,7.041906,-0.047648,-0.069094,0.010252,44.832581,0.386365,0.102833,0.924433,0.381328,0.003459,-0.000456
7554,-0.065816,6.994559,7.041769,-0.035440,-0.075198,0.020933,44.826473,0.381872,0.101474,0.924454,0.381279,0.003418,-0.000452
7555,-0.066997,6.994066,7.041025,-0.023232,-0.085880,0.023985,44.820778,0.379276,0.100082,0.924473,0.381233,0.003393,-0.000454
7556,-0.062325,6.992653,7.042680,-0.024758,-0.096561,0.023985,44.815292,0.374978,0.098474,0.924491,0.381189,0.003353,-0.000453
7557,-0.061545,6.994316,7.045221,-0.026285,-0.096561,0.027037,44.809216,0.367843,0.096775,0.924511,0.381140,0.003290,-0.000443
7558,-0.068652,6.999400,7.042550,-0.017129,-0.087406,0.040770,44.807587,0.365795,0.095410,0.924517,0.381127,0.003269,-0.000447
7559,-0.071030,7.003913,7.045148,-0.021707,-0.087406,0.040770,44.811157,0.370588,0.094348,0.924505,0.381156,0.003304,-0.000471
7560,-0.069039,7.001718,7.042176,-0.018655,-0.070621,0.046874,44.815681,0.375447,0.093562,0.924490,0.381192,0.003340,-0.000494
7561,-0.070786,6.994841,7.045413,-0.006448,-0.069095,0.054503,44.815449,0.379190,0.093121,0.924490,0.381190,0.003369,-0.000510
7562,-0.074491,6.995921,7.043536,-0.011025,-0.070621,0.043822,44.811710,0.385460,0.092619,0.924503,0.381160,0.003418,-0.000535
7563,-0.069876,6.990200,7.045079,-0.029336,-0.076724,0.037718,44.806099,0.390198,0.091819,0.924521,0.381115,0.003453,-0.000557
7564,-0.065595,6.988734,7.040460,-0.043069,-0.081302,0.040770,44.799137,0.388121,0.090852,0.924544,0.381059,0.003434,-0.000558
7565,-0.066702,6.976241,7.037937,-0.044596,-0.096561,0.036193,44.790222,0.383617,0.089623,0.924574,0.380987,0.003393,-0.000552
7566,-0.067344,6.981566,7.035623,-0.050698,-0.104191,0.034667,44.781845,0.380757,0.088059,0.924602,0.380919,0.003365,-0.000555
7567,-0.064965,6.985318,7.033127,-0.036965,-0.102665,0.042296,44.781635,0.377451,0.086549,0.924603,0.380918,0.003333,-0.000556
7568,-0.067068,6.988086,7.035011,-0.030861,-0.102665,0.037718,44.785843,0.374604,0.085120,0.924589,0.380952,0.003306,-0.000559
7569,-0.070935,6.990917,7.034332,-0.014077,-0.095035,0.045348,44.791958,0.376195,0.083826,0.924568,0.381001,0.003314,-0.000574
7570,-0.070039,7.000619,7.037581,-0.017129,-0.085880,0.042296,44.801613,0.379880,0.082806,0.924536,0.381079,0.003340,-0.000595
7571,-0.072290,6.995070,7.032732,-0.018655,-0.085880,0.045348,44.812031,0.383941,0.081899,0.924502,0.381163,0.003370,-0.000616
7572,-0.069220,6.996655,7.034472,-0.018655,-0.082828,0.042296,44.819870,0.386710,0.081011,0.924475,0.381226,0.003389,-0.000633
7573,-0.068695,6.992481,7.035454,-0.012550,-0.087406,0.046874,44.823479,0.386452,0.080093,0.924463,0.381255,0.003384,-0.000640
7574,-0.066790,6.992524,7.036333,-0.014077,-0.090458,0.037718,44.823269,0.384373,0.079005,0.924464,0.381254,0.003364,-0.000641
7575,-0.067093,6.989022,7.035852,-0.009500,-0.102665,0.043822,44.821030,0.381409,0.077688,0.924472,0.381236,0.003335,-0.000642
7576,-0.064053,6.997269,7.041553,-0.007974,-0.095035,0.039245,44.818958,0.377178,0.076335,0.924479,0.381219,0.003297,-0.000639
7577,-0.065483,6.989665,7.040098,-0.023232,-0.101139,0.048400,44.815540,0.372669,0.075048,0.924490,0.381192,0.003256,-0.000634
7578,-0.067637,6.991587,7.037886,-0.020181,-0.099613,0.042296,44.811611,0.371286,0.073741,0.924503,0.381160,0.003241,-0.000640
7579,-0.067946,6.987049,7.038854,-0.020181,-0.098087,0.037718,44.807903,0.372255,0.072345,0.924515,0.381130,0.003244,-0.000654
7580,-0.068533,6.990443,7.043054,-0.020181,-0.095035,0.031615,44.802246,0.373997,0.070864,0.924534,0.381085,0.003253,-0.000672
7581,-0.068738,6.991346,7.039674,-0.009500,-0.105717,0.036192,44.799328,0.375852,0.069292,0.924544,0.381061,0.003263,-0.000691
7582,-0.070750,6.990486,7.038675,-0.012551,-0.105717,0.030089,44.799416,0.378610,0.067596,0.924544,0.381062,0.003279,-0.000714
7583,-0.064329,6.991789,7.041079,-0.006448,-0.113346,0.031615,44.799431,0.378068,0.065755,0.924543,0.381062,0.003269,-0.000727
7584,-0.065140,6.996212,7.043224,-0.009500,-0.119450,0.030089,44.800026,0.373584,0.063757,0.924542,0.381067,0.003226,-0.000728
7585,-0.070985,6.996665,7.040706,-0.012550,-0.113347,0.031615,44.802784,0.373794,0.061773,0.924532,0.381089,0.003221,-0.000745
7586,-0.069135,6.990087,7.043647,-0.012550,-0.098087,0.019407,44.802219,0.377359,0.059892,0.924534,0.381085,0.003244,-0.000772
7587,-0.069004,6.995461,7.045927,-0.006446,-0.085880,0.023985,44.798683,0.379680,0.058224,0.924546,0.381056,0.003257,-0.000793
7588,-0.074903,6.993453,7.041245,-0.033914,-0.075199,0.019407,44.797794,0.385237,0.056844,0.924549,0.381049,0.003297,-0.000822
7589,-0.074533,6.980389,7.036580,-0.030861,-0.069095,0.023985,44.794403,0.393677,0.055646,0.924560,0.381021,0.003361,-0.000860
7590,-0.069806,6.972994,7.031741,-0.027811,-0.079776,0.031615,44.786678,0.397309,0.054509,0.924585,0.380959,0.003387,-0.000881
7591,-0.077161,6.976923,7.030876,-0.038492,-0.091984,0.037718,44.781006,0.400878,0.053281,0.924604,0.380913,0.003412,-0.000903
7592,-0.077050,6.971899,7.027996,-0.041544,-0.091984,0.027037,44.777721,0.408133,0.051873,0.924615,0.380887,0.003466,-0.000938
7593,-0.073460,6.975728,7.033114,-0.038492,-0.095035,0.040770,44.773884,0.411821,0.050462,0.924627,0.380856,0.003491,-0.000962
7594,-0.079636,6.985412,7.036355,-0.038492,-0.102665,0.046874,44.773182,0.415507,0.049182,0.924630,0.380850,0.003516,-0.000984
7595,-0.077384,6.994774,7.037340,-0.040018,-0.095035,0.031614,44.779556,0.420881,0.047846,0.924608,0.380901,0.003555,-0.001013
7596,-0.071609,6.990249,7.040347,-0.052225,-0.091984,0.034666,44.785473,0.420490,0.046489,0.924589,0.380949,0.003547,-0.001023
7597,-0.072137,6.993384,7.040692,-0.049173,-0.101139,0.033140,44.787807,0.416181,0.045053,0.924581,0.380968,0.003508,-0.001020
7598,-0.071157,6.993739,7.038781,-0.038492,-0.104191,0.022459,44.791714,0.412091,0.043339,0.924568,0.381000,0.003469,-0.001020
7599,-0.068404,6.990788,7.042092,-0.040018,-0.091983,0.020933,44.793331,0.406831,0.041570,0.924563,0.381013,0.003421,-0.001017
7600,-0.076037,6.991725,7.046892,-0.047648,-0.084354,0.027037,44.789734,0.405797,0.040052,0.924575,0.380984,0.003407,-0.001026
7601,-0.079720,6.991870,7.044415,-0.035440,-0.085880,0.017881,44.785881,0.412619,0.038566,0.924587,0.380953,0.003457,-0.001061
7602,-0.077420,6.986701,7.047963,-0.038492,-0.081302,0.028563,44.780270,0.419710,0.037121,0.924606,0.380908,0.003510,-0.001096
7603,-0.079243,6.988067,7.048409,-0.044596,-0.078250,0.040770,44.772110,0.424816,0.036018,0.924633,0.380842,0.003548,-0.001121
7604,-0.077363,6.990317,7.048799,-0.038492,-0.079776,0.046874,44.766670,0.428353,0.035169,0.924651,0.380798,0.003573,-0.001140
7605,-0.069780,6.990906,7.046043,-0.041544,-0.098087,0.046874,44.765057,0.424728,0.034189,0.924656,0.380785,0.003541,-0.001135
7606,-0.069534,6.990792,7.045687,-0.049173,-0.091984,0.056029,44.765617,0.415974,0.033191,0.924655,0.380789,0.003467,-0.001114
7607,-0.071621,6.990024,7.041432,-0.043069,-0.096561,0.046874,44.767902,0.409748,0.032224,0.924647,0.380808,0.003413,-0.001102
7608,-0.077225,6.989788,7.039524,-0.044596,-0.090458,0.040770,44.772224,0.410177,0.031107,0.924633,0.380843,0.003413,-0.001112
7609,-0.075950,6.986191,7.037746,-0.053751,-0.095035,0.028563,44.775570,0.414200,0.029786,0.924622,0.380870,0.003441,-0.001136
7610,-0.076921,6.980917,7.035330,-0.044596,-0.084354,0.027037,44.775997,0.417828,0.028353,0.924620,0.380873,0.003466,-0.001160
7611,-0.076833,6.981628,7.036897,-0.040018,-0.088932,0.023985,44.774590,0.421325,0.026923,0.924625,0.380862,0.003489,-0.001183
7612,-0.077547,6.986989,7.039644,-0.044596,-0.088932,0.031615,44.774086,0.424298,0.025499,0.924626,0.380858,0.003508,-0.001204
7613,-0.067775,6.979167,7.043093,-0.049173,-0.096561,0.031615,44.769798,0.420708,0.024050,0.924640,0.380823,0.003475,-0.001204
7614,-0.066271,6.984654,7.041421,-0.052225,-0.085880,0.031615,44.764099,0.410165,0.022628,0.924660,0.380778,0.003385,-0.001180
7615,-0.066380,6.981411,7.043957,-0.041544,-0.088932,0.027037,44.760220,0.400416,0.021254,0.924673,0.380746,0.003302,-0.001159
7617,-0.065979,6.985042,7.045885,-0.029336,-0.075198,0.033141,44.755966,0.392775,0.020019,0.924687,0.380712,0.003236,-0.001143
7618,-0.064297,6.984493,7.046157,-0.026285,-0.066043,0.034666,44.753254,0.385882,0.019152,0.924696,0.380690,0.003178,-0.001127
7619,-0.068828,6.992315,7.045093,-0.020181,-0.062991,0.039244,44.755028,0.382398,0.018530,0.924691,0.380705,0.003147,-0.001121
7620,-0.071509,6.987488,7.044573,-0.021707,-0.078250,0.043822,44.759003,0.384294,0.017887,0.924677,0.380737,0.003160,-0.001133
7621,-0.070007,6.989971,7.046041,-0.027811,-0.078250,0.056029,44.760773,0.386726,0.017250,0.924671,0.380751,0.003178,-0.001146
7622,-0.066677,6.988715,7.040681,-0.040018,-0.087406,0.052977,44.763878,0.385458,0.016624,0.924661,0.380776,0.003166,-0.001147
7623,-0.067205,6.987514,7.036818,-0.033915,-0.084354,0.040770,44.769325,0.382455,0.015763,0.924643,0.380820,0.003138,-0.001144
7624,-0.067107,6.978275,7.030573,-0.033915,-0.078250,0.020933,44.773766,0.380729,0.014621,0.924628,0.380856,0.003121,-0.001147
7625,-0.067501,6.974758,7.028043,-0.014077,-0.082828,0.022459,44.775661,0.379999,0.013262,0.924622,0.380872,0.003110,-0.001156
7626,-0.069503,6.975626,7.024630,-0.015603,-0.078250,0.013303,44.778625,0.381152,0.011817,0.924612,0.380895,0.003115,-0.001172
7627,-0.069812,6.975363,7.021251,-0.021707,-0.079776,0.007200,44.784203,0.383943,0.010246,0.924594,0.380940,0.003132,-0.001194
7628,-0.069904,6.973036,7.021616,-0.024759,-0.081302,0.014829,44.788883,0.386522,0.008652,0.924578,0.380978,0.003147,-0.001215
7629,-0.070357,6.980994,7.028821,-0.024759,-0.079776,0.017881,44.791561,0.388694,0.007172,0.924569,0.381000,0.003160,-0.001234
7630,-0.069926,6.980680,7.032565,-0.035440,-0.076724,0.017881,44.791828,0.390325,0.005766,0.924568,0.381002,0.003168,-0.001251
7631,-0.070339,6.981971,7.035086,-0.032387,-0.070621,0.031615,44.789318,0.391457,0.004612,0.924576,0.380982,0.003174,-0.001264
7632,-0.068523,6.983906,7.040417,-0.030861,-0.066043,0.030089,44.785107,0.391360,0.003715,0.924590,0.380948,0.003170,-0.001271
7633,-0.070041,6.987616,7.042310,-0.046122,-0.066043,0.034666,44.780720,0.390942,0.002909,0.924605,0.380912,0.003164,-0.001276
7634,-0.068480,6.986488,7.043305,-0.035440,-0.067569,0.043822,44.777050,0.390357,0.002253,0.924617,0.380883,0.003157,-0.001279
7635,-0.069261,6.992167,7.041953,-0.032387,-0.062991,0.042296,44.776669,0.389327,0.001745,0.924618,0.380880,0.003147,-0.001280
7636,-0.070682,6.988087,7.044828,-0.027811,-0.072146,0.034667,44.776890,0.389892,0.001077,0.924618,0.380882,0.003150,-0.001287
7637,-0.070940,6.989594,7.044579,-0.017129,-0.073672,0.045348,44.775082,0.391396,0.000305,0.924623,0.380867,0.003159,-0.001298
7638,-0.068613,6.991291,7.047872,-0.011025,-0.081302,0.052978,44.773815,0.391038,-0.000357,0.924628,0.380857,0.003154,-0.001303
7639,-0.070263,6.996276,7.049397,-0.021707,-0.084354,0.048400,44.773643,0.389936,-0.001099,0.924628,0.380856,0.003143,-0.001305
7640,-0.070280,6.995476,7.051447,-0.032387,-0.081302,0.049926,44.773556,0.390045,-0.001875,0.924629,0.380855,0.003141,-0.001311
7641,-0.069837,7.003075,7.054934,-0.043069,-0.073672,0.045348,44.773720,0.390119,-0.002557,0.924628,0.380856,0.003139,-0.001317
7642,-0.068717,7.000995,7.054115,-0.043069,-0.069095,0.034666,44.774967,0.389495,-0.003268,0.924624,0.380866,0.003132,-0.001321
7643,-0.063936,7.003403,7.052629,-0.033914,-0.067569,0.025511,44.777374,0.385558,-0.004135,0.924616,0.380886,0.003097,-0.001315
7644,-0.066895,6.990841,7.045493,-0.024759,-0.069095,0.027037,44.778980,0.381122,-0.005100,0.924611,0.380899,0.003058,-0.001308
7645,-0.062325,6.985774,7.041008,-0.024759,-0.075199,0.036193,44.777599,0.376452,-0.006050,0.924615,0.380888,0.003017,-0.001300
7646,-0.061374,6.984118,7.034762,-0.017129,-0.082828,0.040770,44.778065,0.369040,-0.006987,0.924614,0.380892,0.002954,-0.001283
7647,-0.066906,6.984138,7.035987,-0.026285,-0.087406,0.037718,44.780102,0.365662,-0.008039,0.924607,0.380908,0.002924,-0.001280
7648,-0.070150,6.980899,7.031235,-0.020181,-0.087406,0.040770,44.781933,0.368915,-0.009146,0.924601,0.380923,0.002946,-0.001300
7649,-0.067972,6.984458,7.034762,-0.023232,-0.079776,0.048400,44.784081,0.372816,-0.010035,0.924594,0.380940,0.002975,-0.001320
7650,-0.069688,6.990977,7.039416,-0.011025,-0.072147,0.033141,44.786823,0.375866,-0.010832,0.924585,0.380962,0.002997,-0.001337
7651,-0.072879,6.993035,7.042608,-0.017129,-0.072147,0.037718,44.789478,0.381397,-0.011668,0.924576,0.380984,0.003039,-0.001362
7652,-0.071026,6.989228,7.042529,-0.018655,-0.073673,0.056029,44.789280,0.386545,-0.012268,0.924576,0.380982,0.003078,-0.001384
7653,-0.071882,6.988181,7.044806,-0.024759,-0.075198,0.068237,44.785568,0.389527,-0.012567,0.924589,0.380952,0.003101,-0.001396
7654,-0.073963,6.988163,7.047902,-0.024759,-0.078250,0.054504,44.779327,0.393414,-0.012954,0.924609,0.380902,0.003131,-0.001412
7655,-0.074084,6.980936,7.046710,-0.030861,-0.081302,0.052977,44.770016,0.398059,-0.013613,0.924640,0.380827,0.003167,-0.001433
7656,-0.072904,6.979404,7.041071,-0.032387,-0.073672,0.042296,44.761375,0.401366,-0.014358,0.924669,0.380757,0.003191,-0.001449
7657,-0.073676,6.982883,7.041290,-0.029336,-0.069095,0.033141,44.757957,0.403944,-0.015158,0.924680,0.380729,0.003209,-0.001464
7658,-0.072253,6.987079,7.038173,-0.024759,-0.069095,0.013304,44.760658,0.405857,-0.016205,0.924671,0.380751,0.003221,-0.001479
7659,-0.067543,6.988883,7.033916,-0.033914,-0.072146,0.014829,44.769283,0.403627,-0.017461,0.924642,0.380821,0.003199,-0.001482
7660,-0.066682,6.997963,7.031743,-0.027811,-0.072146,0.022459,44.784290,0.397789,-0.018602,0.924593,0.380942,0.003148,-0.001472
7661,-0.064306,6.998019,7.033232,-0.024759,-0.072146,0.022459,44.801243,0.390686,-0.019641,0.924536,0.381079,0.003087,-0.001458
7662,-0.065295,6.994141,7.030692,-0.015603,-0.076724,0.023985,44.813709,0.384059,-0.020751,0.924495,0.381179,0.003029,-0.001445
7663,-0.064530,6.985002,7.036631,-0.023232,-0.075198,0.022459,44.815735,0.379051,-0.021968,0.924488,0.381196,0.002985,-0.001438
7664,-0.065730,6.988855,7.041421,-0.017129,-0.078250,0.033140,44.809090,0.375434,-0.023153,0.924511,0.381142,0.002952,-0.001436
7665,-0.068343,6.994864,7.042204,-0.018655,-0.081302,0.020933,44.804935,0.375037,-0.024411,0.924524,0.381109,0.002945,-0.001444
7666,-0.066723,6.991280,7.041398,-0.011025,-0.085880,0.023985,44.803146,0.375706,-0.025852,0.924530,0.381094,0.002945,-0.001458
7667,-0.063399,6.997545,7.045903,-0.021707,-0.084354,0.016355,44.801510,0.373254,-0.027381,0.924536,0.381081,0.002920,-0.001462
7668,-0.064808,7.004498,7.045381,-0.023232,-0.085880,0.022459,44.804146,0.369765,-0.028900,0.924527,0.381103,0.002887,-0.001463
7669,-0.065737,7.008626,7.039088,-0.020181,-0.079776,0.020933,44.814613,0.368370,-0.030260,0.924492,0.381187,0.002871,-0.001470
7670,-0.062827,6.994504,7.042426,-0.018655,-0.078250,0.034667,44.820610,0.366249,-0.031416,0.924472,0.381236,0.002850,-0.001472
7671,-0.066100,6.994114,7.045380,-0.029336,-0.085880,0.037718,44.815464,0.364491,-0.032516,0.924490,0.381194,0.002832,-0.001475
7672,-0.067791,6.989636,7.042226,-0.026285,-0.078250,0.046874,44.808025,0.366129,-0.033486,0.924514,0.381134,0.002843,-0.001488
7673,-0.068481,6.992613,7.037145,-0.026285,-0.081302,0.033141,44.804970,0.369406,-0.034428,0.924524,0.381109,0.002866,-0.001506
7674,-0.071060,6.989184,7.036503,-0.026285,-0.082828,0.027037,44.805370,0.374394,-0.035636,0.924523,0.381113,0.002902,-0.001533
7675,-0.069494,6.998746,7.034823,-0.024759,-0.084354,0.023985,44.809822,0.379180,-0.036961,0.924508,0.381149,0.002936,-0.001559
7676,-0.066866,7.001806,7.032454,-0.024759,-0.076724,0.014830,44.821167,0.380473,-0.038314,0.924470,0.381240,0.002942,-0.001575
7677,-0.070011,7.001183,7.035049,-0.035440,-0.087406,0.005674,44.831600,0.381601,-0.039923,0.924435,0.381324,0.002946,-0.001592
7678,-0.071672,6.999063,7.035988,-0.036965,-0.078250,0.023985,44.836693,0.385346,-0.041477,0.924418,0.381365,0.002971,-0.001617
7679,-0.070289,6.994549,7.035903,-0.040018,-0.075198,0.037718,44.836716,0.388522,-0.042542,0.924418,0.381366,0.002993,-0.001636
7680,-0.079815,6.988906,7.037067,-0.041544,-0.079776,0.037718,44.831120,0.395894,-0.043501,0.924436,0.381320,0.003049,-0.001668
7681,-0.080649,6.990968,7.034637,-0.044596,-0.070621,0.043822,44.825027,0.408604,-0.044337,0.924456,0.381271,0.003149,-0.001717
7682,-0.080007,6.988762,7.033810,-0.035440,-0.072146,0.056029,44.821674,0.419145,-0.044849,0.924467,0.381244,0.003232,-0.001756
7683,-0.081865,6.984537,7.033786,-0.024759,-0.072146,0.065185,44.817188,0.427687,-0.045137,0.924482,0.381208,0.003300,-0.001787
7684,-0.078311,6.985896,7.035414,-0.029336,-0.079776,0.054504,44.811684,0.433031,-0.045542,0.924500,0.381163,0.003342,-0.001808
7685,-0.076682,6.988780,7.027483,-0.032389,-0.061465,0.051452,44.811798,0.433921,-0.045940,0.924500,0.381164,0.003348,-0.001814
7686,-0.076103,6.984349,7.024852,-0.027811,-0.069095,0.052978,44.816494,0.432938,-0.046195,0.924484,0.381202,0.003339,-0.001813
7687,-0.068184,6.991721,7.025462,-0.017129,-0.070621,0.049926,44.823124,0.426551,-0.046564,0.924462,0.381256,0.003286,-0.001795
7688,-0.066674,6.995009,7.025603,-0.020181,-0.087406,0.036193,44.833054,0.415001,-0.047325,0.924429,0.381336,0.003190,-0.001763
