seq,ax,ay,az,wroll,wpitch,wyaw,roll,pitch,yaw,q0,q1,q2,q3
63,-0.243556,-1.434461,9.782955,-0.709899,-4.424086,9.918085,-8.341757,1.411056,-0.206879,0.997276,-0.072703,0.012412,-0.000905
64,0.016683,-1.734868,9.794315,-0.286117,-4.108590,10.195739,-8.445256,1.340673,-0.040953,0.997217,-0.073623,0.011694,0.000505
65,-0.009742,-1.725410,9.703197,0.311210,-3.640819,10.589305,-8.520362,1.194187,0.318873,0.997177,-0.074310,0.010186,0.003549
66,-0.051611,-1.815376,9.531533,-0.184164,-3.519278,9.919323,-8.608692,1.072768,0.672654,0.997115,-0.075105,0.008894,0.006556
67,-0.027438,-1.892513,9.569386,-3.321150,-3.792860,7.909589,-8.782596,0.952289,0.982590,0.996988,-0.076633,0.007629,0.009185
68,-0.053452,-2.004835,9.605688,-5.599226,-3.733728,5.344426,-9.067188,0.824000,1.218036,0.996783,-0.079113,0.006328,0.011164
69,-0.049362,-1.951134,9.567679,-8.405242,-3.492917,2.413056,-9.435256,0.696689,1.363088,0.996517,-0.082310,0.005080,0.012354
70,-0.084114,-2.178573,9.744476,-14.716351,-3.549559,-0.876887,-9.960737,0.566730,1.406440,0.996132,-0.086867,0.003861,0.012656
71,-0.165590,-2.081887,9.746870,-14.600169,-3.537307,-1.903841,-10.581100,0.446693,1.380505,0.995656,-0.092246,0.002770,0.012355
72,-0.094282,-2.055790,9.738944,-14.266850,-3.143498,-1.520821,-11.148298,0.338665,1.344512,0.995195,-0.097161,0.001802,0.011964
73,0.082066,-2.440126,9.868604,-14.533380,-2.235744,-4.525408,-11.730607,0.213178,1.262916,0.994701,-0.102204,0.000724,0.011153
74,-0.033614,-2.365054,9.801741,-8.137842,-0.916018,-10.085926,-12.223414,0.090804,1.035295,0.994275,-0.106470,-0.000174,0.009068
75,-0.076120,-2.169395,9.618434,-4.570810,-0.087360,-13.314767,-12.493623,-0.000436,0.657678,0.994046,-0.108810,-0.000628,0.005705
76,0.140230,-2.450264,9.586864,-7.266176,0.483223,-15.742540,-12.748719,-0.111096,0.183600,0.993816,-0.111022,-0.001141,0.001485
77,-0.021944,-2.586009,9.269968,-8.137125,0.907292,-18.423622,-13.120736,-0.230331,-0.376278,0.993444,-0.114256,-0.001622,-0.003492
78,-0.108115,-2.327432,8.846404,-11.261808,0.376548,-16.017168,-13.552859,-0.313215,-0.939517,0.992975,-0.118013,-0.001747,-0.008464
79,0.057912,-2.652032,8.874154,-18.645411,-0.895864,-12.048182,-14.166039,-0.412242,-1.391228,0.992284,-0.123341,-0.002073,-0.012491
80,0.065682,-2.696040,9.594158,-17.879025,-1.411632,-9.315245,-14.887226,-0.539542,-1.725538,0.991440,-0.129605,-0.002717,-0.015540
81,-0.259082,-2.639878,10.691454,-12.396502,-1.371494,-5.187492,-15.402386,-0.599497,-1.946937,0.990812,-0.134074,-0.002907,-0.017537
82,-0.017335,-3.123784,11.949109,-7.629068,-1.442592,-1.340473,-15.690986,-0.609681,-2.040104,0.990456,-0.136572,-0.002840,-0.018362
83,0.254955,-3.823225,12.682912,-6.554901,-1.540206,-1.213808,-15.935377,-0.664494,-2.067544,0.990154,-0.138693,-0.003241,-0.018671
84,0.287871,-4.433690,12.754342,-7.865224,-1.761721,-2.266757,-16.283077,-0.759734,-2.106676,0.989715,-0.141713,-0.003959,-0.019136
85,0.316094,-4.505383,11.559758,-13.612390,-2.969039,-0.722583,-16.846519,-0.880991,-2.129104,0.988992,-0.146596,-0.004882,-0.019504
86,0.736333,-4.364580,9.680108,-27.145864,-5.033011,-1.401849,-17.835600,-1.113722,-2.117625,0.987669,-0.155161,-0.006735,-0.019761
87,0.327054,-3.391461,7.679111,-43.671928,-8.453632,-1.611157,-19.350445,-1.447930,-2.085204,0.985496,-0.168248,-0.009396,-0.020059
88,-0.077805,-2.516724,5.795311,-52.425636,-11.770773,1.613268,-21.207397,-1.738227,-1.962187,0.982619,-0.184222,-0.011757,-0.019619
89,-0.112700,-1.715944,4.922301,-54.486168,-11.908434,5.112672,-23.049908,-1.933867,-1.711810,0.979539,-0.199991,-0.013549,-0.018006
90,-0.077481,-1.739076,4.913113,-47.683731,-11.244833,6.478875,-24.625063,-2.065573,-1.387668,0.976722,-0.213407,-0.015027,-0.015672
91,-0.165845,-2.074075,5.353692,-27.362757,-9.418318,7.166145,-25.713247,-2.118691,-1.044743,0.974685,-0.222629,-0.015995,-0.013001
92,0.227992,-2.833076,6.531842,-2.764942,-4.992205,6.803346,-26.084053,-2.133727,-0.737297,0.973989,-0.225739,-0.016687,-0.010469
93,0.483285,-3.110556,8.034122,13.364355,-0.590060,5.208605,-25.736326,-2.150428,-0.523244,0.974684,-0.222750,-0.017277,-0.008630
94,0.855420,-4.384661,9.577117,15.015388,0.481885,6.596756,-25.118954,-2.157340,-0.350992,0.975881,-0.217470,-0.017709,-0.007083
95,1.232747,-5.360937,10.971416,19.930449,1.808064,5.755317,-24.537590,-2.188573,-0.181680,0.976976,-0.212489,-0.018325,-0.005607
96,0.977146,-5.340952,11.405721,21.793234,3.337234,3.488714,-23.882994,-2.193573,-0.076586,0.978177,-0.206887,-0.018589,-0.004614
97,0.953682,-5.030966,11.023423,14.001562,2.992858,2.862629,-23.318455,-2.168503,-0.021964,0.979191,-0.202058,-0.018493,-0.004012
98,0.791967,-5.026831,10.669697,10.056407,2.468544,2.174060,-22.982819,-2.151301,0.021036,0.979783,-0.199183,-0.018433,-0.003560
99,0.569232,-4.175872,9.746046,16.832514,2.530502,0.089408,-22.587633,-2.124771,0.025070,0.980468,-0.195803,-0.018225,-0.003417
100,0.516604,-3.499693,8.827093,15.112983,2.520909,-2.755108,-22.033770,-2.111590,-0.049118,0.981403,-0.191074,-0.018005,-0.003942
101,1.385731,-3.863614,8.900347,5.326990,0.666348,-4.300184,-21.711346,-2.331131,-0.178099,0.981894,-0.188328,-0.019685,-0.005357
102,0.966211,-4.259905,9.082728,1.643611,-1.155167,-5.759964,-21.720667,-2.680403,-0.326381,0.981804,-0.188429,-0.022433,-0.007203
103,1.042296,-4.122386,9.237067,-0.106526,-2.749738,-5.288985,-21.830931,-2.968608,-0.466928,0.981550,-0.189399,-0.024663,-0.008905
104,1.042432,-4.059513,9.206798,-4.992080,-4.785243,-2.150679,-22.019054,-3.285145,-0.529521,0.981156,-0.191022,-0.027254,-0.010008
105,0.875416,-3.932752,9.115625,-6.801116,-6.583889,3.301055,-22.302668,-3.570978,-0.435085,0.980614,-0.193422,-0.029835,-0.009749
106,0.287374,-3.464721,8.947694,-4.707592,-6.312253,6.182015,-22.513321,-3.707037,-0.206187,0.980237,-0.195159,-0.031371,-0.008078
107,0.903414,-3.314033,9.009010,0.611309,-4.418640,7.906211,-22.494684,-3.791908,0.072917,0.980261,-0.194917,-0.032573,-0.005829
108,1.105613,-3.492684,9.207828,8.547457,-1.950980,7.737731,-22.226883,-3.933925,0.345914,0.980685,-0.192536,-0.034261,-0.003656
109,1.087459,-3.412312,9.352636,15.061217,0.029888,1.836358,-21.732967,-4.048691,0.497631,0.981476,-0.188251,-0.035509,-0.002397
110,0.850039,-3.244033,9.418672,16.188568,1.208734,-3.327748,-21.087465,-4.117130,0.457291,0.982499,-0.182726,-0.036044,-0.002652
111,1.072468,-3.872404,9.372236,12.068911,1.162324,-3.485189,-20.573629,-4.189591,0.333805,0.983284,-0.178351,-0.036485,-0.003663
112,0.910574,-3.784654,9.331136,10.516333,0.708428,-4.706140,-20.258356,-4.280598,0.199268,0.983737,-0.175681,-0.037070,-0.004857
113,0.788550,-3.811430,9.195347,8.661212,-0.488234,-4.071393,-20.040936,-4.360495,0.068424,0.984037,-0.173852,-0.037567,-0.006032
114,0.730048,-3.821787,9.171896,10.167225,-0.798069,-0.140506,-19.883759,-4.407945,0.021724,0.984256,-0.172514,-0.037912,-0.006453
115,0.974412,-4.011190,9.230154,11.488455,-1.129458,1.771526,-19.701544,-4.452100,0.071690,0.984517,-0.170930,-0.038376,-0.006029
116,0.810084,-3.407587,9.321323,16.170530,-0.717801,0.715543,-19.343803,-4.500916,0.128668,0.985032,-0.167833,-0.038898,-0.005491
117,0.766337,-3.236717,9.259879,18.682131,-1.174097,1.496807,-18.774038,-4.523277,0.174411,0.985849,-0.162916,-0.039182,-0.004936
119,0.788096,-3.196743,9.309104,13.951735,-1.520487,-0.525045,-18.235039,-4.561218,0.204309,0.986593,-0.158264,-0.039573,-0.004547
120,0.757762,-3.158470,9.424629,10.744099,-1.402944,-2.516350,-17.835020,-4.617951,0.172279,0.987119,-0.154826,-0.040034,-0.004761
121,0.678172,-2.944529,9.379666,8.641411,-0.600029,-3.323478,-17.501442,-4.650258,0.089231,0.987550,-0.151979,-0.040216,-0.005403
122,0.685689,-2.805145,9.352847,4.770540,0.055017,-3.295910,-17.229139,-4.648388,-0.016762,0.987904,-0.149669,-0.040074,-0.006219
123,0.681167,-2.809744,9.508706,-1.651622,1.244097,-4.069473,-17.121052,-4.624920,-0.144453,0.988046,-0.148783,-0.039712,-0.007252
124,0.694047,-2.632786,9.565886,-0.060843,2.572040,-3.666574,-17.061209,-4.563427,-0.293021,0.988134,-0.148320,-0.038993,-0.008433
125,0.833636,-2.540173,9.647976,0.418111,3.226823,-4.052696,-16.908524,-4.495030,-0.455502,0.988342,-0.147060,-0.038206,-0.009694
126,0.671720,-2.552505,9.709174,3.025699,3.674039,-4.031404,-16.706993,-4.414470,-0.628608,0.988611,-0.145379,-0.037308,-0.011019
127,0.602773,-2.459770,9.762295,7.560402,3.270089,-3.543078,-16.400200,-4.298261,-0.792095,0.989019,-0.142783,-0.036131,-0.012185
128,0.598453,-2.372642,9.700557,11.292809,1.990382,-2.822799,-15.923899,-4.190043,-0.929934,0.989625,-0.138712,-0.035080,-0.013095
129,0.467911,-2.347674,9.598596,12.615865,0.674291,-0.964121,-15.358886,-4.086103,-1.014134,0.990320,-0.133853,-0.034147,-0.013529
130,0.371828,-2.349127,9.502141,11.831227,-0.395797,1.506571,-14.830149,-3.966267,-1.014419,0.990965,-0.129278,-0.033173,-0.013239
131,0.544871,-2.327502,9.390512,9.622478,-0.957997,3.060141,-14.398622,-3.880370,-0.939608,0.991479,-0.125521,-0.032561,-0.012373
132,0.421768,-2.387350,9.356243,8.634007,-0.479692,4.833422,-14.070207,-3.800440,-0.807737,0.991872,-0.122639,-0.032046,-0.011053
133,0.548266,-2.339608,9.143933,11.392838,0.399801,5.720130,-13.751887,-3.701509,-0.635685,0.992253,-0.119834,-0.031400,-0.009371
134,0.728949,-2.257978,8.564512,10.437285,1.660082,4.345261,-13.430480,-3.641938,-0.478201,0.992614,-0.117007,-0.031071,-0.007858
135,0.546728,-1.975844,8.042628,7.270646,3.641977,3.814194,-13.177094,-3.553152,-0.363925,0.992902,-0.114781,-0.030433,-0.006710
136,0.499584,-1.713578,8.148168,4.754626,5.161799,4.049171,-12.959146,-3.381003,-0.270781,0.993169,-0.112869,-0.029045,-0.005676
137,0.422375,-1.364895,8.549034,8.386094,6.138578,3.038972,-12.614635,-3.153696,-0.204853,0.993564,-0.109868,-0.027155,-0.004799
138,0.160072,-1.222264,9.354079,13.236216,7.942921,4.688524,-12.031851,-2.828201,-0.141331,0.994186,-0.104803,-0.024413,-0.003813
139,0.007716,-1.052179,11.171107,20.754345,8.240189,6.657081,-11.176169,-2.402369,-0.024084,0.995029,-0.097359,-0.020843,-0.002250
140,0.200305,-1.193780,13.211543,30.994932,7.931506,7.189706,-10.004557,-1.987482,0.141192,0.996043,-0.087161,-0.017385,-0.000285
141,0.033663,-1.387715,14.107557,39.646473,7.320457,8.613449,-8.574687,-1.609778,0.352358,0.997102,-0.074708,-0.014238,0.002016
142,0.106939,-1.933410,14.295733,33.040531,5.656426,11.288477,-7.239699,-1.274061,0.648969,0.997931,-0.063069,-0.011453,0.004950
143,0.182576,-2.327435,13.770706,16.587631,3.606006,12.428411,-6.457344,-1.030424,1.024668,0.998337,-0.056236,-0.009481,0.008421
144,0.010047,-2.468705,12.003388,-3.876905,4.015322,14.015453,-6.440215,-0.816486,1.451988,0.998321,-0.056076,-0.007825,0.012250
145,-0.284848,-2.389490,9.705174,-25.114817,5.044639,15.095954,-7.241934,-0.522466,1.919709,0.997858,-0.063070,-0.005608,0.016430
146,-0.130344,-2.098567,7.800711,-46.687557,5.692591,13.205489,-8.820003,-0.181500,2.363564,0.996829,-0.076844,-0.003165,0.020442
147,-0.345267,-1.412171,6.162163,-56.651764,6.816844,9.976824,-10.838355,0.209388,2.706851,0.995247,-0.094458,-0.000412,0.023686
148,-0.310153,-1.027632,5.221262,-54.679840,7.248738,6.974080,-12.800651,0.657792,2.930241,0.993410,-0.111582,0.002852,0.026048
149,-0.132308,-1.024350,5.204357,-42.165382,5.916033,2.571979,-14.378498,1.005934,3.029911,0.991724,-0.125329,0.005398,0.027327
150,-0.186030,-1.090350,5.673134,-23.872824,3.249102,0.281679,-15.349780,1.206358,3.037544,0.990602,-0.133774,0.006890,0.027671
151,-0.346269,-1.568293,6.731883,-4.292243,0.399271,-0.372754,-15.676338,1.327219,3.022077,0.990205,-0.136622,0.007874,0.027700
152,-0.062858,-2.730434,8.521845,9.621181,-2.737853,-2.637180,-15.584799,1.294650,2.984118,0.990327,-0.135821,0.007659,0.027328
153,-0.160858,-2.997835,10.237488,24.919403,-4.839374,-5.887507,-15.081930,1.101449,2.878691,0.990961,-0.131427,0.006229,0.026161
154,-0.392525,-3.464054,11.709923,29.667549,-6.159221,-5.208463,-14.227844,0.885114,2.744851,0.991965,-0.123987,0.004696,0.024722
155,-0.156447,-3.323007,12.034173,27.521446,-6.561924,-6.316257,-13.341690,0.647891,2.607973,0.992942,-0.116261,0.002971,0.023259
156,0.058984,-2.924489,11.879535,21.208269,-5.610012,-8.629629,-12.573743,0.367008,2.410023,0.993754,-0.109549,0.000880,0.021254
157,-0.069121,-2.156370,10.933331,15.417614,-4.081262,-9.134765,-11.941273,0.122726,2.154798,0.994397,-0.104020,-0.000891,0.018812
158,-0.129540,-2.060713,9.983900,3.640946,-3.394451,-8.504524,-11.581505,-0.044422,1.892597,0.994762,-0.100876,-0.002052,0.016392
159,-0.012512,-1.694801,9.169851,-2.116023,-3.292036,-9.769480,-11.520813,-0.196673,1.616733,0.994852,-0.100335,-0.003123,0.013865
160,0.108773,-2.112294,9.335824,-6.754866,-3.388251,-10.297465,-11.670066,-0.381386,1.311640,0.994752,-0.101619,-0.004474,0.011048
161,0.051115,-2.534002,9.555076,-8.027063,-3.843068,-9.252217,-12.024188,-0.575651,1.018282,0.994453,-0.104689,-0.005926,0.008311
162,0.153083,-2.593931,9.746615,-8.013319,-4.076589,-7.827002,-12.440048,-0.770318,0.769379,0.994073,-0.108297,-0.007410,0.005946
163,0.322752,-2.635578,9.802210,-9.319356,-4.107440,-6.929815,-12.862790,-0.990950,0.561014,0.993662,-0.111966,-0.009141,0.003896
164,0.511633,-2.556795,9.614939,-9.904945,-3.711436,-7.187845,-13.295109,-1.246270,0.363495,0.993217,-0.115720,-0.011170,0.001892
165,0.393677,-2.356127,9.472789,-10.340508,-3.301699,-7.322283,-13.695016,-1.491738,0.157394,0.992784,-0.119199,-0.013088,-0.000188
166,0.403148,-2.363745,9.540098,-9.045219,-3.296063,-7.467353,-14.034521,-1.705530,-0.054787,0.992398,-0.122162,-0.014713,-0.002293
167,0.228260,-2.375102,9.542375,-5.254862,-2.763633,-6.434330,-14.270701,-1.872104,-0.254621,0.992116,-0.124233,-0.015934,-0.004234
168,0.198324,-2.397526,9.647925,-0.921141,-2.415454,-4.217095,-14.359276,-1.971964,-0.405740,0.991998,-0.125022,-0.016630,-0.005663
169,0.139435,-2.524898,9.820918,2.516833,-2.122012,-1.305513,-14.323812,-2.020162,-0.476470,0.992026,-0.124726,-0.016972,-0.006323
170,0.080093,-2.572147,9.749337,8.159576,-2.049629,2.602557,-14.160086,-2.013491,-0.437834,0.992206,-0.123303,-0.016965,-0.005957
171,0.126135,-2.355891,9.556623,11.336542,-1.969488,6.222253,-13.841676,-1.961115,-0.278463,0.992560,-0.120521,-0.016696,-0.004474
172,0.391039,-2.351019,9.681077,11.304667,-2.240780,7.540729,-13.455711,-1.942065,-0.039110,0.992971,-0.117142,-0.016790,-0.002324
173,0.420972,-2.308648,9.683691,12.658238,-2.260827,7.896216,-13.057998,-1.977587,0.228363,0.993369,-0.113655,-0.017371,0.000017
174,0.449227,-2.112811,9.634221,14.176718,-2.232102,8.141821,-12.602053,-2.018990,0.504954,0.993804,-0.109657,-0.017995,0.002446
175,0.614868,-1.968573,9.721362,12.842089,-1.933668,6.365478,-12.105130,-2.101817,0.753787,0.994250,-0.105301,-0.018932,0.004606
176,0.559694,-1.834770,9.734148,12.554548,-1.322632,4.868324,-11.603119,-2.205213,0.944452,0.994676,-0.100903,-0.019977,0.006253
177,0.434445,-1.635402,9.643083,12.676231,-0.821073,4.910906,-11.075549,-2.257290,1.106522,0.995112,-0.096289,-0.020536,0.007708
178,0.471106,-1.474953,9.636745,11.057145,-0.197237,4.686484,-10.541342,-2.272284,1.260972,0.995536,-0.091620,-0.020754,0.009134
179,0.431144,-1.400266,9.675733,9.258110,0.371695,4.483428,-10.052769,-2.267582,1.404499,0.995906,-0.087349,-0.020783,0.010473
180,0.342109,-1.311984,9.695601,8.743895,0.777605,5.580507,-9.604015,-2.219736,1.560371,0.996233,-0.083426,-0.020440,0.011945
181,0.369950,-1.324933,9.749158,7.263624,0.658700,6.569272,-9.204342,-2.152009,1.750923,0.996507,-0.079927,-0.019942,0.013721
182,0.475711,-1.354088,9.818867,6.353716,0.428117,6.599721,-8.878169,-2.117244,1.960844,0.996709,-0.077059,-0.019741,0.015627
183,0.517937,-1.350239,9.804319,5.762453,-0.095757,6.842238,-8.604838,-2.126844,2.178415,0.996857,-0.074643,-0.019929,0.017560
184,0.611028,-1.390927,9.806224,3.948650,-0.662624,6.022682,-8.398807,-2.183681,2.390305,0.996946,-0.072802,-0.020527,0.019403
185,0.678611,-1.419625,9.828364,2.572500,-0.843713,3.906060,-8.272989,-2.288786,2.556673,0.996980,-0.071656,-0.021524,0.020806
186,0.682370,-1.345941,9.887789,2.911489,-0.496905,1.003580,-8.161726,-2.410808,2.639795,0.997014,-0.070646,-0.022617,0.021474
187,0.618204,-1.245308,9.891331,2.921145,0.440631,-2.846483,-8.013043,-2.508111,2.607180,0.997094,-0.069339,-0.023416,0.021160
188,0.555419,-1.197327,9.951897,2.561642,1.813427,-7.786006,-7.852071,-2.549917,2.423470,0.997216,-0.067967,-0.023641,0.019569
189,0.373453,-1.130733,9.987122,2.904084,3.522407,-12.089152,-7.682352,-2.512695,2.080022,0.997376,-0.066567,-0.023088,0.016637
190,0.252289,-1.135473,10.006866,4.015607,5.384412,-16.305260,-7.481109,-2.390552,1.588087,0.997576,-0.064930,-0.021717,0.012465
191,0.157011,-1.142552,9.986838,5.204844,7.681570,-20.499968,-7.247941,-2.188928,0.949206,0.997794,-0.063036,-0.019585,0.007058
192,0.040927,-1.154908,9.951262,6.451919,9.838562,-23.560881,-6.986811,-1.903957,0.182616,0.998004,-0.060899,-0.016681,0.000578
193,-0.072366,-1.117699,9.871998,7.312830,11.882835,-26.261648,-6.702541,-1.536631,-0.685893,0.998178,-0.058531,-0.013036,-0.006759
194,-0.100353,-1.136409,9.869244,6.745351,13.873744,-29.818453,-6.429242,-1.106194,-1.663688,0.998267,-0.056208,-0.008823,-0.015036
195,-0.096318,-1.217456,9.868300,6.197427,15.231229,-32.732861,-6.208621,-0.644593,-2.752698,0.998221,-0.054272,-0.004315,-0.024288
196,-0.140784,-1.167098,9.868340,5.971304,15.767604,-34.487583,-6.025913,-0.172572,-3.920931,0.998029,-0.052582,0.000295,-0.034242
197,-0.128857,-1.185261,10.138404,4.113958,16.131359,-36.530731,-5.888523,0.292076,-5.152802,0.997673,-0.051198,0.004852,-0.044761
198,-0.263174,-1.067836,10.510817,4.428161,15.986900,-37.449287,-5.771545,0.749880,-6.433557,0.997155,-0.049898,0.009350,-0.055713
199,-0.330637,-1.070451,10.622509,5.017194,15.071880,-34.668995,-5.632725,1.199579,-7.680812,0.996529,-0.048322,0.013723,-0.066380
200,-0.416630,-1.099567,10.706091,2.499363,14.671071,-30.156782,-5.540663,1.638819,-8.804542,0.995836,-0.047089,0.017952,-0.075972
201,-0.506275,-1.262757,10.680985,-1.381422,14.277899,-25.322611,-5.589387,2.080969,-9.773080,0.995092,-0.047027,0.022224,-0.084185
202,-0.562973,-1.542483,10.339226,-4.956161,13.225527,-18.936598,-5.828810,2.514805,-10.557016,0.994335,-0.048600,0.026499,-0.090745
203,-0.447111,-1.891567,9.772769,-9.026278,12.206483,-12.529295,-6.289157,2.907221,-11.132506,0.993601,-0.052123,0.030529,-0.095434
204,-0.397997,-1.853367,9.369888,-12.451426,11.246578,-8.273619,-6.918558,3.243912,-11.534448,0.992899,-0.057171,0.034171,-0.098565
205,-0.341196,-1.950086,9.093024,-14.245377,8.842855,-4.811476,-7.630827,3.506979,-11.806884,0.992237,-0.063018,0.037210,-0.100551
206,-0.250523,-1.955219,8.907060,-12.749391,6.045096,-2.870741,-8.339210,3.658245,-11.982417,0.991642,-0.068952,0.039246,-0.101738
207,-0.320554,-1.748011,8.973389,-10.862148,3.224319,-2.127853,-8.925415,3.709077,-12.098848,0.991163,-0.073936,0.040280,-0.102508
208,-0.357472,-1.680273,9.161027,-8.678057,0.566912,-1.651948,-9.359601,3.682485,-12.177249,0.990810,-0.077688,0.040492,-0.103052
209,-0.435834,-1.728285,9.420123,-5.858772,-2.065941,0.395701,-9.665572,3.589701,-12.197469,0.990600,-0.080414,0.039979,-0.103189
210,-0.533674,-1.620370,9.560651,-3.663212,-4.663437,5.202289,-9.842194,3.457016,-12.087758,0.990598,-0.082104,0.038913,-0.102281
211,-0.600992,-1.611773,9.812946,-2.774983,-7.069931,13.065372,-9.915722,3.305545,-11.752835,0.990866,-0.082991,0.037428,-0.099478
212,-0.544709,-1.724927,9.973536,-2.402504,-8.797336,22.162939,-9.951345,3.140662,-11.126999,0.991397,-0.083645,0.035578,-0.094182
213,-0.482205,-1.771904,10.008761,-5.957907,-10.898694,31.617544,-10.040158,2.956689,-10.185954,0.992101,-0.084849,0.033364,-0.086154
214,-0.260520,-2.081077,9.992779,-10.667364,-13.604629,40.374725,-10.300363,2.718817,-8.933595,0.992824,-0.087629,0.030546,-0.075422
215,-0.025064,-2.280808,9.978718,-13.534125,-16.047100,45.252876,-10.744607,2.392305,-7.443647,0.993418,-0.092060,0.026816,-0.062663
216,0.186324,-2.487659,9.893141,-17.785311,-18.491571,46.712849,-11.353785,1.971177,-5.833487,0.993746,-0.097905,0.022127,-0.048928
217,0.423096,-2.567396,9.673247,-19.470123,-20.722855,45.780067,-12.097684,1.449707,-4.195385,0.993735,-0.104837,0.016429,-0.035065
218,0.586403,-2.677659,9.533913,-18.902723,-22.376150,43.177841,-12.882644,0.839035,-2.595103,0.993424,-0.111989,0.009814,-0.021680
219,0.665985,-2.545880,9.419488,-17.269915,-22.471558,38.613255,-13.617801,0.184933,-1.097366,0.992902,-0.118537,0.002738,-0.009317
220,0.633053,-2.479430,9.290521,-16.025648,-20.877554,33.265903,-14.264897,-0.444816,0.240647,0.992253,-0.124154,-0.004112,0.001602
222,0.425108,-2.485021,9.156980,-14.611672,-16.414169,25.747309,-14.845049,-0.950831,1.350592,0.991530,-0.129075,-0.009750,0.010615
223,0.262750,-2.523391,9.173404,-15.085072,-11.695148,19.257381,-15.392617,-1.276014,2.198349,0.990777,-0.133678,-0.013602,0.017518
224,0.135200,-2.504711,9.231658,-14.317613,-6.767976,12.856114,-15.904707,-1.431775,2.797321,0.990053,-0.137996,-0.015747,0.022444
225,-0.086553,-2.507246,9.292953,-13.606277,-1.721159,7.015031,-16.353384,-1.415182,3.154052,0.989432,-0.141825,-0.016133,0.025483
226,-0.291212,-2.669171,9.466756,-14.097273,3.684885,2.271272,-16.782791,-1.213110,3.291539,0.988875,-0.145565,-0.014660,0.026867
227,-0.269371,-2.645466,9.637487,-12.091697,7.896321,1.079932,-17.168051,-0.865389,3.286554,0.988396,-0.148980,-0.011744,0.027228
228,-0.269407,-2.578698,9.632631,-9.386853,12.041975,0.208990,-17.434767,-0.412504,3.206059,0.988070,-0.151401,-0.007797,0.027106
229,-0.290639,-2.690003,9.617563,-9.422479,16.364471,0.047565,-17.648209,0.152513,3.065995,0.987804,-0.153382,-0.002789,0.026640
230,-0.226546,-2.875972,9.474678,-7.340476,19.575790,-1.003557,-17.864958,0.799036,2.867551,0.987512,-0.155390,0.003001,0.025800
231,-0.071862,-2.774764,9.258657,-4.631471,20.584614,-2.640812,-18.020952,1.436753,2.603896,0.987283,-0.156844,0.008822,0.024402
232,0.001797,-2.891941,9.073849,-7.315194,19.627424,-4.935937,-18.191616,1.989081,2.276307,0.987027,-0.158371,0.013996,0.022354
233,0.067680,-3.054574,9.053130,-9.651412,16.737936,-7.556252,-18.491858,2.402736,1.887669,0.986601,-0.160956,0.018045,0.019623
234,0.089289,-3.052848,9.074727,-9.147995,11.580569,-9.340483,-18.837194,2.626442,1.469440,0.986131,-0.163880,0.020509,0.016397
235,-0.064854,-3.083105,9.266251,-10.715038,5.713684,-9.232553,-19.177586,2.668653,1.083574,0.985681,-0.166740,0.021385,0.013200
236,-0.165729,-3.323437,9.478149,-11.398582,-0.459623,-7.072162,-19.551807,2.561891,0.798754,0.985183,-0.169902,0.020846,0.010663
237,-0.190593,-3.496105,9.587156,-7.210072,-6.936407,-4.254049,-19.883320,2.301661,0.662225,0.984749,-0.172722,0.018785,0.009158
238,-0.252522,-3.584108,9.621183,-2.664598,-12.535583,-0.831611,-20.072403,1.908015,0.692505,0.984526,-0.174342,0.015342,0.008851
239,-0.245450,-3.631886,9.592503,0.417468,-16.083693,1.422049,-20.135010,1.427655,0.864584,0.984482,-0.174882,0.010947,0.009606
240,-0.165975,-3.618249,9.459432,1.509666,-18.356033,2.183388,-20.134222,0.883740,1.117485,0.984514,-0.174862,0.005888,0.010949
241,-0.183048,-3.430156,9.188517,0.082642,-18.649082,1.899534,-20.133093,0.320521,1.393012,0.984523,-0.174812,0.000629,0.012458
242,-0.229403,-3.385180,8.935842,-3.222751,-16.472820,0.965772,-20.208916,-0.181442,1.639471,0.984392,-0.175403,-0.004069,0.013807
243,-0.391938,-3.317194,8.798133,-5.942215,-13.227853,-0.300435,-20.389423,-0.551224,1.821525,0.984090,-0.176894,-0.007547,0.014793
244,-0.439678,-3.260408,8.777252,-8.937716,-9.881661,0.028144,-20.649860,-0.768333,1.951921,0.983663,-0.179088,-0.009648,0.015555
245,-0.296673,-3.275488,8.843989,-10.201097,-6.561414,2.079495,-20.962202,-0.866818,2.081355,0.983150,-0.181741,-0.010741,0.016483
246,-0.110275,-3.553797,9.064684,-7.323231,-2.950120,2.577310,-21.259171,-0.884643,2.210382,0.982656,-0.184273,-0.011144,0.017533
247,-0.042952,-3.460297,9.340915,-2.044857,0.783000,0.732735,-21.396299,-0.822618,2.274356,0.982426,-0.185454,-0.010737,0.018168
248,0.189250,-3.548470,9.480416,2.463257,5.910407,-2.544846,-21.335421,-0.698234,2.204777,0.982539,-0.184960,-0.009548,0.017779
249,0.155533,-3.514762,9.517081,7.415370,11.235788,-7.906992,-21.119421,-0.505644,1.938283,0.982928,-0.183159,-0.007437,0.015819
250,-0.051106,-3.354445,9.507656,10.606768,16.520216,-11.770586,-20.747437,-0.175369,1.466056,0.983576,-0.180034,-0.003809,0.012309
251,-0.238791,-3.110320,9.481268,9.698383,21.203827,-13.812072,-20.303143,0.322473,0.846084,0.984311,-0.176268,0.001469,0.007764
252,-0.358804,-3.052954,9.339535,6.862884,24.297655,-13.433351,-19.915342,0.961209,0.159509,0.984898,-0.172926,0.008021,0.002821
253,-0.573210,-2.912681,9.263257,2.707426,23.810337,-10.700047,-19.654598,1.683930,-0.488864,0.985222,-0.170597,0.015207,-0.001695
254,-0.568153,-3.008309,9.187174,-2.601800,21.035635,-6.144792,-19.571955,2.396008,-1.002225,0.985228,-0.169744,0.022089,-0.005063
255,-0.530872,-3.204393,9.153964,-6.391749,16.777342,-3.996073,-19.694468,2.992978,-1.372477,0.984914,-0.170643,0.027777,-0.007330
256,-0.479681,-3.204700,9.085726,-7.575732,11.198697,-3.028580,-19.928663,3.406636,-1.640777,0.984453,-0.172522,0.031749,-0.008953
257,-0.427155,-3.261793,9.133085,-8.959611,4.861284,-1.774351,-20.200922,3.604845,-1.807412,0.983979,-0.174778,0.033726,-0.010004
258,-0.291304,-3.523230,9.223042,-8.578238,-0.649487,-1.562494,-20.508778,3.581263,-1.884675,0.983505,-0.177402,0.033670,-0.010614
259,-0.373034,-3.549062,9.298500,-4.113652,-4.491020,-2.055675,-20.749096,3.396058,-1.912395,0.983172,-0.179492,0.032147,-0.011073
260,-0.259864,-3.569970,9.412789,-1.513574,-7.598586,-0.469015,-20.851114,3.108958,-1.880650,0.983077,-0.180429,0.029645,-0.011226
261,-0.277081,-3.742485,9.472166,0.054894,-11.083080,2.603883,-20.886246,2.743993,-1.737269,0.983106,-0.180830,0.026291,-0.010565
262,-0.287973,-3.762580,9.474185,1.984820,-13.575535,5.061892,-20.877426,2.338645,-1.473039,0.983211,-0.180873,0.022396,-0.008942
263,-0.328985,-3.479127,9.343721,2.990325,-14.604375,6.816562,-20.789293,1.930713,-1.121287,0.983431,-0.180231,0.018336,-0.006583
264,-0.189810,-3.492908,9.220956,0.454361,-15.312704,9.065667,-20.706573,1.526236,-0.696558,0.983627,-0.179618,0.014194,-0.003586
265,-0.244899,-3.399334,8.867027,0.475669,-14.876494,8.932833,-20.686003,1.139766,-0.238091,0.983704,-0.179511,0.010158,-0.000258
266,-0.200514,-3.399499,8.719857,0.243508,-12.335818,6.831633,-20.689098,0.809280,0.167505,0.983718,-0.179573,0.006685,0.002706
267,-0.003739,-3.634257,8.678545,-0.210354,-8.760734,4.422125,-20.751188,0.529344,0.466357,0.983626,-0.180115,0.003811,0.004835
268,0.118170,-3.867794,8.768665,-1.435416,-5.195115,2.369563,-20.904339,0.301744,0.653585,0.983385,-0.181426,0.001555,0.006087
269,0.147913,-3.969816,8.861748,-2.011001,-1.280239,-0.789363,-21.145277,0.140523,0.715914,0.983002,-0.183486,0.000059,0.006366
270,0.148608,-4.107442,9.104291,-2.351616,2.913935,-4.166472,-21.404060,0.072065,0.628681,0.982591,-0.185702,-0.000401,0.005508
271,0.111390,-4.066792,9.195464,-2.021886,6.641376,-6.734761,-21.617069,0.111219,0.401235,0.982252,-0.187530,0.000297,0.003621
272,-0.043649,-3.887310,9.273933,-1.677922,8.510503,-8.375182,-21.769213,0.238629,0.073898,0.982007,-0.188832,0.001923,0.001027
273,-0.224678,-3.693951,9.208742,-0.057692,9.278320,-9.356244,-21.830753,0.434138,-0.310637,0.981899,-0.189347,0.004233,-0.001944
274,-0.259363,-3.606970,9.260690,2.519711,8.819508,-7.933883,-21.781832,0.660212,-0.690102,0.981961,-0.188899,0.006795,-0.004825
275,-0.134152,-3.499666,9.301995,4.741888,6.494269,-6.070616,-21.622057,0.840492,-1.000805,0.982199,-0.187495,0.008842,-0.007203
276,-0.078572,-3.359181,9.453787,4.399532,2.863992,-3.394167,-21.375013,0.917688,-1.203353,0.982583,-0.185354,0.009816,-0.008833
277,-0.045598,-3.290475,9.503510,3.103751,-0.743576,0.664704,-21.125214,0.904758,-1.256695,0.982981,-0.183208,0.009771,-0.009333
278,0.058118,-3.325502,9.571148,0.976145,-4.371147,4.667051,-20.949455,0.809924,-1.141558,0.983275,-0.181719,0.008761,-0.008511
279,0.023003,-3.284970,9.487148,-5.646944,-7.740902,6.781801,-20.928741,0.635326,-0.889805,0.983331,-0.181573,0.006862,-0.006629
280,-0.104016,-3.207772,9.354883,-13.313754,-10.219236,9.786273,-21.145048,0.430871,-0.523277,0.983010,-0.183460,0.004534,-0.003799
281,-0.119191,-3.352123,9.121049,-15.785012,-11.964842,11.986686,-21.553074,0.224753,-0.049869,0.982362,-0.186978,0.002008,-0.000061
282,-0.109891,-3.457698,8.923599,-15.754160,-12.036398,12.397226,-22.044085,0.021946,0.476136,0.981545,-0.191186,-0.000606,0.004115
283,-0.123159,-3.554489,8.864658,-13.481915,-10.760457,12.079941,-22.517698,-0.146185,0.997512,0.980719,-0.195223,-0.002951,0.008288
284,-0.122993,-3.598084,8.871150,-6.166469,-9.008326,11.875619,-22.830975,-0.256357,1.492651,0.980138,-0.197876,-0.004771,0.012325
285,-0.095260,-3.772110,8.991959,2.499390,-6.235326,10.334599,-22.881344,-0.304489,1.932238,0.979997,-0.198280,-0.005948,0.015999
286,-0.081842,-3.828597,9.117657,8.366625,-2.786307,8.036734,-22.696659,-0.278408,2.272773,0.980263,-0.196687,-0.006284,0.018967
287,-0.116955,-3.681602,9.148248,12.410621,0.157737,4.774529,-22.321886,-0.179450,2.486901,0.980862,-0.193486,-0.005737,0.020987
288,-0.188625,-3.473232,9.168032,13.729803,2.898989,2.330279,-21.808071,-0.013309,2.577742,0.981697,-0.189114,-0.004369,0.022065
289,-0.225561,-3.392375,9.215735,12.758844,5.266506,-0.199381,-21.260880,0.213183,2.561396,0.982583,-0.184468,-0.002295,0.022310
290,-0.411721,-3.174795,9.133041,13.826522,6.031924,-1.471635,-20.712776,0.478795,2.468963,0.983456,-0.179816,0.000236,0.021944
291,-0.509553,-2.809995,9.159698,12.176907,6.193261,-0.935597,-20.137035,0.775419,2.362328,0.984343,-0.174922,0.003057,0.021479
292,-0.513741,-2.681655,9.217767,8.942633,5.228657,0.558797,-19.564678,1.092766,2.295624,0.985185,-0.170052,0.005992,0.021360
293,-0.506414,-2.563858,9.149420,4.870690,2.727305,3.653834,-19.106153,1.366458,2.322829,0.985820,-0.166154,0.008393,0.021965
294,-0.586099,-2.191350,9.011420,1.122295,0.328002,7.214214,-18.769243,1.578893,2.483456,0.986242,-0.163302,0.010057,0.023625
295,-0.387575,-2.094938,9.092762,-7.836665,-1.288778,9.692636,-18.593245,1.730636,2.763289,0.986407,-0.161840,0.011005,0.026231
296,-0.259733,-2.320884,9.102718,-12.765943,-2.819147,9.131218,-18.675209,1.782844,3.089809,0.986203,-0.162587,0.010972,0.029123
297,-0.159990,-2.283165,9.047201,-14.410216,-3.472486,5.774171,-18.900084,1.740342,3.365637,0.985817,-0.164538,0.010153,0.031457
298,-0.040504,-2.330296,9.071050,-13.937985,-3.231952,0.402794,-19.143740,1.611313,3.506512,0.985447,-0.166615,0.008772,0.032503
299,0.185115,-2.666886,9.169558,-12.188949,-2.939985,-4.272933,-19.394566,1.387898,3.485364,0.985121,-0.168715,0.006811,0.032013
300,0.304697,-2.966564,9.210264,-7.346071,-2.517183,-8.878635,-19.612339,1.081383,3.312595,0.984888,-0.170506,0.004372,0.030087
301,0.322528,-3.024064,9.210481,-2.973552,-1.633606,-12.013385,-19.714872,0.744821,3.009906,0.984847,-0.171303,0.001905,0.026987
302,0.355616,-3.320772,9.483144,-0.223371,-0.777394,-11.495049,-19.725618,0.431011,2.655481,0.984934,-0.171328,-0.000264,0.023473
303,0.390275,-3.558563,9.755458,2.482120,0.316961,-10.859187,-19.687296,0.164361,2.307337,0.985072,-0.170954,-0.002029,0.020083
304,0.380515,-3.745735,9.947316,4.428885,2.043179,-10.862645,-19.604063,-0.040178,1.952868,0.985260,-0.170214,-0.003247,0.016733
305,0.248140,-3.914331,9.965672,5.600099,4.166443,-11.378703,-19.505962,-0.154239,1.568706,0.985457,-0.169367,-0.003645,0.013263
306,0.190048,-3.930786,9.748475,4.817752,5.360731,-10.516734,-19.438583,-0.180422,1.171816,0.985597,-0.168796,-0.003278,0.009813
307,0.059962,-3.995509,9.431152,4.155534,6.440841,-8.659766,-19.437408,-0.127275,0.805380,0.985625,-0.168799,-0.002281,0.006740
308,-0.079029,-4.123265,9.111404,4.414361,7.129131,-6.273179,-19.504946,0.013541,0.495881,0.985539,-0.169391,-0.000617,0.004285
309,-0.203017,-4.032394,8.843476,4.967322,6.741961,-4.797459,-19.596773,0.213664,0.244830,0.985408,-0.170185,0.001474,0.002423
310,-0.243461,-3.945996,8.691552,4.557446,5.022817,-1.084684,-19.684294,0.426156,0.086032,0.985275,-0.170936,0.003536,0.001375
311,-0.315384,-4.136695,8.695512,5.323873,3.167933,3.258312,-19.783752,0.634348,0.072410,0.985118,-0.171790,0.005345,0.001573
312,-0.287160,-4.170568,8.785516,6.703526,1.294696,5.345966,-19.865593,0.815705,0.179365,0.984983,-0.172499,0.006742,0.002770
313,-0.267716,-4.146733,8.981750,6.515853,-0.403165,6.702651,-19.946115,0.949093,0.359197,0.984846,-0.173204,0.007614,0.004521
314,-0.261516,-4.250207,9.250342,5.568488,-1.493833,8.604041,-20.022152,1.044293,0.605421,0.984711,-0.173876,0.008056,0.006787
315,-0.207668,-4.302650,9.361099,5.521891,-2.204750,8.973331,-20.066353,1.102734,0.897714,0.984618,-0.174279,0.008111,0.009390
316,-0.134335,-4.236619,9.518687,5.760842,-2.439787,7.928014,-20.087223,1.120533,1.184896,0.984558,-0.174480,0.007825,0.011886
317,-0.125108,-4.086062,9.504044,5.418787,-2.484211,6.757529,-20.073400,1.107778,1.439560,0.984551,-0.174377,0.007329,0.014054
318,-0.022263,-3.994769,9.327353,5.232579,-2.484531,5.649558,-20.048820,1.065750,1.659178,0.984564,-0.174175,0.006637,0.015876
319,0.047776,-3.967348,9.075624,5.548008,-2.361568,4.878694,-20.062204,0.980880,1.848024,0.984525,-0.174290,0.005619,0.017370
320,0.067523,-3.819298,9.005746,5.630017,-1.606965,3.878909,-20.065001,0.889817,2.004405,0.984505,-0.174309,0.004598,0.018575
321,0.053948,-3.653211,8.977277,6.880027,-0.782040,2.642669,-19.979675,0.825016,2.118053,0.984622,-0.173570,0.003883,0.019450
322,0.012180,-3.597395,9.018685,7.124741,-0.311017,2.392224,-19.841183,0.783826,2.201597,0.984820,-0.172377,0.003427,0.020102
323,-0.087833,-3.568175,9.111518,5.956580,0.013735,2.611846,-19.704840,0.778229,2.280501,0.985011,-0.171206,0.003285,0.020768
325,-0.168179,-3.405489,9.163304,4.953490,-0.486781,3.042145,-19.577415,0.800940,2.371120,0.985182,-0.170117,0.003369,0.021577
326,-0.264984,-3.292571,9.182492,3.947697,-0.974850,3.933363,-19.448153,0.840877,2.488601,0.985347,-0.169016,0.003563,0.022642
327,-0.245247,-3.245654,9.146832,1.211647,-1.317814,4.778855,-19.366568,0.892193,2.638236,0.985431,-0.168329,0.003801,0.024001
328,-0.190189,-3.302247,9.141455,-1.124740,-1.523550,5.557167,-19.381739,0.932547,2.816195,0.985366,-0.168473,0.003883,0.025591
329,-0.200149,-3.251748,9.099945,-1.923058,-1.602745,5.508388,-19.455288,0.960856,3.007046,0.985211,-0.169118,0.003828,0.027277
330,-0.230840,-3.264583,9.078933,-3.324059,-0.989113,4.656991,-19.559896,0.998843,3.180828,0.985009,-0.170031,0.003872,0.028830
331,-0.156908,-3.319915,9.136798,-4.506861,-0.467135,3.872702,-19.708845,1.035584,3.322503,0.984747,-0.171325,0.003939,0.030107
332,-0.297217,-3.361091,9.276059,-5.202837,-0.508189,3.794929,-19.883801,1.078986,3.447968,0.984445,-0.172843,0.004076,0.031256
333,-0.397336,-3.350089,9.326394,-5.475998,-1.140999,4.188779,-20.061247,1.146278,3.582292,0.984130,-0.174389,0.004402,0.032518
334,-0.414527,-3.419743,9.348779,-5.790316,-1.740112,5.263240,-20.243275,1.216840,3.746616,0.983794,-0.175976,0.004703,0.034044
335,-0.336307,-3.433431,9.341072,-5.704856,-2.240155,5.603690,-20.429928,1.266488,3.939375,0.983440,-0.177600,0.004775,0.035783
336,-0.318253,-3.500514,9.300946,-5.404282,-1.853794,2.703017,-20.614998,1.283269,4.092791,0.983101,-0.179199,0.004622,0.037133
337,-0.171375,-3.764124,9.179868,-5.300988,-1.736230,2.381060,-20.838068,1.264198,4.192122,0.982721,-0.181111,0.004229,0.037963
338,-0.055201,-3.807934,9.137491,-6.777423,-0.138869,-0.539688,-21.125166,1.215091,4.230137,0.982259,-0.183559,0.003652,0.038222
339,-0.003513,-3.704373,9.227962,-7.473878,2.305170,-6.437594,-21.428507,1.153136,4.107522,0.981819,-0.186137,0.003219,0.037080
340,-0.225457,-3.652780,9.325157,-7.277211,3.485990,-7.978878,-21.697271,1.128284,3.848376,0.981464,-0.188424,0.003345,0.034828
341,-0.390441,-3.544984,9.364450,-6.297318,2.724840,-4.362315,-21.903189,1.179104,3.619379,0.981185,-0.190194,0.004098,0.032957
342,-0.453014,-3.200210,9.444211,-5.589779,2.527049,-3.998891,-22.001268,1.271397,3.459366,0.981053,-0.191050,0.005127,0.031744
343,-0.541934,-3.033613,9.428351,-3.448598,1.374196,-2.037733,-21.971224,1.376249,3.345632,0.981119,-0.190812,0.006222,0.030943
344,-0.421139,-3.000271,9.371902,-2.599268,-0.695740,2.631960,-21.827553,1.472983,3.356439,0.981340,-0.189604,0.007072,0.031187
345,-0.100145,-2.964057,9.311967,-2.500343,-1.383898,4.209857,-21.630117,1.489567,3.482314,0.981627,-0.187925,0.007061,0.032280
346,0.120806,-2.975889,9.228398,-3.674191,-0.565456,3.306193,-21.465702,1.402641,3.617432,0.981871,-0.186503,0.006142,0.033287
347,0.145199,-3.036488,9.182831,-5.002756,0.531984,2.243720,-21.403965,1.306099,3.708711,0.981960,-0.185954,0.005185,0.033909
348,0.126524,-3.074701,9.313326,-6.559152,0.967384,1.767273,-21.437984,1.246226,3.765545,0.981896,-0.186232,0.004569,0.034301
349,-0.090695,-3.131930,9.379891,-5.233122,1.075069,1.893704,-21.480921,1.231194,3.813355,0.981814,-0.186598,0.004350,0.034688
350,-0.376031,-3.177901,9.360362,-3.171472,1.470397,0.961447,-21.455162,1.301732,3.845711,0.981836,-0.186397,0.004909,0.035079
351,-0.468827,-3.332111,9.465200,-2.181249,0.166334,1.666695,-21.401285,1.409086,3.879706,0.981896,-0.185966,0.005791,0.035541
352,-0.537787,-3.279415,9.602283,-0.388664,-0.977422,2.684787,-21.327276,1.497920,3.955000,0.981978,-0.185360,0.006453,0.036326
353,-0.607587,-3.229688,9.648499,3.030747,-1.898267,4.107304,-21.146032,1.582908,4.081531,0.982214,-0.183838,0.007036,0.037536
354,-0.477780,-3.238149,9.513140,5.720717,-4.137624,5.775449,-20.865837,1.624542,4.275252,0.982589,-0.181460,0.007179,0.039245
355,-0.159359,-3.298176,9.596661,7.737525,-7.065789,6.761263,-20.528246,1.534129,4.539997,0.983042,-0.178552,0.006106,0.041355
356,-0.247155,-3.128407,9.497547,11.481668,-8.845225,7.247985,-20.095322,1.345467,4.853923,0.983625,-0.174788,0.004163,0.043740
357,-0.146528,-3.121908,9.367769,13.489250,-10.165302,8.573985,-19.572495,1.121517,5.211932,0.984307,-0.170228,0.001907,0.046465
358,0.166266,-3.185989,9.215977,15.417034,-10.292568,9.133793,-19.029938,0.832485,5.604050,0.984979,-0.165454,-0.000925,0.049411
359,0.285934,-3.157095,9.158914,14.619103,-7.055647,5.753490,-18.512722,0.523098,5.931343,0.985608,-0.160868,-0.003823,0.051797
360,0.299806,-3.092426,9.266864,13.033684,-3.524266,1.746023,-18.048986,0.274702,6.104279,0.986198,-0.156760,-0.005988,0.052961
361,0.313361,-3.060205,9.395972,12.736146,-0.041782,-1.541217,-17.617735,0.092341,6.124750,0.986787,-0.152963,-0.007386,0.052916
362,0.322923,-3.055265,9.478317,12.595701,3.097446,-6.587815,-17.201601,-0.018139,5.979228,0.987410,-0.149337,-0.007956,0.051545
363,0.074292,-2.971434,9.531331,11.893685,5.251490,-10.601176,-16.802450,-0.027951,5.663936,0.988063,-0.145914,-0.007460,0.048841
364,-0.096412,-2.961835,9.641363,13.289811,5.178286,-10.900247,-16.392551,0.040317,5.270720,0.988736,-0.142430,-0.006207,0.045560
365,-0.321068,-3.275224,9.812385,14.798366,4.363997,-8.684440,-15.983555,0.159891,4.913165,0.989369,-0.138962,-0.004579,0.042640
366,-0.279093,-3.245856,10.293521,15.140804,1.955295,-7.948731,-15.575270,0.262355,4.618141,0.989958,-0.135483,-0.003193,0.040228
367,-0.465845,-2.782380,11.038215,21.578661,-0.605915,-3.395138,-14.966472,0.319363,4.430668,0.990724,-0.130245,-0.002273,0.038689
368,-0.585423,-3.051819,11.689195,23.790165,-6.237012,2.238878,-14.166313,0.317863,4.442310,0.991606,-0.123323,-0.002028,0.038803
369,-0.472436,-3.599529,13.097459,18.202011,-8.949109,8.187195,-13.487051,0.217213,4.673078,0.992245,-0.117404,-0.002906,0.040709
370,-0.365187,-3.882926,13.931412,24.301840,-9.343618,12.891792,-12.859768,0.073451,5.085324,0.992728,-0.111905,-0.004332,0.044156
371,-0.178425,-4.025786,13.742450,48.782398,-8.325370,15.583631,-11.780470,-0.066163,5.612194,0.993530,-0.102472,-0.005598,0.048638
372,0.094980,-3.898856,13.027956,68.267906,-6.071505,12.333428,-10.039570,-0.206693,6.114520,0.994753,-0.087279,-0.006461,0.052972
373,0.426795,-3.644889,12.465095,74.970039,0.651227,8.045494,-7.932450,-0.294191,6.463265,0.996025,-0.068914,-0.006456,0.056060
374,0.663832,-2.710783,11.658767,83.991524,3.393713,-0.054278,-5.569272,-0.326348,6.584186,0.997175,-0.048338,-0.005630,0.057220
375,0.556477,-1.796826,10.419900,96.326286,8.749854,-5.894145,-2.798491,-0.272305,6.465436,0.998111,-0.024246,-0.003749,0.056317
376,0.170854,-1.152846,10.735553,84.387093,14.913765,-8.062549,0.023652,0.032193,6.218171,0.998528,0.000191,0.000292,0.054237
377,-0.155946,-0.618499,10.532440,67.327095,11.483530,-5.616495,2.381917,0.480539,5.997127,0.998411,0.020537,0.005274,0.052212
378,-0.104263,0.213426,10.308750,61.625092,8.987344,-3.226899,4.414305,0.852664,5.870885,0.997934,0.038080,0.009398,0.050885
379,-1.020318,1.000923,9.275904,58.761063,5.366163,4.291234,6.434261,1.226253,5.914547,0.997068,0.055491,0.013565,0.050907
380,-0.268345,1.996984,8.939455,35.707829,-4.447130,9.749391,8.210377,1.358369,6.159064,0.995969,0.070844,0.015652,0.052733
381,0.012803,2.480940,7.843723,12.867058,-11.082081,13.811530,9.412803,1.018795,6.518523,0.995018,0.081410,0.013511,0.055932
382,0.109295,2.601110,7.416084,-7.221537,-9.329576,12.102715,9.990774,0.530553,6.896981,0.994411,0.086640,0.009842,0.059520
383,0.002262,2.585808,6.961089,-28.741188,-10.132777,5.333875,9.897527,0.102830,7.134199,0.994347,0.086042,0.006259,0.061908
384,0.777766,2.335285,6.877655,-48.871002,-6.987974,-2.725746,9.081386,-0.353837,7.134694,0.994910,0.079205,0.001854,0.062270
385,0.107092,1.899779,6.878914,-63.082741,-1.319290,-8.035685,7.594959,-0.631996,6.941467,0.995937,0.066441,-0.001484,0.060769
386,-0.175111,1.786532,6.917318,-69.976624,0.583914,-13.596233,5.711476,-0.564081,6.580818,0.997085,0.050021,-0.002049,0.057570
387,-0.022509,0.968961,6.630257,-67.143669,2.539312,-17.040358,3.667680,-0.400386,6.071722,0.998073,0.032141,-0.001793,0.053045
388,0.147131,0.084297,6.051081,-48.072716,4.295592,-14.011400,1.744484,-0.267856,5.559630,0.998703,0.015318,-0.001596,0.048528
389,0.019116,-0.727481,5.288113,-22.571499,5.101048,-11.231133,0.258935,-0.127289,5.144563,0.998989,0.002307,-0.001008,0.044882
390,-0.328624,-0.766583,4.157246,1.388122,5.845331,-11.225016,-0.597852,0.169826,4.771022,0.999118,-0.005274,0.001264,0.041630
391,0.092750,-1.366359,3.266017,18.436876,5.418798,-11.812518,-1.073761,0.425220,4.382309,0.999217,-0.009505,0.003350,0.038266
392,-0.119020,-1.228852,2.526909,32.225941,3.551162,-10.538425,-1.372867,0.576275,4.000616,0.999304,-0.012148,0.004607,0.034962
393,-0.222502,-1.251548,2.543401,36.510933,1.069984,-8.591416,-1.432541,0.795716,3.669326,0.999382,-0.012717,0.006540,0.032099
394,-0.189038,-0.879834,3.294594,38.450199,-0.599312,-10.781187,-1.122220,0.955492,3.336048,0.999491,-0.010031,0.008049,0.029188
395,-0.164029,-0.792617,4.669295,32.257114,-2.214406,-13.474507,-0.496806,0.989266,2.925365,0.999627,-0.004554,0.008519,0.025562
396,-0.427516,0.541490,6.638606,26.384518,-3.959133,-17.094004,0.388555,0.978966,2.415810,0.999736,0.003210,0.008613,0.021051
397,-0.687635,0.880825,9.266434,11.277347,-3.817265,-13.797960,1.261356,1.005380,1.905588,0.999764,0.010859,0.008955,0.016530
398,-0.676279,2.126945,11.317818,-2.501225,-3.396230,-13.669740,1.758061,1.037230,1.452729,0.999763,0.015225,0.009244,0.012536
399,-0.942501,2.250708,13.146143,-21.816660,-3.881654,-8.408309,1.776964,1.061608,1.089365,0.999793,0.015417,0.009410,0.009361
400,-0.670168,2.695776,14.304338,-29.805267,-4.597686,-3.427648,1.332024,1.040173,0.895530,0.999862,0.011552,0.009167,0.007709
401,-0.183831,1.471183,14.810319,-34.691036,-3.832882,3.326149,0.586799,0.930965,0.896959,0.999924,0.005057,0.008164,0.007785
402,-0.218859,1.504026,14.420625,-31.769514,-3.225661,3.071363,-0.276752,0.802951,1.007574,0.999934,-0.002477,0.006985,0.008809
403,-0.189962,0.387189,14.656082,-35.112560,-2.134655,5.741760,-1.210701,0.712512,1.158484,0.999873,-0.010627,0.006110,0.010174
404,-0.054310,-0.115375,14.055516,-29.153185,-1.120053,4.804848,-2.216317,0.649713,1.336937,0.999728,-0.019404,0.005443,0.011774
405,0.139013,-1.190652,14.072859,-27.136383,0.004129,2.784504,-3.199971,0.594539,1.464232,0.999513,-0.027985,0.004829,0.012917
406,-0.300141,-1.383174,13.715762,-19.390554,1.386479,2.186324,-4.103899,0.609123,1.544662,0.999251,-0.035873,0.004829,0.013661
407,0.283994,-2.195341,14.047225,-15.740847,1.586102,1.557602,-4.871958,0.635931,1.601268,0.998980,-0.042576,0.004950,0.014196
408,-0.073849,-2.037595,13.864190,-4.841700,2.670518,-0.554339,-5.421347,0.656005,1.609965,0.998762,-0.047367,0.005053,0.014304
409,0.051281,-1.851642,14.088113,-0.283624,2.999821,-0.632205,-5.645924,0.718353,1.579885,0.998668,-0.049331,0.005582,0.014078
410,-0.251003,-2.131027,13.615369,6.915890,3.405586,2.090017,-5.668042,0.813597,1.592042,0.998651,-0.049535,0.006404,0.014226
411,-0.295527,-1.841738,13.327934,9.891609,2.070594,0.861648,-5.523486,0.928509,1.630371,0.998699,-0.048292,0.007407,0.014601
412,-0.445028,-1.764508,12.637094,13.624394,4.532291,3.625118,-5.245979,1.082947,1.692911,0.998792,-0.045896,0.008763,0.015189
413,-0.261738,-1.520105,12.331364,15.134007,7.286886,4.449129,-4.869355,1.320926,1.807985,0.998899,-0.042654,0.010845,0.016251
414,-0.719413,-1.362346,12.342936,15.780198,9.901325,8.949111,-4.429113,1.677530,2.005963,0.998983,-0.038888,0.013949,0.018055
415,-0.188048,-1.347334,12.270841,20.030615,6.735328,14.511115,-3.901998,2.012368,2.374173,0.999039,-0.034396,0.016841,0.021300
416,-0.085263,-1.121671,11.613394,37.649609,3.920926,17.959637,-3.008065,2.162490,2.900916,0.999145,-0.026712,0.018193,0.025794
417,-0.014713,-0.388436,10.999245,39.150963,-1.326123,20.912241,-1.719917,2.140056,3.545096,0.999226,-0.015576,0.018199,0.031203
418,0.118992,0.188454,10.304786,35.097515,-6.759638,21.220465,-0.364330,1.896065,4.251362,0.999168,-0.003790,0.016416,0.037139
419,0.464724,0.750512,9.149551,31.721069,-9.537192,17.932135,0.962829,1.431682,4.906167,0.998975,0.007859,0.012841,0.042692
420,-0.057061,1.810187,8.081650,18.484768,-7.342831,11.599656,2.224788,0.991683,5.397928,0.998673,0.018984,0.009557,0.046910
421,-0.016578,2.115068,7.811507,-12.077995,-3.748211,8.935530,2.946595,0.744570,5.742785,0.998402,0.025353,0.007775,0.049910
422,-0.200112,2.184357,7.904418,-25.766874,-0.194372,3.962634,2.948911,0.663958,5.963717,0.998306,0.025395,0.007123,0.051853
423,-0.268855,2.078799,7.604932,-35.630402,1.577724,5.600003,2.543581,0.728989,6.131508,0.998310,0.021823,0.007538,0.053327
424,-0.041752,1.710308,7.629915,-47.427864,1.854143,3.477496,1.718313,0.802979,6.291205,0.998362,0.014587,0.007819,0.054761
425,0.116745,1.047631,7.663377,-46.192421,3.628277,0.430293,0.561382,0.841568,6.363904,0.998421,0.004484,0.007605,0.055469
426,0.054149,0.343008,7.204530,-36.696060,3.902212,-0.776669,-0.614540,0.894093,6.362555,0.998412,-0.005787,0.007493,0.055535
428,0.436320,-0.213543,6.073893,-24.254995,2.980513,-2.436885,-1.611882,0.851279,6.309124,0.998353,-0.014453,0.006643,0.055127
429,0.126801,-0.960398,5.169867,-5.331512,2.877999,-8.040150,-2.364126,0.762570,6.130238,0.998327,-0.020955,0.005541,0.053595
430,-0.024441,-1.228693,4.045871,10.662005,3.771538,-11.427804,-2.861032,0.793123,5.794133,0.998378,-0.025282,0.005649,0.050697
431,-0.068822,-1.394597,3.822161,21.044209,3.121450,-13.666445,-3.121414,0.881385,5.360033,0.998496,-0.027565,0.006407,0.046949
432,-0.161130,-1.457662,2.998446,30.176249,1.785287,-13.730646,-3.253065,0.991989,4.885090,0.998641,-0.028726,0.007436,0.042844
433,-0.427088,-1.263178,3.704372,31.694334,1.597882,-13.364476,-3.167691,1.203495,4.415875,0.998810,-0.028022,0.009426,0.038799
434,-0.590989,-0.989278,4.404011,30.371296,1.443595,-9.781557,-2.759392,1.522730,4.017737,0.998996,-0.024527,0.012432,0.035361
435,-0.537805,-0.761997,6.013032,29.768156,-0.523921,-6.641151,-2.110417,1.772048,3.738288,0.999170,-0.018908,0.014852,0.032892
436,-0.758947,-0.008437,7.352431,24.867805,-1.249871,0.854260,-1.263013,1.931690,3.644165,0.999286,-0.011550,0.016496,0.031975
437,-0.489834,0.809427,9.943556,12.665930,-1.390459,3.262298,-0.387501,2.021688,3.724222,0.999309,-0.003953,0.017522,0.032549
438,-0.806639,1.077441,11.379115,6.919650,-2.190768,6.520275,0.285831,2.042421,3.900329,0.999261,0.001886,0.017897,0.033980
439,-0.229750,1.520079,13.046422,-6.050741,-2.634563,5.464447,0.610468,1.985542,4.110940,0.999196,0.004702,0.017506,0.035769
440,-0.414965,1.931812,13.810545,-15.244077,-2.181687,4.997636,0.603380,1.871248,4.296576,0.999153,0.004649,0.016515,0.037394
441,0.045334,1.526675,14.458384,-23.271837,-2.986425,1.468284,0.283621,1.726771,4.414725,0.999143,0.001893,0.015152,0.038474
442,-0.159667,0.705543,14.799047,-26.748983,-3.042144,-1.543823,-0.353522,1.547823,4.420547,0.999159,-0.003603,0.013378,0.038605
443,0.125202,0.259679,14.971067,-29.236818,-1.524632,-5.962878,-1.194946,1.391892,4.300240,0.999163,-0.010875,0.011746,0.037640
444,0.053713,-0.395175,15.291592,-27.254374,-0.310901,-8.909444,-2.115596,1.263963,4.055561,0.999135,-0.018839,0.010368,0.035579
445,0.046603,-0.688181,15.503628,-24.394970,0.779379,-11.210565,-3.001331,1.181290,3.721101,0.999068,-0.026508,0.009449,0.032724
446,-0.218889,-1.487280,15.358120,-18.147045,1.084116,-9.927296,-3.791406,1.146559,3.366921,0.998962,-0.033358,0.009024,0.029691
447,-0.361529,-1.378284,15.222122,-9.076395,2.432995,-7.053999,-4.348749,1.180964,3.078665,0.998856,-0.038202,0.009275,0.027233
448,-0.328842,-1.603996,14.786300,-2.643899,2.008862,-6.675580,-4.629693,1.244335,2.843113,0.998807,-0.040645,0.009844,0.025225
449,-0.709615,-1.817754,13.887088,6.289227,2.607461,-3.260549,-4.689453,1.351243,2.669265,0.998811,-0.041172,0.010826,0.023753
450,-0.658778,-2.100279,12.924650,14.362586,1.898705,0.952553,-4.530306,1.502857,2.620807,0.998860,-0.039810,0.012197,0.023367
451,-0.508254,-1.622324,12.182044,18.419653,1.723826,2.544095,-4.172112,1.627578,2.670045,0.998953,-0.036718,0.013342,0.023797
452,-0.552844,-1.667319,11.399280,18.550611,1.254341,3.535935,-3.732968,1.733915,2.763225,0.999053,-0.032922,0.014333,0.024588
453,-0.487385,-1.748262,11.428974,18.386589,0.371286,9.483957,-3.338150,1.819681,2.971909,0.999102,-0.029525,0.015112,0.026380
454,-0.081317,-1.676039,11.207459,24.470980,-1.752976,10.776329,-2.866194,1.797341,3.302716,0.999138,-0.025448,0.014952,0.029197
455,-0.320949,-1.723644,11.178761,31.707209,-3.326591,10.646516,-2.195364,1.689440,3.654238,0.999191,-0.019615,0.014122,0.032157
456,-0.191083,-1.093382,11.130602,42.432137,-4.661990,13.449560,-1.180881,1.546403,4.052281,0.999226,-0.010775,0.013121,0.035489
457,-0.020242,-0.324467,10.569042,48.365467,-5.811545,16.631071,0.244990,1.322266,4.551223,0.999144,0.001678,0.011614,0.039679
458,0.154766,0.677943,9.561275,45.827137,-6.882139,13.609753,1.905389,1.009340,5.050793,0.998858,0.016222,0.009531,0.043908
459,0.181909,1.663373,8.779698,32.290749,-6.397995,12.196827,3.527718,0.657210,5.472891,0.998378,0.030471,0.007195,0.047542
460,0.120999,2.540348,7.821687,14.040351,-4.560162,11.701022,4.880395,0.354769,5.862089,0.997788,0.042363,0.005266,0.050956
461,-0.209783,2.923338,6.893792,-13.982874,-3.575988,7.048540,5.685297,0.185835,6.166614,0.997327,0.049434,0.004285,0.053641
462,-0.116292,3.033867,6.578550,-39.653542,-3.361854,4.799323,5.704700,0.101667,6.356309,0.997227,0.049637,0.003644,0.055328
463,-0.299563,2.728177,6.637394,-55.674614,-1.259897,7.709209,4.994017,0.081791,6.558619,0.997416,0.043455,0.003204,0.057118
464,-0.053393,2.383578,6.851134,-69.082932,0.616122,9.718801,3.676308,0.115142,6.847411,0.997703,0.031959,0.002918,0.059656
465,0.442218,1.965111,6.884480,-78.503563,1.544587,6.155827,1.871821,0.055940,7.115407,0.997940,0.016272,0.001501,0.062037
466,0.400798,1.168750,6.768457,-70.725487,1.097261,5.069462,-0.114253,-0.077975,7.309184,0.997966,-0.000952,-0.000743,0.063741
467,0.677150,0.170076,6.609507,-51.311829,2.352335,0.091919,-1.911257,-0.247442,7.400770,0.997776,-0.016504,-0.003231,0.064494
468,0.426183,-0.263867,6.095156,-26.020885,3.831633,-9.396318,-3.173733,-0.388240,7.247991,0.997618,-0.027423,-0.005130,0.063090
469,0.108725,-0.078448,4.511346,-3.275040,2.200761,-15.612987,-3.618845,-0.429840,6.828312,0.997728,-0.031296,-0.005623,0.059405
470,-0.213678,-1.087353,4.122482,18.894434,0.960756,-16.743641,-3.577324,-0.352656,6.288695,0.998009,-0.030997,-0.004783,0.054729
471,0.212967,-1.399120,3.735462,38.321678,1.084495,-20.884945,-3.314094,-0.341967,5.665380,0.998360,-0.028734,-0.004408,0.049313
472,0.083709,-1.570328,3.568669,49.924797,0.988980,-20.381393,-2.755466,-0.434162,4.981745,0.998763,-0.023856,-0.004829,0.043356
473,-0.336704,-1.286730,3.514830,49.505070,0.436224,-17.182936,-2.019880,-0.320320,4.361847,0.999118,-0.017507,-0.003464,0.038000
474,-0.117047,-1.884755,5.162657,49.240025,0.784372,-11.498727,-1.241592,-0.136586,3.891700,0.999364,-0.010788,-0.001559,0.033940
475,-0.335401,-0.612734,6.609831,44.336361,0.420812,-6.478377,-0.226104,-0.006364,3.596421,0.999506,-0.001970,-0.000117,0.031379
476,-0.581901,0.067944,8.607485,27.626635,1.443381,1.052088,0.888694,0.198312,3.509452,0.999500,0.007699,0.001967,0.030607
477,-0.794050,1.402412,10.266951,9.526464,0.542046,4.525087,1.696489,0.431088,3.606701,0.999390,0.014678,0.004226,0.031410
478,0.138374,1.640468,12.217738,-7.134968,-1.800998,9.844472,2.058001,0.480239,3.848691,0.999269,0.017807,0.004791,0.033499
479,-0.288486,2.306836,13.364178,-20.353699,-1.347880,9.278382,1.943374,0.408884,4.168166,0.999191,0.016817,0.004182,0.036300
480,0.200552,1.840882,14.007136,-30.931158,-1.724901,10.171080,1.421932,0.336504,4.493381,0.999151,0.012284,0.003420,0.039162
481,0.511358,1.591184,14.234720,-34.982914,-2.006571,9.171639,0.586813,0.179016,4.817193,0.999103,0.005051,0.001776,0.042017
482,0.305378,0.769035,14.176747,-37.048679,-1.732851,8.503312,-0.426586,0.021756,5.114220,0.998997,-0.003727,0.000024,0.044616
483,0.348284,-0.028303,13.921268,-34.960510,-0.319035,5.375167,-1.556045,-0.079859,5.347773,0.998819,-0.013531,-0.001330,0.046637
484,0.331084,-0.825204,13.557934,-32.171516,0.113636,4.838031,-2.715525,-0.145900,5.519577,0.998560,-0.023606,-0.002412,0.048105
485,0.282338,-1.227203,13.285048,-28.467697,1.088106,4.445849,-3.838654,-0.176547,5.674423,0.998215,-0.033375,-0.003196,0.049419
486,-0.027234,-1.750981,12.749238,-22.962265,1.933277,2.355328,-4.859481,-0.136943,5.784883,0.997830,-0.042280,-0.003332,0.050365
487,0.093831,-2.203877,12.608008,-18.502716,1.919546,0.559319,-5.776217,-0.068019,5.827977,0.997440,-0.050290,-0.003154,0.050742
488,-0.111076,-2.284726,12.641111,-12.344932,1.861630,-0.347068,-6.528113,0.002121,5.825185,0.997088,-0.056865,-0.002875,0.050731
489,-0.162567,-2.175791,12.851887,-5.815858,1.420955,-3.205091,-7.019393,0.081406,5.759848,0.996861,-0.061176,-0.002368,0.050192
490,-0.379108,-2.382066,13.395640,3.405299,2.552219,-3.588032,-7.213338,0.188902,5.638970,0.996805,-0.062911,-0.001451,0.049196
491,-0.470599,-1.965671,13.917436,12.457643,2.130342,-2.422126,-7.046631,0.335073,5.529806,0.996935,-0.061524,-0.000049,0.048326
492,-0.577971,-2.082561,13.955647,20.855770,1.887121,-0.929658,-6.548499,0.488525,5.466795,0.997211,-0.057253,0.001528,0.047854
493,-0.676936,-1.629896,13.291840,30.244318,1.454855,0.964143,-5.743952,0.654414,5.462383,0.997580,-0.050318,0.003310,0.047875
494,-0.512716,-1.727673,12.562995,35.038143,0.764622,3.623934,-4.718213,0.799956,5.536335,0.997948,-0.041450,0.004979,0.048540
495,-0.338678,-1.024209,11.225249,35.606674,-0.840008,3.343216,-3.603708,0.871853,5.652987,0.998249,-0.031779,0.006045,0.049525
496,-0.040473,-1.052930,10.113669,32.372528,-1.540338,3.276074,-2.540022,0.845059,5.764961,0.998454,-0.022506,0.006249,0.050437
497,0.279140,-0.551846,9.556397,28.897217,-1.229838,2.758735,-1.595178,0.723688,5.865268,0.998569,-0.014225,0.005594,0.051244
498,0.129203,-0.271629,9.528683,20.351835,-1.529922,0.015080,-0.793979,0.578308,5.910596,0.998632,-0.007180,0.004683,0.051590
499,0.197412,-0.281585,9.837345,12.943174,-1.649894,0.564392,-0.268152,0.430215,5.919498,0.998656,-0.002531,0.003628,0.051643
500,0.045601,-0.389478,10.376140,18.322836,-2.073322,-0.183326,0.177771,0.293594,5.924590,0.998660,0.001417,0.002639,0.051675
501,-0.024430,-0.777289,10.938640,25.575556,-3.016556,-0.074996,0.756380,0.187620,5.918350,0.998644,0.006507,0.001976,0.051612
502,-0.423150,-0.136198,11.293466,34.407715,-4.650373,-0.877646,1.613908,0.105027,5.899444,0.998576,0.014018,0.001640,0.051442
503,-0.212625,0.146800,11.041160,38.424904,-7.361204,1.847642,2.770237,-0.021773,5.909085,0.998379,0.024150,0.001056,0.051533
504,0.140400,0.990894,10.260644,38.814487,-8.787883,2.137569,4.104591,-0.288199,5.960065,0.997999,0.035894,-0.000648,0.052044
505,0.289172,1.606481,8.941081,26.360561,-8.751835,3.484991,5.410355,-0.644598,6.027598,0.997474,0.047426,-0.003130,0.052782
506,-0.272264,2.531757,7.682139,6.558745,-6.040017,5.218366,6.426931,-0.879032,6.141781,0.996942,0.056384,-0.004645,0.053915
507,0.204956,2.646284,6.713498,-21.277910,-3.309703,10.514721,6.868297,-1.019410,6.375758,0.996591,0.060300,-0.005535,0.056040
508,0.337764,2.539560,6.412129,-45.305401,0.408319,14.500394,6.487491,-1.180215,6.772509,0.996567,0.057089,-0.006923,0.059551
509,0.424106,2.734567,6.469636,-65.723755,3.294324,11.953598,5.396050,-1.267557,7.204305,0.996824,0.047670,-0.008070,0.063274
510,0.840206,2.234008,6.886735,-80.524193,5.949030,6.281774,3.665969,-1.329987,7.508578,0.997252,0.032675,-0.009481,0.065810
511,1.294358,1.528632,7.352481,-79.542519,6.244660,0.977804,1.503716,-1.476628,7.637582,0.997600,0.013950,-0.011982,0.066759
512,0.707515,0.909907,6.980564,-66.033104,7.819293,-7.986928,-0.573559,-1.557813,7.527365,0.997743,-0.004102,-0.013893,0.065567
513,0.712024,0.064005,6.742457,-39.397854,8.363391,-21.022938,-2.142527,-1.516468,7.040970,0.997866,-0.017847,-0.014354,0.061142
514,-0.111178,-0.137795,5.325826,-4.565109,6.818716,-25.600712,-2.811227,-1.338913,6.255709,0.998157,-0.023855,-0.013001,0.054258
515,0.147758,-0.994462,4.744832,20.238253,5.307094,-21.677488,-2.741538,-1.115871,5.463680,0.998541,-0.023430,-0.010864,0.047413
516,-0.095213,-1.719754,3.288736,42.809105,4.692651,-23.989075,-2.503580,-0.932198,4.712923,0.998890,-0.021493,-0.009024,0.040928
517,-0.035987,-1.817829,2.977215,59.102203,3.414886,-22.826044,-2.088367,-0.731414,3.951387,0.999223,-0.017992,-0.007006,0.034353
518,-0.036190,-1.879521,2.925659,62.002499,3.569654,-15.808079,-1.484636,-0.568890,3.325602,0.999485,-0.012806,-0.005338,0.028950
519,-0.085323,-2.090734,4.468294,51.723045,4.266155,-9.116725,-0.888806,-0.378350,2.923277,0.999640,-0.007669,-0.003498,0.025481
520,-0.570588,-1.171622,5.720813,45.226437,4.438919,-7.053567,-0.109611,-0.049157,2.661564,0.999730,-0.000946,-0.000451,0.023224
521,-0.349977,0.396728,8.082764,29.684500,3.418665,2.196633,0.947056,0.294270,2.587145,0.999708,0.008204,0.002754,0.022553
522,-0.167965,0.621189,10.226389,10.459200,1.566985,8.388840,1.753115,0.453098,2.768058,0.999585,0.015198,0.004322,0.024090
523,-0.537108,1.766218,11.971053,-5.200611,-0.976048,12.189918,2.072196,0.520499,3.113287,0.999459,0.017952,0.005031,0.027078
524,-0.093153,2.051060,13.096827,-14.836524,-2.676961,15.098344,2.077991,0.492924,3.568716,0.999344,0.017990,0.004863,0.031055
525,0.086904,2.073595,13.858845,-23.267006,-5.812976,16.915760,1.777236,0.309895,4.100231,0.999238,0.015402,0.003257,0.035727
526,0.032864,1.794016,14.274972,-29.791971,-7.185103,14.968711,1.189334,0.047806,4.628236,0.999131,0.010353,0.000836,0.040371
527,0.340549,1.611442,13.965987,-27.782684,-7.596045,15.386834,0.497850,-0.252399,5.131798,0.998985,0.004439,-0.002006,0.044777
528,0.827594,1.071053,13.810152,-29.664875,-7.844395,12.646282,-0.230468,-0.625913,5.599095,0.998790,-0.001742,-0.005554,0.048830
529,0.797048,0.364247,13.401659,-31.035257,-6.623614,6.496799,-1.104101,-1.011527,5.922112,0.998584,-0.009166,-0.009313,0.051568
531,0.550088,-0.129289,12.892460,-25.845005,-3.687259,1.255228,-1.997058,-1.284455,6.057315,0.998399,-0.016809,-0.012112,0.052629
532,0.783505,-0.762573,12.879374,-22.472925,-0.827054,-1.872939,-2.823726,-1.450266,6.052186,0.998239,-0.023935,-0.013935,0.052459
533,0.529408,-1.101781,13.354551,-19.885773,1.705231,-6.583480,-3.608082,-1.518409,5.913970,0.998107,-0.030753,-0.014850,0.051140
534,0.302362,-1.384235,13.630415,-12.952989,5.030080,-7.718748,-4.251160,-1.436420,5.671638,0.998033,-0.036422,-0.014346,0.048972
535,0.311155,-1.786136,14.074358,-5.306343,6.756008,-6.491863,-4.678918,-1.248038,5.423633,0.998010,-0.040257,-0.012801,0.046826
536,0.325458,-1.567487,13.945532,-0.920485,7.873007,-7.530989,-4.895567,-1.022054,5.173255,0.998047,-0.042262,-0.010829,0.044706
537,-0.031100,-1.978195,13.295693,5.705285,7.217123,-7.289845,-4.944110,-0.765741,4.908196,0.998143,-0.042806,-0.008517,0.042490
538,0.011578,-1.405005,12.164217,10.326011,6.488194,-9.049174,-4.803938,-0.514618,4.619690,0.998307,-0.041695,-0.006172,0.040080
539,-0.074842,-1.557455,10.951473,10.304941,4.997765,-10.439248,-4.580901,-0.309951,4.281870,0.998504,-0.039836,-0.004194,0.037220
540,-0.189241,-1.229949,10.035949,9.819800,3.994274,-12.808952,-4.386228,-0.133842,3.885107,0.998694,-0.038206,-0.002464,0.033828
541,-0.422149,-1.289011,9.693731,5.594640,1.833031,-12.662381,-4.268605,0.030617,3.455223,0.998852,-0.037233,-0.000856,0.030137
542,-0.330939,-0.917684,9.585827,-1.402823,-0.236517,-11.850500,-4.308909,0.139978,3.046037,0.998938,-0.037613,0.000221,0.026606
543,-0.202298,-1.429415,10.090885,-4.816030,-2.254586,-9.492893,-4.537077,0.144395,2.694114,0.998938,-0.039602,0.000328,0.023540
544,-0.108776,-1.531181,10.652674,2.100669,-3.919012,-5.041746,-4.767411,0.057774,2.460333,0.998904,-0.041593,-0.000389,0.021471
545,-0.026515,-2.085756,11.165908,15.332659,-5.978884,1.589932,-4.712851,-0.098556,2.416138,0.998933,-0.041089,-0.001726,0.021030
546,-0.266973,-1.295175,11.393958,46.371140,-6.771989,8.255203,-3.874320,-0.260418,2.595772,0.999171,-0.033743,-0.003036,0.022561
547,0.049915,-0.907020,11.903828,63.138969,-6.115479,10.414420,-2.107581,-0.422409,2.918332,0.999502,-0.018291,-0.004153,0.025392
548,0.100098,0.082202,11.338600,75.459801,-4.658236,12.906251,0.249083,-0.597304,3.309244,0.999567,0.002323,-0.005147,0.028885
549,0.080272,1.393601,10.329951,72.791916,-3.348975,12.538478,2.962048,-0.740773,3.726287,0.999111,0.026042,-0.005619,0.032668
550,-0.044022,3.120538,9.112258,55.953014,-0.614238,9.027241,5.680151,-0.805491,4.072933,0.998104,0.049765,-0.005255,0.035839
551,0.288711,2.856442,8.066443,18.779667,1.221400,6.695545,7.656378,-0.830430,4.324614,0.997014,0.066988,-0.004706,0.038129
552,-0.043654,3.404011,6.215209,-5.678456,2.394814,5.000110,8.728203,-0.798381,4.513098,0.996282,0.076307,-0.003945,0.039789
553,0.187235,3.192139,5.582676,-39.267521,3.455363,2.556957,9.005796,-0.716085,4.638094,0.996058,0.078696,-0.003048,0.040828
554,0.196994,3.201160,5.851673,-67.929703,3.247337,0.524369,8.214363,-0.661614,4.692466,0.996562,0.071797,-0.002822,0.041245
555,0.767623,2.525636,6.256198,-85.678688,2.082872,1.704059,6.474690,-0.749606,4.733545,0.997516,0.056693,-0.004193,0.041599
556,1.059604,1.984675,6.930703,-89.249733,1.475265,-1.756386,4.132595,-1.026454,4.741571,0.998441,0.036394,-0.007452,0.041660
557,1.054634,1.730930,7.548297,-85.073349,1.987457,-7.389836,1.681896,-1.318291,4.600451,0.999014,0.015126,-0.010904,0.040297
558,0.844847,1.120117,7.651234,-61.025524,1.535924,-10.504169,-0.363505,-1.545976,4.307936,0.999199,-0.002663,-0.013600,0.037539
559,0.578984,0.128417,7.068745,-26.043217,2.130547,-14.343413,-1.602964,-1.692360,3.894562,0.999223,-0.013477,-0.015233,0.033766
560,0.162342,-0.421515,6.040246,9.208467,2.999579,-19.127184,-1.891829,-1.697212,3.336857,0.999337,-0.016069,-0.015283,0.028864
561,0.062713,-0.832064,4.209807,35.228691,3.828402,-21.342735,-1.423065,-1.576875,2.667909,0.999561,-0.012093,-0.014045,0.023105
562,-0.095800,-1.968999,3.905555,55.000828,3.910148,-16.908136,-0.747068,-1.371590,2.052393,0.999748,-0.006303,-0.012084,0.017830
563,-0.085759,-1.864546,3.717149,65.024460,4.189133,-14.873734,0.026226,-1.112942,1.555071,0.999861,0.000361,-0.009708,0.013572
564,-0.404440,-2.536583,3.816807,63.652237,4.031003,-7.928937,0.761104,-0.763997,1.208619,0.999900,0.006712,-0.006597,0.010591
565,-0.260380,-1.738036,5.166101,52.982529,1.628499,-1.527476,1.441741,-0.431629,1.077280,0.999869,0.012616,-0.003648,0.009447
566,-0.511049,-1.200878,7.442735,39.127380,-0.296806,4.579322,2.239214,-0.217092,1.140022,0.999757,0.019557,-0.001700,0.009984
567,-0.721563,0.339608,8.880991,25.795782,-1.744149,8.487164,3.056360,-0.032100,1.361129,0.999574,0.026670,0.000037,0.011881
568,-0.440937,0.735259,10.411564,8.310436,-3.933553,12.201184,3.648038,0.036000,1.702538,0.999383,0.031822,0.000787,0.014839
569,-0.153237,1.861509,11.966710,-4.485957,-5.098577,12.257601,3.865731,-0.061895,2.100467,0.999263,0.033733,0.000078,0.018337
570,-0.046934,1.763037,12.920959,-11.609756,-4.809937,12.745881,3.823511,-0.230494,2.505315,0.999201,0.033396,-0.001281,0.021916
571,0.401558,1.919067,13.648492,-16.345737,-3.946557,11.294740,3.557227,-0.430927,2.895414,0.999189,0.031123,-0.002973,0.025369
572,0.761247,1.698103,13.789291,-17.807190,-4.416050,9.478945,3.175408,-0.693838,3.232342,0.999195,0.027866,-0.005269,0.028360
573,0.683990,1.634474,13.737908,-19.442743,-2.683809,6.854407,2.727157,-0.946976,3.497298,0.999211,0.024037,-0.007532,0.030702
574,0.788335,1.328151,13.700871,-22.290047,-1.659504,5.067583,2.188244,-1.139434,3.691543,0.999243,0.019404,-0.009321,0.032392
575,0.726375,0.523877,13.117788,-23.040075,0.718325,0.044272,1.503526,-1.266693,3.776285,0.999305,0.013477,-0.010615,0.033088
576,0.360519,0.370100,12.555631,-23.998285,2.811294,-3.173884,0.727749,-1.266686,3.726321,0.999388,0.006706,-0.010841,0.032580
577,0.380228,-0.268486,12.264296,-24.190998,4.829872,-5.328476,-0.117305,-1.160562,3.586815,0.999459,-0.000706,-0.010155,0.031284
578,-0.026205,-0.782644,11.940838,-18.154318,5.011650,-5.131601,-0.960020,-0.978705,3.413991,0.999487,-0.008119,-0.008786,0.029715
579,0.035675,-1.028228,11.597293,-12.594253,4.966393,-5.624435,-1.663057,-0.764383,3.233976,0.999477,-0.014318,-0.007077,0.028118
580,-0.201360,-0.887599,11.365036,-8.901713,4.587081,-3.300407,-2.192131,-0.545749,3.082132,0.999447,-0.018994,-0.005274,0.026797
581,-0.192515,-1.102959,10.960569,-4.185139,3.249673,1.497148,-2.568824,-0.333496,3.047910,0.999393,-0.022330,-0.003505,0.026523
582,-0.039988,-1.300023,10.566621,-0.341804,2.383471,4.710782,-2.844585,-0.182612,3.147954,0.999315,-0.024768,-0.002274,0.027420
583,0.047440,-1.231940,10.239318,1.014156,1.718283,6.128382,-3.045186,-0.093481,3.325718,0.999226,-0.026536,-0.001586,0.028986
584,0.144346,-1.143339,9.890810,3.026193,1.547114,7.289602,-3.196677,-0.053619,3.546602,0.999133,-0.027865,-0.001331,0.030920
585,0.179073,-0.909939,9.667123,4.159572,0.713378,7.417751,-3.268040,-0.060216,3.789557,0.999047,-0.028482,-0.001468,0.033036
586,0.108981,-0.789113,9.594353,3.357257,0.393931,6.224448,-3.263505,-0.081950,4.015654,0.998981,-0.028433,-0.001712,0.035001
587,0.094353,-0.504468,9.513048,2.302422,0.093006,5.038786,-3.211547,-0.095008,4.202641,0.998936,-0.027973,-0.001856,0.036629
588,0.026993,-0.407269,9.517022,-0.561494,-0.241309,4.840408,-3.158087,-0.102184,4.367118,0.998895,-0.027502,-0.001941,0.038062
589,-0.049736,-0.183666,9.565840,-2.951742,-0.140482,3.964531,-3.129266,-0.088818,4.513843,0.998852,-0.027253,-0.001849,0.039345
590,0.097890,-0.173425,9.764551,-5.227210,0.520256,2.910116,-3.144366,-0.075042,4.627702,0.998809,-0.027388,-0.001762,0.040340
591,0.237540,-0.096100,9.806550,-5.604466,0.850933,0.395365,-3.207667,-0.094093,4.681300,0.998775,-0.027932,-0.001963,0.040802
592,0.290900,-0.084625,9.938960,-9.002903,1.904625,-3.082262,-3.318568,-0.123147,4.633882,0.998764,-0.028889,-0.002244,0.040379
593,0.434120,-0.106453,9.988605,-11.464392,3.019092,-6.210468,-3.523769,-0.149132,4.474389,0.998766,-0.030672,-0.002500,0.038978
594,0.427665,-0.300255,9.951826,-14.057339,4.437036,-9.718643,-3.835946,-0.159006,4.201745,0.998769,-0.033395,-0.002613,0.036592
595,0.198833,-0.385872,9.781340,-16.862675,5.505883,-12.712563,-4.266174,-0.102975,3.817558,0.998753,-0.037170,-0.002137,0.033252
596,0.130134,-0.545007,9.780103,-20.585270,6.649912,-12.892653,-4.823734,0.023605,3.376418,0.998680,-0.042070,-0.001034,0.029443
597,-0.095830,-0.730309,9.761734,-21.129618,7.118341,-11.778728,-5.479349,0.212066,2.946469,0.998523,-0.047830,0.000619,0.025769
598,-0.188034,-0.933345,9.788250,-21.053175,7.642087,-10.336697,-6.170290,0.454807,2.554569,0.998290,-0.053894,0.002763,0.022472
599,-0.111627,-1.097961,9.788333,-21.097481,6.896178,-8.163753,-6.881088,0.687342,2.220266,0.997985,-0.060116,0.004824,0.019699
600,0.004380,-1.256635,9.916009,-19.583902,5.319768,-5.923712,-7.576822,0.846690,1.961500,0.997633,-0.066187,0.006241,0.017567
601,-0.088962,-1.376320,10.016540,-17.116629,3.993478,-5.040235,-8.206325,0.948875,1.759223,0.997276,-0.071668,0.007160,0.015904
602,-0.025760,-1.466159,10.045130,-15.100968,1.914884,-4.539773,-8.754803,0.994062,1.586852,0.996941,-0.076435,0.007592,0.014469
603,-0.018905,-1.487424,10.030844,-13.220971,0.412956,-4.034753,-9.223749,0.967785,1.439983,0.996639,-0.080502,0.007407,0.013204
604,-0.096777,-1.526031,9.998070,-11.056993,-0.406790,-4.512415,-9.609015,0.911918,1.300021,0.996383,-0.083838,0.006979,0.011971
605,-0.155132,-1.505834,9.831032,-10.978811,-0.390114,-4.077538,-9.942272,0.863618,1.161850,0.996152,-0.086723,0.006629,0.010753
606,0.057252,-1.472325,9.628989,-12.992495,-0.974844,-3.451953,-10.289783,0.788726,1.043232,0.995901,-0.089731,0.006039,0.009684
607,0.213344,-1.545416,9.803828,-18.271551,-1.375431,-2.536531,-10.747458,0.651482,0.953631,0.995550,-0.093694,0.004881,0.008818
608,0.180550,-1.738218,9.985521,-23.491192,-1.806651,-2.326114,-11.389050,0.491547,0.885904,0.995023,-0.099254,0.003501,0.008118
609,0.165299,-1.842570,10.169254,-29.113731,-2.152266,-2.449857,-12.216433,0.333678,0.823073,0.994291,-0.106424,0.002131,0.007452
610,0.222017,-2.338410,10.308330,-33.134403,-3.030393,-2.942879,-13.240265,0.156024,0.755826,0.993309,-0.115292,0.000592,0.006709
611,0.091886,-2.970238,10.146572,-34.552895,-3.421565,-2.726319,-14.459310,-0.025735,0.690811,0.992032,-0.125843,-0.000981,0.005952
612,0.062266,-3.344002,9.712615,-33.872711,-2.548972,-3.889133,-15.789639,-0.174965,0.610979,0.990508,-0.137345,-0.002245,0.005072
613,0.099601,-3.658215,9.222616,-33.005527,-2.063904,-6.869308,-17.162701,-0.317448,0.461876,0.988795,-0.149201,-0.003341,0.003572
614,0.211251,-4.099420,8.929235,-32.265728,-1.672061,-7.336324,-18.581676,-0.481967,0.257765,0.986872,-0.161435,-0.004514,0.001541
615,0.151699,-4.167215,8.679836,-31.938236,-1.174936,-9.307896,-20.012068,-0.651818,0.015126,0.984774,-0.173748,-0.005625,-0.000858
616,0.057369,-4.189806,8.838326,-31.158529,-0.616484,-12.339887,-21.369061,-0.809671,-0.308478,0.982631,-0.185415,-0.006444,-0.003955
617,0.016799,-4.200433,8.861232,-27.803831,-0.886345,-15.550317,-22.578388,-0.980799,-0.727675,0.980585,-0.195803,-0.007150,-0.007903
618,-0.134980,-4.168040,9.017707,-24.848139,-0.887309,-14.546002,-23.602907,-1.142541,-1.176232,0.978741,-0.204600,-0.007660,-0.012086
619,-0.246977,-4.092360,8.978143,-21.113455,-1.461592,-14.515042,-24.438137,-1.266981,-1.602849,0.977157,-0.211768,-0.007845,-0.016009
620,-0.321183,-4.030545,8.899169,-16.804449,-1.982154,-13.051094,-25.081734,-1.368262,-1.997430,0.975878,-0.217291,-0.007869,-0.019605
621,-0.123382,-3.985831,8.708525,-13.367925,-2.881256,-11.137038,-25.562361,-1.482515,-2.329014,0.974881,-0.221420,-0.008118,-0.022679
622,-0.193282,-3.947632,8.517496,-11.715051,-3.591256,-7.935143,-25.944260,-1.598605,-2.570189,0.974069,-0.224704,-0.008557,-0.024983
623,-0.028365,-4.008484,8.230944,-10.484986,-4.408151,-7.435688,-26.292418,-1.720235,-2.742774,0.973323,-0.227696,-0.009171,-0.026716
624,-0.153880,-3.931280,8.230535,-10.265067,-4.477339,-6.583735,-26.615253,-1.845395,-2.887249,0.972620,-0.230471,-0.009868,-0.028219
625,0.118573,-3.945615,8.519535,-9.962305,-4.026330,-5.373271,-26.885391,-1.966503,-3.004044,0.972021,-0.232796,-0.010592,-0.029478
626,0.240773,-3.797187,8.947142,-9.155204,-2.794516,-4.390432,-27.059338,-2.100045,-3.102564,0.971613,-0.234306,-0.011478,-0.030602
627,0.417030,-3.847286,9.515130,-7.556859,-0.706945,-4.028822,-27.111065,-2.208179,-3.209019,0.971455,-0.234777,-0.012163,-0.031730
628,0.476294,-3.782113,10.043612,-5.187277,1.453685,-3.443031,-27.031458,-2.268286,-3.336524,0.971569,-0.234128,-0.012434,-0.032925
629,0.675827,-3.875845,10.193260,-3.131749,3.281436,-3.536407,-26.848204,-2.291519,-3.488550,0.971892,-0.232595,-0.012375,-0.034241
630,0.612466,-3.949041,9.981523,-1.459531,4.237735,-3.405537,-26.632217,-2.288482,-3.659982,0.972277,-0.230781,-0.012069,-0.035666
631,0.479744,-3.942270,9.592165,-0.894083,4.342765,-2.954100,-26.426786,-2.241592,-3.828515,0.972647,-0.229043,-0.011398,-0.036982
632,0.400003,-3.899011,9.115235,-1.793749,3.291337,-1.216199,-26.251034,-2.169960,-3.955950,0.972972,-0.227546,-0.010593,-0.037905
634,0.421867,-4.036941,8.798309,-3.455386,1.846195,1.440321,-26.174938,-2.104748,-3.996750,0.973124,-0.226886,-0.009984,-0.038116
635,0.529496,-4.171348,8.704415,-4.542696,0.619032,3.822106,-26.242773,-2.065902,-3.938724,0.973017,-0.227447,-0.009746,-0.037552
636,0.551336,-4.317160,8.781189,-6.127974,-0.142894,5.320317,-26.409609,-2.046068,-3.806071,0.972732,-0.228847,-0.009788,-0.036401
637,0.524728,-4.594670,8.863777,-6.563093,-0.393625,6.017438,-26.650482,-2.022703,-3.631886,0.972308,-0.230871,-0.009864,-0.034897
638,0.598559,-4.767046,8.927095,-5.434518,-0.160687,5.776100,-26.917759,-2.000489,-3.449740,0.971826,-0.233118,-0.009965,-0.033330
639,0.599859,-4.726846,8.930640,-2.830368,0.413961,5.037261,-27.121601,-1.983837,-3.288611,0.971459,-0.234828,-0.010095,-0.031948
640,0.526384,-4.630289,8.824365,1.905673,0.675793,4.733298,-27.184860,-1.962968,-3.150254,0.971372,-0.235348,-0.010184,-0.030738
641,0.507067,-4.502753,8.757079,9.922688,1.064301,4.325574,-27.011559,-1.935915,-3.028362,0.971764,-0.233863,-0.010250,-0.029634
642,0.533298,-4.221596,8.748825,21.800795,1.211758,3.666080,-26.455835,-1.905199,-2.927831,0.972918,-0.229132,-0.010334,-0.028669
643,0.449355,-3.923568,8.741426,38.127552,0.486514,4.163280,-25.372211,-1.872506,-2.826469,0.975072,-0.219907,-0.010521,-0.027645
644,0.582944,-3.539441,8.718492,58.936455,-0.397530,3.227581,-23.619572,-1.881452,-2.720802,0.978345,-0.204959,-0.011208,-0.026595
645,0.672047,-2.797952,8.558834,78.963364,-0.749391,-0.383243,-21.104609,-1.982746,-2.680074,0.982598,-0.183453,-0.012723,-0.026155
646,0.516149,-2.113479,8.489097,89.762428,-1.285828,-1.523575,-17.978840,-2.120363,-2.714223,0.987203,-0.156614,-0.014570,-0.026279
647,0.378825,-1.691366,8.700838,93.010056,-2.110195,-1.107269,-14.583026,-2.229961,-2.756469,0.991379,-0.127321,-0.016244,-0.026322
648,0.350101,-1.204469,9.112385,90.898621,-2.920498,-3.388680,-11.169058,-2.335023,-2.825035,0.994696,-0.097764,-0.017874,-0.026511
649,0.133610,-0.843459,9.628064,80.737724,-3.591493,-2.705116,-7.978294,-2.419579,-2.918875,0.996994,-0.070066,-0.019284,-0.026870
650,-0.245644,-0.939978,10.286341,68.645470,-5.206122,2.716611,-5.268760,-2.431987,-2.905960,0.998372,-0.046475,-0.020027,-0.026299
651,0.011656,-0.511869,10.628743,62.578175,-5.900414,5.469511,-2.957829,-2.452073,-2.754952,0.999136,-0.026310,-0.020763,-0.024578
652,0.192776,-0.209450,10.726279,55.881973,-6.132932,8.139907,-0.885936,-2.549618,-2.521463,0.999477,-0.008217,-0.022072,-0.022168
653,0.021134,0.184715,10.405325,48.265488,-6.183850,11.268041,0.928019,-2.658083,-2.198812,0.999518,0.007650,-0.023344,-0.018993
654,0.208344,0.723375,9.976790,42.518608,-4.603544,14.199288,2.548906,-2.752680,-1.782320,0.999352,0.021859,-0.024356,-0.015011
655,0.423880,1.242040,9.557371,34.204327,-3.582283,13.236324,4.006981,-2.872241,-1.341125,0.999017,0.034654,-0.025454,-0.010816
656,0.349572,1.110763,9.628631,22.087280,-3.134935,11.411212,5.110053,-2.990465,-0.948594,0.998641,0.044346,-0.026436,-0.007104
657,0.433431,1.213869,9.648228,19.485207,-2.235861,9.219900,5.901052,-3.081137,-0.619771,0.998306,0.051309,-0.027127,-0.004016
658,0.653314,1.283209,9.507813,16.853943,-1.857530,6.821107,6.588639,-3.187495,-0.366058,0.997961,0.057354,-0.027950,-0.001590
659,0.660385,1.134945,9.776526,8.498431,-2.662114,1.855767,7.049181,-3.321581,-0.233985,0.997691,0.061392,-0.029053,-0.000255
660,0.916074,0.977888,10.224861,5.154747,-1.719745,-1.638500,7.238558,-3.460659,-0.237421,0.997552,0.063035,-0.030266,-0.000161
661,0.804149,0.979485,9.956035,6.646170,-1.432155,-3.957750,7.347841,-3.583257,-0.331414,0.997459,0.063956,-0.031386,-0.000881
662,0.635837,0.986861,9.804143,-1.034748,-0.999189,-6.476945,7.358651,-3.641838,-0.503770,0.997434,0.064000,-0.031992,-0.002346
663,0.629281,0.837466,10.284575,-6.793136,-0.092771,-7.363442,7.135264,-3.629923,-0.728543,0.997554,0.061993,-0.032005,-0.004371
664,0.403833,0.770106,10.119409,-3.142963,0.203641,-5.854261,6.846174,-3.563979,-0.938794,0.997715,0.059423,-0.031529,-0.006317
665,0.125337,0.849019,9.777487,-3.116660,-0.092870,-3.986583,6.634992,-3.438440,-1.094724,0.997846,0.057554,-0.030502,-0.007797
666,0.200313,0.861699,9.991263,-5.484265,-0.143473,-1.604709,6.407262,-3.303732,-1.182901,0.997986,0.055561,-0.029357,-0.008691
667,0.271668,0.863447,10.047142,-3.205331,-1.045809,0.743621,6.183262,-3.220618,-1.195114,0.998112,0.053616,-0.028621,-0.008894
668,0.345564,0.876367,9.808412,-1.579427,-1.463069,2.402251,6.027481,-3.183474,-1.143480,0.998197,0.052276,-0.028262,-0.008501
669,0.516700,0.854275,9.961835,-3.371595,-1.482427,2.165723,5.867541,-3.192379,-1.068811,0.998272,0.050900,-0.028295,-0.007886
670,0.576228,0.820640,10.016255,-1.374828,-1.624283,1.511132,5.718161,-3.244817,-1.009297,0.998329,0.049609,-0.028715,-0.007381
671,0.537693,0.861599,9.936291,2.404340,-1.589152,1.038123,5.678196,-3.299287,-0.969202,0.998335,0.049266,-0.029170,-0.007018
672,0.466418,0.930961,9.897119,4.225941,-1.233354,1.317362,5.751139,-3.324298,-0.932745,0.998299,0.049909,-0.029377,-0.006671
673,0.337345,0.918620,10.018200,4.419505,-0.498831,2.539587,5.868722,-3.304017,-0.870214,0.998256,0.050950,-0.029179,-0.006105
674,0.200161,0.870896,9.907491,5.057002,0.266544,5.086285,5.985492,-3.232143,-0.741878,0.998228,0.052005,-0.028501,-0.004990
675,0.231400,0.830881,9.891400,3.680013,1.233622,8.492064,6.057811,-3.114057,-0.510232,0.998231,0.052699,-0.027369,-0.003009
676,0.274074,0.797361,9.874057,1.919748,2.176258,11.682701,6.045430,-2.978805,-0.164511,0.998272,0.052677,-0.026032,-0.000063
677,0.346317,0.735583,9.879368,0.339490,2.944553,13.948671,5.968141,-2.863252,0.274673,0.998326,0.052102,-0.024825,0.003694
678,0.472027,0.743358,9.814511,0.056340,3.080636,15.053456,5.864840,-2.785861,0.770699,0.998365,0.051305,-0.023932,0.007958
679,0.565635,0.803863,9.857039,0.167024,2.662443,14.511797,5.773381,-2.749888,1.274691,0.998368,0.050610,-0.023403,0.012315
680,0.627397,0.865016,9.913087,0.779950,1.996808,12.346565,5.717658,-2.751114,1.730803,0.998336,0.050217,-0.023220,0.016278
681,0.636079,0.942773,9.891011,2.386464,1.427123,9.618277,5.723786,-2.782706,2.102569,0.998268,0.050351,-0.023331,0.019531
682,0.651276,1.034276,9.920356,2.514627,0.640653,6.140756,5.790960,-2.836999,2.367692,0.998178,0.050999,-0.023675,0.021878
683,0.640128,1.044353,9.944351,2.342324,-0.019069,2.849381,5.877078,-2.894387,2.517291,0.998097,0.051790,-0.024091,0.023224
684,0.636599,0.947504,9.917520,1.853939,-0.521556,0.110397,5.935673,-2.954489,2.565892,0.998047,0.052322,-0.024580,0.023687
685,0.621581,0.840082,9.874358,-0.992408,-1.088135,-3.400685,5.903294,-3.022087,2.511047,0.998057,0.052040,-0.025200,0.023232
686,0.592939,0.864156,9.900775,-7.881019,-1.384470,-7.738828,5.706835,-3.075291,2.325038,0.998168,0.050297,-0.025785,0.021591
687,0.604283,0.697021,9.901370,-16.584017,-1.459437,-11.211781,5.251442,-3.112374,2.009259,0.998406,0.046263,-0.026322,0.018752
688,0.567907,0.521296,9.885695,-27.811224,-1.488569,-14.858674,4.437617,-3.139267,1.577028,0.998766,0.039074,-0.026836,0.014807
689,0.570453,0.401296,9.961697,-38.054321,-1.479486,-18.200388,3.261308,-3.159458,1.029347,0.999168,0.028692,-0.027300,0.009760
690,0.477982,0.287144,9.798330,-46.220474,-1.015543,-19.857492,1.799242,-3.167253,0.398126,0.999487,0.015791,-0.027578,0.003906
691,0.135358,0.161701,9.635994,-50.786648,0.077702,-18.008059,0.156860,-3.103974,-0.231639,0.999630,0.001314,-0.027087,-0.001984
692,0.338622,-0.092585,9.681487,-52.567795,0.870523,-15.262921,-1.574308,-3.008861,-0.787322,0.999535,-0.013913,-0.026157,-0.007228
693,0.183447,-0.350669,9.612394,-47.889606,-0.090057,-11.704432,-3.255170,-2.939821,-1.237830,0.999201,-0.028669,-0.025333,-0.011523
694,0.078768,-0.383334,9.553454,-32.654659,0.384075,-5.333652,-4.571770,-2.845089,-1.524890,0.998795,-0.040200,-0.024273,-0.014282
695,0.098317,-0.368382,9.896122,-2.722579,1.720635,6.522831,-5.056773,-2.671363,-1.515034,0.998654,-0.044406,-0.022702,-0.014233
696,0.722170,-0.792614,9.885776,33.093346,0.834460,16.825861,-4.475111,-2.558604,-1.134883,0.998931,-0.039252,-0.021921,-0.010765
697,0.283462,-0.668795,9.647970,52.781078,-0.833529,20.646751,-3.047440,-2.533364,-0.512294,0.999390,-0.026683,-0.021979,-0.005056
698,0.459831,-0.437567,9.865245,63.029446,0.234806,23.639095,-1.124675,-2.498266,0.225679,0.999713,-0.009769,-0.021818,0.001755
699,0.559659,-0.262740,9.844957,61.036617,-0.314749,22.419876,0.911284,-2.520447,0.993166,0.999687,0.008141,-0.021923,0.008839
700,0.640444,-0.129846,9.669336,43.695477,-1.819817,15.038999,2.576133,-2.625581,1.617587,0.999378,0.022794,-0.022585,0.014623
701,0.399153,0.272913,9.843327,19.321209,-1.882621,6.480113,3.542825,-2.730555,1.974990,0.999077,0.031309,-0.023279,0.017957
702,0.567729,0.451108,10.003105,11.295802,-0.805411,2.869807,3.989009,-2.795089,2.130439,0.998909,0.035240,-0.023724,0.019422
703,0.538316,0.618626,9.837695,9.027827,-0.582906,-0.148433,4.280541,-2.849667,2.176060,0.998796,0.037800,-0.024135,0.019898
704,0.494624,0.660247,9.851146,7.416171,-0.200014,-1.498855,4.528124,-2.872279,2.148929,0.998711,0.039955,-0.024298,0.019721
705,0.452577,0.704110,9.847629,6.373670,0.022848,-2.174832,4.731529,-2.862674,2.089052,0.998651,0.041714,-0.024201,0.019239
706,0.399224,0.813490,9.857733,5.422868,0.128403,-2.063453,4.916535,-2.827608,2.019605,0.998602,0.043306,-0.023891,0.018660
707,0.383082,0.869745,9.875023,4.891880,0.070806,-0.999918,5.094345,-2.780981,1.968914,0.998552,0.044839,-0.023475,0.018237
708,0.426796,0.928909,9.878088,5.264337,0.086374,0.001056,5.277552,-2.745774,1.952024,0.998489,0.046427,-0.023146,0.018114
709,0.458946,1.022611,9.824829,5.266122,0.257403,1.087491,5.478043,-2.729023,1.969466,0.998407,0.048175,-0.022961,0.018299
710,0.496394,1.009546,9.851688,3.873210,0.519847,2.117479,5.653708,-2.722668,2.022721,0.998325,0.049715,-0.022855,0.018796
711,0.503176,0.945664,9.868348,4.163185,0.794434,2.518804,5.788717,-2.716641,2.101631,0.998254,0.050906,-0.022745,0.019507
712,0.577261,0.967411,9.846265,5.302961,1.035330,2.489835,5.933474,-2.714961,2.188268,0.998174,0.052184,-0.022666,0.020290
713,0.573554,0.983922,9.820492,5.220464,1.123527,2.648567,6.094916,-2.718997,2.277690,0.998083,0.053609,-0.022631,0.021103
714,0.580504,0.944526,9.860354,4.284864,1.053026,2.261025,6.228421,-2.722863,2.363942,0.998002,0.054789,-0.022599,0.021882
715,0.552842,0.957221,9.854039,4.583620,0.921522,1.507263,6.340523,-2.724736,2.431530,0.997935,0.055779,-0.022561,0.022494
716,0.575480,0.989157,9.848832,3.606708,0.776293,0.872523,6.442886,-2.727946,2.475622,0.997875,0.056680,-0.022547,0.022899
717,0.517311,0.971771,9.868423,1.538656,0.734860,0.405636,6.485083,-2.729013,2.501636,0.997849,0.057052,-0.022535,0.023135
718,0.463239,0.968721,9.795269,-0.965938,0.765307,0.854292,6.438311,-2.714010,2.527965,0.997870,0.056647,-0.022400,0.023347
719,0.395254,0.859483,9.855144,-4.673052,0.838672,2.363449,6.277418,-2.681602,2.587319,0.997943,0.055252,-0.022122,0.023818
720,0.377798,0.737706,9.880537,-6.704923,0.848061,5.276456,5.995208,-2.644212,2.721044,0.998056,0.052813,-0.021794,0.024911
721,0.359271,0.677797,9.834550,-7.772557,0.585869,8.523644,5.641774,-2.617470,2.957087,0.998166,0.049773,-0.021535,0.026888
722,0.399726,0.603866,9.819550,-9.090472,0.000127,11.276440,5.241268,-2.617964,3.291483,0.998252,0.046347,-0.021498,0.029726
723,0.480510,0.519239,9.913999,-9.633265,-0.771953,12.631506,4.801810,-2.662313,3.692589,0.998303,0.042606,-0.021849,0.033154
