seq,ax,ay,az,wroll,wpitch,wyaw,roll,pitch,yaw,q0,q1,q2,q3
60,0.177568,-3.473113,8.886163,-10.906132,-2.451065,3.141451,-21.347799,-1.066235,0.416701,0.982655,-0.185176,-0.009817,0.001850
61,-0.197714,-7.405849,6.645282,-3.516076,-1.974976,2.763021,-24.340200,-0.821750,0.527864,0.977497,-0.210775,-0.007981,0.002991
62,-0.229108,-7.263363,6.466880,2.050500,-1.495835,2.669940,-30.038803,-0.338179,0.691054,0.965821,-0.259123,-0.004413,0.005060
63,-0.397380,-7.135208,6.429547,3.150692,-1.501939,3.638902,-35.391712,0.317457,0.807473,0.952650,-0.303974,0.000497,0.007555
64,-0.381881,-7.215138,6.592813,1.392826,-1.869687,4.078369,-39.269848,0.963142,0.898462,0.941768,-0.336066,0.005281,0.010208
65,-0.341556,-7.149079,6.744862,1.818559,-1.855953,4.128724,-41.806362,1.396478,0.991509,0.934043,-0.356849,0.008297,0.012430
66,-0.301635,-6.967135,6.775047,0.764144,-2.522783,3.980710,-43.274361,1.621556,1.102373,0.929351,-0.368800,0.009606,0.014158
67,-0.138866,-6.921373,6.935269,-1.718536,-2.956146,3.049895,-44.040710,1.579023,1.229858,0.926854,-0.375016,0.008750,0.015114
68,-0.106398,-6.865548,7.042494,-3.450461,-3.288797,0.927332,-44.369316,1.346617,1.344445,0.925792,-0.377668,0.006451,0.015300
69,-0.115927,-6.804668,7.070737,-2.966744,-2.448012,-1.028904,-44.451130,1.114181,1.411095,0.925543,-0.378318,0.004342,0.015076
70,-0.114095,-6.789394,7.035910,-2.875187,-1.494309,-2.798977,-44.454449,0.911060,1.413613,0.925554,-0.378331,0.002693,0.014426
71,-0.063521,-6.780109,6.976314,-3.186476,-0.432265,-3.844236,-44.481880,0.712335,1.358462,0.925490,-0.378537,0.001266,0.013325
72,-0.140673,-6.762995,6.853287,-4.184431,0.843409,-4.662133,-44.592602,0.576560,1.252941,0.925146,-0.379420,0.000507,0.012025
73,-0.137296,-6.764040,6.827322,-5.069468,2.000060,-4.555317,-44.776154,0.538873,1.110056,0.924554,-0.380898,0.000658,0.010748
74,-0.135810,-6.778946,6.821840,-6.722045,1.835260,-3.909851,-44.992424,0.535809,0.964646,0.923847,-0.382641,0.001099,0.009566
75,-0.078114,-6.888373,6.792776,-9.175732,1.202001,-3.415451,-45.303608,0.504637,0.842079,0.922816,-0.385146,0.001234,0.008478
76,-0.087309,-7.120493,6.793391,-10.501761,0.936490,-3.062962,-45.777477,0.445526,0.739744,0.921226,-0.388955,0.001071,0.007459
77,-0.025871,-7.192531,6.707792,-9.525169,0.413098,-2.048222,-46.338062,0.370634,0.662748,0.919321,-0.393454,0.000698,0.006590
78,-0.002088,-7.147319,6.599184,-8.991095,-0.012635,-1.002963,-46.863358,0.272917,0.621930,0.917514,-0.397660,0.000027,0.005927
79,0.018969,-7.211631,6.581400,-8.772887,0.110965,-0.044682,-47.329266,0.186956,0.608491,0.915893,-0.401384,-0.000637,0.005518
80,-0.011409,-7.266104,6.597123,-6.722045,0.088076,0.915125,-47.706112,0.149421,0.615834,0.914569,-0.404393,-0.000981,0.005442
81,-0.000022,-7.275829,6.589881,-3.992164,-0.137761,1.577377,-47.940540,0.152667,0.644351,0.913738,-0.406263,-0.001067,0.005679
82,0.010545,-7.277894,6.548023,-2.003883,-0.670309,1.911555,-48.063793,0.143337,0.693318,0.913298,-0.407244,-0.001322,0.006035
83,0.042477,-7.354466,6.527934,-0.946417,-1.135716,1.578903,-48.169491,0.085846,0.754549,0.912921,-0.408083,-0.002003,0.006317
84,0.068089,-7.345348,6.547296,0.538309,-1.475998,0.893762,-48.237820,-0.028855,0.814483,0.912677,-0.408620,-0.003134,0.006384
85,0.115457,-7.264237,6.566885,1.235656,-1.431746,-0.279674,-48.177254,-0.204060,0.857351,0.912894,-0.408125,-0.004679,0.006103
86,0.110459,-7.177137,6.587559,1.208189,-1.321879,-0.926667,-47.993176,-0.395322,0.877331,0.913548,-0.406644,-0.006265,0.005591
87,0.125363,-7.204955,6.681042,1.430974,-0.906827,-1.343244,-47.741615,-0.552469,0.877912,0.914438,-0.404625,-0.007509,0.005055
88,0.093941,-7.192647,6.814804,3.155270,-0.525346,-1.801022,-47.394497,-0.650790,0.857510,0.915659,-0.401847,-0.008208,0.004570
89,0.061541,-7.136376,6.811795,4.369907,-0.560443,-2.113837,-46.967686,-0.670614,0.823346,0.917150,-0.398435,-0.008230,0.004258
90,0.001737,-7.121741,6.804651,4.414158,-0.871731,-1.845274,-46.591015,-0.607869,0.793555,0.918457,-0.395425,-0.007611,0.004263
91,-0.020898,-7.123452,6.804847,4.290558,-1.091465,-1.221170,-46.319988,-0.482133,0.781554,0.919392,-0.393261,-0.006551,0.004616
92,-0.007579,-7.103325,6.783712,4.296662,-1.422590,-0.001956,-46.139374,-0.358401,0.797989,0.920011,-0.391819,-0.005606,0.005181
93,0.016467,-7.036331,6.677107,4.331758,-1.855953,1.694873,-46.043850,-0.270957,0.857526,0.920334,-0.391055,-0.005103,0.005963
94,-0.012660,-7.015559,6.681591,4.572854,-2.254220,3.587021,-45.991081,-0.174237,0.968559,0.920506,-0.390633,-0.004702,0.007187
95,-0.065157,-7.033026,6.741292,5.633373,-3.040071,5.575302,-45.897930,-0.005414,1.138606,0.920807,-0.389891,-0.003918,0.009131
96,-0.011527,-6.981461,6.745880,6.806809,-4.099064,6.855553,-45.731300,0.144324,1.368672,0.921346,-0.388557,-0.003481,0.011494
98,-0.066862,-6.915308,6.923427,5.319032,-4.614826,6.892174,-45.437767,0.249074,1.633229,0.922303,-0.386198,-0.003500,0.013986
99,-0.075507,-6.867891,7.055953,3.841936,-4.773523,6.161257,-45.020172,0.351557,1.898890,0.923662,-0.382839,-0.003510,0.016482
100,-0.012576,-6.766241,7.175793,2.503700,-4.427138,5.202976,-44.524387,0.364289,2.143624,0.925271,-0.378832,-0.004145,0.018515
101,0.091942,-6.664495,7.227943,1.131893,-3.642812,3.551925,-43.989677,0.212597,2.344047,0.927008,-0.374479,-0.005941,0.019660
102,0.088668,-6.546865,7.300032,-0.384876,-2.571613,1.047881,-43.450611,-0.026730,2.471713,0.928755,-0.370066,-0.008200,0.019950
103,0.134925,-6.520895,7.343227,-0.409291,-1.869687,-1.282207,-42.937744,-0.282254,2.518623,0.930409,-0.365856,-0.010335,0.019551
104,0.168964,-6.553934,7.436588,-0.235336,-1.300517,-3.555837,-42.496105,-0.569798,2.492524,0.931827,-0.362215,-0.012515,0.018469
105,0.171519,-6.675504,7.436677,1.177670,-0.903776,-5.208414,-42.214760,-0.829343,2.406753,0.932732,-0.359886,-0.014313,0.016986
106,0.211534,-6.689938,7.358990,2.802781,0.226935,-6.714501,-42.093689,-1.051404,2.266302,0.933131,-0.358876,-0.015663,0.015161
107,0.201936,-6.785129,7.370003,4.017418,1.577379,-6.651939,-42.036251,-1.227627,2.081740,0.933329,-0.358402,-0.016513,0.013114
108,0.288287,-6.752081,7.197247,6.112513,2.880519,-5.417466,-42.068378,-1.377014,1.886814,0.933244,-0.358666,-0.017123,0.011054
109,0.283540,-6.570907,6.985979,6.660321,4.530045,-4.399673,-42.158817,-1.496837,1.689719,0.932971,-0.359412,-0.017489,0.009060
110,0.228229,-6.432590,6.995378,3.828203,6.643451,-2.983614,-42.179615,-1.471529,1.478443,0.932923,-0.359617,-0.016622,0.007416
111,0.134589,-6.378058,7.129599,0.570352,8.691243,-1.195230,-42.108791,-1.250052,1.255528,0.933171,-0.359100,-0.014116,0.006306
112,0.145724,-6.291423,7.359155,1.685803,10.649005,-1.515674,-41.872002,-0.935399,1.002171,0.933939,-0.357233,-0.010748,0.005251
113,0.022870,-6.230588,7.458850,9.007194,12.333626,-2.863066,-41.331703,-0.578539,0.687468,0.935637,-0.352878,-0.006841,0.003831
114,-0.202551,-6.396074,7.629393,17.604258,13.304116,-3.598562,-40.550674,-0.071819,0.324140,0.938035,-0.346529,-0.001568,0.002436
115,-0.252699,-6.422960,7.565403,24.518225,13.229345,-4.565998,-39.692661,0.506033,-0.061579,0.940598,-0.339493,0.004336,0.000994
116,-0.264302,-6.412555,7.621442,29.541571,13.189672,-5.586843,-38.813393,0.994208,-0.467207,0.943152,-0.332223,0.009538,-0.000963
117,-0.376335,-6.376747,7.419774,30.538000,12.318369,-3.333051,-38.044655,1.457086,-0.848185,0.945320,-0.325812,0.014433,-0.002853
118,-0.464837,-6.263115,7.333552,24.184048,11.161717,-0.456682,-37.572739,1.978746,-1.145274,0.946593,-0.321813,0.019564,-0.003900
119,-0.320334,-6.014310,7.335473,15.748732,9.989806,2.439525,-37.337231,2.404623,-1.345010,0.947191,-0.319768,0.023634,-0.004401
120,-0.359986,-5.812952,7.600353,11.932394,9.382487,4.809287,-37.065113,2.705493,-1.450620,0.947898,-0.317446,0.026404,-0.004496
121,-0.490056,-5.662026,7.670907,10.163845,6.699910,7.937433,-36.640350,3.046177,-1.438665,0.949010,-0.313874,0.029175,-0.003560
122,-0.413249,-5.626794,7.774283,9.283387,4.140934,8.068665,-36.147720,3.296307,-1.322778,0.950304,-0.309778,0.030920,-0.002047
123,-0.410640,-5.568239,7.836855,8.445654,2.538712,5.283849,-35.645935,3.326219,-1.197725,0.951647,-0.305643,0.030826,-0.001063
124,-0.488372,-5.587947,7.911648,7.525521,1.838312,1.876458,-35.234928,3.297421,-1.135913,0.952743,-0.302248,0.030420,-0.000736
125,-0.355364,-5.600892,7.826005,6.139980,0.974638,-1.479052,-35.014595,3.137866,-1.158581,0.953356,-0.300435,0.029150,-0.001402
126,-0.181383,-5.671422,7.697617,4.540811,1.601794,-6.156013,-35.027531,2.737322,-1.298160,0.953393,-0.300572,0.026185,-0.003613
127,-0.335774,-5.525656,7.610244,2.554055,3.382549,-9.819760,-35.153572,2.377960,-1.575548,0.953104,-0.301618,0.023931,-0.006838
128,-0.315147,-5.525036,7.643153,1.945211,4.475111,-9.249063,-35.258575,2.186162,-1.918185,0.952826,-0.302455,0.023247,-0.010173
129,-0.199713,-5.569890,7.603296,3.727492,4.789452,-7.967286,-35.343479,2.002799,-2.248238,0.952587,-0.303132,0.022603,-0.013385
130,-0.356943,-5.633184,7.467436,5.821062,4.681112,-6.775539,-35.459488,1.910251,-2.549497,0.952248,-0.304057,0.022647,-0.016112
131,-0.584281,-5.692611,7.411755,7.797135,4.267586,-4.193673,-35.615871,2.110428,-2.798082,0.951779,-0.305256,0.024994,-0.017611
132,-0.447142,-6.022321,7.504304,9.480229,2.993438,-1.033482,-35.957336,2.398134,-2.962939,0.950812,-0.307978,0.027876,-0.018129
133,-0.481974,-6.344397,7.577086,12.390171,1.841364,1.124177,-36.542648,2.590603,-3.048404,0.949193,-0.312755,0.029795,-0.018167
134,-0.603690,-6.316981,7.552641,15.388614,0.316964,2.999540,-36.944851,2.805602,-3.053351,0.948062,-0.316022,0.031651,-0.017508
135,-0.591153,-6.443930,7.470500,16.880968,-0.880887,4.351510,-37.121147,3.026854,-2.984293,0.947555,-0.317436,0.033315,-0.016273
136,-0.369541,-6.532000,7.536062,18.139858,-1.103672,3.312354,-37.293819,3.050780,-2.901388,0.947083,-0.318881,0.033306,-0.015471
137,-0.504983,-6.290578,7.428566,19.497931,-1.031954,1.411051,-37.338104,2.972611,-2.852720,0.946978,-0.319283,0.032531,-0.015274
138,-0.612012,-6.082705,7.491210,18.393160,-1.704887,-0.597067,-37.174519,3.002593,-2.838964,0.947430,-0.317926,0.032719,-0.015123
139,-0.654431,-6.217938,7.643192,16.571205,-2.531938,-1.776607,-36.960098,3.068132,-2.846745,0.948012,-0.316132,0.033254,-0.015067
140,-0.594596,-6.087568,7.869192,15.225340,-3.415449,-2.660118,-36.701897,3.059667,-2.860281,0.948722,-0.313994,0.033187,-0.015278
141,-0.710804,-5.762971,8.007073,13.891682,-4.532427,-2.101630,-36.196583,3.047394,-2.843533,0.950101,-0.309816,0.032972,-0.015318
142,-0.640785,-5.708988,8.165233,12.400853,-5.640249,-0.951082,-35.536007,3.049618,-2.771903,0.951881,-0.304353,0.032711,-0.014907
143,-0.525872,-5.658120,8.185636,11.811844,-5.191627,-1.053319,-34.916634,2.943719,-2.682503,0.953540,-0.299257,0.031516,-0.014618
144,-0.449942,-5.429741,8.233958,12.181118,-3.514635,-0.967867,-34.274349,2.769535,-2.615349,0.955237,-0.293971,0.029810,-0.014683
145,-0.473399,-4.969522,8.288856,13.456792,-2.603657,-0.430741,-33.361160,2.642398,-2.554708,0.957575,-0.286396,0.028478,-0.014732
146,-0.302522,-4.984674,8.453705,14.883533,-2.257272,0.509229,-32.270588,2.491083,-2.481580,0.960287,-0.277323,0.026892,-0.014757
147,-0.273722,-4.753188,8.560092,17.958273,-1.543138,0.123170,-31.115366,2.266379,-2.415263,0.963070,-0.267695,0.024699,-0.014996
148,-0.236272,-4.528767,8.748955,20.393650,-2.602131,1.729970,-29.776747,2.044523,-2.328738,0.966168,-0.256492,0.022459,-0.015052
149,-0.127757,-4.382867,8.813485,22.548256,-3.996826,1.852044,-28.349743,1.758504,-2.201263,0.969332,-0.244522,0.019579,-0.014864
150,0.173522,-4.689658,8.855095,23.227293,-3.891538,0.451244,-27.206802,1.255206,-2.099647,0.971773,-0.234951,0.014953,-0.015231
151,-0.030609,-4.501774,8.903974,23.376833,-3.329997,-1.689629,-26.346777,0.755643,-2.068624,0.973532,-0.227741,0.010533,-0.016073
152,-0.150726,-4.573453,9.070183,21.757826,-3.362042,-1.086889,-25.597153,0.536542,-2.063934,0.975005,-0.221404,0.008555,-0.016526
153,-0.130563,-4.808303,9.099896,20.102198,-2.441909,-1.378341,-25.166006,0.460110,-2.062309,0.975831,-0.217746,0.007839,-0.016689
154,-0.228286,-4.789852,9.228223,17.411991,-1.793390,-1.958192,-24.992733,0.471475,-2.086361,0.976156,-0.216267,0.007956,-0.016884
155,-0.459247,-4.640389,9.467822,14.477637,-1.692679,-2.760829,-24.799797,0.667678,-2.135319,0.976510,-0.214587,0.009691,-0.016947
156,-0.444782,-4.585478,9.492178,12.547340,-2.254220,-4.025821,-24.560465,0.937717,-2.211276,0.976938,-0.212492,0.012098,-0.017114
157,-0.378860,-4.504760,9.420161,11.109919,-2.577716,-6.998324,-24.366478,1.077155,-2.346720,0.977270,-0.210797,0.013508,-0.018032
158,-0.326503,-4.078107,9.274549,11.964437,-2.405287,-11.699699,-24.023048,1.064529,-2.596411,0.977856,-0.207840,0.013799,-0.020226
159,-0.413107,-3.936414,8.965245,13.229430,-1.436324,-16.027225,-23.515484,1.031738,-2.990309,0.978693,-0.203466,0.014128,-0.023710
160,-0.529660,-3.860772,8.780754,13.238585,0.059083,-16.619284,-23.073809,1.143246,-3.478420,0.979357,-0.199600,0.015840,-0.027741
161,-0.495275,-3.817228,8.755369,11.453254,0.435987,-13.134069,-22.742537,1.352975,-3.937291,0.979803,-0.196638,0.018341,-0.031349
162,-0.231234,-3.503917,8.818716,10.111965,0.484816,-9.078160,-22.332424,1.412006,-4.281948,0.980399,-0.193054,0.019314,-0.034264
163,-0.153889,-3.326119,9.004917,10.436986,1.111972,-3.976992,-21.612804,1.294143,-4.484477,0.981535,-0.186902,0.018420,-0.036312
164,-0.075857,-3.187592,9.198813,11.708081,0.687764,0.275763,-20.637241,1.121566,-4.540883,0.983077,-0.178591,0.016717,-0.037222
165,0.053076,-3.257240,9.323746,15.638866,-0.313243,1.981747,-19.709587,0.884808,-4.501414,0.984507,-0.170716,0.014323,-0.037371
166,0.297742,-2.947520,9.020543,19.626108,0.600787,-1.140296,-18.822407,0.483139,-4.489778,0.985801,-0.163229,0.010561,-0.037954
167,0.232905,-3.102381,8.936340,19.569649,2.312875,-2.930207,-18.040638,0.050229,-4.574203,0.986849,-0.156643,0.006689,-0.039345
168,0.050588,-3.182705,9.067459,14.668377,1.693349,-4.878813,-17.632311,-0.150727,-4.722276,0.987337,-0.153188,0.005015,-0.040913
169,0.027023,-3.199821,9.064059,8.648602,0.851039,-4.352369,-17.614918,-0.193621,-4.881565,0.987300,-0.153046,0.004852,-0.042343
170,-0.366051,-3.080193,9.003868,1.742263,-0.391065,-2.980563,-17.810076,0.014538,-4.999622,0.987007,-0.154644,0.006877,-0.043071
171,-0.721517,-3.309982,9.391395,-4.294297,-2.681479,2.598221,-18.139719,0.616021,-4.991990,0.986583,-0.157256,0.012169,-0.042158
172,-0.508212,-3.379985,9.500989,-7.541468,-5.873715,7.464397,-18.638313,1.172909,-4.794706,0.985956,-0.161361,0.016865,-0.039619
173,-0.342987,-3.339183,9.542572,-9.155895,-8.557817,8.921656,-19.118641,1.337336,-4.465079,0.985374,-0.165483,0.017968,-0.036475
174,-0.204027,-3.311061,9.691680,-9.100962,-9.903684,9.773123,-19.453562,1.207053,-4.071166,0.985011,-0.168465,0.016376,-0.033229
175,0.114815,-3.290772,9.826596,-7.294268,-8.905729,9.686144,-19.600231,0.816077,-3.657931,0.984919,-0.169896,0.012446,-0.030238
176,0.793175,-3.103230,9.962826,-3.920446,-6.799951,4.853539,-19.462246,-0.049405,-3.337442,0.985192,-0.168965,0.004497,-0.028774
177,-0.082313,-2.877225,9.619249,-0.482537,-4.498856,-3.818295,-19.026892,-0.685394,-3.259605,0.985802,-0.165377,-0.001196,-0.029038
178,0.048986,-3.292852,9.352074,-0.247544,0.536698,-4.976472,-18.794029,-0.703547,-3.377460,0.986104,-0.163379,-0.001243,-0.030076
179,-0.111078,-3.285880,9.287576,-2.432669,3.425275,-6.084294,-18.942595,-0.525720,-3.572078,0.985855,-0.164613,0.000606,-0.031497
180,0.029183,-3.410771,9.335840,-7.602504,3.197912,-6.766383,-19.289770,-0.320920,-3.809549,0.985301,-0.167540,0.002809,-0.033237
181,-0.350551,-3.713802,9.041295,-14.394398,2.778282,-4.170784,-20.072081,-0.015526,-4.014347,0.984093,-0.174165,0.005970,-0.034512
182,0.260302,-3.740606,9.402983,-20.983343,2.604327,-0.008060,-21.127773,0.135095,-4.113117,0.982425,-0.183172,0.007737,-0.035062
183,0.112517,-3.359615,9.282887,-22.654234,0.294075,1.156222,-21.893763,-0.037800,-4.110141,0.981170,-0.189788,0.006486,-0.035270
184,0.300435,-3.325579,9.140891,-22.530632,-0.629109,2.389169,-22.333754,-0.272721,-4.051175,0.980435,-0.193628,0.004512,-0.035137
185,0.413533,-3.121898,8.744208,-19.274307,-0.934294,4.707050,-22.573200,-0.652508,-3.931417,0.980029,-0.195790,0.001132,-0.034751
186,0.360086,-3.059063,8.671272,-14.347095,-1.364605,5.073272,-22.553917,-1.012252,-3.770402,0.980067,-0.195723,-0.002225,-0.033987
187,0.390098,-3.233982,8.605226,-9.227614,-1.848324,6.802146,-22.441549,-1.286964,-3.574595,0.980277,-0.194827,-0.004942,-0.032775
188,0.457457,-3.350877,8.783256,-4.845157,-2.278635,7.871820,-22.330971,-1.549094,-3.329674,0.980492,-0.193929,-0.007631,-0.031117
189,0.423937,-3.580907,8.985869,-0.920476,-2.449538,7.662766,-22.198706,-1.801913,-3.066417,0.980741,-0.192831,-0.010274,-0.029279
190,0.204728,-3.790476,9.193742,1.961996,-2.190131,6.660235,-22.136442,-1.828489,-2.817670,0.980902,-0.192280,-0.010935,-0.027188
191,0.252071,-3.869550,9.359150,3.588633,-2.510576,6.561049,-22.111145,-1.694752,-2.581954,0.981021,-0.192018,-0.010191,-0.024945
192,0.207027,-3.920991,9.332064,4.949758,-3.142308,6.329109,-22.076214,-1.608705,-2.344245,0.981143,-0.191685,-0.009859,-0.022763
193,0.012709,-3.902257,9.279208,5.192380,-3.149938,5.250279,-22.054155,-1.427486,-2.121787,0.981248,-0.191452,-0.008684,-0.020554
194,0.079218,-3.982430,9.079724,5.019951,-3.758782,5.575300,-22.179031,-1.183409,-1.904028,0.981107,-0.192474,-0.006937,-0.018290
195,-0.050281,-3.895694,9.071750,4.890247,-4.260812,5.817924,-22.376644,-0.909095,-1.670296,0.980837,-0.194121,-0.004954,-0.015837
196,-0.015212,-3.784101,8.988979,5.621165,-4.286752,4.452219,-22.406174,-0.645919,-1.454492,0.980836,-0.194339,-0.003063,-0.013545
197,-0.009580,-3.733135,8.971972,6.289521,-3.403241,4.215702,-22.294636,-0.482840,-1.270646,0.981055,-0.193365,-0.001990,-0.011694
198,0.169786,-3.736043,9.032231,6.445165,-2.559405,3.782339,-22.132122,-0.499148,-1.108920,0.981343,-0.191971,-0.002417,-0.010333
199,0.000619,-3.614342,9.141910,7.072320,-1.138768,0.732014,-21.856674,-0.530370,-1.016613,0.981808,-0.189612,-0.002862,-0.009588
201,0.194523,-3.644621,9.107902,6.977713,0.406994,-2.129096,-21.541277,-0.565095,-1.034352,0.982323,-0.186912,-0.003157,-0.009789
202,0.075028,-3.688049,9.098966,6.443639,1.572801,-3.130103,-21.379993,-0.630314,-1.127707,0.982573,-0.185536,-0.003579,-0.010690
203,0.090750,-3.677010,9.103563,5.653210,1.749808,-4.492754,-21.328543,-0.594663,-1.264607,0.982645,-0.185096,-0.003057,-0.011805
204,0.005659,-3.746599,9.120980,4.945181,1.173008,-5.045138,-21.365873,-0.518860,-1.428137,0.982571,-0.185413,-0.002139,-0.013086
205,0.117041,-3.604977,9.147856,4.247833,0.620623,-3.899169,-21.364058,-0.492232,-1.576361,0.982558,-0.185397,-0.001671,-0.014314
206,0.085093,-3.584106,9.242184,3.478766,-0.008058,-2.173347,-21.230957,-0.541108,-1.674404,0.982757,-0.184263,-0.001949,-0.015231
207,0.174333,-3.541233,9.203816,2.694440,-0.409376,-0.438370,-21.080458,-0.626109,-1.713018,0.982987,-0.182983,-0.002637,-0.015695
208,0.191032,-3.514572,9.310943,1.534737,-1.044161,-0.204904,-20.931679,-0.778577,-1.715447,0.983212,-0.181725,-0.003961,-0.015954
209,0.262265,-3.429841,9.232265,1.354678,-1.390546,1.353066,-20.757097,-0.972397,-1.685115,0.983475,-0.180248,-0.005697,-0.015992
210,0.238224,-3.617641,9.135745,0.371982,-1.823909,1.902399,-20.768858,-1.158348,-1.614739,0.983447,-0.180365,-0.007402,-0.015681
211,0.269444,-3.424798,9.031868,-0.639707,-1.990235,1.856621,-20.887470,-1.309556,-1.531359,0.983254,-0.181392,-0.008815,-0.015212
212,0.151774,-3.504375,9.159821,-2.029824,-2.121464,1.917658,-20.940014,-1.353354,-1.447918,0.983176,-0.181840,-0.009316,-0.014570
213,-0.026345,-3.444542,9.047394,-2.212935,-1.596546,1.026518,-21.005672,-1.136038,-1.380231,0.983105,-0.182379,-0.007551,-0.013649
214,0.031491,-3.337299,9.114711,-3.641201,-1.225746,0.828148,-21.001448,-0.872663,-1.336751,0.983141,-0.182318,-0.005361,-0.012857
215,-0.078618,-3.128864,9.216823,-4.465201,-1.256265,1.043303,-20.822582,-0.671714,-1.297622,0.983444,-0.180764,-0.003719,-0.012196
216,-0.124775,-3.313936,9.104712,-3.909765,-1.903257,0.692340,-20.655424,-0.436327,-1.255418,0.983725,-0.179307,-0.001782,-0.011460
217,-0.034744,-3.241844,8.980614,-5.716460,-2.228279,0.298652,-20.653248,-0.289500,-1.216971,0.983738,-0.179275,-0.000582,-0.010901
218,0.116829,-3.301924,9.080026,-7.979409,-2.213020,0.815940,-20.734129,-0.328030,-1.174421,0.983614,-0.179972,-0.000971,-0.010596
219,-0.105269,-3.392390,8.964140,-10.903080,-2.161138,-0.160652,-20.981565,-0.336866,-1.138690,0.983226,-0.182096,-0.001081,-0.010306
220,0.290125,-3.582119,8.724847,-13.335404,-1.318827,-0.424637,-21.518950,-0.441194,-1.126024,0.982358,-0.186713,-0.001948,-0.010372
221,0.256001,-3.538746,8.729548,-18.178692,-0.107243,-2.072637,-22.232538,-0.732744,-1.152118,0.981156,-0.192850,-0.004336,-0.011098
222,0.303210,-3.839334,8.111844,-21.241224,-0.711509,-0.713037,-23.253021,-0.994956,-1.181708,0.979375,-0.201601,-0.006426,-0.011850
223,0.634038,-3.939830,7.489300,-27.465475,-1.920042,-3.705377,-24.820757,-1.514191,-1.210772,0.976464,-0.215018,-0.010633,-0.013158
224,0.511486,-3.853913,7.038848,-33.982704,-1.437849,-3.098059,-26.677565,-2.155332,-1.253963,0.972745,-0.230854,-0.015775,-0.014984
225,0.388252,-4.177554,6.656338,-41.410908,-2.351879,-3.130103,-28.861179,-2.540006,-1.272349,0.968091,-0.249369,-0.018697,-0.016273
226,0.371538,-4.404067,6.444118,-47.548183,-2.187079,-1.318829,-31.432276,-2.728609,-1.247570,0.962215,-0.271028,-0.019970,-0.016926
227,0.438984,-4.258720,6.795905,-52.466236,-0.261361,-3.870177,-33.707726,-2.868156,-1.268343,0.956609,-0.290088,-0.020742,-0.017845
228,-0.067513,-4.677126,7.287053,-55.490623,2.503616,-0.848844,-35.464828,-2.590414,-1.359706,0.952097,-0.304728,-0.017915,-0.018183
229,0.105935,-5.074278,7.422714,-54.524712,3.475631,-1.993288,-37.081436,-2.016059,-1.481022,0.947800,-0.318118,-0.012569,-0.017845
230,0.310416,-5.435410,7.480529,-54.842102,4.855067,-0.638267,-38.680809,-1.733063,-1.618839,0.943295,-0.331311,-0.009590,-0.018336
231,0.387307,-6.035324,7.525620,-53.896027,5.094636,-1.544667,-40.385567,-1.675945,-1.756736,0.938249,-0.345313,-0.008433,-0.019434
232,0.197250,-6.503581,7.369141,-51.463703,3.623645,0.794577,-42.247288,-1.579006,-1.857681,0.932513,-0.360509,-0.007010,-0.020085
233,0.623239,-6.674199,6.997807,-46.995792,1.678090,1.485821,-44.130783,-1.647012,-1.881727,0.926446,-0.375794,-0.007150,-0.020615
234,0.536061,-6.996489,6.897441,-45.251659,0.910549,1.429362,-45.935200,-1.940391,-1.860131,0.920365,-0.390356,-0.009255,-0.021549
235,-0.160396,-6.937473,6.854180,-42.326462,0.126224,2.076354,-47.464111,-1.745298,-1.827816,0.915117,-0.402585,-0.007522,-0.020728
236,0.165057,-6.839138,6.439905,-40.451099,-1.068576,3.588547,-48.712101,-1.323902,-1.765834,0.910758,-0.412491,-0.004169,-0.018801
237,-0.118429,-6.893184,6.510201,-42.570610,-0.735924,2.624162,-49.815781,-0.987845,-1.687849,0.906801,-0.421215,-0.001615,-0.016988
238,-0.523685,-7.065393,6.253931,-44.169781,-0.795435,3.913569,-50.921970,-0.300616,-1.614958,0.902770,-0.429886,0.003690,-0.013852
239,-0.214114,-7.507276,6.293355,-45.715542,-2.928679,5.837760,-52.197594,0.358961,-1.481675,0.897975,-0.439845,0.008501,-0.010233
240,0.236549,-7.853894,6.322343,-42.338669,-3.236916,4.085998,-53.471489,0.413233,-1.304632,0.893046,-0.449807,0.008342,-0.008545
241,-0.134801,-7.880940,6.450511,-38.612358,-2.754723,2.074829,-54.439777,0.301855,-1.157849,0.889221,-0.457358,0.006964,-0.007780
242,0.007011,-8.521221,6.317927,-33.201427,-3.056857,3.403910,-55.259335,0.321362,-1.023499,0.885936,-0.463712,0.006627,-0.006613
243,0.327481,-8.467187,6.379770,-26.673517,-3.076694,0.985318,-55.931919,0.081030,-0.894327,0.883202,-0.468928,0.004284,-0.006561
244,-0.093488,-8.570326,6.293684,-19.220900,-0.615376,-0.677941,-56.249184,-0.115792,-0.836767,0.881897,-0.471384,0.002551,-0.006916
245,0.042297,-8.546407,6.297538,-16.675657,0.442091,-0.973970,-56.361759,-0.109241,-0.849877,0.881433,-0.472250,0.002662,-0.006988
246,-0.040330,-9.030317,6.189318,-14.023597,0.927335,-0.264415,-56.531193,-0.093046,-0.881017,0.880733,-0.473551,0.002926,-0.007156
247,0.196278,-8.691019,6.080149,-9.677761,2.167912,-2.748622,-56.696537,-0.171288,-0.952089,0.880040,-0.474824,0.002630,-0.008022
248,-0.089761,-8.976505,6.163833,-6.950933,3.321512,-2.065007,-56.705299,-0.220396,-1.073077,0.879993,-0.474891,0.002755,-0.009154
249,0.265804,-8.785700,6.013307,-5.084727,2.808801,-1.907837,-56.678795,-0.276238,-1.195616,0.880089,-0.474688,0.002831,-0.010327
250,0.029652,-8.874977,5.838598,-3.064402,2.840845,-2.296948,-56.702545,-0.392423,-1.313242,0.879971,-0.474876,0.002428,-0.011711
251,0.154639,-8.583265,5.855369,-0.548151,3.304727,-2.576192,-56.659649,-0.438466,-1.444112,0.880131,-0.474548,0.002612,-0.012908
252,0.268401,-8.822571,5.874139,-0.293322,3.359660,-1.556874,-56.540565,-0.581987,-1.575899,0.880595,-0.473642,0.002041,-0.014517
253,0.694296,-9.501727,5.628467,-2.582210,3.710623,-0.928193,-56.836510,-0.954579,-1.693627,0.879312,-0.475944,-0.000292,-0.016962
254,0.428409,-9.385698,6.433751,-14.929996,5.010711,-1.247111,-57.280155,-1.327737,-1.831086,0.877388,-0.479375,-0.002509,-0.019575
255,0.438226,-9.723000,6.842255,-34.579342,3.486311,4.333199,-57.735401,-1.406737,-1.928871,0.875447,-0.482865,-0.002623,-0.020665
256,0.863432,-10.237862,7.692157,-56.297836,0.811364,8.383003,-58.546024,-1.513176,-1.891605,0.871998,-0.489053,-0.003446,-0.020853
257,0.286983,-10.545649,7.675547,-68.972160,-1.892576,9.277196,-59.715195,-1.491001,-1.743260,0.866993,-0.497918,-0.003710,-0.019669
258,-0.034076,-10.462922,7.244998,-73.423294,-5.411360,12.907374,-61.194210,-1.041289,-1.480240,0.860601,-0.509035,-0.001246,-0.015743
259,0.271288,-11.504199,6.497176,-60.298813,-8.995757,17.387491,-62.922508,-0.558414,-1.049868,0.852924,-0.521932,0.000625,-0.010358
260,-0.095166,-11.479911,6.139809,-28.175030,-9.423017,15.359534,-64.229057,-0.122753,-0.536342,0.846975,-0.531612,0.001581,-0.004534
261,-0.510884,-11.428800,4.270264,6.178129,-9.409285,18.168764,-65.014198,0.595860,-0.016293,0.843314,-0.537396,0.004462,0.002675
262,-0.076968,-11.210762,4.189542,31.560373,-5.402204,22.442881,-65.352440,1.335928,0.484688,0.841644,-0.539891,0.007529,0.009854
263,-0.413841,-10.888268,4.583830,59.690804,-4.373730,24.824850,-64.448494,2.023698,0.959490,0.845727,-0.533258,0.010474,0.016498
264,-0.595645,-9.864571,3.499648,86.435707,-2.725731,23.657516,-62.774910,2.885121,1.405019,0.853169,-0.520882,0.015106,0.023574
265,-0.269790,-9.406220,2.600723,91.941238,-0.169806,24.356392,-61.548981,3.571309,1.745196,0.858428,-0.511760,0.018981,0.029020
266,-0.371369,-7.819282,3.806710,99.052055,2.734031,17.036528,-59.766872,3.960013,1.965561,0.866100,-0.498380,0.021412,0.032074
267,-0.363678,-7.429633,3.464558,109.553474,1.502609,12.466380,-57.050705,4.163540,2.104538,0.877559,-0.477738,0.023146,0.033469
268,-0.377782,-6.414616,3.038008,107.104362,3.333719,5.192294,-54.717468,4.207452,2.101307,0.887089,-0.459771,0.024176,0.033141
269,-0.384583,-5.510468,3.679379,92.452423,3.611438,-2.359510,-52.312450,4.120609,1.961688,0.896612,-0.441023,0.024724,0.031201
270,-0.462433,-4.722642,4.290090,84.572556,2.944608,-10.347730,-49.079079,3.941411,1.758589,0.908810,-0.415507,0.024909,0.028232
271,-0.413997,-5.136480,3.954888,73.476013,1.902401,-10.007449,-46.343483,3.718697,1.479513,0.918604,-0.393634,0.024749,0.024629
272,-0.494207,-4.131349,4.608912,58.697426,1.469038,-14.775966,-44.048752,3.522334,1.155341,0.926423,-0.375092,0.024710,0.020866
273,-0.299190,-4.102014,5.860786,45.891861,1.363749,-19.962585,-40.985111,3.140790,0.782386,0.936278,-0.350121,0.023281,0.015987
274,-0.492968,-4.565685,7.073979,42.261681,1.708608,-19.242350,-37.831726,2.676133,0.339383,0.945711,-0.324155,0.021131,0.010371
275,-0.443331,-4.634579,7.731537,44.756573,1.015838,-21.371016,-34.910583,2.346982,-0.155690,0.953759,-0.299872,0.019944,0.004847
276,-0.643908,-4.457995,8.648125,41.657417,0.901394,-23.397444,-32.049286,2.120176,-0.727142,0.960992,-0.275885,0.019533,-0.000991
277,-0.656302,-5.018279,8.882257,36.913315,-0.423110,-21.822689,-29.746342,2.039356,-1.325416,0.966331,-0.256424,0.020167,-0.006609
278,-0.706228,-4.880853,8.645811,34.534397,-0.829006,-17.414289,-28.287910,2.060854,-1.865777,0.969471,-0.244003,0.021414,-0.011391
279,-0.565039,-4.481891,8.254604,26.801010,-0.755761,-15.500782,-27.274240,2.122407,-2.331102,0.971530,-0.235316,0.022790,-0.015399
280,-0.640035,-4.659487,8.361749,14.982718,-0.793909,-8.730249,-26.797129,2.224094,-2.683022,0.972437,-0.231174,0.024298,-0.018274
281,-0.522163,-4.816562,8.158797,11.337282,-1.511094,-7.355390,-26.927822,2.332245,-2.925639,0.972120,-0.232203,0.025728,-0.020085
282,-0.286791,-4.488082,7.952266,10.818467,-1.451583,-6.618369,-27.192312,2.222367,-3.135971,0.971555,-0.234429,0.025273,-0.022034
283,-0.318088,-4.647769,8.122099,7.379032,-1.121983,-5.803524,-27.404760,2.008869,-3.320451,0.971103,-0.236249,0.023886,-0.023993
284,-0.250484,-4.659240,8.381468,7.395817,-1.503464,-3.598562,-27.643110,1.801956,-3.456677,0.970596,-0.238300,0.022467,-0.025529
285,-0.297134,-4.621398,8.310642,6.257477,-1.575183,-4.002932,-27.783539,1.628156,-3.556998,0.970291,-0.239521,0.021236,-0.026715
286,-0.220285,-4.682941,8.286513,0.477271,-2.121464,-1.575185,-27.985039,1.498888,-3.619634,0.969860,-0.241253,0.020321,-0.027481
287,-0.493841,-4.837740,8.621607,-5.293778,-2.551775,0.254400,-28.364788,1.525667,-3.610676,0.969056,-0.244460,0.020619,-0.027281
288,-0.174804,-4.632044,8.402540,-8.147259,-3.145360,0.989896,-28.768423,1.540020,-3.552731,0.968202,-0.247878,0.020711,-0.026687
289,-0.543133,-5.126000,8.000196,-12.914249,-3.862545,2.619584,-29.553972,1.592503,-3.455840,0.966500,-0.254512,0.021121,-0.025610
290,-0.302317,-4.919676,7.802001,-16.591728,-3.920531,2.250310,-30.696932,1.722918,-3.342059,0.963931,-0.264124,0.022210,-0.024140
291,-0.139345,-4.762032,7.510926,-18.975224,-3.021760,0.445140,-31.722607,1.593135,-3.256939,0.961553,-0.272793,0.021134,-0.023536
292,-0.097284,-4.622899,7.013569,-22.384142,-2.113835,-1.781185,-32.745785,1.333499,-3.237300,0.959092,-0.281441,0.019122,-0.023821
293,-0.367598,-4.758558,6.586620,-27.749300,-2.437331,-2.255748,-34.058018,1.266114,-3.262291,0.955803,-0.292419,0.018896,-0.023981
294,0.433459,-4.562859,6.163877,-34.104774,-2.011598,-5.377791,-35.644268,0.808649,-3.334067,0.951647,-0.305730,0.015619,-0.025535
295,-0.097608,-4.572747,6.269344,-42.643856,-1.628590,-4.782680,-37.214703,0.201409,-3.425669,0.947319,-0.318888,0.011202,-0.027767
296,-0.027133,-4.818774,6.108036,-50.514576,-3.677908,-3.294903,-38.919067,0.039981,-3.474821,0.942447,-0.332978,0.010429,-0.028471
297,0.318889,-5.175681,6.522203,-58.701164,-1.988709,-3.879332,-40.795826,-0.332772,-3.502626,0.936822,-0.348457,0.007931,-0.029657
298,0.189216,-5.412142,6.902877,-63.056160,-0.479569,-4.106695,-42.505898,-0.765053,-3.565999,0.931442,-0.362496,0.005059,-0.031416
299,-0.055200,-5.955816,7.150596,-63.312511,0.077394,-2.773036,-44.069695,-0.828220,-3.646797,0.926376,-0.375184,0.005241,-0.032204
300,0.515417,-6.513975,7.224551,-56.125408,1.142490,-4.094488,-45.584450,-1.004768,-3.748888,0.921276,-0.387433,0.004592,-0.033549
301,0.415148,-6.585262,7.240371,-46.487663,5.207556,-6.439835,-46.758205,-1.420990,-3.948239,0.917115,-0.396939,0.002293,-0.036535
302,-0.168171,-6.835964,6.912968,-37.731907,4.252326,-3.595510,-47.619308,-1.337544,-4.186391,0.914047,-0.403793,0.004073,-0.038123
304,0.225800,-6.982155,6.611731,-33.160233,4.618548,-4.900177,-48.483067,-1.104090,-4.402541,0.910956,-0.410600,0.006991,-0.038974
305,-0.122550,-6.977102,6.486824,-33.088512,4.853541,-6.270457,-49.336941,-0.957471,-4.651411,0.907816,-0.417317,0.009350,-0.040360
306,-0.128526,-7.263022,6.423275,-37.301590,3.722830,-5.126013,-50.284550,-0.654665,-4.892276,0.904312,-0.424694,0.012966,-0.041061
307,-0.145554,-7.688830,6.322978,-41.647427,2.166386,-3.998354,-51.544357,-0.390352,-5.071952,0.899577,-0.434501,0.016173,-0.041325
308,-0.073164,-8.089192,6.103742,-44.470387,1.887142,-4.184518,-53.148827,-0.227923,-5.214265,0.893386,-0.446977,0.018572,-0.041571
309,-0.145358,-8.463324,6.072577,-44.087379,-0.415480,1.116547,-54.885159,-0.072015,-5.268347,0.886522,-0.460398,0.020623,-0.041077
310,0.296086,-8.853355,6.059082,-40.171860,-1.974976,5.085479,-56.481117,-0.057942,-5.178483,0.880058,-0.472711,0.020931,-0.040037
311,0.209361,-8.865401,5.682653,-33.442528,-2.760827,6.518323,-57.866894,-0.197550,-5.001305,0.874311,-0.483398,0.019601,-0.039018
312,-0.131103,-9.285948,5.723127,-28.255905,-4.034975,9.457255,-59.030075,-0.049552,-4.762149,0.869466,-0.492242,0.020092,-0.036367
313,0.332368,-9.386128,5.454374,-22.370411,-5.258767,11.190707,-60.002914,0.086312,-4.453750,0.865373,-0.499619,0.020081,-0.033274
314,0.220611,-9.491509,5.485971,-17.810946,-4.071597,7.644456,-60.750496,-0.012148,-4.159532,0.862162,-0.505331,0.018259,-0.031363
315,-0.202767,-9.407660,5.485685,-12.740294,-1.855953,5.918634,-61.156754,0.121445,-3.961817,0.860438,-0.508381,0.018496,-0.029221
316,-0.242274,-9.620255,5.448349,-10.506340,-1.305094,5.065643,-61.375446,0.477828,-3.828171,0.859545,-0.509950,0.020630,-0.026596
317,-0.054212,-9.631651,5.333334,-7.701688,-0.160650,3.861688,-61.574821,0.690711,-3.735804,0.858701,-0.511404,0.021859,-0.024918
318,-0.155074,-9.701550,5.603280,-6.700682,0.330698,2.811851,-61.620850,0.780602,-3.683226,0.858515,-0.511735,0.022308,-0.024113
319,-0.009827,-10.197881,5.678771,-17.185314,-1.448531,2.120606,-61.786545,0.781161,-3.624799,0.857787,-0.512987,0.022085,-0.023641
320,0.141360,-10.359941,7.026217,-46.980534,-3.615345,-3.845762,-62.189919,0.500620,-3.553827,0.855963,-0.516089,0.019753,-0.024297
321,-0.302642,-10.357586,6.724250,-68.312965,-1.418013,-5.895079,-63.002056,0.266198,-3.540446,0.852259,-0.522202,0.018121,-0.025126
322,0.271037,-11.109550,6.954402,-71.082527,2.181646,-6.352858,-64.304138,0.034865,-3.635027,0.846218,-0.531892,0.017136,-0.026690
323,0.214147,-11.392891,5.614406,-58.424969,3.164342,-6.493243,-65.903984,-0.366329,-3.798031,0.838604,-0.543724,0.015344,-0.029545
324,0.091116,-11.584130,4.802602,-29.505640,5.183140,-2.184029,-67.471703,-0.549016,-3.976953,0.831004,-0.555162,0.015288,-0.031514
325,0.051464,-12.008052,3.213204,9.866290,6.251288,7.050871,-68.708160,-0.376581,-4.114422,0.824963,-0.564036,0.017546,-0.031489
326,0.637546,-12.272773,3.469798,48.580540,6.762474,10.893151,-69.035210,-0.237381,-4.197106,0.823355,-0.566341,0.019044,-0.031345
327,0.400231,-11.371882,2.637829,67.329590,6.458814,11.598128,-68.439552,-0.229289,-4.260215,0.826272,-0.562041,0.019249,-0.031859
328,0.286601,-10.714222,3.289646,70.828537,6.870813,13.168307,-67.373039,-0.059710,-4.310520,0.831485,-0.554273,0.020426,-0.031581
329,0.510843,-9.530579,4.414760,74.196251,7.703968,11.506573,-65.182549,0.018687,-4.375809,0.841924,-0.538245,0.020701,-0.032078
330,0.276748,-8.327625,3.885932,89.151855,7.613939,10.262944,-62.219479,0.010874,-4.464191,0.855531,-0.516284,0.020205,-0.033297
331,0.223230,-7.483054,3.424238,88.582680,5.022918,11.788869,-59.558315,0.104231,-4.487119,0.867298,-0.496246,0.020232,-0.033526
332,-0.252185,-6.455796,3.909446,87.601509,1.195898,12.956203,-56.866005,0.534642,-4.364965,0.878812,-0.475624,0.022232,-0.031268
333,-0.181934,-5.794548,4.233812,87.625923,1.935972,9.855523,-53.567837,1.149117,-4.174808,0.892240,-0.449979,0.025359,-0.027999
334,-0.447090,-5.353284,3.490859,81.523750,1.034150,10.217167,-50.776188,1.818846,-3.995863,0.902999,-0.427933,0.029276,-0.024692
335,-0.537800,-4.884155,3.758888,65.980667,-0.468887,10.139343,-48.804752,2.686269,-3.775993,0.910241,-0.412101,0.034942,-0.020316
336,-0.857603,-4.429045,4.519866,57.081470,-3.391034,10.616959,-46.466251,3.717535,-3.452672,0.918392,-0.393189,0.041670,-0.014879
337,-0.736839,-4.435134,4.889362,49.351131,-6.870144,12.135255,-43.804001,4.631265,-2.976533,0.927144,-0.371616,0.047156,-0.009011
338,-1.033303,-4.798403,5.520360,40.718971,-12.206305,15.899714,-41.551041,5.318978,-2.339011,0.934112,-0.353366,0.050606,-0.002608
339,-0.822057,-5.425414,6.294219,33.782116,-16.704733,15.103180,-39.882515,5.664972,-1.582663,0.939038,-0.339966,0.051153,0.003885
340,-0.308813,-5.592378,7.242876,34.462677,-18.369518,11.492840,-38.378445,5.152377,-0.839034,0.943567,-0.328037,0.044853,0.007865
341,-0.278347,-6.098540,7.392344,32.323334,-16.399548,6.464915,-37.113441,4.155438,-0.249524,0.947409,-0.317959,0.035063,0.009475
342,-0.132149,-6.600909,7.602468,28.261320,-14.081666,3.649584,-36.577003,3.163260,0.143272,0.949115,-0.313715,0.025815,0.009848
343,0.038849,-6.257142,7.986521,24.290863,-10.379771,-0.323926,-36.223682,2.191741,0.390060,0.950252,-0.310876,0.017120,0.009180
344,-0.219133,-5.882201,8.088093,22.592508,-6.616840,-1.413437,-35.568581,1.513593,0.519938,0.952102,-0.305461,0.011191,0.008354
345,-0.394520,-5.694795,8.224617,17.485235,-2.864590,-2.986666,-34.793343,1.322861,0.551669,0.954166,-0.299015,0.009576,0.008045
346,-0.292194,-5.350379,8.538615,14.471533,-1.250161,-1.549244,-33.902386,1.331764,0.537689,0.956462,-0.291586,0.009749,0.007876
347,-0.547161,-4.893607,8.684636,15.586985,-0.044680,-4.829983,-32.682098,1.470435,0.480210,0.959501,-0.281380,0.011134,0.007631
348,-0.350432,-4.907070,8.296002,22.619974,1.484298,-7.031895,-31.393311,1.627811,0.321607,0.962596,-0.270554,0.012916,0.006545
349,-0.535464,-4.682554,8.254043,23.077751,2.218268,-6.123969,-30.247992,1.789278,0.116295,0.965241,-0.260892,0.014808,0.005053
350,-0.511775,-4.915507,8.346598,24.176418,0.892239,-2.069585,-29.307505,2.049972,-0.018702,0.967318,-0.252934,0.017348,0.004367
351,-0.695879,-4.819430,8.393403,27.032951,-1.744561,-1.508044,-28.535923,2.338523,-0.062681,0.968955,-0.246395,0.019911,0.004499
352,-0.385684,-4.713474,8.503018,27.005484,-2.431227,1.319496,-27.736010,2.475307,-0.032460,0.970626,-0.239624,0.021038,0.004902
353,-0.477937,-4.671485,8.721766,20.886524,-3.769464,4.134828,-27.022644,2.447903,0.092865,0.972098,-0.233601,0.020580,0.005778
354,0.167301,-4.743073,8.788468,17.413517,-3.679435,1.365273,-26.556046,2.067207,0.222156,0.973099,-0.229673,0.017111,0.006030
355,-0.137132,-4.591105,8.632204,12.068201,-1.830013,-3.931213,-26.343388,1.499246,0.211228,0.973601,-0.227873,0.012319,0.004776
356,0.013419,-4.546404,8.553854,5.872943,1.877986,-8.154976,-26.358574,1.126421,0.020410,0.973614,-0.227990,0.009530,0.002415
357,-0.257961,-4.454640,8.571370,1.807878,4.162297,-10.810085,-26.511648,0.958314,-0.313571,0.973324,-0.229268,0.008767,-0.000746
358,-0.509550,-4.207495,8.687816,-0.984565,3.800652,-9.786189,-26.548347,1.170378,-0.681121,0.973229,-0.229536,0.011305,-0.003440
359,-0.842806,-4.194858,8.726687,-2.782105,3.854059,-9.218545,-26.465807,1.729835,-1.018274,0.973329,-0.228744,0.016728,-0.005194
360,-0.729430,-3.987163,8.946249,-1.486596,2.534134,-4.498857,-26.215132,2.356919,-1.259568,0.973733,-0.226498,0.022522,-0.006039
361,-0.646306,-3.959489,8.931787,1.527107,-0.027895,-0.224741,-25.667339,2.803769,-1.324877,0.974725,-0.221764,0.026420,-0.005835
362,-0.477622,-4.141065,8.950815,2.105433,-0.961761,1.594162,-25.186159,2.985173,-1.276035,0.975615,-0.217655,0.027846,-0.005185
363,-0.400999,-4.134829,8.883143,2.714277,-0.890042,1.635362,-24.960629,2.890396,-1.207025,0.976063,-0.215764,0.026899,-0.004831
364,-0.368782,-4.029302,8.958313,2.674603,-1.282205,3.301673,-24.737244,2.707903,-1.111061,0.976520,-0.213907,0.025155,-0.004407
365,-0.149056,-4.119346,8.776093,1.566781,-0.787805,1.270666,-24.618097,2.366124,-1.025689,0.976804,-0.212950,0.022079,-0.004342
366,-0.313900,-4.151241,8.894642,-2.228196,0.544328,-0.543659,-24.736551,2.052733,-1.017599,0.976630,-0.213996,0.019398,-0.004836
367,-0.237025,-4.061373,8.904142,-4.578120,0.594683,-1.086889,-24.882832,1.920794,-1.051177,0.976372,-0.215252,0.018343,-0.005346
368,-0.326027,-4.140018,8.901867,-7.382771,1.331705,-2.383924,-25.068468,1.857077,-1.116362,0.976026,-0.216830,0.017932,-0.005992
369,-0.354978,-4.285800,8.515230,-9.126903,1.409527,-2.278636,-25.517252,1.890907,-1.211747,0.975160,-0.220632,0.018427,-0.006668
370,-0.337708,-4.535151,8.458284,-11.788116,0.387157,-1.730829,-26.301128,1.928695,-1.299618,0.973618,-0.227278,0.018968,-0.007213
371,-0.262605,-4.530010,8.286593,-11.492086,0.152164,-2.071111,-27.195440,1.887066,-1.377196,0.971815,-0.234862,0.018829,-0.007808
372,-0.282613,-4.852444,7.995728,-12.117718,-0.119450,0.684711,-28.231165,1.827934,-1.418458,0.969656,-0.243638,0.018487,-0.008113
373,0.025552,-4.702405,7.650790,-15.978307,-0.656576,-0.099615,-29.438614,1.606755,-1.424942,0.967057,-0.253871,0.016719,-0.008463
374,0.194997,-4.784426,7.353402,-23.450766,-0.925139,-3.624503,-30.791574,1.066233,-1.477302,0.964025,-0.265336,0.012392,-0.009958
375,-0.215342,-4.707999,7.422177,-29.264545,0.020935,-2.892059,-32.191536,0.742963,-1.565594,0.960714,-0.277127,0.010016,-0.011329
376,0.038885,-4.415950,7.010858,-35.224808,-0.926665,-3.766414,-33.428238,0.602717,-1.651827,0.957661,-0.287490,0.009182,-0.012293
377,-0.396075,-4.602314,6.792642,-45.878815,-0.676413,-6.169746,-34.851463,0.602579,-1.774751,0.954003,-0.299352,0.009654,-0.013201
378,-0.280520,-5.514428,6.771680,-48.997807,-2.702842,-3.134681,-36.932686,0.805757,-1.882273,0.948395,-0.316587,0.011871,-0.013352
379,-0.512387,-5.021795,6.568460,-48.186016,-3.523790,-0.548237,-39.028084,1.082603,-1.884881,0.942442,-0.333831,0.014397,-0.012347
380,-0.077456,-5.748189,6.401147,-49.212967,-5.994263,2.079406,-40.984699,1.193939,-1.781188,0.936612,-0.349869,0.015199,-0.010912
381,-0.219319,-6.381048,6.375829,-45.715542,-6.455091,2.073303,-43.255444,1.049202,-1.604903,0.929515,-0.368404,0.013672,-0.009644
382,0.067654,-6.322547,6.300404,-36.839233,-6.970854,2.892724,-45.214897,0.818118,-1.399200,0.923101,-0.384296,0.011284,-0.008527
383,0.197264,-6.000716,6.486855,-35.632229,-4.302012,0.826621,-46.360828,0.373258,-1.214354,0.919227,-0.393572,0.007165,-0.008459
384,-0.009300,-6.856267,6.768645,-35.537624,-2.357983,-1.485156,-47.203270,0.047982,-1.132031,0.916308,-0.400352,0.004339,-0.008885
385,-0.278832,-6.437376,6.777840,-36.791931,0.695394,-5.711969,-47.942074,0.075297,-1.191113,0.913704,-0.406247,0.004823,-0.009231
386,-0.002881,-6.741062,6.596897,-43.710476,1.020416,-5.121436,-48.684330,0.120078,-1.334505,0.911043,-0.412146,0.005755,-0.010178
387,0.100263,-7.156327,6.917019,-50.767883,2.477675,-8.154976,-49.755745,-0.085028,-1.522077,0.907122,-0.420657,0.004915,-0.012362
388,-0.323610,-7.375462,6.539897,-52.168686,1.879512,-7.863524,-51.068012,-0.117504,-1.748256,0.902217,-0.431010,0.005651,-0.014208
389,-0.288234,-7.709946,6.559635,-54.579647,0.469557,-5.188576,-52.569431,0.106657,-1.921787,0.896485,-0.442756,0.008261,-0.014624
390,0.294378,-8.071813,6.171103,-50.401661,-0.265939,-4.707910,-54.176258,-0.025928,-2.027771,0.890166,-0.455293,0.007856,-0.015857
391,-0.258520,-8.529199,6.386393,-45.718597,0.770164,-3.558888,-55.680721,-0.168977,-2.110852,0.884089,-0.466954,0.007298,-0.016976
392,-0.250463,-8.279013,5.902501,-39.366165,-1.352398,0.022459,-56.881939,0.076189,-2.140596,0.879161,-0.476159,0.009481,-0.016108
393,-0.394858,-8.920584,5.852815,-36.588982,-2.734886,0.973111,-58.015755,0.415344,-2.081094,0.874435,-0.484789,0.011976,-0.014124
394,0.011893,-8.627610,5.676348,-29.087534,-2.542620,0.156741,-58.958778,0.541364,-2.000437,0.870431,-0.491958,0.012702,-0.012872
395,-0.372749,-8.996329,5.455976,-25.735073,-2.052798,-0.078252,-59.716702,0.604000,-1.933539,0.867168,-0.497703,0.012971,-0.012009
396,-0.273841,-8.630831,5.223987,-21.608974,-1.639272,-0.357497,-60.395519,0.810854,-1.885484,0.864214,-0.502805,0.014390,-0.010661
397,-0.106212,-9.089922,5.034090,-18.903507,-0.317821,-1.076208,-61.042953,0.846610,-1.870226,0.861362,-0.507676,0.014652,-0.010307
398,0.365455,-8.868259,5.172273,-12.949347,2.080934,-3.044651,-61.507706,0.489684,-1.926813,0.859280,-0.511212,0.012270,-0.012264
399,-0.030114,-9.107764,5.138903,-8.820191,3.319986,-2.252696,-61.647678,0.134233,-2.043565,0.858620,-0.512300,0.010143,-0.014713
400,0.115394,-9.536235,5.451871,-6.786134,3.103304,-1.358504,-61.673622,0.026040,-2.165006,0.858480,-0.512499,0.009879,-0.016105
401,0.791605,-9.704792,5.851828,-6.570979,2.996490,-2.174874,-61.479866,-0.452766,-2.282802,0.859279,-0.511104,0.006787,-0.019140
402,0.289809,-9.998816,7.069400,-8.591304,3.489364,-4.749110,-60.782558,-0.993942,-2.442730,0.862269,-0.505928,0.003303,-0.022773
403,0.215300,-10.114985,7.848090,-14.023597,2.192327,-6.749598,-59.628098,-1.201371,-2.643997,0.867245,-0.497237,0.002376,-0.025227
404,0.486974,-10.511771,8.423680,-22.654230,1.455305,-6.508502,-58.549564,-1.445252,-2.843055,0.871794,-0.489082,0.001132,-0.027803
405,0.361068,-10.555032,7.983470,-24.334274,2.648579,-3.465807,-57.934059,-1.650795,-3.021969,0.874320,-0.484420,0.000170,-0.030042
407,0.308930,-10.682669,7.727357,-10.211836,3.574815,5.663805,-57.562504,-1.546389,-3.115534,0.875884,-0.481567,0.001264,-0.030319
408,0.190422,-10.733319,6.750823,7.281374,1.540757,16.183535,-57.260124,-1.094363,-3.001281,0.877271,-0.479186,0.004168,-0.027559
409,-0.186311,-10.984274,4.748089,34.563393,-3.259805,26.498789,-57.526608,-0.244572,-2.575983,0.876368,-0.481112,0.008946,-0.020731
410,0.158585,-10.344145,3.710388,62.808277,-4.144841,31.706774,-58.096970,0.649714,-1.934667,0.874117,-0.485389,0.013153,-0.012006
411,-0.411594,-9.447716,4.101274,85.019646,-6.491715,36.238777,-57.722492,1.620131,-1.185956,0.875727,-0.482488,0.017376,-0.002239
412,-0.911117,-8.762485,3.506297,91.518570,-11.640185,34.281010,-56.620758,2.997841,-0.323842,0.880122,-0.474018,0.024369,0.009918
413,0.096377,-7.751308,3.354599,91.599434,-10.718528,28.078125,-55.548214,3.685245,0.491830,0.884262,-0.465864,0.026451,0.018779
414,0.307762,-6.040907,4.771193,86.051170,-5.032930,21.339638,-53.159199,3.246939,1.136113,0.893785,-0.447490,0.020901,0.021539
415,-0.173677,-5.738054,4.843693,79.364571,-4.134160,17.326454,-49.662693,2.863551,1.652517,0.907019,-0.420101,0.016620,0.023575
416,0.003077,-5.176393,4.590245,63.237057,-4.118901,9.393166,-46.814266,2.623325,2.047801,0.917156,-0.397470,0.013907,0.025487
417,0.214091,-4.728603,4.555433,50.358246,-1.251687,0.995999,-44.718719,1.947893,2.217344,0.924384,-0.380592,0.008357,0.024356
418,-0.563391,-4.417001,4.624349,40.982960,-2.139775,-2.730311,-43.019939,1.746501,2.226913,0.929961,-0.366827,0.007052,0.023664
419,-0.786984,-4.801642,4.501168,29.836075,-4.303538,-4.134161,-42.117191,2.405198,2.217674,0.932687,-0.359555,0.012630,0.025595
420,-0.897633,-4.756410,5.343536,20.552347,-6.955596,-6.352858,-41.613422,3.129913,2.212772,0.934074,-0.355511,0.018668,0.027742
421,-0.644808,-4.846980,6.210529,22.099634,-6.140752,-8.745508,-40.497078,3.429376,2.199368,0.937409,-0.346413,0.021429,0.028352
422,-1.033034,-5.206267,7.319572,23.189144,-6.992218,-7.804011,-38.878304,3.553233,2.188525,0.942173,-0.333143,0.022878,0.028316
423,-0.941389,-5.380200,8.138767,25.363588,-6.183478,-8.388442,-37.030190,3.723738,2.190299,0.947369,-0.317918,0.024737,0.028429
424,-1.035705,-5.627439,8.394182,27.634167,-5.997315,-6.616843,-35.294811,3.820544,2.175591,0.952047,-0.303538,0.026008,0.028185
425,-0.916814,-5.780251,8.114479,30.637188,-4.817775,-6.589376,-34.027245,3.903081,2.126480,0.955331,-0.292983,0.027132,0.027696
426,-1.151004,-5.747844,8.112805,28.432226,-6.848782,-3.215555,-33.189648,4.064167,2.094479,0.957401,-0.285996,0.028760,0.027630
427,-1.002275,-5.547480,7.845473,25.603159,-6.143804,-2.872222,-32.621639,4.286957,2.109281,0.958725,-0.281265,0.030725,0.028155
428,-1.038396,-5.511747,7.675790,22.264435,-5.827937,-0.815274,-32.331093,4.474102,2.130201,0.959361,-0.278850,0.032313,0.028706
429,-1.011469,-5.271926,7.983844,18.240568,-5.206886,-0.801541,-32.065201,4.659433,2.175904,0.959924,-0.276648,0.033822,0.029458
430,-0.952272,-4.899035,8.361220,16.095116,-4.179938,-0.966341,-31.428930,4.762496,2.240788,0.961388,-0.271340,0.034697,0.030057
431,-0.652357,-4.899985,8.354374,17.732435,-2.345775,-1.437852,-30.589983,4.652909,2.286272,0.963380,-0.264300,0.033889,0.029934
432,-0.735546,-4.885144,8.475741,21.539619,-1.762872,-1.250163,-29.769024,4.444783,2.294070,0.965326,-0.257377,0.032331,0.029291
433,-0.556851,-4.570973,8.495242,21.959249,-1.285257,-2.519733,-28.834538,4.220302,2.278727,0.967478,-0.249473,0.030707,0.028411
434,-0.370640,-4.607635,8.383747,19.131708,-0.656576,-3.606192,-28.002401,3.828908,2.212080,0.969412,-0.242388,0.027741,0.026800
435,-0.285397,-4.556717,8.510859,13.963399,-0.102665,-3.558888,-27.469461,3.348399,2.107102,0.970699,-0.237807,0.024012,0.024789
436,-0.185302,-4.356184,8.403033,8.601297,1.282875,-5.698236,-27.111025,2.858999,1.956948,0.971599,-0.234694,0.020247,0.022442
437,-0.129545,-4.274907,8.524961,-0.442862,3.020904,-7.324872,-26.930920,2.393548,1.731633,0.972114,-0.233089,0.016792,0.019555
438,-0.314610,-4.470836,8.387699,-7.063852,3.550401,-7.643791,-27.131693,2.119835,1.457106,0.971801,-0.234732,0.014998,0.016697
439,-0.385506,-4.415989,8.267831,-11.437155,4.537673,-9.624441,-27.662197,2.080557,1.131786,0.970755,-0.239184,0.015267,0.013929
440,-0.395457,-4.489480,7.949334,-17.026617,5.012237,-10.613242,-28.427235,2.125985,0.748444,0.969170,-0.245608,0.016380,0.010885
441,-0.281671,-4.770411,7.940003,-21.689846,5.566147,-11.508960,-29.523870,2.103006,0.323670,0.966813,-0.254810,0.017026,0.007407
442,-0.530494,-4.624186,8.029260,-25.156752,5.228919,-10.103581,-30.617773,2.156905,-0.089850,0.964349,-0.263962,0.018361,0.004213
443,-0.541552,-4.849417,8.275048,-27.984289,4.478163,-9.874693,-31.535114,2.348506,-0.462625,0.962185,-0.271596,0.020819,0.001684
444,-0.297891,-4.946482,8.392847,-29.081430,3.979186,-10.315685,-32.374184,2.337807,-0.820028,0.960173,-0.278569,0.021585,-0.001184
445,-0.096630,-5.003684,8.485081,-27.621120,4.317941,-9.543567,-33.045479,2.038436,-1.160150,0.958557,-0.284164,0.019931,-0.004646
446,-0.570140,-4.964650,8.335290,-26.821535,3.757926,-6.514606,-33.551933,1.959505,-1.440491,0.957287,-0.288359,0.019998,-0.007099
447,-0.173711,-5.421356,7.975172,-28.379505,2.923245,-6.818264,-34.319996,1.967797,-1.682089,0.955315,-0.294725,0.020735,-0.008957
448,0.085868,-5.456481,7.443607,-28.123150,3.356608,-7.480516,-35.527000,1.574177,-1.942290,0.952168,-0.304794,0.018250,-0.011949
449,-0.163761,-5.683627,6.822395,-27.677580,3.144505,-5.724176,-37.081284,1.229746,-2.193401,0.947935,-0.317706,0.016258,-0.014734
450,-0.516778,-5.734460,6.352054,-31.840305,0.188787,-5.731806,-39.001694,1.326552,-2.400081,0.942448,-0.333497,0.017900,-0.015877
451,-0.045994,-5.764696,5.944571,-36.064068,-0.870205,-8.850797,-41.146378,1.282783,-2.609064,0.936012,-0.351052,0.018477,-0.017380
452,-0.322664,-5.783312,5.715822,-39.216625,-1.126561,-7.449998,-43.333149,1.073887,-2.808617,0.929113,-0.368864,0.017754,-0.019316
453,-0.154539,-5.716061,5.652318,-43.473957,-1.514146,-6.705347,-45.330391,0.978873,-2.963225,0.922515,-0.384999,0.017843,-0.020568
454,0.027804,-5.998054,5.653393,-47.894569,-1.324931,-6.940339,-47.189465,0.667235,-3.091396,0.916113,-0.399968,0.016131,-0.022389
455,0.017490,-6.207553,6.052195,-49.042061,0.039246,-7.468308,-48.795753,0.279159,-3.231190,0.910363,-0.412843,0.013864,-0.024670
456,0.132711,-6.517971,6.303124,-47.276566,0.342905,-5.875243,-49.971428,-0.074972,-3.373667,0.906012,-0.422227,0.011841,-0.026958
457,0.004158,-6.837260,6.533865,-44.667233,0.277290,-6.990695,-50.852875,-0.340252,-3.514565,0.902669,-0.429230,0.010486,-0.028969
458,-0.073524,-7.223922,6.692661,-40.066566,0.352061,-6.221628,-51.530842,-0.423457,-3.663713,0.900064,-0.434569,0.010569,-0.030394
459,0.010242,-6.983284,6.640238,-33.291462,1.189794,-6.331494,-51.877739,-0.458927,-3.820502,0.898696,-0.437285,0.010981,-0.031727
460,0.044727,-7.232304,6.313196,-28.660278,1.768120,-4.494281,-52.101318,-0.515346,-3.977030,0.897788,-0.439037,0.011201,-0.033147
461,-0.144905,-7.461205,6.081936,-25.934973,0.742698,-3.169777,-52.582241,-0.434144,-4.092443,0.895917,-0.442768,0.012421,-0.033689
462,0.440069,-7.639965,5.861602,-23.482809,-0.700828,-1.318830,-53.269062,-0.573995,-4.139768,0.893209,-0.448161,0.011717,-0.034529
463,0.255226,-7.718745,5.513916,-22.533682,-0.595539,-1.941407,-54.146877,-0.945580,-4.149341,0.889674,-0.455084,0.009133,-0.035987
464,0.184442,-8.246042,5.596164,-26.174541,-2.498368,3.419169,-55.247696,-1.063381,-4.085900,0.885256,-0.463643,0.008312,-0.035884
465,0.415618,-8.420319,5.690539,-26.475149,-4.404249,3.838799,-56.367294,-1.167538,-3.916346,0.880713,-0.472306,0.007162,-0.034926
466,0.127172,-8.545009,5.707046,-23.650661,-5.582264,5.425761,-57.266933,-1.211535,-3.688946,0.877036,-0.479228,0.006148,-0.033312
467,-0.009195,-8.683959,5.681157,-18.966070,-5.026827,4.636858,-57.925003,-0.992885,-3.451952,0.874381,-0.484228,0.007007,-0.030545
468,-0.116656,-8.753857,6.071003,-15.476277,-3.966308,6.767050,-58.189465,-0.622902,-3.231576,0.873382,-0.486188,0.008963,-0.027281
469,-0.088613,-9.025127,6.079857,-9.932592,-2.542620,4.664324,-58.132198,-0.247776,-3.045947,0.873721,-0.485696,0.011023,-0.024281
470,-0.217007,-9.262799,5.841656,-4.597957,-0.134710,3.765554,-58.121983,0.095114,-2.936153,0.873826,-0.485562,0.013170,-0.021991
471,-0.040604,-9.216900,5.662671,-1.385883,1.501083,3.371865,-58.215694,0.358511,-2.893208,0.873461,-0.486229,0.015013,-0.020535
472,0.087652,-9.119103,5.616207,-0.889959,1.681142,4.574295,-58.300331,0.428309,-2.868819,0.873112,-0.486862,0.015457,-0.020042
473,0.253870,-9.189400,5.340423,0.915212,-1.173865,5.184665,-58.468678,0.308889,-2.791514,0.872400,-0.488179,0.014248,-0.019939
474,0.111191,-8.822050,5.135015,3.069818,-3.214027,4.362191,-58.688206,0.133643,-2.646997,0.871472,-0.489899,0.012335,-0.019562
475,0.146453,-8.618287,5.338347,3.744277,-4.674338,6.101746,-58.660885,0.024798,-2.444305,0.871613,-0.489730,0.010637,-0.018489
476,0.248348,-8.783137,5.521093,5.535714,-5.000886,6.635819,-58.378666,-0.114248,-2.196502,0.872843,-0.487624,0.008477,-0.017219
477,-0.083782,-9.725091,5.586673,5.862262,-5.211463,7.261449,-58.282333,-0.091915,-1.930407,0.873292,-0.486906,0.007502,-0.015103
478,0.019717,-9.808142,5.948444,-7.507897,-6.867092,5.784354,-58.532356,0.041685,-1.644739,0.872271,-0.488813,0.007334,-0.012343
479,0.025874,-10.052015,7.445162,-36.801086,-8.711936,5.233495,-58.813702,0.046996,-1.327140,0.871099,-0.490971,0.006044,-0.009888
480,0.057815,-10.566735,8.274793,-60.457512,-9.346720,4.850487,-59.243279,-0.009248,-0.981460,0.869276,-0.494253,0.004163,-0.007485
481,-0.171058,-11.267114,8.657399,-75.794586,-7.845210,6.145998,-60.151390,0.045272,-0.641264,0.865352,-0.501134,0.003146,-0.004645
482,0.078662,-10.934161,8.807323,-75.828148,-6.952544,7.337745,-61.104588,0.153886,-0.316486,0.861163,-0.508319,0.002560,-0.001696
483,-0.472928,-11.372890,8.381641,-51.471333,-5.153478,11.558455,-61.581135,0.473059,0.014088,0.859037,-0.511898,0.003483,0.002219
484,-0.451987,-11.736973,6.762113,-11.998695,-5.104648,15.538068,-61.733826,1.109225,0.381315,0.858300,-0.513046,0.006601,0.007822
485,-0.658008,-11.370103,5.732888,30.881332,-6.297922,18.155027,-61.405819,1.841128,0.815000,0.859635,-0.510606,0.010183,0.014317
486,-0.739529,-10.794422,4.428882,73.567574,-8.783653,19.586348,-60.421623,2.632522,1.323139,0.863761,-0.503246,0.014041,0.021533
487,-0.762345,-10.356169,2.727880,95.624832,-7.385907,20.083801,-59.662739,3.403390,1.806232,0.866770,-0.497574,0.017921,0.028437
488,-0.414122,-9.160181,3.087373,99.163445,-4.404249,14.900231,-59.015347,3.871797,2.137977,0.869331,-0.492722,0.020211,0.032863
489,-0.581313,-8.836316,3.006704,108.615028,0.313913,11.466898,-57.908035,4.102083,2.275209,0.873932,-0.484324,0.021705,0.034684
490,-0.123672,-8.042429,1.912246,102.064232,4.717732,5.868279,-57.444695,4.068182,2.143550,0.875934,-0.480761,0.022138,0.033447
491,0.023981,-6.571246,3.447056,79.341682,7.441509,-2.455645,-56.761108,3.501224,1.831561,0.879055,-0.475473,0.019281,0.028574
492,-0.098993,-5.706668,4.427916,74.795937,5.479171,-8.092412,-54.239407,2.786880,1.525481,0.889566,-0.455964,0.015576,0.022929
493,0.073891,-6.120122,4.022790,71.422127,3.498519,-12.857878,-51.606915,1.993579,1.182461,0.900030,-0.435358,0.011170,0.016860
494,-0.161895,-4.438284,4.796771,59.306271,3.037690,-16.892424,-48.806339,1.290757,0.779535,0.910550,-0.413189,0.007447,0.010848
495,-0.451956,-3.856536,5.139247,50.225487,2.050416,-14.585226,-44.933674,1.185734,0.415714,0.924031,-0.382160,0.008176,0.007306
496,-0.426440,-4.670406,4.525479,46.313019,1.426312,-12.903655,-42.252213,1.441878,0.093922,0.932711,-0.360403,0.011441,0.005299
497,-0.458902,-4.514497,5.894518,36.302944,1.423260,-11.884338,-40.502235,1.668240,-0.219801,0.938093,-0.346072,0.014322,0.003240
498,-0.659303,-4.147722,6.120910,36.753094,1.179112,-5.612783,-38.179413,2.069594,-0.424045,0.944869,-0.326929,0.018276,0.002410
499,-0.135975,-4.786396,6.109360,32.225674,0.605364,-5.646354,-36.391811,2.215940,-0.556658,0.949835,-0.312116,0.019886,0.001424
500,-0.259515,-5.519196,8.421630,35.712414,-0.798487,-9.145301,-34.941235,1.888652,-0.745091,0.953754,-0.300067,0.017672,-0.001254
501,-0.581491,-4.883144,8.609158,46.236721,-2.104680,-7.482042,-32.730911,1.768101,-0.919340,0.959374,-0.281602,0.017064,-0.003350
502,-0.498812,-5.189684,8.245768,46.033772,-2.589924,-7.381332,-30.608263,1.835408,-1.061460,0.964412,-0.263754,0.017892,-0.004706
503,-0.667561,-4.827603,8.851965,42.075523,-2.521257,-10.437759,-28.892727,1.924847,-1.259839,0.968233,-0.249244,0.019007,-0.006455
504,-0.733147,-4.753113,9.119442,42.691998,-3.864072,-8.164130,-27.151939,2.094989,-1.460939,0.971873,-0.234450,0.020761,-0.008100
505,-0.848248,-4.222707,8.297303,42.566872,-3.778620,-4.669762,-25.582167,2.411820,-1.577280,0.974940,-0.221044,0.023568,-0.008760
506,-0.483488,-4.261755,8.696248,34.300930,-2.959197,-6.090398,-24.340626,2.589885,-1.682749,0.977240,-0.210417,0.025184,-0.009587
507,-0.465159,-3.796327,8.732368,33.574593,-1.559924,-3.745051,-23.182743,2.519929,-1.798034,0.979317,-0.200519,0.024690,-0.010949
508,-0.357701,-3.673529,8.622327,29.363039,-1.466842,-1.749141,-22.041702,2.425545,-1.858751,0.981274,-0.190761,0.023872,-0.011872
510,-0.369587,-3.354140,8.660770,28.055321,-0.661154,0.275763,-20.987478,2.335539,-1.865289,0.983001,-0.181740,0.023000,-0.012290
511,-0.315975,-3.424280,8.686609,22.298004,-0.726768,1.758962,-20.112339,2.271489,-1.824753,0.984374,-0.174246,0.022294,-0.012215
512,-0.351463,-3.282830,8.758058,19.113400,-0.545183,4.240117,-19.514473,2.233939,-1.728044,0.985285,-0.169133,0.021764,-0.011555
513,-0.485789,-3.209624,8.962232,11.753859,-1.202857,4.621598,-19.056570,2.312160,-1.581370,0.985956,-0.165210,0.022180,-0.010267
514,-0.420600,-3.379617,9.006830,7.472113,-1.445479,5.994931,-18.948910,2.422483,-1.407946,0.986107,-0.164302,0.022871,-0.008637
515,-0.533414,-3.342325,9.192078,3.358218,-1.469894,4.389658,-19.099716,2.552041,-1.242473,0.985879,-0.165617,0.023757,-0.006995
516,-0.445784,-3.301710,9.185259,2.805833,-0.954131,3.284888,-19.218031,2.657531,-1.118370,0.985696,-0.166648,0.024491,-0.005749
517,-0.450126,-3.141511,9.256385,-0.281115,-1.953612,3.332191,-19.197119,2.653657,-0.999268,0.985732,-0.166494,0.024284,-0.004735
518,-0.500704,-3.180158,9.243386,-0.647337,-2.286264,3.614488,-19.115410,2.659204,-0.862327,0.985855,-0.165819,0.024130,-0.003566
519,-0.490156,-3.127253,9.173202,-1.720061,-3.082797,4.374398,-19.080671,2.686861,-0.703898,0.985903,-0.165551,0.024138,-0.002170
520,-0.388678,-3.196628,9.025059,-3.676297,-3.984619,5.235020,-19.165413,2.623314,-0.513951,0.985795,-0.166325,0.023318,-0.000611
521,-0.383730,-3.117658,9.071237,-6.075053,-4.184515,5.373880,-19.341038,2.483713,-0.302837,0.985565,-0.167886,0.021809,0.001036
522,-0.267501,-3.339618,8.982282,-7.445334,-3.285745,4.334724,-19.643873,2.298636,-0.111841,0.985147,-0.170533,0.019930,0.002460
523,-0.202948,-3.325535,8.972333,-9.119273,-1.828487,0.101807,-20.090992,2.046948,-0.019323,0.984513,-0.174399,0.017618,0.002950
524,-0.122762,-3.246158,8.987099,-10.333910,-0.618428,-3.365096,-20.462658,1.750558,-0.056610,0.983985,-0.177595,0.015121,0.002227
525,-0.178378,-3.397155,8.677715,-11.148753,0.767112,-5.376266,-20.893187,1.505098,-0.194361,0.983342,-0.181281,0.013224,0.000714
526,-0.093125,-3.456889,8.335126,-15.656337,1.359171,-7.594961,-21.600161,1.303053,-0.414104,0.982225,-0.187329,0.011847,-0.001419
527,-0.031820,-3.633662,7.997436,-21.816500,1.360697,-7.259257,-22.676296,1.050923,-0.668218,0.980437,-0.196535,0.010138,-0.003914
528,-0.043602,-3.740050,7.791171,-29.522425,0.631305,-4.981050,-24.114851,0.814536,-0.875947,0.977897,-0.208827,0.008548,-0.005990
529,-0.208464,-3.958059,7.535030,-37.678493,0.231513,-2.547200,-25.892076,0.756923,-1.003693,0.974536,-0.223963,0.008399,-0.007056
530,-0.180671,-4.117966,7.441193,-48.749084,-1.323405,-0.688622,-27.998625,0.820610,-1.055223,0.970249,-0.241830,0.009176,-0.007202
531,-0.117204,-4.520232,7.731042,-56.830383,-2.242012,0.559585,-30.295164,0.805981,-1.038216,0.965209,-0.261228,0.009156,-0.006907
532,-0.285129,-4.746107,7.777687,-57.922943,-2.449538,0.759481,-32.547081,0.841801,-0.985626,0.959891,-0.280145,0.009462,-0.006198
533,-0.294547,-5.067169,8.028668,-55.385326,-2.379346,0.362740,-34.514637,0.976875,-0.932834,0.954936,-0.296577,0.010556,-0.005245
534,-0.130111,-5.468009,8.126941,-51.765839,-1.161657,-0.960237,-36.212566,0.994802,-0.909621,0.950437,-0.310694,0.010718,-0.004847
535,-0.169676,-6.194461,8.440018,-37.992832,0.762535,-1.810178,-37.657078,0.933756,-0.941478,0.946447,-0.322652,0.010364,-0.005146
536,-0.048203,-6.194218,8.138194,-22.013344,2.329660,-4.921539,-38.627136,0.832244,-1.060098,0.943680,-0.330652,0.009913,-0.006328
537,-0.383879,-6.093663,8.021971,-13.260634,3.374919,-6.430679,-39.039417,0.856739,-1.264019,0.942470,-0.334024,0.010732,-0.007898
538,-0.438489,-6.023302,7.845003,-13.436117,2.911038,-7.382857,-39.196083,1.096253,-1.505462,0.941987,-0.335257,0.013418,-0.009167
539,-0.216870,-5.991762,7.584929,-12.378650,2.906460,-9.101049,-39.390789,1.184425,-1.776317,0.941388,-0.336810,0.014954,-0.011110
540,-0.279633,-5.474411,7.223005,-22.480278,1.754387,-10.028811,-39.665558,1.118690,-2.065826,0.940549,-0.339039,0.015297,-0.013645
541,-0.487663,-5.526309,7.176212,-33.247204,0.783898,-8.196174,-40.170296,1.210953,-2.318722,0.939012,-0.343126,0.016871,-0.015373
542,-0.201851,-5.878298,7.203789,-41.136238,0.126224,-5.846250,-41.112389,1.269436,-2.503308,0.936132,-0.350794,0.018039,-0.016563
543,-0.011110,-6.059778,6.702165,-40.930241,0.901394,-4.497332,-42.487747,1.050416,-2.642886,0.931836,-0.362030,0.016897,-0.018173
544,-0.233953,-6.330614,6.709839,-41.815281,0.648090,-1.608755,-44.053246,0.919686,-2.734894,0.926788,-0.374741,0.016387,-0.019113
545,0.052685,-6.432633,6.546575,-34.889099,1.556016,-0.856474,-45.461269,0.831966,-2.790949,0.922102,-0.386111,0.016104,-0.019657
546,0.074095,-6.783791,6.177840,-31.127693,2.019897,-0.218637,-46.827801,0.606178,-2.845114,0.917415,-0.397122,0.014718,-0.020680
547,0.191944,-6.638760,6.022505,-30.074806,2.782860,-2.650961,-48.165630,0.312369,-2.933758,0.912683,-0.407858,0.012934,-0.022259
548,0.156287,-6.875604,6.221962,-30.206039,3.490889,-3.070592,-49.235535,-0.000918,-3.069521,0.908781,-0.416413,0.011150,-0.024352
549,-0.072725,-6.801974,6.006516,-29.908485,3.748771,-3.763361,-50.138260,-0.091267,-3.231907,0.905427,-0.423563,0.011228,-0.025881
550,-0.151030,-7.336061,6.306753,-33.041210,3.556505,-2.072637,-51.036907,0.055527,-3.389065,0.902058,-0.430600,0.013176,-0.026477
551,0.061870,-7.486040,6.363504,-32.584957,2.625690,-1.723200,-51.908234,0.127010,-3.510782,0.898737,-0.437415,0.014402,-0.027058
552,-0.068130,-8.149441,6.889770,-32.406425,1.922238,0.828147,-52.639194,0.143821,-3.579036,0.895914,-0.443126,0.014970,-0.027434
553,0.122964,-8.314001,6.917721,-26.557549,1.952757,1.612473,-53.169956,0.159522,-3.604690,0.893848,-0.447264,0.015320,-0.027504
554,0.248572,-9.131395,7.323299,-20.743773,3.649586,0.996000,-53.528442,0.033061,-3.651308,0.892418,-0.450083,0.014604,-0.028315
555,0.198393,-9.191270,7.217933,-11.991066,6.242133,-2.940888,-53.716995,-0.133333,-3.801493,0.891616,-0.451574,0.013948,-0.030116
556,-0.023063,-9.279651,7.301726,-6.512993,10.305673,-4.617879,-53.666245,-0.147440,-4.098470,0.891733,-0.451145,0.014994,-0.032488
557,-0.156832,-8.875575,6.962758,1.719374,12.890590,-5.786739,-53.376663,0.062004,-4.513040,0.892780,-0.448770,0.018167,-0.034936
558,-0.310096,-8.831470,6.880342,8.294586,13.755790,-4.808620,-52.904213,0.434095,-4.973097,0.894531,-0.444880,0.022714,-0.037157
559,-0.252779,-8.373137,6.639911,13.404910,11.880427,-3.072118,-52.285801,0.833926,-5.388638,0.896833,-0.439806,0.027237,-0.038994
560,-0.227496,-8.110060,6.256558,15.121577,9.113925,0.321540,-51.690311,1.149453,-5.689667,0.899038,-0.434933,0.030651,-0.040297
561,-0.275976,-8.171515,6.390303,14.598185,5.489852,3.304724,-51.233383,1.429685,-5.842378,0.900740,-0.431180,0.033267,-0.040562
562,-0.079024,-8.888271,5.916671,9.257445,1.919186,5.044279,-51.375549,1.553068,-5.864733,0.900208,-0.432235,0.034370,-0.040230
563,-0.058335,-8.500542,6.426229,-14.987984,-2.556353,1.906977,-52.133648,1.413391,-5.800235,0.897338,-0.438262,0.033296,-0.040032
564,0.096049,-8.787194,7.620142,-46.043617,-5.881344,-0.433793,-52.995209,1.035030,-5.666581,0.894022,-0.445197,0.030126,-0.040211
565,-0.075539,-9.335838,8.465561,-65.178726,-7.363018,0.823570,-54.020775,0.652098,-5.463582,0.890020,-0.453387,0.026709,-0.039880
566,-0.151329,-9.730548,8.548976,-71.818024,-7.117345,4.362191,-55.250824,0.516529,-5.198681,0.885172,-0.463026,0.025018,-0.038093
567,-0.229746,-9.692451,9.245896,-62.251995,-6.615314,10.441477,-56.063946,0.640575,-4.856185,0.881991,-0.469326,0.024840,-0.034770
568,-0.901294,-11.021930,9.107754,-27.413593,-8.397595,19.389505,-56.102528,1.256735,-4.356840,0.882032,-0.469525,0.027546,-0.028391
569,-0.636904,-11.161210,7.109644,30.283173,-10.132572,23.735340,-55.613316,2.124318,-3.691939,0.884194,-0.465639,0.031412,-0.019845
570,-0.194396,-10.936878,5.890435,70.538612,-9.513047,27.016081,-54.649342,2.658938,-2.962045,0.888159,-0.458223,0.032467,-0.012309
571,-0.486339,-10.268798,5.051150,93.201653,-12.613727,27.306005,-53.399803,3.034647,-2.197915,0.893123,-0.448624,0.032266,-0.005233
572,-0.312378,-9.647386,4.322010,100.610023,-14.768335,22.528334,-52.272774,3.276491,-1.441324,0.897469,-0.439972,0.031202,0.001306
573,0.344115,-8.472579,3.656489,99.280945,-10.282113,15.261876,-51.566376,2.860292,-0.876051,0.900223,-0.434647,0.025797,0.003974
574,-0.614261,-7.274757,4.071561,79.512581,-6.206367,14.424143,-50.901321,2.684774,-0.485507,0.902742,-0.429522,0.022973,0.006243
575,-0.663054,-6.663492,4.566323,62.086514,-5.565479,11.343299,-49.898994,3.231977,-0.125040,0.906332,-0.421623,0.026029,0.010907
576,-0.404316,-6.087614,5.203879,62.629745,-2.635701,4.571242,-48.227837,3.510410,0.139208,0.912291,-0.408394,0.027460,0.013622
577,-0.639527,-5.279175,5.458613,62.324551,-1.569079,0.918177,-45.679161,3.624436,0.284811,0.921101,-0.388029,0.028180,0.014564
578,-0.547352,-4.808871,5.643197,52.955368,-1.920042,-0.064519,-42.814819,3.781708,0.403509,0.930454,-0.364904,0.029434,0.015320
579,-0.160951,-4.736277,6.155787,46.276394,-0.328502,-3.740473,-40.116806,3.511840,0.447704,0.938854,-0.342927,0.027444,0.014178
580,-0.406964,-4.421728,6.225542,44.014973,-0.836635,-7.047153,-37.624931,3.078080,0.368510,0.946205,-0.322435,0.024387,0.011704
581,-0.419410,-4.409935,6.502323,33.260250,0.159794,-7.726189,-35.527966,2.873488,0.220332,0.952005,-0.305046,0.023291,0.009480
582,-0.319104,-4.806471,7.116617,26.739973,0.574846,-12.148321,-34.044899,2.617090,-0.034073,0.955943,-0.292664,0.021923,0.006401
583,-0.612559,-4.718279,7.386556,31.302488,1.951231,-15.813595,-32.799236,2.458103,-0.432560,0.959111,-0.282190,0.021642,0.002435
584,-0.500411,-4.492161,7.563997,30.154993,0.471083,-18.824245,-31.440504,2.402811,-0.923197,0.962399,-0.270710,0.022364,-0.002073
585,-0.887934,-4.727476,8.387415,30.319792,1.272194,-18.656395,-30.044046,2.474433,-1.450885,0.965595,-0.258845,0.024133,-0.006630
586,-0.598755,-4.609939,8.479510,31.844194,-0.665731,-18.593830,-28.678583,2.572512,-1.972005,0.968554,-0.247190,0.026006,-0.011109
587,-0.790818,-4.504982,8.384199,31.577154,0.304757,-12.983003,-27.448080,2.644539,-2.418227,0.971090,-0.236657,0.027417,-0.015020
588,-0.592972,-4.393041,8.711558,29.265379,-2.110783,-10.724633,-26.338707,2.739947,-2.745601,0.973274,-0.227142,0.028730,-0.017875
589,-0.759102,-4.468616,8.743787,31.999838,-1.843746,-5.809628,-25.332241,2.812050,-2.960880,0.975184,-0.218512,0.029595,-0.019821
590,-0.530489,-3.921725,8.499990,32.839096,-2.507524,-4.247080,-24.274206,2.887310,-3.079136,0.977126,-0.209447,0.030269,-0.020963
591,-0.677947,-3.844109,8.755611,29.694164,-2.151983,-0.499408,-23.120571,2.944441,-3.111733,0.979170,-0.199575,0.030601,-0.021445
592,-0.588719,-3.400180,8.954662,28.975454,-2.661642,0.054504,-21.851845,3.041779,-3.069299,0.981310,-0.188707,0.031125,-0.021258
593,-0.799655,-3.343518,8.996976,24.467871,-2.332042,3.936458,-20.577147,3.217429,-2.953090,0.983335,-0.177765,0.032214,-0.020331
594,-0.650870,-3.263591,9.239409,21.240538,-2.885953,3.696887,-19.548033,3.409848,-2.784475,0.984881,-0.168925,0.033434,-0.018884
595,-0.665394,-3.264546,9.310003,18.220732,-3.520738,3.783865,-18.746510,3.452910,-2.621525,0.986055,-0.162069,0.033442,-0.017654
596,-0.829629,-3.257948,9.355088,15.231444,-3.531419,3.767080,-18.202211,3.559677,-2.464494,0.986812,-0.157405,0.034061,-0.016312
597,-0.565850,-3.347004,9.295613,11.933918,-4.161627,2.320503,-17.999552,3.565499,-2.342757,0.987104,-0.155694,0.033917,-0.015316
598,-0.421747,-3.363578,9.294291,9.773209,-4.443923,0.919703,-18.098366,3.259234,-2.275592,0.987049,-0.156630,0.031201,-0.015130
599,-0.358588,-3.507501,9.192622,8.334260,-4.558367,1.061614,-18.416847,2.821903,-2.232816,0.986703,-0.159474,0.027418,-0.015287
600,-0.106006,-3.406416,9.329401,5.430425,-3.935790,-1.871214,-18.776392,2.233030,-2.229788,0.986294,-0.162687,0.022394,-0.016015
601,-0.086245,-3.542082,9.296456,5.456365,-3.673331,-4.739954,-19.024202,1.609395,-2.309509,0.986000,-0.164927,0.017178,-0.017553
602,-0.140244,-3.460611,9.244073,4.646099,-3.305582,-6.325390,-19.217356,1.186161,-2.456750,0.985728,-0.166652,0.013782,-0.019408
603,-0.326084,-3.501040,9.432274,3.704603,-2.577716,-6.903717,-19.346191,1.008390,-2.638828,0.985517,-0.167776,0.012541,-0.021220
604,-0.328933,-3.225929,9.742356,2.479285,-3.694693,-6.477983,-19.258429,0.985814,-2.815324,0.985612,-0.167006,0.012588,-0.022780
605,-0.414174,-3.322627,9.524612,4.147121,-4.672812,-3.934266,-19.044834,1.016567,-2.931155,0.985897,-0.165149,0.012977,-0.023756
606,-0.253111,-2.764870,9.914252,3.692395,-5.682975,-1.010593,-18.565901,1.002510,-2.946166,0.986576,-0.161029,0.012778,-0.023959
607,-0.160103,-2.994376,10.146152,7.014335,-6.731285,3.200962,-17.827627,0.843304,-2.836333,0.987621,-0.154717,0.011103,-0.023310
608,0.270095,-2.699198,10.005052,13.995444,-7.495773,4.580398,-16.990322,0.409088,-2.635681,0.988773,-0.147605,0.006927,-0.022219
609,0.127819,-2.764053,9.719320,18.866199,-6.011049,2.907984,-16.058157,-0.118120,-2.452959,0.989967,-0.139665,0.001969,-0.021339
610,0.275067,-2.587452,9.419239,19.916037,-4.175360,3.419169,-15.231343,-0.516014,-2.309100,0.990956,-0.132589,-0.001792,-0.020568
611,0.198556,-2.795473,9.016220,17.135799,-2.515153,4.717732,-14.745282,-0.806997,-2.150632,0.991516,-0.128427,-0.004575,-0.019515
613,0.166319,-2.639601,8.705218,9.638928,-0.922087,4.395761,-14.713013,-0.916568,-1.984815,0.991570,-0.128157,-0.005714,-0.018201
614,-0.067009,-2.460684,8.648391,-0.023232,0.231513,3.167392,-14.883745,-0.785175,-1.855254,0.991409,-0.129610,-0.004696,-0.016940
615,0.012479,-2.354624,8.754303,-7.738310,0.362742,5.785880,-15.148609,-0.531932,-1.712367,0.991144,-0.131864,-0.002631,-0.015424
616,-0.124202,-2.398558,9.209834,-11.786591,0.316965,5.820975,-15.437342,-0.271438,-1.529950,0.990844,-0.134328,-0.000554,-0.013548
617,-0.089880,-2.474547,9.420068,-11.754546,0.268135,5.006131,-15.703070,-0.005663,-1.360643,0.990555,-0.136598,0.001573,-0.011769
618,-0.235763,-2.459445,9.635013,-9.375629,0.312387,4.328620,-15.844753,0.262319,-1.214588,0.990401,-0.137799,0.003728,-0.010182
619,-0.124798,-2.762238,9.720517,-8.348681,0.086550,6.660235,-16.002522,0.499790,-1.040741,0.990220,-0.139149,0.005583,-0.008386
620,0.041944,-2.893388,9.699024,-7.286638,0.320016,5.003080,-16.324232,0.531279,-0.856683,0.989837,-0.141935,0.005651,-0.006742
621,0.026191,-2.888291,9.654743,-8.348681,0.126224,4.821495,-16.677488,0.443253,-0.701958,0.989405,-0.144998,0.004716,-0.005500
622,0.255247,-2.854762,9.409381,-9.862398,0.568742,2.509717,-17.033400,0.228765,-0.587611,0.988959,-0.148085,0.002734,-0.004776
623,0.317433,-2.844044,9.221416,-9.976843,2.714193,-1.155556,-17.394865,-0.116430,-0.580160,0.988487,-0.151220,-0.000239,-0.005158
624,0.435760,-2.835799,9.127022,-7.926001,5.175510,-5.014620,-17.689907,-0.482483,-0.715414,0.988076,-0.153783,-0.003200,-0.006816
625,0.143036,-2.857156,8.832072,-5.888889,7.890132,-6.806058,-17.928005,-0.624633,-0.967654,0.987729,-0.155851,-0.004068,-0.009190
626,0.215261,-3.154400,8.512335,-3.300920,9.390117,-10.523211,-18.341742,-0.554234,-1.328132,0.987131,-0.159422,-0.002927,-0.012212
627,-0.031493,-3.407068,8.283831,-3.503869,9.995911,-14.351757,-19.092607,-0.379351,-1.817550,0.986014,-0.165875,-0.000634,-0.016190
628,-0.070820,-3.597829,8.425152,-8.321216,9.548813,-16.626913,-20.091419,-0.088112,-2.408624,0.984448,-0.174411,0.002909,-0.020830
629,-0.366864,-3.902389,8.335657,-14.215863,9.756340,-19.039400,-21.369495,0.321405,-3.080077,0.982317,-0.185263,0.007738,-0.025890
630,-0.171916,-3.893540,8.657300,-21.750883,9.016266,-21.251993,-22.758427,0.667184,-3.829196,0.979817,-0.196998,0.012296,-0.031604
631,-0.387285,-3.862664,8.972893,-32.237041,8.521866,-21.943239,-24.005573,0.881980,-4.613400,0.977380,-0.207482,0.015892,-0.037768
632,-0.159284,-4.200956,9.646005,-39.935337,8.819421,-19.864925,-25.227091,1.013419,-5.371835,0.974845,-0.217721,0.018854,-0.043799
633,-0.248254,-4.337708,9.503601,-40.161175,8.953703,-19.072971,-26.457573,1.030210,-6.084140,0.972162,-0.228044,0.020883,-0.049604
634,-0.103017,-4.323302,9.637792,-39.192215,8.163273,-18.284067,-27.493090,0.989827,-6.763462,0.969750,-0.236710,0.022392,-0.055247
635,-0.130037,-4.678185,9.656927,-37.301590,6.385569,-16.825283,-28.383490,0.853897,-7.386046,0.967558,-0.244186,0.023000,-0.060620
636,0.010061,-4.965136,9.359243,-32.850468,6.306221,-14.786649,-29.351748,0.664326,-7.944550,0.965136,-0.252349,0.023145,-0.065547
637,-0.107852,-5.064002,8.849658,-27.810335,5.947630,-16.059267,-30.367044,0.488668,-8.489649,0.962519,-0.260886,0.023490,-0.070320
638,-0.025059,-4.960289,8.842121,-25.606899,5.497481,-15.558764,-31.196638,0.342430,-9.038827,0.960235,-0.267827,0.024057,-0.075093
639,-0.342151,-5.302785,8.676296,-22.292589,5.138888,-14.028263,-31.914022,0.359617,-9.551502,0.958197,-0.273709,0.025895,-0.079188
640,-0.280341,-5.265193,8.471029,-15.692960,5.686695,-12.815151,-32.569832,0.556749,-10.029235,0.956313,-0.278930,0.029156,-0.082545
641,-0.365760,-5.222859,8.433351,-8.066384,5.025970,-11.801937,-32.885925,0.765868,-10.472248,0.955251,-0.281288,0.032215,-0.085642
642,-0.351506,-4.931710,8.354604,-0.221602,4.070741,-9.349774,-32.716965,0.989129,-10.847054,0.955417,-0.279592,0.034865,-0.088267
643,-0.256376,-5.247937,8.121606,3.878558,3.156712,-5.907288,-32.448471,1.155754,-11.122314,0.955881,-0.277130,0.036713,-0.090239
644,0.146447,-5.345728,8.165534,5.796647,2.199956,-4.788784,-32.412876,0.937312,-11.322906,0.955772,-0.276953,0.035348,-0.092455
645,0.022120,-5.552160,8.041571,6.046899,1.873408,-4.500383,-32.613548,0.500483,-11.496173,0.955060,-0.278946,0.032292,-0.094905
646,0.250465,-5.719640,8.048996,6.173551,2.077882,-4.569050,-33.076233,0.071147,-11.664346,0.953686,-0.283119,0.029517,-0.097235
647,0.302123,-5.927703,7.977274,4.231047,3.084993,-5.447983,-33.744373,-0.450924,-11.849972,0.951717,-0.289074,0.026214,-0.099918
648,0.247925,-6.066616,8.066871,3.788529,3.646534,-6.073613,-34.399475,-0.802815,-12.064835,0.949749,-0.294762,0.024420,-0.102449
649,0.008979,-5.986246,7.877617,2.338900,3.655689,-5.551745,-34.897152,-0.833300,-12.285568,0.948251,-0.298862,0.025188,-0.104248
650,0.042079,-5.919788,8.006037,1.481331,2.444104,-2.942414,-35.325439,-0.677750,-12.453670,0.947026,-0.302229,0.027307,-0.105134
651,-0.174757,-5.685500,8.170259,5.499091,0.699972,-0.156074,-35.353844,-0.361683,-12.524415,0.946989,-0.302164,0.030132,-0.104881
652,-0.221127,-5.328658,7.929269,14.573769,-0.833583,0.725911,-34.808708,0.035215,-12.514803,0.948543,-0.297299,0.032893,-0.103914
653,0.061583,-5.318828,7.591787,17.039665,-1.382917,0.786948,-34.157352,0.146215,-12.471147,0.950287,-0.291814,0.033111,-0.103454
654,0.044688,-5.635335,7.747546,14.071741,-0.836635,0.353584,-33.846806,0.043291,-12.435332,0.951079,-0.289341,0.031886,-0.103506
655,-0.033230,-5.643754,7.687708,9.768631,0.318490,-2.623496,-33.880390,-0.010640,-12.462720,0.950955,-0.289661,0.031538,-0.103861
656,-0.015159,-5.764887,7.572757,-1.036447,0.979216,-5.228250,-34.318241,-0.040277,-12.583398,0.949723,-0.293286,0.031998,-0.104815
657,0.049392,-6.022066,7.938204,-15.528159,0.481764,-3.558888,-35.220451,-0.118044,-12.717286,0.947238,-0.300787,0.032531,-0.105871
658,-0.267264,-5.761178,8.388916,-24.372423,-0.714561,-0.966341,-36.097771,-0.027543,-12.776955,0.944880,-0.307930,0.034247,-0.105868
659,-0.261221,-5.350292,8.262263,-27.535669,-3.021761,2.532606,-36.571835,0.254571,-12.722295,0.943732,-0.311593,0.036859,-0.104507
660,-0.058011,-5.364017,8.240315,-30.627192,-5.315227,7.401834,-36.872341,0.405138,-12.506570,0.943148,-0.313999,0.037781,-0.102221
661,0.057513,-5.325742,8.272568,-32.052410,-7.417951,10.775655,-37.154369,0.352473,-12.132510,0.942687,-0.316488,0.036566,-0.099197
662,-0.126607,-5.335538,8.290459,-33.859104,-9.738884,13.313269,-37.401897,0.332531,-11.633925,0.942418,-0.318698,0.035230,-0.095074
663,-0.030325,-5.537048,8.201335,-33.631744,-11.901120,14.709491,-37.746902,0.354238,-11.039300,0.941940,-0.321696,0.034026,-0.090020
664,0.137894,-5.572136,8.148796,-32.629208,-13.047089,14.967372,-38.172749,0.199848,-10.389069,0.941196,-0.325500,0.031246,-0.084992
665,0.095195,-5.572886,8.006192,-32.548332,-13.842097,14.707965,-38.587337,-0.035664,-9.718566,0.940436,-0.329247,0.027696,-0.080054
666,0.034359,-5.689145,7.905463,-32.652096,-13.987060,15.599106,-39.057606,-0.172841,-9.032336,0.939507,-0.333354,0.024904,-0.074713
667,0.174690,-5.719363,7.657193,-31.780794,-13.979430,16.268986,-39.619659,-0.300605,-8.326181,0.938272,-0.338183,0.022141,-0.069186
668,0.173976,-5.710318,7.451461,-31.551903,-14.048096,16.572645,-40.234795,-0.470980,-7.606885,0.936820,-0.343440,0.018964,-0.063697
669,0.202561,-5.908101,7.347845,-31.535118,-14.029786,16.752705,-40.934307,-0.617128,-6.881176,0.935058,-0.349338,0.015948,-0.058104
670,0.169538,-6.037015,7.174385,-30.173994,-14.145756,16.563490,-41.742458,-0.720600,-6.154411,0.932898,-0.356064,0.013257,-0.052395
671,0.276583,-6.099555,6.921731,-29.372885,-14.087770,16.345280,-42.623619,-0.842395,-5.431586,0.930418,-0.363350,0.010379,-0.046809
672,0.293702,-6.408541,6.807562,-30.375418,-13.442305,15.803578,-43.660084,-1.005966,-4.723273,0.927332,-0.371860,0.007180,-0.041512
673,0.275671,-6.638325,6.461928,-29.911535,-11.988097,13.594039,-44.952534,-1.132082,-4.068246,0.923277,-0.382365,0.004446,-0.036571
674,0.296507,-6.842581,6.284921,-31.068186,-9.448957,11.305150,-46.438755,-1.223351,-3.510569,0.918390,-0.394346,0.002269,-0.032355
675,0.225458,-7.189553,6.341198,-33.987278,-6.545122,10.139343,-47.994808,-1.223439,-3.059754,0.913070,-0.406788,0.001107,-0.028730
676,0.148117,-7.551291,6.501871,-35.768040,-4.323374,9.185641,-49.506344,-1.075448,-2.703402,0.907735,-0.418776,0.001356,-0.025350
677,0.114648,-7.622526,6.694715,-33.666836,-2.959198,8.428782,-50.715675,-0.847881,-2.422182,0.903357,-0.428304,0.002367,-0.022267
678,0.033828,-7.748564,7.173142,-29.942051,-2.522783,9.478619,-51.348503,-0.564480,-2.171348,0.901059,-0.433255,0.003770,-0.019210
679,-0.175007,-7.755050,7.402541,-22.213240,-2.692161,10.012692,-51.367977,-0.149454,-1.910971,0.901063,-0.433366,0.006052,-0.015593
680,-0.070049,-7.498105,7.361068,-12.935613,-2.798975,7.826041,-50.869713,0.227033,-1.658224,0.902990,-0.429413,0.008004,-0.012217
681,-0.186081,-7.360389,7.367197,-4.018105,-2.335094,3.193332,-49.979923,0.446598,-1.472310,0.906321,-0.422376,0.008960,-0.009999
682,-0.224608,-7.284472,7.225936,2.061182,-0.926665,-1.855955,-48.949322,0.588419,-1.407552,0.910090,-0.414197,0.009762,-0.009052
683,-0.167853,-7.052032,6.902874,4.199003,0.915127,-6.824368,-48.038277,0.599069,-1.493557,0.913347,-0.406939,0.010080,-0.009777
684,0.000161,-6.885047,6.636090,3.049981,2.724875,-10.817715,-47.387794,0.400659,-1.729958,0.915617,-0.401754,0.009268,-0.012419
685,0.009222,-7.105512,6.605318,1.281433,4.633808,-12.329907,-47.088921,0.094831,-2.080108,0.916605,-0.399381,0.008009,-0.016310
686,0.095205,-7.280417,6.335191,-0.009500,5.845392,-10.764308,-47.225849,-0.180489,-2.469855,0.916045,-0.400493,0.007190,-0.020378
687,0.024579,-7.330428,6.079646,-0.505425,6.077333,-8.798916,-47.731064,-0.349655,-2.835275,0.914183,-0.404535,0.007220,-0.023859
688,0.048247,-7.502056,6.103491,0.245330,4.914578,-6.500872,-48.357277,-0.407464,-3.138865,0.911885,-0.409516,0.007975,-0.026441
689,0.005601,-7.747581,6.109435,3.107966,1.855097,-4.450028,-49.064602,-0.413974,-3.339316,0.909292,-0.415123,0.008813,-0.028006
690,0.216012,-7.692173,5.983222,7.411076,-1.572131,-4.457658,-49.746986,-0.588119,-3.433464,0.906755,-0.420561,0.007947,-0.029337
691,0.430033,-7.439456,5.785518,10.632305,-4.114323,-7.959656,-50.090649,-1.124140,-3.487197,0.905384,-0.423389,0.003997,-0.031715
692,0.721407,-7.284622,5.811893,10.089075,-5.093967,-12.534381,-50.112576,-2.017058,-3.582992,0.905076,-0.423734,-0.002699,-0.035767
693,0.832175,-7.381914,6.045976,6.747299,-4.343212,-18.493118,-50.011456,-3.141090,-3.790794,0.905046,-0.423140,-0.010849,-0.041543
694,0.816392,-7.419035,6.242557,5.615062,-2.960723,-24.114628,-49.830070,-4.226486,-4.155408,0.905158,-0.421923,-0.018158,-0.048382
695,0.606577,-7.302954,6.358741,3.095759,-2.103153,-26.795677,-49.549385,-5.030994,-4.649519,0.905595,-0.419919,-0.022835,-0.055172
696,0.461898,-7.376363,6.730567,0.349093,-0.732872,-26.301277,-49.161983,-5.431025,-5.214738,0.906516,-0.417042,-0.024136,-0.061010
697,0.335973,-7.510421,7.014547,3.321596,0.362742,-23.867430,-48.634743,-5.471634,-5.796177,0.908082,-0.412994,-0.022644,-0.065651
698,0.337339,-7.425344,7.027991,11.894244,0.229987,-18.351208,-47.909306,-5.276771,-6.307159,0.910488,-0.407283,-0.019691,-0.068882
699,0.594552,-7.210126,7.095781,19.009634,0.442090,-13.361431,-46.909763,-5.108927,-6.707606,0.913855,-0.399342,-0.017554,-0.071324
700,0.765941,-7.130675,7.257046,27.100092,1.572801,-10.475908,-45.628056,-5.100830,-7.044794,0.918055,-0.389145,-0.017141,-0.073797
701,0.927832,-7.035267,7.395687,37.651863,1.723868,-7.927612,-44.078842,-5.206678,-7.338651,0.922980,-0.376783,-0.018026,-0.076269
702,1.008460,-6.870206,7.514616,45.608040,0.870876,-6.831998,-42.301899,-5.396899,-7.582402,0.928437,-0.362541,-0.019980,-0.078548
703,1.081973,-6.569620,7.577066,49.485416,-0.214057,-8.119879,-40.396645,-5.673385,-7.808594,0.934014,-0.347210,-0.022857,-0.080872
704,1.101371,-6.186463,7.662563,50.942673,-1.437850,-8.238901,-38.417828,-6.013802,-8.034885,0.939499,-0.331224,-0.026395,-0.083285
705,1.135961,-5.878589,7.894320,52.108479,-2.704368,-6.470354,-36.361687,-6.344267,-8.226142,0.944939,-0.314508,-0.030093,-0.085261
706,1.160722,-5.627023,8.071682,51.878067,-3.435286,-4.509540,-34.296299,-6.627548,-8.355358,0.950172,-0.297592,-0.033644,-0.086493
707,1.222230,-5.332033,8.098380,52.013874,-3.188086,-2.124518,-32.319862,-6.873325,-8.417678,0.954951,-0.281295,-0.037032,-0.087004
708,1.218384,-5.040524,8.172824,52.660866,-1.344768,0.437511,-30.418272,-7.042964,-8.424319,0.959367,-0.265494,-0.039879,-0.086814
709,1.163387,-5.078278,8.200474,53.867874,1.630786,2.404429,-28.717312,-7.034535,-8.378507,0.963243,-0.251204,-0.041192,-0.085809
710,0.944693,-4.971273,8.138535,53.187309,4.208075,3.347450,-27.343819,-6.751151,-8.288167,0.966438,-0.239469,-0.040012,-0.083976
711,0.984121,-4.809922,7.951373,49.337402,5.968992,4.455272,-26.293306,-6.336533,-8.166287,0.968940,-0.230352,-0.037513,-0.081770
712,0.800259,-4.710204,7.917558,42.589760,7.494918,4.966456,-25.594465,-5.862953,-8.026498,0.970703,-0.224159,-0.034267,-0.079460
713,0.655692,-4.725374,7.924129,35.732250,9.176488,6.231449,-25.261311,-5.220089,-7.872645,0.971804,-0.220974,-0.029336,-0.076851
714,0.462692,-4.553967,8.084713,28.084314,9.963865,7.378945,-25.138397,-4.422700,-7.711279,0.972535,-0.219497,-0.022953,-0.073960
716,0.404148,-4.509100,8.222003,21.881426,9.973021,9.542707,-25.087257,-3.572582,-7.530690,0.973106,-0.218607,-0.016106,-0.070827
717,0.176015,-4.419948,8.568439,19.294983,10.029481,10.551343,-24.990290,-2.681967,-7.326264,0.973729,-0.217315,-0.008982,-0.067413
718,0.155998,-4.180872,8.797195,21.097101,9.336710,12.412971,-24.588326,-1.799973,-7.095989,0.974867,-0.213446,-0.002142,-0.063796
719,0.133957,-3.935716,9.018791,23.201353,7.499495,14.373787,-23.799347,-1.082954,-6.800784,0.976628,-0.206375,0.002999,-0.059981
720,0.177352,-3.654347,9.196543,26.269987,5.311318,15.936335,-22.666735,-0.580068,-6.424683,0.978892,-0.196484,0.006056,-0.055936
721,0.298960,-3.368691,9.340518,28.934254,3.074312,15.734911,-21.254745,-0.362004,-5.994629,0.981467,-0.184330,0.006543,-0.051974
722,0.316510,-3.119168,9.393275,30.594461,0.782372,14.894128,-19.694641,-0.384677,-5.548971,0.984079,-0.170982,0.004975,-0.048265
723,0.381172,-2.977923,9.495100,30.768415,-0.954131,13.420083,-18.159803,-0.561986,-5.112997,0.986440,-0.157869,0.002201,-0.044818
724,0.360870,-2.828194,9.509686,31.798416,-2.222175,11.103729,-16.734667,-0.822637,-4.718831,0.988448,-0.145684,-0.001106,-0.041772
725,0.259725,-2.676570,9.483156,32.688030,-3.075167,8.912500,-15.408739,-1.035822,-4.383070,0.990161,-0.134301,-0.003825,-0.039104
726,0.174290,-2.509279,9.423254,32.218044,-3.058382,7.447611,-14.185452,-1.132530,-4.098245,0.991621,-0.123741,-0.005386,-0.036700
727,0.110637,-2.394551,9.444366,30.556314,-2.683005,6.510694,-13.098565,-1.121283,-3.850230,0.992828,-0.114315,-0.005884,-0.034488
728,0.015366,-2.313379,9.463054,28.938833,-2.310679,5.712635,-12.179128,-1.006668,-3.629996,0.993791,-0.106302,-0.005371,-0.032424
729,-0.010604,-2.174031,9.456352,25.819841,-2.319834,5.297582,-11.410378,-0.834759,-3.429196,0.994553,-0.099580,-0.004271,-0.030496
730,0.070980,-2.110325,9.506849,21.547249,-2.274057,4.789450,-10.810781,-0.728908,-3.244353,0.995117,-0.094342,-0.003663,-0.028781
731,0.123670,-2.072654,9.558208,18.710554,-2.110783,3.461895,-10.394695,-0.733291,-3.091588,0.995490,-0.090724,-0.003927,-0.027444
732,0.177951,-2.013936,9.534835,16.172939,-1.546190,1.604844,-10.110166,-0.809134,-2.993857,0.995729,-0.088265,-0.004729,-0.026643
733,0.188751,-1.909527,9.625285,11.772170,-1.179968,-0.516193,-9.946087,-0.921121,-2.964229,0.995852,-0.086862,-0.005763,-0.026463
734,0.271335,-1.820333,9.723941,7.739151,-0.992280,-3.626029,-9.855506,-1.094410,-3.022694,0.995890,-0.086117,-0.007246,-0.027096
735,0.286817,-1.746187,9.716336,3.114070,-0.699302,-6.851834,-9.792006,-1.295655,-3.188137,0.995875,-0.085622,-0.008887,-0.028679
736,0.347003,-1.734070,9.686432,-3.754119,-0.159124,-9.972352,-9.865107,-1.487018,-3.460585,0.995725,-0.086327,-0.010326,-0.031196
737,0.312187,-1.705740,9.857931,-10.748961,-0.215583,-12.619832,-10.127620,-1.661069,-3.829352,0.995394,-0.088689,-0.011482,-0.034556
738,0.345286,-1.736274,9.793773,-14.626339,-0.735924,-14.293773,-10.525038,-1.819886,-4.267882,0.994915,-0.092233,-0.012388,-0.038530
739,0.375223,-1.787421,9.719483,-17.902498,-1.241005,-14.026736,-11.033968,-2.008762,-4.725642,0.994299,-0.096764,-0.013470,-0.042714
740,0.512976,-1.853180,9.809982,-17.949802,-1.474472,-12.664084,-11.571442,-2.269155,-5.153839,0.993615,-0.101572,-0.015149,-0.046717
741,0.460743,-1.912038,9.824234,-14.560723,-1.103672,-10.518633,-12.008325,-2.520114,-5.525770,0.993007,-0.105508,-0.016803,-0.050224
742,0.525121,-1.858700,9.633679,-10.689450,-1.057894,-7.591908,-12.251584,-2.709790,-5.820062,0.992602,-0.107738,-0.018064,-0.052984
743,0.524860,-2.033403,9.699997,-7.500268,-0.984650,-4.349317,-12.395613,-2.872022,-6.013945,0.992333,-0.109086,-0.019218,-0.054836
744,0.465289,-1.963678,9.748882,2.415196,-0.616902,-0.761867,-12.300924,-2.922828,-6.100120,0.992367,-0.108302,-0.019622,-0.055614
745,0.405142,-1.880230,9.628661,16.923695,-0.220161,4.963405,-11.722746,-2.840268,-6.041381,0.992951,-0.103248,-0.019240,-0.054932
746,0.448513,-1.779465,9.708141,31.180416,-0.967865,11.056425,-10.675276,-2.728000,-5.787092,0.994001,-0.094076,-0.018976,-0.052459
747,0.440225,-1.805039,9.786257,42.763710,-1.006013,15.029935,-9.307456,-2.641329,-5.359290,0.995262,-0.082097,-0.019155,-0.048453
748,0.400244,-1.486340,9.751770,50.809917,-0.133184,16.392586,-7.685182,-2.531151,-4.840946,0.996556,-0.067870,-0.019188,-0.043606
749,0.366664,-1.491477,9.758041,48.542393,0.895290,15.499920,-6.088698,-2.382955,-4.311178,0.997625,-0.053841,-0.018753,-0.038656
750,0.258674,-1.326507,9.795704,37.917377,1.023468,10.809225,-4.928103,-2.180289,-3.864218,0.998299,-0.043601,-0.017548,-0.034495
751,0.216078,-1.150790,9.809585,25.615366,1.069246,6.295539,-4.218040,-1.942094,-3.566739,0.998676,-0.037305,-0.015782,-0.031718
752,0.195326,-0.953924,9.825860,15.820451,0.936490,3.402384,-3.841547,-1.724083,-3.395084,0.998872,-0.033944,-0.014037,-0.030107
753,0.208590,-0.886841,9.829680,8.755416,0.570268,1.650621,-3.742183,-1.544303,-3.302336,0.998948,-0.033022,-0.012523,-0.029236
754,0.232552,-0.752528,9.849082,5.433477,-0.050783,1.043303,-3.744723,-1.444750,-3.251122,0.998973,-0.033015,-0.011669,-0.028762
755,0.260421,-0.717004,9.843360,4.063195,-0.348339,1.774221,-3.692491,-1.435480,-3.201035,0.999001,-0.032552,-0.011615,-0.028317
756,0.251166,-0.776693,9.888038,3.042351,-0.241524,1.440044,-3.724078,-1.450534,-3.143189,0.999005,-0.032825,-0.011755,-0.027821
757,0.224768,-0.768166,9.881272,3.860247,-0.041628,1.064666,-3.788712,-1.439390,-3.096718,0.998999,-0.033381,-0.011656,-0.027419
