seq,ax,ay,az,wroll,wpitch,wyaw,roll,pitch,yaw
1,0.033096,-0.220704,9.937152,0.524574,-0.636739,29.605574,-1.272267,-0.190768,0.002118
2,0.026764,-0.192049,9.932455,0.458784,-0.475168,19.229509,-1.258592,-0.191321,0.816238
3,0.027065,-0.123309,9.927187,0.611662,-0.349098,12.783867,-1.242549,-0.193419,1.349947
4,0.024109,-0.135980,9.926408,1.049533,-0.093784,9.483053,-1.216115,-0.192851,1.721131
5,0.018806,-0.098018,9.926499,1.871601,0.081264,7.524035,-1.168365,-0.187180,2.004524
6,0.013650,-0.074587,9.928643,2.052601,0.301581,1.579727,-1.103441,-0.177817,2.156096
8,0.013707,-0.055827,9.931375,2.010504,0.374721,-0.203686,-1.035785,-0.166149,2.178816
9,0.009722,-0.075655,9.936287,1.434829,0.474107,-0.219285,-0.978341,-0.152137,2.171519
10,0.007628,-0.034166,9.932663,2.793697,0.513228,-0.193497,-0.907848,-0.135797,2.164368
11,0.008426,-0.051124,9.935607,2.177127,0.466078,-0.185319,-0.824987,-0.119572,2.157809
12,0.004536,-0.036432,9.933214,2.134134,0.506233,-0.192482,-0.753119,-0.103455,2.151290
13,0.000503,-0.037339,9.931094,1.909356,0.506981,-0.177738,-0.685717,-0.086647,2.144907
15,-0.001158,-0.027841,9.928874,1.907199,0.462020,-0.101538,-0.622102,-0.070552,2.140069
16,-0.002603,-0.045090,9.929609,1.237807,0.407546,-0.032309,-0.569682,-0.056082,2.137687
17,-0.003372,-0.056180,9.927209,0.793991,0.335961,0.005936,-0.535819,-0.043695,2.137128
18,-0.001219,-0.062092,9.924972,0.603422,0.223288,0.057216,-0.512529,-0.034365,2.138095
19,0.000557,-0.065113,9.921034,0.605573,0.156341,0.062822,-0.492380,-0.028021,2.140040
20,0.000681,-0.074996,9.922142,0.369200,0.136253,0.004772,-0.476134,-0.023135,2.141125
22,0.003017,-0.064575,9.924572,0.639373,0.047569,-0.020245,-0.459325,-0.020073,2.140842
23,0.005697,-0.059747,9.925212,0.954541,0.005595,0.000597,-0.432759,-0.019190,2.140508
24,0.003964,-0.030794,9.925599,1.074538,0.002408,-0.066441,-0.398941,-0.019064,2.139410
25,0.002769,-0.016829,9.928319,0.952000,-0.004392,-0.090735,-0.365165,-0.019115,2.136791
26,0.002088,-0.028710,9.929055,0.421843,-0.016389,-0.089009,-0.342266,-0.019480,2.133797
27,0.001344,-0.033510,9.927124,0.054173,0.016709,-0.102598,-0.334331,-0.019494,2.130604
29,0.001427,-0.036094,9.923757,-0.271489,0.001357,-0.125475,-0.337952,-0.019215,2.126801
30,0.008879,-0.061685,9.922503,-0.376211,-0.118197,-0.078892,-0.348746,-0.021183,2.123407
31,0.009943,-0.070964,9.924350,-0.272450,-0.103838,-0.068264,-0.359556,-0.024898,2.120976
32,0.010961,-0.060282,9.917957,0.068897,-0.096349,-0.048595,-0.362948,-0.028247,2.119050
33,0.011820,-0.062818,9.919064,0.026593,-0.105087,-0.030311,-0.361355,-0.031613,2.117756
34,0.011879,-0.061515,9.922074,0.038588,-0.103647,-0.022622,-0.360268,-0.035097,2.116896
36,0.007773,-0.060074,9.922840,0.048759,-0.003919,-0.023564,-0.358812,-0.036895,2.116137
37,0.004933,-0.060378,9.920500,0.060138,0.065844,-0.026211,-0.356997,-0.035868,2.115301
38,0.007191,-0.050673,9.920640,0.263767,0.018139,-0.025111,-0.351598,-0.034473,2.114437
39,0.008273,-0.057125,9.926940,0.093896,-0.010048,-0.020600,-0.345636,-0.034343,2.113675
40,0.005767,-0.053712,9.922669,0.170548,0.044636,-0.008113,-0.341229,-0.033769,2.113193
41,0.006982,-0.056586,9.924385,0.117116,0.028776,-0.018909,-0.336434,-0.032549,2.112735
43,0.008751,-0.053071,9.922963,0.186501,-0.020443,-0.019172,-0.331373,-0.032413,2.112100
44,0.008793,-0.053900,9.920796,0.133529,-0.021834,-0.026784,-0.326039,-0.033122,2.111337
45,0.008505,-0.050938,9.912710,0.180036,-0.010648,-0.032859,-0.320812,-0.033669,2.110347
46,0.009339,-0.050226,9.912362,0.171585,-0.014960,-0.045145,-0.314951,-0.034103,2.109049
47,0.007458,-0.053631,9.913179,0.076202,0.023074,-0.023505,-0.310821,-0.033974,2.107904
48,0.008332,-0.052647,9.918255,0.085257,0.011113,-0.015974,-0.308129,-0.033408,2.107243
50,0.002639,-0.052840,9.922610,0.075464,0.115105,-0.019934,-0.305450,-0.031308,2.106633
51,0.001502,-0.050868,9.924755,0.112279,0.130772,-0.019870,-0.302321,-0.027213,2.105948
52,0.003847,-0.062876,9.932055,-0.161765,0.064564,-0.027706,-0.303145,-0.023962,2.105138
53,0.001673,-0.063025,9.933342,-0.145039,0.090993,-0.047383,-0.308258,-0.021376,2.103872
54,0.000150,-0.068217,9.927541,-0.251193,0.118820,-0.045712,-0.314862,-0.017888,2.102302
55,0.003532,-0.074291,9.931833,-0.351811,0.052076,-0.026296,-0.324911,-0.015046,2.101086
57,0.002806,-0.073608,9.931578,-0.315272,0.052207,-0.021726,-0.336029,-0.013313,2.100276
58,-0.000603,-0.059832,9.930039,0.016769,0.110409,-0.016864,-0.341004,-0.010606,2.099616
59,0.002296,-0.059212,9.927801,0.035744,0.048498,-0.014219,-0.340129,-0.007961,2.099082
60,0.008303,-0.055231,9.931396,0.115038,-0.091224,-0.019583,-0.337616,-0.008677,2.098523
61,0.004279,-0.052905,9.925413,0.149556,-0.012146,-0.038928,-0.333206,-0.010405,2.097558
62,0.007012,-0.052611,9.926787,0.153993,-0.058280,-0.040737,-0.328146,-0.011586,2.096237
64,0.008926,-0.059799,9.925754,-0.018190,-0.100516,-0.034791,-0.325883,-0.014240,2.094994
65,0.009054,-0.050378,9.924289,0.168662,-0.093907,-0.042421,-0.323374,-0.017488,2.093725
66,0.004942,-0.056392,9.924348,0.018562,0.000506,-0.046427,-0.320253,-0.019053,2.092253
67,0.012658,-0.050084,9.923389,0.157912,-0.148477,-0.041201,-0.317312,-0.021527,2.090807
68,0.012138,-0.059725,9.927499,-0.057385,-0.132345,-0.045590,-0.315636,-0.026215,2.089386
69,0.011104,-0.061386,9.925917,-0.100107,-0.084476,-0.037725,-0.318260,-0.029837,2.088018
71,0.008452,-0.071428,9.928542,-0.305730,-0.019752,-0.026573,-0.325023,-0.031580,2.086956
72,0.009231,-0.065373,9.926735,-0.134188,-0.020298,-0.022128,-0.332355,-0.032252,2.086148
73,0.007607,-0.065255,9.931285,-0.117827,0.011853,-0.017369,-0.336555,-0.032397,2.085491
74,0.005204,-0.062408,9.928824,-0.039908,0.056267,-0.009495,-0.339183,-0.031264,2.085036
75,0.010028,-0.056839,9.929744,0.104752,-0.054283,-0.007112,-0.338102,-0.031232,2.084759
76,0.009344,-0.054097,9.924422,0.166470,-0.036144,-0.011635,-0.333582,-0.032741,2.084456
78,0.010983,-0.053468,9.926620,0.157535,-0.077709,-0.019421,-0.328182,-0.034642,2.083949
79,0.006967,-0.056001,9.924866,0.082711,0.020697,-0.026499,-0.324177,-0.035596,2.083189
80,0.010077,-0.053050,9.922384,0.126545,-0.019036,-0.031440,-0.320689,-0.035574,2.082223
81,0.005410,-0.058056,9.918334,0.008110,0.078197,-0.027786,-0.318444,-0.034594,2.081231
82,0.007565,-0.061135,9.921634,-0.072309,0.022086,-0.021903,-0.319513,-0.032927,2.080394
83,0.004556,-0.065869,9.918697,-0.155562,0.084669,-0.010866,-0.323311,-0.031151,2.079837
85,0.006011,-0.064925,9.916553,-0.111357,0.030702,-0.009563,-0.327760,-0.029230,2.079486
86,0.004321,-0.063449,9.915915,-0.064573,0.038311,-0.014014,-0.330691,-0.028082,2.079086
87,0.001369,-0.063351,9.921165,-0.065445,0.092500,-0.033538,-0.332858,-0.025906,2.078281
88,0.001684,-0.061588,9.922612,-0.003784,0.086185,-0.039745,-0.334011,-0.022935,2.077042
89,-0.000274,-0.061374,9.925228,-0.002762,0.121492,-0.042633,-0.334120,-0.019482,2.075649
90,0.002979,-0.066406,9.929154,-0.105100,0.046781,-0.038478,-0.335917,-0.016686,2.074281
92,0.002581,-0.065585,9.931074,-0.080523,0.052674,-0.032400,-0.339010,-0.015035,2.073089
93,0.009117,-0.062082,9.931546,0.022407,-0.083572,-0.030189,-0.339979,-0.015556,2.072050
94,0.008129,-0.066769,9.929852,-0.088959,-0.067989,-0.030037,-0.341088,-0.018088,2.071061
95,0.008194,-0.065815,9.932743,-0.067022,-0.068072,-0.025417,-0.343687,-0.020361,2.070150
96,0.007296,-0.067597,9.930200,-0.092794,-0.043593,-0.028302,-0.346350,-0.022228,2.069266
97,0.005766,-0.069720,9.930297,-0.138622,0.004492,-0.034164,-0.350207,-0.022886,2.068229
99,0.005247,-0.066127,9.929557,-0.072579,0.020304,-0.035647,-0.353726,-0.022480,2.067063
100,0.010537,-0.053086,9.932396,0.215630,-0.094031,-0.045582,-0.351342,-0.023717,2.065717
101,0.009893,-0.056141,9.930100,0.137775,-0.075279,-0.062230,-0.345451,-0.026549,2.063937
102,0.009598,-0.049008,9.935382,0.255699,-0.053253,-0.066762,-0.338892,-0.028705,2.061800
103,0.011383,-0.057465,9.936277,0.077475,-0.089401,-0.066831,-0.333338,-0.031095,2.059588
104,0.009638,-0.059258,9.934321,0.029243,-0.038278,-0.057380,-0.331558,-0.033235,2.057530
106,0.006477,-0.069009,9.930188,-0.175979,0.046673,-0.040061,-0.334003,-0.033105,2.055906
107,0.008477,-0.064561,9.928407,-0.068768,0.005782,-0.035779,-0.338081,-0.032238,2.054636
108,0.009769,-0.066548,9.923735,-0.096855,-0.015843,-0.032891,-0.340841,-0.032412,2.053493
109,0.012123,-0.060704,9.920992,0.025930,-0.065971,-0.034772,-0.342022,-0.033783,2.052374
110,0.016305,-0.063045,9.924327,-0.024481,-0.151778,-0.029122,-0.341998,-0.037418,2.051330
111,0.017804,-0.060675,9.926157,0.015892,-0.169381,-0.038408,-0.342140,-0.042777,2.050236
113,0.019665,-0.065641,9.926683,-0.076271,-0.174578,-0.027764,-0.343145,-0.048516,2.049168
114,0.015193,-0.065129,9.928770,-0.057612,-0.068758,-0.016424,-0.345376,-0.052576,2.048456
115,0.010148,-0.067414,9.931817,-0.103229,0.054998,-0.012634,-0.348056,-0.052809,2.047973
116,0.003060,-0.071068,9.928082,-0.160621,0.197394,-0.030011,-0.352453,-0.048607,2.047237
117,0.003358,-0.075137,9.927976,-0.224501,0.169092,-0.030088,-0.358871,-0.042505,2.046197
118,0.002276,-0.065387,9.926970,-0.016007,0.160480,-0.037896,-0.362879,-0.037019,2.045030
120,0.004702,-0.068707,9.928226,-0.075016,0.089267,-0.052026,-0.364395,-0.032866,2.043505
121,0.006084,-0.061603,9.925103,0.080991,0.042209,-0.058493,-0.364294,-0.030687,2.041649
122,0.009594,-0.052187,9.930328,0.269970,-0.028626,-0.049937,-0.358444,-0.030472,2.039840
123,0.014751,-0.047754,9.934268,0.336464,-0.127361,-0.038413,-0.348336,-0.033080,2.038384
124,0.017215,-0.056063,9.937826,0.152170,-0.178625,-0.032418,-0.340191,-0.038187,2.037234
125,0.018228,-0.053815,9.940250,0.173914,-0.173584,-0.024790,-0.334756,-0.044063,2.036315
127,0.017539,-0.053436,9.946262,0.166287,-0.132905,-0.024569,-0.329085,-0.049176,2.035522
128,0.016763,-0.060708,9.940600,0.002187,-0.113379,-0.037956,-0.326276,-0.053286,2.034504
129,0.009642,-0.061572,9.936376,-0.030220,0.038430,-0.041595,-0.326742,-0.054543,2.033185
130,0.008118,-0.054045,9.934885,0.109407,0.078142,-0.053746,-0.325421,-0.052609,2.031585
131,0.005884,-0.057576,9.935334,0.021364,0.102759,-0.050405,-0.323240,-0.049604,2.029832
132,0.006766,-0.056310,9.931009,0.031151,0.065249,-0.035325,-0.322364,-0.046812,2.028388
134,0.006614,-0.054910,9.931847,0.045767,0.047892,-0.024703,-0.321081,-0.044932,2.027376
135,0.004654,-0.057413,9.928803,0.004114,0.083931,-0.030578,-0.320249,-0.042740,2.026443
136,0.003477,-0.057446,9.927336,-0.010335,0.106159,-0.027436,-0.320352,-0.039577,2.025458
137,0.004562,-0.057082,9.926512,-0.001208,0.082350,-0.039835,-0.320543,-0.036442,2.024320
138,0.005854,-0.057507,9.928825,-0.010396,0.048369,-0.050720,-0.320736,-0.034272,2.022798
139,0.002350,-0.057675,9.930932,-0.009836,0.117676,-0.053418,-0.321072,-0.031514,2.021047
141,0.006049,-0.058405,9.932929,-0.033867,0.037949,-0.046255,-0.321799,-0.028930,2.019371
142,0.007588,-0.058251,9.934161,-0.011305,-0.006739,-0.040382,-0.322552,-0.028418,2.017924
143,0.009346,-0.059298,9.929496,-0.038027,-0.034985,-0.031430,-0.323373,-0.029120,2.016731
144,0.008142,-0.062846,9.924902,-0.104389,0.000831,-0.026666,-0.325746,-0.029695,2.015766
145,0.013738,-0.059139,9.923911,-0.013721,-0.102676,-0.015134,-0.327715,-0.031396,2.015079
146,0.010393,-0.060825,9.924818,-0.053029,-0.030702,-0.033014,-0.328827,-0.033624,2.014290
147,0.009020,-0.063889,9.923233,-0.097568,0.010870,-0.032775,-0.331336,-0.033960,2.013195
148,0.007460,-0.059235,9.927172,0.017902,0.034455,-0.037228,-0.332663,-0.033212,2.012024
149,0.004514,-0.065325,9.929663,-0.104764,0.080683,-0.041408,-0.334110,-0.031300,2.010702
150,0.000142,-0.063992,9.932352,-0.075548,0.169947,-0.054687,-0.337114,-0.027133,2.009076
151,0.000674,-0.061983,9.935128,-0.021117,0.141617,-0.033500,-0.338725,-0.021949,2.007576
152,0.000285,-0.060011,9.935238,0.007526,0.116102,-0.038161,-0.338951,-0.017661,2.006356
153,0.000144,-0.064339,9.932593,-0.079415,0.103970,-0.036681,-0.340149,-0.014000,2.005087
154,0.003733,-0.060917,9.929638,-0.014168,0.017160,-0.028055,-0.341708,-0.011988,2.003996
155,0.005896,-0.059492,9.927866,0.006110,-0.041241,-0.020738,-0.341842,-0.012394,2.003185
156,0.006644,-0.058337,9.924623,0.041734,-0.055011,-0.033033,-0.341045,-0.014003,2.002298
157,0.006118,-0.062082,9.923176,-0.052178,-0.025074,-0.032916,-0.341218,-0.015345,2.001207
158,0.008187,-0.063214,9.922132,-0.074614,-0.057674,-0.037709,-0.343331,-0.016731,2.000038
159,0.008414,-0.067133,9.926965,-0.138188,-0.052803,-0.037688,-0.346878,-0.018580,1.998793
160,0.009261,-0.073075,9.923861,-0.235685,-0.055925,-0.046875,-0.353108,-0.020400,1.997395
161,0.009810,-0.075528,9.921345,-0.256332,-0.057703,-0.045374,-0.361308,-0.022304,1.995869
162,0.011709,-0.077216,9.924396,-0.256832,-0.097048,-0.053211,-0.369860,-0.024893,1.994242
163,0.007280,-0.078805,9.925524,-0.252862,-0.006161,-0.055635,-0.378354,-0.026625,1.992440
164,0.004487,-0.073754,9.923052,-0.124622,0.054766,-0.059862,-0.384645,-0.025828,1.990509
165,0.003392,-0.078620,9.929069,-0.210752,0.074150,-0.052070,-0.390234,-0.023692,1.988629
166,0.001431,-0.078288,9.931805,-0.191790,0.113935,-0.056446,-0.396942,-0.020570,1.986799
167,-0.002655,-0.082350,9.928123,-0.252581,0.188618,-0.043727,-0.404347,-0.015539,1.985094
168,-0.000445,-0.070541,9.929584,0.018097,0.127945,-0.038142,-0.408255,-0.010273,1.983693
169,-0.000994,-0.072597,9.936568,-0.008726,0.116037,-0.025979,-0.408099,-0.006214,1.982595
170,-0.001212,-0.068567,9.931011,0.092644,0.089484,-0.027586,-0.406700,-0.002795,1.981678
171,-0.000888,-0.067503,9.932461,0.112508,0.061835,-0.018560,-0.403281,-0.000279,1.980891
172,0.001024,-0.060931,9.934772,0.236619,0.020537,-0.015841,-0.397462,0.001090,1.980308
173,0.001502,-0.069072,9.934557,0.035160,0.015240,-0.017464,-0.392933,0.001682,1.979749
174,0.004890,-0.066828,9.930034,0.074674,-0.053772,-0.031678,-0.391102,0.001035,1.978934
175,0.005483,-0.068663,9.932339,0.031535,-0.052824,-0.031742,-0.389332,-0.000749,1.977889
176,0.005207,-0.072755,9.930535,-0.056044,-0.045657,-0.042339,-0.389740,-0.002399,1.976665
177,0.006331,-0.079113,9.933702,-0.171889,-0.062591,-0.043973,-0.393539,-0.004213,1.975240
178,0.005613,-0.076816,9.931274,-0.112702,-0.054036,-0.042309,-0.398282,-0.006166,1.973815
179,0.003969,-0.080794,9.932819,-0.185421,-0.006399,-0.032870,-0.403251,-0.007182,1.972569
180,0.007750,-0.083875,9.931328,-0.241288,-0.071613,-0.033378,-0.410362,-0.008490,1.971474
181,0.008491,-0.075953,9.930360,-0.065841,-0.068346,-0.025861,-0.415481,-0.010830,1.970504
182,0.009453,-0.067671,9.930359,0.110155,-0.082706,-0.029039,-0.414742,-0.013354,1.969607
183,0.011164,-0.068580,9.928946,0.099734,-0.100903,-0.036852,-0.411244,-0.016422,1.968531
184,0.012004,-0.064751,9.924976,0.162819,-0.107314,-0.050643,-0.406868,-0.019903,1.967098
185,0.008140,-0.058508,9.929231,0.269654,-0.027741,-0.054612,-0.399659,-0.022166,1.965359
186,0.008304,-0.057657,9.933812,0.274469,-0.032255,-0.051522,-0.390590,-0.023178,1.963597
187,0.006103,-0.062823,9.933542,0.152222,0.014157,-0.051130,-0.383477,-0.023491,1.961888
188,0.004526,-0.066310,9.938342,0.063712,0.051697,-0.038659,-0.379878,-0.022404,1.960384
189,0.005420,-0.070944,9.939092,-0.036198,0.034429,-0.031133,-0.379419,-0.020976,1.959211
190,0.009928,-0.066559,9.938079,0.065760,-0.053948,-0.030276,-0.378926,-0.021308,1.958190
191,0.012986,-0.069422,9.936574,-0.000071,-0.119181,-0.027602,-0.377831,-0.024200,1.957245
192,0.013166,-0.071413,9.934292,-0.053617,-0.111315,-0.027534,-0.378725,-0.028047,1.956351
193,0.012529,-0.065628,9.931134,0.056679,-0.088202,-0.036570,-0.378673,-0.031380,1.955305
194,0.010975,-0.055484,9.937712,0.246856,-0.054235,-0.040975,-0.373614,-0.033762,1.954028
196,0.006720,-0.060910,9.938851,0.098505,0.035369,-0.041811,-0.367857,-0.034085,1.952650
197,-0.000687,-0.059676,9.935822,0.104450,0.196659,-0.053052,-0.364473,-0.030229,1.951044
198,-0.000434,-0.052567,9.936294,0.237733,0.172009,-0.053242,-0.358770,-0.024095,1.949234
199,-0.002375,-0.049587,9.934926,0.274832,0.182151,-0.048559,-0.350226,-0.018203,1.947501
200,-0.001309,-0.060315,9.929545,0.043055,0.143131,-0.045679,-0.344928,-0.012792,1.945898
201,-0.005124,-0.058201,9.925977,0.074420,0.215063,-0.043815,-0.342969,-0.006831,1.944370
202,-0.001674,-0.062283,9.931953,-0.017201,0.121479,-0.036719,-0.342016,-0.001230,1.942994
203,-0.002551,-0.065462,9.929294,-0.091225,0.121149,-0.033683,-0.343823,0.002807,1.941797
204,0.003217,-0.071947,9.934835,-0.213618,-0.004857,-0.046688,-0.348904,0.004737,1.940445
205,0.000548,-0.068977,9.934057,-0.129995,0.036131,-0.038779,-0.354631,0.005249,1.939018
206,0.002081,-0.064775,9.931665,-0.025502,-0.007321,-0.040503,-0.357222,0.005721,1.937693
207,0.000426,-0.063778,9.928982,0.007904,0.016790,-0.041832,-0.357516,0.005871,1.936320
208,0.000830,-0.061767,9.932360,0.065222,0.009625,-0.035778,-0.356297,0.006303,1.935024
209,-0.000870,-0.064507,9.928117,-0.005613,0.042431,-0.020320,-0.355304,0.007165,1.934084
210,0.002963,-0.060504,9.924321,0.062131,-0.036522,-0.031492,-0.354362,0.007258,1.933219
211,0.005096,-0.068833,9.925944,-0.094002,-0.069299,-0.028729,-0.354893,0.005488,1.932227
212,0.008572,-0.070732,9.927819,-0.140998,-0.131845,-0.036756,-0.358810,0.002129,1.931156
213,0.012508,-0.070301,9.928854,-0.127674,-0.198144,-0.053967,-0.363288,-0.003381,1.929679
214,0.011566,-0.065297,9.931116,-0.012216,-0.158374,-0.056788,-0.365619,-0.009334,1.927871
215,0.011704,-0.066344,9.930880,-0.020677,-0.134327,-0.049045,-0.366167,-0.014224,1.926138
216,0.011059,-0.063213,9.930981,0.030729,-0.108855,-0.048866,-0.365999,-0.018287,1.924532
217,0.010168,-0.059736,9.931198,0.111076,-0.072136,-0.050209,-0.363635,-0.021314,1.922900
218,0.008099,-0.058835,9.932485,0.121187,-0.015221,-0.040724,-0.359763,-0.022779,1.921393
219,0.007758,-0.059891,9.932240,0.101578,-0.007828,-0.049786,-0.356050,-0.023173,1.919888
220,0.006463,-0.059635,9.938844,0.106779,0.015174,-0.055711,-0.352577,-0.023061,1.918129
221,0.004707,-0.061654,9.937853,0.049192,0.039506,-0.058523,-0.349976,-0.022162,1.916219
222,0.005988,-0.061264,9.940165,0.052821,0.008997,-0.051070,-0.348275,-0.021365,1.914388
223,0.004813,-0.069911,9.938596,-0.123264,0.022251,-0.052400,-0.349449,-0.020854,1.912660
224,0.003022,-0.065326,9.933491,-0.030445,0.055042,-0.053753,-0.352010,-0.019577,1.910883
225,0.002801,-0.066380,9.933249,-0.056573,0.058089,-0.049174,-0.353460,-0.017702,1.909156
226,0.005734,-0.061438,9.932809,0.052763,0.004509,-0.055718,-0.353523,-0.016669,1.907402
227,0.002566,-0.061186,9.927689,0.051330,0.067866,-0.053821,-0.351787,-0.015475,1.905569
228,0.005410,-0.050076,9.927355,0.262056,0.010800,-0.057311,-0.346564,-0.014175,1.903708
229,0.008859,-0.056007,9.935264,0.121889,-0.066370,-0.053137,-0.340164,-0.015112,1.901873
230,0.007840,-0.057905,9.932960,0.065514,-0.041090,-0.054493,-0.337040,-0.016913,1.900090
231,0.007005,-0.060812,9.935602,0.000792,-0.016408,-0.036020,-0.335935,-0.017881,1.898587
232,0.010992,-0.062371,9.934956,-0.034655,-0.095090,-0.027304,-0.336499,-0.019745,1.897543
233,0.008019,-0.065097,9.935992,-0.092196,-0.028600,-0.025369,-0.338613,-0.021812,1.896677
234,0.007814,-0.066968,9.935390,-0.118133,-0.008125,-0.020710,-0.342118,-0.022428,1.895913
235,0.008057,-0.067080,9.935274,-0.100590,-0.015491,-0.028364,-0.345763,-0.022827,1.895098
236,0.006103,-0.066290,9.937045,-0.071716,0.011601,-0.034237,-0.348634,-0.022898,1.894055
237,0.003217,-0.065646,9.936991,-0.039577,0.062452,-0.032366,-0.350489,-0.021671,1.892937
238,0.001921,-0.065913,9.935642,-0.028023,0.084317,-0.033761,-0.351615,-0.019231,1.891820
239,0.000475,-0.063279,9.933561,0.036406,0.114139,-0.039760,-0.351475,-0.015931,1.890574
240,0.006259,-0.055613,9.932203,0.179849,-0.018770,-0.031437,-0.347870,-0.014349,1.889378
241,0.008019,-0.057586,9.928383,0.130041,-0.049266,-0.030142,-0.342705,-0.015489,1.888359
242,0.008237,-0.056184,9.928504,0.129642,-0.049730,-0.043871,-0.338377,-0.017146,1.887135
243,0.010257,-0.056714,9.930350,0.108602,-0.090855,-0.039486,-0.334406,-0.019498,1.885759
244,0.010957,-0.056576,9.931567,0.093068,-0.107487,-0.039508,-0.331044,-0.022811,1.884462
245,0.004122,-0.057397,9.932530,0.078578,0.048189,-0.044729,-0.328183,-0.023807,1.883064
246,0.006882,-0.058733,9.933668,0.040192,-0.011673,-0.041961,-0.326203,-0.023207,1.881615
247,0.008218,-0.061605,9.935386,-0.024532,-0.031593,-0.034469,-0.325941,-0.023935,1.880346
248,0.009035,-0.064645,9.931430,-0.091965,-0.050228,-0.028417,-0.327882,-0.025305,1.879306
249,0.006477,-0.069124,9.930309,-0.183492,-0.001462,-0.017375,-0.332473,-0.026171,1.878547
250,0.007917,-0.076439,9.929026,-0.326169,-0.018402,-0.015940,-0.340967,-0.026505,1.877994
251,0.003206,-0.075701,9.930866,-0.281422,0.077914,-0.024552,-0.351093,-0.025517,1.877313
252,0.004246,-0.078958,9.928362,-0.307736,0.045814,-0.017058,-0.360912,-0.023460,1.876607
253,0.002707,-0.073967,9.930492,-0.183071,0.078869,-0.024606,-0.369092,-0.021386,1.875900
254,0.004520,-0.067639,9.931596,-0.018952,0.033489,-0.031054,-0.372459,-0.019519,1.874960
255,0.004007,-0.061908,9.936756,0.104612,0.015986,-0.038706,-0.371031,-0.018702,1.873792
256,0.005456,-0.062926,9.937026,0.066916,-0.010022,-0.048060,-0.368171,-0.018612,1.872345
257,0.003164,-0.058625,9.942277,0.136730,0.038991,-0.063047,-0.364777,-0.018141,1.870491
258,0.005520,-0.062204,9.940279,0.055493,-0.008684,-0.061807,-0.361572,-0.017649,1.868407
259,0.008543,-0.060773,9.936956,0.072751,-0.066907,-0.057627,-0.359434,-0.018922,1.866424
260,0.006070,-0.066681,9.931260,-0.045585,0.002601,-0.043509,-0.358981,-0.020004,1.864745
261,0.009320,-0.069978,9.933616,-0.098206,-0.065334,-0.033188,-0.361377,-0.021058,1.863474
262,0.010139,-0.069898,9.926400,-0.061836,-0.075335,-0.030224,-0.364044,-0.023409,1.862432
263,0.003159,-0.068051,9.926510,-0.019812,0.079976,-0.041503,-0.365404,-0.023339,1.861236
264,0.000480,-0.074266,9.927198,-0.155831,0.124717,-0.048739,-0.368331,-0.019937,1.859710
265,0.006544,-0.070775,9.927180,-0.082788,-0.002048,-0.055745,-0.372308,-0.017904,1.857955
266,0.000970,-0.064031,9.924654,0.065469,0.104946,-0.049012,-0.372596,-0.016200,1.856198
267,0.003943,-0.065465,9.927844,0.019615,0.038945,-0.044855,-0.371177,-0.013812,1.854618
268,0.008391,-0.068624,9.930101,-0.050393,-0.068407,-0.031741,-0.371690,-0.014312,1.853345
269,0.009559,-0.066622,9.930239,-0.005131,-0.075046,-0.024265,-0.372615,-0.016709,1.852427
270,0.010073,-0.064951,9.934704,0.040057,-0.087696,-0.028867,-0.372033,-0.019427,1.851559
271,0.010272,-0.066891,9.939532,-0.002021,-0.083692,-0.036445,-0.371398,-0.022290,1.850489
272,0.009473,-0.067790,9.946148,-0.024548,-0.052906,-0.043894,-0.371841,-0.024575,1.849165
273,0.010164,-0.072793,9.944605,-0.121097,-0.065029,-0.045414,-0.374267,-0.026551,1.847690
274,0.009034,-0.067935,9.943368,-0.007240,-0.039980,-0.051372,-0.376405,-0.028311,1.846088
275,0.005139,-0.070119,9.941254,-0.051769,0.044688,-0.044696,-0.377388,-0.028243,1.844486
276,0.005405,-0.065620,9.934861,0.033914,0.039011,-0.041728,-0.377685,-0.026858,1.843037
277,0.001344,-0.068308,9.927924,-0.017227,0.117649,-0.030512,-0.377406,-0.024255,1.841815
278,0.002807,-0.063609,9.929989,0.081549,0.092757,-0.033861,-0.376334,-0.020755,1.840719
279,0.005331,-0.071253,9.928726,-0.076771,0.031050,-0.025063,-0.376254,-0.018698,1.839724
280,0.005552,-0.072511,9.931264,-0.114354,0.016344,-0.026661,-0.379439,-0.017914,1.838857
281,0.007924,-0.079563,9.931684,-0.242577,-0.031269,-0.026960,-0.385388,-0.018169,1.837965
282,0.004790,-0.071810,9.933659,-0.072652,0.013050,-0.025068,-0.390641,-0.018478,1.837100
283,0.002824,-0.070551,9.935790,-0.022478,0.040092,-0.014124,-0.392227,-0.017597,1.836441
284,-0.002683,-0.066668,9.939899,0.063513,0.140529,-0.016463,-0.391542,-0.014590,1.835910
285,-0.001445,-0.068167,9.938600,0.050541,0.109658,-0.021275,-0.389641,-0.010425,1.835253
286,-0.003734,-0.066125,9.937348,0.081873,0.138267,-0.016491,-0.387434,-0.006297,1.834595
287,-0.002474,-0.070870,9.937743,-0.018502,0.119799,-0.019804,-0.386378,-0.002000,1.833961
288,-0.003318,-0.071461,9.938693,-0.035552,0.135553,-0.028951,-0.387279,0.002250,1.833120
289,0.002696,-0.076905,9.942791,-0.153873,0.002415,-0.025305,-0.390436,0.004543,1.832200
290,0.003907,-0.069432,9.942917,0.006329,-0.034650,-0.010264,-0.392895,0.004002,1.831611
291,0.004260,-0.064045,9.946527,0.125585,-0.035312,-0.013348,-0.390697,0.002833,1.831225
292,0.007243,-0.069243,9.944182,0.024987,-0.100611,-0.007630,-0.388187,0.000565,1.830891
293,0.008359,-0.068317,9.940585,0.035894,-0.119895,-0.009247,-0.387173,-0.003111,1.830635
294,0.005518,-0.068388,9.938124,0.050395,-0.051334,-0.014873,-0.385734,-0.005968,1.830252
295,0.004299,-0.070542,9.933165,0.007268,-0.018349,-0.019210,-0.384773,-0.007133,1.829692
296,0.004389,-0.077058,9.933301,-0.126156,-0.025273,-0.019176,-0.386755,-0.007864,1.829057
297,0.003604,-0.063341,9.932775,0.137749,-0.009949,-0.034349,-0.386561,-0.008457,1.828169
299,0.001521,-0.060700,9.933333,0.182877,0.026541,-0.034060,-0.381217,-0.008189,1.827027
300,0.003193,-0.056967,9.929981,0.237693,0.007075,-0.028194,-0.374208,-0.007635,1.825986
301,-0.002705,-0.058221,9.933011,0.188270,0.127289,-0.027416,-0.367108,-0.005402,1.825044
302,-0.000547,-0.058297,9.933050,0.166528,0.082037,-0.027748,-0.361195,-0.001919,1.824103
303,0.000542,-0.069436,9.935022,-0.066562,0.052448,-0.029477,-0.359529,0.000316,1.823135
304,0.001738,-0.074905,9.932164,-0.174151,0.031147,-0.020529,-0.363541,0.001704,1.822293
305,0.000097,-0.070733,9.933812,-0.084894,0.048728,-0.029510,-0.367858,0.003030,1.821450
306,0.006813,-0.073960,9.936833,-0.134555,-0.094530,-0.039573,-0.371516,0.002260,1.820304
307,0.003248,-0.068319,9.937479,-0.020105,-0.015361,-0.034513,-0.374093,0.000420,1.819081
308,0.004830,-0.061422,9.937372,0.134179,-0.039362,-0.023999,-0.372192,-0.000498,1.818112
309,0.004127,-0.050806,9.942638,0.339321,-0.021961,-0.031514,-0.364300,-0.001526,1.817193
310,0.008843,-0.055822,9.944784,0.201724,-0.115026,-0.041243,-0.355283,-0.003817,1.815995
311,0.007640,-0.052723,9.941984,0.227853,-0.082870,-0.033394,-0.348123,-0.007123,1.814771
312,0.011125,-0.060118,9.940255,0.042790,-0.144763,-0.033722,-0.343612,-0.010923,1.813675
313,0.006354,-0.061607,9.940052,-0.004597,-0.041390,-0.040672,-0.342975,-0.014033,1.812454
314,0.004234,-0.069354,9.936656,-0.171275,0.010678,-0.050991,-0.345906,-0.014554,1.810929
315,-0.001153,-0.066224,9.932936,-0.086222,0.130388,-0.039660,-0.350198,-0.012213,1.809404
316,-0.002952,-0.060996,9.936266,0.028618,0.158532,-0.039514,-0.351157,-0.007405,1.808055
317,-0.004835,-0.061049,9.933822,0.048914,0.167580,-0.043960,-0.349865,-0.001979,1.806631
318,0.000895,-0.059773,9.934284,0.073260,0.040576,-0.040208,-0.347829,0.001482,1.805207
319,0.004519,-0.060759,9.933268,0.049159,-0.052352,-0.023940,-0.345789,0.001279,1.804139
320,0.004315,-0.065288,9.935323,-0.067478,-0.056707,-0.031539,-0.346094,-0.000544,1.803226
321,0.008752,-0.071854,9.933249,-0.199316,-0.136926,-0.030512,-0.350540,-0.003777,1.802211
322,0.012188,-0.068186,9.932459,-0.112961,-0.182883,-0.030874,-0.355745,-0.009114,1.801221
323,0.007790,-0.069443,9.931056,-0.134127,-0.089256,-0.028687,-0.359863,-0.013656,1.800257
324,0.009956,-0.069638,9.930614,-0.113104,-0.108016,-0.036491,-0.363983,-0.016950,1.799191
325,0.008956,-0.066169,9.930106,-0.010442,-0.076367,-0.027163,-0.366042,-0.020030,1.798150
326,0.008040,-0.060716,9.930078,0.114504,-0.047142,-0.031595,-0.364307,-0.022095,1.797184
327,0.006222,-0.055017,9.934250,0.222512,0.001394,-0.032883,-0.358690,-0.022864,1.796113
328,0.004845,-0.059812,9.934718,0.109220,0.034923,-0.035695,-0.353161,-0.022266,1.794967
329,0.003585,-0.060905,9.931684,0.064392,0.055185,-0.032482,-0.350267,-0.020771,1.793821
330,0.005496,-0.066821,9.929563,-0.067026,0.020493,-0.034228,-0.350310,-0.019516,1.792702
331,0.002844,-0.073511,9.928806,-0.218967,0.071175,-0.033885,-0.355076,-0.017996,1.791557
332,0.001282,-0.077182,9.924207,-0.272707,0.089768,-0.035235,-0.363270,-0.015321,1.790388
333,0.005826,-0.069056,9.925356,-0.082832,-0.002246,-0.043568,-0.369196,-0.013870,1.789066
334,0.003332,-0.073159,9.927851,-0.141638,0.040011,-0.040219,-0.372937,-0.013250,1.787665
335,0.000168,-0.069612,9.927665,-0.050892,0.098701,-0.038314,-0.376145,-0.010947,1.786341
336,-0.000288,-0.068532,9.933438,-0.004877,0.093764,-0.038314,-0.377074,-0.007747,1.785043
337,-0.000925,-0.068987,9.936562,-0.001249,0.106123,-0.045935,-0.377176,-0.004425,1.783617
338,-0.007038,-0.075635,9.934658,-0.132359,0.217935,-0.036037,-0.379403,0.000967,1.782215
339,-0.008129,-0.069232,9.937636,-0.019387,0.228741,-0.045183,-0.381932,0.008402,1.780812
340,-0.006314,-0.065217,9.940914,0.072430,0.161537,-0.051692,-0.381049,0.014896,1.779154
341,-0.004948,-0.061748,9.934062,0.140006,0.115935,-0.055060,-0.377509,0.019508,1.777344
342,-0.002226,-0.065554,9.931830,0.056615,0.035706,-0.043348,-0.374232,0.022025,1.775688
343,0.003735,-0.064500,9.933141,0.066602,-0.104169,-0.042660,-0.372179,0.020875,1.774262
344,0.005238,-0.065314,9.929314,0.051628,-0.135182,-0.036731,-0.370209,0.016877,1.772964
345,0.006627,-0.064916,9.932471,0.040973,-0.137081,-0.018504,-0.368666,0.012333,1.772073
346,0.003234,-0.062997,9.933128,0.063717,-0.054271,-0.022526,-0.366921,0.009140,1.771410
347,0.000803,-0.061407,9.933925,0.076091,-0.003209,-0.026710,-0.364591,0.008177,1.770595
348,-0.000441,-0.059327,9.935102,0.113145,0.032886,-0.032627,-0.361437,0.008665,1.769603
349,-0.000096,-0.062434,9.939213,0.055198,0.028779,-0.035743,-0.358632,0.009686,1.768457
350,0.000481,-0.065361,9.935253,-0.009638,-0.003240,-0.049582,-0.357873,0.010102,1.767033
351,0.006175,-0.068867,9.934521,-0.087784,-0.119680,-0.045745,-0.359497,0.008044,1.765456
352,0.007065,-0.065580,9.936096,-0.027800,-0.124392,-0.045802,-0.361423,0.003966,1.763956
353,0.006065,-0.068296,9.933192,-0.067160,-0.093101,-0.041012,-0.363006,0.000332,1.762532
354,0.002514,-0.062431,9.932632,0.042951,-0.022478,-0.037422,-0.363409,-0.001602,1.761238
355,0.000767,-0.061797,9.928381,0.053584,0.016489,-0.028000,-0.361800,-0.001709,1.760148
356,-0.002051,-0.064885,9.927252,-0.000837,0.078370,-0.020007,-0.360921,-0.000133,1.759338
357,-0.000570,-0.066265,9.925595,-0.019834,0.052111,-0.017180,-0.361266,0.002038,1.758704
358,-0.000267,-0.064151,9.927524,0.018204,0.046023,-0.011164,-0.361293,0.003670,1.758221
359,-0.000228,-0.064979,9.925598,0.007404,0.048676,-0.012733,-0.360866,0.005246,1.757813
360,0.001775,-0.065964,9.929011,-0.012033,0.024055,-0.014551,-0.360943,0.006455,1.757351
361,0.001057,-0.067596,9.930569,-0.046077,0.025147,-0.008388,-0.361912,0.007273,1.756964
362,0.000140,-0.070639,9.930679,-0.095024,0.037734,-0.009825,-0.364264,0.008319,1.756653
363,0.005852,-0.067274,9.930293,-0.006748,-0.088944,-0.010575,-0.365960,0.007463,1.756319
364,0.008377,-0.068964,9.931427,-0.040929,-0.133947,-0.010888,-0.366755,0.003746,1.755985
365,0.005864,-0.073174,9.935368,-0.127216,-0.071754,-0.005904,-0.369557,0.000316,1.755727
366,0.005631,-0.067920,9.938124,-0.000369,-0.055074,-0.014946,-0.371684,-0.001800,1.755393
367,0.005886,-0.070928,9.940063,-0.074752,-0.054370,-0.017983,-0.372936,-0.003627,1.754856
368,0.000772,-0.073818,9.940098,-0.145526,0.059744,-0.024895,-0.376607,-0.003542,1.754141
369,0.001693,-0.078812,9.939281,-0.219927,0.039333,-0.015858,-0.382698,-0.001896,1.753451
370,0.001009,-0.068728,9.935150,0.004182,0.032092,-0.034133,-0.386293,-0.000711,1.752609
371,0.000546,-0.064584,9.929830,0.090553,0.047961,-0.027998,-0.384714,0.000616,1.751565
372,0.000854,-0.058890,9.927773,0.187609,0.038612,-0.021965,-0.380078,0.002054,1.750723
373,0.002538,-0.056780,9.925269,0.198534,0.004113,-0.026796,-0.373643,0.002760,1.749905
374,0.003641,-0.052551,9.927811,0.254196,-0.026764,-0.039152,-0.366097,0.002376,1.748809
375,0.007949,-0.060732,9.928027,0.053484,-0.109438,-0.038173,-0.360969,0.000098,1.747535
376,0.012482,-0.062716,9.931608,0.008140,-0.194557,-0.047842,-0.359942,-0.004978,1.746133
377,0.013245,-0.065959,9.931750,-0.024310,-0.193840,-0.060025,-0.360211,-0.011462,1.744376
378,0.012342,-0.065828,9.936193,-0.015585,-0.166644,-0.056709,-0.360876,-0.017483,1.742468
379,0.010874,-0.061334,9.933746,0.084751,-0.114563,-0.047259,-0.359723,-0.022180,1.740765
380,0.006308,-0.059681,9.932816,0.112463,-0.010590,-0.052692,-0.356435,-0.024276,1.739112
381,0.001151,-0.065269,9.930083,-0.019852,0.094750,-0.045841,-0.354891,-0.022884,1.737461
382,0.000022,-0.067060,9.926933,-0.075631,0.111183,-0.027405,-0.356482,-0.019459,1.736219
383,-0.003472,-0.076076,9.928698,-0.250483,0.175920,-0.026985,-0.361917,-0.014680,1.735283
384,0.002323,-0.079455,9.929172,-0.295199,0.040664,-0.023250,-0.371011,-0.011076,1.734422
385,0.001001,-0.081096,9.931080,-0.285673,0.066965,-0.009446,-0.380692,-0.009286,1.733865
386,0.000246,-0.079358,9.931906,-0.215182,0.082059,-0.015508,-0.389040,-0.006805,1.733433
387,0.001202,-0.072575,9.933836,-0.064083,0.060190,-0.015726,-0.393694,-0.004438,1.732896
388,0.004969,-0.063109,9.929184,0.138115,-0.016575,-0.019378,-0.392460,-0.003715,1.732306
389,0.000380,-0.057631,9.926075,0.230405,0.068974,-0.034024,-0.386318,-0.002847,1.731410
390,0.001568,-0.051940,9.921143,0.318901,0.032763,-0.035734,-0.377163,-0.001160,1.730236
391,0.002655,-0.051577,9.920197,0.277450,-0.007344,-0.026750,-0.367224,-0.000743,1.729192
392,0.000471,-0.057559,9.919569,0.141599,0.029227,-0.037145,-0.360240,-0.000385,1.728125
393,-0.002352,-0.060067,9.918198,0.063274,0.083532,-0.041370,-0.356825,0.001486,1.726805
394,-0.000743,-0.065494,9.920046,-0.045953,0.050568,-0.032461,-0.356536,0.003714,1.725560
395,-0.001015,-0.072130,9.920538,-0.165841,0.052852,-0.035540,-0.360066,0.005430,1.724416
396,-0.000697,-0.073028,9.924402,-0.175741,0.044989,-0.035624,-0.365760,0.007053,1.723220
397,0.004083,-0.072815,9.925212,-0.136228,-0.060346,-0.034755,-0.370959,0.006790,1.722048
398,0.007402,-0.069613,9.924663,-0.044332,-0.125029,-0.027553,-0.373969,0.003693,1.721030
399,0.006425,-0.069969,9.926332,-0.051486,-0.089927,-0.034986,-0.375566,0.000104,1.720011
400,0.010234,-0.057628,9.932882,0.198084,-0.155787,-0.032353,-0.373122,-0.003998,1.718916
402,0.012508,-0.061920,9.928956,0.110069,-0.190594,-0.034081,-0.367986,-0.009778,1.717845
403,0.006150,-0.055967,9.931841,0.182183,-0.031317,-0.027025,-0.363115,-0.013483,1.716851
404,0.002797,-0.059267,9.934920,0.112665,0.047816,-0.028023,-0.358201,-0.013214,1.715932
405,0.003395,-0.056482,9.932154,0.157509,0.027147,-0.017430,-0.353698,-0.011969,1.715166
406,0.002616,-0.066295,9.929268,-0.056760,0.030867,-0.017311,-0.352019,-0.011006,1.714581
407,-0.001122,-0.059591,9.932560,0.080764,0.113672,-0.032153,-0.351618,-0.008602,1.713742
408,0.004019,-0.060935,9.926390,0.063680,-0.007737,-0.043519,-0.349211,-0.006844,1.712470
409,0.007886,-0.065847,9.929122,-0.042109,-0.098111,-0.039440,-0.348851,-0.008617,1.711098
410,0.007845,-0.074209,9.931911,-0.222597,-0.084993,-0.048523,-0.353263,-0.011678,1.709651
411,0.004480,-0.073690,9.931970,-0.195269,0.002772,-0.048039,-0.360227,-0.013058,1.708050
412,0.008112,-0.071906,9.927693,-0.135606,-0.065838,-0.028647,-0.365741,-0.014117,1.706779
413,0.004994,-0.075431,9.931260,-0.177907,-0.003733,-0.029742,-0.370966,-0.015283,1.705813
414,0.002016,-0.070412,9.924928,-0.077587,0.065020,-0.036987,-0.375224,-0.014269,1.704694
415,-0.002358,-0.065842,9.924477,0.041763,0.145294,-0.036460,-0.375821,-0.010772,1.703447
416,0.000715,-0.058421,9.928614,0.198894,0.063370,-0.041553,-0.371810,-0.007302,1.702125
417,-0.000101,-0.069487,9.929587,-0.036972,0.063142,-0.046066,-0.369111,-0.005203,1.700651
418,0.000740,-0.071552,9.931536,-0.083319,0.049503,-0.049276,-0.371115,-0.003336,1.699049
419,0.000931,-0.070715,9.934189,-0.054511,0.034539,-0.049349,-0.373413,-0.001946,1.697397
420,0.001348,-0.074319,9.933722,-0.131574,0.021249,-0.043333,-0.376514,-0.001027,1.695845
421,0.001124,-0.079245,9.929029,-0.224077,0.034739,-0.044853,-0.382441,-0.000103,1.694370
422,-0.000772,-0.075071,9.931757,-0.130934,0.077424,-0.052256,-0.388358,0.001755,1.692739
423,0.001218,-0.071080,9.931182,-0.038944,0.036840,-0.037313,-0.391190,0.003649,1.691233
424,0.000702,-0.077835,9.932031,-0.160782,0.048245,-0.043404,-0.394518,0.005058,1.689878
425,0.007885,-0.076539,9.931436,-0.132300,-0.101766,-0.047492,-0.399403,0.004156,1.688370
426,0.006848,-0.078660,9.930577,-0.150621,-0.083863,-0.044287,-0.404119,0.001051,1.686862
427,0.011311,-0.076279,9.926194,-0.077638,-0.173991,-0.037218,-0.407923,-0.003256,1.685534
428,0.008400,-0.075854,9.928189,-0.055485,-0.112377,-0.038226,-0.410142,-0.008037,1.684310
429,0.012344,-0.075427,9.928621,-0.037549,-0.172328,-0.017313,-0.411692,-0.012789,1.683419
430,0.005392,-0.076714,9.929824,-0.044241,-0.015346,-0.019232,-0.413055,-0.015921,1.682832
431,0.004482,-0.076696,9.934869,-0.042949,0.014015,-0.017491,-0.414508,-0.015948,1.682220
