seq,ax,ay,az,wroll,wpitch,wyaw,roll,pitch,yaw,q0,q1,q2,q3
61,0.776539,-8.962157,0.035727,-30.463236,-0.584946,5.160572,-89.771683,-4.951992,87.356018,0.532996,-0.488768,-0.509039,0.466798
62,0.107137,-7.678154,-5.694503,-153.161865,-18.869167,33.791569,-92.856369,-4.295771,87.666168,0.515664,-0.504376,-0.520049,0.457433
63,0.000144,-7.426669,-5.738002,-137.910370,-16.773113,35.985687,-97.732094,-3.086195,88.151199,0.486531,-0.528579,-0.536449,0.442848
64,-0.134403,-7.141312,-5.518179,-112.674484,-13.045135,35.082726,-101.912796,-1.836488,88.440475,0.460058,-0.549498,-0.548827,0.430335
65,-0.419664,-7.107518,-5.768294,-95.545212,-12.097883,38.766403,-105.380592,-0.542796,88.558914,0.436575,-0.567429,-0.557344,0.420468
66,-0.575049,-7.593800,-5.951335,-74.664268,-12.896541,39.573212,-108.214355,0.826502,88.582787,0.415560,-0.582816,-0.562668,0.413569
67,-0.899583,-7.844192,-6.106666,-61.039875,-13.490535,34.195587,-110.474327,2.131215,88.592766,0.397359,-0.595295,-0.566036,0.409063
68,-1.225523,-7.886229,-5.492496,-46.376831,-12.087829,26.389486,-112.262611,3.225946,88.622375,0.382289,-0.604861,-0.568568,0.405868
69,-1.650808,-8.053782,-4.796932,-27.914017,-12.658492,25.231760,-113.497620,4.178448,88.668106,0.370628,-0.611740,-0.569736,0.404734
70,-1.845978,-8.391514,-4.524458,-11.921522,-12.334577,15.994852,-114.153130,4.975008,88.773117,0.362568,-0.615800,-0.569744,0.405865
71,-1.915445,-9.078688,-4.221534,10.002810,-9.718392,1.564256,-114.165771,5.392146,88.990097,0.359528,-0.616046,-0.569447,0.408603
72,-2.022645,-9.518482,-4.852078,12.564356,-4.072488,-4.553649,-113.768097,5.439630,89.222031,0.360581,-0.613791,-0.569096,0.411547
73,-2.082577,-10.021801,-5.813962,4.786789,1.112760,-2.519500,-113.470291,5.351269,89.315094,0.362306,-0.612115,-0.568844,0.412874
74,-1.763447,-10.390106,-6.964257,-13.492008,8.406089,-7.441137,-113.622665,5.135639,89.235695,0.362916,-0.612319,-0.569751,0.410780
75,-1.340647,-10.204328,-7.270807,-32.682663,16.447275,-11.406455,-114.413750,4.680074,88.984489,0.361977,-0.614658,-0.572859,0.403733
76,-0.895111,-9.185391,-7.508032,-61.823975,24.582083,-12.241404,-116.023033,4.032234,88.532776,0.358292,-0.619998,-0.578296,0.390901
77,-0.414877,-8.345910,-6.843213,-76.262039,29.970417,-12.798883,-118.363121,3.245741,87.914711,0.351766,-0.628033,-0.585426,0.372978
78,-0.097125,-7.791666,-6.570502,-79.979103,31.458162,-13.749931,-120.998573,2.355079,87.244293,0.344061,-0.636899,-0.593001,0.352606
79,0.155607,-7.193311,-6.133864,-74.664680,30.277193,-14.755874,-123.594505,1.404409,86.628487,0.336425,-0.645147,-0.600298,0.332033
80,0.186902,-6.699028,-5.931885,-66.105530,24.999132,-10.884300,-125.947838,0.528510,86.115318,0.329204,-0.652302,-0.606642,0.313230
81,0.124456,-6.379159,-5.767832,-53.704441,17.319416,-6.479225,-127.945183,-0.126384,85.726303,0.322307,-0.658315,-0.611616,0.297768
82,0.084761,-6.198487,-5.752103,-39.965775,9.213687,-3.397191,-129.504532,-0.531434,85.484947,0.316094,-0.662905,-0.615315,0.286406
83,0.233760,-6.017119,-5.584373,-25.117777,5.797500,-5.935696,-130.588013,-0.811674,85.393982,0.311537,-0.665652,-0.618209,0.278693
84,0.380802,-6.126075,-5.488664,-10.311563,3.314938,-9.898900,-131.179352,-1.110824,85.451630,0.309566,-0.666192,-0.620754,0.273901
85,0.541334,-6.525395,-5.361547,6.229381,2.924595,-15.554873,-131.251846,-1.498711,85.652580,0.310748,-0.664323,-0.623095,0.271778
86,1.067643,-7.120087,-5.467377,16.675936,8.985617,-25.565857,-130.879593,-2.146076,85.952797,0.315661,-0.660017,-0.625607,0.270835
87,1.417726,-7.838743,-5.695293,20.804234,12.642147,-31.583958,-130.270966,-3.104101,86.298714,0.323461,-0.653914,-0.628589,0.269529
88,1.598564,-8.449245,-5.853989,21.041702,13.748374,-33.099533,-129.596375,-4.212978,86.654144,0.332365,-0.647021,-0.631815,0.267782
89,1.672586,-8.739787,-5.830519,21.524628,13.057561,-30.488707,-128.914124,-5.316152,86.979965,0.341285,-0.640120,-0.634801,0.266079
90,1.833477,-8.561571,-5.883205,17.481806,12.891714,-28.404480,-128.292145,-6.352974,87.255623,0.349570,-0.633714,-0.637448,0.264325
91,1.630828,-8.156179,-5.501498,18.244511,8.391681,-21.442471,-127.724472,-7.225863,87.489525,0.356735,-0.628066,-0.639559,0.263130
92,1.553979,-7.814488,-5.204482,20.000546,2.947976,-13.842467,-127.114296,-7.807754,87.698135,0.362625,-0.623217,-0.640708,0.263812
93,1.505037,-7.327369,-4.941159,18.636074,-1.576284,-7.144441,-126.496910,-8.101523,87.890717,0.367055,-0.619266,-0.641040,0.266175
94,1.589134,-7.249520,-5.007055,15.509474,-4.516833,-1.414897,-125.951431,-8.156587,88.058266,0.369890,-0.616402,-0.640803,0.269446
95,1.364260,-7.515391,-5.337679,11.130754,-12.337779,9.405890,-125.528496,-7.884410,88.209702,0.370391,-0.615047,-0.639941,0.273867
96,1.056607,-7.801820,-5.719766,5.961671,-19.137346,19.781166,-125.262711,-7.183988,88.356316,0.367822,-0.615578,-0.638327,0.279839
97,0.692206,-8.051088,-5.905465,3.190080,-23.306784,29.291323,-125.122398,-6.107936,88.463234,0.362690,-0.617891,-0.635799,0.287100
98,0.222826,-8.406683,-6.114391,1.890615,-26.881157,38.110134,-125.041145,-4.708069,88.501945,0.355667,-0.621714,-0.632127,0.295614
99,-0.568914,-8.418546,-6.113184,-0.426785,-32.676456,46.922352,-125.016457,-2.978158,88.501122,0.346631,-0.626824,-0.627384,0.305497
100,-1.243043,-8.255072,-5.854064,-0.357639,-35.476849,52.138866,-125.028877,-0.974771,88.483482,0.335891,-0.632778,-0.621727,0.316582
101,-1.629605,-8.268888,-5.723070,0.941939,-34.097202,51.043884,-125.019081,1.098299,88.446114,0.324852,-0.638770,-0.615504,0.328023
102,-1.876491,-8.075305,-5.674257,0.122679,-30.107977,45.395981,-125.002907,3.028056,88.400574,0.314560,-0.644196,-0.609442,0.338591
103,-2.040365,-7.826245,-5.506216,0.803569,-24.933472,38.731571,-124.991005,4.702311,88.347679,0.305595,-0.648830,-0.603969,0.347639
104,-1.971363,-7.811849,-5.449204,2.609215,-21.103258,36.354939,-124.942459,6.167272,88.258965,0.298053,-0.652892,-0.598708,0.355591
105,-1.838991,-7.808257,-5.497663,0.833676,-10.446779,24.615086,-124.902618,7.301300,88.107567,0.292466,-0.656385,-0.594080,0.361513
106,-1.827835,-7.636456,-5.474725,-3.486185,-3.670810,17.813597,-124.975021,8.015658,87.893501,0.288759,-0.659407,-0.590755,0.364430
107,-1.842440,-7.745681,-5.408941,-3.292253,2.678543,9.673382,-125.123795,8.400119,87.641129,0.286566,-0.661996,-0.588513,0.365094
108,-1.854661,-7.896070,-5.497020,-4.377701,4.906365,6.028030,-125.289291,8.541066,87.384087,0.285643,-0.664060,-0.587089,0.364361
109,-1.870332,-7.957476,-5.548495,-4.717966,6.024107,4.283380,-125.478142,8.575667,87.133202,0.285152,-0.665895,-0.586119,0.362956
110,-1.719465,-7.936613,-5.574124,-4.034460,8.965456,0.584339,-125.661552,8.496329,86.879959,0.285324,-0.667462,-0.585486,0.360959
111,-1.531310,-7.967644,-5.667522,-3.880999,12.129384,-3.823656,-125.830757,8.247135,86.623383,0.286521,-0.668619,-0.585337,0.358101
112,-1.189943,-7.888157,-5.719355,-6.341010,16.365952,-11.671383,-126.033791,7.759338,86.388031,0.288757,-0.669201,-0.586181,0.353810
113,-0.664364,-7.721072,-5.848304,-12.048914,23.304537,-22.108074,-126.365982,6.914513,86.185333,0.292080,-0.669113,-0.588729,0.346952
114,-0.241658,-7.531711,-5.955554,-18.561951,27.866325,-30.972761,-126.893211,5.695733,86.027885,0.296142,-0.668404,-0.593225,0.337074
115,0.245768,-7.518771,-5.969756,-20.739342,31.830517,-39.415283,-127.554985,4.159865,85.945213,0.300892,-0.666878,-0.599360,0.324816
116,0.663580,-7.532485,-6.044808,-21.177523,33.925327,-43.162018,-128.254318,2.400997,85.925812,0.306420,-0.664530,-0.606387,0.311130
117,0.927906,-7.381315,-6.154480,-20.594957,33.666016,-41.303448,-128.950333,0.598515,85.923592,0.312121,-0.661908,-0.613339,0.297110
118,1.199699,-7.315839,-6.188865,-16.782833,31.772556,-36.980843,-129.573196,-1.101357,85.904877,0.317702,-0.659367,-0.619441,0.283889
119,1.585909,-7.335607,-6.243990,-11.826506,30.980186,-33.002892,-130.048218,-2.666509,85.847977,0.323467,-0.656911,-0.624368,0.272032
120,1.779719,-7.349894,-6.304548,-8.038951,27.029381,-26.375574,-130.373642,-4.046088,85.747963,0.329159,-0.654701,-0.628047,0.261872
121,1.943685,-7.355089,-6.246491,-3.755240,23.139933,-21.650278,-130.560913,-5.197485,85.630768,0.334429,-0.652758,-0.630634,0.253705
122,2.046099,-7.483375,-6.231319,1.103827,24.495935,-23.444641,-130.593658,-6.284612,85.515793,0.340195,-0.650480,-0.632665,0.246734
123,1.931213,-7.555113,-6.155874,4.140057,18.016533,-16.663401,-130.493866,-7.253026,85.410789,0.346030,-0.648035,-0.634142,0.241201
124,1.773399,-7.511897,-6.067136,5.701925,11.813825,-10.262452,-130.318146,-7.916945,85.322037,0.350647,-0.646092,-0.634820,0.237937
125,1.712808,-7.359232,-6.122938,1.382957,7.804912,-6.860062,-130.190765,-8.345997,85.256058,0.353715,-0.644825,-0.635178,0.235872
126,1.685211,-7.223870,-6.129297,-3.389462,5.626677,-4.180368,-130.216431,-8.631046,85.203384,0.355145,-0.644367,-0.635590,0.233859
127,1.676587,-7.103716,-6.233607,-8.331377,2.946673,-0.620205,-130.403030,-8.784515,85.145615,0.355001,-0.644818,-0.635994,0.231723
128,1.661203,-7.107522,-6.371973,-10.477272,1.868372,2.115484,-130.704605,-8.817772,85.067650,0.353630,-0.646086,-0.636238,0.229608
129,1.466064,-7.150251,-6.475190,-10.435185,-1.066972,7.971850,-131.034668,-8.699369,84.946190,0.351400,-0.648118,-0.635944,0.228115
130,1.096884,-7.165425,-6.504989,-9.051824,-5.400615,18.873293,-131.327621,-8.291621,84.730522,0.348069,-0.651374,-0.634384,0.228292
131,0.594861,-7.231021,-6.542142,-6.113756,-10.851890,33.219643,-131.529099,-7.461329,84.355919,0.343390,-0.656385,-0.630755,0.231063
132,0.075952,-7.282088,-6.518300,-2.195426,-15.895299,44.560570,-131.604630,-6.195603,83.826088,0.337502,-0.662987,-0.624902,0.236723
133,-0.426106,-7.271196,-6.399581,2.157031,-20.094646,51.878738,-131.547073,-4.595244,83.206047,0.330868,-0.670437,-0.617305,0.244898
134,-0.756907,-7.320734,-6.455838,3.084374,-21.110493,52.197453,-131.418701,-2.841109,82.570900,0.323927,-0.677969,-0.608876,0.254361
135,-0.961730,-7.389773,-6.415049,4.826016,-19.838955,45.705242,-131.267212,-1.165654,82.005371,0.317421,-0.684667,-0.600790,0.263678
136,-1.143616,-7.262125,-6.335982,4.303617,-18.160133,35.384094,-131.112030,0.268234,81.592308,0.311872,-0.689814,-0.594071,0.271979
137,-1.309737,-7.247661,-6.309627,4.527419,-15.737438,26.744209,-130.968903,1.420044,81.338608,0.307353,-0.693403,-0.588996,0.278944
138,-1.363543,-7.329084,-6.339936,4.672998,-17.309671,24.638197,-130.820587,2.427916,81.194359,0.303352,-0.696025,-0.584895,0.285350
139,-1.289139,-7.344931,-6.278660,5.675919,-11.532599,15.204655,-130.651733,3.244744,81.125206,0.300284,-0.697742,-0.581690,0.290899
140,-1.178435,-7.508268,-6.323387,6.987301,-2.455147,2.708049,-130.441727,3.623157,81.108444,0.299624,-0.698107,-0.579945,0.294171
141,-0.876733,-7.645057,-6.389052,8.047254,3.147922,-5.047035,-130.190125,3.585982,81.125175,0.301308,-0.697281,-0.579509,0.295267
142,-0.466092,-7.590078,-6.355581,6.678419,8.438314,-11.714349,-129.942780,3.247908,81.157433,0.304495,-0.695715,-0.580066,0.294597
143,-0.112069,-7.448943,-6.312251,3.928331,11.817294,-15.609716,-129.764313,2.681982,81.190315,0.308443,-0.693798,-0.581472,0.292228
144,0.248489,-7.554962,-6.331852,2.549693,17.354591,-21.381130,-129.655548,1.897106,81.210373,0.313128,-0.691601,-0.583608,0.288167
145,0.665606,-7.465123,-6.239780,1.217272,20.612427,-25.504148,-129.592545,0.891724,81.221474,0.318682,-0.689014,-0.586415,0.282522
147,0.901618,-7.582118,-6.257156,1.380097,20.068298,-25.095943,-129.549179,-0.190163,81.236191,0.324476,-0.686219,-0.589468,0.276310
148,1.088041,-7.652283,-6.350012,-0.523662,18.147856,-23.965836,-129.535248,-1.226140,81.265579,0.329796,-0.683480,-0.592502,0.270243
149,1.088489,-7.740685,-6.361246,-1.279532,9.985668,-15.173301,-129.566772,-2.027622,81.319580,0.333571,-0.681282,-0.595100,0.265408
150,0.918747,-7.440314,-6.364785,-8.292627,6.226105,-10.712852,-129.728897,-2.532200,81.386932,0.335022,-0.680123,-0.597242,0.261715
151,0.771340,-7.251888,-6.360789,-14.959907,4.261091,-6.057215,-130.118546,-2.858676,81.432632,0.334267,-0.680191,-0.599271,0.257839
152,0.751320,-7.075068,-6.333729,-17.549433,4.057549,-4.075513,-130.660599,-3.077070,81.436768,0.332150,-0.681190,-0.601082,0.253688
153,0.551862,-7.030770,-6.259727,-14.813829,1.828864,0.633808,-131.197998,-3.184629,81.400276,0.329581,-0.682661,-0.602326,0.250107
154,0.360642,-6.905160,-6.248065,-13.142956,-0.924264,5.428316,-131.659653,-3.118787,81.322166,0.326660,-0.684559,-0.602693,0.247857
155,0.337796,-6.999416,-6.216568,-5.630814,-1.233236,6.718642,-131.966843,-2.943879,81.214035,0.324161,-0.686433,-0.602261,0.247003
156,0.268931,-7.183450,-6.351628,2.576632,-3.398963,8.196846,-132.012375,-2.707388,81.105103,0.322913,-0.687715,-0.601099,0.247901
157,0.040613,-7.246124,-6.436722,4.839209,-4.917798,8.109473,-131.885300,-2.412543,81.026596,0.322338,-0.688489,-0.599590,0.250147
158,-0.067432,-7.314455,-6.561556,4.199227,-8.773170,10.488720,-131.733292,-2.029361,80.990051,0.321370,-0.689185,-0.598037,0.253176
159,0.061894,-7.486651,-6.643039,5.375237,-6.119988,5.890918,-131.573898,-1.660407,80.994019,0.320429,-0.689610,-0.596734,0.256266
160,0.121205,-7.502271,-6.625418,5.103111,-4.544676,2.218640,-131.400467,-1.441401,81.037727,0.320251,-0.689425,-0.596026,0.258622
161,0.095589,-7.425909,-6.619554,1.541951,-4.751677,1.678336,-131.291489,-1.290270,81.111214,0.319963,-0.689103,-0.595818,0.260311
162,0.140701,-7.471360,-6.551027,1.971153,-3.987111,1.191223,-131.234604,-1.158242,81.189125,0.319449,-0.688856,-0.595803,0.261625
163,0.250120,-7.419152,-6.388293,3.964659,-1.564729,-1.121552,-131.137054,-1.096444,81.258041,0.319560,-0.688375,-0.595828,0.262699
164,0.257286,-7.300346,-6.309632,3.150739,-0.617054,-2.139771,-131.019684,-1.113538,81.321205,0.320208,-0.687678,-0.595984,0.263382
165,0.243147,-7.338008,-6.263648,4.427556,-0.472106,-1.467036,-130.894440,-1.147038,81.374344,0.321009,-0.686970,-0.596105,0.263979
166,0.279595,-7.388866,-6.161767,7.776202,0.573340,-2.538229,-130.691910,-1.198688,81.416679,0.322390,-0.686055,-0.596031,0.264840
167,0.313112,-7.339427,-6.139824,7.219504,1.234713,-3.396667,-130.442886,-1.293439,81.458138,0.324271,-0.684905,-0.595959,0.265680
168,0.290134,-7.354331,-6.161656,6.056806,0.791565,-2.861826,-130.222595,-1.394809,81.499931,0.326010,-0.683813,-0.595972,0.266333
169,0.329211,-7.477960,-6.122459,8.959674,1.437517,-2.891509,-129.973160,-1.492083,81.533279,0.327919,-0.682687,-0.595856,0.267140
170,0.350362,-7.523362,-6.200055,7.054231,1.728891,-3.354051,-129.706985,-1.605837,81.559456,0.330025,-0.681503,-0.595701,0.267914
171,0.335704,-7.526225,-6.203327,5.974617,1.237590,-2.954227,-129.490677,-1.718359,81.588417,0.331819,-0.680445,-0.595675,0.268446
172,0.298499,-7.569446,-6.190887,6.118943,0.381351,-1.966939,-129.290070,-1.798865,81.619629,0.333347,-0.679497,-0.595610,0.269095
173,0.301123,-7.575515,-6.183836,5.776816,0.067959,-1.501259,-129.092773,-1.848394,81.650345,0.334697,-0.678636,-0.595464,0.269913
174,0.256409,-7.594743,-6.198581,4.292377,-0.997676,-0.012341,-128.925858,-1.858245,81.678268,0.335669,-0.677978,-0.595263,0.270803
175,0.243904,-7.573116,-6.200545,2.897695,-1.436886,0.797599,-128.806778,-1.822593,81.701645,0.336137,-0.677598,-0.595021,0.271703
176,0.220722,-7.535909,-6.192015,1.139933,-2.169552,2.317532,-128.739929,-1.744473,81.715981,0.336099,-0.677528,-0.594730,0.272560
177,0.192091,-7.569864,-6.142206,1.284775,-2.738688,3.989899,-128.699448,-1.611282,81.714035,0.335663,-0.677760,-0.594252,0.273562
178,0.133816,-7.646442,-6.149351,1.926646,-3.415709,5.638260,-128.645386,-1.421903,81.693832,0.335064,-0.678190,-0.593475,0.274916
179,0.057833,-7.591488,-6.205807,0.465780,-3.350777,5.516504,-128.604874,-1.206263,81.665878,0.334270,-0.678764,-0.592607,0.276333
180,-0.036828,-7.506263,-6.157835,-0.144298,-3.895505,6.377294,-128.598953,-0.976001,81.636559,0.333198,-0.679481,-0.591771,0.277654
181,-0.144226,-7.513508,-6.168322,-1.324802,-6.481932,9.111661,-128.623062,-0.666356,81.610596,0.331533,-0.680464,-0.590800,0.279302
182,-0.187501,-7.478266,-6.186662,-0.692272,-6.986840,7.312171,-128.656738,-0.312384,81.614983,0.329507,-0.681422,-0.589903,0.281252
183,-0.269672,-7.505924,-6.223034,0.289852,-8.697033,4.804525,-128.663696,0.008596,81.692963,0.327625,-0.681836,-0.589468,0.283352
184,-0.034393,-7.511140,-6.061739,4.081930,-6.299115,-7.501742,-128.590637,0.129490,81.916298,0.326882,-0.680777,-0.590269,0.285084
185,0.161287,-7.521541,-5.917899,4.840871,-7.019254,-18.844149,-128.441940,-0.075871,82.363510,0.327710,-0.677532,-0.593136,0.285912
186,0.559924,-7.644665,-5.755292,8.663236,-4.166893,-32.442326,-128.221222,-0.630682,83.039963,0.330197,-0.671978,-0.598144,0.285726
187,0.875677,-7.785299,-5.776228,8.391312,-2.387123,-37.991592,-127.952324,-1.487275,83.850166,0.334200,-0.664723,-0.604601,0.284449
188,1.190782,-7.828358,-5.670032,7.782151,0.081989,-39.796135,-127.711639,-2.487505,84.676201,0.338754,-0.656958,-0.611524,0.282294
189,1.274266,-7.970422,-5.744102,6.483881,0.184998,-32.477436,-127.512039,-3.444283,85.408798,0.343086,-0.649802,-0.617796,0.279960
190,1.325218,-7.956338,-5.733089,7.089789,0.518102,-22.679914,-127.322449,-4.181468,85.959206,0.346666,-0.644176,-0.622399,0.278351
191,1.341616,-7.985661,-5.693318,8.738287,-0.566425,-12.886241,-127.086411,-4.653209,86.319153,0.349580,-0.640146,-0.625083,0.277990
192,1.250738,-7.849649,-5.598763,10.888674,-2.350303,-6.353141,-126.778549,-4.880444,86.551262,0.351919,-0.637277,-0.626222,0.279064
193,1.131087,-7.790478,-5.614447,12.843811,-4.399147,-0.230873,-126.396248,-4.901597,86.707367,0.353770,-0.635185,-0.626210,0.281511
194,0.967229,-7.769142,-5.559870,15.893204,-6.281500,6.713351,-125.923958,-4.709418,86.787445,0.355184,-0.633853,-0.624976,0.285446
195,0.639741,-7.906505,-5.686837,16.438557,-9.582078,14.835571,-125.385452,-4.263597,86.792747,0.355823,-0.633472,-0.622454,0.290954
196,0.090266,-7.924984,-5.730022,14.010978,-14.020660,24.733362,-124.873955,-3.497995,86.734535,0.354808,-0.634460,-0.618720,0.297922
197,-0.455665,-8.112826,-5.821070,13.091434,-18.465681,33.712463,-124.416611,-2.388996,86.625542,0.351836,-0.636880,-0.613792,0.306356
198,-0.787359,-8.268477,-6.073996,9.453207,-19.281279,34.292038,-124.037285,-1.098239,86.507751,0.347502,-0.640073,-0.608376,0.315321
199,-1.141410,-8.527513,-6.303950,5.271260,-18.341457,31.009935,-123.791237,0.154627,86.420517,0.342529,-0.643343,-0.603484,0.323405
200,-1.341848,-8.695955,-6.091253,7.018580,-16.218168,25.169727,-123.586998,1.253061,86.380081,0.337988,-0.646007,-0.599341,0.330498
201,-1.290500,-8.909245,-6.110069,4.184722,-11.606246,14.969761,-123.399864,2.066830,86.397865,0.334676,-0.647600,-0.596385,0.336053
202,-1.057350,-8.922552,-5.968315,-3.647119,-4.821128,2.015682,-123.388161,2.453886,86.470688,0.332469,-0.648241,-0.595555,0.338471
203,-0.804531,-8.854726,-5.439459,-6.763157,0.549469,-7.416147,-123.557152,2.418113,86.579605,0.331382,-0.648067,-0.596781,0.337710
204,-0.545936,-8.425519,-4.772161,-5.367702,3.411257,-13.069466,-123.754120,2.097347,86.713852,0.331586,-0.647065,-0.599113,0.335293
205,-0.082405,-7.909191,-4.342715,-4.011802,8.744841,-20.485304,-123.905983,1.519977,86.856850,0.333395,-0.645177,-0.602133,0.331708
206,0.158514,-7.335013,-3.902741,2.940609,10.645444,-21.719887,-123.921463,0.755931,86.980980,0.337021,-0.642455,-0.605190,0.327740
207,0.466916,-6.878088,-3.472356,18.461178,12.171404,-22.404491,-123.564293,-0.066835,87.072868,0.343122,-0.638592,-0.607154,0.325317
208,0.758598,-6.722303,-3.528642,30.140240,13.105004,-21.888180,-122.754822,-0.915295,87.123093,0.351948,-0.633423,-0.607671,0.325030
209,1.193103,-7.155539,-4.591978,22.547050,17.111057,-27.317513,-121.877151,-1.877550,87.135185,0.361777,-0.627769,-0.608123,0.324360
210,0.968553,-8.030252,-5.843742,13.354678,12.246259,-18.626663,-121.278297,-2.786034,87.120285,0.369799,-0.623169,-0.609058,0.322426
211,1.090176,-8.715543,-6.507762,7.657152,12.091981,-17.365862,-120.926109,-3.509192,87.082947,0.375537,-0.619976,-0.610012,0.320138
212,1.028885,-8.989400,-7.100143,-7.297580,8.683156,-13.650716,-120.918076,-4.130591,87.051758,0.378850,-0.618161,-0.611650,0.316598
213,0.916016,-9.024689,-7.179351,-22.140430,5.295084,-7.979045,-121.407738,-4.559637,87.039581,0.378435,-0.618489,-0.614174,0.311527
214,0.692659,-8.720942,-6.492790,-27.027521,-0.314997,2.913063,-122.225143,-4.675137,87.014191,0.374674,-0.620948,-0.616571,0.306403
215,0.835276,-8.188254,-5.754694,-27.130308,-1.380037,4.500470,-123.124344,-4.555824,86.971901,0.369286,-0.624465,-0.618392,0.302096
216,0.732316,-7.698536,-5.420417,-27.690968,-3.973529,7.283360,-124.035309,-4.342866,86.937622,0.363296,-0.628213,-0.619998,0.298275
217,0.849728,-7.726025,-5.174808,-18.580660,-0.877721,4.803914,-124.803001,-4.131036,86.890587,0.358097,-0.631520,-0.621143,0.295178
218,0.706642,-7.745298,-5.277978,-13.305538,-1.317727,3.923541,-125.330566,-3.990867,86.836746,0.354591,-0.633868,-0.621817,0.292950
219,0.453538,-7.762570,-5.410745,-8.794775,-4.081200,5.645457,-125.697586,-3.808794,86.817337,0.351655,-0.635639,-0.622151,0.291941
220,0.584590,-7.812061,-5.525139,-4.948729,-2.621816,1.688828,-125.927917,-3.644327,86.836594,0.349465,-0.636718,-0.622399,0.291691
221,0.602142,-7.817661,-5.744965,-6.589091,-2.160206,0.095936,-126.123192,-3.573417,86.883621,0.347888,-0.637263,-0.622965,0.291180
222,0.400609,-7.817496,-5.888525,-9.201615,-4.360420,2.629881,-126.390114,-3.472516,86.944473,0.345717,-0.638030,-0.623709,0.290490
223,0.447465,-7.774059,-5.828731,-8.661142,-3.766488,2.353265,-126.691345,-3.325139,87.004005,0.343110,-0.639034,-0.624407,0.289874
224,0.560484,-7.630708,-5.775077,-8.980865,-1.927486,0.274010,-126.988220,-3.233191,87.053772,0.340841,-0.639911,-0.625188,0.288931
225,0.450024,-7.509668,-5.670960,-8.084331,-2.891544,2.535090,-127.274635,-3.147375,87.089539,0.338695,-0.640808,-0.625881,0.287966
226,0.443505,-7.561551,-5.615527,-3.776598,-3.249061,3.751990,-127.473267,-3.001968,87.107346,0.336767,-0.641706,-0.626093,0.287767
227,0.469007,-7.524934,-5.675763,-2.361305,-3.295500,3.612391,-127.576149,-2.838184,87.119156,0.335289,-0.642402,-0.625982,0.288180
228,0.369609,-7.509592,-5.740865,-2.530254,-4.246309,3.725824,-127.658867,-2.664586,87.144112,0.333837,-0.642991,-0.625869,0.288797
229,0.423962,-7.626777,-5.788650,-0.434952,-3.594562,1.794365,-127.710434,-2.511893,87.191353,0.332614,-0.643308,-0.625857,0.289528
230,0.447057,-7.767632,-5.891534,-0.489056,-3.897903,1.402234,-127.728683,-2.393361,87.257607,0.331711,-0.643327,-0.625959,0.290299
231,0.381238,-7.833381,-5.961382,-1.042421,-5.423645,1.932880,-127.757820,-2.254303,87.346504,0.330577,-0.643311,-0.626161,0.291192
232,0.215547,-7.796294,-6.048103,-3.204041,-7.994990,3.947983,-127.832962,-2.039792,87.463249,0.328708,-0.643480,-0.626434,0.292343
233,0.227440,-7.668702,-6.058789,-5.515793,-7.770674,3.814602,-127.982544,-1.776262,87.591125,0.326124,-0.643932,-0.626829,0.293394
234,0.038877,-7.589057,-6.070590,-6.697841,-9.055942,8.804958,-128.188644,-1.437711,87.682114,0.322906,-0.644940,-0.626962,0.294453
235,-0.168678,-7.479795,-5.835414,-3.168308,-9.808309,14.467118,-128.353149,-0.938437,87.688759,0.319260,-0.646710,-0.626081,0.296414
236,-0.204934,-7.329948,-5.640967,-0.432520,-7.621027,16.463715,-128.412003,-0.353946,87.596565,0.315997,-0.648933,-0.624129,0.299159
237,-0.006462,-7.596123,-5.703142,1.999653,-1.052171,12.117457,-128.385361,0.109176,87.414093,0.314111,-0.651070,-0.621756,0.301432
238,0.070518,-8.254940,-6.083045,2.022982,3.606811,10.224279,-128.319260,0.374789,87.149757,0.313742,-0.653014,-0.619344,0.302574
239,0.098324,-8.651882,-6.408779,-3.423965,6.651582,7.110917,-128.344864,0.495371,86.836472,0.313770,-0.655088,-0.617288,0.302264
240,0.234178,-8.834709,-7.038164,-18.605808,10.117237,1.921466,-128.714462,0.438917,86.523994,0.312778,-0.657635,-0.616625,0.299097
241,0.244392,-8.906859,-7.539100,-32.500858,11.589052,-0.113692,-129.567841,0.233574,86.224312,0.309751,-0.661044,-0.617668,0.292509
242,0.073336,-8.259915,-7.439237,-42.911285,9.746921,2.447178,-130.825211,0.033485,85.927681,0.304300,-0.665514,-0.619651,0.283769
244,-0.042556,-7.073676,-7.038615,-52.091972,7.155511,5.431135,-132.408356,-0.055618,85.630379,0.296273,-0.671057,-0.622003,0.273893
245,-0.005488,-5.990366,-6.798982,-56.771290,6.191688,5.846742,-134.222061,-0.071632,85.340179,0.286370,-0.677209,-0.624587,0.263195
246,0.009447,-5.237844,-6.485713,-48.968269,5.420132,5.660513,-135.983566,-0.073496,85.067947,0.276539,-0.683018,-0.626942,0.252896
247,-0.012641,-4.463268,-6.247157,-41.262489,4.287790,5.828176,-137.486786,-0.060017,84.817741,0.268015,-0.687990,-0.628674,0.244146
248,0.144053,-4.076481,-6.099890,-26.262039,7.554575,2.138020,-138.611664,-0.117973,84.587204,0.262045,-0.691735,-0.629781,0.237087
249,0.261109,-4.102548,-6.086378,-2.486757,10.242224,-1.872942,-139.089890,-0.338200,84.388245,0.260771,-0.693463,-0.630057,0.232672
250,0.263718,-4.223251,-5.706948,27.042486,10.149275,-3.685750,-138.679199,-0.654862,84.234016,0.265302,-0.692708,-0.629002,0.232653
251,0.146331,-4.259932,-5.147331,55.570068,6.430975,-1.602401,-137.300735,-0.918765,84.113922,0.275299,-0.689550,-0.626047,0.238319
252,0.112417,-4.624564,-4.158374,101.776894,3.818604,0.452477,-134.677261,-1.054506,84.008110,0.291974,-0.683327,-0.620129,0.251504
253,0.106498,-5.297748,-3.554761,142.345093,1.223000,2.597379,-130.610321,-1.073516,83.910896,0.316369,-0.673007,-0.610295,0.272970
254,-0.052853,-6.459706,-2.673347,183.899033,-3.603850,6.792740,-125.181335,-0.925404,83.845222,0.347297,-0.658016,-0.595869,0.302224
255,-0.103516,-8.269948,-1.845448,208.906784,-5.709901,10.004400,-118.653168,-0.605866,83.827103,0.382658,-0.638228,-0.576546,0.337392
256,-0.034227,-10.932293,-1.428876,202.172165,-6.597548,8.485802,-111.827858,-0.240975,83.879837,0.418043,-0.615262,-0.554401,0.373273
257,-0.096962,-13.652578,-1.488622,163.725082,-9.473003,7.466749,-105.752190,0.096372,84.047546,0.447902,-0.592651,-0.533388,0.404532
258,-0.350523,-16.100794,-2.172930,96.956482,-12.662564,6.378207,-101.417641,0.408357,84.350433,0.467452,-0.575073,-0.517946,0.427213
259,-0.564951,-17.911911,-3.604407,5.869276,-14.617207,5.788744,-99.702263,0.693346,84.758598,0.473169,-0.567260,-0.512322,0.438010
260,-0.763911,-19.017069,-5.097741,-88.892334,-12.805539,4.435475,-101.079971,0.946320,85.175545,0.463580,-0.571961,-0.518591,0.434761
261,-1.263161,-17.906097,-5.099267,-154.697510,-8.333274,9.258172,-105.131805,1.251158,85.464676,0.440574,-0.587726,-0.533917,0.418814
262,-0.705686,-13.890464,-5.294213,-213.137283,2.274819,4.544746,-111.249260,1.503451,85.487999,0.407262,-0.611112,-0.554701,0.391135
263,-0.628226,-10.348071,-5.513876,-255.191071,11.892643,3.762060,-119.032005,1.531598,85.211479,0.365556,-0.638822,-0.578333,0.351862
264,-0.412910,-6.776928,-3.748479,-244.810684,20.278065,0.319353,-127.332069,1.299669,84.724945,0.320907,-0.665564,-0.600136,0.306399
265,0.414669,-2.418412,-1.815469,-243.501663,50.323235,-35.428192,-135.431290,0.092131,84.226860,0.280801,-0.686619,-0.620289,0.254846
266,0.883431,0.293135,-1.244275,-389.309113,117.046677,-96.796753,-145.906708,-3.439718,84.137146,0.236746,-0.703515,-0.646826,0.175027
267,0.272348,0.819443,-2.569945,-382.037689,30.329313,-30.080685,-158.663544,-6.559981,84.829231,0.174373,-0.717190,-0.669567,0.083147
268,0.742497,2.342177,-2.523031,-378.819946,44.757229,-46.541058,-171.298645,-8.040786,85.824188,0.103023,-0.724870,-0.681138,0.000323
269,0.960703,3.536166,-4.426396,-313.092072,28.713867,-37.289482,177.116806,-9.325499,87.136330,0.037841,-0.723338,-0.685237,-0.076163
270,0.132123,3.779290,-6.488007,-221.889496,-14.561481,-28.630796,168.102097,-9.414081,88.267181,-0.017301,-0.717368,-0.684144,-0.130506
271,0.248232,4.841212,-7.766063,-167.420181,-14.723905,-27.442001,161.524399,-8.696753,89.072372,-0.061611,-0.710074,-0.681595,-0.165611
272,0.529489,5.237387,-7.936491,-128.312469,-4.958354,-23.079048,156.511353,-8.092597,89.748985,-0.095140,-0.702223,-0.678886,-0.192212
273,0.515843,4.840977,-8.238878,-78.510155,-4.987247,-18.207729,152.993866,-7.651752,90.302956,-0.118305,-0.695258,-0.676852,-0.210930
274,0.541942,4.983282,-7.859034,-62.043694,-5.153631,-15.894300,150.598022,-7.235377,90.728340,-0.134516,-0.689638,-0.675670,-0.223104
275,0.875232,5.159811,-7.570097,-48.145325,1.991303,-11.706981,148.716202,-6.957757,91.101776,-0.146749,-0.684778,-0.674711,-0.233042
276,0.848645,4.633495,-8.262723,-8.977602,-1.053451,-8.339895,147.729034,-6.795520,91.395271,-0.153019,-0.681539,-0.674759,-0.238305
277,0.786142,4.470862,-8.129841,-2.334955,-5.262202,-6.855416,147.522049,-6.571541,91.554390,-0.155281,-0.680010,-0.675732,-0.238453
278,0.512363,4.348742,-8.118979,4.236100,-12.174524,-6.738741,147.549881,-6.204757,91.589935,-0.157277,-0.679317,-0.676746,-0.236233
279,0.661453,3.987519,-8.461514,20.367367,-9.567471,2.095852,147.973541,-5.857009,91.461548,-0.157143,-0.680162,-0.677546,-0.231555
280,0.716370,3.722907,-8.844906,28.782894,-7.475422,6.717925,148.820541,-5.692110,91.186821,-0.153656,-0.682704,-0.677924,-0.225220
281,0.945770,3.810666,-9.024233,24.989605,-1.940168,9.626205,149.748093,-5.696345,90.871292,-0.148704,-0.685800,-0.677831,-0.219341
282,0.894238,3.655502,-8.783801,21.423742,-2.242464,9.660156,150.553253,-5.795936,90.556648,-0.143866,-0.688818,-0.677282,-0.214760
283,0.959374,3.710566,-9.013028,19.150311,-1.819575,8.634725,151.260071,-5.885123,90.255760,-0.139626,-0.691581,-0.676617,-0.210736
284,0.725882,3.872452,-9.075121,12.806425,-6.527855,2.511982,151.816254,-5.851348,90.024948,-0.136890,-0.693574,-0.676297,-0.206975
285,0.830561,4.090620,-9.288104,8.330804,-5.335528,1.489611,152.183792,-5.708064,89.872169,-0.135805,-0.694743,-0.676287,-0.203778
286,0.759220,4.300863,-9.216865,-1.078805,-7.134984,-0.830386,152.315140,-5.529257,89.765121,-0.136279,-0.695319,-0.676188,-0.201817
287,0.889855,4.297709,-8.955647,-5.224224,-3.273056,-0.101056,152.216446,-5.368559,89.697678,-0.137967,-0.695408,-0.675888,-0.201366
288,1.065182,4.353956,-8.727138,-7.078959,1.635381,0.191951,152.012726,-5.345172,89.683434,-0.139369,-0.695217,-0.675484,-0.202411
289,1.076292,4.431694,-8.640476,-7.849967,2.189686,-0.871790,151.760162,-5.396096,89.723572,-0.140523,-0.694734,-0.675189,-0.204250
290,0.995428,4.372763,-8.354408,-7.874016,0.654610,-1.824822,151.492218,-5.416465,89.785927,-0.141912,-0.694061,-0.675051,-0.206026
291,0.841519,4.237030,-8.286872,-1.824385,-2.097742,-3.052038,151.324951,-5.356452,89.846077,-0.143178,-0.693424,-0.675222,-0.206732
292,0.848444,4.517853,-8.729525,0.386795,-2.855260,-3.742680,151.295471,-5.229693,89.906128,-0.144014,-0.692875,-0.675761,-0.206232
293,0.686431,4.601209,-8.783269,-1.201594,-6.168648,-4.374963,151.277710,-5.032798,89.952728,-0.145226,-0.692330,-0.676364,-0.205232
294,0.706235,4.632094,-8.679590,-1.555214,-5.096700,-2.781440,151.230560,-4.810815,89.967033,-0.146825,-0.691903,-0.676763,-0.204217
295,0.682975,4.621141,-8.599974,-1.803187,-4.652791,-2.107073,151.175186,-4.629171,89.960136,-0.148267,-0.691638,-0.676946,-0.203462
296,0.823743,4.648996,-8.579288,-0.391141,-0.563639,0.252410,151.139801,-4.538100,89.945221,-0.149056,-0.691563,-0.676955,-0.203113
297,0.781538,4.494071,-8.431355,3.198532,0.048351,-0.324453,151.186844,-4.529997,89.942101,-0.148827,-0.691632,-0.677034,-0.202783
298,0.770656,4.410572,-8.408944,5.522343,0.975918,-1.276416,151.329681,-4.532132,89.973824,-0.147896,-0.691632,-0.677474,-0.201993
299,0.835394,4.227270,-8.250569,8.325090,3.208939,-1.020961,151.555145,-4.575078,90.041000,-0.146158,-0.691579,-0.678200,-0.200999
300,0.784943,4.222626,-7.939854,9.232959,3.848085,-3.559017,151.837845,-4.642441,90.164406,-0.143829,-0.691291,-0.679322,-0.199879
301,0.472984,3.501966,-7.314088,26.526630,-0.010948,-6.566421,152.419357,-4.620036,90.344048,-0.140147,-0.690917,-0.681450,-0.196517
302,0.421947,2.827161,-6.364244,42.507545,1.529858,-4.431485,153.555893,-4.559528,90.519203,-0.133365,-0.691156,-0.684522,-0.189594
303,0.182976,1.965333,-5.467381,68.578781,-3.785652,-4.023224,155.398224,-4.465213,90.630745,-0.122639,-0.692439,-0.688302,-0.178123
304,0.201322,1.014478,-4.878225,108.035278,-1.729896,4.515717,158.343979,-4.384504,90.586510,-0.105357,-0.695555,-0.692496,-0.159849
305,0.255241,0.218829,-4.699096,142.528290,0.139094,14.594689,162.539764,-4.467513,90.278183,-0.079675,-0.700879,-0.695904,-0.134678
306,0.624901,0.017392,-4.758677,140.932190,14.080977,22.698132,167.300079,-4.859425,89.740135,-0.048588,-0.707035,-0.697220,-0.107819
307,0.606832,-0.249489,-5.269073,137.577164,8.233234,21.475706,171.992004,-5.358451,89.086708,-0.017003,-0.712493,-0.696645,-0.082160
308,1.052069,0.033715,-6.007926,106.761482,17.486374,21.000706,176.121841,-5.857294,88.423103,0.011385,-0.716629,-0.694761,-0.060164
309,0.969705,-0.338469,-6.759282,103.785515,8.687532,14.581098,179.688171,-6.315508,87.847771,0.036256,-0.719270,-0.692538,-0.041561
310,0.375227,-0.251226,-7.144190,89.638153,-16.972387,8.338360,-177.049911,-6.167230,87.465096,0.055748,-0.720332,-0.691064,-0.021088
311,0.299661,-0.229944,-7.426984,84.723434,-15.942786,5.819092,-174.126465,-5.601068,87.265152,0.070708,-0.720239,-0.690114,-0.000006
312,0.577654,-1.576687,-8.854586,118.302666,0.985897,13.291517,-170.718369,-5.311760,86.981331,0.090422,-0.719751,-0.687963,0.022118
313,0.997718,-1.985563,-10.126107,93.076004,8.204798,9.382888,-167.161606,-5.391488,86.584312,0.113335,-0.718897,-0.684493,0.042561
314,1.102069,-1.466023,-10.397038,43.350952,11.690980,3.389201,-164.862076,-5.661858,86.298637,0.129465,-0.717885,-0.681862,0.054254
315,1.696784,-2.413766,-11.919720,40.897057,21.899406,2.821901,-163.432175,-6.172269,86.046631,0.141529,-0.717107,-0.679869,0.059213
316,2.007690,-2.326429,-13.130633,14.712811,16.590263,2.318927,-162.474945,-6.760664,85.776085,0.151083,-0.716760,-0.678036,0.060799
317,2.613688,-1.669782,-13.085260,-24.107025,13.158726,-9.082188,-162.626572,-7.267820,85.735443,0.153097,-0.716550,-0.678168,0.056621
318,1.774287,-2.067621,-13.433113,-7.855361,-3.260594,-6.288182,-163.184448,-7.501033,85.934875,0.150869,-0.715808,-0.679812,0.052095
319,1.680777,-1.885518,-13.871694,0.039584,-10.975429,-5.539238,-163.347946,-7.330884,86.194511,0.148739,-0.714696,-0.681414,0.052545
320,1.525359,-1.627634,-13.307549,-4.794165,-14.550012,-1.287217,-163.455978,-6.955851,86.427040,0.145768,-0.713920,-0.682708,0.054579
321,1.395160,-1.936274,-13.013117,-1.853522,-17.947205,2.353282,-163.582642,-6.431352,86.564484,0.141841,-0.713901,-0.683331,0.057316
322,0.867332,-1.634327,-13.332365,-6.131106,-27.063015,5.330023,-163.724945,-5.675497,86.653358,0.136473,-0.714437,-0.683513,0.061354
323,1.118319,-0.874656,-11.790285,-19.836788,-18.358284,6.763492,-164.159088,-4.892281,86.668991,0.129148,-0.715729,-0.683368,0.063731
324,1.366719,-1.450929,-11.323031,0.265805,-13.035895,13.546770,-164.470139,-4.296921,86.482933,0.123801,-0.717816,-0.682005,0.065435
325,1.783854,-1.381156,-10.375708,21.607807,-0.634646,8.033813,-164.084671,-3.979693,86.198517,0.124521,-0.719420,-0.679787,0.069426
326,1.582575,-2.160512,-9.437382,74.684708,0.276336,6.410708,-162.463989,-3.904224,85.970016,0.134399,-0.719023,-0.677247,0.079242
327,1.055487,-2.496088,-7.896502,103.080688,-4.826978,5.912803,-159.491135,-3.764642,85.800758,0.152338,-0.716468,-0.673774,0.097440
328,1.075116,-3.765158,-7.940544,135.035629,-5.174335,7.091033,-155.517593,-3.527142,85.663521,0.175864,-0.711904,-0.668861,0.122022
329,0.462705,-4.464304,-6.855141,157.980453,-13.125842,10.380406,-150.634567,-3.124039,85.542374,0.203899,-0.705144,-0.661724,0.152701
330,0.240406,-6.088856,-6.471706,172.476059,-14.590236,13.729260,-145.134323,-2.520071,85.445412,0.234271,-0.696264,-0.651972,0.187793
331,-0.003282,-6.319893,-6.846375,130.876236,-15.109206,11.843713,-140.089661,-1.870402,85.406807,0.261173,-0.686883,-0.641493,0.220155
332,0.062165,-6.793279,-6.276035,113.784576,-10.786703,12.863257,-136.018875,-1.274653,85.387360,0.282196,-0.678649,-0.631768,0.246313
333,-0.253371,-7.282396,-5.969844,101.333122,-13.192678,17.229506,-132.436905,-0.638441,85.323944,0.299987,-0.671391,-0.621773,0.269518
334,-0.062283,-7.645020,-6.023854,83.014900,-9.613553,10.582039,-129.367340,-0.040196,85.305893,0.314714,-0.664735,-0.612594,0.289500
335,-0.470970,-7.333920,-6.223352,52.752987,-14.879179,12.999001,-127.105850,0.521096,85.384102,0.324587,-0.659454,-0.605601,0.304977
336,-0.473433,-7.266439,-5.441735,50.384579,-15.857082,14.459620,-125.385460,1.193469,85.524559,0.330511,-0.655568,-0.599754,0.318258
337,-0.521755,-7.717574,-5.533142,55.531879,-18.174665,14.156785,-123.615318,1.907597,85.721542,0.336270,-0.651309,-0.593675,0.332068
338,-0.561110,-8.115536,-5.719104,58.054131,-19.365219,10.034048,-121.710762,2.584628,86.030930,0.342563,-0.645929,-0.587643,0.346558
339,-0.623325,-8.747466,-5.424733,65.344940,-20.534025,8.386242,-119.634064,3.188030,86.447144,0.349747,-0.639229,-0.581578,0.361704
340,-0.509990,-9.131779,-4.913983,77.140800,-19.176849,7.024036,-117.232613,3.728773,86.907936,0.358736,-0.631048,-0.574540,0.378141
341,-0.255426,-10.180467,-5.041761,82.745399,-14.703645,0.021918,-114.538116,4.080171,87.366211,0.370084,-0.621253,-0.566716,0.394861
342,-0.209884,-10.573558,-4.671161,85.568039,-11.159951,-8.022318,-111.702606,4.126278,87.817543,0.383492,-0.609857,-0.559008,0.410510
343,-0.301369,-10.812175,-3.627508,96.192711,-8.980219,-10.975106,-108.645607,3.944757,88.244316,0.398955,-0.596756,-0.550782,0.425860
344,-0.423858,-10.742460,-3.946694,82.139153,-5.342446,-11.433942,-105.653389,3.657906,88.583572,0.414523,-0.583528,-0.542336,0.439928
345,-0.583477,-10.429127,-3.583029,67.084755,-2.325902,-13.708312,-103.154236,3.283683,88.812439,0.428080,-0.571921,-0.535263,0.450719
347,-0.842566,-10.108307,-2.870284,58.521862,-0.533399,-7.413554,-101.055260,2.949431,88.933899,0.439608,-0.562170,-0.528881,0.459341
348,-0.948096,-9.902596,-3.176706,35.893353,2.795706,-0.772987,-99.482887,2.808130,88.920410,0.448008,-0.555606,-0.523049,0.465844
349,-0.803240,-9.839960,-3.524765,8.651381,5.210105,-0.999245,-98.746849,2.757313,88.792763,0.452331,-0.553100,-0.519641,0.468455
350,-0.782117,-9.773365,-3.021801,-0.801751,6.482267,3.703779,-98.625656,2.772063,88.593208,0.453662,-0.553581,-0.518121,0.468284
351,-0.737847,-9.711791,-2.890035,-10.807104,7.252471,10.449925,-98.832344,2.970328,88.330772,0.452796,-0.556346,-0.516864,0.467233
352,-0.659789,-10.106393,-3.015069,-19.817785,8.298818,13.193944,-99.360329,3.318289,88.012016,0.449873,-0.561187,-0.515999,0.465220
353,-0.423589,-10.367407,-2.499848,-18.813318,8.654547,9.614453,-100.025024,3.645258,87.668747,0.446439,-0.566559,-0.515629,0.462417
354,-0.315341,-10.141254,-2.019173,-12.410273,10.597682,9.730724,-100.569962,3.905127,87.294479,0.444002,-0.571322,-0.514875,0.459736
355,-0.219525,-10.401051,-2.323628,-16.654444,12.559136,7.057488,-101.084518,4.107691,86.861893,0.442189,-0.575995,-0.513918,0.456714
356,0.045548,-10.860158,-2.870974,-28.911940,15.147561,-2.215227,-101.877441,4.094779,86.391960,0.440109,-0.581110,-0.514741,0.451284
357,0.225776,-10.874790,-2.757893,-33.886890,16.863338,-11.271890,-102.956154,3.760172,85.917686,0.438065,-0.586189,-0.517923,0.442987
358,-0.071886,-10.734192,-3.350588,-45.939835,15.978610,-9.172649,-104.314003,3.299863,85.464722,0.435019,-0.591802,-0.522670,0.432834
359,-0.394318,-10.752637,-4.255825,-66.957718,12.921282,-7.226669,-106.216537,2.909059,85.072182,0.428468,-0.599425,-0.529287,0.420667
360,-0.025646,-10.895378,-4.611395,-82.383125,13.864677,-17.324623,-108.718544,2.384091,84.769997,0.418911,-0.608318,-0.538767,0.405207
361,-0.619307,-10.802405,-5.282134,-95.629227,10.986293,-11.730985,-111.691399,1.786269,84.547424,0.406692,-0.618134,-0.550113,0.387153
362,-0.972066,-10.438548,-6.341609,-113.252716,7.657030,-4.097403,-115.174881,1.420760,84.369301,0.390117,-0.629961,-0.561938,0.367672
363,-0.364438,-10.542016,-7.183741,-129.313980,11.305823,-11.755109,-119.216560,1.041771,84.211700,0.370064,-0.643017,-0.574930,0.345017
364,-0.057646,-10.754467,-7.603896,-130.054337,14.582187,-14.563774,-123.534821,0.443258,84.069908,0.349068,-0.655597,-0.588563,0.319277
365,-0.426576,-10.272294,-8.134695,-129.245636,11.738850,-5.464573,-127.850243,-0.082502,83.907372,0.327316,-0.667782,-0.600722,0.293368
366,0.249800,-10.175999,-8.652858,-127.705460,15.959771,-8.621060,-132.125259,-0.557088,83.707603,0.305175,-0.679461,-0.611305,0.267408
367,0.561865,-10.510626,-8.796441,-118.988144,18.932314,-14.751929,-136.228333,-1.240270,83.560547,0.284643,-0.689233,-0.621229,0.240856
368,0.246399,-10.153037,-8.604531,-96.914665,14.190655,-14.642144,-139.821548,-1.977958,83.553246,0.266913,-0.696322,-0.630022,0.216716
369,0.092484,-9.629102,-8.534437,-78.082848,9.972053,-10.771010,-142.738297,-2.557309,83.631599,0.252137,-0.701307,-0.636954,0.197190
370,0.353921,-9.115152,-8.718033,-71.187897,11.613109,-12.304334,-145.229462,-3.074085,83.731606,0.239520,-0.705085,-0.642639,0.180278
371,0.492328,-8.190719,-8.390031,-56.070984,14.393692,-12.888294,-147.355789,-3.667482,83.839828,0.229524,-0.707717,-0.647528,0.164812
372,0.750743,-7.230792,-8.209719,-42.717697,15.888575,-11.075644,-149.006805,-4.306674,83.912201,0.222758,-0.709405,-0.651267,0.151574
373,0.608537,-6.554965,-8.187244,-38.651890,11.860358,-4.496995,-150.361969,-4.836606,83.902107,0.217317,-0.711124,-0.653711,0.140489
374,0.840617,-6.231715,-8.248135,-48.110821,9.499483,-5.101431,-151.805145,-5.225124,83.870399,0.210549,-0.713327,-0.655748,0.129720
375,0.786395,-6.044690,-7.759351,-47.572826,6.763503,-6.165875,-153.403503,-5.552289,83.913040,0.202367,-0.715414,-0.658161,0.118551
376,0.750258,-5.684576,-7.435009,-55.912090,1.695560,-6.612777,-155.140778,-5.771933,84.044525,0.192610,-0.717298,-0.660950,0.107377
377,0.465049,-4.916500,-7.224227,-77.157150,-6.174500,-6.834221,-157.381744,-5.794027,84.281540,0.178476,-0.719522,-0.664435,0.094659
378,0.581093,-4.421073,-7.074456,-92.646011,-6.390885,-7.017944,-160.239578,-5.682401,84.574997,0.159639,-0.722187,-0.668349,0.079186
379,0.562942,-3.493106,-6.271994,-101.200890,-0.892643,-10.571064,-163.499313,-5.658010,84.892517,0.138725,-0.724604,-0.672326,0.060686
380,0.545646,-2.597017,-6.129795,-104.054184,-0.985255,-13.454225,-166.956467,-5.730053,85.287743,0.117085,-0.726059,-0.676390,0.040319
381,0.402640,-2.068624,-5.543762,-92.246078,-2.581368,-14.384656,-170.271866,-5.763981,85.756073,0.096146,-0.726340,-0.680256,0.020911
382,0.233832,-1.387866,-5.390433,-86.189552,-7.667713,-16.788946,-173.297195,-5.669904,86.297234,0.076366,-0.725466,-0.683997,0.003909
383,0.005127,-1.008594,-4.774639,-73.372681,-13.562529,-16.069307,-176.010468,-5.369700,86.878815,0.057435,-0.723744,-0.687600,-0.010084
384,-0.061050,-0.513987,-5.015708,-63.414135,-15.150318,-16.899389,-178.340363,-4.919511,87.454620,0.040119,-0.721466,-0.690967,-0.021009
385,0.017302,-0.348159,-4.880554,-49.147312,-10.812660,-16.725517,179.737823,-4.494390,88.022545,0.025599,-0.718711,-0.694199,-0.029789
386,-0.095107,0.178939,-5.396079,-49.326778,-14.566524,-18.931536,178.053070,-4.060715,88.609879,0.012592,-0.715500,-0.697507,-0.037210
387,0.087109,0.197326,-5.969781,-33.234657,-8.445726,-12.759082,176.643082,-3.653500,89.121208,0.001499,-0.712496,-0.700341,-0.043245
388,0.704475,0.587063,-6.994243,-26.788080,10.255986,-12.625151,175.615707,-3.655065,89.545990,-0.004696,-0.709882,-0.702560,-0.049549
389,0.860400,0.713027,-7.844021,-16.089598,11.598900,-10.661642,174.872818,-3.986157,89.962502,-0.007059,-0.707302,-0.704640,-0.056174
390,0.967592,1.022168,-8.779703,-9.796807,10.111388,-6.921342,174.417694,-4.319287,90.288551,-0.007640,-0.705288,-0.706247,-0.061043
391,1.140367,0.966571,-9.153008,-2.638800,10.784641,-0.066084,174.198578,-4.654307,90.439316,-0.006831,-0.704367,-0.706871,-0.064456
392,1.091799,0.696246,-8.760301,11.308850,9.777787,2.300236,174.343155,-4.998992,90.436279,-0.003809,-0.704410,-0.706739,-0.065674
393,0.737598,0.625566,-8.221771,23.960379,0.732086,2.409000,174.936447,-5.180738,90.373901,0.000929,-0.704805,-0.706586,-0.063127
394,0.619710,-0.011467,-7.415179,50.686836,-2.850229,4.647286,176.191330,-5.154613,90.252876,0.008427,-0.705501,-0.706503,-0.055235
395,0.395112,-0.347440,-6.602670,67.390129,-9.165177,4.313501,178.172943,-4.961970,90.093018,0.019376,-0.706269,-0.706440,-0.041853
396,0.445655,-0.719836,-6.079832,83.091660,-5.324321,3.689574,-179.308548,-4.721708,89.956169,0.033381,-0.706588,-0.706399,-0.024877
397,0.435737,-0.986415,-6.095538,88.273705,-4.581543,1.445667,-176.447754,-4.553436,89.877541,0.049969,-0.706094,-0.706326,-0.006231
398,0.596483,-1.105895,-6.248031,76.715309,1.213854,2.307040,-173.695297,-4.491740,89.820175,0.066540,-0.705079,-0.705913,0.011082
399,0.498411,-0.650141,-6.381137,41.788284,-1.689561,-1.667202,-171.720642,-4.482888,89.811668,0.078627,-0.703886,-0.705563,0.023293
400,0.790690,-0.751439,-6.827240,32.635864,8.144921,-1.612139,-170.483459,-4.597024,89.848793,0.086910,-0.702682,-0.705529,0.030233
401,0.686466,-0.814211,-7.135784,28.960629,6.410258,-7.197118,-169.465546,-4.861567,89.952431,0.094733,-0.701027,-0.705950,0.034952
402,0.733888,-0.459505,-7.676927,14.553795,6.431406,-8.358388,-168.758957,-5.120235,90.167427,0.100562,-0.698879,-0.707120,0.037898
403,0.922182,-1.176512,-7.892358,34.849281,13.108118,-12.946337,-167.961868,-5.510534,90.450989,0.107705,-0.696048,-0.708705,0.040682
404,1.209009,-1.719066,-8.905941,56.490200,17.413170,-10.676266,-166.467346,-6.093872,90.723587,0.120226,-0.692291,-0.710003,0.046630
405,1.289994,-2.280690,-9.480970,59.403820,15.115216,-14.093180,-164.566101,-6.722580,90.988724,0.135402,-0.687821,-0.711026,0.054873
406,0.808437,-2.515318,-10.156503,54.828667,-0.755957,-3.679174,-162.688751,-7.035044,91.206627,0.148430,-0.683753,-0.711505,0.064893
407,1.200540,-3.049221,-10.864892,49.871471,2.447400,-2.726964,-160.955276,-7.095734,91.297501,0.159065,-0.680781,-0.711020,0.075406
408,1.235830,-3.405189,-11.244088,52.203140,-0.909984,4.079201,-159.250778,-7.112349,91.267715,0.169297,-0.678500,-0.709655,0.085828
409,1.628330,-3.450703,-11.371222,38.660263,2.841908,2.305096,-157.722855,-7.103919,91.155388,0.178371,-0.676889,-0.707778,0.095159
410,1.447105,-4.114059,-11.507925,47.698547,-0.024663,9.693601,-156.258652,-7.069057,90.951889,0.186980,-0.675866,-0.705274,0.104073
411,2.081058,-3.907463,-11.523536,39.928463,8.112566,3.698691,-154.766296,-7.099665,90.690392,0.196207,-0.674926,-0.702350,0.112617
412,1.984839,-4.752529,-10.633641,66.618111,9.091723,5.541170,-152.957397,-7.289145,90.424858,0.208244,-0.673021,-0.699127,0.122062
413,1.796908,-4.642264,-10.746845,69.388298,1.834705,5.992454,-150.658585,-7.358553,90.167061,0.222415,-0.670139,-0.695113,0.135143
414,1.420855,-5.772240,-10.044888,91.347618,-3.089654,11.820126,-147.949661,-7.188503,89.919525,0.237533,-0.666540,-0.690062,0.152047
415,1.218728,-5.447901,-9.891936,83.590401,-9.399500,12.656688,-145.008377,-6.790008,89.691742,0.252608,-0.662465,-0.684021,0.171593
416,1.031165,-6.465323,-9.204176,96.070686,-9.725484,18.652023,-141.989929,-6.223300,89.459152,0.267132,-0.658280,-0.676977,0.192381
417,0.865526,-6.979240,-9.687631,81.818909,-13.498917,23.434805,-138.997116,-5.479834,89.162567,0.280597,-0.654629,-0.668636,0.213662
418,0.626446,-6.924320,-9.363728,57.031425,-13.558908,26.594946,-136.656662,-4.586943,88.844292,0.289565,-0.652844,-0.660498,0.231711
419,0.594778,-6.727315,-9.415373,34.165859,-12.637057,26.356459,-135.113327,-3.660433,88.511871,0.293895,-0.653134,-0.653411,0.245145
420,0.759927,-6.956247,-9.148184,22.367235,-8.342582,23.748444,-134.152039,-2.821257,88.172073,0.295473,-0.654695,-0.647484,0.254628
421,1.127756,-7.122783,-9.018691,15.143570,-1.304466,13.283113,-133.512894,-2.265115,87.859962,0.296760,-0.656194,-0.642962,0.260660
422,1.035957,-6.675509,-8.659651,3.999717,0.853970,6.146206,-133.185547,-2.024563,87.643257,0.297807,-0.657160,-0.640397,0.263331
423,0.906334,-7.418836,-8.045708,14.166649,0.737433,1.604186,-132.878998,-1.948340,87.535629,0.299394,-0.657153,-0.638889,0.265205
424,0.852495,-7.437051,-7.702005,17.346508,2.436357,-2.775727,-132.352905,-1.998377,87.510033,0.302742,-0.655787,-0.637641,0.267777
425,0.815336,-6.943047,-6.944666,15.877911,4.639308,-6.797324,-131.799896,-2.195755,87.529602,0.306935,-0.653702,-0.636941,0.269760
426,0.534672,-6.678930,-6.243266,15.883023,2.707108,-1.820540,-131.270691,-2.384405,87.533379,0.310969,-0.651766,-0.636180,0.271616
427,0.340103,-6.942968,-5.140451,36.764946,2.829634,2.546517,-130.389999,-2.435652,87.455383,0.316434,-0.649652,-0.633761,0.275986
428,0.424020,-6.826787,-4.472580,53.298615,7.100143,4.300519,-128.880585,-2.453399,87.254707,0.325557,-0.646482,-0.628986,0.283639
429,0.164239,-7.091443,-3.633641,76.280426,3.419486,15.008695,-126.707520,-2.306818,86.918869,0.337844,-0.642429,-0.621215,0.295361
430,0.174413,-8.506942,-3.130312,106.177109,4.956256,15.984838,-123.652977,-1.965210,86.505692,0.354187,-0.636402,-0.609844,0.312464
431,-0.211003,-8.864391,-3.537383,108.061714,-1.084063,21.600817,-120.074081,-1.467302,86.121254,0.372451,-0.628563,-0.596142,0.332871
432,-0.055485,-8.921762,-3.883643,92.994438,-1.375958,18.058489,-116.721283,-0.866361,85.841301,0.388514,-0.620735,-0.582656,0.352501
433,-0.080764,-8.994385,-4.016485,74.051086,-2.958941,15.918671,-113.937752,-0.323929,85.664574,0.401353,-0.613769,-0.571101,0.368846
434,-0.057525,-8.914817,-4.052641,57.567257,-3.388129,11.115699,-111.745316,0.132333,85.586739,0.411042,-0.607881,-0.561890,0.381843
435,-0.143053,-8.460985,-3.941859,41.675858,-4.319337,11.032220,-110.091949,0.523125,85.575081,0.417906,-0.603265,-0.554822,0.391915
436,0.110122,-8.491009,-3.595932,34.851440,-2.256238,4.683862,-108.816589,0.806641,85.590706,0.423167,-0.599472,-0.549443,0.399594
437,-0.094355,-8.706007,-3.304874,36.939381,-3.735330,7.893375,-107.619759,1.036960,85.620499,0.428190,-0.595674,-0.544515,0.406606
438,-0.077285,-9.150199,-3.245446,40.298885,-4.268896,5.519207,-106.331345,1.289707,85.682549,0.433427,-0.591416,-0.539247,0.414223
439,-0.045025,-9.322675,-3.047316,42.642807,-4.289371,1.745060,-104.946739,1.444808,85.787552,0.439418,-0.586198,-0.534127,0.421892
440,-0.233851,-9.545235,-3.120476,39.548847,-6.343373,4.502748,-103.573250,1.589428,85.934067,0.445181,-0.580734,-0.529194,0.429552
441,-0.161846,-10.185922,-2.763278,44.624760,-7.009626,1.379546,-102.164909,1.734711,86.128906,0.450860,-0.574861,-0.524261,0.437504
442,-0.383847,-10.311959,-2.619879,44.216061,-7.689029,4.931388,-100.677605,1.886351,86.348625,0.456724,-0.568532,-0.519001,0.445883
443,-0.443732,-10.554280,-2.354211,42.052391,-6.719283,5.452601,-99.232826,2.098288,86.554916,0.462060,-0.562607,-0.513462,0.454237
444,-0.460724,-10.801287,-2.398047,33.627293,-4.880556,5.249834,-97.965370,2.303455,86.719414,0.466650,-0.557519,-0.508334,0.461527
445,-0.357452,-10.957124,-2.228552,24.156878,-2.942003,1.674902,-96.997673,2.434783,86.833664,0.470275,-0.553565,-0.504406,0.466885
446,-0.484079,-10.916729,-2.061517,16.233736,-0.707166,3.583507,-96.322365,2.528853,86.884117,0.472893,-0.550929,-0.501482,0.470494
447,-0.448442,-11.007533,-1.673967,12.822946,0.913602,2.058209,-95.838676,2.621894,86.870590,0.474847,-0.549352,-0.499023,0.472979
448,-0.400355,-10.967059,-1.980470,-0.776421,3.494659,1.078955,-95.641510,2.666516,86.792206,0.475913,-0.549049,-0.497638,0.473717
450,-0.397445,-11.079042,-2.245623,-16.124615,5.415342,1.369651,-95.930298,2.692034,86.640167,0.475039,-0.551008,-0.497989,0.471949
451,-0.512674,-10.771508,-2.441958,-30.753679,6.256729,2.025383,-96.721024,2.726710,86.440331,0.471883,-0.555279,-0.500116,0.467841
452,-0.443616,-10.706389,-3.233521,-54.202023,7.403125,-1.664920,-98.147560,2.703053,86.213570,0.465955,-0.562021,-0.504891,0.460546
453,-0.132369,-10.631240,-3.662822,-73.934311,8.300476,-11.668180,-100.292595,2.441514,85.990334,0.457450,-0.570675,-0.513407,0.448868
454,-0.315923,-10.409527,-4.302079,-96.070709,6.366699,-12.705386,-103.130569,1.993908,85.832253,0.445897,-0.580941,-0.525380,0.433197
455,-0.202506,-10.464681,-4.682969,-109.105865,4.499499,-17.095308,-106.548813,1.467242,85.785072,0.431081,-0.592374,-0.539873,0.414488
456,-0.165022,-10.556989,-5.398220,-123.720329,4.715446,-16.754721,-110.424271,0.883457,85.817879,0.413561,-0.604505,-0.555911,0.393069
457,-0.106398,-10.493779,-5.863286,-136.268692,3.921973,-14.096107,-114.750771,0.354465,85.883057,0.392895,-0.617680,-0.572541,0.369190
458,-0.126879,-10.215427,-6.656610,-149.855865,3.685704,-9.658509,-119.511330,-0.054599,85.951935,0.368799,-0.631889,-0.589079,0.343059
459,0.016799,-10.004925,-6.975632,-149.550583,5.487260,-6.189109,-124.491684,-0.358020,85.963951,0.342559,-0.646409,-0.604395,0.315461
460,0.301433,-9.411528,-7.567736,-152.078903,9.315549,-5.264285,-129.507843,-0.656935,85.882530,0.315753,-0.660453,-0.617958,0.286756
461,0.561251,-9.215655,-8.254801,-144.611191,13.483644,-6.047503,-134.440140,-1.049056,85.725807,0.289536,-0.673370,-0.629758,0.257189
462,0.320380,-9.210638,-8.666360,-123.967789,10.126209,-2.731406,-138.904312,-1.433964,85.561020,0.265551,-0.684229,-0.639155,0.229770
463,0.355543,-9.231734,-8.886915,-92.917236,8.844907,-2.800289,-142.510254,-1.736251,85.433228,0.245811,-0.692365,-0.645895,0.207432
464,0.802127,-9.435411,-9.231892,-62.453819,13.762156,-9.383601,-145.095444,-2.159814,85.374176,0.232606,-0.697273,-0.650824,0.190086
465,0.316334,-9.442873,-9.322389,-32.927929,5.937837,-8.599371,-146.686859,-2.599943,85.435837,0.225281,-0.699282,-0.654535,0.178431
466,0.347493,-9.268184,-9.053752,-11.669603,2.421115,-10.055832,-147.438751,-2.886459,85.621101,0.222025,-0.699166,-0.657298,0.172717
467,0.649776,-8.873977,-8.824450,-1.335029,7.993336,-13.214404,-147.667908,-3.241466,85.855278,0.222284,-0.697617,-0.659648,0.169660
468,0.541495,-8.506928,-8.645071,-3.364960,7.729756,-9.394662,-147.757111,-3.664446,86.033798,0.223873,-0.695984,-0.661542,0.166879
469,0.456586,-7.462478,-8.284889,-22.162979,3.254933,-5.751962,-148.190430,-3.953485,86.151062,0.222710,-0.695617,-0.663331,0.162816
470,0.619598,-6.915695,-8.142460,-42.697170,1.477159,-1.441089,-149.275696,-4.082922,86.213318,0.216763,-0.697102,-0.665414,0.155842
471,0.538256,-6.471069,-7.791297,-56.239597,-0.038372,2.073360,-150.922943,-4.098129,86.192665,0.206834,-0.700240,-0.667481,0.146129
472,0.382337,-5.480319,-7.630023,-86.909935,-6.074016,3.068938,-153.306091,-3.967774,86.164864,0.191511,-0.704760,-0.670039,0.132984
473,0.248085,-4.531498,-7.330523,-119.751556,-11.928266,2.552352,-156.751053,-3.656839,86.207405,0.168396,-0.710386,-0.673659,0.114799
474,-0.111764,-3.961745,-6.829379,-121.182838,-19.825460,6.120321,-160.765411,-3.112499,86.265007,0.140183,-0.716151,-0.677142,0.094638
475,0.509494,-3.261672,-6.164568,-109.145050,4.128654,-5.311634,-164.602554,-2.858930,86.332489,0.114592,-0.720286,-0.680178,0.073588
476,0.334663,-2.301279,-5.829682,-109.321655,3.021700,-8.775626,-168.249619,-3.031184,86.525742,0.092547,-0.722283,-0.683480,0.050969
477,0.176819,-1.791338,-5.414628,-91.645920,-1.139872,-7.221540,-171.609238,-3.109635,86.782990,0.071733,-0.723099,-0.686329,0.030575
478,0.356995,-1.478760,-5.123485,-60.292946,8.166841,-10.697358,-174.155151,-3.262841,87.066017,0.056531,-0.722742,-0.688650,0.014489
479,0.233617,-1.053571,-4.926320,-45.759960,5.209906,-15.726154,-175.946869,-3.523962,87.483994,0.046782,-0.720915,-0.691439,0.002239
480,-0.611493,-0.453863,-4.813030,-52.098324,-34.724590,-15.480382,-177.608734,-3.063282,88.031784,0.033569,-0.718346,-0.694859,-0.004724
481,-0.490519,-0.167415,-5.008765,-50.152817,-28.983543,-13.183165,-179.333557,-2.014814,88.542496,0.016436,-0.715849,-0.698010,-0.008530
482,-0.292227,0.059298,-5.187051,-42.593342,-17.680922,-13.927711,179.108383,-1.236217,88.992279,0.002011,-0.713293,-0.700739,-0.013148
483,-0.109381,0.476104,-5.975924,-40.346512,-8.675056,-11.907048,177.718567,-0.785677,89.409645,-0.009327,-0.710679,-0.703202,-0.018876
484,0.154452,0.689684,-7.060495,-32.900360,-0.406461,-6.052906,176.494217,-0.619352,89.700081,-0.017876,-0.708730,-0.704796,-0.025403
485,0.491394,0.519515,-8.184658,-13.907103,7.536729,-3.398661,175.712128,-0.726894,89.864632,-0.022007,-0.707599,-0.705594,-0.030909
486,0.472334,0.786108,-9.050230,-5.036551,4.832634,-5.367623,175.393982,-0.921210,90.025688,-0.022726,-0.706583,-0.706443,-0.034099
487,0.504284,0.701565,-9.771865,5.262938,3.611269,-4.673049,175.394760,-1.048194,90.203766,-0.021884,-0.705509,-0.707502,-0.034910
488,0.315181,0.725965,-9.962734,10.826715,-1.291474,-6.130023,175.659546,-1.072831,90.386223,-0.020048,-0.704435,-0.708696,-0.033459
489,0.344430,0.742324,-9.560969,12.787604,0.209792,-5.739110,176.049576,-1.040603,90.582138,-0.017797,-0.703281,-0.710018,-0.030879
490,0.395179,0.856965,-9.312322,10.278362,2.283025,-2.707194,176.431335,-1.072866,90.725403,-0.015218,-0.702452,-0.710988,-0.028730
491,0.404449,0.655439,-8.992955,12.954894,3.315991,2.258026,176.818268,-1.165634,90.738449,-0.012267,-0.702429,-0.711139,-0.026899
492,0.348087,0.651337,-8.671624,11.933446,2.085384,4.758987,177.235413,-1.261741,90.626312,-0.009137,-0.703173,-0.710524,-0.024890
493,0.394599,0.489142,-8.389030,16.794617,3.446144,5.190981,177.717865,-1.361228,90.464630,-0.005591,-0.704213,-0.709611,-0.022501
494,0.373107,0.432915,-8.483641,21.387077,2.309489,4.616453,178.358170,-1.462648,90.304520,-0.001055,-0.705225,-0.708724,-0.019157
495,0.353921,0.214636,-8.101488,26.400208,2.572881,2.558325,179.157684,-1.546510,90.186623,0.004369,-0.705941,-0.708104,-0.014733
496,0.301144,0.070215,-7.936900,33.939491,2.138118,-0.516384,-179.835770,-1.625057,90.153015,0.011053,-0.706076,-0.707993,-0.008999
497,0.339515,0.174459,-7.743884,32.700581,4.483553,-2.129872,-178.726440,-1.735707,90.195679,0.018572,-0.705655,-0.708307,-0.002820
498,0.261309,-0.061576,-7.545682,36.831898,3.369283,-1.887237,-177.569672,-1.868538,90.258598,0.026513,-0.705012,-0.708691,0.003526
499,0.188730,-0.440137,-7.323066,46.368149,1.736643,-1.419741,-176.184845,-1.956533,90.308884,0.035569,-0.704302,-0.708915,0.011564
500,0.115961,-0.488907,-7.324876,47.579906,-0.936015,-0.607347,-174.620438,-1.972602,90.341248,0.045274,-0.703544,-0.708893,0.021155
501,0.107430,-0.772820,-7.157352,51.480076,-1.041649,-1.577463,-172.971130,-1.943837,90.380722,0.055207,-0.702589,-0.708749,0.031551
502,0.060236,-1.185079,-7.521767,59.520405,-3.062434,0.294608,-171.122589,-1.878962,90.411385,0.066121,-0.701456,-0.708311,0.043396
503,0.155074,-1.699115,-7.731294,64.199951,-0.295674,2.753687,-169.059891,-1.815332,90.370682,0.078365,-0.700447,-0.707136,0.056500
504,0.199548,-1.781918,-8.015040,62.009480,1.615866,3.824190,-166.953613,-1.814507,90.259209,0.091288,-0.699575,-0.705297,0.069404
505,0.435304,-2.266060,-8.634800,60.062885,7.705873,2.393266,-164.915268,-1.940236,90.121170,0.104584,-0.698574,-0.703199,0.081043
506,0.556782,-2.549067,-8.916563,60.794670,10.564852,1.668239,-162.896210,-2.214014,89.972618,0.118662,-0.697250,-0.700979,0.091593
507,0.776069,-2.842225,-9.033849,58.780495,15.520329,-1.438861,-160.898102,-2.625932,89.834229,0.133420,-0.695445,-0.698805,0.101125
508,1.066242,-2.946810,-9.275491,58.232216,21.451513,-5.413070,-158.943146,-3.243500,89.730728,0.149085,-0.692907,-0.696954,0.109128
509,1.400988,-3.420176,-9.247105,55.065422,27.544651,-12.840901,-157.053879,-4.114078,89.707863,0.165726,-0.689259,-0.695825,0.115262
510,1.162147,-3.653767,-9.025554,60.846478,22.227211,-12.991172,-155.127075,-5.045953,89.766785,0.182776,-0.684558,-0.695157,0.121364
511,1.439814,-4.034073,-9.200382,58.770763,22.432594,-12.548392,-153.139511,-5.900723,89.824272,0.199613,-0.679471,-0.694270,0.128310
512,1.589990,-4.811127,-8.903266,74.415405,23.907713,-14.444733,-150.924530,-6.793485,89.859741,0.217906,-0.673597,-0.692957,0.136363
513,1.461358,-5.393944,-9.016308,84.134888,16.052706,-9.001887,-148.283279,-7.565024,89.859161,0.237857,-0.666815,-0.690641,0.147639
514,1.418659,-5.780450,-8.830607,98.402847,9.154573,-4.055609,-145.236115,-8.035311,89.808075,0.258276,-0.659509,-0.686855,0.163009
515,1.168723,-6.403633,-8.519660,105.009567,0.221647,4.394301,-141.834656,-8.157337,89.707390,0.278587,-0.651857,-0.681338,0.182350
516,0.899874,-7.650564,-8.300026,119.282593,-4.489568,15.516524,-138.070557,-7.889740,89.494186,0.298735,-0.644305,-0.673301,0.205656
517,0.944313,-7.946164,-7.914851,115.323227,-6.397336,21.968931,-134.121704,-7.327579,89.164703,0.318339,-0.637095,-0.662842,0.231108
518,0.854304,-8.485644,-7.723265,103.162369,-7.420088,22.512918,-130.444458,-6.626009,88.832413,0.335575,-0.630484,-0.651674,0.255345
519,0.957848,-8.583646,-7.639819,77.705139,-4.100282,22.165394,-127.398056,-5.926941,88.511467,0.349272,-0.625242,-0.641189,0.275604
520,1.266734,-9.094797,-7.652544,61.955032,0.035052,17.231354,-125.038757,-5.358656,88.175934,0.359938,-0.621523,-0.632076,0.290920
521,1.593577,-8.558270,-7.121631,48.317722,5.064785,7.352565,-123.174126,-5.067669,87.875107,0.369284,-0.618139,-0.624842,0.301838
522,1.207497,-8.469107,-7.248021,35.422752,0.770554,6.803956,-121.760460,-4.921002,87.666847,0.376689,-0.615130,-0.619539,0.309662
523,1.283447,-8.431265,-6.881368,28.586143,2.224687,2.909571,-120.683052,-4.808252,87.539482,0.382230,-0.612609,-0.615594,0.315680
524,0.938858,-9.232116,-6.267093,42.218880,-1.098837,11.188645,-119.492027,-4.614376,87.405266,0.387970,-0.609952,-0.610993,0.322685
525,0.751879,-9.104445,-5.680442,53.527023,-1.196629,11.030132,-117.885330,-4.271189,87.260094,0.395178,-0.606357,-0.604593,0.332614
526,0.329750,-9.228710,-5.602978,51.335106,-4.102590,16.267832,-116.129021,-3.825720,87.132195,0.402586,-0.602399,-0.597346,0.343829
527,0.559896,-9.631683,-4.880994,57.407352,0.200515,15.153093,-114.306892,-3.324375,86.966812,0.410149,-0.598490,-0.589300,0.355405
528,0.391855,-9.590349,-4.378029,62.967251,0.164678,16.400801,-112.289619,-2.844332,86.753563,0.418957,-0.593932,-0.580220,0.367511
529,0.394866,-9.453313,-4.158498,56.368954,1.039766,12.411853,-110.292549,-2.404357,86.560394,0.427757,-0.589063,-0.571190,0.379170
530,0.665571,-9.723435,-3.726619,51.223072,3.696366,6.802907,-108.492744,-2.128608,86.379898,0.436251,-0.584152,-0.563249,0.388848
531,0.436155,-10.102924,-3.406347,46.019688,0.866444,8.851871,-106.867035,-1.903353,86.228851,0.443953,-0.579460,-0.556078,0.397379
532,0.266323,-9.685163,-3.026482,42.285980,-0.640887,7.371090,-105.393188,-1.644527,86.149696,0.450437,-0.575037,-0.549543,0.405513
533,0.166902,-9.689728,-2.771244,39.065231,-1.451822,9.921378,-104.036560,-1.356787,86.110252,0.456018,-0.570926,-0.543397,0.413293
534,0.016760,-9.935804,-2.749896,32.701118,-2.577443,12.685329,-102.840187,-0.974763,86.087685,0.460273,-0.567678,-0.537440,0.420772
535,-0.148806,-9.659729,-2.693413,24.678473,-4.109499,15.318686,-101.884087,-0.495010,86.096191,0.462755,-0.565595,-0.532039,0.427663
536,0.276850,-9.120035,-2.484023,19.631350,-2.164334,2.957034,-101.145927,-0.175628,86.137367,0.464767,-0.563625,-0.528186,0.432825
537,0.152056,-9.534426,-2.604497,11.957228,-2.707906,5.615267,-100.619629,-0.019961,86.190697,0.466435,-0.561833,-0.525821,0.436228
538,0.164318,-9.789362,-2.444376,11.108384,-2.317588,1.736711,-100.235146,0.115734,86.250710,0.467467,-0.560509,-0.524093,0.438897
539,0.227490,-9.395376,-2.209049,10.678699,-0.843297,-3.727535,-99.871941,0.092271,86.308456,0.469126,-0.558671,-0.523077,0.440679
540,0.120566,-9.771633,-2.334349,5.968305,-0.695432,-3.083858,-99.594498,-0.015293,86.353081,0.470796,-0.556916,-0.522668,0.441604
541,-0.049855,-10.306523,-2.097841,8.627710,-0.680275,0.918445,-99.351242,-0.047110,86.381668,0.472011,-0.555662,-0.521999,0.442676
542,-0.217788,-10.216998,-1.864430,9.411693,-1.032476,3.655025,-99.050591,0.032682,86.397575,0.473043,-0.554659,-0.520583,0.444496
543,-0.152725,-10.255788,-1.661197,8.719254,-1.901360,4.493876,-98.748360,0.174426,86.424820,0.473755,-0.553837,-0.518953,0.446664
544,-0.197639,-10.750142,-1.294652,14.415582,-2.359098,6.569697,-98.362579,0.367345,86.467575,0.474575,-0.552797,-0.516849,0.449512
545,-0.222671,-10.764248,-0.991889,19.034601,-1.665473,8.568043,-97.804825,0.626544,86.498520,0.475965,-0.551355,-0.513715,0.453389
546,-0.289752,-10.845143,-1.246816,12.075232,-0.583159,11.549061,-97.286423,0.963785,86.491661,0.476959,-0.550548,-0.510199,0.457279
547,-0.092010,-11.129380,-1.631427,-1.015955,2.363315,7.769452,-97.103439,1.279440,86.421616,0.476691,-0.551330,-0.507789,0.459294
548,-0.049487,-11.285994,-1.693433,-10.106945,5.587123,5.451526,-97.292580,1.481350,86.262245,0.475503,-0.553607,-0.506918,0.458749
549,0.052771,-10.904099,-2.359570,-32.610817,7.423632,-0.227605,-98.010437,1.538702,86.035492,0.472665,-0.557803,-0.508436,0.454902
550,0.114358,-10.897411,-3.029908,-54.882492,7.837252,-4.529491,-99.474617,1.421370,85.795708,0.466975,-0.564429,-0.513517,0.446827
551,0.179184,-10.685464,-3.241310,-68.833649,8.934154,-10.858459,-101.541000,1.117893,85.567398,0.458999,-0.572674,-0.521593,0.435091
553,0.225523,-10.359728,-3.727335,-86.926697,8.382710,-14.411350,-104.138687,0.643098,85.379036,0.448825,-0.582096,-0.532252,0.420034
554,0.394738,-9.991572,-4.512486,-110.262482,7.780756,-19.436129,-107.423439,0.026983,85.273331,0.435273,-0.593076,-0.545873,0.401026
555,0.264057,-9.998191,-5.195800,-125.562569,6.227759,-15.476117,-111.349411,-0.599222,85.246262,0.417843,-0.605675,-0.561405,0.378669
556,0.154481,-9.574591,-5.808880,-141.143631,4.801106,-11.328927,-115.788383,-1.081298,85.258324,0.396437,-0.619808,-0.577342,0.354051
557,0.041828,-9.344049,-6.512183,-153.979202,2.463648,-3.820597,-120.698669,-1.360070,85.273033,0.370902,-0.635314,-0.592930,0.327478
558,0.046118,-8.982831,-7.018816,-157.623260,1.361731,-0.001143,-125.880814,-1.447217,85.257675,0.342298,-0.651273,-0.607290,0.299792
559,0.026948,-8.675025,-7.679030,-150.295059,0.045049,3.834215,-130.999969,-1.411185,85.201088,0.312814,-0.666306,-0.619650,0.272429
560,0.305661,-8.426223,-8.168613,-128.767822,2.436831,4.125303,-135.638596,-1.342533,85.081589,0.285478,-0.679234,-0.629297,0.247242
561,0.790588,-8.748727,-8.298965,-92.260399,10.003246,-2.468499,-139.312622,-1.475679,84.920883,0.264607,-0.688647,-0.636222,0.225765
562,0.541854,-8.947953,-8.687778,-59.715611,4.633417,1.547155,-141.839111,-1.673335,84.774834,0.250723,-0.694733,-0.640561,0.210157
563,0.680652,-9.415312,-8.950360,-28.196077,3.142512,1.462077,-143.300247,-1.745453,84.656990,0.242452,-0.698394,-0.642611,0.201280
564,0.813777,-9.650743,-8.743747,-3.862769,4.057251,-5.445656,-143.833923,-1.881244,84.639084,0.239982,-0.699355,-0.643692,0.197411
565,0.371511,-9.617816,-8.244292,5.194701,-3.380757,-6.555275,-143.816910,-2.008565,84.793541,0.240527,-0.698206,-0.644847,0.197046
566,-0.108969,-8.938313,-8.388473,-8.114170,-15.681097,1.843998,-143.873795,-1.798467,85.044411,0.238578,-0.697317,-0.646073,0.198543
567,0.569521,-7.938640,-8.165324,-24.989830,-4.720912,-10.743353,-144.434753,-1.609461,85.363762,0.233557,-0.697029,-0.648627,0.197192
568,0.204161,-7.409678,-7.623335,-32.534054,-7.636901,-10.678180,-145.405502,-1.645867,85.773552,0.227163,-0.696585,-0.652836,0.192280
569,-0.590356,-6.499754,-7.489727,-50.464855,-25.897591,-0.602216,-146.800552,-1.286735,86.241577,0.215867,-0.697258,-0.657352,0.187409
570,-0.146346,-5.495144,-7.808767,-80.122231,-19.283989,-9.178488,-148.985306,-0.735237,86.781395,0.198531,-0.699039,-0.663194,0.179173
571,-0.024157,-5.019072,-7.343003,-81.656654,-12.183468,-14.167339,-151.687012,-0.471792,87.375900,0.179608,-0.700451,-0.670476,0.166045
572,-0.445587,-4.860573,-7.104833,-75.030350,-21.152092,-7.500376,-154.300293,-0.141183,87.947807,0.160883,-0.701442,-0.677139,0.153552
573,-0.239717,-3.796452,-7.145875,-96.827850,-15.963766,-10.738377,-157.161667,0.297640,88.481041,0.140063,-0.702592,-0.683491,0.139952
574,0.280139,-2.948145,-7.168667,-113.986526,3.712139,-13.402278,-160.670074,0.343920,88.927467,0.117747,-0.703914,-0.690153,0.119708
575,0.039168,-2.485362,-6.847436,-109.352219,2.021612,-5.611733,-164.387695,0.159258,89.195587,0.095746,-0.705587,-0.695484,0.096344
576,0.041494,-1.839534,-6.664170,-115.053017,2.121978,-4.431835,-168.123291,0.054302,89.342445,0.073243,-0.707371,-0.699230,0.073070
577,0.244843,-0.928893,-6.542102,-123.994987,9.829676,-5.898940,-172.102783,-0.170817,89.477715,0.049961,-0.708563,-0.702278,0.047414
578,0.338141,-0.330354,-6.532285,-123.873055,13.708284,-4.277205,-176.229187,-0.577794,89.604218,0.026895,-0.709035,-0.704388,0.019608
579,0.219409,-0.137328,-6.176274,-114.033615,10.680193,-3.196344,179.809631,-0.986813,89.714699,0.004896,-0.708848,-0.705307,-0.007276
580,0.015040,0.284391,-6.055523,-107.674751,2.515402,-2.559355,176.117065,-1.202625,89.818832,-0.016587,-0.708029,-0.705292,-0.031345
581,0.189719,0.950364,-6.078489,-110.655312,9.370721,-3.662454,172.479446,-1.388895,89.943634,-0.037845,-0.706441,-0.704623,-0.054903
582,0.165060,1.161345,-6.148115,-99.826805,9.627786,-4.936589,168.970093,-1.678458,90.134239,-0.057549,-0.703930,-0.703588,-0.078326
583,-0.016852,1.453751,-6.480466,-78.779739,3.229211,-9.074687,165.987732,-1.837347,90.408325,-0.074638,-0.700620,-0.702855,-0.097758
584,0.163068,1.685775,-6.952041,-50.939018,8.135635,-10.526104,163.815216,-1.936012,90.774376,-0.086944,-0.696913,-0.703010,-0.111942
585,0.425989,1.941766,-7.587615,-25.097900,16.744829,-12.862521,162.530380,-2.221186,91.266891,-0.092473,-0.693111,-0.704399,-0.121938
586,0.118002,1.981025,-8.333300,3.236702,7.404007,-17.946678,162.141022,-2.450233,91.877533,-0.092741,-0.689226,-0.707417,-0.126203
587,0.024796,2.122687,-9.034475,17.961903,2.373361,-18.306356,162.468231,-2.423136,92.503044,-0.090263,-0.685592,-0.711557,-0.124515
588,-0.060936,2.039616,-9.384571,28.740370,-0.660287,-18.147762,163.222656,-2.271919,93.092361,-0.086080,-0.682377,-0.716032,-0.119372
589,-0.085551,2.055792,-9.722221,33.361511,-3.396875,-15.988069,164.237854,-2.048158,93.619820,-0.080923,-0.679635,-0.720408,-0.112071
590,-0.138671,2.009423,-9.717172,28.795580,-7.089090,-13.206744,165.259766,-1.751974,94.043381,-0.076347,-0.677445,-0.724146,-0.104175
591,-0.002461,2.006734,-9.691196,24.976168,-4.847743,-9.297430,166.147217,-1.466729,94.357475,-0.072643,-0.675830,-0.727016,-0.097082
592,-0.009106,2.023288,-9.550488,22.185856,-4.334109,-6.442260,166.927979,-1.256972,94.577148,-0.069198,-0.674775,-0.729113,-0.091025
593,0.216928,1.953748,-9.425843,19.940067,0.820993,-1.101739,167.627731,-1.172283,94.686943,-0.065534,-0.674432,-0.730361,-0.086136
594,0.120374,2.059267,-9.417117,15.366434,-0.529131,-0.087475,168.215698,-1.173085,94.707634,-0.062053,-0.674628,-0.730915,-0.082404
595,0.233185,1.783885,-9.243194,19.266418,1.709297,2.898085,168.793777,-1.201744,94.665588,-0.058494,-0.675217,-0.731055,-0.078862
596,0.217468,2.020839,-9.250177,10.382984,0.678808,4.024605,169.290192,-1.262843,94.559967,-0.055248,-0.676170,-0.730729,-0.076003
597,0.220395,1.820063,-8.804279,-1.240493,0.268839,6.913168,169.446503,-1.312113,94.383682,-0.054127,-0.677394,-0.729761,-0.075213
598,0.114798,1.787216,-8.413762,-6.962030,-2.828378,8.129433,169.315628,-1.316566,94.129402,-0.055041,-0.678952,-0.728167,-0.075951
599,0.114324,1.624596,-8.011637,-6.793182,-2.777449,9.734365,169.093353,-1.280643,93.819382,-0.056795,-0.680791,-0.726202,-0.076998
600,0.023702,1.604107,-7.777892,-5.620049,-4.396695,10.451006,168.894211,-1.227473,93.466232,-0.058555,-0.682897,-0.724000,-0.077764
601,0.261903,1.030363,-7.286849,13.617422,2.830983,12.896298,169.035919,-1.276296,93.079247,-0.057662,-0.685437,-0.721754,-0.076965
602,0.088356,1.161653,-7.361400,24.435127,-2.615711,9.832678,169.678833,-1.349249,92.707550,-0.053592,-0.688125,-0.719901,-0.073176
603,0.163069,0.844671,-7.292185,41.882729,-0.220062,8.990566,170.791412,-1.355490,92.389977,-0.047053,-0.690610,-0.718663,-0.066091
604,0.166467,0.666633,-7.568382,56.713013,-0.771603,9.365372,172.441757,-1.383237,92.085045,-0.037076,-0.693137,-0.717685,-0.055803
605,0.311616,0.529882,-7.566031,63.044945,2.192156,9.091715,174.444641,-1.441592,91.782082,-0.024705,-0.695590,-0.716693,-0.043539
606,0.104686,0.449423,-7.944000,64.869400,-4.448132,9.353381,176.583588,-1.427935,91.473091,-0.011884,-0.697860,-0.715505,-0.030039
607,0.310161,0.066443,-7.934920,76.722786,1.608677,7.870347,178.949493,-1.391903,91.183441,0.002262,-0.699765,-0.714211,-0.015048
608,0.254416,-0.076700,-8.370973,78.386337,-0.864422,10.347721,-178.459167,-1.402489,90.880928,0.018153,-0.701417,-0.712519,0.000993
609,0.459057,-0.567434,-8.458782,81.860252,5.100015,8.446387,-175.782059,-1.457652,90.564171,0.034924,-0.702751,-0.710370,0.017203
610,0.353949,-1.279236,-8.845119,97.729202,2.323547,7.968674,-172.783218,-1.553090,90.280922,0.053977,-0.703304,-0.707970,0.035067
611,0.519594,-1.488210,-9.196626,91.675797,6.445777,7.142226,-169.621429,-1.658411,90.009155,0.074135,-0.703153,-0.705117,0.053763
612,0.547612,-2.356843,-9.353155,95.749588,7.474218,6.445980,-166.491913,-1.838482,89.740715,0.094578,-0.702365,-0.701856,0.071671
613,0.787529,-2.852121,-9.404524,95.502167,12.093411,3.792069,-163.298401,-2.108474,89.491302,0.115948,-0.700708,-0.698277,0.089292
614,0.730547,-3.238717,-9.208961,91.227226,10.544500,1.041884,-160.181061,-2.440969,89.297844,0.137148,-0.698077,-0.694727,0.105985
615,0.739023,-3.523870,-9.218264,79.643944,10.456033,0.298784,-157.328629,-2.758194,89.150154,0.156535,-0.694913,-0.691322,0.121103
616,0.856457,-4.109892,-8.941467,81.853905,12.466051,-2.374920,-154.632339,-3.120963,89.026497,0.175141,-0.691236,-0.687976,0.134933
617,0.713992,-4.241971,-8.932778,70.360886,7.435625,1.421126,-152.089218,-3.424045,88.892380,0.192397,-0.687482,-0.684411,0.148100
618,0.838954,-4.925017,-9.060145,69.501343,8.400312,-0.677568,-149.750778,-3.648853,88.752190,0.207896,-0.683846,-0.680735,0.160418
619,0.943418,-4.904866,-9.229290,57.596954,10.218336,-2.327554,-147.625519,-3.939639,88.633842,0.222405,-0.680021,-0.677390,0.171028
620,1.214270,-5.501800,-9.289863,50.038731,13.622907,-4.083639,-145.822906,-4.330385,88.505501,0.235525,-0.676410,-0.674493,0.179042
621,1.029368,-6.065398,-9.751619,47.755970,6.861105,-2.206655,-144.184799,-4.670227,88.395988,0.247290,-0.672902,-0.671797,0.186385
622,1.109719,-6.182699,-9.516595,41.924641,6.063704,-4.437513,-142.687073,-4.908879,88.355743,0.257486,-0.669324,-0.669488,0.193626
623,0.954881,-6.452489,-9.444304,37.751511,2.286046,-4.531359,-141.362167,-5.110287,88.388268,0.266288,-0.665656,-0.667760,0.200223
624,0.991647,-6.784035,-9.458168,35.352016,-1.314958,-0.116753,-140.148346,-5.171575,88.437996,0.273578,-0.662366,-0.666004,0.207038
625,0.899659,-6.622577,-8.994473,34.110390,-4.904193,0.111244,-138.996765,-5.092821,88.505066,0.279654,-0.659383,-0.664124,0.214352
626,0.839539,-6.762995,-8.447673,41.478146,-6.098722,3.137834,-137.744202,-4.919606,88.586449,0.285721,-0.656241,-0.661860,0.222827
627,1.046232,-7.045756,-8.609075,51.972713,-3.872592,2.593905,-136.190552,-4.733143,88.629990,0.293468,-0.652526,-0.658637,0.232989
628,0.910442,-7.139291,-8.226797,54.687080,-4.662278,4.397229,-134.414719,-4.550293,88.647629,0.302498,-0.648273,-0.654647,0.244283
629,1.176909,-7.701509,-7.796845,65.002579,0.626915,0.716655,-132.419662,-4.442295,88.637680,0.313169,-0.643255,-0.649991,0.256243
630,1.075924,-7.861863,-7.631889,67.409233,-0.520760,-0.205870,-130.213120,-4.437289,88.631699,0.325484,-0.637153,-0.644891,0.268723
631,1.040603,-7.524039,-7.420028,50.600971,0.279189,-3.190348,-128.250076,-4.478348,88.670708,0.336476,-0.631148,-0.640511,0.279610
632,0.820135,-7.552968,-6.800723,40.490158,-1.728176,-2.370437,-126.738297,-4.536946,88.746964,0.344894,-0.626057,-0.637335,0.287932
633,0.549615,-7.551214,-6.352787,38.023258,-5.553431,3.454952,-125.436813,-4.450690,88.834496,0.351298,-0.621876,-0.634271,0.295908
634,0.182353,-7.703931,-5.945530,37.839565,-11.063231,10.322756,-124.179710,-4.104110,88.930367,0.356013,-0.618518,-0.630563,0.305090
635,0.132283,-7.883514,-5.520044,41.291023,-10.018087,14.942719,-122.864998,-3.559031,88.990028,0.360051,-0.615759,-0.625818,0.315525
636,0.251788,-8.415868,-5.060654,53.415581,-7.900504,14.963103,-121.286011,-2.978559,88.978195,0.365492,-0.612633,-0.619665,0.327278
637,0.363249,-8.732129,-5.022586,54.442703,-4.852522,14.249102,-119.485802,-2.451432,88.915863,0.372511,-0.608841,-0.612529,0.339642
638,0.439608,-8.768578,-4.798066,52.411755,-2.911286,11.931700,-117.701607,-2.006831,88.820908,0.379939,-0.604920,-0.605279,0.351220
639,0.592827,-8.692097,-4.628930,47.975651,0.321276,7.134735,-116.025497,-1.704042,88.716125,0.387525,-0.600851,-0.598553,0.361297
640,0.488814,-8.711889,-4.611731,38.028488,-0.181986,6.549502,-114.589569,-1.499042,88.617104,0.394300,-0.597152,-0.592787,0.369514
641,0.352103,-8.715014,-4.280413,34.556976,-0.543564,7.937908,-113.377907,-1.273559,88.529892,0.399740,-0.594166,-0.587635,0.376643
642,0.374293,-8.797699,-4.147024,32.121529,-0.377270,5.828457,-112.265205,-1.056193,88.454857,0.404650,-0.591387,-0.582818,0.383202
643,0.386441,-9.004952,-3.873142,34.156128,0.506596,5.216050,-111.159500,-0.885959,88.384872,0.409726,-0.588401,-0.578139,0.389440
644,0.095228,-9.105066,-3.812398,30.862488,-1.823441,9.465685,-110.075081,-0.649269,88.319359,0.414328,-0.585659,-0.573253,0.395876
645,-0.037068,-9.244615,-3.564310,30.996408,-2.263510,11.633077,-109.043785,-0.295103,88.265373,0.418023,-0.583431,-0.568112,0.402633
646,-0.073822,-9.533142,-3.431028,31.320986,-2.513379,12.442166,-108.005188,0.110591,88.213234,0.421487,-0.581325,-0.562683,0.409631
647,-0.152820,-9.555305,-2.999084,34.515579,-2.637819,11.810927,-106.908241,0.521897,88.173820,0.425165,-0.578937,-0.556997,0.416919
648,0.012828,-9.571218,-2.913496,31.765873,-2.258397,6.225302,-105.803757,0.833307,88.167610,0.429233,-0.575974,-0.551735,0.423795
649,-0.109487,-9.675326,-2.498535,34.634857,-3.193805,7.383390,-104.696732,1.076091,88.195992,0.433496,-0.572555,-0.546818,0.430410
650,0.045345,-9.926940,-2.353066,34.994846,-2.867408,0.198617,-103.535034,1.223301,88.263100,0.438314,-0.568359,-0.542181,0.436907
651,0.045125,-9.751758,-2.010168,34.645443,-2.342798,-6.952232,-102.372269,1.133187,88.373558,0.444062,-0.563025,-0.538621,0.442378
652,-0.142502,-9.911117,-1.950539,31.198595,-3.032337,-6.017744,-101.272652,0.940067,88.506157,0.449843,-0.557382,-0.535772,0.447119
653,-0.458680,-9.790400,-1.964631,24.894676,-3.163673,-0.236431,-100.335922,0.857115,88.627090,0.454298,-0.552803,-0.533018,0.451568
654,-0.569589,-9.716780,-1.934520,19.001854,-2.426318,4.690876,-99.603081,0.946356,88.705643,0.457093,-0.549871,-0.530133,0.455704
656,-0.400898,-9.614106,-1.604535,20.211254,-1.227986,6.010677,-98.948952,1.132149,88.736725,0.459232,-0.547839,-0.526911,0.459722
657,-0.288047,-9.738041,-1.662570,17.024498,-1.074918,6.518712,-98.328224,1.344291,88.743271,0.461178,-0.546149,-0.523568,0.463588
658,-0.253084,-9.504786,-1.535952,15.070275,-1.950454,7.769188,-97.792900,1.587122,88.759735,0.462527,-0.544873,-0.520465,0.467224
659,-0.147359,-9.728386,-1.208277,18.311079,-3.398892,5.126294,-97.234772,1.811887,88.819954,0.463885,-0.543233,-0.517527,0.471035
660,-0.211246,-9.846346,-1.209522,16.844860,-4.276846,3.065865,-96.645264,1.962928,88.930664,0.465516,-0.540944,-0.514982,0.474834
661,-0.387672,-9.933565,-1.149497,14.498384,-4.446526,2.827394,-96.118210,2.076752,89.064384,0.466916,-0.538655,-0.512939,0.478262
662,-0.479701,-9.770369,-0.923557,15.217951,-3.759825,3.363868,-95.618279,2.193412,89.189964,0.468196,-0.536522,-0.510938,0.481538
663,-0.479928,-9.992653,-0.871588,12.474391,-2.288698,0.740430,-95.153076,2.270943,89.283966,0.469616,-0.534513,-0.509086,0.484343
664,-0.407561,-9.884793,-0.704354,13.980755,-1.332749,-2.038331,-94.709724,2.254556,89.346077,0.471492,-0.532351,-0.507567,0.486491
665,-0.335241,-9.721370,-0.495797,16.949205,-0.954634,-4.038580,-94.192467,2.156510,89.392059,0.474143,-0.529613,-0.506002,0.488529
666,-0.441336,-9.674262,-0.610983,11.711513,-1.200051,1.271975,-93.713371,2.112971,89.431152,0.476384,-0.527275,-0.504323,0.490610
667,-0.540717,-9.910382,-0.552346,9.886053,-1.690503,6.014473,-93.351845,2.237162,89.471603,0.477306,-0.526105,-0.502419,0.492917
668,-0.427313,-9.758889,-0.534253,7.129354,-1.502214,3.346197,-93.066460,2.395921,89.515892,0.477703,-0.525377,-0.500702,0.495052
669,-0.418123,-9.967102,-0.526732,3.986741,-0.696166,2.867839,-92.879875,2.501258,89.547173,0.477944,-0.524898,-0.499579,0.496460
670,-0.306823,-10.301354,-0.126276,12.251289,-0.057586,0.008889,-92.608780,2.549747,89.557404,0.478919,-0.523922,-0.498238,0.497896
671,-0.115578,-10.225203,0.058493,19.443399,1.034787,-5.678279,-92.081078,2.454655,89.545074,0.481810,-0.521369,-0.496301,0.499719
672,0.021865,-10.204819,0.169753,24.340998,2.310161,-10.859417,-91.353279,2.177461,89.497742,0.486562,-0.517337,-0.494128,0.501455
673,-0.247061,-10.558331,0.332473,26.825207,2.579138,-5.424572,-90.503304,1.904751,89.420799,0.491935,-0.512886,-0.491262,0.503597
674,-0.432905,-10.512088,0.194874,23.336103,3.058949,-1.486813,-89.670403,1.789423,89.326576,0.496574,-0.509204,-0.487685,0.506251
675,-0.337626,-10.439597,0.029538,12.730024,3.948933,-4.171155,-89.072960,1.696367,89.208496,0.500152,-0.506707,-0.484935,0.507872
676,-0.615360,-10.313471,-0.269098,-2.454837,4.944471,1.667732,-88.906044,1.657129,89.059677,0.501720,-0.506438,-0.483714,0.507759
677,-0.505308,-10.246435,-0.439455,-15.202366,4.951313,0.733324,-89.205208,1.699682,88.895332,0.500937,-0.508623,-0.484118,0.505959
678,-0.412652,-9.831558,-0.429583,-21.302252,5.744090,-1.861980,-89.818863,1.682239,88.716789,0.499066,-0.511982,-0.486101,0.502507
679,-0.120271,-9.395568,-0.544472,-26.772934,6.647354,-7.038077,-90.625832,1.533065,88.510666,0.497000,-0.515734,-0.489364,0.497526
680,-0.331587,-9.433652,-0.891770,-35.010674,7.448205,1.224404,-91.661446,1.431473,88.277412,0.493770,-0.520785,-0.493230,0.491629
681,-0.102996,-9.489637,-0.749396,-33.058784,7.444070,-2.401735,-92.802071,1.402146,88.030800,0.489738,-0.526623,-0.497095,0.485511
682,-0.424680,-9.476181,-0.792740,-31.338444,6.351848,6.942821,-93.881050,1.464316,87.796509,0.485462,-0.532489,-0.500287,0.480099
683,-0.220715,-9.587568,-1.512638,-44.353653,7.098238,4.149073,-95.149017,1.630936,87.559158,0.479770,-0.539542,-0.503735,0.474305
684,-0.304820,-9.993855,-1.363311,-40.720032,7.394150,4.730675,-96.574196,1.753286,87.303299,0.473509,-0.547086,-0.507854,0.467516
685,-0.046052,-9.791225,-1.623953,-41.779503,7.765562,-5.490430,-97.956490,1.708878,87.054298,0.468081,-0.553700,-0.512441,0.460131
686,-0.204807,-9.857253,-2.237265,-51.132298,6.281768,-6.851373,-99.510155,1.469926,86.853073,0.462434,-0.559995,-0.518642,0.451189
687,-0.139076,-10.089900,-2.842380,-63.317905,7.161378,-12.382660,-101.420784,1.113767,86.691017,0.455325,-0.567040,-0.526739,0.440104
688,-0.170066,-10.164389,-3.010508,-70.151848,6.661467,-14.847173,-103.646347,0.620788,86.564209,0.447035,-0.574563,-0.536502,0.426851
689,-0.368393,-10.092366,-4.051920,-93.923676,4.451067,-11.103958,-106.380013,0.155107,86.497284,0.435680,-0.583722,-0.547971,0.411315
690,-0.350091,-10.160927,-4.611643,-112.582062,3.551532,-8.056096,-109.819130,-0.189793,86.471405,0.419744,-0.595473,-0.561192,0.392798
691,-0.259626,-10.126045,-5.053533,-125.480240,5.494337,-3.496352,-113.782089,-0.424136,86.404259,0.400292,-0.609199,-0.574892,0.371674
692,0.023954,-9.657233,-5.752491,-140.820755,7.260522,-3.584451,-118.212975,-0.622009,86.266289,0.377874,-0.624315,-0.588721,0.347635
693,-0.035980,-9.538382,-6.512298,-144.898865,6.387556,3.571183,-122.964401,-0.737314,86.070847,0.352821,-0.640137,-0.601881,0.321684
694,0.365732,-9.109132,-7.064539,-143.238144,9.913610,1.291637,-127.754089,-0.827144,85.805130,0.326928,-0.655506,-0.613528,0.294980
695,0.523519,-8.772496,-7.832109,-136.570114,12.808960,1.810690,-132.403519,-1.030482,85.481270,0.301929,-0.669496,-0.623614,0.267805
696,0.514933,-8.534423,-8.271088,-119.337151,9.530265,3.790658,-136.654816,-1.223692,85.150284,0.278649,-0.681628,-0.631598,0.242532
697,0.505443,-8.808279,-8.736604,-91.315285,7.158239,6.105830,-140.154190,-1.321870,84.843536,0.258844,-0.691322,-0.637070,0.221847
698,0.928463,-8.653978,-8.933299,-71.472893,14.119060,-1.525692,-142.858063,-1.551027,84.563858,0.244235,-0.698355,-0.640878,0.204754
699,0.786908,-8.750690,-8.709217,-42.152107,12.679440,-2.106739,-144.743958,-1.946997,84.346581,0.235276,-0.702760,-0.643570,0.191287
700,0.422645,-8.927255,-8.832785,-18.095127,3.620514,-2.538326,-145.744461,-2.214020,84.254547,0.230764,-0.704816,-0.645131,0.183817
701,0.324969,-8.983118,-9.136526,-7.706365,1.524700,-6.407516,-146.177429,-2.368775,84.330208,0.228841,-0.704973,-0.646561,0.180566
702,0.565398,-8.366894,-9.062384,-20.582870,8.830254,-12.092173,-146.655975,-2.683293,84.491631,0.227399,-0.704438,-0.648847,0.176225
703,0.621312,-7.792728,-8.431878,-21.960928,11.984351,-14.139428,-147.374268,-3.212150,84.669708,0.225668,-0.703882,-0.651916,0.169205
704,0.212017,-7.300376,-8.369356,-26.468840,1.146946,-10.520961,-148.195206,-3.616372,84.901016,0.222555,-0.703434,-0.655179,0.162454
705,0.210262,-6.409230,-8.193604,-49.345421,-3.077330,-8.891397,-149.477356,-3.756319,85.195877,0.215060,-0.703942,-0.658980,0.154791
706,0.907991,-5.678269,-7.311779,-56.965500,13.546116,-14.517872,-151.266159,-4.100357,85.449921,0.205678,-0.705167,-0.663362,0.142785
707,0.137004,-4.833779,-6.824640,-50.804981,-6.613451,-7.073541,-153.081635,-4.369899,85.712814,0.195717,-0.706374,-0.667507,0.131014
708,-0.310932,-4.367424,-7.202351,-55.594570,-23.168467,0.431500,-154.877365,-3.972931,86.033470,0.182001,-0.708081,-0.670994,0.123544
709,0.610514,-3.709838,-7.017016,-70.128098,2.777891,-9.863488,-156.990814,-3.726713,86.318336,0.167205,-0.709987,-0.674661,0.113112
710,0.479491,-3.059865,-6.723509,-72.978737,5.327155,-8.360786,-159.390762,-3.964535,86.546021,0.153493,-0.711682,-0.678521,0.097767
711,0.081204,-2.544905,-7.228407,-79.466896,-8.499207,-2.637324,-161.943527,-3.974904,86.736549,0.137526,-0.713780,-0.681726,0.082792
712,0.714693,-2.493114,-7.482018,-78.904366,9.026311,-6.372849,-164.591431,-4.026192,86.880829,0.121216,-0.715853,-0.684392,0.066847
713,0.690711,-1.949779,-7.507460,-85.344093,8.244014,-7.290897,-167.338333,-4.360290,87.028809,0.105943,-0.717369,-0.686885,0.048450
714,0.431305,-1.523403,-7.808512,-88.032440,-1.442186,-3.856486,-170.238434,-4.507651,87.189636,0.088592,-0.718743,-0.688945,0.030245
715,0.943731,-1.573903,-8.130599,-76.671867,11.015363,-5.942480,-172.992813,-4.688753,87.330437,0.072360,-0.719704,-0.690384,0.012623
716,0.664562,-0.980177,-8.225618,-82.519409,3.531185,-9.962606,-175.664566,-4.956271,87.568298,0.057179,-0.719629,-0.691982,-0.005045
717,0.518237,-0.363299,-8.166448,-92.083031,-2.853466,-9.786976,-178.601227,-4.984751,87.898979,0.038958,-0.718849,-0.693698,-0.022842
718,0.638708,-0.037131,-8.152972,-93.037544,-0.041547,-9.764941,178.287521,-4.935369,88.227028,0.019248,-0.717664,-0.694897,-0.041301
719,0.378473,0.551765,-8.089176,-99.147949,-6.981993,-13.404667,175.054794,-4.796184,88.606117,-0.001650,-0.715624,-0.695900,-0.060023
720,0.345182,1.452905,-7.743630,-116.852348,-7.850125,-14.310944,171.423248,-4.497142,89.038307,-0.025843,-0.712529,-0.696554,-0.080286
721,0.561553,1.774608,-7.512343,-113.923317,-1.024696,-11.427676,167.551300,-4.273414,89.433556,-0.050912,-0.708758,-0.696096,-0.102570
722,0.441870,2.242292,-7.424626,-105.390144,-2.924476,-11.703327,163.874237,-4.114472,89.789368,-0.074210,-0.704504,-0.694812,-0.124111
723,0.521523,2.562754,-7.264624,-92.604752,0.963619,-11.062423,160.552979,-3.967798,90.141769,-0.095049,-0.699808,-0.693263,-0.143600
724,0.557790,2.802164,-7.194271,-72.654541,3.201648,-9.365185,157.777267,-3.912143,90.484390,-0.111832,-0.695181,-0.691741,-0.160349
725,0.528541,3.030298,-7.244619,-52.672237,2.864572,-8.615702,155.668091,-3.886969,90.799736,-0.124285,-0.691079,-0.690615,-0.173246
726,0.676067,3.198450,-7.504789,-27.510004,6.809016,-5.742505,154.312653,-3.932237,91.085396,-0.131721,-0.687896,-0.690163,-0.182000
727,0.876321,3.272689,-8.130231,2.958630,10.364242,-4.970421,153.883377,-4.112135,91.371170,-0.132734,-0.685892,-0.690902,-0.185977
728,0.838120,3.398144,-8.498146,13.122886,7.305775,-5.976027,154.129822,-4.297544,91.664528,-0.129646,-0.684623,-0.692761,-0.185915
729,0.853642,3.415542,-9.023295,22.454451,5.303719,-6.878164,154.701263,-4.394797,91.949127,-0.125177,-0.683648,-0.695228,-0.183341
730,0.753998,3.243557,-9.317643,33.222729,1.592417,-9.091578,155.606964,-4.387450,92.239601,-0.119364,-0.682840,-0.698400,-0.178100
731,0.482656,3.517868,-9.426718,22.563223,-5.442615,-12.783378,156.513763,-4.181072,92.547333,-0.114776,-0.681662,-0.701922,-0.171666
732,0.392658,3.475654,-9.104583,10.114638,-8.336281,-10.482251,157.039993,-3.816874,92.813042,-0.113523,-0.680168,-0.704797,-0.166568
733,0.340034,3.640116,-9.159183,7.136894,-9.206679,-9.588581,157.315338,-3.417527,93.007957,-0.114100,-0.678816,-0.706902,-0.162730
734,0.429390,3.649371,-8.975745,2.545236,-6.137676,-7.282552,157.467606,-3.073330,93.169373,-0.115120,-0.677601,-0.708537,-0.159938
735,0.536950,3.834088,-8.916383,-3.816395,-2.575423,-5.616326,157.438995,-2.856740,93.312355,-0.116444,-0.676452,-0.709630,-0.158993
736,0.622244,3.751647,-8.872106,-1.216545,0.389107,-4.531178,157.348114,-2.758025,93.454559,-0.117400,-0.675370,-0.710474,-0.159125
737,0.606508,3.937344,-8.902950,-2.966910,1.857925,-6.477163,157.269562,-2.721826,93.638466,-0.117833,-0.674107,-0.711495,-0.159591
738,0.537579,3.960192,-8.942936,-2.868679,1.251677,-6.784989,157.161713,-2.683998,93.862564,-0.118391,-0.672561,-0.712712,-0.160272
739,0.366220,4.087350,-8.981287,-9.244930,-2.055791,-6.879537,156.950439,-2.582878,94.067284,-0.119978,-0.670953,-0.713750,-0.161213
740,0.236979,4.233659,-9.110260,-18.436821,-3.696562,-5.715699,156.482376,-2.411727,94.222366,-0.123570,-0.669290,-0.714222,-0.163303
741,0.348042,4.222151,-9.196787,-23.551474,-0.661503,-1.651924,155.779221,-2.295460,94.305244,-0.128284,-0.667861,-0.713850,-0.167103
742,0.303978,4.467043,-9.037046,-43.043907,-0.688674,-0.254684,154.668594,-2.261560,94.324417,-0.134934,-0.666424,-0.712356,-0.173841
743,0.472055,4.624271,-8.675628,-51.668270,3.699280,2.305387,153.090637,-2.321525,94.315712,-0.143737,-0.664639,-0.709754,-0.183967
744,0.580142,4.578324,-8.532692,-35.834671,6.377438,2.166099,151.632080,-2.504816,94.327057,-0.151023,-0.662950,-0.707131,-0.194049
745,0.645334,4.654030,-8.214886,-21.794128,6.874725,2.045269,150.669724,-2.732278,94.371750,-0.155091,-0.661722,-0.705360,-0.201338
746,0.541698,4.722784,-8.117270,-6.764958,3.372473,1.296613,150.192017,-2.908370,94.407372,-0.156689,-0.661116,-0.704425,-0.205327
747,0.523495,4.399172,-8.330617,24.563316,0.498203,2.705282,150.490005,-2.997436,94.381218,-0.154461,-0.661814,-0.704657,-0.203966
748,0.397047,4.245475,-8.953983,45.960014,-5.643263,3.315075,151.672073,-2.970894,94.251518,-0.148014,-0.664134,-0.706015,-0.196368
749,0.187128,3.915336,-9.414208,62.914986,-13.764805,4.336112,153.499390,-2.742597,93.988716,-0.139255,-0.667733,-0.707873,-0.183455
750,-0.042796,2.991340,-10.489780,92.858101,-20.947365,7.201925,156.113113,-2.301422,93.567596,-0.127360,-0.672823,-0.710009,-0.164240
751,-0.058799,2.146017,-11.956422,94.766319,-20.390776,9.406311,159.256393,-1.769743,93.049995,-0.112833,-0.678733,-0.711819,-0.141083
752,0.520345,2.129948,-11.925391,61.357738,-5.416131,7.707919,161.868088,-1.459735,92.638458,-0.099719,-0.683408,-0.712720,-0.122634
753,0.292260,2.095243,-10.382560,25.955275,-2.632996,3.455130,163.328262,-1.387221,92.422653,-0.091669,-0.685906,-0.713004,-0.112938
754,0.118956,2.330132,-9.102299,-10.302086,-1.237010,2.495310,163.591812,-1.353676,92.309166,-0.090411,-0.686794,-0.712613,-0.111009
755,0.375669,2.921794,-7.670827,-55.479248,9.135360,0.685945,162.495789,-1.495324,92.296761,-0.096106,-0.686100,-0.711303,-0.118653
756,0.478865,3.563692,-6.258765,-82.890640,13.626099,-0.399391,160.186813,-1.856591,92.413345,-0.107528,-0.683663,-0.709056,-0.135216
757,-0.072830,3.631709,-6.461377,-60.612946,-7.027415,-0.498013,157.794571,-1.953988,92.466805,-0.121101,-0.681048,-0.706273,-0.150619
759,0.197553,3.990107,-7.355652,-39.075504,-4.910493,4.230408,156.138077,-1.793997,92.334824,-0.132107,-0.679844,-0.703455,-0.159720
760,0.732526,4.440278,-8.011445,-35.073986,5.131666,7.825723,154.908371,-1.879948,92.153191,-0.139131,-0.679608,-0.700503,-0.167544
761,0.568370,4.658221,-8.440667,-28.323114,0.531165,6.321666,153.857986,-2.067017,91.980324,-0.144469,-0.679604,-0.697638,-0.174839
762,0.593683,5.201545,-8.587523,-32.301361,0.863307,6.149632,152.854095,-2.180856,91.805145,-0.149997,-0.679531,-0.694866,-0.181382
763,0.525843,5.579968,-7.611880,-43.448311,1.424970,5.582559,151.597809,-2.305774,91.649818,-0.156932,-0.678962,-0.691716,-0.189508
764,0.673534,5.312510,-7.787041,-19.972321,3.764349,8.684772,150.547928,-2.496656,91.483490,-0.162270,-0.678776,-0.688647,-0.196718
765,0.517572,4.623847,-8.305701,13.552645,-1.555141,10.483527,150.452759,-2.685604,91.222717,-0.162137,-0.680481,-0.686617,-0.198027
766,0.604996,4.998410,-8.710600,17.951778,-2.256957,11.396180,150.994476,-2.807842,90.872734,-0.158772,-0.683509,-0.685257,-0.195013
767,0.752513,4.757314,-7.321102,16.560904,2.805562,13.188755,151.587692,-3.012611,90.517265,-0.154587,-0.686728,-0.683791,-0.192191
768,0.810507,4.045105,-8.591255,53.304974,-0.496736,12.812318,152.772171,-3.248872,90.151680,-0.146643,-0.690778,-0.683160,-0.186047
769,0.783245,4.207800,-8.956167,51.592918,-0.581134,5.352458,154.536224,-3.366204,89.871147,-0.135711,-0.694770,-0.684065,-0.175877
770,0.635679,4.853193,-7.591322,26.680374,2.394615,-2.172463,155.842575,-3.415038,89.835297,-0.127539,-0.696541,-0.685736,-0.168320
771,0.622837,3.915322,-8.157296,53.551327,2.650878,-4.358361,157.171646,-3.448061,89.968918,-0.119064,-0.697205,-0.688409,-0.160694
772,0.508651,4.002409,-8.342614,52.906845,0.455733,-9.286909,158.931808,-3.411141,90.199448,-0.108264,-0.697525,-0.692249,-0.150096
773,0.252036,4.144593,-7.686044,42.868572,-1.589435,-11.936020,160.508759,-3.270344,90.524666,-0.099120,-0.696853,-0.696401,-0.139988
774,0.264699,3.630936,-6.935814,51.735554,-2.171081,-6.503813,162.070145,-3.111974,90.795570,-0.090283,-0.696360,-0.700071,-0.129744
775,0.438407,2.816871,-7.397711,85.036217,-0.322548,-0.703036,164.343536,-3.038303,90.898888,-0.076802,-0.697330,-0.703209,-0.115454
776,0.309591,2.251006,-5.842078,98.821648,-2.908018,3.904186,167.409454,-3.000247,90.834648,-0.058409,-0.699511,-0.705686,-0.096337
777,0.254195,0.948920,-6.348928,161.617935,-9.300014,10.535946,171.759766,-2.844885,90.560776,-0.032946,-0.702871,-0.707249,-0.068458
778,0.434944,-0.294103,-5.626122,218.147537,-5.508691,16.400606,178.097626,-2.640392,90.091492,0.004576,-0.706528,-0.707116,-0.028021
779,0.116418,-1.762690,-5.717649,274.918335,-21.504305,19.124212,-173.694397,-2.170870,89.522217,0.052364,-0.708113,-0.703700,0.025290
780,-0.137810,-3.754404,-6.054180,319.363953,-34.038342,23.411674,-163.839783,-1.130553,89.003632,0.107091,-0.705141,-0.694929,0.091550
781,-0.142095,-5.983734,-7.688132,323.211365,-32.811607,21.371754,-153.221558,0.167832,88.714134,0.164572,-0.695799,-0.679882,0.162912
782,-0.822566,-9.273759,-9.016404,316.236481,-36.704273,23.237251,-142.664597,1.530713,88.701263,0.220014,-0.680384,-0.659155,0.232780
783,-1.148691,-12.384582,-10.046928,283.492004,-28.734241,19.760517,-132.751892,2.807243,88.899239,0.270269,-0.660718,-0.634394,0.296563
784,-1.192863,-14.847613,-10.167912,237.541260,-14.163078,13.158251,-124.120895,3.671911,89.119133,0.313814,-0.639681,-0.608854,0.348749
785,-1.662420,-15.997312,-9.061995,184.588165,-2.448324,9.831343,-117.120262,4.134987,89.167221,0.349652,-0.620477,-0.585102,0.387823
786,-1.772414,-16.896488,-6.036200,156.196075,3.840171,8.532524,-111.470718,4.398837,89.022293,0.378964,-0.604064,-0.563543,0.417028
787,-1.354880,-16.087187,-3.207140,138.098633,5.195134,2.351764,-106.592949,4.518275,88.821365,0.404496,-0.588758,-0.543788,0.440501
788,-1.420032,-14.637507,-1.145208,127.966568,0.827962,2.567592,-102.175728,4.572474,88.705688,0.427085,-0.573460,-0.525607,0.460954
789,-1.307803,-13.124163,0.069891,122.914680,-4.972141,1.969730,-97.996460,4.660124,88.760201,0.447065,-0.557598,-0.508341,0.480424
790,-0.904229,-12.193670,0.220731,111.299126,-9.984817,-3.217015,-94.077965,4.667432,89.010742,0.464744,-0.540941,-0.492770,0.498572
791,-0.699506,-10.701208,-0.485299,80.203506,-9.036633,-7.460642,-90.863907,4.505181,89.337227,0.479007,-0.525660,-0.480830,0.512871
792,-0.601749,-9.598492,-1.044144,42.480888,-4.247321,-9.600184,-88.803780,4.220856,89.559685,0.488636,-0.514846,-0.473839,0.521195
793,-0.144157,-9.194814,-1.290320,10.405142,0.009767,-18.768675,-87.918663,3.746166,89.617981,0.494430,-0.508788,-0.472244,0.523125
794,-0.085459,-8.947805,-1.023882,-6.340742,4.673212,-19.627504,-87.857117,3.109406,89.517906,0.497958,-0.506200,-0.474440,0.520294
795,-0.196779,-8.761803,-0.778824,-14.714398,8.464684,-14.570861,-88.219963,2.547138,89.280052,0.499890,-0.506346,-0.477595,0.515389
796,-0.335312,-8.131736,-0.127032,-6.063238,9.624681,-7.168389,-88.579361,2.193346,88.968796,0.501236,-0.507695,-0.479436,0.511028
797,-0.443124,-7.574904,0.519341,11.536677,8.560540,1.769007,-88.499809,2.111334,88.663269,0.503306,-0.508271,-0.478100,0.509671
798,-0.857414,-6.884225,1.104893,35.547546,7.068751,21.426268,-87.725266,2.506678,88.415306,0.506136,-0.507583,-0.471734,0.513472
799,-1.059010,-6.529659,1.505417,55.487503,2.685033,37.944828,-86.214394,3.503794,88.304718,0.509025,-0.505626,-0.459774,0.523300
800,0.965883,-7.245809,-0.759215,-11.482372,0.532375,-24.224619,-85.484077,3.736376,88.267387,0.511416,-0.503526,-0.455167,0.527008
801,-0.394354,-8.414213,-1.741333,-40.810944,4.937191,8.437689,-86.362206,3.480113,88.159737,0.509135,-0.506763,-0.459919,0.521965
802,-0.229211,-9.799449,-2.580672,-60.125935,2.652571,8.781546,-88.051521,3.772845,88.049812,0.500828,-0.515897,-0.465711,0.515882
803,0.051821,-10.951621,-3.140211,-69.814720,-1.314800,4.638927,-90.217896,3.996315,88.030479,0.490079,-0.526274,-0.474270,0.507864
804,0.136420,-11.597873,-4.015390,-82.762726,-0.943685,-1.159838,-92.757301,4.054556,88.065887,0.477879,-0.537089,-0.485312,0.497634
805,-1.962575,-11.193669,-2.058536,-52.678493,-5.991780,39.783001,-95.008034,4.704338,88.136665,0.463926,-0.548613,-0.492468,0.491195
806,-0.438233,-10.637517,-1.578243,-31.818308,-8.464523,19.339672,-96.402039,5.708083,88.287224,0.451846,-0.557409,-0.494743,0.490264
807,-1.075537,-9.829128,-1.431905,-17.651531,-9.618094,27.119850,-97.204750,6.511871,88.495384,0.443203,-0.562686,-0.495669,0.491191
808,-0.762798,-9.387416,-1.414487,-9.419821,-5.232180,16.034063,-97.637222,7.256753,88.650322,0.436818,-0.566457,-0.495020,0.493227
809,-0.590613,-9.077090,-1.123966,3.977309,-3.685133,9.821347,-97.716110,7.703656,88.740883,0.433869,-0.568019,-0.493843,0.495208
810,-0.391021,-8.831543,-1.038253,14.603924,-3.753594,2.630668,-97.393265,7.925601,88.837791,0.433969,-0.567200,-0.491945,0.497942
811,-0.375240,-8.885715,-0.903962,18.433878,-4.571825,-2.095438,-96.823608,7.951570,88.976028,0.436054,-0.564541,-0.490029,0.501021
812,0.510575,-9.547373,-0.763435,22.874849,-3.180187,-25.826931,-96.110657,7.503746,89.158676,0.440915,-0.559351,-0.489791,0.502818
813,0.267009,-9.655675,-0.570459,32.918400,-6.176518,-29.914345,-95.150497,6.594587,89.407913,0.448828,-0.551077,-0.490819,0.503949
814,0.009322,-10.058261,-0.433088,40.706970,-8.026702,-35.306606,-93.889328,5.529863,89.730888,0.458449,-0.540520,-0.491523,0.506031
815,-0.228700,-10.486176,-0.006094,53.459324,-8.337332,-40.506100,-92.290977,4.283250,90.072342,0.470186,-0.527537,-0.491565,0.508914
816,-0.397227,-10.591540,0.337659,67.943283,-8.501884,-46.602520,-90.248955,2.838442,90.384987,0.484629,-0.511644,-0.490296,0.512801
817,-1.115406,-10.190875,0.652304,81.339569,-8.546412,-37.629333,-87.752678,1.430544,90.643974,0.500645,-0.493697,-0.486480,0.518609
818,-1.191293,-9.873969,0.846004,83.418610,-6.149290,-35.119930,-85.006012,0.205937,90.808716,0.516751,-0.475301,-0.480170,0.525826
819,-1.089045,-9.854839,1.194018,85.872643,-2.151970,-35.348274,-82.186707,-0.976020,90.814461,0.533070,-0.456870,-0.472554,0.532728
820,-1.193533,-9.478524,1.136777,79.113205,2.624557,-29.875074,-79.434517,-2.047729,90.632866,0.548931,-0.439494,-0.463922,0.538791
821,-1.638376,-9.244404,1.216247,69.923447,8.218936,-11.521902,-76.939384,-2.686367,90.313911,0.562289,-0.425551,-0.453915,0.544699
822,-0.970245,-9.057066,1.790800,70.915092,9.078000,-18.069752,-74.573395,-3.093636,89.909813,0.574376,-0.413374,-0.443073,0.550364
823,-1.819740,-9.271628,1.704068,56.008865,20.924700,12.771784,-72.431908,-3.036664,89.405800,0.584252,-0.404756,-0.430657,0.556199
824,-1.845272,-8.856506,1.823983,42.430679,23.184330,34.521217,-70.772804,-2.057834,88.951576,0.588921,-0.402883,-0.416094,0.563669
825,-0.408720,-9.019627,2.407871,37.662560,7.269958,17.009480,-69.434181,-1.077598,88.763092,0.591183,-0.401614,-0.403851,0.571063
826,0.393386,-9.048479,2.938483,37.124622,1.145948,6.284248,-68.188484,-0.664223,88.774437,0.594059,-0.397225,-0.395535,0.576939
827,0.042569,-8.736134,3.029960,30.997925,5.026115,19.442629,-67.053856,-0.228496,88.843658,0.596151,-0.393312,-0.387781,0.582697
828,0.729283,-8.484540,3.351886,29.598705,-8.964298,5.535574,-66.044189,0.127412,89.068207,0.597257,-0.389121,-0.381536,0.588472
829,0.564017,-8.503516,3.607048,24.335411,-11.247111,7.209124,-65.144798,0.182197,89.464035,0.598065,-0.383400,-0.377944,0.593701
830,-0.555715,-8.010406,3.587871,13.733541,2.201641,35.443745,-64.506744,0.761723,89.902779,0.595985,-0.381641,-0.373051,0.599987
831,-0.964896,-7.977304,3.327676,-14.503315,2.650750,50.056732,-64.505196,2.082994,90.441330,0.588712,-0.386743,-0.367910,0.607035
832,-0.795844,-8.545881,3.138061,-41.727013,-5.540403,48.251289,-65.406181,3.547786,91.176544,0.576648,-0.396523,-0.367528,0.612511
833,0.253897,-10.084930,2.723393,-66.407707,-23.442953,27.757811,-67.142075,4.513702,92.127190,0.561995,-0.407014,-0.375125,0.614640
834,0.210723,-9.689511,2.582989,-40.483166,-30.374279,22.931276,-68.830566,4.960975,93.273666,0.548122,-0.413662,-0.386000,0.615995
835,-0.259803,-10.132216,3.806296,-2.496080,-34.705181,35.686817,-69.422966,5.484426,94.640457,0.536588,-0.414496,-0.391490,0.622095
836,0.207169,-11.725061,3.449987,30.208403,-45.711887,8.911702,-68.811737,5.696886,96.166580,0.529602,-0.407525,-0.392554,0.631938
837,0.740257,-10.705848,3.601885,73.099007,-48.637264,-16.824759,-66.961899,4.979324,97.580803,0.530951,-0.390356,-0.390755,0.642669
838,-0.916319,-8.737614,4.073469,120.860092,-23.718388,9.304061,-63.648937,4.356842,98.627304,0.538314,-0.368011,-0.378516,0.656896
839,-1.828040,-8.613198,4.525512,106.315018,-7.764637,31.072506,-59.804008,4.694861,99.398911,0.544652,-0.349249,-0.356916,0.673788
840,-0.620401,-9.246396,3.240605,54.304359,-18.540970,-6.027970,-57.079803,4.821182,99.984474,0.548878,-0.335184,-0.341874,0.685205
841,-0.106293,-6.207848,4.188791,79.156525,-14.948009,-20.075108,-54.840206,4.148594,100.210777,0.556160,-0.319818,-0.332478,0.691275
842,-1.166021,-6.511168,4.573472,60.526054,13.185993,15.598375,-52.515495,4.068968,100.190445,0.562907,-0.308056,-0.318740,0.697598
843,-1.788150,-7.554004,5.074943,16.078678,15.468721,23.322662,-51.237968,4.873787,100.207657,0.563714,-0.306494,-0.306838,0.702949
844,-1.178242,-8.900910,6.405157,6.017531,3.448225,1.812581,-50.868614,5.398127,100.222565,0.562983,-0.307747,-0.301896,0.705125
845,-0.983734,-8.521359,8.202924,46.806877,11.760661,-30.591585,-50.034473,5.189579,99.719826,0.568942,-0.303703,-0.296509,0.704380
846,-2.046419,-9.551318,7.216362,55.853043,36.619755,-13.610185,-48.422237,5.157999,98.624512,0.579997,-0.298207,-0.283898,0.702906
847,-1.819621,-7.997948,6.319715,93.166458,37.096386,-26.482340,-46.068611,5.501101,97.259933,0.593433,-0.291450,-0.264115,0.702238
848,-0.326600,-6.855062,6.877843,108.300781,16.907524,-66.120316,-42.872143,5.064482,95.525101,0.613140,-0.275874,-0.242667,0.699332
849,-0.180985,-5.330170,5.687571,119.015984,23.124443,-78.313698,-39.260666,3.985506,93.278114,0.637803,-0.254333,-0.221615,0.692394
850,-1.171190,-3.886818,4.528817,107.879471,50.967319,-36.387486,-35.639816,3.801913,91.008659,0.659622,-0.236888,-0.196036,0.685822
851,-0.692217,-3.357737,6.227163,86.296791,23.595882,-48.850636,-32.544590,4.037639,89.121346,0.676615,-0.223250,-0.172392,0.680171
852,-0.246922,-4.297584,7.636105,17.908157,4.267467,-56.411499,-30.919569,3.508465,87.389450,0.690906,-0.213024,-0.162726,0.671409
853,0.186762,-3.871556,7.490666,19.418676,-1.318836,-54.819401,-30.381063,2.597643,85.772949,0.702879,-0.206828,-0.162250,0.660953
854,0.710587,-3.401854,8.283063,13.483940,-10.392753,-61.727551,-29.888090,1.454279,84.190636,0.714682,-0.199556,-0.163759,0.650069
856,1.309612,-2.767420,9.026432,18.112789,-22.203571,-58.849037,-29.379005,-0.011903,82.713905,0.726091,-0.190273,-0.167628,0.639131
857,0.505022,-1.803179,11.076924,28.849638,-14.613778,-31.118412,-28.583292,-1.273953,81.699715,0.734766,-0.179672,-0.169604,0.631721
858,0.172914,-4.262167,12.359742,-34.517357,-10.510983,3.747341,-28.671877,-1.857982,81.497826,0.736511,-0.177303,-0.173503,0.629295
859,0.469201,-3.250427,12.539777,25.004749,-10.725108,-13.683748,-28.830486,-2.249053,81.525734,0.736621,-0.176111,-0.176911,0.628551
860,0.262873,-2.109763,10.865018,97.701523,-7.751610,-4.889794,-26.780399,-2.665687,81.393684,0.740873,-0.160776,-0.168119,0.630075
861,-0.119624,-2.500214,9.899307,78.965385,1.476294,7.421686,-23.841255,-2.740323,81.473450,0.744387,-0.141199,-0.152484,0.634586
862,0.876144,-3.151839,7.979649,35.228031,-7.467254,-13.048979,-21.936625,-2.866956,81.423103,0.747028,-0.128158,-0.142678,0.636528
863,1.418252,-1.212144,7.331477,81.337852,-21.484213,-44.938622,-19.952868,-3.665205,80.694595,0.753813,-0.111576,-0.136108,0.633081
864,0.705267,-2.448374,7.531941,10.234968,-2.697688,-10.627515,-18.375626,-4.350661,79.951439,0.759834,-0.098197,-0.131223,0.629119
865,0.891884,-3.735635,8.777575,-58.092941,-2.156342,-7.972537,-19.152761,-4.527888,79.683472,0.760737,-0.102680,-0.136408,0.626202
866,1.221938,-3.901534,9.189080,-50.200649,-4.826502,-16.970734,-20.928902,-4.781075,79.332726,0.761148,-0.113507,-0.147407,0.621322
867,1.000771,-4.237898,8.836154,-32.216499,-0.114570,-7.917844,-22.271673,-5.009105,78.975266,0.761875,-0.121647,-0.155790,0.616829
868,0.700974,-4.015262,8.603048,-5.289561,7.742046,-0.048047,-22.881889,-4.942893,78.803703,0.762084,-0.126303,-0.158450,0.614955
869,0.933129,-4.510918,8.805920,-20.608624,-0.666382,4.563179,-23.315681,-4.804752,78.827354,0.761358,-0.129911,-0.159899,0.614727
870,1.018190,-4.866413,9.371881,-18.750753,-4.013828,8.386368,-23.990927,-4.789824,79.056801,0.759335,-0.134149,-0.163690,0.615321
871,0.609990,-4.917072,9.604032,-0.017405,2.744674,15.984974,-24.335028,-4.643124,79.437263,0.756751,-0.136686,-0.165034,0.617583
872,-0.030878,-4.805783,9.527555,20.924889,15.144375,26.139149,-24.025948,-4.084179,79.957512,0.753791,-0.136994,-0.160349,0.622351
873,-0.576852,-4.705116,9.115297,29.545376,25.063391,32.231857,-23.223434,-3.081139,80.581871,0.750389,-0.136444,-0.150201,0.629078
874,-1.305956,-3.941147,9.048592,58.147057,39.010632,33.488651,-21.786783,-1.675959,81.185287,0.747390,-0.134145,-0.133859,0.636785
875,-1.712343,-3.371778,9.031455,85.768791,42.498890,33.361271,-19.396545,-0.015110,81.751640,0.745338,-0.127292,-0.110342,0.645052
876,-1.864253,-2.900834,9.259568,89.789627,39.923618,27.939848,-16.464848,1.603373,82.302948,0.743822,-0.116919,-0.083790,0.652716
877,-1.802251,-2.404482,9.355697,83.699951,33.774849,18.462885,-13.558296,2.987442,82.732925,0.742964,-0.105667,-0.058558,0.658339
878,-1.579181,-1.131068,9.475470,102.759369,23.788439,9.328866,-10.437044,4.019647,82.987839,0.743349,-0.091225,-0.034064,0.661778
879,-1.294377,-0.666950,9.325552,89.454803,12.757155,4.504398,-7.225642,4.654077,83.126320,0.744425,-0.073994,-0.011452,0.663495
880,-1.250635,-0.606029,8.992051,56.726738,10.346735,1.596032,-4.785799,5.046602,83.189331,0.745263,-0.060395,0.005206,0.664009
881,-1.206021,-0.690219,8.810737,31.217043,5.141764,0.335408,-3.319353,5.305940,83.202766,0.745777,-0.052353,0.015389,0.663957
882,-1.114593,-0.673635,9.376910,19.303404,-4.732049,1.763048,-2.474223,5.314453,83.237587,0.745938,-0.046907,0.020326,0.664051
883,-0.882451,-1.326638,9.901166,-7.980515,-14.196295,2.783751,-2.277478,5.002544,83.327339,0.745624,-0.043838,0.019398,0.664640
884,-0.649636,-1.221716,10.024684,-10.596354,-18.518242,6.015347,-2.573015,4.464202,83.498253,0.744731,-0.042665,0.014112,0.665850
885,-0.402155,-0.866403,10.132339,-3.916265,-20.024176,8.461672,-2.795138,3.833812,83.770065,0.743303,-0.040474,0.008621,0.667673
886,-0.289396,-0.631389,10.129378,2.643583,-16.741629,7.209848,-2.798323,3.234372,84.061058,0.741810,-0.037019,0.004615,0.669572
887,-0.284899,-0.501721,9.798258,5.114172,-11.748302,3.035296,-2.658910,2.768085,84.254189,0.740867,-0.033400,0.002351,0.670817
888,-0.384835,-0.489727,9.501789,2.104373,-1.742420,-0.313004,-2.536114,2.545455,84.309639,0.740640,-0.031305,0.001614,0.671171
889,-0.421205,-0.617426,9.514200,-2.322284,1.735801,-3.724745,-2.542757,2.542343,84.242310,0.741033,-0.031329,0.001573,0.670735
890,-0.437194,-0.801715,9.668703,-6.525849,2.192103,-6.938136,-2.698348,2.599594,84.061615,0.742030,-0.032668,0.001084,0.669569
891,-0.404194,-0.958065,9.823547,-10.592522,1.139205,-7.441493,-2.994728,2.643123,83.819214,0.743345,-0.034842,-0.000292,0.668000
892,-0.138115,-1.085686,9.886635,-15.275755,-6.584178,-8.781876,-3.437824,2.537286,83.554039,0.744782,-0.037108,-0.003476,0.666266
893,-0.153277,-1.118302,10.025977,-15.597004,-6.454554,-9.752787,-3.964653,2.300428,83.259354,0.746395,-0.039177,-0.007980,0.664301
894,-0.243315,-1.069325,9.951928,-13.277578,-4.192944,-9.622505,-4.457770,2.099772,82.950119,0.748080,-0.041260,-0.012035,0.662216
895,-0.265948,-1.201479,9.955200,-14.135964,-3.900648,-8.299320,-4.924814,1.940959,82.663330,0.749618,-0.043432,-0.015664,0.660259
896,-0.125924,-1.229922,9.914788,-12.502472,-7.163594,-8.505229,-5.377183,1.732100,82.400848,0.751029,-0.045235,-0.019534,0.658428
897,-0.056259,-1.216942,9.798050,-10.163529,-7.329585,-7.456573,-5.761619,1.465903,82.159302,0.752360,-0.046277,-0.023392,0.656708
898,-0.110943,-1.238661,9.770236,-10.536633,-6.031822,-5.334846,-6.111029,1.222374,81.970177,0.753391,-0.047222,-0.026917,0.655322
899,-0.023783,-1.310063,9.790060,-9.345326,-6.914208,-3.562613,-6.444767,0.991634,81.846390,0.754047,-0.048131,-0.030292,0.654354
900,-0.032956,-1.178557,9.696318,-2.648877,-6.428506,-2.346055,-6.645739,0.759448,81.773865,0.754464,-0.048150,-0.032938,0.653744
901,-0.061089,-1.016065,9.794723,6.938407,-3.948833,0.023538,-6.574449,0.583206,81.755211,0.754664,-0.046681,-0.033685,0.653581
902,-0.079515,-0.976834,9.932031,10.510332,-2.649961,1.879320,-6.283211,0.477494,81.798912,0.754568,-0.044148,-0.032737,0.653917
903,0.071638,-0.828909,9.749699,16.514669,-5.837292,2.710615,-5.832128,0.344929,81.889847,0.754258,-0.040396,-0.031068,0.654597
904,0.046873,-0.744670,9.849190,17.494644,-4.125234,4.149785,-5.264720,0.190723,82.019753,0.753749,-0.035747,-0.028882,0.655553
905,0.112299,-0.780979,9.887576,12.484937,-5.753422,5.459684,-4.764692,0.040757,82.193604,0.752939,-0.031559,-0.027056,0.656776
906,0.108614,-0.754133,9.875397,9.565025,-5.362921,6.306560,-4.397364,-0.128142,82.403992,0.751866,-0.028129,-0.026112,0.658198
907,0.102557,-0.739258,9.736915,7.178679,-4.354339,7.609301,-4.119141,-0.272360,82.647331,0.750561,-0.025421,-0.025514,0.659819
908,0.034042,-0.727632,9.823853,6.036831,-2.238086,8.014721,-3.900336,-0.363687,82.914772,0.749082,-0.023404,-0.024907,0.661595
909,0.074442,-0.640699,9.761842,7.373394,-3.962414,7.708858,-3.678695,-0.449456,83.183075,0.747589,-0.021403,-0.024238,0.663374
910,0.163009,-0.412051,9.746648,13.580277,-6.785506,8.590921,-3.332117,-0.611670,83.465202,0.746037,-0.018145,-0.023335,0.665248
911,0.164694,-0.483739,9.843850,9.618805,-6.510633,9.289869,-2.949378,-0.816708,83.774925,0.744315,-0.014401,-0.022486,0.667295
912,0.180450,-0.383588,9.961272,10.676281,-6.995057,8.366763,-2.616023,-1.027139,84.079872,0.742592,-0.010952,-0.021941,0.669295
913,0.316264,-0.311543,9.923200,11.962319,-9.395406,8.828266,-2.244764,-1.287955,84.377823,0.740893,-0.006966,-0.021480,0.671243
914,0.390404,-0.322186,9.895650,10.910919,-9.772162,8.897006,-1.871315,-1.596604,84.684662,0.739117,-0.002685,-0.021295,0.673235
915,0.258631,-0.402397,10.038290,6.065166,-4.705407,5.163260,-1.595621,-1.830666,84.926331,0.737696,0.000513,-0.021183,0.674800
916,0.329671,-0.332896,9.894814,2.891364,-4.255334,0.385388,-1.449530,-1.977495,85.022766,0.737122,0.002337,-0.021265,0.675421
917,0.331186,-0.275507,10.010871,0.192955,-4.700493,-4.954919,-1.395579,-2.128633,84.950340,0.737541,0.003561,-0.021921,0.674937
918,0.416568,-0.288936,9.885563,-4.098301,-7.588144,-10.236897,-1.451048,-2.339703,84.702126,0.738992,0.004397,-0.023616,0.673286
919,0.434700,-0.174866,9.905147,-6.412933,-6.036367,-16.244858,-1.607574,-2.578526,84.266647,0.741537,0.004692,-0.026093,0.670388
920,0.544577,-0.182812,9.950661,-8.084510,-6.922889,-17.107977,-1.823498,-2.811050,83.716957,0.744738,0.004518,-0.028881,0.666717
921,0.503821,-0.147816,9.872718,-8.212366,-7.028904,-15.915354,-2.067272,-3.062174,83.174088,0.747879,0.004245,-0.031951,0.663052
922,0.558157,-0.237890,9.790285,-8.822724,-5.264641,-12.966382,-2.324923,-3.285384,82.700233,0.750608,0.003712,-0.034913,0.659815
923,0.547414,-0.159332,9.938486,-7.523540,-1.542081,-11.160124,-2.574139,-3.415989,82.302719,0.752890,0.002703,-0.037212,0.657088
924,0.662704,-0.313874,9.857069,-8.843170,-2.904697,-6.982823,-2.828961,-3.504266,82.003693,0.754601,0.001433,-0.039256,0.655007
925,0.586022,-0.277261,9.860171,-2.630816,-1.085120,-3.954037,-3.009078,-3.580070,81.824677,0.755620,0.000618,-0.040785,0.653738
926,0.731555,-0.245428,9.904552,8.775901,-4.059839,-0.508359,-2.902245,-3.669500,81.754677,0.756013,0.001808,-0.040765,0.653283
927,0.875962,-0.158983,9.871784,21.184397,-8.716160,3.721334,-2.407049,-3.879637,81.818108,0.755616,0.006297,-0.039323,0.653803
928,0.868104,-0.109338,9.886347,32.932579,-6.860139,10.286382,-1.522047,-4.130968,82.060898,0.754119,0.013645,-0.035899,0.655614
929,0.673598,0.079582,9.991432,47.242794,-3.514899,17.046942,-0.219497,-4.296693,82.519859,0.751243,0.023283,-0.029442,0.658957
930,0.693433,0.156504,9.918589,46.648026,-3.230267,20.016218,1.298326,-4.414707,83.137634,0.747267,0.034025,-0.021302,0.663311
931,0.650349,0.245301,10.071722,38.346970,0.608693,18.691803,2.664618,-4.480291,83.782639,0.743036,0.043388,-0.013576,0.667706
932,0.522605,0.365843,10.066955,28.183834,5.352376,15.323481,3.729042,-4.412445,84.355484,0.739283,0.049928,-0.006683,0.671508
933,0.465852,0.412871,9.989176,12.493610,7.820409,10.798975,4.373221,-4.224042,84.806068,0.736433,0.052988,-0.001482,0.674431
934,0.576132,0.441376,9.952309,-1.927402,6.249671,5.025478,4.529253,-4.010422,85.087585,0.734800,0.052736,0.000942,0.676230
935,0.664120,0.494657,9.975471,-9.807129,4.191178,1.540210,4.325347,-3.845155,85.210190,0.734242,0.050455,0.000856,0.677010
936,0.623511,0.545246,9.879902,-8.908444,3.133943,0.610624,4.010506,-3.725879,85.254799,0.734164,0.047734,-0.000220,0.677292
937,0.610678,0.477499,9.846086,-9.540782,1.840153,1.062644,3.700877,-3.645021,85.288239,0.734124,0.045274,-0.001518,0.677502
938,0.626206,0.442452,9.868260,-8.721946,1.187008,0.875718,3.394259,-3.596671,85.323631,0.734052,0.043025,-0.003007,0.677722
939,0.571156,0.410505,9.927948,-9.124168,2.138241,0.534248,3.095167,-3.542667,85.350281,0.734024,0.040791,-0.004420,0.677883
940,0.552166,0.436117,9.914289,-6.223123,1.808764,0.684137,2.837929,-3.478015,85.374023,0.733995,0.038763,-0.005519,0.678025
941,0.573866,0.397806,9.918508,-6.348885,1.062926,0.953902,2.626612,-3.431518,85.403641,0.733905,0.037136,-0.006461,0.678205
942,0.545124,0.381988,9.898260,-5.416542,1.725894,1.026268,2.428434,-3.386542,85.438713,0.733775,0.035603,-0.007335,0.678419
943,0.576122,0.378209,9.922691,-5.266943,0.465525,1.426138,2.247886,-3.351720,85.481117,0.733590,0.034244,-0.008168,0.678680
944,0.620265,0.369150,9.921224,-5.087744,-0.557829,1.793943,2.072165,-3.355285,85.534767,0.733322,0.033145,-0.009216,0.679010
945,0.580774,0.274970,9.891685,-6.735709,0.606188,1.772457,1.871620,-3.356530,85.594276,0.733026,0.031874,-0.010395,0.679374
946,0.559452,0.216129,9.907101,-7.087344,1.286345,1.645944,1.637860,-3.326741,85.652313,0.732754,0.030208,-0.011575,0.679725
947,0.565457,0.174975,9.947675,-6.913085,1.091869,1.255742,1.401668,-3.288397,85.701797,0.732531,0.028476,-0.012719,0.680019
948,0.535698,0.123162,9.959306,-7.473604,1.554270,0.652676,1.160020,-3.245011,85.734642,0.732405,0.026678,-0.013867,0.680205
949,0.528449,0.073693,9.927718,-6.965063,1.115991,-0.103109,0.918818,-3.200668,85.744614,0.732410,0.024874,-0.015013,0.680244
950,0.564984,-0.033272,9.926221,-7.984169,-0.231306,-0.579905,0.670292,-3.185754,85.733421,0.732532,0.023196,-0.016396,0.680140
951,0.580648,-0.144386,9.887239,-9.201469,-0.805032,-1.112276,0.385452,-3.202758,85.704994,0.732753,0.021471,-0.018200,0.679913
952,0.620807,-0.172174,9.898034,-8.915149,-1.702135,-2.095978,0.086533,-3.244315,85.651260,0.733117,0.019797,-0.020249,0.679513
953,0.683760,-0.210866,9.901435,-9.403325,-2.955787,-3.005115,-0.213899,-3.322018,85.566170,0.733658,0.018319,-0.022541,0.678898
954,0.751637,-0.232017,9.869578,-9.890263,-4.328828,-3.494121,-0.529095,-3.444110,85.458427,0.734323,0.017000,-0.025206,0.678119
955,0.855239,-0.268967,9.793579,-9.847923,-6.643350,-4.583398,-0.849870,-3.628576,85.325722,0.735124,0.016004,-0.028304,0.677152
956,1.063562,-0.302865,9.701035,-10.974056,-10.872365,-6.597722,-1.184932,-3.923739,85.144142,0.736196,0.015548,-0.032201,0.675824
957,1.233046,-0.134173,9.728902,-7.155314,-13.569555,-8.106586,-1.470051,-4.336629,84.907875,0.737559,0.016078,-0.036566,0.674100
959,1.245010,-0.089317,9.719616,-6.273954,-12.360709,-8.718897,-1.672456,-4.776219,84.638382,0.739094,0.017269,-0.040624,0.672154
960,1.233029,-0.046721,9.736049,-4.275529,-9.286681,-10.774732,-1.821083,-5.146709,84.323456,0.740891,0.018366,-0.043933,0.669935
961,1.289380,0.070222,9.745716,-0.275154,-7.217640,-13.030360,-1.861150,-5.434308,83.934082,0.743111,0.019634,-0.046091,0.667291
962,1.299749,0.165236,9.825093,2.524722,-4.237134,-14.453699,-1.779961,-5.639549,83.480133,0.745688,0.021172,-0.047031,0.664296
963,1.378198,-0.001779,9.690739,-1.618967,-3.553421,-16.959724,-1.713029,-5.785197,82.958145,0.748659,0.022236,-0.047692,0.660863
964,1.579576,-0.102326,9.724391,-3.722313,-5.139181,-21.378599,-1.736919,-5.949398,82.320541,0.752288,0.022756,-0.049028,0.656613
965,1.736089,-0.105004,9.644813,-5.261166,-6.982111,-25.513531,-1.804315,-6.175534,81.541321,0.756690,0.023265,-0.051056,0.651362
966,1.845169,-0.094897,9.643636,-8.024688,-7.192559,-29.944077,-1.924418,-6.441755,80.619690,0.761856,0.023557,-0.053685,0.645088
967,1.956172,-0.041474,9.572863,-10.049142,-8.570881,-35.986736,-2.099857,-6.742992,79.523628,0.767940,0.023547,-0.056900,0.637555
968,2.024756,-0.120740,9.651413,-14.351166,-8.414441,-41.149170,-2.352178,-7.075800,78.240852,0.774979,0.023034,-0.060791,0.628635
969,2.024370,-0.044454,9.542415,-13.446578,-7.091998,-45.101196,-2.634651,-7.396740,76.804878,0.782749,0.022079,-0.064787,0.618562
970,2.177101,-0.069525,9.669241,-14.517486,-8.340432,-47.301617,-2.898332,-7.727701,75.265984,0.790926,0.021150,-0.068755,0.607669
