seq,ax,ay,az,wroll,wpitch,wyaw,roll,pitch,yaw
7847,0.063053,6.803763,-7.031948,0.074426,-0.056887,0.132325,135.944870,-0.369213,-0.912553
7848,0.056809,6.802753,-7.034470,0.062992,-0.045461,0.120864,135.947174,-0.370921,-0.916772
7849,0.050511,6.810246,-7.041630,0.074452,-0.051872,0.137343,135.949493,-0.372748,-0.920993
7850,0.048954,6.815351,-7.042624,0.068730,-0.060851,0.137904,135.951920,-0.374587,-0.925597
7851,0.048198,6.815267,-7.044174,0.060709,-0.073907,0.125995,135.954102,-0.376030,-0.930320
7852,0.041591,6.820119,-7.048041,0.051541,-0.078593,0.101475,135.956009,-0.376839,-0.934812
7854,0.043862,6.829124,-7.048140,0.049973,-0.090923,0.093727,135.957733,-0.377070,-0.939115
7855,0.042317,6.828857,-7.048770,0.033120,-0.095620,0.067671,135.959137,-0.376705,-0.943210
7856,0.043182,6.830132,-7.051890,0.014746,-0.088112,0.049241,135.959961,-0.375858,-0.946739
7857,0.044580,6.830756,-7.049697,-0.000580,-0.085175,0.041500,135.960205,-0.374834,-0.949834
7858,0.046515,6.829397,-7.049539,-0.003704,-0.089858,0.056657,135.960159,-0.373874,-0.953038
7859,0.045593,6.824677,-7.055933,-0.015949,-0.089959,0.062663,135.959854,-0.373102,-0.956551
7861,0.052088,6.824326,-7.057139,-0.011374,-0.086991,0.067159,135.959427,-0.372486,-0.960157
7862,0.051983,6.815935,-7.058328,-0.000664,-0.102317,0.074724,135.959259,-0.371862,-0.964050
7863,0.051626,6.810781,-7.061818,0.026881,-0.100858,0.085342,135.959717,-0.371282,-0.968322
7864,0.050910,6.804812,-7.064589,0.025483,-0.107032,0.089854,135.960617,-0.370821,-0.972830
7865,0.050606,6.797728,-7.061446,0.031748,-0.105578,0.095889,135.961594,-0.370426,-0.977518
7866,0.052903,6.799903,-7.056468,0.019694,-0.114799,0.091248,135.962494,-0.369954,-0.982314
7868,0.058780,6.807238,-7.055533,0.012172,-0.108738,0.082053,135.963043,-0.369283,-0.986980
7869,0.056621,6.814424,-7.054142,-0.006078,-0.105717,0.074393,135.963181,-0.368526,-0.991339
7870,0.060372,6.818466,-7.052155,-0.007585,-0.099640,0.069790,135.962967,-0.367736,-0.995446
7871,0.060283,6.823364,-7.050721,-0.015230,-0.095077,0.052990,135.962616,-0.366825,-0.999173
7872,0.053236,6.822409,-7.051570,-0.010678,-0.079852,0.059061,135.962204,-0.366028,-1.002542
7873,0.051901,6.822277,-7.050268,-0.009178,-0.076857,0.065110,135.961899,-0.365589,-1.005846
7875,0.053129,6.820552,-7.050603,-0.007673,-0.075387,0.066581,135.961639,-0.365290,-1.009187
7876,0.050960,6.818089,-7.047384,-0.007691,-0.073920,0.063472,135.961411,-0.365008,-1.012475
7877,0.048646,6.815230,-7.050432,-0.003115,-0.070940,0.067980,135.961243,-0.364796,-1.015729
7878,0.052717,6.817042,-7.051929,0.004528,-0.077109,0.063339,135.961288,-0.364543,-1.019018
7879,0.049393,6.819798,-7.048501,0.002996,-0.077173,0.061752,135.961426,-0.364144,-1.022304
7880,0.051388,6.817947,-7.052076,0.007567,-0.068085,0.058635,135.961639,-0.363798,-1.025429
7882,0.051558,6.824689,-7.053895,0.009086,-0.069672,0.063154,135.961929,-0.363559,-1.028485
7883,0.051605,6.829464,-7.053544,0.009051,-0.075835,0.072251,135.962250,-0.363384,-1.031793
7884,0.051829,6.823869,-7.055335,0.004444,-0.080471,0.072194,135.962494,-0.363185,-1.035334
7885,0.049371,6.814140,-7.058251,0.019729,-0.075959,0.069080,135.962921,-0.362947,-1.038839
7886,0.047854,6.816232,-7.054788,0.015197,-0.079087,0.067481,135.963531,-0.362672,-1.042272
7887,0.047617,6.814377,-7.053101,0.019805,-0.085271,0.052143,135.964127,-0.362089,-1.045609
7889,0.051342,6.812593,-7.051945,0.018310,-0.077712,0.038342,135.964798,-0.361184,-1.048582
7890,0.048310,6.809373,-7.054764,0.010729,-0.068624,0.047433,135.965286,-0.360424,-1.051305
7891,0.048602,6.812995,-7.053562,-0.006003,-0.073277,0.047361,135.965393,-0.359822,-1.054085
7892,0.055237,6.810209,-7.053797,-0.009009,-0.080961,0.041205,135.965149,-0.359000,-1.056933
7893,0.060769,6.807124,-7.060438,-0.015031,-0.070300,0.053393,135.964783,-0.358284,-1.059819
7894,0.057917,6.804630,-7.059762,-0.024072,-0.074890,0.050332,135.964142,-0.357746,-1.062743
7896,0.057367,6.813384,-7.054970,-0.027042,-0.077961,0.053365,135.963303,-0.357116,-1.065757
7897,0.055906,6.814292,-7.054276,-0.025474,-0.071884,0.051814,135.962448,-0.356539,-1.068753
7898,0.051537,6.815162,-7.051344,-0.022394,-0.073451,0.059403,135.961670,-0.356086,-1.071769
7899,0.047781,6.817422,-7.050815,-0.020858,-0.078092,0.065446,135.960968,-0.355717,-1.075021
7900,0.050849,6.820163,-7.050042,-0.007131,-0.076631,0.063857,135.960526,-0.355361,-1.078363
7901,0.055547,6.814979,-7.055007,0.005090,-0.082778,0.053134,135.960510,-0.354807,-1.081612
7903,0.057698,6.809993,-7.058090,0.008206,-0.087379,0.054639,135.960739,-0.354017,-1.084874
7904,0.054621,6.810262,-7.061160,-0.000858,-0.087405,0.069874,135.960892,-0.353365,-1.088391
7905,0.057266,6.812387,-7.063888,-0.006860,-0.088958,0.059167,135.960785,-0.352747,-1.091981
7906,0.053691,6.813465,-7.066486,-0.006752,-0.095090,0.059140,135.960571,-0.351913,-1.095530
7907,0.052308,6.809944,-7.066865,-0.011207,-0.098184,0.056049,135.960297,-0.350932,-1.099150
7908,0.055159,6.812784,-7.067904,-0.018709,-0.104324,0.054489,135.959824,-0.349786,-1.102821
7910,0.059081,6.822758,-7.067012,-0.012512,-0.102814,0.042266,135.959335,-0.348426,-1.106380
7911,0.058858,6.823616,-7.060510,-0.009416,-0.096716,0.045314,135.958984,-0.347050,-1.109741
7912,0.063358,6.817543,-7.058968,-0.013957,-0.098233,0.051425,135.958603,-0.345835,-1.113159
7913,0.062769,6.822094,-7.055735,-0.016979,-0.089057,0.052972,135.958115,-0.344801,-1.116579
7914,0.060604,6.828128,-7.052775,-0.009366,-0.082939,0.056037,135.957703,-0.344003,-1.119878
7915,0.058949,6.820743,-7.055561,-0.010905,-0.079883,0.060619,135.957382,-0.343404,-1.123163
7917,0.063557,6.817914,-7.056435,-0.009352,-0.081395,0.057580,135.957062,-0.342842,-1.126447
7918,0.059133,6.820775,-7.051580,-0.013914,-0.075278,0.063699,135.956696,-0.342370,-1.129716
7919,0.057507,6.821356,-7.047393,-0.016984,-0.076806,0.066749,135.956192,-0.342059,-1.133041
7920,0.058113,6.814833,-7.049778,-0.016990,-0.082913,0.068271,135.955658,-0.341710,-1.136509
7921,0.058815,6.808206,-7.050473,-0.016950,-0.081387,0.045381,135.955109,-0.341059,-1.139774
7922,0.055407,6.809555,-7.048128,-0.016898,-0.076818,0.042323,135.954559,-0.340180,-1.142658
7924,0.057692,6.804911,-7.052536,-0.013779,-0.082931,0.030107,135.954056,-0.339105,-1.145377
7925,0.060500,6.803667,-7.054892,-0.004522,-0.078347,0.033164,135.953766,-0.337906,-1.148004
7926,0.060569,6.804272,-7.051879,0.001685,-0.069178,0.034704,135.953735,-0.336926,-1.150526
7927,0.057648,6.807590,-7.052060,-0.002808,-0.067645,0.049971,135.953735,-0.336268,-1.153126
7928,0.058835,6.802011,-7.054195,-0.002711,-0.069167,0.054553,135.953659,-0.335840,-1.155964
7929,0.055452,6.814386,-7.056212,0.001956,-0.066118,0.059130,135.953659,-0.335536,-1.158893
7931,0.054745,6.814598,-7.057310,-0.008662,-0.061553,0.049962,135.953568,-0.335271,-1.161679
7932,0.056421,6.817173,-7.059696,-0.025384,-0.066142,0.053004,135.953018,-0.334934,-1.164393
7933,0.059352,6.821307,-7.059170,-0.025333,-0.070718,0.056058,135.952179,-0.334559,-1.167285
7934,0.054691,6.821096,-7.059977,-0.029868,-0.078349,0.056056,135.951279,-0.334072,-1.170355
7935,0.053914,6.810242,-7.062016,-0.034364,-0.082943,0.052990,135.950226,-0.333404,-1.173531
7936,0.051592,6.805768,-7.062892,-0.020498,-0.095177,0.054491,135.949341,-0.332516,-1.176882
7937,0.050250,6.798759,-7.062780,-0.003544,-0.093685,0.046830,135.948959,-0.331427,-1.180285
7938,0.048177,6.796312,-7.057751,-0.001835,-0.095254,0.036109,135.948883,-0.330125,-1.183468
7939,0.051491,6.797898,-7.056368,-0.006245,-0.095293,0.025391,135.948761,-0.328555,-1.186412
7940,0.054877,6.799741,-7.051732,-0.015258,-0.092259,0.033005,135.948410,-0.326985,-1.189286
7941,0.059884,6.800428,-7.050437,-0.033449,-0.089200,0.023856,135.947617,-0.325471,-1.192069
7942,0.059001,6.803669,-7.050581,-0.042500,-0.092232,0.034558,135.946365,-0.323975,-1.194872
7943,0.062705,6.801373,-7.055932,-0.036276,-0.095254,0.040691,135.945068,-0.322601,-1.197946
7944,0.055511,6.799158,-7.053647,-0.049868,-0.090656,0.039186,135.943649,-0.321300,-1.201057
7945,0.054328,6.797857,-7.053425,-0.045142,-0.095235,0.030031,135.942093,-0.319875,-1.204041
7946,0.052403,6.800019,-7.055151,-0.023629,-0.090666,0.036127,135.940964,-0.318416,-1.206988
7947,0.057867,6.802459,-7.053973,-0.009754,-0.095241,0.034605,135.940414,-0.317009,-1.209990
7948,0.055059,6.804512,-7.052462,-0.002001,-0.092178,0.039194,135.940247,-0.315620,-1.213046
7949,0.061762,6.810306,-7.057535,0.011843,-0.093680,0.059055,135.940430,-0.314532,-1.216377
7950,0.061675,6.817513,-7.058637,0.013459,-0.093637,0.060624,135.940872,-0.313676,-1.219981
7951,0.062226,6.819397,-7.057065,-0.006314,-0.099695,0.062194,135.941010,-0.312784,-1.223693
7952,0.054136,6.826440,-7.059999,-0.020006,-0.096617,0.059167,135.940598,-0.311839,-1.227422
7953,0.056760,6.823606,-7.056209,-0.026081,-0.095081,0.063755,135.939850,-0.310968,-1.231116
7954,0.059641,6.820654,-7.053499,-0.015373,-0.095054,0.050048,135.939178,-0.310010,-1.234683
7955,0.060804,6.816704,-7.055518,-0.013801,-0.088911,0.045509,135.938705,-0.308914,-1.237959
7956,0.058144,6.816666,-7.053879,-0.004587,-0.096504,0.048596,135.938416,-0.307784,-1.241236
7957,0.059340,6.807499,-7.052993,-0.006034,-0.101049,0.047103,135.938263,-0.306527,-1.244672
7958,0.059363,6.808644,-7.055767,-0.013557,-0.107116,0.041036,135.937958,-0.305056,-1.248140
7959,0.053675,6.806076,-7.057914,-0.019538,-0.107093,0.044111,135.937424,-0.303477,-1.251643
7960,0.053683,6.805610,-7.058033,-0.013295,-0.107084,0.051750,135.936890,-0.302023,-1.255273
7961,0.056620,6.802283,-7.058937,-0.026875,-0.093333,0.044139,135.936234,-0.300734,-1.258744
7962,0.060370,6.798755,-7.057776,-0.020599,-0.082613,0.045704,135.935455,-0.299669,-1.261860
7963,0.055425,6.798792,-7.055696,-0.021951,-0.082577,0.044214,135.934769,-0.298733,-1.264852
7964,0.055414,6.799376,-7.055457,-0.026361,-0.081028,0.041185,135.933975,-0.297763,-1.267771
7965,0.054645,6.801698,-7.054271,-0.030782,-0.087110,0.036631,135.933044,-0.296652,-1.270652
7966,0.052847,6.804206,-7.056839,-0.023005,-0.097776,0.053431,135.932159,-0.295482,-1.273874
7967,0.052262,6.804650,-7.058298,-0.028957,-0.108447,0.050391,135.931320,-0.294216,-1.277507
7968,0.052985,6.805240,-7.059129,-0.019647,-0.097753,0.047351,135.930527,-0.292879,-1.281068
7969,0.052982,6.806166,-7.059855,-0.010334,-0.091636,0.045841,135.930038,-0.291692,-1.284379
7970,0.055044,6.808504,-7.063920,-0.008646,-0.079406,0.038233,135.929749,-0.290618,-1.287369
7971,0.055642,6.806551,-7.061856,-0.008479,-0.079376,0.019952,135.929459,-0.289391,-1.289906
7972,0.059470,6.813969,-7.060236,-0.006812,-0.083910,0.016944,135.929230,-0.287864,-1.292241
7974,0.061831,6.809695,-7.061871,-0.006679,-0.093004,0.026161,135.929016,-0.286245,-1.294808
7975,0.058195,6.811727,-7.061098,-0.008063,-0.099046,0.030798,135.928787,-0.284605,-1.297717
7976,0.057671,6.809775,-7.055921,-0.009462,-0.108152,0.055263,135.928513,-0.283122,-1.301149
7977,0.057213,6.819177,-7.058360,0.001317,-0.106577,0.065992,135.928391,-0.281956,-1.305091
7978,0.053872,6.817372,-7.057694,0.010555,-0.103485,0.059927,135.928604,-0.280901,-1.309034
7979,0.055214,6.816577,-7.058511,-0.007667,-0.109554,0.046229,135.928665,-0.279580,-1.312774
7980,0.060854,6.817489,-7.059857,-0.009098,-0.111023,0.046283,135.928421,-0.278011,-1.316440
7981,0.062541,6.818788,-7.061758,-0.004422,-0.103317,0.034152,135.928207,-0.276377,-1.319888
7982,0.062805,6.810922,-7.055589,-0.013474,-0.109336,0.028131,135.927917,-0.274553,-1.323099
7983,0.061321,6.813691,-7.055140,-0.033209,-0.100097,0.028212,135.927155,-0.272698,-1.326201
7984,0.062961,6.823509,-7.053806,-0.016361,-0.089330,0.040502,135.926346,-0.271227,-1.329220
7985,0.058157,6.828338,-7.049445,-0.027036,-0.092304,0.034474,135.925644,-0.269921,-1.332224
7986,0.056899,6.825510,-7.050908,-0.023990,-0.104449,0.036060,135.924805,-0.268383,-1.335349
7987,0.060272,6.825449,-7.052052,-0.028557,-0.095223,0.043758,135.923935,-0.266917,-1.338620
7988,0.058731,6.819226,-7.055561,-0.017835,-0.102777,0.043832,135.923187,-0.265562,-1.341964
7989,0.051132,6.815001,-7.056533,-0.022327,-0.105777,0.040831,135.922531,-0.264046,-1.345396
7990,0.057511,6.810948,-7.054239,-0.010016,-0.113356,0.040880,135.922012,-0.262370,-1.348915
7991,0.060380,6.811931,-7.054671,-0.016011,-0.111753,0.025697,135.921585,-0.260447,-1.352322
7992,0.058551,6.809886,-7.058918,-0.003678,-0.117774,0.018147,135.921280,-0.258207,-1.355508
7993,0.062679,6.815892,-7.060182,-0.015756,-0.116159,0.018235,135.920975,-0.255828,-1.358656
7994,0.069871,6.815565,-7.059810,-0.008010,-0.109931,0.010726,135.920578,-0.253457,-1.361624
7995,0.068148,6.814223,-7.063815,-0.017034,-0.083848,0.007813,135.920181,-0.251351,-1.364093
7996,0.069073,6.812525,-7.059697,-0.010790,-0.076078,0.018631,135.919724,-0.249743,-1.366264
7997,0.067552,6.811552,-7.061410,-0.018278,-0.075936,0.018770,135.919250,-0.248357,-1.368474
7998,0.064623,6.809443,-7.055553,0.000174,-0.074279,0.029579,135.918961,-0.247119,-1.370794
7999,0.065355,6.808642,-7.055658,-0.004272,-0.080256,0.031228,135.918900,-0.245974,-1.373314
8000,0.059113,6.808414,-7.054807,-0.002611,-0.087775,0.038966,135.918808,-0.244776,-1.376103
8001,0.055233,6.812176,-7.055489,-0.005540,-0.090742,0.043627,135.918686,-0.243596,-1.379162
8002,0.058272,6.818167,-7.055929,-0.003915,-0.092184,0.034552,135.918533,-0.242313,-1.382219
8003,0.055650,6.813080,-7.060424,0.005351,-0.093624,0.034635,135.918564,-0.240890,-1.385201
8004,0.051565,6.814972,-7.061707,-0.003669,-0.096608,0.028598,135.918610,-0.239346,-1.388164
8005,0.058448,6.816925,-7.067251,0.002578,-0.104161,0.036304,135.918610,-0.237695,-1.391269
8006,0.061777,6.811740,-7.068625,0.007326,-0.102528,0.033356,135.918777,-0.236028,-1.394499
8007,0.056715,6.804548,-7.067978,0.010586,-0.096320,0.047192,135.919098,-0.234581,-1.397770
8008,0.056502,6.802567,-7.067858,-0.001392,-0.094704,0.044229,135.919266,-0.233354,-1.401079
8009,0.055810,6.806006,-7.073301,0.014107,-0.090037,0.068732,135.919479,-0.232452,-1.404574
8010,0.054065,6.802656,-7.065130,0.011289,-0.088428,0.059658,135.919922,-0.231804,-1.408180
8011,0.055998,6.800951,-7.064488,-0.003748,-0.085291,0.059741,135.920059,-0.231108,-1.411624
8012,0.060834,6.805358,-7.063326,-0.012694,-0.074504,0.055266,135.919800,-0.230528,-1.414854
8013,0.064135,6.806951,-7.060979,-0.020139,-0.072850,0.044710,135.919281,-0.229923,-1.417759
8014,0.065823,6.801893,-7.056599,-0.026068,-0.086441,0.023486,135.918503,-0.228807,-1.420422
8015,0.062814,6.803807,-7.057622,-0.021315,-0.087826,0.028201,135.917725,-0.227320,-1.423062
8016,0.056741,6.809857,-7.058107,-0.021156,-0.095341,0.032891,135.917038,-0.225835,-1.425917
8017,0.058425,6.808500,-7.057110,-0.019485,-0.093710,0.040623,135.916367,-0.224424,-1.428989
8018,0.055099,6.806226,-7.057045,-0.017805,-0.085979,0.040722,135.915756,-0.223216,-1.432046
8019,0.055651,6.802039,-7.057990,-0.023733,-0.072150,0.054548,135.915070,-0.222428,-1.435021
8020,0.062154,6.797348,-7.063887,-0.035722,-0.068984,0.051610,135.914093,-0.221969,-1.437928
8021,0.060870,6.793493,-7.062455,-0.035466,-0.062749,0.034953,135.912918,-0.221396,-1.440492
8022,0.052321,6.796818,-7.063100,-0.029105,-0.079430,0.039632,135.911850,-0.220559,-1.443034
8023,0.055493,6.800377,-7.062086,-0.016660,-0.094600,0.056505,135.911102,-0.219590,-1.446203
8024,0.054706,6.806929,-7.055366,-0.011891,-0.096028,0.048971,135.910645,-0.218531,-1.449676
8025,0.050097,6.809412,-7.054009,-0.002592,-0.108153,0.055156,135.910416,-0.217294,-1.453290
8026,0.053199,6.805950,-7.058043,-0.011593,-0.118754,0.067442,135.910187,-0.216000,-1.457389
8027,0.056667,6.811166,-7.054134,-0.019072,-0.109499,0.067539,135.909698,-0.214833,-1.461652
8028,0.054997,6.812748,-7.056338,-0.026576,-0.107868,0.056960,135.908951,-0.213675,-1.465663
8029,0.057949,6.811148,-7.060017,-0.026432,-0.115387,0.054017,135.908081,-0.212289,-1.469581
8030,0.059415,6.815498,-7.057830,-0.026292,-0.104582,0.054138,135.907211,-0.210910,-1.473426
8031,0.060817,6.818663,-7.058414,-0.023122,-0.096819,0.055793,135.906403,-0.209774,-1.477077
8032,0.057016,6.814583,-7.065344,-0.018404,-0.102795,0.046761,135.905716,-0.208574,-1.480620
8033,0.059748,6.812045,-7.069507,-0.022791,-0.105722,0.040780,135.905045,-0.207094,-1.484086
8034,0.056737,6.815347,-7.071858,-0.019533,-0.099492,0.045481,135.904358,-0.205638,-1.487499
8035,0.056067,6.813576,-7.073554,-0.010163,-0.093271,0.041017,135.903870,-0.204334,-1.490770
8036,0.052579,6.811320,-7.070479,-0.000785,-0.099268,0.041122,135.903702,-0.202982,-1.493986
8037,0.057908,6.810182,-7.064715,0.000950,-0.112888,0.038182,135.903717,-0.201362,-1.497396
8038,0.061698,6.813050,-7.064291,0.005715,-0.100540,0.039844,135.903839,-0.199712,-1.500805
8039,0.064439,6.813803,-7.063882,-0.009371,-0.097328,0.030844,135.903793,-0.198164,-1.503946
8040,0.065698,6.810676,-7.065057,-0.024447,-0.110888,0.038643,135.903244,-0.196477,-1.507193
8041,0.067765,6.812318,-7.068759,-0.030350,-0.104602,0.035770,135.902344,-0.194761,-1.510583
8042,0.063207,6.806973,-7.071723,-0.036222,-0.092216,0.034417,135.901245,-0.193219,-1.513705
8043,0.058678,6.809593,-7.067713,-0.046668,-0.093588,0.037620,135.899857,-0.191831,-1.516723
8044,0.055677,6.800117,-7.066421,-0.034216,-0.101083,0.049959,135.898529,-0.190517,-1.520029
8045,0.053579,6.800108,-7.062120,-0.029383,-0.097909,0.039397,135.897476,-0.189172,-1.523406
8046,0.055267,6.805049,-7.059208,-0.024580,-0.094735,0.041043,135.896591,-0.187799,-1.526604
8047,0.062607,6.809394,-7.057036,-0.010660,-0.085431,0.051869,135.896011,-0.186721,-1.529805
8048,0.063310,6.802999,-7.057973,-0.002841,-0.088310,0.064244,135.895798,-0.185988,-1.533210
8049,0.051519,6.817251,-7.052193,-0.010315,-0.080538,0.062857,135.895584,-0.185442,-1.536690
8050,0.065782,6.812028,-7.055296,-0.004090,-0.072758,0.070631,135.895355,-0.185156,-1.540066
8051,0.062719,6.807783,-7.054861,0.002171,-0.078680,0.070808,135.895340,-0.184984,-1.543515
8052,0.042648,6.808009,-7.051369,-0.009879,-0.078563,0.066346,135.895218,-0.184693,-1.546981
8053,0.057147,6.812792,-7.055816,-0.011259,-0.072357,0.064919,135.894882,-0.184409,-1.550302
8054,0.074810,6.799229,-7.062215,-0.004954,-0.073691,0.068158,135.894623,-0.184205,-1.553589
8055,0.052472,6.808367,-7.059868,-0.013887,-0.076564,0.056126,135.894318,-0.183849,-1.556819
8056,0.060914,6.812375,-7.059001,-0.009129,-0.082528,0.068470,135.893936,-0.183390,-1.560156
8057,0.083033,6.811026,-7.062092,-0.001322,-0.097560,0.065638,135.893784,-0.182790,-1.563850
8058,0.060155,6.811340,-7.055156,0.000375,-0.101913,0.062804,135.893768,-0.181893,-1.567701
8059,0.061058,6.811964,-7.051767,-0.004062,-0.103274,0.062964,135.893723,-0.180896,-1.571586
8060,0.072179,6.808428,-7.054811,-0.002388,-0.103076,0.070787,135.893631,-0.179978,-1.575580
8061,0.061719,6.810442,-7.054644,-0.009857,-0.090667,0.057250,135.893448,-0.179145,-1.579360
8062,0.057025,6.806952,-7.058336,-0.014262,-0.088981,0.066561,135.893051,-0.178431,-1.582926
8063,0.063359,6.807197,-7.057137,-0.023228,-0.091868,0.057567,135.892441,-0.177707,-1.586509
8064,0.052235,6.811774,-7.054939,-0.007800,-0.094768,0.060767,135.891922,-0.176846,-1.590090
8065,0.055085,6.807273,-7.057047,0.007627,-0.100742,0.063945,135.891937,-0.175953,-1.593851
8066,0.056172,6.805556,-7.055939,0.004764,-0.109755,0.061031,135.892166,-0.174884,-1.597788
8067,0.048840,6.808779,-7.057766,0.011054,-0.109629,0.059628,135.892426,-0.173658,-1.601777
8068,0.053881,6.806846,-7.064781,0.023467,-0.114087,0.061271,135.893021,-0.172383,-1.605819
8069,0.056763,6.801174,-7.067970,0.025247,-0.109366,0.049203,135.893845,-0.170990,-1.609733
8070,0.055129,6.810719,-7.063682,0.019383,-0.104640,0.055452,135.894608,-0.169643,-1.613468
8071,0.057815,6.802710,-7.067593,0.028773,-0.096859,0.058653,135.895416,-0.168555,-1.617171
8072,0.063048,6.801904,-7.063880,0.021400,-0.082949,0.052720,135.896255,-0.167695,-1.620589
8073,0.061656,6.802609,-7.059328,0.024687,-0.072081,0.059006,135.897034,-0.167136,-1.623725
8074,0.062752,6.803545,-7.061480,0.015753,-0.074946,0.057663,135.897720,-0.166729,-1.626827
8075,0.060059,6.799880,-7.062364,0.014464,-0.071711,0.047159,135.898239,-0.166190,-1.629782
8077,0.055924,6.800410,-7.058704,-0.002083,-0.065442,0.042742,135.898453,-0.165591,-1.632449
8078,0.055391,6.801121,-7.055582,-0.009497,-0.072920,0.045942,135.898270,-0.164964,-1.635115
8079,0.057360,6.800207,-7.058316,-0.032170,-0.072763,0.043043,135.897568,-0.164253,-1.637870
8080,0.053433,6.801913,-7.053570,-0.035015,-0.063455,0.049295,135.896454,-0.163693,-1.640555
8081,0.054275,6.803314,-7.055124,-0.036349,-0.064837,0.057066,135.895279,-0.163392,-1.643316
8082,0.053285,6.808627,-7.058287,-0.037688,-0.064693,0.061784,135.894058,-0.163220,-1.646241
8083,0.056202,6.807506,-7.060040,-0.028342,-0.056914,0.060403,135.892960,-0.163182,-1.649114
8084,0.050536,6.806144,-7.056404,-0.012889,-0.059824,0.065120,135.892288,-0.163241,-1.651970
8085,0.056927,6.806476,-7.059422,-0.014219,-0.067309,0.065260,135.891846,-0.163232,-1.655006
8086,0.058950,6.804673,-7.056489,-0.017069,-0.065616,0.059319,135.891327,-0.163087,-1.658038
8087,0.067388,6.807989,-7.054656,-0.012307,-0.069997,0.065615,135.890854,-0.162913,-1.661107
8088,0.068478,6.806849,-7.054272,-0.018238,-0.083506,0.070409,135.890350,-0.162654,-1.664515
8089,0.064411,6.807114,-7.055190,-0.015008,-0.081766,0.061464,135.889801,-0.162206,-1.668010
8090,0.061493,6.808004,-7.053196,-0.013309,-0.072413,0.061655,135.889343,-0.161789,-1.671272
8091,0.059918,6.804687,-7.057194,-0.019228,-0.069177,0.054204,135.888794,-0.161439,-1.674301
8092,0.053062,6.797690,-7.057063,-0.011373,-0.076646,0.042154,135.888306,-0.160812,-1.677146
8093,0.051805,6.800470,-7.055645,-0.003509,-0.061248,0.031608,135.888062,-0.160018,-1.679628
8094,0.056691,6.795547,-7.057233,0.001308,-0.054995,0.039384,135.888031,-0.159450,-1.681826
8095,0.055471,6.800966,-7.061124,0.004615,-0.059412,0.039540,135.888138,-0.158997,-1.684098
8096,0.053665,6.805157,-7.056225,0.004839,-0.065363,0.045792,135.888306,-0.158494,-1.686567
8097,0.051646,6.812451,-7.056398,0.001966,-0.060642,0.045930,135.888428,-0.158050,-1.689126
8098,0.049569,6.808788,-7.058476,0.000615,-0.057459,0.052162,135.888474,-0.157774,-1.691670
8099,0.051173,6.811976,-7.056405,-0.002259,-0.058855,0.050763,135.888458,-0.157577,-1.694251
8100,0.053703,6.803289,-7.057063,-0.000546,-0.072447,0.050901,135.888412,-0.157185,-1.696991
8101,0.052259,6.798466,-7.060333,0.010372,-0.070776,0.046466,135.888580,-0.156600,-1.699818
8102,0.059855,6.796738,-7.061758,0.012165,-0.069087,0.060358,135.888962,-0.156166,-1.702719
8103,0.058029,6.799260,-7.062278,0.007857,-0.082640,0.052903,135.889313,-0.155664,-1.705834
8104,0.054943,6.805372,-7.062107,0.014208,-0.082474,0.046962,135.889694,-0.154847,-1.708945
8105,0.050775,6.814007,-7.064250,0.015943,-0.074698,0.045578,135.890198,-0.154040,-1.711875
8106,0.053861,6.821769,-7.061319,0.003897,-0.073028,0.050297,135.890533,-0.153384,-1.714736
8107,0.048061,6.816769,-7.061534,0.013198,-0.075943,0.051956,135.890823,-0.152787,-1.717688
8108,0.049596,6.815539,-7.058611,0.017931,-0.080394,0.055131,135.891357,-0.152159,-1.720783
8109,0.053343,6.813629,-7.058900,0.015035,-0.086356,0.056795,135.891907,-0.151462,-1.724057
8110,0.056161,6.806024,-7.055578,0.004527,-0.084670,0.060003,135.892242,-0.150770,-1.727439
8111,0.052743,6.803965,-7.057685,0.018459,-0.090614,0.066262,135.892639,-0.150137,-1.730983
8112,0.055207,6.805541,-7.055474,0.020182,-0.087404,0.069467,135.893295,-0.149581,-1.734673
8113,0.056464,6.806344,-7.060394,0.021904,-0.082658,0.072683,135.893997,-0.149194,-1.738346
8114,0.057110,6.805293,-7.062670,0.014492,-0.084010,0.080482,135.894608,-0.148977,-1.742113
8115,0.059280,6.811050,-7.060836,0.013171,-0.086879,0.080660,135.895096,-0.148801,-1.746023
8116,0.059309,6.806876,-7.058657,-0.003426,-0.086691,0.077791,135.895264,-0.148561,-1.749933
8117,0.057241,6.807199,-7.056888,-0.009342,-0.083455,0.076444,135.895065,-0.148314,-1.753752
8118,0.054778,6.808227,-7.053198,-0.001544,-0.086336,0.076610,135.894882,-0.148057,-1.757554
8119,0.052890,6.810894,-7.049502,0.004699,-0.089229,0.069135,135.894958,-0.147647,-1.761334
8120,0.053000,6.806564,-7.052986,0.009421,-0.072290,0.076915,135.895203,-0.147408,-1.764956
8121,0.054453,6.810629,-7.058150,0.014166,-0.067553,0.077070,135.895599,-0.147520,-1.768421
8122,0.055134,6.810022,-7.063319,0.012825,-0.068914,0.061971,135.896057,-0.147500,-1.771668
8123,0.054327,6.811840,-7.067435,0.003877,-0.053490,0.057553,135.896347,-0.147421,-1.774518
8124,0.054680,6.807282,-7.070913,-0.008098,-0.054853,0.066867,135.896286,-0.147568,-1.777264
8125,0.054301,6.805436,-7.067662,-0.012423,-0.068424,0.051767,135.895950,-0.147469,-1.780114
8126,0.054587,6.805826,-7.062838,-0.006084,-0.068261,0.042771,135.895645,-0.146929,-1.782830
8127,0.057561,6.803236,-7.058560,-0.008919,-0.072666,0.055145,135.895401,-0.146379,-1.785637
8128,0.061986,6.799741,-7.054374,-0.013286,-0.092310,0.070593,135.895050,-0.145863,-1.789056
8129,0.064013,6.803714,-7.057600,-0.000870,-0.079889,0.066223,135.894806,-0.145389,-1.792690
8130,0.065567,6.805132,-7.058660,0.013067,-0.082719,0.069491,135.895020,-0.145017,-1.796201
8131,0.066578,6.802929,-7.060204,0.019385,-0.082488,0.083448,135.895569,-0.144814,-1.799947
8132,0.067949,6.807265,-7.059706,0.018070,-0.088355,0.082153,135.896210,-0.144690,-1.803911
8133,0.063807,6.807738,-7.064000,0.032009,-0.086600,0.073221,135.897064,-0.144399,-1.807800
8134,0.064436,6.803228,-7.061568,0.020023,-0.097061,0.078011,135.897934,-0.143955,-1.811740
8135,0.061224,6.804426,-7.064522,0.009573,-0.087693,0.076693,135.898438,-0.143538,-1.815735
8136,0.061445,6.799987,-7.067280,0.002198,-0.092066,0.072314,135.898636,-0.143115,-1.819603
8137,0.060874,6.799269,-7.068614,0.016211,-0.082705,0.075565,135.898956,-0.142738,-1.823400
8138,0.065371,6.794584,-7.068281,0.005827,-0.073335,0.080354,135.899323,-0.142679,-1.827076
8139,0.065984,6.791931,-7.066577,0.003087,-0.067000,0.079052,135.899490,-0.142848,-1.830612
8140,0.065680,6.795309,-7.065385,-0.001188,-0.060665,0.085381,135.899536,-0.143227,-1.834061
8141,0.067899,6.801506,-7.067407,-0.005488,-0.061955,0.077981,135.899429,-0.143655,-1.837438
8142,0.062494,6.802103,-7.067266,-0.014381,-0.072409,0.062943,135.899109,-0.143681,-1.840683
8143,0.055697,6.806871,-7.066074,-0.011084,-0.076794,0.044819,135.898682,-0.143145,-1.843704
8144,0.053383,6.810659,-7.067329,-0.000181,-0.068998,0.032774,135.898499,-0.142300,-1.846323
8145,0.055547,6.808501,-7.065598,0.003086,-0.073408,0.025308,135.898560,-0.141270,-1.848670
8146,0.050723,6.807038,-7.062067,0.004825,-0.079351,0.031569,135.898697,-0.140101,-1.851123
8147,0.053336,6.811722,-7.065042,0.006551,-0.076143,0.040875,135.898895,-0.139080,-1.853793
8148,0.057474,6.808648,-7.066407,0.006759,-0.068338,0.054780,135.899124,-0.138461,-1.856614
8149,0.058686,6.809242,-7.067953,0.013086,-0.074250,0.054967,135.899460,-0.138027,-1.859581
8150,0.058569,6.804847,-7.063727,0.005682,-0.075581,0.061260,135.899780,-0.137582,-1.862710
8151,0.059156,6.803478,-7.061424,0.015062,-0.072332,0.058400,135.900131,-0.137199,-1.865858
8152,0.060953,6.798427,-7.056318,0.003077,-0.064498,0.049443,135.900436,-0.136812,-1.868736
8153,0.061344,6.801600,-7.053185,-0.001297,-0.068864,0.045070,135.900482,-0.136312,-1.871414
8154,0.059653,6.802036,-7.052734,-0.011795,-0.070183,0.048324,135.900269,-0.135731,-1.874144
8155,0.062704,6.808483,-7.054501,-0.007049,-0.076075,0.039373,135.899963,-0.134998,-1.876890
8156,0.061877,6.811582,-7.058500,-0.012995,-0.071278,0.036534,135.899628,-0.134115,-1.879508
8157,0.063954,6.813103,-7.062804,-0.006724,-0.066479,0.041328,135.899307,-0.133369,-1.882037
8158,0.065192,6.812413,-7.064949,-0.001963,-0.066246,0.040028,135.899170,-0.132724,-1.884550
8159,0.062714,6.814372,-7.061142,0.001264,-0.062964,0.034149,135.899155,-0.132038,-1.886937
8160,0.056192,6.815947,-7.067772,0.007542,-0.061233,0.045029,135.899307,-0.131470,-1.889326
8161,0.060040,6.811737,-7.064439,0.003153,-0.048827,0.054378,135.899506,-0.131306,-1.891792
8162,0.055305,6.812950,-7.061394,0.007911,-0.053208,0.054569,135.899689,-0.131348,-1.894279
8163,0.055263,6.818749,-7.064180,0.015700,-0.060655,0.066953,135.900085,-0.131395,-1.897054
8164,0.055405,6.820242,-7.067314,0.009752,-0.057420,0.080864,135.900513,-0.131696,-1.900193
8165,0.059221,6.817435,-7.063020,0.011433,-0.054174,0.079528,135.900879,-0.132221,-1.903407
8166,0.054767,6.812331,-7.065139,0.016180,-0.070767,0.067506,135.901352,-0.132431,-1.906616
8167,0.051771,6.813545,-7.066401,0.014844,-0.078226,0.073776,135.901871,-0.132286,-1.910035
8168,0.051266,6.809967,-7.060979,0.005874,-0.071961,0.061725,135.902222,-0.132060,-1.913399
8169,0.052482,6.807670,-7.059867,0.009109,-0.068746,0.054255,135.902481,-0.131721,-1.916419
8170,0.053802,6.806538,-7.058876,0.004718,-0.071627,0.057472,135.902710,-0.131337,-1.919385
8171,0.054967,6.807270,-7.057169,0.018631,-0.066871,0.068327,135.903107,-0.131138,-1.922496
8172,0.061055,6.801790,-7.058373,0.024927,-0.069725,0.063942,135.903839,-0.131037,-1.925664
8173,0.060013,6.797937,-7.057178,0.022091,-0.071038,0.061097,135.904633,-0.130802,-1.928793
8174,0.062070,6.799353,-7.059916,0.033000,-0.072348,0.071989,135.905548,-0.130629,-1.932049
8175,0.057625,6.802742,-7.062655,0.036279,-0.072138,0.070667,135.906723,-0.130554,-1.935433
8176,0.057677,6.806937,-7.062061,0.016652,-0.062786,0.070859,135.907608,-0.130581,-1.938691
8177,0.054107,6.812118,-7.060570,0.001571,-0.064125,0.057307,135.907913,-0.130548,-1.941697
8178,0.055264,6.817824,-7.063334,0.009349,-0.062418,0.051379,135.908112,-0.130293,-1.944466
8180,0.054578,6.813056,-7.060925,-0.001185,-0.068339,0.051556,135.908249,-0.129922,-1.947214
8181,0.052654,6.815334,-7.062773,0.009649,-0.065112,0.054777,135.908401,-0.129557,-1.950035
8182,0.052203,6.819763,-7.060742,0.028093,-0.058841,0.057992,135.909027,-0.129381,-1.952822
8183,0.056469,6.818536,-7.064519,0.043480,-0.047979,0.070375,135.910233,-0.129591,-1.955598
8184,0.054983,6.818185,-7.060809,0.039035,-0.055422,0.087341,135.911621,-0.130182,-1.958685
8185,0.052156,6.821981,-7.059664,0.046771,-0.062876,0.069200,135.913055,-0.130581,-1.961931
8186,0.057568,6.817799,-7.056664,0.036185,-0.067272,0.067851,135.914444,-0.130613,-1.965081
8187,0.056915,6.806598,-7.058700,0.027162,-0.073182,0.057359,135.915512,-0.130383,-1.968208
8188,0.053082,6.804906,-7.057199,0.021229,-0.076051,0.049906,135.916321,-0.129840,-1.971223
8189,0.051517,6.800775,-7.061075,0.019893,-0.068253,0.047017,135.917023,-0.129236,-1.974056
8190,0.052799,6.795325,-7.061522,0.020122,-0.054352,0.054811,135.917679,-0.128949,-1.976697
8191,0.055059,6.790924,-7.064363,0.024964,-0.057227,0.045827,135.918442,-0.128780,-1.979196
8192,0.056968,6.800155,-7.064469,0.022170,-0.063140,0.052116,135.919235,-0.128475,-1.981764
8193,0.061414,6.803992,-7.060541,0.017802,-0.058355,0.062999,135.919891,-0.128355,-1.984550
8194,0.065268,6.808393,-7.057708,0.017970,-0.052020,0.061699,135.920502,-0.128479,-1.987323
8195,0.061256,6.814470,-7.059843,0.022682,-0.057893,0.069552,135.921188,-0.128685,-1.990169
8196,0.054577,6.816931,-7.056234,0.025840,-0.059218,0.066694,135.921997,-0.128862,-1.993159
8197,0.054758,6.815401,-7.058999,0.027467,-0.060562,0.062294,135.922897,-0.128924,-1.996092
8198,0.051639,6.807424,-7.059400,0.029128,-0.054284,0.059411,135.923843,-0.128960,-1.998881
8199,0.049762,6.808061,-7.062930,0.043025,-0.060228,0.065669,135.925049,-0.129039,-2.001706
8200,0.055346,6.808770,-7.060059,0.047765,-0.060058,0.062784,135.926575,-0.129088,-2.004639
8201,0.057605,6.803907,-7.062417,0.050985,-0.052236,0.079755,135.928223,-0.129395,-2.007647
8202,0.057707,6.802762,-7.060002,0.052695,-0.052037,0.078422,135.929947,-0.129980,-2.010750
8203,0.058748,6.807770,-7.062284,0.066601,-0.053362,0.090824,135.931946,-0.130680,-2.013999
8204,0.060008,6.803603,-7.062493,0.051513,-0.043999,0.101708,135.933929,-0.131746,-2.017433
8205,0.060350,6.795352,-7.061505,0.042561,-0.051418,0.091230,135.935501,-0.132840,-2.020849
8206,0.055856,6.797609,-7.059543,0.027511,-0.051219,0.082268,135.936676,-0.133621,-2.024117
8207,0.058282,6.796715,-7.060702,0.027712,-0.046450,0.088557,135.937607,-0.134432,-2.027295
8208,0.057197,6.788779,-7.060824,0.027941,-0.055411,0.079591,135.938538,-0.135161,-2.030489
8209,0.058275,6.787875,-7.059839,0.026664,-0.062846,0.066047,135.939468,-0.135432,-2.033604
8210,0.055607,6.790614,-7.060375,0.031484,-0.058079,0.073860,135.940445,-0.135606,-2.036681
8211,0.064011,6.787122,-7.066361,0.030218,-0.062452,0.075585,135.941483,-0.135894,-2.039868
8212,0.061381,6.784989,-7.064717,0.019824,-0.057653,0.077325,135.942322,-0.136228,-2.043092
8213,0.059304,6.789823,-7.066814,-0.002787,-0.040661,0.079053,135.942612,-0.136862,-2.046104
8214,0.061035,6.796015,-7.068243,0.005099,-0.029774,0.074675,135.942657,-0.137800,-2.048761
8215,0.062536,6.798500,-7.066654,0.002279,-0.021930,0.090142,135.942780,-0.139091,-2.051335
8216,0.061197,6.807620,-7.057298,0.014657,-0.020191,0.088823,135.943069,-0.140661,-2.053967
8217,0.062230,6.812979,-7.059461,0.019343,-0.026084,0.087503,135.943649,-0.142150,-2.056615
8218,0.066027,6.813186,-7.056861,0.039272,-0.041119,0.080089,135.944626,-0.143287,-2.059402
8219,0.063263,6.813484,-7.056672,0.045457,-0.054628,0.081833,135.946045,-0.144017,-2.062450
8220,0.063689,6.809991,-7.057861,0.036393,-0.068144,0.075939,135.947418,-0.144375,-2.065763
8221,0.062317,6.806464,-7.059083,0.030406,-0.069456,0.077673,135.948547,-0.144507,-2.069198
