seq,ax,ay,az,wroll,wpitch,wyaw,roll,pitch,yaw,q0,q1,q2,q3
62,0.081671,-0.328412,9.917795,0.146145,-0.671835,0.109437,-1.896567,-0.471550,0.015614,0.999855,-0.016549,-0.004117,0.000068
63,0.050085,-0.275878,9.942628,-0.586196,-0.316233,-0.047733,-1.881548,-0.460647,0.014999,0.999857,-0.016418,-0.004022,0.000065
64,0.071465,-0.275494,9.922168,-1.158219,-0.137623,0.219305,-1.860788,-0.448850,0.017706,0.999861,-0.016237,-0.003919,0.000091
65,0.081863,-0.289961,9.921908,-1.257246,-0.134563,0.568741,-1.861322,-0.450919,0.030666,0.999860,-0.016241,-0.003939,0.000204
66,0.082840,-0.316190,9.929941,-1.280059,0.083628,0.568740,-1.885064,-0.455354,0.049496,0.999857,-0.016448,-0.003980,0.000367
67,0.074694,-0.358479,9.929410,-1.292315,0.057686,0.579422,-1.940175,-0.452542,0.068642,0.999849,-0.016928,-0.003959,0.000532
68,0.074167,-0.364709,9.921944,-1.048283,-0.639646,0.841883,-2.008336,-0.457320,0.092877,0.999838,-0.017522,-0.004004,0.000740
69,0.070871,-0.374857,9.910821,-0.737101,-1.356807,0.954803,-2.065238,-0.483473,0.124191,0.999828,-0.018017,-0.004238,0.001008
70,0.075446,-0.398592,9.899150,-0.750968,-1.481901,0.899872,-2.123517,-0.521703,0.157075,0.999817,-0.018524,-0.004577,0.001286
71,0.087923,-0.389691,9.889475,-0.831967,-1.429999,0.814421,-2.181319,-0.564137,0.187714,0.999806,-0.019026,-0.004953,0.001544
72,0.100500,-0.363730,9.889643,-0.685497,-1.423898,0.796111,-2.211741,-0.611053,0.216398,0.999798,-0.019290,-0.005368,0.001785
73,0.106515,-0.370444,9.911940,-0.575581,-1.106512,0.805266,-2.220874,-0.653991,0.244572,0.999794,-0.019367,-0.005747,0.002023
74,0.115676,-0.387748,9.925763,-0.632022,-0.696044,0.696924,-2.236709,-0.684487,0.270712,0.999789,-0.019503,-0.006018,0.002245
75,0.116880,-0.375821,9.930457,-0.592331,-0.726564,0.580954,-2.252957,-0.707558,0.292872,0.999785,-0.019643,-0.006224,0.002434
76,0.109934,-0.379135,9.924795,-0.506834,-0.847084,0.617577,-2.260318,-0.725976,0.313729,0.999782,-0.019706,-0.006388,0.002612
77,0.111115,-0.405402,9.909816,-0.593817,-0.691386,0.693875,-2.280372,-0.737606,0.336603,0.999777,-0.019879,-0.006494,0.002809
78,0.113896,-0.417441,9.894590,-0.683920,-0.445658,0.548915,-2.320090,-0.742143,0.358288,0.999770,-0.020224,-0.006538,0.002995
79,0.109269,-0.412235,9.885939,-0.639736,-0.050381,0.307822,-2.359267,-0.734142,0.373103,0.999763,-0.020566,-0.006472,0.003123
80,0.103665,-0.419810,9.899953,-0.508551,0.442574,0.098774,-2.389873,-0.706983,0.379740,0.999758,-0.020833,-0.006237,0.003184
81,0.104925,-0.419063,9.920460,-0.429236,0.583038,0.005697,-2.413674,-0.670140,0.380859,0.999756,-0.021042,-0.005917,0.003200
82,0.116400,-0.408483,9.937755,-0.232382,0.360287,0.013327,-2.422121,-0.645986,0.380480,0.999756,-0.021116,-0.005706,0.003200
83,0.115826,-0.409778,9.937265,0.010281,0.239732,-0.145370,-2.415736,-0.637888,0.377744,0.999757,-0.021061,-0.005635,0.003178
84,0.115573,-0.402669,9.922543,0.225487,-0.019693,-0.249134,-2.399010,-0.638677,0.370877,0.999760,-0.020915,-0.005640,0.003119
85,0.110585,-0.391749,9.899652,0.333903,-0.161613,-0.221668,-2.370870,-0.644499,0.362953,0.999766,-0.020670,-0.005689,0.003050
86,0.106003,-0.391938,9.901737,0.353819,0.268708,-0.468869,-2.339527,-0.640622,0.351159,0.999772,-0.020397,-0.005652,0.002950
87,0.104179,-0.391325,9.894472,0.173820,0.718879,-0.766425,-2.315601,-0.619223,0.329753,0.999777,-0.020190,-0.005461,0.002768
88,0.106259,-0.391074,9.908247,0.205907,0.798241,-0.693180,-2.298170,-0.591346,0.304307,0.999782,-0.020040,-0.005213,0.002552
89,0.091417,-0.405698,9.921387,0.228800,0.947805,-0.893075,-2.289656,-0.557565,0.276713,0.999786,-0.019968,-0.004913,0.002317
90,0.087352,-0.403757,9.927214,0.231824,1.051608,-1.015147,-2.288569,-0.515731,0.243671,0.999788,-0.019960,-0.004542,0.002036
91,0.089472,-0.406763,9.924368,0.416428,0.773906,-0.636717,-2.285668,-0.481973,0.215023,0.999791,-0.019937,-0.004243,0.001792
92,0.077038,-0.391005,9.931817,0.485086,0.654897,-0.536005,-2.272750,-0.455827,0.194568,0.999794,-0.019825,-0.004011,0.001619
93,0.069129,-0.386995,9.927567,0.469851,0.773951,-0.641293,-2.250715,-0.424883,0.173975,0.999799,-0.019634,-0.003737,0.001445
94,0.075123,-0.383012,9.897903,0.576691,0.831951,-0.529899,-2.226870,-0.394941,0.153379,0.999804,-0.019427,-0.003472,0.001271
95,0.065246,-0.387625,9.914485,0.570595,1.132562,-0.729795,-2.205717,-0.362324,0.131119,0.999809,-0.019244,-0.003183,0.001083
96,0.053405,-0.379829,9.913287,0.462254,1.662082,-1.179943,-2.188354,-0.310996,0.097528,0.999814,-0.019093,-0.002730,0.000799
97,0.051126,-0.386403,9.911454,0.686554,2.060371,-1.182994,-2.171732,-0.244702,0.055829,0.999818,-0.018950,-0.002144,0.000447
98,0.037300,-0.386068,9.913974,0.523245,2.235868,-0.906800,-2.159981,-0.170718,0.018359,0.999821,-0.018848,-0.001493,0.000132
99,0.017753,-0.377243,9.948303,0.364526,2.301516,-0.590933,-2.150956,-0.087934,-0.009407,0.999824,-0.018770,-0.000766,-0.000096
100,0.022030,-0.385006,9.907669,0.474364,2.161140,-0.224710,-2.144134,-0.011686,-0.025765,0.999825,-0.018710,-0.000098,-0.000227
101,0.016305,-0.380334,9.875259,0.517045,2.283173,0.091155,-2.138936,0.052066,-0.030748,0.999826,-0.018665,0.000459,-0.000260
102,-0.007592,-0.377591,9.849875,0.626872,2.858417,0.336828,-2.129687,0.130401,-0.026815,0.999827,-0.018584,0.001142,-0.000213
103,-0.010897,-0.388948,9.849119,0.935047,3.822776,0.405493,-2.119312,0.235886,-0.018610,0.999827,-0.018493,0.002061,-0.000124
104,-0.032719,-0.371846,9.874953,0.913627,5.077050,0.274262,-2.102549,0.375097,-0.012793,0.999826,-0.018347,0.003275,-0.000052
105,-0.085230,-0.358619,9.930365,0.736619,5.927013,0.234588,-2.075267,0.564530,-0.010993,0.999824,-0.018108,0.004927,-0.000007
106,-0.133591,-0.360723,9.961787,0.657283,6.290291,0.164400,-2.049061,0.794892,-0.011645,0.999816,-0.017879,0.006937,0.000022
107,-0.174044,-0.373311,9.986870,0.503134,6.291952,-0.096528,-2.037339,1.038343,-0.018091,0.999801,-0.017776,0.009063,0.000003
108,-0.287677,-0.359925,9.981403,0.616013,7.677763,0.069807,-2.028820,1.338863,-0.026949,0.999775,-0.017700,0.011686,-0.000028
109,-0.333787,-0.371400,9.930223,-0.285837,10.410996,0.255980,-2.030493,1.715671,-0.032340,0.999731,-0.017712,0.014974,-0.000017
110,-0.406667,-0.380299,9.904821,-1.558506,13.965080,0.663408,-2.072933,2.172997,-0.031939,0.999657,-0.018080,0.018964,0.000064
112,-0.499710,-0.396447,9.896904,-1.811874,17.738916,1.751399,-2.144441,2.758710,-0.011793,0.999535,-0.018705,0.024070,0.000348
113,-0.666192,-0.411523,9.910427,-2.191905,22.303261,2.967568,-2.227225,3.503514,0.040519,0.999344,-0.019437,0.030557,0.000947
114,-0.774429,-0.399021,9.863005,-2.686359,24.127087,2.998098,-2.317294,4.366718,0.108529,0.999069,-0.020242,0.038071,0.001717
115,-0.954370,-0.424393,9.855100,-2.021094,23.590319,3.024050,-2.399975,5.254649,0.175492,0.998727,-0.020990,0.045797,0.002489
116,-1.090612,-0.472317,9.848160,-0.846214,22.881130,3.042369,-2.461561,6.125076,0.242115,0.998337,-0.021562,0.053368,0.003257
117,-1.261282,-0.484531,9.815569,-0.257323,23.139387,2.094774,-2.503521,6.988596,0.291790,0.997896,-0.021960,0.060879,0.003872
118,-1.389132,-0.478086,9.788050,0.175931,22.976490,1.429474,-2.528935,7.853474,0.313813,0.997402,-0.022203,0.068404,0.004243
119,-1.485312,-0.475037,9.787864,0.558850,22.802845,1.186854,-2.537811,8.694463,0.320860,0.996870,-0.022293,0.075720,0.004470
120,-1.621107,-0.455260,9.774871,0.743425,23.556898,1.073937,-2.531305,9.529546,0.322173,0.996292,-0.022245,0.082983,0.004636
121,-1.765409,-0.419350,9.728306,1.028762,23.465584,0.381176,-2.506297,10.374293,0.311472,0.995658,-0.022026,0.090328,0.004684
122,-1.900685,-0.395708,9.734231,1.236327,22.591465,0.835919,-2.460911,11.200853,0.300100,0.994988,-0.021627,0.097512,0.004701
123,-1.997054,-0.380901,9.684488,1.665174,20.890242,0.803895,-2.397133,11.972157,0.299732,0.994321,-0.021076,0.104209,0.004782
124,-2.114073,-0.358376,9.663394,1.982644,20.026699,1.045012,-2.315627,12.688185,0.306686,0.993664,-0.020378,0.110422,0.004892
125,-2.251126,-0.376795,9.667457,2.252789,19.286753,1.176260,-2.227589,13.376424,0.321210,0.992997,-0.019632,0.116390,0.005047
126,-2.336323,-0.354270,9.659472,2.657193,17.550352,1.515027,-2.131727,14.017529,0.345346,0.992344,-0.018830,0.121944,0.005260
127,-2.395032,-0.373953,9.634473,2.597687,15.353045,1.222051,-2.036107,14.573211,0.372180,0.991755,-0.018036,0.126755,0.005475
128,-2.459426,-0.345922,9.607813,2.748736,13.791976,0.805468,-1.947421,15.047698,0.388436,0.991234,-0.017291,0.130862,0.005585
129,-2.572452,-0.363275,9.598573,2.686134,13.189188,0.141678,-1.866873,15.486041,0.386621,0.990738,-0.016597,0.134657,0.005538
130,-2.566911,-0.353825,9.518879,2.798978,12.842727,-0.499233,-1.801154,15.900360,0.360671,0.990255,-0.016002,0.138245,0.005291
131,-2.637371,-0.339515,9.477078,2.890454,15.229149,-1.124889,-1.739750,16.335390,0.311636,0.989733,-0.015414,0.142013,0.004848
132,-2.753689,-0.323790,9.429984,2.852232,18.625786,-1.669669,-1.682910,16.880316,0.239897,0.989056,-0.014834,0.146730,0.004226
133,-2.837689,-0.333842,9.369557,2.641566,21.679148,-1.941310,-1.640453,17.545593,0.149494,0.988196,-0.014347,0.152482,0.003472
134,-2.959787,-0.335091,9.307214,2.391196,24.998043,-2.402176,-1.619750,18.323006,0.040481,0.987144,-0.014010,0.159197,0.002599
135,-3.141637,-0.301323,9.307450,1.757837,27.872955,-2.277080,-1.612998,19.218458,-0.076538,0.985873,-0.013767,0.166920,0.001691
136,-3.321080,-0.354959,9.266844,1.003909,29.180811,-1.558407,-1.633582,20.200653,-0.184104,0.984405,-0.013753,0.175377,0.000918
137,-3.473589,-0.349289,9.212007,1.034263,29.037531,-1.592031,-1.676889,21.207790,-0.286063,0.982821,-0.013924,0.184034,0.000239
138,-3.647712,-0.336325,9.177968,0.806760,28.082453,-1.997977,-1.721384,22.195051,-0.394976,0.981194,-0.014077,0.192508,-0.000491
139,-3.815545,-0.312863,9.163542,0.879911,26.823708,-1.265565,-1.755005,23.143579,-0.494081,0.979563,-0.014138,0.200635,-0.001151
140,-3.938858,-0.326150,9.080358,1.627537,24.681425,-0.723890,-1.761651,24.029379,-0.567617,0.977983,-0.014005,0.208210,-0.001644
141,-4.051756,-0.269994,9.013710,1.802983,22.781723,-1.218302,-1.740924,24.838137,-0.633858,0.976491,-0.013647,0.215114,-0.002134
142,-4.155115,-0.276336,8.987869,1.157520,20.813303,-1.126745,-1.719157,25.568527,-0.700770,0.975103,-0.013277,0.221341,-0.002643
143,-4.225606,-0.278485,8.922127,1.204812,19.751211,-0.517907,-1.706631,26.232037,-0.755324,0.973806,-0.013008,0.226989,-0.003039
144,-4.279249,-0.297222,8.851305,1.538952,19.784670,-0.183752,-1.688492,26.862011,-0.795478,0.972545,-0.012719,0.232343,-0.003329
145,-4.399916,-0.311848,8.802998,1.578551,20.805389,-0.830785,-1.678830,27.505964,-0.847309,0.971225,-0.012472,0.237810,-0.003699
146,-4.510967,-0.282438,8.751146,2.153758,21.482805,-1.157371,-1.666421,28.185835,-0.917819,0.969797,-0.012154,0.243575,-0.004227
147,-4.636125,-0.240776,8.658643,2.886189,22.357113,-1.477824,-1.621761,28.903364,-0.993467,0.968256,-0.011540,0.249648,-0.004863
148,-4.796869,-0.252096,8.643943,2.632888,22.325085,-1.615154,-1.569202,29.649860,-1.075767,0.966612,-0.010835,0.255955,-0.005571
149,-4.892457,-0.252504,8.579548,2.184245,20.419228,-1.842528,-1.540276,30.366545,-1.168036,0.964992,-0.010302,0.262002,-0.006316
150,-4.947045,-0.212489,8.508332,1.949252,18.415661,-1.380174,-1.513783,31.005196,-1.250652,0.963515,-0.009812,0.267382,-0.006985
151,-5.036613,-0.242499,8.471831,1.097784,16.323538,-1.015481,-1.497159,31.562815,-1.315515,0.962202,-0.009450,0.272071,-0.007493
152,-5.067051,-0.259151,8.436613,0.888684,14.686075,-0.634033,-1.505841,32.042534,-1.372340,0.961051,-0.009324,0.276102,-0.007883
153,-5.117382,-0.228507,8.344891,1.198408,15.508364,-0.824803,-1.508482,32.498322,-1.423945,0.959943,-0.009160,0.279926,-0.008245
154,-5.241716,-0.187166,8.287951,1.091612,17.942093,-0.482987,-1.487361,33.024750,-1.463738,0.958647,-0.008813,0.284334,-0.008557
155,-5.371464,-0.154472,8.224064,1.290056,21.210611,0.775949,-1.429182,33.674179,-1.463547,0.957026,-0.008237,0.289758,-0.008611
156,-5.480271,-0.165231,8.129689,1.544963,24.245747,1.537439,-1.339934,34.450214,-1.423521,0.955053,-0.007489,0.296222,-0.008402
157,-5.605656,-0.157909,8.036779,1.883774,26.720921,2.146323,-1.233204,35.331802,-1.360669,0.952759,-0.006650,0.303549,-0.008048
158,-5.781386,-0.181651,8.000508,1.813598,27.279570,3.045108,-1.116247,36.273106,-1.273189,0.950247,-0.005798,0.311352,-0.007526
159,-5.860775,-0.176502,7.903738,2.137069,25.624073,2.817729,-0.999310,37.189434,-1.177233,0.947740,-0.004989,0.318928,-0.006956
160,-5.958162,-0.188849,7.851389,1.946271,22.834726,1.430621,-0.909797,38.009544,-1.118458,0.945442,-0.004328,0.325694,-0.006643
161,-6.054388,-0.179309,7.796721,1.961447,20.850992,1.163520,-0.852379,38.730331,-1.097855,0.943379,-0.003841,0.331630,-0.006572
162,-6.148574,-0.167883,7.723045,1.390669,19.129684,0.601913,-0.814267,39.380459,-1.093416,0.941484,-0.003475,0.336975,-0.006589
163,-6.177392,-0.150439,7.632105,1.283782,17.835598,-0.046664,-0.799108,39.971149,-1.111524,0.939735,-0.003238,0.341823,-0.006732
164,-6.254587,-0.176530,7.572683,0.806083,17.231197,-0.893624,-0.820440,40.521061,-1.165847,0.938080,-0.003193,0.346331,-0.007065
165,-6.319237,-0.172485,7.494500,0.577094,17.208174,-1.179060,-0.878203,41.060551,-1.250950,0.936433,-0.003348,0.350749,-0.007535
166,-6.412874,-0.158423,7.430227,0.064302,17.496462,-1.650642,-0.952633,41.610596,-1.349220,0.934731,-0.003589,0.355248,-0.008053
167,-6.501893,-0.154187,7.362808,-0.105132,17.749697,-1.638486,-1.036515,42.178654,-1.452964,0.932949,-0.003877,0.359886,-0.008575
168,-6.591157,-0.141457,7.295846,0.399920,18.863579,-1.397417,-1.101915,42.777023,-1.546008,0.931049,-0.004033,0.364761,-0.009055
169,-6.661472,-0.132534,7.214898,0.712731,19.808102,-0.965582,-1.133027,43.414200,-1.617790,0.929000,-0.003964,0.369937,-0.009459
170,-6.744622,-0.149858,7.126909,0.715782,20.693127,-0.628355,-1.148416,44.085827,-1.673762,0.926813,-0.003807,0.375378,-0.009777
171,-6.803716,-0.134921,7.026267,1.202549,21.178370,-0.294179,-1.146242,44.782715,-1.715546,0.924511,-0.003545,0.381008,-0.010031
172,-6.879119,-0.153233,6.942397,1.474158,21.691069,0.612215,-1.113365,45.494431,-1.730027,0.922128,-0.003122,0.386739,-0.010166
173,-6.985260,-0.159330,6.875414,1.324590,21.698681,1.378202,-1.060732,46.213909,-1.712055,0.919686,-0.002650,0.392515,-0.010108
174,-7.097197,-0.141186,6.795617,1.338295,21.691050,2.025165,-0.984653,46.936947,-1.658768,0.917199,-0.002117,0.398302,-0.009856
175,-7.162966,-0.136624,6.694155,1.789945,21.558298,2.881183,-0.869835,47.659740,-1.565029,0.914679,-0.001425,0.404068,-0.009426
176,-7.251528,-0.126763,6.614199,2.183602,21.636114,3.091726,-0.721547,48.379360,-1.443954,0.912136,-0.000580,0.409790,-0.008914
177,-7.317748,-0.083327,6.514325,2.224784,21.951963,2.228032,-0.566508,49.103004,-1.329424,0.909540,0.000324,0.415530,-0.008498
178,-7.379161,-0.043679,6.391772,1.689196,21.684919,1.001202,-0.438904,49.828194,-1.251237,0.906897,0.001126,0.421269,-0.008289
179,-7.455845,-0.051804,6.303518,1.229903,21.964153,0.186370,-0.366500,50.553925,-1.223730,0.904213,0.001668,0.426999,-0.008291
180,-7.575061,-0.066584,6.228847,-0.044264,21.787142,-1.641712,-0.394243,51.281754,-1.278956,0.901479,0.001728,0.432734,-0.008573
181,-7.649986,-0.077200,6.128820,-1.527502,21.478912,-2.618351,-0.541818,52.003502,-1.421806,0.898727,0.001190,0.438413,-0.009079
182,-7.739580,-0.092926,6.054207,-1.405470,20.645754,-2.136213,-0.731731,52.703594,-1.586517,0.896021,0.000424,0.443909,-0.009571
183,-7.789854,-0.148536,5.976905,-1.355179,19.809504,-1.641896,-0.917875,53.366425,-1.741892,0.893426,-0.000330,0.449100,-0.009985
184,-7.832961,-0.125515,5.873522,-1.162973,18.980854,-2.021933,-1.100886,53.993141,-1.898077,0.890943,-0.001041,0.453996,-0.010397
185,-7.854023,-0.114899,5.766471,-0.277957,18.869375,-1.478734,-1.238714,54.600891,-2.031879,0.888510,-0.001472,0.458728,-0.010798
186,-7.876910,-0.136209,5.659220,1.360877,19.493380,-0.439595,-1.293842,55.214844,-2.118136,0.886033,-0.001439,0.463487,-0.011146
187,-7.917896,-0.137521,5.531711,1.508877,21.341200,-0.735647,-1.308511,55.875324,-2.189334,0.883341,-0.001136,0.468587,-0.011528
188,-8.025876,-0.098441,5.405181,1.650795,23.906281,-0.906541,-1.317137,56.628555,-2.265080,0.880237,-0.000743,0.474384,-0.011949
189,-8.154620,-0.134296,5.321711,1.890372,26.221174,0.211975,-1.299446,57.479988,-2.316505,0.876685,-0.000222,0.480907,-0.012271
190,-8.330044,-0.131306,5.262366,1.734715,25.658186,0.692624,-1.256754,58.364075,-2.333638,0.872950,0.000355,0.487651,-0.012431
191,-8.473355,-0.136601,5.195310,0.861869,21.654215,0.257708,-1.231680,59.167049,-2.349735,0.869513,0.000777,0.493751,-0.012525
192,-8.555903,-0.146804,5.142622,-0.155952,15.539822,-0.216903,-1.269494,59.783783,-2.398863,0.866840,0.000829,0.498426,-0.012627
193,-8.533522,-0.158156,5.088226,-0.644289,8.592155,-0.279536,-1.352149,60.152924,-2.467504,0.865224,0.000581,0.501224,-0.012719
194,-8.504015,-0.154718,5.032359,-1.126537,1.978436,-0.644339,-1.472776,60.238617,-2.556250,0.864840,0.000078,0.501884,-0.012845
195,-8.416147,-0.171895,4.981334,-1.155607,-1.769784,-0.617020,-1.624980,60.103733,-2.665697,0.865416,-0.000623,0.500883,-0.013032
196,-8.362354,-0.142426,4.970914,-0.922184,-2.580621,-0.646104,-1.735949,59.887581,-2.741213,0.866349,-0.001185,0.499264,-0.013165
197,-8.367220,-0.141038,4.983114,-0.630724,-2.384281,-0.423320,-1.779402,59.677956,-2.764012,0.867257,-0.001466,0.497684,-0.013195
198,-8.374841,-0.158082,4.996632,-0.343842,-1.943685,-0.235631,-1.803492,59.506718,-2.775147,0.867997,-0.001643,0.496391,-0.013213
199,-8.373590,-0.157331,5.017740,-0.105801,-1.744109,0.003926,-1.816301,59.364971,-2.780689,0.868609,-0.001752,0.495319,-0.013231
200,-8.367575,-0.165722,5.033173,0.049838,-1.872571,0.188545,-1.813825,59.233440,-2.775149,0.869176,-0.001790,0.494322,-0.013229
201,-8.357802,-0.164931,5.036481,0.164271,-2.036087,0.258709,-1.805354,59.108047,-2.766084,0.869717,-0.001797,0.493370,-0.013225
202,-8.338823,-0.146384,5.040638,0.336708,-2.121736,0.306019,-1.771014,58.989792,-2.737857,0.870229,-0.001687,0.492468,-0.013185
203,-8.363116,-0.155186,5.063596,0.361137,-2.097477,0.313666,-1.725571,58.880993,-2.702462,0.870700,-0.001520,0.491636,-0.013135
204,-8.355555,-0.137073,5.070318,0.425243,-1.864124,0.158048,-1.680177,58.787254,-2.669755,0.871106,-0.001338,0.490918,-0.013101
205,-8.376111,-0.115183,5.095079,0.315426,-1.633793,0.124558,-1.610447,58.708668,-2.617370,0.871449,-0.001051,0.490313,-0.013017
206,-8.368073,-0.120754,5.108734,0.164418,-1.914640,0.435939,-1.530985,58.631058,-2.550601,0.871788,-0.000750,0.489713,-0.012865
207,-8.341725,-0.124981,5.114765,0.005756,-1.836911,0.654202,-1.463435,58.546257,-2.485039,0.872158,-0.000535,0.489060,-0.012671
209,-8.327276,-0.113294,5.115482,-0.036940,-1.484513,0.915181,-1.391861,58.469196,-2.409179,0.872495,-0.000330,0.488466,-0.012413
210,-8.313685,-0.132014,5.114085,0.027159,-1.437273,1.043374,-1.328069,58.405445,-2.337000,0.872774,-0.000165,0.487973,-0.012146
211,-8.296193,-0.107520,5.107115,0.095828,-1.121441,0.754979,-1.272861,58.354969,-2.275523,0.872995,-0.000017,0.487583,-0.011922
212,-8.327211,-0.101013,5.124131,0.109587,-0.762847,0.607003,-1.209436,58.324615,-2.212178,0.873131,0.000191,0.487345,-0.011714
213,-8.349125,-0.101612,5.148679,0.320184,-0.538522,0.570414,-1.151253,58.306942,-2.158217,0.873211,0.000402,0.487205,-0.011553
214,-8.352268,-0.095763,5.161743,0.085207,-0.584306,0.024158,-1.113927,58.286915,-2.126805,0.873299,0.000549,0.487049,-0.011475
215,-8.343087,-0.084758,5.162727,-0.270309,-0.743026,-0.488514,-1.107014,58.259037,-2.122140,0.873418,0.000577,0.486836,-0.011473
216,-8.325054,-0.101721,5.167552,-0.328280,-1.142863,-0.036819,-1.117427,58.216423,-2.126791,0.873599,0.000509,0.486512,-0.011471
217,-8.283949,-0.116020,5.157125,-0.280994,-1.200920,0.219507,-1.137469,58.159115,-2.133186,0.873841,0.000373,0.486077,-0.011444
218,-8.290973,-0.114673,5.169406,-0.325274,-1.068243,0.036348,-1.164909,58.101730,-2.145265,0.874083,0.000205,0.485642,-0.011428
219,-8.289080,-0.118901,5.175475,-0.116250,-1.008797,0.260615,-1.186910,58.050831,-2.154708,0.874298,0.000067,0.485256,-0.011415
220,-8.296245,-0.124656,5.187770,0.089718,-0.902036,0.667985,-1.189923,58.005592,-2.148357,0.874490,0.000009,0.484911,-0.011361
221,-8.318154,-0.127396,5.205696,0.054585,-0.845619,0.275762,-1.194878,57.966053,-2.145952,0.874657,-0.000046,0.484610,-0.011328
222,-8.321761,-0.112721,5.217285,0.062191,-1.050128,0.051412,-1.204400,57.925423,-2.152437,0.874828,-0.000099,0.484301,-0.011344
223,-8.286652,-0.111645,5.191529,-0.093460,-1.246991,0.045297,-1.206931,57.882534,-2.152858,0.875009,-0.000125,0.483974,-0.011343
224,-8.285213,-0.097112,5.185496,-0.232310,-1.207293,0.149077,-1.196988,57.847832,-2.137660,0.875157,-0.000120,0.483708,-0.011275
225,-8.288693,-0.095499,5.192660,-0.246017,-1.153835,0.323074,-1.168101,57.821423,-2.101830,0.875272,-0.000055,0.483503,-0.011127
226,-8.263382,-0.088844,5.193224,-0.212415,-1.109548,0.492503,-1.125388,57.793045,-2.051566,0.875396,0.000054,0.483282,-0.010928
227,-8.278855,-0.085491,5.199081,-0.343610,-0.941663,0.353700,-1.080351,57.767635,-1.997745,0.875508,0.000167,0.483084,-0.010710
228,-8.298570,-0.087283,5.213309,-0.274915,-0.912617,0.314072,-1.046792,57.750778,-1.954389,0.875583,0.000237,0.482952,-0.010523
229,-8.278522,-0.091828,5.224408,-0.226069,-1.173523,0.456008,-1.020428,57.722992,-1.917843,0.875704,0.000280,0.482738,-0.010359
230,-8.263451,-0.097711,5.224092,-0.281004,-1.333758,0.410228,-1.005823,57.678280,-1.890245,0.875894,0.000268,0.482395,-0.010215
231,-8.272490,-0.089941,5.228248,-0.352726,-1.246781,0.300358,-0.999066,57.635201,-1.868877,0.876077,0.000223,0.482065,-0.010086
232,-8.256701,-0.083324,5.232616,-0.325248,-1.274241,0.489588,-0.979553,57.595276,-1.835415,0.876248,0.000225,0.481758,-0.009918
233,-8.259009,-0.073181,5.241709,-0.369475,-1.272716,1.071006,-0.926898,57.553078,-1.766867,0.876431,0.000333,0.481431,-0.009620
234,-8.271096,-0.078332,5.253913,-0.326725,-1.028562,1.362495,-0.852817,57.517029,-1.672477,0.876590,0.000498,0.481150,-0.009214
235,-8.262087,-0.064182,5.272480,-0.271770,-1.057569,1.129064,-0.777830,57.479252,-1.578241,0.876755,0.000671,0.480855,-0.008812
236,-8.236680,-0.059710,5.259917,0.013605,-1.240716,0.939891,-0.703772,57.432545,-1.493367,0.876957,0.000876,0.480493,-0.008478
237,-8.233863,-0.048358,5.261267,0.274568,-0.943179,0.868219,-0.625810,57.391953,-1.415262,0.877132,0.001140,0.480177,-0.008211
238,-8.218224,-0.056410,5.265426,0.535521,-0.593760,0.849936,-0.551422,57.362244,-1.348399,0.877261,0.001426,0.479945,-0.008014
239,-8.217913,-0.045631,5.258056,0.468386,-0.787558,0.756864,-0.487068,57.338081,-1.293744,0.877365,0.001687,0.479757,-0.007867
240,-8.242327,-0.045536,5.255082,0.414982,-0.747829,0.837745,-0.426834,57.326447,-1.240971,0.877416,0.001926,0.479664,-0.007716
241,-8.245795,-0.018326,5.261343,0.291403,-0.363205,0.932386,-0.350726,57.330917,-1.170809,0.877401,0.002216,0.479695,-0.007497
242,-8.236045,-0.023940,5.264062,0.334160,-0.218170,1.242198,-0.257272,57.339523,-1.081310,0.877368,0.002557,0.479757,-0.007202
243,-8.242822,-0.038949,5.266625,0.245649,-0.176914,1.196409,-0.190467,57.347111,-1.011246,0.877339,0.002776,0.479812,-0.006945
244,-8.249068,-0.030738,5.276374,0.218152,0.175619,0.663814,-0.160101,57.358196,-0.975453,0.877294,0.002859,0.479896,-0.006798
245,-8.241201,-0.021609,5.278905,0.334102,0.413679,0.514241,-0.138409,57.372101,-0.954359,0.877237,0.002938,0.480002,-0.006726
246,-8.243229,-0.049104,5.280258,0.303538,0.322119,0.356999,-0.144234,57.383190,-0.960401,0.877190,0.002920,0.480087,-0.006748
247,-8.264050,-0.045241,5.290717,-0.058177,0.100851,-0.430491,-0.203801,57.388069,-1.014687,0.877168,0.002691,0.480126,-0.006913
248,-8.262045,-0.020912,5.285756,-0.178762,-0.181448,-0.894428,-0.272976,57.385841,-1.081526,0.877175,0.002442,0.480112,-0.007135
249,-8.247319,-0.022243,5.271325,-0.074998,-0.414904,-0.844071,-0.321709,57.378334,-1.134602,0.877204,0.002290,0.480057,-0.007338
250,-8.244628,-0.032679,5.269470,-0.152821,-0.504911,-0.943256,-0.372098,57.368328,-1.189856,0.877243,0.002135,0.479982,-0.007550
251,-8.242947,-0.040798,5.268917,-0.142149,-0.570499,-0.741850,-0.429430,57.356941,-1.249078,0.877288,0.001943,0.479898,-0.007765
252,-8.234102,-0.054893,5.259350,0.063828,-0.655911,-0.317679,-0.478023,57.346230,-1.298339,0.877330,0.001776,0.479818,-0.007939
253,-8.230546,-0.052841,5.260133,0.149254,-0.426974,-0.238370,-0.510825,57.340092,-1.333869,0.877354,0.001673,0.479773,-0.008074
254,-8.246848,-0.056733,5.281054,0.286568,-0.054617,0.187333,-0.521609,57.339890,-1.349485,0.877354,0.001656,0.479772,-0.008149
255,-8.255536,-0.057390,5.294274,0.343007,0.003372,0.298694,-0.515475,57.339996,-1.348780,0.877353,0.001700,0.479773,-0.008169
256,-8.257309,-0.042697,5.303366,0.132426,-0.224012,-0.006498,-0.503673,57.330917,-1.342869,0.877392,0.001765,0.479702,-0.008174
257,-8.251718,-0.038468,5.293576,-0.128495,-0.399515,-0.119395,-0.494941,57.315163,-1.336658,0.877458,0.001804,0.479581,-0.008164
258,-8.240625,-0.033722,5.292802,-0.163569,-0.504818,-0.108681,-0.487426,57.296749,-1.328218,0.877535,0.001824,0.479440,-0.008132
259,-8.237459,-0.025653,5.289708,-0.313078,-0.570443,-0.583192,-0.484800,57.276123,-1.325469,0.877622,0.001831,0.479282,-0.008124
260,-8.239428,-0.022256,5.281350,-0.348130,-0.478868,-0.642634,-0.489682,57.263561,-1.331266,0.877674,0.001816,0.479186,-0.008149
261,-8.246873,-0.037996,5.281010,-0.198558,-0.358265,-0.474734,-0.500901,57.263309,-1.343042,0.877674,0.001779,0.479184,-0.008192
262,-8.245742,-0.025111,5.289918,0.053250,-0.135428,-0.459428,-0.501946,57.268013,-1.350265,0.877654,0.001802,0.479220,-0.008243
263,-8.244053,-0.031500,5.287071,0.091436,-0.159805,-0.264050,-0.485813,57.272488,-1.345219,0.877636,0.001905,0.479253,-0.008271
264,-8.228670,-0.040243,5.276043,0.085353,-0.246744,-0.204507,-0.477503,57.275517,-1.344898,0.877623,0.001968,0.479276,-0.008303
265,-8.225144,-0.054244,5.278068,0.134176,-0.223823,-0.189257,-0.489162,57.275505,-1.361296,0.877622,0.001947,0.479276,-0.008380
266,-8.229605,-0.037268,5.271320,0.039566,-0.156643,-0.206046,-0.498712,57.278915,-1.375299,0.877607,0.001933,0.479303,-0.008447
267,-8.221473,-0.059008,5.268988,0.057872,-0.109291,-0.093136,-0.509691,57.286747,-1.388578,0.877573,0.001905,0.479364,-0.008502
268,-8.211419,-0.076667,5.279334,0.218048,-0.029929,-0.036747,-0.547203,57.287521,-1.425168,0.877568,0.001771,0.479372,-0.008626
269,-8.219388,-0.070953,5.286165,0.204262,-0.069623,-0.012415,-0.586785,57.280571,-1.464827,0.877594,0.001633,0.479321,-0.008764
270,-8.240926,-0.050864,5.288740,0.135578,-0.040634,-0.099420,-0.599508,57.277958,-1.481294,0.877604,0.001604,0.479302,-0.008837
271,-8.245337,-0.051998,5.305292,0.301911,0.150104,0.007405,-0.588489,57.278915,-1.478997,0.877600,0.001679,0.479308,-0.008866
272,-8.259491,-0.045501,5.307912,0.237835,0.107363,-0.032248,-0.568927,57.279530,-1.470356,0.877598,0.001793,0.479312,-0.008881
273,-8.264903,-0.023576,5.295592,0.144794,-0.065046,-0.105431,-0.531910,57.285645,-1.445821,0.877574,0.001974,0.479356,-0.008848
274,-8.256270,-0.032949,5.296373,0.179937,-0.306107,0.178466,-0.483787,57.288231,-1.409196,0.877565,0.002190,0.479373,-0.008768
275,-8.233933,-0.031274,5.291833,0.215066,-0.414443,0.382988,-0.435773,57.277721,-1.369225,0.877611,0.002389,0.479289,-0.008664
276,-8.231345,-0.038252,5.285269,0.088430,-0.609761,0.170910,-0.402305,57.260777,-1.340265,0.877683,0.002523,0.479158,-0.008584
277,-8.214875,-0.041083,5.284731,0.036546,-0.727257,-0.068664,-0.399164,57.238689,-1.338368,0.877776,0.002537,0.478988,-0.008584
278,-8.222461,-0.047106,5.293163,-0.116062,-0.715058,-0.151087,-0.418727,57.212437,-1.355593,0.877884,0.002456,0.478788,-0.008636
279,-8.214783,-0.033497,5.287607,-0.119119,-0.600610,-0.329629,-0.439401,57.191128,-1.373929,0.877973,0.002372,0.478626,-0.008692
280,-8.208910,-0.050665,5.296430,-0.067243,-0.676908,-0.173993,-0.459681,57.169472,-1.392821,0.878062,0.002293,0.478461,-0.008754
281,-8.192203,-0.051988,5.294567,-0.058108,-0.692190,0.192198,-0.478642,57.141003,-1.406733,0.878180,0.002203,0.478245,-0.008783
282,-8.192685,-0.027202,5.295465,-0.253419,-0.730359,0.140328,-0.468167,57.112068,-1.390462,0.878302,0.002212,0.478022,-0.008705
283,-8.190812,-0.028590,5.291525,-0.303740,-0.698313,-0.048834,-0.446247,57.088711,-1.363323,0.878401,0.002264,0.477842,-0.008590
284,-8.198490,-0.047227,5.293598,-0.248797,-0.409885,0.027477,-0.447983,57.077293,-1.357161,0.878449,0.002224,0.477755,-0.008537
285,-8.209931,-0.036148,5.294811,-0.267109,-0.156528,-0.041191,-0.457496,57.081501,-1.358013,0.878431,0.002155,0.477788,-0.008503
286,-8.217495,-0.027847,5.304295,-0.238096,-0.109164,-0.239528,-0.455334,57.091991,-1.351654,0.878388,0.002146,0.477868,-0.008462
287,-8.236388,-0.048457,5.304603,0.076253,-0.023646,0.180115,-0.452149,57.106445,-1.347244,0.878328,0.002154,0.477979,-0.008441
288,-8.239344,-0.047724,5.300932,0.289869,0.188545,0.393726,-0.442225,57.130959,-1.338852,0.878226,0.002197,0.478166,-0.008416
289,-8.237366,-0.024597,5.307542,0.344814,0.281696,0.262513,-0.405381,57.156422,-1.310880,0.878121,0.002366,0.478359,-0.008353
290,-8.232817,-0.024855,5.308228,0.476074,0.138294,0.442620,-0.347420,57.172264,-1.267328,0.878057,0.002630,0.478477,-0.008261
291,-8.229275,-0.020427,5.299123,0.389123,0.177994,0.239712,-0.293449,57.184208,-1.227941,0.878009,0.002880,0.478566,-0.008183
292,-8.217999,-0.005769,5.300860,0.294551,0.268038,0.087175,-0.243848,57.195126,-1.192897,0.877964,0.003114,0.478647,-0.008121
293,-8.217835,-0.000584,5.309647,0.157263,0.084903,0.047572,-0.193777,57.195217,-1.155939,0.877965,0.003344,0.478645,-0.008047
294,-8.230008,-0.023266,5.311528,-0.034986,-0.205054,-0.062268,-0.177061,57.185299,-1.143733,0.878007,0.003420,0.478568,-0.008024
295,-8.232546,-0.028101,5.309324,-0.360026,-0.426326,-0.510918,-0.213683,57.171619,-1.174135,0.878063,0.003265,0.478465,-0.008105
296,-8.221229,-0.026176,5.303861,-0.358520,-0.646061,-0.530784,-0.268708,57.153324,-1.219682,0.878138,0.003032,0.478328,-0.008225
297,-8.201826,-0.034469,5.296400,-0.265455,-0.754403,-0.694085,-0.324958,57.129375,-1.269210,0.878236,0.002805,0.478147,-0.008372
298,-8.209901,-0.040034,5.305063,-0.140351,-0.557561,-0.640710,-0.383545,57.106834,-1.324739,0.878327,0.002586,0.477977,-0.008554
299,-8.208695,-0.030998,5.312535,0.001554,-0.525522,-0.431667,-0.418125,57.087204,-1.361472,0.878407,0.002472,0.477829,-0.008693
300,-8.212153,-0.033846,5.314166,0.102277,-0.462963,-0.332466,-0.427340,57.069588,-1.377514,0.878479,0.002466,0.477694,-0.008779
301,-8.225385,-0.049968,5.325050,0.097693,-0.246277,-0.126475,-0.440432,57.059017,-1.395409,0.878522,0.002439,0.477613,-0.008863
302,-8.241979,-0.040721,5.344972,-0.157147,-0.218814,-0.063928,-0.455083,57.050182,-1.408566,0.878558,0.002381,0.477547,-0.008903
303,-8.223741,-0.052867,5.338944,-0.401306,-0.638466,-0.201278,-0.480059,57.030270,-1.424054,0.878640,0.002252,0.477396,-0.008920
304,-8.208291,-0.051412,5.321387,-0.640894,-0.881098,-0.477499,-0.529987,57.002331,-1.457404,0.878755,0.002004,0.477185,-0.008970
305,-8.201189,-0.053603,5.321521,-0.662269,-0.699502,-0.286776,-0.580962,56.978477,-1.488740,0.878853,0.001741,0.477005,-0.009000
306,-8.190056,-0.045351,5.322789,-0.582916,-0.755955,-0.065510,-0.606550,56.955700,-1.495859,0.878947,0.001572,0.476832,-0.008950
307,-8.161877,-0.069731,5.304076,-0.206018,-0.742213,0.048926,-0.624195,56.932739,-1.499631,0.879043,0.001449,0.476658,-0.008908
308,-8.187836,-0.055396,5.311404,-0.009186,-0.240144,-0.096054,-0.638705,56.926239,-1.509119,0.879069,0.001377,0.476609,-0.008921
309,-8.219114,-0.050387,5.331310,0.257863,0.292469,0.190838,-0.621853,56.943626,-1.497613,0.878998,0.001460,0.476741,-0.008901
310,-8.224178,-0.047868,5.339406,0.418107,0.242168,0.166456,-0.584477,56.966385,-1.472529,0.878904,0.001645,0.476913,-0.008862
312,-8.212248,-0.051429,5.329991,0.408964,0.190324,-0.059359,-0.556404,56.982792,-1.459615,0.878837,0.001809,0.477037,-0.008878
313,-8.236308,-0.034043,5.335660,0.152631,0.257507,-0.208866,-0.535519,57.000896,-1.452425,0.878761,0.001941,0.477174,-0.008909
314,-8.219273,-0.026850,5.318961,0.160303,0.004260,0.189468,-0.494491,57.019562,-1.422585,0.878685,0.002134,0.477315,-0.008849
315,-8.186045,-0.025595,5.307511,0.302260,-0.134562,0.543553,-0.429249,57.026920,-1.367661,0.878658,0.002406,0.477367,-0.008699
316,-8.175518,-0.017697,5.309732,0.418276,0.179775,0.619919,-0.349308,57.027210,-1.300119,0.878660,0.002738,0.477365,-0.008514
317,-8.216143,-0.004544,5.338246,0.477840,0.419323,0.618475,-0.257701,57.031532,-1.224597,0.878645,0.003126,0.477393,-0.008316
318,-8.216154,-0.006677,5.349699,0.493148,0.336876,0.650593,-0.168370,57.032524,-1.151754,0.878643,0.003507,0.477396,-0.008130
319,-8.208765,-0.017092,5.354677,0.354306,0.135369,0.316442,-0.115127,57.019592,-1.110185,0.878699,0.003741,0.477295,-0.008034
320,-8.210382,-0.006692,5.348478,0.104057,-0.099707,-0.231362,-0.102911,56.999313,-1.105581,0.878783,0.003814,0.477139,-0.008050
321,-8.210223,-0.018383,5.340314,0.014022,-0.307280,-0.226792,-0.116917,56.980648,-1.123128,0.878860,0.003778,0.476996,-0.008127
322,-8.196783,-0.035300,5.330716,-0.037895,-0.394278,-0.197853,-0.157898,56.963955,-1.160997,0.878928,0.003620,0.476870,-0.008248
323,-8.214211,-0.039307,5.338121,0.004779,-0.414115,-0.092644,-0.209681,56.950325,-1.206564,0.878983,0.003412,0.476767,-0.008383
324,-8.214540,-0.031699,5.345328,0.050517,-0.441576,0.001902,-0.243816,56.937210,-1.236746,0.879036,0.003274,0.476668,-0.008473
325,-8.205476,-0.040693,5.349128,0.010812,-0.527042,-0.089702,-0.271779,56.917583,-1.261798,0.879117,0.003162,0.476519,-0.008550
326,-8.201487,-0.025144,5.348201,-0.112807,-0.580470,-0.262161,-0.298138,56.893742,-1.285611,0.879215,0.003057,0.476338,-0.008625
327,-8.193635,-0.022308,5.349662,-0.085335,-0.627795,-0.147707,-0.306608,56.868477,-1.293612,0.879319,0.003022,0.476144,-0.008653
328,-8.182622,-0.016659,5.345028,-0.143301,-0.591192,-0.196508,-0.303431,56.843437,-1.290837,0.879424,0.003033,0.475952,-0.008646
329,-8.178405,-0.011965,5.355819,-0.086811,-0.435576,-0.111011,-0.289669,56.819210,-1.278858,0.879525,0.003086,0.475765,-0.008613
330,-8.186702,-0.033610,5.362346,-0.120371,-0.685863,0.226235,-0.281211,56.791553,-1.267785,0.879640,0.003103,0.475553,-0.008565
331,-8.182996,-0.025097,5.354561,-0.265339,-0.977327,-0.053018,-0.287754,56.760887,-1.266225,0.879768,0.003043,0.475318,-0.008528
332,-8.181668,-0.012130,5.357929,-0.245486,-0.847614,-0.220843,-0.288783,56.732864,-1.262383,0.879884,0.003016,0.475103,-0.008496
333,-8.171411,-0.015609,5.365112,-0.179842,-0.861348,0.072178,-0.276109,56.704269,-1.247137,0.880003,0.003048,0.474883,-0.008433
334,-8.169707,-0.027610,5.358302,-0.260706,-0.844558,0.008104,-0.272631,56.677101,-1.237282,0.880117,0.003031,0.474674,-0.008374
335,-8.170440,-0.011493,5.368615,-0.111152,-0.371504,-0.330632,-0.275954,56.660992,-1.237779,0.880183,0.003006,0.474551,-0.008365
336,-8.164496,-0.027769,5.371532,0.004832,-0.139559,0.038662,-0.274261,56.653473,-1.237535,0.880215,0.003018,0.474493,-0.008371
337,-8.168087,-0.030209,5.365086,-0.011961,-0.240255,0.150045,-0.275265,56.650906,-1.236529,0.880225,0.003005,0.474473,-0.008359
338,-8.168956,-0.033969,5.362428,0.001759,-0.113565,-0.162791,-0.287033,56.654503,-1.246319,0.880210,0.002956,0.474501,-0.008385
339,-8.162393,-0.031980,5.362543,0.084145,-0.107426,0.012669,-0.301223,56.659718,-1.260734,0.880188,0.002907,0.474542,-0.008437
340,-8.164083,-0.028482,5.351297,0.050568,-0.220299,0.270542,-0.296620,56.665714,-1.256154,0.880163,0.002924,0.474588,-0.008420
341,-8.168122,-0.019039,5.364819,0.142133,-0.046299,0.009622,-0.278814,56.672424,-1.241382,0.880136,0.003000,0.474639,-0.008380
342,-8.174511,-0.037001,5.376915,0.134501,-0.037133,0.015722,-0.275405,56.673431,-1.242150,0.880132,0.003030,0.474646,-0.008400
343,-8.171148,-0.026133,5.374059,0.058193,-0.285864,0.034015,-0.280784,56.666832,-1.248858,0.880159,0.003016,0.474595,-0.008430
344,-8.177544,-0.017565,5.368380,0.004795,-0.316369,-0.233008,-0.277203,56.660355,-1.248539,0.880185,0.003041,0.474545,-0.008442
345,-8.172585,-0.024253,5.380535,0.078050,-0.084419,-0.265035,-0.279046,56.656052,-1.255775,0.880203,0.003057,0.474512,-0.008491
346,-8.165174,-0.020866,5.378613,0.050590,-0.168361,-0.065127,-0.278919,56.647602,-1.260473,0.880237,0.003076,0.474447,-0.008528
347,-8.163623,-0.010950,5.377775,-0.008898,-0.220260,-0.136812,-0.265030,56.636738,-1.251286,0.880282,0.003144,0.474363,-0.008515
348,-8.164578,-0.016749,5.383314,-0.040917,-0.089051,-0.213069,-0.253920,56.626717,-1.244507,0.880324,0.003200,0.474286,-0.008510
349,-8.165119,-0.015400,5.394870,-0.056159,-0.096718,-0.092495,-0.248469,56.613930,-1.241397,0.880377,0.003228,0.474187,-0.008509
350,-8.165075,-0.014264,5.390650,-0.194999,-0.307339,-0.226748,-0.245061,56.596546,-1.237968,0.880449,0.003238,0.474053,-0.008498
351,-8.169681,-0.025656,5.388545,-0.275867,-0.423326,-0.357967,-0.261834,56.580006,-1.250752,0.880517,0.003161,0.473927,-0.008528
352,-8.159162,-0.016773,5.381725,-0.245343,-0.408065,-0.293870,-0.282255,56.566628,-1.266493,0.880572,0.003068,0.473825,-0.008566
353,-8.161782,-0.010821,5.374554,-0.133925,-0.325639,-0.136662,-0.278537,56.561016,-1.262035,0.880595,0.003077,0.473782,-0.008547
354,-8.161722,-0.017090,5.376618,0.041583,-0.058558,-0.016072,-0.261979,56.565598,-1.248318,0.880577,0.003148,0.473816,-0.008510
355,-8.163110,-0.018644,5.374548,0.140785,0.165798,0.215892,-0.240617,56.578827,-1.231196,0.880523,0.003243,0.473917,-0.008466
356,-8.166327,-0.007039,5.378560,0.261355,0.319958,0.318165,-0.201412,56.597370,-1.199180,0.880448,0.003413,0.474057,-0.008381
357,-8.177189,-0.024779,5.384550,0.203381,0.281840,0.260196,-0.170476,56.614861,-1.174530,0.880376,0.003551,0.474190,-0.008318
358,-8.171662,-0.025143,5.384049,0.067557,0.127736,0.251016,-0.166333,56.625332,-1.170163,0.880333,0.003565,0.474271,-0.008301
359,-8.181933,-0.025241,5.381453,-0.091160,-0.030944,0.022097,-0.176441,56.630772,-1.175774,0.880310,0.003511,0.474313,-0.008302
360,-8.176191,-0.023161,5.380227,-0.109488,-0.151472,-0.284640,-0.200790,56.632988,-1.195717,0.880300,0.003407,0.474331,-0.008355
361,-8.173576,-0.030151,5.388846,-0.124766,-0.198778,-0.287721,-0.234980,56.626480,-1.226246,0.880326,0.003270,0.474283,-0.008448
362,-8.170198,-0.028017,5.385167,-0.141569,-0.325445,-0.278595,-0.268929,56.613792,-1.256060,0.880377,0.003132,0.474187,-0.008537
363,-8.186107,-0.032150,5.386816,-0.094279,-0.465823,-0.499874,-0.303778,56.602402,-1.288981,0.880423,0.002999,0.474101,-0.008647
364,-8.181479,-0.016203,5.391201,-0.085118,-0.616872,-0.545642,-0.328162,56.588737,-1.316380,0.880478,0.002924,0.473997,-0.008757
365,-8.184394,-0.012540,5.407287,-0.040833,-0.763370,-0.130542,-0.319901,56.563503,-1.313866,0.880582,0.002974,0.473803,-0.008774
366,-8.185901,-0.020859,5.403422,-0.138462,-0.987692,-0.145755,-0.305123,56.531555,-1.301487,0.880715,0.003033,0.473557,-0.008742
367,-8.175039,-0.007857,5.402264,-0.222357,-1.175375,-0.347128,-0.296584,56.497044,-1.293770,0.880858,0.003064,0.473291,-0.008720
368,-8.152965,-0.002014,5.412170,-0.263507,-1.283736,-0.197511,-0.276656,56.450756,-1.275292,0.881050,0.003136,0.472934,-0.008664
369,-8.147845,-0.018949,5.406157,-0.281782,-1.442462,0.023802,-0.260532,56.397823,-1.255754,0.881269,0.003175,0.472526,-0.008583
370,-8.136347,-0.020172,5.399499,-0.342806,-1.373791,-0.305780,-0.267506,56.352310,-1.255370,0.881457,0.003115,0.472177,-0.008555
371,-8.128856,-0.033465,5.408704,-0.199372,-1.065540,-0.137934,-0.290730,56.315052,-1.271166,0.881610,0.002998,0.471892,-0.008583
372,-8.124041,-0.044076,5.409419,0.015756,-0.786284,0.084811,-0.316772,56.287090,-1.290692,0.881724,0.002875,0.471678,-0.008628
373,-8.130576,-0.040008,5.409773,0.105756,-0.586353,-0.080033,-0.337981,56.272575,-1.309907,0.881783,0.002790,0.471567,-0.008689
374,-8.129638,-0.045586,5.425348,0.172871,-0.403215,-0.002249,-0.356086,56.263012,-1.329536,0.881821,0.002730,0.471495,-0.008766
375,-8.141249,-0.055927,5.443116,0.090432,-0.659577,-0.020618,-0.383434,56.243546,-1.356077,0.881900,0.002627,0.471346,-0.008860
376,-8.153007,-0.027826,5.449706,-0.201033,-1.398136,-0.545558,-0.410836,56.206337,-1.382440,0.882051,0.002520,0.471061,-0.008953
377,-8.183016,-0.036522,5.486899,-0.498577,-2.313709,-0.573007,-0.439610,56.139881,-1.406775,0.882323,0.002392,0.470552,-0.009027
378,-8.192170,-0.036904,5.524571,-0.841901,-3.754243,-0.524164,-0.480723,56.023216,-1.432092,0.882800,0.002166,0.469656,-0.009063
379,-8.187772,-0.020560,5.553413,-1.401896,-5.942494,-0.765231,-0.531813,55.843048,-1.454646,0.883537,0.001844,0.468271,-0.009043
380,-8.194361,-0.039584,5.597803,-1.928319,-8.753308,-0.116682,-0.588902,55.583347,-1.462839,0.884596,0.001406,0.466272,-0.008897
381,-8.147680,-0.053109,5.650619,-2.097686,-11.732000,0.890440,-0.624681,55.220898,-1.427655,0.886069,0.000944,0.463475,-0.008513
382,-8.074888,-0.045033,5.708677,-2.416593,-14.736682,0.849258,-0.642225,54.746441,-1.360954,0.887984,0.000484,0.459804,-0.007970
383,-7.977214,-0.065935,5.765568,-2.471519,-17.344669,0.934719,-0.666924,54.166878,-1.293870,0.890303,-0.000041,0.455309,-0.007403
384,-7.897181,-0.089358,5.843352,-2.573767,-19.308748,0.940803,-0.707532,53.503319,-1.236014,0.892927,-0.000658,0.450149,-0.006852
385,-7.795955,-0.068270,5.920815,-2.717214,-20.593809,0.171721,-0.766195,52.780693,-1.196189,0.895749,-0.001349,0.444513,-0.006379
386,-7.723122,-0.081362,6.031463,-2.878960,-21.625582,-0.431019,-0.850470,52.014900,-1.185565,0.898698,-0.002133,0.438521,-0.006044
387,-7.634216,-0.108546,6.130023,-2.820985,-22.520033,-0.531748,-0.958121,51.214264,-1.198171,0.901736,-0.003021,0.432238,-0.005815
388,-7.584377,-0.141271,6.275968,-3.135359,-23.928730,-1.273394,-1.097774,50.372635,-1.239752,0.904878,-0.004065,0.425613,-0.005713
389,-7.524017,-0.194878,6.419261,-3.162892,-26.498667,-2.849761,-1.303829,49.460850,-1.350138,0.908220,-0.005405,0.418415,-0.005941
390,-7.407712,-0.233767,6.550278,-2.839494,-29.794964,-4.610799,-1.576802,48.444149,-1.547016,0.911869,-0.007009,0.410368,-0.006665
391,-7.288864,-0.275627,6.665443,-2.677857,-33.152309,-6.307765,-1.898044,47.312073,-1.818197,0.915835,-0.008804,0.401380,-0.007886
392,-7.137905,-0.280921,6.779057,-2.326989,-35.963356,-7.432487,-2.232193,46.079033,-2.129622,0.920043,-0.010650,0.391557,-0.009476
393,-6.948015,-0.282922,6.874330,-1.524400,-37.454456,-7.649230,-2.524071,44.777126,-2.432681,0.924368,-0.012277,0.381140,-0.011236
394,-6.753923,-0.281089,6.973767,-0.534067,-37.611881,-7.044965,-2.735771,43.453148,-2.690527,0.928648,-0.013482,0.370491,-0.012969
395,-6.602468,-0.296901,7.079701,0.120603,-37.459492,-6.445240,-2.871095,42.142990,-2.897341,0.932769,-0.014283,0.359896,-0.014579
396,-6.453504,-0.263356,7.228013,0.721920,-37.122414,-5.917184,-2.937165,40.854893,-3.056780,0.936712,-0.014702,0.349423,-0.016045
397,-6.308427,-0.272050,7.388283,1.469775,-36.612892,-4.699369,-2.930569,39.586308,-3.162022,0.940494,-0.014712,0.339050,-0.017296
398,-6.171754,-0.292685,7.561563,1.946015,-35.935513,-2.823884,-2.862087,38.340748,-3.203644,0.944112,-0.014403,0.328807,-0.018197
399,-6.037464,-0.284708,7.739071,1.846979,-35.012463,-1.278009,-2.746362,37.123886,-3.178911,0.947555,-0.013882,0.318746,-0.018662
400,-5.887110,-0.268104,7.890821,2.101971,-33.231850,0.406732,-2.587870,35.953373,-3.091967,0.950782,-0.013147,0.309018,-0.018689
401,-5.723218,-0.279968,7.977934,2.486652,-31.210121,1.990748,-2.393021,34.851910,-2.952033,0.953741,-0.012204,0.299822,-0.018320
402,-5.604301,-0.269672,8.078397,2.498978,-29.994036,2.448606,-2.187907,33.817768,-2.787955,0.956446,-0.011187,0.291156,-0.017720
403,-5.479042,-0.220935,8.149484,2.421283,-29.827715,2.247270,-1.984631,32.823116,-2.625072,0.958974,-0.010138,0.282799,-0.017078
404,-5.312270,-0.203560,8.215491,3.179806,-29.823118,3.011851,-1.765860,31.838377,-2.455752,0.961405,-0.008938,0.274503,-0.016379
405,-5.184869,-0.191127,8.298632,3.439334,-30.149639,3.365943,-1.531659,30.851036,-2.275409,0.963771,-0.007601,0.266165,-0.015584
406,-5.047959,-0.158418,8.392742,3.776672,-30.433401,2.822781,-1.299456,29.857647,-2.107766,0.966075,-0.006217,0.257760,-0.014850
407,-4.902584,-0.111424,8.492877,4.078930,-30.154112,2.542085,-1.065433,28.862766,-1.960513,0.968303,-0.004739,0.249327,-0.014251
408,-4.783183,-0.096093,8.596470,4.645171,-29.607769,2.494851,-0.825791,27.883497,-1.826754,0.970420,-0.003153,0.241010,-0.013735
409,-4.658486,-0.030391,8.699079,4.198211,-29.976961,1.541223,-0.593852,26.912834,-1.716575,0.972443,-0.001554,0.232752,-0.013362
410,-4.499988,-0.007911,8.802762,2.925741,-30.402618,0.644058,-0.404575,25.925686,-1.643859,0.974421,-0.000222,0.224344,-0.013187
411,-4.332200,0.025755,8.899478,1.688365,-30.597900,0.685332,-0.268391,24.917358,-1.592137,0.976362,0.000711,0.215746,-0.013061
412,-4.171378,0.000861,8.945112,0.893471,-30.146214,0.639610,-0.178688,23.909933,-1.548402,0.978225,0.001274,0.207144,-0.012896
413,-3.992228,0.002618,8.973424,0.011552,-29.853209,0.021640,-0.138242,22.916645,-1.525231,0.979985,0.001462,0.198653,-0.012805
415,-3.797383,-0.029016,9.044394,-0.762071,-30.617712,-0.414766,-0.146289,21.906075,-1.527005,0.981699,0.001279,0.190004,-0.012840
416,-3.652783,-0.039517,9.129465,-0.830760,-31.751513,-1.122804,-0.187796,20.856585,-1.553472,0.983395,0.000842,0.181010,-0.013036
417,-3.403792,-0.025313,9.216736,-0.768207,-35.792274,-2.126867,-0.235888,19.702164,-1.607853,0.985162,0.000373,0.171099,-0.013472
418,-3.161655,0.001489,9.344099,-1.041306,-40.908974,-2.885238,-0.281429,18.357141,-1.686197,0.987092,-0.000077,0.159530,-0.014134
419,-2.890829,-0.001584,9.481572,-0.972563,-44.562431,-3.333835,-0.323976,16.831968,-1.779977,0.989115,-0.000523,0.146384,-0.014952
420,-2.650615,0.002813,9.554969,-0.349891,-44.779572,-3.487926,-0.350662,15.228953,-1.881401,0.991051,-0.000857,0.132538,-0.015867
421,-2.347497,0.029570,9.608005,0.692451,-44.389408,-3.001121,-0.334384,13.624802,-1.974083,0.992794,-0.000854,0.118651,-0.016758
422,-2.176816,-0.017285,9.665075,1.096940,-40.979370,-2.439552,-0.291951,12.100575,-2.051308,0.994272,-0.000646,0.105429,-0.017532
423,-1.961550,0.003460,9.680380,1.460198,-36.858109,-1.911563,-0.240140,10.737468,-2.114187,0.995445,-0.000360,0.093587,-0.018172
424,-1.795327,-0.008448,9.703909,1.138309,-33.339474,-1.589577,-0.185609,9.529923,-2.164970,0.996367,-0.000045,0.083084,-0.018692
425,-1.628124,-0.028842,9.726029,0.682090,-32.047062,-1.769631,-0.155057,8.428338,-2.216766,0.997111,0.000072,0.073497,-0.019192
426,-1.450944,-0.025020,9.721765,0.100716,-30.870565,-1.771157,-0.148870,7.381046,-2.273312,0.997731,-0.000019,0.064380,-0.019712
427,-1.282992,-0.010219,9.731887,-0.575253,-29.187439,-1.584991,-0.159202,6.387906,-2.326373,0.998241,-0.000256,0.055733,-0.020191
428,-1.136966,-0.059238,9.779840,-1.889092,-27.063290,-2.314385,-0.210828,5.465776,-2.389032,0.998646,-0.000843,0.047708,-0.020735
429,-0.971452,-0.026724,9.732396,-3.245661,-23.851137,-3.181113,-0.309789,4.636741,-2.477643,0.998947,-0.001826,0.040501,-0.021493
430,-0.853870,-0.031014,9.763340,-4.889052,-18.273783,-3.373376,-0.445750,3.958817,-2.581880,0.999145,-0.003108,0.034619,-0.022381
431,-0.768282,-0.065274,9.840648,-6.276087,-12.435447,-3.936438,-0.631443,3.481995,-2.698486,0.999250,-0.004791,0.030502,-0.023368
432,-0.731010,-0.138769,9.864029,-6.710993,-7.250142,-5.134290,-0.861080,3.204511,-2.845919,0.999278,-0.006815,0.028138,-0.024612
433,-0.722935,-0.164528,9.869779,-6.125082,-2.560682,-5.265518,-1.095690,3.110573,-3.017510,0.999246,-0.008840,0.027383,-0.026059
434,-0.753917,-0.242992,9.952546,-4.756393,0.824188,-4.467457,-1.302506,3.170094,-3.180483,0.999177,-0.010590,0.027964,-0.027425
435,-0.773956,-0.254403,9.922807,-2.763613,2.382576,-3.611408,-1.455132,3.324792,-3.317923,0.999090,-0.011848,0.029363,-0.028568
436,-0.810830,-0.266743,9.906260,-0.869996,3.370514,-2.254848,-1.535960,3.584501,-3.419365,0.998989,-0.012458,0.031659,-0.029399
437,-0.826845,-0.238636,9.908676,0.692575,3.726900,-0.489328,-1.536439,3.912924,-3.468068,0.998883,-0.012361,0.034527,-0.029782
438,-0.842422,-0.222060,9.891484,1.928710,3.416323,0.935914,-1.458615,4.210297,-3.461305,0.998802,-0.011605,0.037098,-0.029711
439,-0.842177,-0.180909,9.866810,2.926815,2.684308,1.692795,-1.336740,4.420312,-3.416930,0.998757,-0.010501,0.038893,-0.029340
440,-0.852045,-0.167727,9.881905,3.009343,1.907808,1.454766,-1.201667,4.546934,-3.363445,0.998740,-0.009309,0.039957,-0.028907
441,-0.867323,-0.144931,9.871331,2.937744,1.213675,1.170957,-1.068924,4.640680,-3.318116,0.998729,-0.008144,0.040738,-0.028549
442,-0.872566,-0.123026,9.872630,2.550337,0.788157,0.850531,-0.930156,4.728514,-3.281201,0.998716,-0.006926,0.041466,-0.028270
443,-0.874559,-0.117769,9.864147,2.072921,0.609872,0.420241,-0.801278,4.814418,-3.256069,0.998698,-0.005790,0.042182,-0.028091
444,-0.878447,-0.116893,9.866966,1.361963,0.503261,-0.081776,-0.712850,4.883919,-3.248006,0.998679,-0.005005,0.042766,-0.028049
445,-0.875323,-0.101174,9.876266,1.587882,0.166183,0.255462,-0.642742,4.932893,-3.243428,0.998665,-0.004384,0.043175,-0.028033
446,-0.878725,-0.102835,9.881148,1.632191,-0.120582,0.430950,-0.573719,4.961225,-3.230688,0.998659,-0.003780,0.043405,-0.027946
447,-0.875817,-0.099790,9.875893,1.562012,-0.599637,0.720878,-0.515364,4.970666,-3.210982,0.998663,-0.003276,0.043472,-0.027796
448,-0.868297,-0.088938,9.892874,1.499447,-1.312194,1.181708,-0.461973,4.951702,-3.178900,0.998679,-0.002828,0.043293,-0.027537
449,-0.861016,-0.083526,9.898175,1.171366,-2.136172,1.398389,-0.415485,4.899957,-3.135441,0.998710,-0.002452,0.042830,-0.027178
450,-0.862670,-0.089232,9.902255,0.438881,-2.474895,1.048949,-0.395322,4.831601,-3.094825,0.998745,-0.002307,0.042229,-0.026835
451,-0.838453,-0.078545,9.882787,0.042087,-2.935692,0.908560,-0.397922,4.749688,-3.062591,0.998782,-0.002361,0.041515,-0.026556
452,-0.810223,-0.071566,9.871473,-0.134946,-3.396535,0.858202,-0.403449,4.641022,-3.032846,0.998828,-0.002445,0.040568,-0.026299
453,-0.789305,-0.084895,9.872124,-0.380655,-3.559851,0.646096,-0.418862,4.514632,-3.007581,0.998877,-0.002618,0.039469,-0.026079
454,-0.762430,-0.068965,9.880046,-0.337952,-3.717078,0.556063,-0.435071,4.379172,-2.987048,0.998927,-0.002797,0.038292,-0.025900
455,-0.732215,-0.065909,9.885046,-0.379129,-4.014716,0.607945,-0.439490,4.230045,-2.966148,0.998980,-0.002876,0.036992,-0.025722
456,-0.723142,-0.069532,9.891365,-0.516432,-4.010202,0.441621,-0.445589,4.080460,-2.947011,0.999032,-0.002969,0.035689,-0.025560
457,-0.705660,-0.084391,9.899188,-0.592730,-3.898828,0.301236,-0.463644,3.944414,-2.933576,0.999076,-0.003161,0.034507,-0.025443
458,-0.685837,-0.073113,9.893256,-0.531694,-3.732495,0.292081,-0.481861,3.818804,-2.922631,0.999115,-0.003352,0.033415,-0.025348
459,-0.669649,-0.102746,9.888557,-0.431007,-3.598188,0.319546,-0.503268,3.703068,-2.911768,0.999149,-0.003567,0.032411,-0.025252
460,-0.665979,-0.108086,9.897192,-0.260182,-3.209010,0.250875,-0.533766,3.606494,-2.902502,0.999177,-0.003857,0.031575,-0.025167
461,-0.641456,-0.104705,9.914500,0.034257,-2.922055,0.356160,-0.552981,3.524529,-2.892436,0.999201,-0.004046,0.030864,-0.025078
462,-0.620337,-0.102812,9.911142,0.174605,-2.503901,0.485862,-0.557977,3.446891,-2.878090,0.999224,-0.004110,0.030188,-0.024955
463,-0.600305,-0.103016,9.910422,0.221882,-2.332973,0.581994,-0.556837,3.372787,-2.859878,0.999247,-0.004121,0.029541,-0.024800
464,-0.585727,-0.087286,9.906432,0.177635,-2.220043,0.481284,-0.547899,3.299585,-2.841329,0.999270,-0.004064,0.028900,-0.024645
465,-0.559565,-0.079580,9.888090,0.200570,-2.433690,0.649137,-0.528915,3.218038,-2.821060,0.999295,-0.003921,0.028184,-0.024476
466,-0.549967,-0.082292,9.890199,0.157890,-2.416937,0.696444,-0.510075,3.129388,-2.797209,0.999322,-0.003782,0.027406,-0.024277
467,-0.551122,-0.087305,9.892118,0.281509,-2.355892,0.507230,-0.496914,3.052018,-2.776155,0.999345,-0.003688,0.026728,-0.024100
468,-0.541933,-0.094451,9.893746,0.199094,-2.262763,0.249349,-0.492006,2.987020,-2.763062,0.999363,-0.003662,0.026159,-0.023990
469,-0.540504,-0.102683,9.894154,0.166999,-2.004807,0.061658,-0.498324,2.934509,-2.757923,0.999376,-0.003730,0.025703,-0.023946
470,-0.534257,-0.105577,9.896081,0.192868,-1.520990,-0.257263,-0.510423,2.900322,-2.761599,0.999382,-0.003842,0.025407,-0.023977
471,-0.527489,-0.105301,9.900421,0.206530,-1.301155,-0.402229,-0.521954,2.878592,-2.773083,0.999384,-0.003944,0.025220,-0.024075
472,-0.519250,-0.093628,9.899579,0.021854,-1.172887,-0.362556,-0.528672,2.860002,-2.785971,0.999385,-0.004004,0.025060,-0.024187
473,-0.530037,-0.100250,9.880480,0.174423,-0.467798,-0.440378,-0.532103,2.860394,-2.799421,0.999382,-0.004031,0.025065,-0.024303
474,-0.528449,-0.089138,9.867227,0.493327,0.545555,-0.325934,-0.524794,2.896205,-2.812377,0.999372,-0.003957,0.025376,-0.024416
475,-0.528622,-0.078884,9.903351,0.629162,1.322373,-0.034479,-0.499497,2.957635,-2.818312,0.999358,-0.003722,0.025906,-0.024471
476,-0.529934,-0.073479,9.914520,0.731448,1.659689,0.058605,-0.464882,3.029087,-2.817704,0.999343,-0.003404,0.026522,-0.024471
477,-0.541135,-0.079154,9.949517,0.601772,1.881010,0.020459,-0.435620,3.103591,-2.816478,0.999327,-0.003133,0.027166,-0.024464
478,-0.535897,-0.070193,9.968752,0.533119,1.488866,0.353112,-0.412948,3.164585,-2.810472,0.999314,-0.002924,0.027693,-0.024415
479,-0.537776,-0.075622,9.979938,0.298130,0.590060,0.473660,-0.397429,3.190433,-2.796870,0.999311,-0.002786,0.027914,-0.024299
480,-0.543253,-0.081063,9.948641,0.034114,-0.250773,0.313436,-0.398716,3.184080,-2.784191,0.999315,-0.002802,0.027859,-0.024188
481,-0.548649,-0.080530,9.922633,-0.243649,-0.571245,0.292070,-0.412952,3.163424,-2.774615,0.999322,-0.002933,0.027682,-0.024102
482,-0.545179,-0.077342,9.902806,-0.190275,-0.809300,0.530112,-0.427820,3.137869,-2.761187,0.999330,-0.003071,0.027461,-0.023982
483,-0.548650,-0.077352,9.910937,-0.336782,-0.977145,0.398882,-0.440236,3.109729,-2.745703,0.999340,-0.003189,0.027218,-0.023845
484,-0.542213,-0.065423,9.901506,-0.478679,-0.882520,0.186779,-0.449760,3.083412,-2.735497,0.999348,-0.003280,0.026990,-0.023755
485,-0.538439,-0.074915,9.898464,-0.471023,-0.761954,0.267654,-0.458688,3.060627,-2.727345,0.999355,-0.003365,0.026793,-0.023683
486,-0.532086,-0.083175,9.898237,-0.417618,-0.754308,0.372944,-0.473470,3.039308,-2.716477,0.999362,-0.003501,0.026610,-0.023585
487,-0.522909,-0.077312,9.896100,-0.350476,-0.650545,0.302751,-0.485407,3.016119,-2.704991,0.999369,-0.003612,0.026410,-0.023483
488,-0.514678,-0.081414,9.886017,-0.182611,-0.462873,0.061655,-0.490678,2.993387,-2.698577,0.999375,-0.003664,0.026213,-0.023427
489,-0.523686,-0.082903,9.914415,-0.115462,-0.392683,-0.049737,-0.493533,2.978636,-2.698145,0.999379,-0.003692,0.026084,-0.023424
490,-0.518812,-0.078689,9.904492,0.021888,-0.429288,-0.023795,-0.490990,2.969082,-2.699039,0.999381,-0.003672,0.026001,-0.023432
491,-0.517527,-0.085930,9.914173,0.084461,-0.397231,0.029612,-0.486478,2.958536,-2.698682,0.999383,-0.003635,0.025908,-0.023431
492,-0.520382,-0.097380,9.915594,0.168360,-0.385002,-0.072625,-0.489112,2.950868,-2.699640,0.999385,-0.003659,0.025841,-0.023439
493,-0.518546,-0.080371,9.929927,0.102728,-0.351404,-0.003959,-0.488889,2.945572,-2.701032,0.999385,-0.003658,0.025795,-0.023451
494,-0.511441,-0.077940,9.925230,0.119535,-0.392590,0.115065,-0.479722,2.936728,-2.698797,0.999388,-0.003580,0.025716,-0.023434
495,-0.512377,-0.082708,9.928357,0.053933,-0.413946,0.066236,-0.473220,2.925110,-2.695482,0.999392,-0.003527,0.025613,-0.023407
496,-0.509274,-0.077095,9.906590,0.049366,-0.459711,0.032666,-0.468927,2.913487,-2.693585,0.999395,-0.003492,0.025511,-0.023392
497,-0.506167,-0.059983,9.898653,0.046364,-0.447493,0.067765,-0.454818,2.900996,-2.691155,0.999398,-0.003372,0.025399,-0.023374
498,-0.513241,-0.061850,9.900578,0.247859,-0.403215,0.124228,-0.431528,2.893526,-2.686916,0.999402,-0.003172,0.025329,-0.023343
499,-0.504778,-0.083512,9.908735,0.223458,-0.447437,0.304288,-0.419513,2.886830,-2.679464,0.999405,-0.003070,0.025268,-0.023281
500,-0.498046,-0.082122,9.905962,0.134918,-0.491684,0.426360,-0.421824,2.872434,-2.667605,0.999410,-0.003096,0.025143,-0.023177
501,-0.495617,-0.068336,9.906939,0.153221,-0.484060,0.443145,-0.418695,2.854845,-2.653098,0.999417,-0.003075,0.024988,-0.023052
502,-0.496179,-0.085472,9.904437,0.202034,-0.528310,0.540804,-0.416045,2.838461,-2.636759,0.999424,-0.003059,0.024845,-0.022911
503,-0.493439,-0.090267,9.893413,0.038699,-0.625960,0.553008,-0.426328,2.821833,-2.619120,0.999431,-0.003156,0.024701,-0.022755
504,-0.503276,-0.063576,9.892690,0.050891,-0.581672,0.617096,-0.427917,2.810781,-2.599647,0.999437,-0.003176,0.024604,-0.022586
505,-0.504312,-0.052056,9.912165,0.186760,-0.561771,0.862773,-0.407312,2.807920,-2.574055,0.999443,-0.003002,0.024575,-0.022367
506,-0.497767,-0.059017,9.914107,0.188350,-0.488471,1.074880,-0.383367,2.804646,-2.540806,0.999451,-0.002801,0.024541,-0.022082
507,-0.491464,-0.052400,9.928064,0.081584,-0.413669,1.187802,-0.364751,2.797825,-2.502348,0.999460,-0.002648,0.024477,-0.021751
508,-0.481130,-0.056088,9.921513,0.022114,-0.477755,1.256470,-0.350881,2.783866,-2.460973,0.999471,-0.002539,0.024351,-0.021394
509,-0.474934,-0.064912,9.907426,0.012964,-0.561701,1.106930,-0.347023,2.761700,-2.421365,0.999483,-0.002518,0.024157,-0.021050
510,-0.473693,-0.067047,9.898054,0.037357,-0.586136,0.900928,-0.350038,2.737669,-2.388010,0.999494,-0.002555,0.023947,-0.020759
512,-0.477446,-0.077792,9.902952,-0.052720,-0.547988,0.458407,-0.360968,2.718962,-2.365775,0.999502,-0.002659,0.023785,-0.020563
513,-0.477287,-0.066597,9.888949,0.015905,-0.503714,0.063191,-0.371574,2.707047,-2.357456,0.999506,-0.002755,0.023683,-0.020489
514,-0.486664,-0.055838,9.905625,0.096787,-0.355649,0.052511,-0.367625,2.705219,-2.355340,0.999507,-0.002721,0.023666,-0.020471
515,-0.478787,-0.069020,9.929899,0.179193,-0.170958,0.203578,-0.361322,2.709868,-2.350940,0.999507,-0.002666,0.023705,-0.020434
516,-0.468477,-0.072062,9.932865,0.044884,-0.045818,0.104391,-0.364423,2.710086,-2.346113,0.999507,-0.002695,0.023708,-0.020391
517,-0.460156,-0.061236,9.926966,-0.011590,-0.105351,0.128805,-0.367297,2.702111,-2.342376,0.999510,-0.002722,0.023639,-0.020358
518,-0.468030,-0.068108,9.931178,-0.200810,0.019755,0.128805,-0.371854,2.695703,-2.338126,0.999512,-0.002764,0.023583,-0.020321
519,-0.464295,-0.077119,9.930423,-0.365643,0.129614,-0.022263,-0.389439,2.696299,-2.336751,0.999511,-0.002917,0.023592,-0.020305
520,-0.457154,-0.103315,9.909164,-0.471025,-0.091670,-0.007008,-0.426825,2.690773,-2.338344,0.999511,-0.003244,0.023550,-0.020311
521,-0.468420,-0.108212,9.888365,-0.516939,-0.206125,-0.008541,-0.477308,2.682991,-2.340158,0.999511,-0.003685,0.023491,-0.020317
522,-0.478918,-0.109648,9.911796,-0.546050,-0.058076,0.063172,-0.524700,2.687287,-2.340606,0.999508,-0.004098,0.023537,-0.020311
523,-0.471332,-0.108652,9.933983,-0.421009,-0.172483,0.327154,-0.562046,2.692848,-2.335073,0.999507,-0.004424,0.023592,-0.020255
524,-0.466416,-0.121044,9.929281,-0.390570,-0.338800,0.462957,-0.594811,2.686574,-2.322740,0.999509,-0.004713,0.023543,-0.020141
525,-0.474641,-0.092673,9.914485,-0.338714,-0.317420,0.380556,-0.612728,2.679997,-2.308855,0.999512,-0.004873,0.023488,-0.020016
526,-0.466849,-0.084895,9.923766,-0.195217,-0.341812,0.408026,-0.605852,2.674773,-2.294873,0.999516,-0.004817,0.023441,-0.019896
527,-0.464078,-0.094213,9.915041,-0.037985,-0.227362,0.322577,-0.593831,2.666933,-2.281868,0.999520,-0.004716,0.023370,-0.019786
528,-0.460081,-0.098261,9.907652,-0.013542,-0.193793,0.212712,-0.587017,2.659721,-2.272527,0.999523,-0.004660,0.023305,-0.019706
529,-0.456735,-0.093684,9.903847,0.175696,-0.399802,0.180668,-0.578118,2.647583,-2.265589,0.999527,-0.004586,0.023197,-0.019648
530,-0.464211,-0.083054,9.913326,0.042989,-0.325027,-0.100099,-0.562476,2.636679,-2.263573,0.999530,-0.004452,0.023100,-0.019634
531,-0.462926,-0.084342,9.925524,0.001847,-0.184620,-0.116881,-0.547415,2.633727,-2.266442,0.999531,-0.004320,0.023071,-0.019662
532,-0.452165,-0.094009,9.911642,0.169725,-0.506586,0.145579,-0.537894,2.623188,-2.265548,0.999534,-0.004239,0.022978,-0.019657
533,-0.453015,-0.086853,9.905224,0.102597,-0.679025,0.240186,-0.529761,2.601277,-2.258777,0.999540,-0.004174,0.022785,-0.019600
534,-0.449899,-0.074483,9.918386,0.148420,-0.546272,0.420248,-0.513820,2.580217,-2.247062,0.999546,-0.004040,0.022598,-0.019502
535,-0.431394,-0.084441,9.925252,0.429232,-0.721785,0.789524,-0.492790,2.551283,-2.226221,0.999556,-0.003866,0.022341,-0.019326
536,-0.430542,-0.089921,9.921304,0.325469,-0.961408,0.845982,-0.479006,2.510286,-2.198701,0.999569,-0.003758,0.021981,-0.019090
537,-0.429420,-0.084487,9.929867,0.182020,-0.894302,0.769685,-0.472280,2.471192,-2.171622,0.999581,-0.003711,0.021638,-0.018856
538,-0.427926,-0.078245,9.919637,0.168291,-0.773765,0.633878,-0.464439,2.440646,-2.147939,0.999591,-0.003652,0.021369,-0.018653
539,-0.424535,-0.086520,9.908390,0.110300,-0.735613,0.598782,-0.460208,2.416619,-2.127228,0.999599,-0.003623,0.021158,-0.018474
540,-0.429895,-0.087793,9.924323,0.006511,-0.424298,0.461446,-0.464384,2.403789,-2.109678,0.999604,-0.003665,0.021046,-0.018320
541,-0.422212,-0.081758,9.917459,0.185026,-0.212163,0.395832,-0.465136,2.401424,-2.095482,0.999607,-0.003674,0.021025,-0.018196
542,-0.422039,-0.067332,9.916224,0.151477,-0.187725,0.404988,-0.453286,2.400656,-2.081833,0.999609,-0.003574,0.021016,-0.018079
543,-0.413519,-0.080640,9.920506,0.278150,-0.248755,0.443137,-0.440226,2.395303,-2.067406,0.999613,-0.003463,0.020967,-0.017956
544,-0.415553,-0.074439,9.913948,0.230847,-0.193825,0.272234,-0.431444,2.387267,-2.055425,0.999617,-0.003390,0.020895,-0.017854
545,-0.413547,-0.057395,9.899123,0.218675,-0.264013,0.258502,-0.414475,2.380513,-2.046136,0.999620,-0.003245,0.020834,-0.017776
546,-0.414458,-0.068415,9.923835,0.214137,-0.286897,0.241718,-0.397019,2.372710,-2.037315,0.999623,-0.003095,0.020763,-0.017702
547,-0.416087,-0.074770,9.918158,0.235496,-0.242632,0.031141,-0.390620,2.367285,-2.032755,0.999625,-0.003041,0.020714,-0.017664
548,-0.421319,-0.067782,9.899609,0.211068,-0.222762,-0.118400,-0.386283,2.367780,-2.034284,0.999625,-0.003003,0.020718,-0.017678
549,-0.424516,-0.078380,9.907408,0.327015,-0.112844,-0.243527,-0.383285,2.375090,-2.040519,0.999622,-0.002975,0.020781,-0.017733
550,-0.425963,-0.085858,9.907039,0.410881,-0.170771,-0.196225,-0.386309,2.384686,-2.048444,0.999619,-0.002998,0.020866,-0.017801
551,-0.427299,-0.080443,9.902783,-0.268220,-0.124936,0.316484,-0.399875,2.394169,-2.047072,0.999618,-0.003115,0.020950,-0.017786
552,-0.425860,-0.060476,9.908306,-0.585623,-0.134040,0.717802,-0.415795,2.402711,-2.029892,0.999618,-0.003256,0.021027,-0.017633
553,-0.430059,-0.064657,9.921254,-0.568806,-0.211813,0.643033,-0.426367,2.409292,-2.006830,0.999620,-0.003351,0.021085,-0.017430
554,-0.428775,-0.088370,9.921935,-0.797708,-0.520002,0.507226,-0.451792,2.409275,-1.987698,0.999622,-0.003577,0.021088,-0.017258
555,-0.431077,-0.092215,9.927566,-0.837437,-0.669496,0.560631,-0.491984,2.401438,-1.970305,0.999625,-0.003931,0.021025,-0.017099
556,-0.421386,-0.093062,9.929792,-0.251523,-0.716764,0.307326,-0.519968,2.387246,-1.956068,0.999629,-0.004180,0.020905,-0.016971
557,-0.410715,-0.112800,9.923886,-0.022693,-0.651146,-0.002439,-0.539005,2.365408,-1.951387,0.999633,-0.004351,0.020717,-0.016927
558,-0.408055,-0.120505,9.929977,-0.248626,-0.387171,-0.081792,-0.567539,2.345598,-1.953617,0.999635,-0.004602,0.020549,-0.016943
559,-0.406661,-0.100749,9.921883,-0.138816,-0.222375,0.128784,-0.588169,2.334521,-1.953315,0.999636,-0.004784,0.020455,-0.016937
560,-0.400709,-0.100733,9.907771,-0.122034,-0.143032,0.064695,-0.593098,2.327020,-1.950055,0.999638,-0.004828,0.020391,-0.016908
561,-0.404043,-0.087111,9.900931,-0.083854,-0.197968,-0.174875,-0.588712,2.320578,-1.951513,0.999639,-0.004791,0.020334,-0.016922
562,-0.403170,-0.096761,9.916755,0.055044,-0.214748,-0.153510,-0.579521,2.315075,-1.956519,0.999639,-0.004711,0.020285,-0.016967
563,-0.395443,-0.093231,9.917851,0.013868,-0.034697,-0.132146,-0.572679,2.308829,-1.961004,0.999640,-0.004651,0.020229,-0.017008
564,-0.401937,-0.091436,9.926044,0.065777,-0.045385,-0.211493,-0.564428,2.305604,-1.966434,0.999640,-0.004579,0.020200,-0.017057
565,-0.405493,-0.086958,9.927174,0.064288,-0.110986,-0.185551,-0.553572,2.306538,-1.972671,0.999639,-0.004483,0.020207,-0.017113
566,-0.400908,-0.103588,9.916209,0.132960,0.095028,-0.298468,-0.549141,2.309684,-1.980681,0.999638,-0.004442,0.020234,-0.017184
567,-0.402539,-0.099597,9.908820,0.143618,0.267466,-0.469373,-0.551024,2.317689,-1.993787,0.999634,-0.004455,0.020305,-0.017297
568,-0.402157,-0.088042,9.895665,0.230601,-0.002615,-0.232855,-0.544052,2.324153,-2.005493,0.999632,-0.004391,0.020360,-0.017400
569,-0.394635,-0.083261,9.910010,0.148236,-0.042300,-0.136720,-0.529324,2.320481,-2.011299,0.999632,-0.004262,0.020326,-0.017454
570,-0.390453,-0.086353,9.922626,0.091807,0.078211,-0.409860,-0.517909,2.311749,-2.020108,0.999633,-0.004162,0.020249,-0.017533
571,-0.399112,-0.084769,9.923068,0.049101,-0.126289,-0.408333,-0.511179,2.304513,-2.033549,0.999632,-0.004102,0.020185,-0.017652
572,-0.399409,-0.084113,9.900888,0.068955,-0.515401,-0.185547,-0.505196,2.293472,-2.043183,0.999633,-0.004050,0.020088,-0.017737
573,-0.405718,-0.097836,9.902975,0.294780,-0.605411,-0.260318,-0.502457,2.279559,-2.050576,0.999634,-0.004027,0.019967,-0.017803
574,-0.400750,-0.088115,9.897981,0.401572,-0.570284,-0.272525,-0.496900,2.267500,-2.059520,0.999635,-0.003979,0.019861,-0.017882
575,-0.388386,-0.086907,9.886995,0.470235,-0.643522,0.060125,-0.483695,2.248978,-2.062936,0.999638,-0.003866,0.019697,-0.017915
576,-0.383266,-0.084539,9.895638,0.424452,-0.591656,0.180673,-0.469661,2.224337,-2.058790,0.999643,-0.003748,0.019480,-0.017882
577,-0.385256,-0.071073,9.929914,0.288662,-0.378038,0.014349,-0.453161,2.205400,-2.055234,0.999648,-0.003608,0.019312,-0.017855
578,-0.375792,-0.072625,9.931897,0.200191,-0.487918,0.166942,-0.437079,2.187560,-2.051797,0.999652,-0.003471,0.019154,-0.017828
579,-0.379115,-0.076231,9.907504,0.194097,-0.449782,0.101327,-0.427796,2.169062,-2.047108,0.999656,-0.003394,0.018991,-0.017789
580,-0.383328,-0.078730,9.911288,0.218502,-0.210194,-0.228273,-0.423586,2.162171,-2.049241,0.999657,-0.003358,0.018930,-0.017809
581,-0.378831,-0.081043,9.917763,0.334448,-0.259001,-0.271000,-0.420675,2.160203,-2.057736,0.999656,-0.003331,0.018913,-0.017884
582,-0.381959,-0.082196,9.911201,0.442755,-0.243718,-0.347297,-0.416364,2.157744,-2.068298,0.999655,-0.003292,0.018891,-0.017977
583,-0.381217,-0.064912,9.917802,0.480900,-0.075836,-0.473949,-0.402577,2.159833,-2.081997,0.999652,-0.003170,0.018908,-0.018098
584,-0.369474,-0.061507,9.940300,0.404633,-0.051417,-0.385444,-0.380906,2.158633,-2.096034,0.999651,-0.002978,0.018894,-0.018224
585,-0.369970,-0.059370,9.930767,0.345151,-0.139939,-0.223695,-0.361588,2.150686,-2.105902,0.999651,-0.002809,0.018822,-0.018314
586,-0.376268,-0.049114,9.916530,0.249057,-0.085007,-0.174864,-0.342250,2.146657,-2.112163,0.999651,-0.002640,0.018784,-0.018372
587,-0.376398,-0.053331,9.912922,0.140753,-0.123139,0.006722,-0.326539,2.147344,-2.114597,0.999651,-0.002503,0.018787,-0.018396
588,-0.378426,-0.063199,9.922187,0.033937,-0.057502,0.078441,-0.323940,2.149724,-2.113172,0.999651,-0.002480,0.018808,-0.018384
589,-0.378164,-0.067655,9.916538,0.029324,0.089011,0.063181,-0.331576,2.156172,-2.111143,0.999650,-0.002546,0.018865,-0.018364
590,-0.378756,-0.070444,9.918824,-0.060753,0.075298,-0.048214,-0.343948,2.164304,-2.111356,0.999649,-0.002653,0.018938,-0.018364
591,-0.384448,-0.063473,9.915933,-0.111140,0.031076,-0.055844,-0.355057,2.173277,-2.113411,0.999646,-0.002748,0.019018,-0.018380
592,-0.384565,-0.069892,9.913656,-0.060810,0.026533,0.069281,-0.363888,2.182911,-2.113421,0.999645,-0.002823,0.019104,-0.018378
593,-0.379040,-0.062280,9.905184,-0.036409,0.058596,0.012821,-0.369226,2.189059,-2.112205,0.999644,-0.002869,0.019158,-0.018366
594,-0.376656,-0.045930,9.906754,-0.074521,-0.078739,0.137948,-0.362043,2.188471,-2.109346,0.999644,-0.002807,0.019152,-0.018343
595,-0.379651,-0.048067,9.925865,0.065926,-0.254224,0.350055,-0.346193,2.182154,-2.100574,0.999647,-0.002671,0.019094,-0.018269
596,-0.371700,-0.056141,9.931211,0.098006,-0.371732,0.394308,-0.334080,2.168726,-2.087758,0.999652,-0.002570,0.018974,-0.018160
597,-0.363932,-0.050840,9.919047,0.052248,-0.435857,0.348531,-0.325880,2.146484,-2.075094,0.999658,-0.002504,0.018779,-0.018051
598,-0.363522,-0.061838,9.909440,0.113289,-0.557968,0.443138,-0.321897,2.120569,-2.061769,0.999664,-0.002475,0.018552,-0.017936
599,-0.368302,-0.076847,9.906376,0.111712,-0.528988,0.359211,-0.330501,2.099442,-2.048760,0.999669,-0.002556,0.018369,-0.017822
600,-0.361852,-0.069778,9.900932,-0.016531,-0.330617,0.285963,-0.344839,2.085357,-2.038517,0.999673,-0.002685,0.018248,-0.017731
601,-0.362103,-0.069605,9.892975,0.033780,-0.054422,0.154733,-0.355247,2.079349,-2.031529,0.999674,-0.002777,0.018197,-0.017668
602,-0.368953,-0.063946,9.905610,0.071904,0.012739,0.083013,-0.359416,2.084055,-2.027780,0.999674,-0.002814,0.018238,-0.017635
603,-0.367543,-0.056450,9.908630,0.058177,-0.051318,0.154732,-0.355572,2.091264,-2.023756,0.999674,-0.002780,0.018301,-0.017600
604,-0.361971,-0.054812,9.911380,0.108556,-0.031467,0.140999,-0.346636,2.093288,-2.018597,0.999674,-0.002702,0.018317,-0.017556
605,-0.367749,-0.055834,9.914169,0.194029,-0.037561,0.012822,-0.336276,2.094757,-2.015833,0.999675,-0.002612,0.018328,-0.017534
606,-0.370279,-0.050500,9.935320,0.107075,-0.220648,0.057075,-0.325462,2.096342,-2.014431,0.999675,-0.002518,0.018340,-0.017523
607,-0.361929,-0.065869,9.928036,0.139115,-0.226742,0.032660,-0.322105,2.091478,-2.012922,0.999676,-0.002489,0.018297,-0.017511
608,-0.358877,-0.070346,9.911592,0.203157,-0.066529,-0.286260,-0.328154,2.084361,-2.017547,0.999676,-0.002543,0.018236,-0.017550
609,-0.371297,-0.068293,9.906180,0.190900,0.128805,-0.599077,-0.334738,2.088999,-2.032777,0.999673,-0.002597,0.018278,-0.017682
610,-0.373956,-0.057873,9.905746,0.264122,0.250924,-0.547195,-0.333426,2.106471,-2.052135,0.999668,-0.002580,0.018430,-0.017851
611,-0.372910,-0.072979,9.906283,0.415160,0.225024,-0.470900,-0.330122,2.124490,-2.069430,0.999662,-0.002545,0.018588,-0.018002
612,-0.378464,-0.051738,9.913363,0.399881,0.266261,-0.539567,-0.321964,2.141840,-2.086504,0.999657,-0.002468,0.018738,-0.018151
613,-0.386018,-0.043846,9.931163,0.277841,0.310562,-0.438855,-0.302942,2.163522,-2.102561,0.999651,-0.002296,0.018924,-0.018294
615,-0.382023,-0.033329,9.926270,0.164981,0.133596,-0.202333,-0.281005,2.181248,-2.112726,0.999647,-0.002100,0.019076,-0.018386
616,-0.380627,-0.027213,9.931704,-0.069933,-0.070860,-0.104671,-0.260068,2.186768,-2.117107,0.999646,-0.001916,0.019121,-0.018427
617,-0.379772,-0.013047,9.907826,-0.173594,0.008495,-0.052785,-0.238507,2.187537,-2.118747,0.999646,-0.001728,0.019124,-0.018445
618,-0.383037,-0.028584,9.908405,-0.202500,0.162625,-0.034471,-0.223345,2.193269,-2.119394,0.999645,-0.001594,0.019171,-0.018453
619,-0.384033,-0.031127,9.913575,-0.243661,0.164168,-0.037521,-0.221106,2.202996,-2.120244,0.999643,-0.001573,0.019256,-0.018461
620,-0.375791,-0.043960,9.920021,-0.078858,-0.037257,0.133382,-0.225533,2.204415,-2.118620,0.999643,-0.001612,0.019269,-0.018446
621,-0.372237,-0.057340,9.893847,0.175925,-0.224974,0.060136,-0.235401,2.193108,-2.115820,0.999645,-0.001700,0.019172,-0.018420
622,-0.354509,-0.062950,9.891892,-0.077458,-0.397466,-0.502933,-0.253684,2.166831,-2.123911,0.999648,-0.001863,0.018946,-0.018488
623,-0.361942,-0.058061,9.912593,-0.185868,-0.612694,-0.745558,-0.276446,2.131869,-2.145319,0.999650,-0.002063,0.018645,-0.018672
624,-0.368091,-0.055618,9.912717,-0.192014,-0.646291,-0.817279,-0.294282,2.104004,-2.171674,0.999650,-0.002219,0.018405,-0.018900
625,-0.372872,-0.059471,9.924088,-0.292756,-0.452485,-0.980554,-0.311296,2.089065,-2.201850,0.999647,-0.002365,0.018278,-0.019161
626,-0.365063,-0.062105,9.942551,-0.453011,-0.182376,-1.055326,-0.332932,2.083408,-2.236037,0.999641,-0.002550,0.018233,-0.019456
627,-0.382142,-0.068180,9.952739,-0.225683,0.103015,-0.820334,-0.354229,2.092653,-2.267635,0.999634,-0.002729,0.018318,-0.019728
628,-0.380263,-0.063099,9.924805,-0.166195,0.203799,-0.565504,-0.367411,2.115692,-2.290995,0.999626,-0.002836,0.018522,-0.019929
629,-0.374844,-0.063297,9.931772,-0.199768,0.057359,-0.249638,-0.374664,2.132221,-2.304643,0.999621,-0.002894,0.018668,-0.020046
630,-0.371356,-0.057110,9.924711,-0.121930,-0.116577,-0.145874,-0.376335,2.135882,-2.311087,0.999619,-0.002907,0.018700,-0.020102
631,-0.367848,-0.068619,9.916968,-0.179906,-0.298163,-0.113829,-0.379454,2.128854,-2.315296,0.999619,-0.002935,0.018640,-0.020138
632,-0.351528,-0.054735,9.910364,-0.381314,-0.479784,0.075385,-0.385252,2.106796,-2.315718,0.999622,-0.002989,0.018448,-0.020142
633,-0.347097,-0.071350,9.935909,-0.424029,-0.255541,-0.136718,-0.395639,2.077574,-2.316540,0.999627,-0.003085,0.018195,-0.020148
634,-0.358250,-0.083638,9.940073,-0.376763,0.315115,-0.695209,-0.418874,2.068497,-2.330758,0.999625,-0.003287,0.018121,-0.020269
635,-0.367969,-0.102081,9.942229,-0.349381,0.779009,-0.843227,-0.453233,2.089658,-2.357323,0.999616,-0.003579,0.018312,-0.020494
636,-0.391499,-0.112626,9.929656,-0.170970,1.168192,-0.832549,-0.493446,2.140131,-2.386653,0.999601,-0.003916,0.018761,-0.020742
637,-0.409876,-0.117697,9.920298,0.190548,1.661198,-0.773041,-0.526063,2.219857,-2.415045,0.999582,-0.004181,0.019463,-0.020981
638,-0.411353,-0.096324,9.901543,0.452934,1.847489,-0.356465,-0.534238,2.310211,-2.435115,0.999562,-0.004232,0.020253,-0.021150
639,-0.400056,-0.095488,9.907168,0.579570,1.624758,0.154720,-0.521299,2.381469,-2.439169,0.999549,-0.004105,0.020873,-0.021185
640,-0.409590,-0.086103,9.893718,0.414772,1.682740,0.263061,-0.504065,2.435915,-2.432673,0.999541,-0.003946,0.021344,-0.021129
641,-0.410666,-0.055435,9.905316,0.375166,1.702552,0.342412,-0.473311,2.486355,-2.422328,0.999535,-0.003670,0.021778,-0.021042
642,-0.417237,-0.079439,9.902361,0.421010,1.307292,0.606399,-0.442942,2.525346,-2.406205,0.999531,-0.003401,0.022112,-0.020906
643,-0.439946,-0.080017,9.915205,0.259260,1.050918,0.435495,-0.431327,2.559905,-2.389151,0.999528,-0.003297,0.022411,-0.020758
644,-0.453660,-0.070256,9.917344,0.317247,0.960912,0.435495,-0.420574,2.599736,-2.374846,0.999523,-0.003198,0.022756,-0.020634
645,-0.450709,-0.058444,9.934361,0.463773,0.757983,0.432445,-0.397826,2.633239,-2.360158,0.999520,-0.002997,0.023044,-0.020509
646,-0.452369,-0.058948,9.916498,0.363107,0.825116,0.310373,-0.371752,2.657746,-2.347406,0.999518,-0.002768,0.023253,-0.020403
647,-0.466940,-0.044397,9.923671,-0.016790,1.226439,-0.090943,-0.351431,2.693195,-2.343297,0.999512,-0.002585,0.023558,-0.020370
648,-0.468174,-0.046139,9.893767,-0.198309,1.618620,-0.216065,-0.338633,2.744929,-2.347929,0.999500,-0.002463,0.024007,-0.020411
649,-0.482522,-0.055273,9.874730,-0.532452,2.279368,-0.470893,-0.342873,2.815536,-2.359379,0.999483,-0.002485,0.024624,-0.020508
650,-0.504303,-0.064776,9.890264,-0.923094,3.156827,-0.898152,-0.369506,2.918987,-2.382855,0.999456,-0.002693,0.025532,-0.020704
651,-0.518430,-0.075802,9.900034,-1.228312,3.747421,-1.227754,-0.415714,3.048974,-2.419563,0.999419,-0.003064,0.026675,-0.021009
652,-0.531108,-0.086460,9.891635,-1.617475,4.165559,-1.152986,-0.478217,3.189117,-2.461014,0.999376,-0.003573,0.027910,-0.021350
653,-0.532800,-0.120872,9.918676,-1.869354,4.560744,-0.782192,-0.563668,3.326735,-2.496040,0.999333,-0.004283,0.029127,-0.021628
654,-0.567999,-0.148839,9.943649,-1.381229,5.337383,-0.394617,-0.661947,3.477118,-2.519880,0.999285,-0.005105,0.030458,-0.021803
655,-0.608093,-0.165931,9.905124,-0.697810,6.109494,0.302719,-0.746159,3.666004,-2.526672,0.999229,-0.005801,0.032121,-0.021828
656,-0.652082,-0.163417,9.885160,-0.148642,7.296711,1.047362,-0.800555,3.901642,-2.509715,0.999162,-0.006235,0.034186,-0.021649
657,-0.696953,-0.174886,9.865334,0.890376,9.394941,1.335754,-0.820339,4.200896,-2.476125,0.999075,-0.006360,0.036797,-0.021329
658,-0.767844,-0.158702,9.809543,1.158849,12.884825,0.876445,-0.806119,4.595697,-2.445957,0.998950,-0.006172,0.040234,-0.021044
659,-0.867526,-0.111437,9.800876,-0.508979,17.107183,0.055500,-0.792534,5.126412,-2.437144,0.998756,-0.005957,0.044857,-0.020935
660,-0.992306,-0.108837,9.831744,-0.869046,20.194313,0.121121,-0.802975,5.793852,-2.441820,0.998478,-0.005920,0.050676,-0.020925
661,-1.103744,-0.114152,9.842388,-0.713353,22.294191,0.154700,-0.817572,6.553655,-2.446123,0.998121,-0.005901,0.057298,-0.020902
662,-1.223341,-0.102396,9.836454,-1.161915,23.812677,0.102827,-0.834669,7.369530,-2.451332,0.997688,-0.005892,0.064406,-0.020877
663,-1.363152,-0.117630,9.854439,-1.239676,24.584970,0.258481,-0.859997,8.219484,-2.455464,0.997183,-0.005948,0.071809,-0.020833
664,-1.507737,-0.154813,9.824789,0.559407,24.485952,0.971093,-0.865591,9.079569,-2.446668,0.996620,-0.005838,0.079292,-0.020684
665,-1.632396,-0.111357,9.754704,1.529923,25.249069,0.482803,-0.821751,9.947206,-2.433246,0.995998,-0.005302,0.086827,-0.020530
666,-1.807172,-0.081274,9.690247,2.144960,27.597641,0.400421,-0.736904,10.871225,-2.426466,0.995273,-0.004395,0.094839,-0.020469
667,-1.999889,-0.066805,9.655747,2.407529,30.237734,1.000133,-0.630194,11.895552,-2.409110,0.994394,-0.003290,0.103712,-0.020339
668,-2.213983,-0.024925,9.622002,3.353734,32.653587,2.220904,-0.490334,13.022974,-2.357664,0.993340,-0.001917,0.113465,-0.019955
669,-2.381090,0.013571,9.574896,3.271500,34.115757,2.526129,-0.318781,14.219735,-2.274529,0.992118,-0.000303,0.123802,-0.019351
670,-2.582057,0.011169,9.547276,2.624658,36.012791,2.973264,-0.157540,15.466101,-2.175186,0.990730,0.001192,0.134559,-0.018623
671,-2.780172,-0.030003,9.526303,1.286478,37.833508,3.093828,-0.048598,16.768429,-2.068478,0.989152,0.002212,0.145794,-0.017795
672,-2.993698,-0.023815,9.479516,0.637943,39.616047,2.286608,0.006554,18.124161,-1.976532,0.987371,0.002773,0.157480,-0.017041
673,-3.208972,-0.043115,9.403595,-0.299031,40.194618,1.094842,0.016360,19.515617,-1.921416,0.985394,0.002982,0.169458,-0.016548
674,-3.407128,-0.037404,9.278640,-0.242649,39.428837,0.959009,-0.001532,20.899359,-1.891873,0.983281,0.002981,0.181347,-0.016233
675,-3.608972,-0.069108,9.189375,-0.489947,38.695061,0.295195,-0.033928,22.250797,-1.879708,0.981076,0.002875,0.192936,-0.016037
676,-3.830757,-0.079845,9.107532,-0.918861,37.375320,-1.079715,-0.101116,23.564394,-1.909477,0.978798,0.002539,0.204178,-0.016131
677,-4.031975,-0.053988,9.026699,-0.821302,34.660877,-1.545164,-0.180780,24.809118,-1.972280,0.976515,0.002156,0.214807,-0.016470
678,-4.184737,-0.074673,8.948059,-0.146918,32.291241,-1.084367,-0.242214,25.956287,-2.034622,0.974308,0.001928,0.224580,-0.016826
679,-4.344218,-0.105017,8.888119,-0.653624,31.383375,-1.346874,-0.309022,27.031584,-2.098792,0.972151,0.001659,0.233721,-0.017177
680,-4.455860,-0.090942,8.774354,-0.858194,31.009518,-1.206537,-0.390005,28.070272,-2.167472,0.969984,0.001286,0.242535,-0.017524
681,-4.567894,-0.074721,8.652143,-0.510335,31.204779,-0.481749,-0.448722,29.092299,-2.215676,0.967776,0.001066,0.251184,-0.017731
682,-4.684783,-0.137740,8.545692,-0.855267,32.433048,0.136209,-0.504177,30.127647,-2.244144,0.965465,0.000842,0.259926,-0.017766
683,-4.837167,-0.131727,8.438920,-1.812132,33.450726,-0.140046,-0.591481,31.197561,-2.274500,0.962993,0.000366,0.268941,-0.017729
684,-5.055179,-0.165017,8.367200,-2.245609,34.729393,-0.161478,-0.709355,32.318157,-2.315619,0.960313,-0.000321,0.278363,-0.017685
685,-5.285198,-0.188353,8.303914,-2.489894,35.350460,-0.494214,-0.853221,33.489456,-2.372700,0.957410,-0.001164,0.288186,-0.017681
686,-5.478127,-0.210893,8.236359,-2.609057,35.057533,-1.153505,-1.020484,34.673958,-2.456639,0.954368,-0.002111,0.298093,-0.017809
687,-5.665782,-0.210908,8.163304,-1.748558,33.501125,-1.057454,-1.179923,35.824352,-2.553999,0.951313,-0.002941,0.307684,-0.018039
688,-5.821747,-0.244211,8.086443,-0.827012,31.113054,-0.854584,-1.306073,36.900017,-2.647097,0.948369,-0.003499,0.316622,-0.018304
689,-5.962471,-0.236142,7.992409,-0.592121,28.521990,-1.436038,-1.416517,37.881302,-2.748211,0.945607,-0.003905,0.324751,-0.018669
690,-6.061868,-0.233807,7.880582,0.120416,25.515831,-0.564790,-1.497081,38.759335,-2.836993,0.943078,-0.004107,0.332001,-0.019017
691,-6.135559,-0.195868,7.797456,1.583754,22.300556,1.455513,-1.483053,39.519047,-2.850353,0.940859,-0.003768,0.338243,-0.019031
692,-6.176381,-0.210894,7.689141,2.470315,20.307480,2.720497,-1.373526,40.175411,-2.783527,0.938923,-0.002912,0.343606,-0.018694
693,-6.211281,-0.228373,7.596967,2.197131,19.794489,2.566336,-1.252307,40.775867,-2.699899,0.937129,-0.002034,0.348498,-0.018276
694,-6.248240,-0.226402,7.512422,0.416296,19.604948,1.226497,-1.201085,41.352291,-2.657680,0.935374,-0.001616,0.353198,-0.017996
695,-6.362816,-0.189986,7.456996,-1.024248,19.822838,0.014844,-1.236551,41.929508,-2.669342,0.933583,-0.001740,0.357910,-0.017889
696,-6.490785,-0.202040,7.379750,-1.776585,21.028072,-0.929759,-1.335961,42.547523,-2.727209,0.931631,-0.002227,0.362956,-0.017945
697,-6.621437,-0.192625,7.301200,-2.156587,22.709482,-2.178011,-1.487745,43.234974,-2.836765,0.929419,-0.002947,0.368563,-0.018229
698,-6.723970,-0.117000,7.159742,-2.081784,24.731266,-3.119478,-1.647329,44.006752,-2.977664,0.926893,-0.003590,0.374842,-0.018703
699,-6.816262,-0.085073,6.998809,-0.154409,28.375208,-1.872670,-1.728486,44.897488,-3.086889,0.923936,-0.003651,0.382050,-0.019133
700,-6.924292,-0.113362,6.824115,1.049692,32.936321,-0.802850,-1.717163,45.949028,-3.143005,0.920389,-0.003088,0.390509,-0.019400
701,-7.050685,-0.120026,6.663377,1.741055,37.567703,0.022802,-1.659368,47.172436,-3.168309,0.916173,-0.002205,0.400301,-0.019541
702,-7.217955,-0.146480,6.513993,2.116515,40.955486,1.298569,-1.566761,48.540276,-3.157927,0.911341,-0.001134,0.411188,-0.019499
703,-7.431451,-0.154643,6.394216,2.441579,42.532021,2.963405,-1.427091,49.995243,-3.087358,0.906068,0.000100,0.422699,-0.019153
704,-7.606346,-0.159937,6.262840,3.416656,41.584629,4.854044,-1.203187,51.452496,-2.927487,0.900651,0.001632,0.434148,-0.018455
705,-7.720269,-0.169137,6.138605,4.139917,39.018120,5.771095,-0.898493,52.822731,-2.692387,0.895431,0.003429,0.444841,-0.017554
706,-7.841039,-0.171932,5.983262,3.573729,35.824337,5.369685,-0.589455,54.066929,-2.445834,0.890576,0.005119,0.454499,-0.016673
707,-7.896775,-0.102725,5.810855,2.780178,33.433113,4.351798,-0.319086,55.197632,-2.222656,0.886068,0.006518,0.463237,-0.015898
708,-7.952315,-0.112035,5.660807,2.078183,32.317486,3.860350,-0.096917,56.249660,-2.030788,0.881791,0.007608,0.471333,-0.015230
709,-8.021178,-0.103907,5.477339,0.384309,31.905281,2.438045,0.024629,57.269157,-1.905721,0.877571,0.008158,0.479152,-0.014699
710,-8.137475,-0.136863,5.289973,-1.611727,32.422424,1.519245,0.001264,58.304806,-1.872159,0.873210,0.007968,0.487069,-0.014273
712,-8.306766,-0.085922,5.095666,-3.503993,34.499184,1.055178,-0.121973,59.414783,-1.882112,0.868459,0.007215,0.495519,-0.013738
713,-8.469386,-0.104648,4.906222,-4.302142,35.805492,1.601308,-0.270674,60.614338,-1.877296,0.863234,0.006228,0.504600,-0.012951
714,-8.614604,-0.132882,4.673614,-4.343442,36.045300,2.467860,-0.408282,61.870411,-1.841434,0.857662,0.005205,0.514048,-0.011952
715,-8.746293,-0.153047,4.476781,-3.676721,35.572582,3.346598,-0.496359,63.144531,-1.759425,0.851907,0.004349,0.523564,-0.010813
716,-8.847071,-0.075350,4.276545,-3.092366,33.763176,3.138938,-0.497867,64.387199,-1.615123,0.846193,0.003833,0.532776,-0.009613
717,-8.877999,-0.095136,4.091661,-2.128021,30.003622,2.650558,-0.453404,65.530563,-1.458355,0.840847,0.003560,0.541193,-0.008560
718,-8.940643,-0.039087,3.903736,-1.874747,26.698757,2.760368,-0.372970,66.548912,-1.289600,0.836015,0.003453,0.548643,-0.007623
719,-8.973927,0.000188,3.750364,-1.212488,25.040352,3.588963,-0.173944,67.480469,-1.019156,0.831538,0.003678,0.555417,-0.006553
720,-9.010314,0.035930,3.599595,-0.290802,25.373255,4.318421,0.173585,68.383659,-0.624381,0.827143,0.004315,0.561949,-0.005358
721,-9.035333,0.036064,3.451886,0.946750,27.569304,4.883079,0.648056,69.325142,-0.134556,0.822498,0.005319,0.568727,-0.004182
722,-9.091725,0.066507,3.296911,1.514414,31.037973,5.021987,1.223094,70.359161,0.429086,0.817321,0.006567,0.576137,-0.003089
723,-9.174122,0.080500,3.140779,1.821140,35.506130,4.059164,1.836501,71.525078,1.015316,0.811393,0.007826,0.584444,-0.002177
724,-9.275226,0.111940,2.950526,2.304868,39.684376,3.103956,2.449099,72.837387,1.583773,0.804615,0.008992,0.593727,-0.001567
725,-9.400373,0.137119,2.745873,2.237738,42.577808,2.745388,3.114797,74.271675,2.195875,0.797080,0.010099,0.603788,-0.001135
726,-9.506248,0.141409,2.547161,2.220959,43.769814,3.494625,3.931852,75.766655,2.962979,0.789079,0.011200,0.614189,-0.000665
727,-9.582735,0.124227,2.326017,2.611588,43.316830,4.472699,5.005362,77.256470,3.986073,0.780944,0.012402,0.624478,-0.000100
728,-9.592238,0.104167,2.092599,2.553578,41.760540,4.115513,6.286128,78.695503,5.214006,0.772931,0.013561,0.634345,0.000394
729,-9.623913,0.131016,1.854210,1.428940,39.516026,2.987697,7.660165,80.060196,6.552127,0.765203,0.014390,0.643628,0.000767
730,-9.637009,0.146604,1.635827,0.640010,37.515633,2.078094,9.134502,81.346214,8.017591,0.757810,0.014828,0.652305,0.001083
731,-9.655047,0.166156,1.415417,-0.100084,36.221718,0.982339,10.773849,82.571381,9.669302,0.750670,0.014930,0.660508,0.001327
732,-9.699676,0.175946,1.203223,-0.481581,35.313862,0.454246,12.762386,83.757629,11.685546,0.743654,0.014787,0.668399,0.001517
733,-9.740830,0.182164,1.003392,-0.380881,34.235107,0.728801,15.570435,84.901260,14.524496,0.736751,0.014613,0.676004,0.001718
734,-9.744671,0.190115,0.833516,-0.263392,33.032715,0.606634,19.859079,85.979462,18.839403,0.730047,0.014506,0.683240,0.001930
735,-9.761872,0.172640,0.642007,-0.165741,31.595303,0.693511,26.730080,86.973663,25.732132,0.723584,0.014409,0.690083,0.002098
736,-9.744416,0.198989,0.448133,-0.184057,30.493599,0.589657,39.230015,87.850510,38.251469,0.717301,0.014337,0.696612,0.002262
737,-9.707134,0.250774,0.259380,-0.419050,29.950405,0.334815,64.656166,88.482895,63.699982,0.711099,0.014329,0.702942,0.002529
738,-9.711023,0.285046,0.092213,-0.545698,30.652369,0.565302,104.754776,88.547874,103.826645,0.704815,0.014411,0.709239,0.002956
739,-9.714458,0.236518,-0.083790,-0.203890,31.763281,0.937677,134.538162,87.976768,133.634796,0.698289,0.014540,0.715660,0.003394
740,-9.693079,0.197997,-0.244304,-0.248140,31.996771,0.505793,149.674683,87.118462,148.791672,0.691584,0.014542,0.722140,0.003649
741,-9.775915,0.187747,-0.404484,-0.271026,29.672771,0.069274,157.707703,86.205688,156.845825,0.685107,0.014358,0.728292,0.003727
742,-9.798720,0.154205,-0.513754,-0.444975,24.746979,0.241555,162.214478,85.388535,161.375168,0.679491,0.014063,0.733540,0.003713
743,-9.788586,0.146441,-0.621523,-0.876805,17.419275,0.302411,164.746933,84.775650,163.937180,0.675324,0.013689,0.737385,0.003706
744,-9.769769,0.193261,-0.702509,-1.432238,10.234938,0.441137,165.964066,84.402977,165.197479,0.672811,0.013322,0.739684,0.003872
745,-9.741686,0.232961,-0.744750,-1.507017,4.609869,1.036210,166.058655,84.282349,165.343964,0.672038,0.013115,0.740388,0.004306
746,-9.678316,0.228577,-0.762870,-1.362070,1.363526,1.533655,165.419846,84.345528,164.754105,0.672531,0.013079,0.739938,0.004873
747,-9.678383,0.270507,-0.791769,-0.771558,0.593846,1.190370,164.496216,84.447128,163.866699,0.673311,0.013217,0.739221,0.005457
748,-9.694842,0.252471,-0.779493,-0.206983,1.717936,1.178220,163.679535,84.519485,163.067322,0.673896,0.013446,0.738680,0.005899
749,-9.725198,0.259075,-0.767166,0.140914,2.414782,0.924912,163.167694,84.564079,162.557449,0.674259,0.013642,0.738344,0.006119
750,-9.769100,0.265189,-0.788341,0.262978,2.099995,0.354201,162.879654,84.593681,162.264099,0.674492,0.013782,0.738127,0.006194
751,-9.762502,0.292070,-0.807203,0.114950,1.373311,-0.083708,162.670410,84.616791,162.050690,0.674672,0.013882,0.737961,0.006242
752,-9.705427,0.272397,-0.814075,-0.348942,0.639078,0.381738,162.412567,84.643021,161.798340,0.674878,0.013940,0.737770,0.006368
753,-9.679933,0.304916,-0.844055,-0.828093,-0.340722,0.535916,161.970764,84.666153,161.376755,0.675099,0.014006,0.737564,0.006684
754,-9.675164,0.313110,-0.850374,-1.028001,-0.899269,0.812235,161.269135,84.682716,160.706390,0.675327,0.014154,0.737348,0.007216
755,-9.679774,0.337266,-0.828101,-1.078373,-1.074816,1.579935,160.244507,84.703056,159.716644,0.675644,0.014440,0.737044,0.007932
756,-9.693766,0.323809,-0.799884,-0.748789,-1.418288,2.100408,158.962616,84.741631,158.463867,0.676132,0.014850,0.736580,0.008701
757,-9.715307,0.322748,-0.775811,-0.213199,-2.179929,1.882244,157.711914,84.816315,157.226639,0.676842,0.015244,0.735912,0.009261
758,-9.722321,0.315653,-0.755798,0.459728,-2.927864,1.570921,156.589737,84.929237,156.097122,0.677756,0.015588,0.735060,0.009515
759,-9.723169,0.305471,-0.727833,1.097566,-3.245500,1.601331,155.592651,85.068268,155.070038,0.678798,0.015919,0.734091,0.009476
760,-9.691150,0.297116,-0.711808,1.463793,-3.570743,0.743592,154.832108,85.222992,154.262573,0.679875,0.016176,0.733092,0.009153
761,-9.709560,0.323616,-0.716422,1.822392,-4.108002,-0.405566,154.361389,85.380768,153.733841,0.680899,0.016340,0.732145,0.008601
762,-9.717192,0.315072,-0.719191,2.411406,-4.260608,-0.887849,154.153305,85.528450,153.452759,0.681803,0.016498,0.731308,0.007858
763,-9.721066,0.302883,-0.670068,3.265931,-3.784524,-1.469330,154.247345,85.678673,153.450348,0.682657,0.016664,0.730517,0.006835
764,-9.728465,0.267878,-0.645779,4.054843,-3.374110,-2.497960,154.876129,85.845131,153.956329,0.683499,0.016741,0.729739,0.005397
765,-9.742374,0.219474,-0.622421,4.884962,-3.220058,-3.204723,156.338837,86.026497,155.269577,0.684291,0.016641,0.729011,0.003453
766,-9.728197,0.195052,-0.591619,5.527393,-2.568578,-3.662807,158.444824,86.209709,157.202164,0.685024,0.016490,0.728333,0.001163
767,-9.757810,0.179987,-0.567660,5.577762,-1.607363,-4.239868,160.951080,86.371346,159.524841,0.685628,0.016366,0.727767,-0.001226
768,-9.778910,0.163289,-0.567762,4.990290,-1.644087,-4.711566,163.747269,86.506546,162.147736,0.686103,0.016186,0.727315,-0.003545
769,-9.769533,0.179925,-0.577874,3.972500,-2.367402,-4.443055,166.239838,86.620148,164.494492,0.686541,0.016033,0.726894,-0.005497
770,-9.761804,0.218362,-0.577944,3.137810,-2.721371,-3.380827,167.481216,86.710976,165.621735,0.686986,0.016189,0.726459,-0.006749
771,-9.751343,0.180518,-0.559229,2.052862,-2.829652,-1.624213,167.525711,86.790085,165.583359,0.687466,0.016585,0.725990,-0.007375
772,-9.711107,0.168936,-0.527503,1.289887,-3.249267,-0.278131,166.794388,86.880333,164.798050,0.688077,0.017037,0.725398,-0.007590
773,-9.695726,0.184931,-0.512078,0.874823,-3.331680,0.578140,165.203445,86.975021,163.171783,0.688791,0.017618,0.724708,-0.007446
774,-9.686812,0.182596,-0.487207,0.766470,-2.892234,1.049879,163.105453,87.056427,161.046555,0.689479,0.018289,0.724039,-0.007111
775,-9.700203,0.159439,-0.466429,0.684063,-2.349041,1.085105,161.268921,87.127579,159.185272,0.690089,0.018849,0.723446,-0.006857
776,-9.712481,0.148886,-0.460722,0.671854,-2.074397,0.854704,160.082428,87.190483,157.974945,0.690589,0.019204,0.722960,-0.006796
777,-9.740711,0.169878,-0.460560,0.655070,-1.801236,0.525103,159.241913,87.238693,157.111176,0.690962,0.019477,0.722597,-0.006809
778,-9.759250,0.158815,-0.443880,0.577248,-1.724911,0.624286,158.510773,87.279976,156.358505,0.691284,0.019717,0.722281,-0.006836
779,-9.784103,0.152930,-0.435159,0.401769,-2.289491,0.712740,157.827286,87.335602,155.657303,0.691684,0.019878,0.721894,-0.006894
780,-9.768014,0.190271,-0.414831,0.246125,-2.815941,0.578461,156.660904,87.407082,154.478958,0.692230,0.020077,0.721365,-0.006843
781,-9.764086,0.207525,-0.387566,0.078268,-2.880078,0.564828,154.780228,87.486198,152.592285,0.692905,0.020372,0.720711,-0.006622
782,-9.753373,0.203953,-0.361455,-0.045338,-2.843543,0.609185,152.625015,87.570938,150.436020,0.693644,0.020649,0.719994,-0.006360
783,-9.760679,0.203869,-0.353273,-0.184202,-2.582689,0.526853,150.605484,87.650894,148.419586,0.694338,0.020839,0.719321,-0.006131
784,-9.758148,0.190735,-0.341026,-0.242188,-2.099013,0.069091,149.201828,87.720757,147.022202,0.694898,0.020875,0.718780,-0.006017
785,-9.775899,0.199013,-0.340162,-0.335269,-1.940321,-0.368861,148.465546,87.783447,146.294937,0.695327,0.020764,0.718368,-0.006017
786,-9.764925,0.197457,-0.326222,-0.300171,-1.983027,-0.266625,147.859802,87.840424,145.699280,0.695708,0.020630,0.718004,-0.006028
787,-9.756854,0.174532,-0.314454,-0.277282,-1.978436,-0.094238,147.322144,87.902023,145.170471,0.696101,0.020467,0.717627,-0.006082
788,-9.737330,0.172021,-0.310841,-0.208612,-1.726632,-0.602453,147.236099,87.965775,145.091568,0.696446,0.020219,0.717298,-0.006241
789,-9.728641,0.189727,-0.315785,-0.098744,-1.270310,-0.668102,147.450577,88.009048,145.310715,0.696647,0.020002,0.717106,-0.006400
790,-9.718596,0.169470,-0.310736,0.162193,-0.450788,-0.245439,147.882889,88.022957,145.741684,0.696669,0.019888,0.717088,-0.006532
791,-9.730083,0.185135,-0.319416,0.305633,-0.095127,-0.411777,148.545502,88.012589,146.396271,0.696536,0.019854,0.717216,-0.006665
792,-9.707610,0.185014,-0.331781,0.471960,-0.123965,-0.117242,149.107605,87.982971,146.945206,0.696313,0.019931,0.717430,-0.006749
793,-9.700464,0.213260,-0.322800,0.618450,-0.273359,0.641235,148.789886,87.941193,146.609161,0.696126,0.020243,0.717604,-0.006664
794,-9.703126,0.233855,-0.316148,0.801557,-0.598289,1.558495,147.046539,87.890297,144.841904,0.696071,0.020890,0.717641,-0.006311
795,-9.716582,0.223789,-0.320948,0.923627,-1.225369,2.120197,144.641769,87.842781,142.407654,0.696144,0.021696,0.717551,-0.005870
796,-9.742421,0.207957,-0.317403,1.053330,-1.145945,2.353712,142.516586,87.807953,140.247833,0.696270,0.022438,0.717407,-0.005554
797,-9.794445,0.225002,-0.300553,0.986192,-0.802569,2.024097,140.783203,87.782295,138.478973,0.696405,0.023079,0.717257,-0.005352
798,-9.816275,0.216213,-0.299362,0.812238,-0.823917,1.720385,139.458572,87.768661,137.122772,0.696547,0.023571,0.717105,-0.005249
799,-9.822551,0.236922,-0.283015,0.606240,-0.685064,0.815441,138.554001,87.772789,136.193390,0.696710,0.023871,0.716937,-0.005254
800,-9.815471,0.235782,-0.265290,0.354462,-0.469965,0.182126,137.947388,87.795311,135.570129,0.696914,0.023984,0.716733,-0.005346
801,-9.768435,0.249194,-0.273506,0.105736,-0.506639,-0.483215,137.724350,87.827049,135.339340,0.697095,0.023938,0.716558,-0.005488
802,-9.740095,0.286812,-0.280671,0.066061,-0.492903,-0.817323,137.526733,87.841599,135.139328,0.697194,0.023925,0.716462,-0.005533
803,-9.715643,0.273233,-0.275375,0.114887,-0.505085,-0.463184,137.143082,87.842690,134.752975,0.697260,0.024001,0.716396,-0.005488
804,-9.713105,0.242871,-0.280440,-0.057542,-0.592029,0.107553,136.893082,87.847137,134.501923,0.697320,0.024030,0.716336,-0.005472
805,-9.725986,0.253864,-0.287689,-0.188770,-0.436319,0.386793,136.731018,87.842690,134.343491,0.697328,0.024053,0.716328,-0.005405
806,-9.759004,0.261183,-0.265650,-0.162829,-0.410342,0.727100,136.155533,87.829124,133.773438,0.697361,0.024174,0.716293,-0.005218
807,-9.761439,0.265258,-0.258594,-0.156727,-0.463770,0.624898,135.197647,87.821205,132.820526,0.697486,0.024334,0.716168,-0.004995
808,-9.770872,0.265349,-0.269852,-0.320003,-0.300500,0.208345,134.563797,87.816986,132.194321,0.697575,0.024409,0.716080,-0.004826
809,-9.760309,0.270167,-0.258585,-0.263543,-0.138745,-0.234158,134.381516,87.818062,132.021729,0.697612,0.024372,0.716045,-0.004744
810,-9.752865,0.298391,-0.253696,-0.271176,-0.332554,-0.606408,134.061249,87.823364,131.710693,0.697690,0.024342,0.715971,-0.004659
811,-9.733837,0.295416,-0.248403,-0.297120,-0.595044,-0.560510,133.414032,87.831291,131.073532,0.697836,0.024346,0.715830,-0.004531
812,-9.729788,0.241930,-0.252423,-0.454291,-1.034529,-0.113406,132.953400,87.859909,130.625229,0.698037,0.024209,0.715638,-0.004516
813,-9.717950,0.262398,-0.236831,-0.408512,-1.171885,0.034552,132.382416,87.899780,130.068253,0.698304,0.024023,0.715383,-0.004531
815,-9.728423,0.261412,-0.232681,-0.385624,-1.115462,0.335148,131.341431,87.928970,129.039764,0.698602,0.023961,0.715096,-0.004437
816,-9.723582,0.253275,-0.227754,-0.382573,-0.906434,0.492294,130.357162,87.949478,128.067810,0.698853,0.023929,0.714853,-0.004319
817,-9.720338,0.250616,-0.234196,-0.335268,-0.540203,0.534970,129.789734,87.960106,127.511604,0.698992,0.023886,0.714718,-0.004223
818,-9.728250,0.291096,-0.232265,-0.208616,-0.038137,0.313731,129.435608,87.945480,127.166168,0.698996,0.023951,0.714713,-0.004051
819,-9.732849,0.281089,-0.236061,-0.121638,0.325082,0.339742,129.289261,87.912590,127.025330,0.698893,0.024096,0.714810,-0.003838
820,-9.743063,0.275995,-0.237681,-0.034660,0.413639,0.187174,129.566605,87.884743,127.305290,0.698735,0.024175,0.714963,-0.003727
821,-9.740545,0.257432,-0.236146,0.020276,0.293129,0.557937,129.955933,87.868431,127.694603,0.698601,0.024198,0.715093,-0.003704
822,-9.749246,0.283944,-0.232268,0.034010,0.180223,0.713553,129.936096,87.850601,127.673523,0.698533,0.024294,0.715156,-0.003622
823,-9.756833,0.269022,-0.231769,0.043166,0.021519,0.959216,129.542297,87.830566,127.278168,0.698525,0.024458,0.715159,-0.003478
824,-9.757461,0.268965,-0.238287,0.003493,-0.370645,1.244509,129.036179,87.816269,126.770615,0.698563,0.024608,0.715118,-0.003345
825,-9.759841,0.308558,-0.245171,-0.182669,-0.593403,1.578694,128.052826,87.784065,125.789268,0.698623,0.024895,0.715050,-0.003032
826,-9.771320,0.324798,-0.237946,-0.289486,-0.520128,1.720696,126.619926,87.728584,124.363594,0.698695,0.025330,0.714967,-0.002510
827,-9.762351,0.316715,-0.236800,-0.350524,-0.547574,1.841308,125.252090,87.675270,123.005547,0.698777,0.025734,0.714874,-0.001985
828,-9.750825,0.329639,-0.234090,-0.391723,-0.405640,1.900843,124.085747,87.625046,121.850441,0.698845,0.026085,0.714796,-0.001493
829,-9.759119,0.349027,-0.234888,-0.451235,-0.208770,1.746765,123.069702,87.567879,120.847710,0.698871,0.026440,0.714758,-0.000975
830,-9.736787,0.339609,-0.227954,-0.249812,-0.059209,1.685741,122.307755,87.516586,120.096642,0.698871,0.026747,0.714747,-0.000534
831,-9.730931,0.342677,-0.221227,-0.057544,-0.140087,1.421714,121.714798,87.483627,119.507919,0.698899,0.026976,0.714711,-0.000251
832,-9.734787,0.365443,-0.217133,0.073685,-0.347636,1.044786,121.030647,87.461166,118.822960,0.698987,0.027195,0.714617,-0.000042
833,-9.753619,0.387342,-0.212706,0.105727,-0.549093,0.782363,120.124313,87.439598,117.913338,0.699134,0.027456,0.714463,0.000177
834,-9.746111,0.372075,-0.202773,0.204910,-0.283634,0.808326,119.255051,87.424507,117.038574,0.699300,0.027685,0.714292,0.000339
835,-9.766288,0.369399,-0.197349,0.244582,-0.031921,0.538201,118.700806,87.423592,116.476685,0.699432,0.027811,0.714158,0.000371
836,-9.766294,0.394368,-0.204999,0.171336,-0.068589,0.269628,118.334938,87.419952,116.104065,0.699512,0.027919,0.714075,0.000394
837,-9.773634,0.392623,-0.218383,-0.052977,0.067225,0.310855,118.195412,87.404671,115.962440,0.699502,0.028033,0.714081,0.000483
838,-9.762688,0.389172,-0.209018,-0.074339,0.286976,0.248300,118.277779,87.389854,116.046829,0.699437,0.028091,0.714142,0.000567
839,-9.766315,0.394262,-0.203432,-0.083494,0.174043,0.065192,118.291290,87.382812,116.063057,0.699413,0.028111,0.714165,0.000622
840,-9.754124,0.415895,-0.205551,-0.146060,0.109928,-0.403217,118.183159,87.377663,115.959213,0.699425,0.028127,0.714152,0.000690
841,-9.751668,0.409498,-0.211757,-0.214729,0.393741,-0.751052,118.292892,87.374977,116.075668,0.699389,0.028086,0.714189,0.000731
842,-9.727859,0.360385,-0.210247,-0.110965,0.509710,-0.587810,118.892693,87.394432,116.681351,0.699298,0.027864,0.714287,0.000582
843,-9.730963,0.364596,-0.215374,-0.146059,0.276244,-0.699312,119.670135,87.430290,117.463326,0.699216,0.027538,0.714379,0.000311
844,-9.735090,0.384135,-0.222846,-0.313910,0.036690,-0.604742,120.184326,87.452553,117.985245,0.699161,0.027301,0.714443,0.000171
845,-9.748096,0.369526,-0.229434,-0.402411,0.048932,-0.076772,120.504959,87.457626,118.317848,0.699100,0.027157,0.714508,0.000174
846,-9.735769,0.350987,-0.217961,-0.291017,0.402967,0.193263,120.862297,87.461014,118.686630,0.699026,0.027020,0.714586,0.000177
847,-9.742108,0.377387,-0.219945,-0.234558,0.587597,-0.072277,121.204048,87.457626,119.037399,0.698935,0.026934,0.714678,0.000202
848,-9.735580,0.374537,-0.229460,-0.188780,0.654745,-0.050892,121.589058,87.442963,119.429771,0.698795,0.026913,0.714815,0.000273
849,-9.731166,0.369718,-0.231658,-0.152158,0.654763,0.049828,122.061104,87.427170,119.907936,0.698631,0.026892,0.714976,0.000327
850,-9.723804,0.366366,-0.231878,-0.081964,0.648668,-0.098195,122.536728,87.417068,120.387871,0.698485,0.026850,0.715121,0.000338
851,-9.747550,0.373028,-0.246303,-0.196408,0.309931,-0.078361,122.963219,87.409126,120.819183,0.698356,0.026800,0.715248,0.000348
852,-9.749427,0.388057,-0.255771,-0.260495,-0.053189,-0.026441,123.167305,87.393082,121.030838,0.698253,0.026805,0.715349,0.000448
853,-9.745345,0.369463,-0.263125,-0.233028,0.061326,0.142969,123.368324,87.375343,121.239853,0.698144,0.026819,0.715455,0.000559
854,-9.742589,0.376740,-0.261887,-0.231499,0.264345,0.175016,123.709709,87.357140,121.588669,0.698000,0.026814,0.715595,0.000646
855,-9.746322,0.366622,-0.250483,-0.297113,0.082794,0.539704,123.834564,87.341118,121.722130,0.697914,0.026825,0.715679,0.000763
856,-9.741453,0.361361,-0.250503,-0.252860,-0.167459,0.458787,123.725113,87.337219,121.621422,0.697927,0.026807,0.715667,0.000854
857,-9.750856,0.380050,-0.248427,-0.255911,0.123983,0.194780,123.599655,87.334427,121.504349,0.697948,0.026789,0.715647,0.000938
858,-9.744191,0.393955,-0.241952,-0.226920,0.375737,0.234491,123.436882,87.319557,121.349960,0.697936,0.026839,0.715657,0.001092
859,-9.737725,0.388879,-0.253391,-0.171989,0.447441,0.222332,123.383835,87.297523,121.303932,0.697873,0.026918,0.715715,0.001258
860,-9.729316,0.371575,-0.271394,-0.097216,0.571082,0.315407,123.773140,87.276527,121.697739,0.697704,0.026939,0.715879,0.001334
861,-9.735268,0.395426,-0.272763,-0.049911,0.711534,0.348974,124.308975,87.246719,122.235901,0.697466,0.026992,0.716108,0.001417
862,-9.751420,0.384703,-0.264114,-0.001080,0.706986,0.664856,124.594559,87.211746,122.522545,0.697272,0.027117,0.716292,0.001554
863,-9.763084,0.371437,-0.265259,0.026387,0.479614,0.561049,124.778603,87.194321,122.706131,0.697163,0.027179,0.716395,0.001611
864,-9.769574,0.371900,-0.264534,0.095055,0.162195,-0.014307,124.980827,87.200958,122.906174,0.697137,0.027124,0.716423,0.001531
865,-9.754595,0.412816,-0.262671,0.096580,0.030928,-0.404941,124.957161,87.209991,122.879768,0.697175,0.027100,0.716387,0.001471
866,-9.737046,0.401279,-0.262928,0.134724,0.154489,-0.328578,124.796333,87.209991,122.715797,0.697215,0.027147,0.716346,0.001479
867,-9.750338,0.394489,-0.265684,0.166767,0.191083,-0.497923,124.844933,87.215332,122.759933,0.697222,0.027139,0.716340,0.001416
868,-9.752407,0.391922,-0.260895,0.119461,0.120860,-0.452132,124.955154,87.226883,122.865906,0.697236,0.027088,0.716328,0.001312
869,-9.758839,0.395305,-0.258730,0.067578,0.178801,-0.516201,124.989159,87.239334,122.897308,0.697273,0.027035,0.716295,0.001228
870,-9.768876,0.385563,-0.259733,0.035532,0.221483,-0.803060,125.136040,87.256836,123.043243,0.697299,0.026927,0.716273,0.001108
871,-9.775294,0.372122,-0.267169,0.008064,-0.007430,-1.025867,125.527809,87.287689,123.434776,0.697316,0.026706,0.716265,0.000884
872,-9.736862,0.374318,-0.274551,-0.056024,-0.106607,-1.118971,126.046021,87.321533,123.954178,0.697316,0.026443,0.716276,0.000635
873,-9.733819,0.375451,-0.287512,-0.040763,0.104022,-1.158634,126.708603,87.341774,124.618683,0.697237,0.026217,0.716361,0.000433
874,-9.724830,0.371691,-0.300716,0.050795,0.256713,-0.932763,127.582275,87.344727,125.492424,0.697045,0.026056,0.716554,0.000273
875,-9.719056,0.368265,-0.307231,0.108784,0.301089,-0.682471,128.489380,87.332809,126.396873,0.696792,0.025973,0.716802,0.000158
876,-9.732865,0.364432,-0.301688,0.119468,0.221842,-0.505423,129.193115,87.319267,127.097054,0.696578,0.025939,0.717012,0.000079
877,-9.739214,0.351074,-0.297073,0.108789,-0.103125,-0.389439,129.613739,87.317955,127.513847,0.696478,0.025893,0.717111,-0.000013
878,-9.735739,0.365590,-0.294513,0.076744,-0.461692,-0.502335,129.686646,87.326874,127.583710,0.696497,0.025856,0.717093,-0.000088
879,-9.741931,0.354068,-0.277367,0.038594,-0.412881,-0.368017,129.446930,87.343399,127.342194,0.696617,0.025830,0.716978,-0.000136
880,-9.746470,0.341549,-0.274408,-0.010238,-0.324428,-0.334454,129.213104,87.369614,127.108131,0.696773,0.025746,0.716829,-0.000224
881,-9.741644,0.348213,-0.283373,-0.039230,-0.174912,-0.476377,129.196579,87.391731,127.092537,0.696864,0.025637,0.716745,-0.000322
882,-9.739165,0.373708,-0.289172,-0.025498,0.011269,-0.407649,129.217194,87.390152,127.114555,0.696853,0.025632,0.716756,-0.000309
883,-9.747066,0.348933,-0.282148,-0.001084,0.229496,-0.097818,129.249878,87.377808,127.148048,0.696798,0.025681,0.716808,-0.000251
884,-9.746674,0.334881,-0.278854,-0.045336,0.098262,-0.047475,129.396988,87.379448,127.295906,0.696771,0.025642,0.716835,-0.000278
885,-9.760333,0.348489,-0.275880,-0.031603,-0.094027,-0.358778,129.449448,87.390907,127.349930,0.696805,0.025569,0.716805,-0.000335
886,-9.749771,0.354059,-0.273894,-0.042287,-0.145940,-0.320602,129.307236,87.401955,127.209198,0.696880,0.025531,0.716734,-0.000353
887,-9.740819,0.337371,-0.271403,0.027905,0.024930,-0.331272,129.238464,87.414490,127.141052,0.696944,0.025478,0.716672,-0.000399
888,-9.748025,0.326780,-0.268376,0.017222,-0.107862,-0.392345,129.357590,87.437454,127.259590,0.697010,0.025349,0.716613,-0.000535
889,-9.740998,0.336991,-0.275382,0.024851,-0.400861,-0.485454,129.424301,87.462944,127.325661,0.697097,0.025219,0.716533,-0.000674
890,-9.729312,0.346084,-0.288687,0.046214,-0.506123,-0.285533,129.372955,87.473305,127.273026,0.697149,0.025185,0.716484,-0.000723
891,-9.732567,0.340195,-0.272947,0.148451,-0.318404,0.048686,129.174911,87.472298,127.071457,0.697187,0.025245,0.716445,-0.000705
892,-9.756893,0.328287,-0.261551,0.093517,-0.545786,0.201284,128.760544,87.480125,126.652908,0.697307,0.025302,0.716326,-0.000700
893,-9.741403,0.364516,-0.265693,0.055367,-0.710613,0.057895,128.043167,87.484558,125.932869,0.697478,0.025416,0.716155,-0.000619
894,-9.744617,0.370282,-0.264560,0.098090,-0.431372,-0.038115,127.251091,87.471985,125.138382,0.697603,0.025622,0.716027,-0.000443
895,-9.746712,0.361948,-0.252167,0.096561,-0.231491,-0.057849,126.659889,87.461632,124.544304,0.697694,0.025787,0.715931,-0.000315
896,-9.735624,0.350859,-0.253747,-0.033146,-0.307811,-0.013550,126.246948,87.462097,124.130348,0.697788,0.025856,0.715838,-0.000258
897,-9.731791,0.357175,-0.259958,-0.011784,-0.252876,-0.124916,126.024284,87.463562,123.908333,0.697844,0.025878,0.715782,-0.000227
898,-9.734736,0.349003,-0.255413,0.037047,0.110308,-0.172201,126.044960,87.463249,123.928680,0.697838,0.025879,0.715788,-0.000231
899,-9.734102,0.349634,-0.249981,0.055357,0.236956,-0.097428,126.186394,87.463562,124.068665,0.697808,0.025864,0.715818,-0.000263
900,-9.740730,0.343399,-0.258280,0.012632,0.078259,-0.033348,126.335701,87.463867,124.216911,0.697775,0.025845,0.715850,-0.000295
901,-9.743206,0.348070,-0.265928,0.041626,0.034034,-0.011993,126.532173,87.461250,124.412529,0.697721,0.025834,0.715903,-0.000318
902,-9.745397,0.353073,-0.260075,0.066041,0.174444,0.039901,126.665047,87.452477,124.543533,0.697659,0.025868,0.715962,-0.000306
903,-9.739285,0.345157,-0.260548,0.110293,0.162246,0.097892,126.756531,87.444649,124.632164,0.697610,0.025911,0.716009,-0.000299
904,-9.747823,0.334952,-0.265379,0.099612,0.125637,0.030720,126.982567,87.444115,124.854546,0.697558,0.025899,0.716060,-0.000356
905,-9.738612,0.324964,-0.253982,0.075199,0.085958,-0.047172,127.269043,87.457085,125.137978,0.697543,0.025807,0.716078,-0.000485
906,-9.730217,0.345060,-0.265927,0.008059,-0.158196,-0.503465,127.487984,87.474464,125.355484,0.697560,0.025695,0.716066,-0.000614
907,-9.724963,0.353202,-0.281154,-0.005673,-0.315319,-0.535482,127.705421,87.480125,125.572945,0.697535,0.025631,0.716092,-0.000679
908,-9.740208,0.343502,-0.278516,-0.117064,-0.464788,-0.050204,127.809448,87.478340,125.678749,0.697505,0.025613,0.716122,-0.000676
909,-9.741005,0.348322,-0.269263,-0.266604,-0.739411,0.232119,127.506012,87.476013,125.381210,0.697562,0.025636,0.716065,-0.000580
910,-9.747996,0.370864,-0.272093,-0.291019,-0.951482,0.186418,126.777161,87.467270,124.661125,0.697690,0.025742,0.715937,-0.000365
911,-9.756945,0.371483,-0.258640,-0.304754,-0.768349,0.543593,125.815712,87.449554,123.709244,0.697838,0.025924,0.715786,-0.000065
912,-9.765461,0.356355,-0.251650,-0.336801,-0.493689,0.612318,124.961182,87.434860,122.865044,0.697980,0.026066,0.715642,0.000204
913,-9.755627,0.363302,-0.250403,-0.349009,-0.467754,0.359031,124.370216,87.427925,122.285088,0.698092,0.026123,0.715531,0.000397
914,-9.751466,0.365941,-0.250575,-0.262031,-0.499791,0.279702,123.901672,87.423592,121.826263,0.698185,0.026157,0.715439,0.000551
915,-9.739348,0.357670,-0.251541,-0.175053,-0.313608,0.191195,123.651245,87.422302,121.582649,0.698240,0.026157,0.715386,0.000636
916,-9.739075,0.356619,-0.252859,-0.086547,-0.060272,0.061463,123.721039,87.423515,121.656326,0.698228,0.026116,0.715399,0.000643
918,-9.730378,0.354556,-0.255468,-0.066708,-0.487487,-0.126261,123.874481,87.430901,121.811943,0.698217,0.026042,0.715412,0.000595
919,-9.708672,0.367677,-0.269324,0.069102,-0.640004,-0.420771,124.016495,87.439751,121.953331,0.698215,0.025979,0.715416,0.000524
920,-9.725549,0.378673,-0.265077,0.328511,-0.433909,-0.689287,124.214287,87.442047,122.144028,0.698177,0.025982,0.715453,0.000439
921,-9.744595,0.359466,-0.229709,0.314779,-0.806221,-0.196378,123.978973,87.456932,121.897804,0.698284,0.026008,0.715349,0.000332
922,-9.762063,0.336060,-0.199966,0.085887,-2.033178,-0.075877,122.755714,87.511948,120.667480,0.698753,0.025943,0.714893,0.000179
923,-9.784265,0.352471,-0.172089,-0.164371,-3.115255,-0.581015,120.366684,87.603462,118.279083,0.699593,0.025771,0.714076,0.000013
924,-9.808207,0.382577,-0.127887,-0.574856,-4.453758,-1.111992,116.395836,87.710220,114.319832,0.700799,0.025574,0.712900,-0.000040
925,-9.809119,0.332315,-0.106216,-1.140983,-6.237786,-1.011243,111.149544,87.828400,109.100464,0.702257,0.025223,0.711477,-0.000061
926,-9.789881,0.364554,-0.108714,-1.241698,-7.908765,-1.487332,104.787506,87.948143,102.774529,0.703868,0.024715,0.709900,-0.000122
927,-9.782403,0.387621,-0.075373,-1.278322,-9.735336,-0.805179,96.360291,88.025726,94.384781,0.705756,0.024318,0.708037,-0.000059
928,-9.777017,0.378312,0.011387,-1.455331,-12.187559,1.141991,85.306831,88.003059,83.370857,0.708114,0.024206,0.705683,0.000319
929,-9.784383,0.358092,0.120837,-1.591143,-15.645446,2.680184,72.218689,87.827591,70.326195,0.711187,0.024371,0.702579,0.001020
930,-9.786824,0.410091,0.259370,-1.647611,-20.154787,3.043427,58.819839,87.450172,56.972027,0.715201,0.024726,0.698479,0.001928
931,-9.810887,0.420841,0.417007,-1.813947,-25.123526,3.829379,47.060040,86.831390,45.258175,0.720290,0.025214,0.693208,0.002987
932,-9.767348,0.410858,0.587368,-1.958924,-29.105064,4.500846,37.986824,85.985313,36.234005,0.726342,0.025753,0.686838,0.004135
933,-9.724106,0.454473,0.750608,-1.974198,-31.276878,3.753192,31.453949,84.985069,29.750664,0.732979,0.026249,0.679724,0.005249
934,-9.688204,0.446582,0.907931,-1.868925,-31.469534,2.718650,26.716732,83.929169,25.059622,0.739727,0.026559,0.672355,0.006138
935,-9.639054,0.470181,1.071928,-1.630895,-30.342205,1.545225,23.173153,82.888397,21.555082,0.746232,0.026652,0.665118,0.006722
936,-9.624279,0.457223,1.244906,-1.443220,-29.564274,0.503014,20.373459,81.881485,18.786116,0.752426,0.026544,0.658105,0.007004
937,-9.641775,0.451754,1.395109,-0.968676,-30.339682,-1.207590,17.901144,80.888657,16.330774,0.758483,0.026189,0.651130,0.006870
938,-9.628106,0.457455,1.559829,-0.187417,-32.880535,-1.680670,15.671438,79.851341,14.092896,0.764713,0.025765,0.643824,0.006361
939,-9.589484,0.459056,1.752848,0.461089,-36.472752,-0.716306,13.826219,78.700630,12.213471,0.771425,0.025586,0.635780,0.005780
940,-9.550985,0.486665,1.954119,0.514492,-39.685017,0.173333,12.413998,77.418091,10.754496,0.778680,0.025737,0.626870,0.005381
941,-9.492824,0.516091,2.178878,0.319182,-41.131798,0.867717,11.371670,76.042778,9.667017,0.786259,0.026125,0.617322,0.005244
942,-9.453404,0.539173,2.430185,0.215438,-40.871090,1.755935,10.633565,74.631645,8.889829,0.793856,0.026694,0.607496,0.005368
943,-9.400045,0.536842,2.670356,-0.190438,-39.975609,2.003263,10.083899,73.229446,8.311931,0.801255,0.027300,0.597673,0.005666
944,-9.354565,0.523190,2.894022,-0.506292,-39.037399,1.443332,9.574555,71.861084,7.787220,0.808367,0.027714,0.587996,0.005932
945,-9.333073,0.484816,3.126468,-0.813013,-39.014725,1.420450,9.049248,70.516991,7.258357,0.815261,0.027861,0.578391,0.006078
946,-9.260163,0.486434,3.361923,-0.736745,-40.022057,1.031291,8.523347,69.157028,6.733283,0.822132,0.027842,0.568582,0.006116
947,-9.165543,0.492327,3.583543,-1.072480,-41.749638,0.465123,7.999976,67.748421,6.211395,0.829131,0.027707,0.558335,0.006049
948,-9.051557,0.476942,3.787850,-1.373122,-42.859215,0.111051,7.473646,66.295341,5.693699,0.836223,0.027400,0.547673,0.005903
949,-8.928785,0.512044,3.981474,-1.597457,-42.877720,-0.531396,6.976180,64.832092,5.208404,0.843226,0.026996,0.536851,0.005704
950,-8.789631,0.545338,4.171303,-1.417388,-42.293438,-1.048644,6.542308,63.387848,4.779115,0.849992,0.026640,0.526094,0.005465
951,-8.681374,0.553295,4.367378,-1.473810,-42.003616,-1.340007,6.163339,61.967831,4.396310,0.856504,0.026338,0.515442,0.005180
952,-8.579276,0.522032,4.580543,-1.272353,-42.829216,-1.219380,5.812004,60.545837,4.037737,0.862888,0.026020,0.504701,0.004844
953,-8.495046,0.524878,4.811019,-1.084634,-44.874016,-1.214742,5.486430,59.077442,3.698083,0.869335,0.025728,0.493534,0.004457
954,-8.375936,0.544919,5.058597,-0.916736,-47.848137,-0.074787,5.228480,57.517593,3.420523,0.876005,0.025623,0.481602,0.004202
955,-8.222721,0.519979,5.304489,-0.765623,-50.330944,1.561094,5.056442,55.851913,3.233829,0.882925,0.025757,0.468788,0.004256
956,-8.050019,0.513059,5.527435,-0.892244,-51.107784,2.618621,4.942635,54.124191,3.118934,0.889890,0.026014,0.455409,0.004602
957,-7.875676,0.573403,5.745072,-0.960853,-48.829708,2.504268,4.875875,52.424122,3.056321,0.896536,0.026381,0.442156,0.005122
958,-7.695435,0.580443,5.946311,-0.947033,-44.299328,2.655461,4.845054,50.845097,3.029629,0.902524,0.026824,0.429766,0.005715
959,-7.571104,0.564021,6.123455,-1.168220,-38.821278,1.917006,4.806199,49.451210,3.001661,0.907670,0.027127,0.418759,0.006237
960,-7.470960,0.562904,6.291809,-1.171223,-33.318718,0.844333,4.734421,48.266281,2.941908,0.911952,0.027195,0.409342,0.006525
961,-7.372618,0.547593,6.449077,-0.887370,-29.143650,-0.116976,4.636762,47.260685,2.846285,0.915521,0.027102,0.401303,0.006525
962,-7.286106,0.528283,6.599150,-0.940774,-27.591631,-0.545769,4.516367,46.358044,2.721634,0.918675,0.026871,0.394049,0.006310
963,-7.197062,0.482948,6.731737,-0.931655,-27.985163,-0.770132,4.369058,45.476418,2.572961,0.921709,0.026475,0.386932,0.005962
964,-7.077790,0.499844,6.860028,-0.994267,-29.459076,-1.423289,4.203843,44.558857,2.402112,0.924812,0.025990,0.379497,0.005481
965,-6.943116,0.509027,6.974878,-1.363559,-32.184280,-1.873464,4.030652,43.562176,2.216411,0.928113,0.025478,0.371394,0.004902
966,-6.805251,0.521412,7.072668,-1.584805,-34.259460,-1.653723,3.862040,42.481995,2.036303,0.931605,0.024968,0.362587,0.004347
967,-6.654368,0.537883,7.169841,-1.809062,-35.408386,-1.331709,3.717098,41.350159,1.883429,0.935167,0.024540,0.353333,0.003920
968,-6.499311,0.561611,7.295391,-1.906618,-36.139202,-1.356037,3.596508,40.186821,1.754196,0.938726,0.024210,0.343793,0.003589
969,-6.385729,0.526816,7.436954,-1.872940,-37.227066,-1.056870,3.484221,38.996525,1.634402,0.942265,0.023896,0.333999,0.003292
970,-6.229445,0.514550,7.588157,-1.668383,-38.383598,-0.931683,3.373885,37.770679,1.518092,0.945801,0.023565,0.323876,0.003001
971,-6.053614,0.485718,7.763974,-1.595078,-39.624100,-1.151371,3.260715,36.493382,1.395448,0.949371,0.023207,0.313288,0.002653
972,-5.845608,0.471111,7.904914,-1.387513,-40.361107,-1.499254,3.139943,35.167526,1.258074,0.952952,0.022801,0.302255,0.002185
973,-5.648855,0.488647,8.029548,-1.474437,-39.399796,-1.665540,3.027133,33.836926,1.119200,0.956415,0.022428,0.291142,0.001654
974,-5.446833,0.494899,8.140325,-1.250036,-36.442581,-1.242796,2.939661,32.569504,1.001194,0.959590,0.022171,0.280523,0.001191
975,-5.301620,0.492902,8.258647,-1.211779,-31.992983,-0.884133,2.878508,31.431757,0.912047,0.962337,0.022022,0.270966,0.000856
976,-5.176775,0.497562,8.352362,-1.069748,-27.723375,-0.301157,2.840285,30.455393,0.853057,0.964615,0.021958,0.262746,0.000671
977,-5.078022,0.470729,8.440737,-0.994870,-23.859587,-0.273634,2.812075,29.632751,0.811683,0.966479,0.021910,0.255807,0.000571
978,-4.995513,0.468873,8.516950,-0.759791,-21.797848,-0.226290,2.785689,28.925665,0.773745,0.968043,0.021851,0.249831,0.000466
979,-4.900138,0.433490,8.589859,-0.590358,-22.023438,-0.244582,2.757783,28.257780,0.733476,0.969486,0.021773,0.244178,0.000331
980,-4.773376,0.418765,8.634851,-0.535410,-24.138138,-0.583341,2.717244,27.548054,0.678690,0.970986,0.021618,0.238158,0.000106
981,-4.632327,0.416207,8.683208,-0.491152,-26.361221,-0.951095,2.668597,26.756538,0.606381,0.972615,0.021430,0.231433,-0.000241
982,-4.483954,0.409044,8.752434,-0.349237,-28.804085,-1.143365,2.617745,25.875101,0.520784,0.974374,0.021245,0.223929,-0.000686
983,-4.329345,0.389574,8.842287,-0.375190,-30.586275,-1.651508,2.558704,24.910728,0.418180,0.976232,0.021015,0.215703,-0.001253
984,-4.173092,0.422571,8.924578,-0.559819,-30.355810,-2.292396,2.495363,23.912136,0.297847,0.978083,0.020764,0.207167,-0.001969
985,-4.020988,0.414086,9.011106,-0.546045,-28.904615,-2.547210,2.435455,22.938868,0.168614,0.979815,0.020535,0.198831,-0.002784
986,-3.895689,0.402987,9.079802,-0.639093,-27.706697,-2.884426,2.371852,22.015697,0.031880,0.981392,0.020263,0.190908,-0.003679
987,-3.764240,0.411695,9.134585,-1.002218,-26.279856,-2.705880,2.306115,21.146471,-0.102788,0.982818,0.019946,0.183437,-0.004574
988,-3.642951,0.402741,9.170909,-0.942648,-23.829075,-2.054290,2.248324,20.350973,-0.216726,0.984074,0.019645,0.176593,-0.005327
989,-3.522217,0.375492,9.205337,-0.822057,-22.321281,-1.610237,2.198077,19.629396,-0.309098,0.985171,0.019360,0.170379,-0.005927
990,-3.405890,0.384728,9.226707,-0.898312,-20.566269,-1.059371,2.155792,18.966290,-0.381109,0.986144,0.019102,0.164666,-0.006379
991,-3.296225,0.382718,9.272804,-0.843320,-18.197832,-0.116337,2.128431,18.371534,-0.421879,0.986988,0.018922,0.159540,-0.006599
992,-3.216417,0.376274,9.315479,-0.321395,-15.959091,0.703097,2.121573,17.854387,-0.428624,0.987699,0.018869,0.155083,-0.006567
993,-3.145635,0.365977,9.364507,-0.444949,-14.767118,0.550511,2.121893,17.398661,-0.422746,0.988309,0.018861,0.151155,-0.006447
994,-3.078694,0.374912,9.411612,-1.458123,-14.275534,-0.213972,2.097811,16.973156,-0.432083,0.988868,0.018662,0.147484,-0.006430
995,-3.022545,0.344286,9.456082,-2.269893,-14.752907,-1.099012,2.029879,16.550608,-0.471321,0.989414,0.018120,0.143834,-0.006619
996,-2.937699,0.339900,9.479322,-3.125936,-16.550213,-2.313656,1.918455,16.089470,-0.549211,0.989998,0.017247,0.139846,-0.007088
997,-2.832268,0.325979,9.514526,-4.213910,-18.716839,-3.656474,1.765329,15.552534,-0.671535,0.990657,0.016056,0.135197,-0.007890
998,-2.728932,0.288179,9.552279,-5.108101,-21.741079,-4.584241,1.567438,14.918489,-0.834154,0.991405,0.014507,0.129707,-0.008993
999,-2.594179,0.233631,9.589074,-4.738859,-24.808088,-4.350786,1.350861,14.171731,-1.010696,0.992242,0.012786,0.123240,-0.010206
1000,-2.469645,0.234039,9.623869,-4.606124,-28.174210,-4.758214,1.147960,13.310257,-1.188276,0.993146,0.011151,0.115778,-0.011460
