seq,ax,ay,az,wroll,wpitch,wyaw,roll,pitch,yaw,q0,q1,q2,q3
60,-0.380289,-9.198348,-0.138554,-22.954113,0.502596,8.498020,-90.863029,2.367218,-110.036530,0.414302,-0.396473,0.591890,-0.566418
61,-1.216242,-7.753992,-6.004651,-74.916847,6.212763,40.946564,-92.500710,3.187557,-110.172737,0.412101,-0.397510,0.603132,-0.555330
62,-1.495001,-7.833527,-6.066038,-65.332253,6.767566,42.592674,-94.857780,4.562719,-110.477783,0.409491,-0.397428,0.619885,-0.538618
63,-1.491213,-7.920238,-6.043715,-58.760075,6.259695,34.648106,-96.956406,5.820470,-110.826241,0.407111,-0.396749,0.634693,-0.523465
64,-1.636768,-8.135528,-5.620360,-204.984756,21.018801,44.819599,-101.423241,7.053927,-111.490616,0.395104,-0.402623,0.660434,-0.495596
65,-1.866574,-8.056460,-5.178855,-35.261684,12.649666,3.994493,-105.513359,7.710042,-112.240723,0.381040,-0.408986,0.682094,-0.471472
66,-1.992251,-8.232866,-4.673650,-16.142990,15.624547,-8.405391,-106.426582,7.513490,-112.680161,0.374876,-0.410280,0.686913,-0.468283
67,-1.956672,-8.486922,-4.433456,2.041118,14.416157,-21.396435,-106.704079,6.895240,-113.022209,0.368996,-0.411962,0.687723,-0.470284
68,-1.955039,-8.940786,-4.434537,16.283106,14.412314,-26.833534,-106.424408,5.988203,-113.256065,0.363897,-0.413806,0.685104,-0.476419
69,-1.857968,-9.048836,-5.015153,13.709784,17.144255,-19.731327,-105.952454,5.096623,-113.546928,0.359314,-0.414648,0.681868,-0.483753
70,-1.717622,-9.331059,-5.505888,3.647299,14.335511,-13.188634,-105.693192,4.425521,-113.903366,0.354911,-0.414782,0.680291,-0.489079
71,-1.505529,-9.219924,-5.876218,-12.140036,11.569303,-8.889174,-105.857964,3.953818,-114.219307,0.350261,-0.415561,0.680890,-0.490934
72,-1.186215,-8.717283,-5.952936,-32.856823,14.661166,-4.843878,-106.631424,3.611422,-114.575165,0.343953,-0.417332,0.684585,-0.488747
73,-1.039195,-8.070827,-6.282796,-53.162956,15.077462,-0.132285,-108.092484,3.384098,-115.023560,0.335388,-0.419986,0.691821,-0.482193
74,-0.912891,-7.724104,-5.920167,-56.496181,10.617479,3.496854,-109.944511,3.297138,-115.446487,0.326298,-0.423144,0.700872,-0.472501
75,-0.776097,-7.633500,-5.986944,-50.575726,7.448294,4.857414,-111.747749,3.319632,-115.777184,0.318402,-0.426085,0.709508,-0.462245
76,-0.728249,-7.454711,-6.014450,-44.981842,4.357187,6.319853,-113.354919,3.416028,-116.030373,0.311984,-0.428523,0.717097,-0.452554
77,-0.708272,-7.249949,-5.995525,-39.182800,1.248864,7.767788,-114.768517,3.592138,-116.211380,0.307058,-0.430473,0.723711,-0.443453
78,-0.687422,-7.232543,-5.756473,-28.973438,0.172698,8.846652,-115.913399,3.832079,-116.351227,0.303698,-0.431657,0.729171,-0.435603
79,-0.765369,-7.265174,-5.986163,-22.229343,-1.137621,7.748369,-116.774208,4.087118,-116.459518,0.301629,-0.432208,0.733390,-0.429366
80,-0.791277,-7.323397,-6.020358,-17.130562,-1.459367,4.325049,-117.434074,4.285903,-116.512703,0.300181,-0.432802,0.736479,-0.424467
81,-0.695837,-7.724301,-5.925748,-70.508690,4.020384,0.069125,-118.900085,4.330244,-116.585167,0.294636,-0.435964,0.742218,-0.415015
82,-0.637258,-8.205916,-5.771247,-5.145809,0.846870,-7.959525,-120.161118,4.175866,-116.591782,0.288818,-0.439731,0.746449,-0.407473
83,-0.423250,-8.442614,-5.330594,-1.336491,2.354667,-16.806112,-120.257919,3.791726,-116.431061,0.286578,-0.442493,0.745382,-0.408017
84,-0.121284,-8.746973,-4.768648,3.213899,3.547124,-27.190605,-120.209511,3.108609,-116.146484,0.283441,-0.446824,0.742671,-0.410427
85,0.095973,-8.817575,-4.385079,6.355537,3.481564,-32.396069,-120.031654,2.190777,-115.749252,0.279734,-0.452428,0.738489,-0.414358
86,0.399210,-8.765658,-4.075671,9.333170,3.140332,-33.913769,-119.756775,1.177683,-115.294136,0.276045,-0.458489,0.733413,-0.419157
87,0.483898,-8.769910,-3.981579,10.923232,0.652437,-29.429958,-119.413414,0.228411,-114.828087,0.273116,-0.464178,0.728073,-0.424094
88,0.624039,-8.641832,-3.854976,13.493827,-1.514521,-22.662437,-119.007446,-0.522360,-114.392128,0.271632,-0.468759,0.722992,-0.428677
89,0.707011,-8.568842,-3.998003,11.693089,-3.573987,-12.715511,-118.592293,-0.998288,-114.034088,0.271672,-0.471789,0.718794,-0.432370
90,0.757032,-8.401514,-3.921207,10.161201,-4.886778,-5.171626,-118.232994,-1.193437,-113.768394,0.272928,-0.473322,0.715852,-0.434779
91,0.673377,-8.294741,-3.850673,10.167208,-6.215922,1.735102,-117.897980,-1.156947,-113.578300,0.275264,-0.473571,0.713885,-0.436266
92,0.727416,-8.174660,-4.055067,8.344776,-7.278201,4.935471,-117.592072,-0.953909,-113.431160,0.278362,-0.472989,0.712626,-0.436990
93,0.529085,-8.407166,-4.363115,5.552267,-9.684575,10.378130,-117.362206,-0.597027,-113.298180,0.282047,-0.471913,0.712104,-0.436641
94,0.165915,-8.659208,-4.684833,3.543770,-12.307988,17.976595,-117.211121,-0.008987,-113.189255,0.286745,-0.469992,0.712561,-0.434905
95,-0.210887,-8.870893,-4.955678,2.843738,-14.471084,24.656677,-117.104027,0.826915,-113.116631,0.292645,-0.466987,0.713935,-0.431947
96,-0.621813,-9.011225,-5.079333,1.998100,-16.237339,29.670443,-117.022217,1.866008,-113.072922,0.299563,-0.463049,0.715984,-0.428035
97,-1.234991,-9.070756,-4.958249,2.434525,-17.855417,35.290966,-116.947617,3.088524,-113.057930,0.307438,-0.458187,0.718556,-0.423347
98,-1.916953,-9.024738,-4.782866,4.144172,-19.366531,38.928627,-116.838295,4.472153,-113.064194,0.316313,-0.452395,0.721379,-0.418206
99,-2.257055,-8.721281,-4.625982,4.214341,-18.953087,35.229671,-116.697731,5.863081,-113.050430,0.325370,-0.446529,0.723933,-0.413120
100,-2.539737,-8.576076,-4.523238,2.228677,-17.176853,29.829494,-116.584564,7.102119,-112.998024,0.333481,-0.441520,0.726018,-0.408348
101,-2.925237,-8.312691,-4.516266,-11.664789,-40.498917,79.710060,-116.736252,9.164642,-112.957878,0.345413,-0.433765,0.730697,-0.398271
102,-3.090397,-8.070623,-4.616590,-21.558655,-32.242233,67.842690,-117.296577,11.904803,-112.997009,0.359479,-0.423834,0.738059,-0.382634
103,-2.906055,-7.991917,-4.531849,-5.206149,-2.200057,5.524542,-117.755081,13.253675,-113.057014,0.365568,-0.419228,0.742221,-0.373785
104,-2.899858,-7.928954,-4.447532,-4.849198,3.434522,-0.275291,-117.936699,13.321405,-113.118355,0.365104,-0.419124,0.743155,-0.372497
105,-2.876301,-7.894727,-4.443690,-3.150556,7.306083,-2.853138,-118.101456,13.191314,-113.255638,0.363285,-0.419304,0.743967,-0.372453
106,-2.618211,-7.999237,-4.500702,-2.400726,10.660074,-5.812521,-118.239388,12.922674,-113.456680,0.360532,-0.419559,0.744686,-0.373404
107,-2.227470,-8.132529,-4.542346,-1.793620,13.821242,-8.728075,-118.364426,12.515876,-113.707207,0.356832,-0.420020,0.745303,-0.375203
108,-1.918401,-8.209629,-4.782866,-4.128521,16.326288,-10.614870,-118.525703,11.993111,-114.002197,0.352142,-0.420773,0.745999,-0.377401
110,-1.428339,-8.282184,-4.949980,-8.216463,19.960173,-16.313377,-118.796463,11.309217,-114.324173,0.345963,-0.422326,0.746870,-0.379653
111,-0.833517,-8.339211,-4.961227,-13.226949,23.931526,-22.657820,-119.215927,10.386418,-114.654762,0.337713,-0.425198,0.747836,-0.381966
112,-0.333445,-8.411933,-4.842327,-13.743876,27.305775,-27.900393,-119.722099,9.232710,-114.988388,0.327644,-0.429149,0.748677,-0.384661
113,0.126120,-8.431809,-4.947937,-13.758767,29.638941,-31.511854,-120.229645,7.900964,-115.319572,0.316378,-0.433707,0.749161,-0.388022
114,0.585231,-8.323101,-4.851894,-11.318152,30.651436,-33.523666,-120.687363,6.457522,-115.638855,0.304531,-0.438503,0.749181,-0.392050
115,0.844095,-8.293999,-4.842444,-7.038542,28.569361,-30.824909,-121.023132,5.030951,-115.937904,0.293214,-0.442911,0.748685,-0.396644
116,0.859343,-8.441162,-4.960640,-2.561480,24.011017,-25.701027,-121.203430,3.771836,-116.202461,0.283591,-0.446410,0.747794,-0.401370
117,0.877451,-8.328367,-5.160006,-4.381660,18.795021,-21.562376,-121.330589,2.728423,-116.404045,0.275713,-0.449316,0.746865,-0.405326
118,1.013505,-8.354486,-4.834771,-1.805561,14.907278,-19.167454,-121.438660,1.856413,-116.529961,0.269240,-0.451989,0.745896,-0.408478
119,1.005734,-8.437871,-4.888944,-2.238630,10.927053,-16.245422,-121.507507,1.128277,-116.589180,0.264062,-0.454444,0.744805,-0.411116
120,0.983465,-8.449685,-4.768095,-2.555574,7.714420,-14.101194,-121.587326,0.534706,-116.589279,0.259908,-0.456795,0.743792,-0.412990
121,1.077735,-8.349896,-4.718296,-2.531883,5.553081,-13.092501,-121.671799,0.032838,-116.539848,0.256499,-0.459128,0.742784,-0.414345
122,1.087021,-8.482672,-4.674076,-0.348499,3.382030,-10.700830,-121.720009,-0.382816,-116.458183,0.253906,-0.461264,0.741697,-0.415516
123,0.927112,-8.463991,-4.897902,-1.985346,0.266904,-6.971138,-121.759804,-0.665306,-116.355019,0.252287,-0.463034,0.740785,-0.416160
124,0.761455,-8.337681,-4.906142,-1.654752,-2.602116,-3.514858,-121.822014,-0.793338,-116.229797,0.251659,-0.464438,0.740212,-0.415995
125,0.538133,-8.270720,-4.922642,0.014529,-5.293808,1.890906,-121.851006,-0.746918,-116.103699,0.252300,-0.465150,0.739911,-0.415345
126,0.287022,-8.173324,-5.005390,-0.216213,-7.283531,7.401726,-121.855354,-0.504751,-116.007355,0.254201,-0.464916,0.740088,-0.414130
127,0.041623,-8.110819,-5.049994,0.439104,-8.887430,11.524001,-121.851906,-0.094591,-115.944908,0.257095,-0.463842,0.740752,-0.412359
128,-0.316433,-8.102020,-5.144840,1.901605,-10.589537,14.900949,-121.812706,0.450783,-115.901375,0.260934,-0.462070,0.741657,-0.410304
129,-0.594520,-8.108010,-5.276881,1.963994,-11.519515,16.869303,-121.747795,1.094943,-115.866966,0.265470,-0.459809,0.742710,-0.408023
130,-0.746071,-8.175157,-5.548556,-0.162513,-11.713342,15.325234,-121.716576,1.754936,-115.819832,0.270006,-0.457632,0.743847,-0.405415
131,-0.998987,-8.200372,-5.618398,-1.346458,-12.047117,13.350888,-121.738701,2.369689,-115.734390,0.274163,-0.455983,0.744901,-0.402538
132,-1.343471,-8.051284,-5.591617,-20.265549,-28.654757,42.621380,-122.094727,3.520108,-115.651741,0.280400,-0.453138,0.748214,-0.395243
133,-1.600663,-8.017469,-5.561537,-17.838547,-28.437494,46.585945,-122.728951,5.285085,-115.646027,0.289189,-0.448201,0.753856,-0.383648
134,-1.698146,-8.058142,-5.501755,-10.021477,-21.869167,38.911396,-123.200546,6.936479,-115.717865,0.297628,-0.442759,0.758779,-0.373679
135,-1.876431,-7.913778,-5.354578,-4.086169,-17.966311,35.464336,-123.452263,8.336790,-115.844658,0.305137,-0.437297,0.762549,-0.366310
136,-1.792338,-7.917005,-5.295926,0.840288,-8.208770,22.242935,-123.532082,9.379541,-116.013039,0.310897,-0.432420,0.765194,-0.361709
137,-1.625681,-8.032625,-5.309865,2.771373,2.643528,4.020881,-123.499344,9.795741,-116.179413,0.313126,-0.429624,0.766397,-0.360572
138,-1.370607,-8.041063,-5.231831,4.447203,10.445351,-13.515675,-123.394943,9.543493,-116.275436,0.311620,-0.429666,0.766017,-0.362627
139,-1.230669,-8.054552,-5.212872,-0.315381,6.422592,-10.260430,-123.328636,9.057970,-116.292419,0.308744,-0.431234,0.765070,-0.365216
140,-0.833680,-8.283441,-5.261772,-3.215216,8.566197,-16.860287,-123.381233,8.543069,-116.251930,0.305412,-0.433611,0.764221,-0.366978
141,-0.641334,-8.320969,-5.194689,-4.937564,8.828084,-20.395054,-123.502586,7.865200,-116.150536,0.300971,-0.437178,0.763064,-0.368817
142,-0.305765,-8.366512,-5.100528,-4.820617,9.302860,-23.254951,-123.645386,7.091986,-115.998642,0.295990,-0.441466,0.761587,-0.370788
143,0.061434,-8.369784,-5.107475,-4.275621,9.585198,-23.933619,-123.776512,6.263074,-115.822884,0.290760,-0.446053,0.759839,-0.373015
144,0.299291,-8.310608,-5.083535,-2.879035,9.089296,-22.461494,-123.878128,5.447496,-115.650124,0.285708,-0.450457,0.757987,-0.375388
145,0.344845,-8.162941,-4.993279,-0.040329,6.921056,-18.154652,-123.912888,4.736814,-115.493568,0.281528,-0.454172,0.756136,-0.377795
146,0.512030,-8.130969,-5.022614,1.860896,6.040066,-15.389170,-123.872238,4.152278,-115.360855,0.278375,-0.457067,0.754341,-0.380220
147,0.625132,-8.008419,-5.184370,0.451565,5.574436,-13.570785,-123.826347,3.643590,-115.252609,0.275650,-0.459503,0.752750,-0.382415
148,0.507488,-7.928456,-5.363829,-4.070935,3.892613,-10.368699,-123.881203,3.224364,-115.161171,0.273038,-0.461740,0.751726,-0.383608
149,0.561289,-8.006671,-5.531012,-8.303069,3.107186,-9.870852,-124.082520,2.879479,-115.069084,0.270312,-0.464051,0.751329,-0.383526
150,0.631001,-8.089309,-5.725612,-11.223122,3.453403,-9.485425,-124.403603,2.551296,-114.977715,0.267196,-0.466565,0.751363,-0.382592
151,0.491815,-8.113867,-5.998728,-14.181739,2.912564,-5.336696,-124.824791,2.287753,-114.924591,0.263949,-0.468814,0.752011,-0.380820
152,0.031205,-8.059478,-6.100843,-14.692894,0.716082,5.367974,-125.308006,2.253507,-114.974251,0.261584,-0.469714,0.753744,-0.377904
153,-0.411418,-8.060911,-5.959568,-9.616704,-0.322862,16.340427,-125.722229,2.544346,-115.189606,0.261072,-0.468234,0.756569,-0.374434
154,-0.939101,-7.958512,-5.866593,-4.458407,-1.380784,24.990082,-125.975624,3.119553,-115.570076,0.262550,-0.464306,0.760069,-0.371191
155,-1.472607,-7.789663,-5.673379,-0.648192,-2.895501,30.749125,-126.090790,3.912906,-116.059471,0.265680,-0.458557,0.763919,-0.368195
156,-2.036484,-7.746669,-5.521152,2.820824,-4.921216,32.867172,-126.094398,4.846500,-116.580009,0.270090,-0.451805,0.767709,-0.365439
157,-2.168986,-7.729797,-5.424302,5.100009,-4.045376,27.265987,-126.005974,5.744792,-117.050713,0.274798,-0.445240,0.770856,-0.363356
158,-2.094608,-7.612080,-5.538187,2.223242,-26.226984,52.176018,-125.925499,7.112709,-117.422035,0.282844,-0.437608,0.774343,-0.359014
159,-2.318072,-7.465233,-5.462690,0.478361,-1.371259,15.434292,-125.920830,8.294807,-117.713844,0.289629,-0.431300,0.777332,-0.354754
160,-2.392652,-7.434920,-5.619924,-8.843821,-19.749527,42.454628,-126.103111,9.282123,-117.999695,0.294470,-0.426178,0.780471,-0.350036
161,-2.267128,-7.506467,-5.660017,-7.465723,-10.433796,30.866135,-126.431076,10.564619,-118.322090,0.300592,-0.420061,0.784502,-0.343147
162,-2.208284,-7.526382,-5.690113,-0.627663,6.831934,7.206560,-126.628647,11.110210,-118.657677,0.302405,-0.416242,0.787061,-0.340337
163,-2.059783,-7.693009,-5.742702,2.376491,9.293557,2.765306,-126.660561,11.083312,-118.978531,0.301161,-0.414222,0.788282,-0.341077
164,-1.494424,-7.951916,-5.902712,3.244886,12.786514,-7.987574,-126.613785,10.793938,-119.226379,0.298708,-0.413476,0.788651,-0.343279
165,-1.039619,-8.115045,-5.824068,3.331718,14.503891,-18.541908,-126.522736,10.167892,-119.329918,0.294645,-0.414863,0.787900,-0.346824
166,-0.605019,-8.047858,-5.588349,4.734855,16.809242,-27.812860,-126.381279,9.236467,-119.290031,0.289198,-0.418236,0.786010,-0.351614
167,-0.153741,-8.169478,-5.556379,4.397270,18.500278,-34.124252,-126.208076,8.056250,-119.151749,0.282535,-0.423102,0.783217,-0.357392
168,0.152540,-8.201978,-5.464105,3.046185,18.843859,-34.994904,-126.060905,6.759042,-118.973549,0.275130,-0.428700,0.780059,-0.363355
169,0.415907,-8.130626,-5.348390,2.270158,19.420956,-30.718906,-125.958549,5.498342,-118.844673,0.267632,-0.433895,0.777164,-0.368950
170,0.590790,-8.078981,-5.314006,2.676188,19.267582,-23.247278,-125.875893,4.391789,-118.839195,0.260663,-0.437706,0.774964,-0.374032
171,0.786481,-8.084774,-5.329241,0.807449,18.221310,-17.806694,-125.825439,3.471306,-118.945206,0.254416,-0.440148,0.773558,-0.378353
172,0.963173,-8.093321,-5.269258,-0.160225,17.533392,-15.161855,-125.823532,2.677020,-119.106903,0.248614,-0.441856,0.772716,-0.381923
173,1.018357,-8.080213,-5.242741,0.851732,16.477486,-13.512857,-125.819359,1.957777,-119.286903,0.243238,-0.443155,0.772048,-0.385215
174,0.964683,-8.117775,-5.292431,1.759517,14.064230,-11.494730,-125.780716,1.322010,-119.456062,0.238572,-0.444152,0.771358,-0.388354
175,0.981509,-8.177411,-5.312352,18.955133,36.267448,-45.240421,-125.437073,0.064907,-119.587540,0.231043,-0.446926,0.768220,-0.395872
176,1.004676,-8.114808,-5.445835,10.369605,29.158646,-36.756580,-124.946388,-1.679764,-119.691612,0.220893,-0.451272,0.763305,-0.406109
177,0.948864,-8.120231,-5.520703,2.518360,17.146715,-21.856081,-124.728607,-2.922177,-119.766357,0.213127,-0.454607,0.760136,-0.412434
178,0.926390,-8.163907,-5.361704,-2.910324,-0.262570,0.701472,-124.733475,-3.372230,-119.796379,0.209966,-0.455944,0.759277,-0.414159
179,0.860596,-8.140027,-5.412601,-3.351434,-3.382315,3.830190,-124.838257,-3.275555,-119.789375,0.210226,-0.455855,0.759842,-0.413087
180,0.726900,-8.001009,-5.421858,-2.633366,-5.645853,5.910874,-124.939705,-3.056325,-119.758728,0.211412,-0.455504,0.760570,-0.411528
181,0.388053,-8.144320,-5.502263,-1.054985,-8.368421,10.499267,-125.002922,-2.698342,-119.724030,0.213699,-0.454639,0.761443,-0.409685
182,-0.079751,-8.075094,-5.542363,2.552162,-11.235226,14.767867,-124.979057,-2.165993,-119.697754,0.217473,-0.452957,0.762406,-0.407765
183,-0.460770,-7.918465,-5.755580,4.324149,-13.611386,16.818583,-124.865662,-1.497314,-119.659431,0.222551,-0.450704,0.763279,-0.405884
184,-0.890705,-7.770495,-5.840004,4.875800,-16.571854,19.012020,-124.713760,-0.719888,-119.586960,0.228614,-0.448200,0.764090,-0.403757
185,-1.273346,-7.697312,-5.930505,3.506704,-18.989151,19.884565,-124.574699,0.150336,-119.467903,0.235389,-0.445673,0.764928,-0.401065
186,-1.486437,-7.460780,-5.924198,1.438854,-20.572304,18.343731,-124.490456,1.048955,-119.286011,0.242333,-0.443544,0.765739,-0.397729
187,-1.677077,-7.353991,-5.909349,-0.840812,-21.289822,16.998014,-124.474350,1.929476,-119.044441,0.249069,-0.441994,0.766485,-0.393836
188,-1.830807,-7.353706,-5.914549,-2.400600,-21.008448,16.428488,-124.517548,2.787870,-118.778885,0.255482,-0.440793,0.767265,-0.389532
189,-1.756665,-7.450456,-5.804406,-2.042164,-18.690641,12.800632,-124.576706,3.564312,-118.509865,0.261276,-0.439934,0.767896,-0.385395
190,-1.791273,-7.643924,-5.680585,0.436935,-16.818874,9.815222,-124.584976,4.210516,-118.235924,0.266401,-0.439451,0.768069,-0.382077
191,-1.617681,-7.738878,-5.551892,2.738714,-14.700690,4.995327,-124.509285,4.711669,-117.942238,0.270944,-0.439421,0.767608,-0.379838
192,-1.381664,-7.885345,-5.471713,3.140375,-13.027491,-0.093169,-124.382866,5.040391,-117.606033,0.274684,-0.440171,0.766497,-0.378524
193,-1.092136,-8.146287,-5.313897,3.670076,-10.926567,-5.509586,-124.235298,5.188286,-117.222054,0.277479,-0.441840,0.764802,-0.377970
194,-0.832208,-8.203492,-5.148297,3.638727,-9.348669,-8.033197,-124.076736,5.191227,-116.813980,0.279457,-0.444163,0.762707,-0.378023
195,-0.469355,-8.255206,-5.147016,2.737031,-7.367896,-9.601328,-123.934952,5.103405,-116.417023,0.280752,-0.446777,0.760532,-0.378364
196,-0.260056,-8.449578,-5.070826,3.387126,-5.650318,-8.706079,-123.802094,4.970991,-116.065445,0.281581,-0.449266,0.758470,-0.378940
197,-0.194450,-8.446914,-5.204001,2.487252,-4.161418,-6.795544,-123.680206,4.846952,-115.784943,0.282191,-0.451275,0.756729,-0.379580
198,-0.296843,-8.223175,-5.436179,-1.884645,-3.152739,-3.858543,-123.653366,4.766747,-115.584351,0.282447,-0.452825,0.755695,-0.379603
199,-0.516516,-8.285070,-5.753447,-7.780060,-3.064718,0.227536,-123.804436,4.774019,-115.464127,0.282294,-0.453964,0.755732,-0.378280
200,-0.645888,-8.217354,-5.819577,-9.949140,-2.555398,1.522503,-124.094711,4.850601,-115.402451,0.281837,-0.454807,0.756590,-0.375887
201,-0.871745,-7.935680,-6.033645,-12.992448,-2.220920,2.356838,-124.474541,4.948900,-115.372993,0.281055,-0.455579,0.757900,-0.372885
202,-1.059240,-7.837046,-5.927258,-12.523268,-1.986300,3.212786,-124.899353,5.065159,-115.368141,0.280129,-0.456232,0.759476,-0.369563
203,-1.195704,-7.904285,-5.915961,-9.415016,-2.325295,4.603954,-125.266434,5.213091,-115.384270,0.279568,-0.456492,0.760993,-0.366533
204,-1.220548,-7.721583,-5.781875,-14.434410,-8.051377,13.766274,-125.667374,5.562815,-115.421150,0.280110,-0.455977,0.763054,-0.362453
205,-1.255976,-7.667022,-5.635873,-6.581594,-7.358383,12.627867,-126.022659,6.069790,-115.470634,0.281814,-0.454711,0.765272,-0.358018
206,-1.246102,-7.748111,-5.574531,0.960791,-4.728772,9.076868,-126.121826,6.480815,-115.520844,0.283917,-0.453153,0.766499,-0.355700
207,-1.153021,-7.718815,-5.736191,-4.136550,1.178067,3.907020,-126.183937,6.690483,-115.601059,0.284776,-0.452021,0.767370,-0.354575
208,-1.000392,-7.617258,-5.439271,0.847696,3.695457,1.095086,-126.252174,6.709729,-115.716743,0.284273,-0.451347,0.768070,-0.354322
209,-0.897454,-7.600661,-5.359718,2.280831,4.420545,0.621160,-126.214767,6.652893,-115.843636,0.283660,-0.450607,0.768356,-0.355133
210,-0.902867,-7.469395,-5.481830,1.650441,4.114278,0.171432,-126.163452,6.579578,-115.967064,0.283005,-0.449914,0.768557,-0.356098
211,-0.872644,-7.614928,-5.404785,3.514396,3.605801,-1.909380,-126.087318,6.480321,-116.054482,0.282390,-0.449496,0.768492,-0.357252
213,-0.732300,-7.744359,-5.272517,6.090096,3.436177,-4.783542,-125.930511,6.321109,-116.084015,0.281882,-0.449483,0.767843,-0.359060
214,-0.741851,-7.981707,-5.540013,12.089803,9.322123,-16.723072,-125.623520,5.906020,-116.046776,0.280520,-0.450468,0.766003,-0.362803
215,-0.738347,-8.157063,-5.578945,12.311528,8.047638,-16.178274,-125.208771,5.291421,-115.964424,0.278443,-0.452212,0.763252,-0.367994
216,-0.676597,-8.339627,-5.609694,4.383399,3.329897,-6.587282,-124.924911,4.871959,-115.901436,0.277057,-0.453450,0.761315,-0.371514
217,-0.651109,-8.223138,-5.749285,1.407614,4.167757,-4.276557,-124.828331,4.651969,-115.900406,0.276021,-0.454013,0.760586,-0.373086
218,-0.788222,-8.058493,-5.728780,-5.576003,4.336913,-0.644106,-124.903374,4.503631,-115.969986,0.274537,-0.454263,0.760828,-0.373384
219,-0.780934,-7.952346,-5.697323,-8.503369,3.974688,2.962545,-125.148697,4.455746,-116.105934,0.272813,-0.454117,0.762075,-0.372281
220,-0.730378,-7.905934,-5.519858,-0.874306,4.148396,2.118471,-125.317436,4.446811,-116.265793,0.271568,-0.453486,0.763239,-0.371575
221,-0.638514,-7.686785,-5.470140,-0.234593,4.002857,1.777023,-125.347404,4.421298,-116.414627,0.270800,-0.452656,0.763877,-0.371835
222,-0.664252,-7.505636,-5.373181,2.430366,3.274418,0.892175,-125.320412,4.387448,-116.539673,0.270281,-0.451879,0.764220,-0.372453
223,-0.626542,-7.540724,-5.300234,7.594055,2.749551,-1.177301,-125.159378,4.325665,-116.619179,0.270254,-0.451189,0.763894,-0.373974
224,-0.598799,-7.391684,-5.180781,13.678848,2.387155,-3.000854,-124.807060,4.219575,-116.649475,0.270851,-0.450535,0.762661,-0.376837
225,-0.623679,-7.363355,-5.392298,15.019133,2.088079,-2.859612,-124.329193,4.096872,-116.655495,0.271912,-0.449805,0.760873,-0.380540
226,-0.715343,-7.656684,-5.347607,17.950338,0.926082,-1.985821,-123.779465,4.001844,-116.651917,0.273464,-0.448865,0.758842,-0.384573
227,-0.692869,-8.052518,-5.260719,22.110199,0.505561,-1.970368,-123.110664,3.933696,-116.635521,0.275695,-0.447620,0.756387,-0.389239
228,-0.679888,-8.275143,-5.244058,23.114697,0.115309,-1.891104,-122.355171,3.873980,-116.609398,0.278346,-0.446186,0.753584,-0.394401
229,-0.624881,-8.781869,-5.194039,22.695967,0.091208,-2.622383,-121.589218,3.808356,-116.572426,0.281031,-0.444805,0.750655,-0.399609
230,-0.679558,-9.053659,-5.081728,20.222103,-0.840102,-1.669832,-120.870789,3.753686,-116.524529,0.283635,-0.443554,0.747838,-0.404413
231,-0.725821,-9.163313,-5.108581,13.009875,-1.992275,-0.461598,-120.313103,3.747154,-116.465752,0.285958,-0.442576,0.745620,-0.407928
232,-0.644964,-9.169081,-4.953580,4.979154,-1.970065,-0.455845,-120.009026,3.767160,-116.400887,0.287490,-0.442160,0.744327,-0.409660
233,-0.546750,-9.060027,-4.989047,-2.430688,-0.983974,-1.433707,-119.962708,3.764529,-116.342392,0.287861,-0.442434,0.743930,-0.409825
234,-0.589787,-8.369854,-5.000475,-10.996167,-1.920675,-0.898924,-120.182457,3.755172,-116.280869,0.287172,-0.443420,0.744457,-0.408282
235,-0.580923,-7.588274,-4.557363,-13.484776,-3.485874,-0.922166,-120.584343,3.774594,-116.187569,0.286069,-0.444958,0.745563,-0.405356
236,-0.497575,-6.799227,-4.030854,-6.291406,-4.076135,-1.195505,-120.905556,3.808664,-116.060905,0.285483,-0.446454,0.746273,-0.402808
237,-0.526435,-6.100919,-3.711385,4.767245,-5.746679,-0.045090,-120.920822,3.874948,-115.909470,0.286376,-0.447228,0.745873,-0.402056
238,-0.536278,-5.730940,-3.007367,28.230312,-8.159526,0.784815,-120.357536,4.003547,-115.715820,0.290070,-0.446581,0.743402,-0.404696
239,-0.411877,-5.783655,-2.286673,61.065147,-8.169157,-1.471861,-118.852165,4.127752,-115.472832,0.297568,-0.443813,0.737347,-0.413284
240,-0.423691,-6.286692,-1.903962,92.227562,-7.945961,-2.534579,-116.278549,4.192345,-115.202744,0.308870,-0.438472,0.726992,-0.428747
241,-0.593080,-7.567486,-1.587971,116.838272,-8.579171,-2.315643,-112.775726,4.232524,-114.917801,0.323489,-0.430431,0.712575,-0.449800
242,-0.854907,-9.333930,-1.115148,131.564743,-8.729656,-1.878002,-108.618660,4.268658,-114.622917,0.340321,-0.420044,0.694805,-0.474331
243,-1.168341,-11.893501,-1.393347,121.790611,-7.157395,-2.813798,-104.381752,4.268571,-114.346657,0.356819,-0.408808,0.675812,-0.498833
244,-1.666821,-14.405583,-1.850225,86.524979,-5.080938,-2.042694,-100.898453,4.234071,-114.129265,0.369872,-0.399192,0.659486,-0.518573
245,-2.082244,-16.655752,-2.850998,29.115381,-2.073503,-2.206601,-98.963158,4.184907,-113.999344,0.376893,-0.393866,0.650047,-0.529395
246,-2.212373,-18.205872,-3.813040,-45.360527,0.468037,-3.453280,-99.230957,4.096126,-113.957596,0.375680,-0.395415,0.650883,-0.528074
247,-2.348938,-18.460428,-4.655790,-118.285156,2.542019,-2.946183,-101.959915,3.982382,-113.986931,0.365392,-0.404618,0.663060,-0.512957
248,-1.760256,-14.705358,-4.258617,-177.994400,6.389437,-2.175490,-106.900673,3.863108,-114.109337,0.346405,-0.419795,0.684689,-0.484744
249,-0.491400,-10.589259,-4.344609,-223.132401,13.150010,-7.532984,-113.584618,3.600349,-114.358292,0.318789,-0.438816,0.712107,-0.445776
250,-0.635893,-7.318903,-4.243272,-251.499405,12.368291,-0.668468,-121.480385,3.285256,-114.674110,0.284732,-0.458849,0.741709,-0.397811
251,0.171186,-3.640315,-2.223491,-233.587616,22.884483,-10.404064,-129.541290,2.797760,-115.039330,0.247458,-0.476861,0.768467,-0.347602
252,0.827670,-0.055109,-1.635022,-306.261963,56.038250,-39.907505,-138.502335,1.290960,-115.409386,0.198175,-0.496225,0.792563,-0.293821
253,0.408595,0.063123,-2.163954,-290.757935,36.422295,-10.768153,-148.377457,-0.437044,-115.667427,0.141949,-0.513111,0.813919,-0.232599
254,-0.338276,0.438206,-2.375280,-281.132874,-1.685232,8.706189,-157.833038,-0.951492,-115.876450,0.095138,-0.522267,0.830793,-0.167238
255,0.376816,2.274423,-3.235410,-275.594879,16.489187,-7.044456,-167.044159,-1.171468,-115.948410,0.051214,-0.527865,0.841741,-0.101032
256,0.126021,3.074140,-5.506427,-232.027008,2.684326,-1.006152,-175.448837,-1.512229,-115.879166,0.009900,-0.530793,0.846469,-0.040647
257,0.040313,3.177954,-6.925211,-174.800507,-2.033752,-1.277270,177.804428,-1.521022,-115.833755,-0.021419,-0.530789,0.847183,0.009183
258,0.348885,3.841383,-7.892409,-138.483521,-0.717444,-5.068436,172.596756,-1.466590,-115.730263,-0.045153,-0.530061,0.845402,0.047872
259,0.261672,3.983548,-8.858583,-94.259232,-2.552657,-3.345881,168.721863,-1.391894,-115.601067,-0.062585,-0.529240,0.842677,0.076701
260,0.090087,3.397296,-8.658247,-63.275066,-0.508788,-1.752313,166.097183,-1.323471,-115.528648,-0.074249,-0.528265,0.840333,0.096251
261,-0.198418,3.723368,-8.706900,-54.468945,-2.053795,-5.366925,164.133331,-1.251701,-115.425262,-0.082867,-0.527748,0.838044,0.110894
262,-0.406550,3.860868,-8.510241,-47.553989,-3.426893,-3.707839,162.430969,-1.121247,-115.306290,-0.089876,-0.527479,0.835674,0.123841
263,-0.296627,3.755610,-8.839502,-33.584068,-2.085470,0.401496,161.078552,-1.016574,-115.282555,-0.095363,-0.526686,0.833972,0.134158
264,-0.221495,3.411716,-9.046167,-22.329380,-5.334300,3.014054,160.148407,-0.918514,-115.377457,-0.098806,-0.525333,0.833218,0.141457
265,-0.262021,3.410611,-8.924953,-22.167290,-8.190203,2.713356,159.409256,-0.739683,-115.544708,-0.100681,-0.523711,0.832914,0.147798
266,-0.148865,2.938301,-9.328493,-6.958719,-8.633650,6.244778,158.926483,-0.530678,-115.783829,-0.101052,-0.521833,0.833205,0.152475
267,-0.172657,3.000101,-9.651172,-6.276532,-9.314090,4.102969,158.707932,-0.313696,-116.052521,-0.100108,-0.519985,0.833954,0.155289
268,-0.464949,3.167108,-9.347053,-15.665323,-12.260970,2.243483,158.342865,-0.017815,-116.282570,-0.099293,-0.518403,0.834244,0.159488
269,-0.472799,3.291963,-8.956456,-14.165362,-6.249950,3.882740,157.845245,0.230148,-116.492508,-0.099438,-0.516792,0.834270,0.164412
270,-0.220133,3.365770,-9.096888,-9.821284,0.108918,6.494353,157.444702,0.259019,-116.691574,-0.100743,-0.515033,0.834560,0.167633
271,-0.211667,3.795028,-8.945179,-18.763430,1.979901,4.039225,156.967850,0.158970,-116.840141,-0.103392,-0.513381,0.834615,0.170790
272,-0.131701,3.773539,-8.941388,-16.042074,2.985369,5.061626,156.387634,0.022730,-116.946617,-0.106820,-0.511869,0.834343,0.174503
273,-0.031703,3.792357,-8.970467,-13.873645,3.374768,3.533139,155.889145,-0.132110,-117.034805,-0.110035,-0.510516,0.834116,0.177525
274,-0.102338,4.142665,-8.774580,-20.616392,1.713046,-0.037786,155.314392,-0.233440,-117.052864,-0.113302,-0.509665,0.833393,0.181273
275,-0.260014,4.318751,-8.590350,-19.787643,-1.091007,-1.729864,154.640915,-0.230489,-117.021606,-0.116325,-0.509222,0.832172,0.186149
276,-0.343110,4.268408,-8.572219,-15.495580,-4.217142,-2.010920,154.052826,-0.123768,-117.003540,-0.118193,-0.508928,0.831017,0.190873
277,-0.377860,4.403281,-8.393133,-16.442535,-5.439158,-2.011239,153.520569,0.050268,-117.014343,-0.119277,-0.508593,0.829988,0.195515
278,-0.376318,4.439208,-8.402468,-11.042945,-5.349928,-0.957096,153.062393,0.233150,-117.050934,-0.119922,-0.508163,0.829167,0.199680
279,-0.195609,4.324640,-8.573048,-3.983590,-3.602050,0.574488,152.811646,0.368959,-117.113068,-0.119941,-0.507686,0.828855,0.202160
280,-0.022124,4.330512,-8.708853,-3.624181,-1.817077,1.313830,152.684372,0.434885,-117.182373,-0.119905,-0.507166,0.828864,0.203444
281,0.064748,4.369397,-8.728214,-3.770074,0.400553,1.435175,152.560760,0.434782,-117.233925,-0.120361,-0.506663,0.828873,0.204392
282,0.158234,4.468271,-8.758320,-2.903688,2.591655,0.696830,152.449478,0.374131,-117.242455,-0.121277,-0.506378,0.828778,0.204939
283,0.150193,4.514016,-8.701214,-4.113770,2.998349,-0.412081,152.332748,0.289363,-117.203491,-0.122476,-0.506386,0.828491,0.205367
284,0.041399,4.534987,-8.683353,-3.386995,2.055593,-1.174885,152.208023,0.227105,-117.140877,-0.123590,-0.506594,0.828059,0.205927
285,-0.084510,4.556313,-8.684844,-1.739842,-0.592926,-3.203827,152.122894,0.239617,-117.064949,-0.124012,-0.507073,0.827556,0.206515
286,-0.103985,4.501825,-8.549265,-0.153954,-1.318980,-3.952500,152.091797,0.323565,-116.974419,-0.123707,-0.507842,0.827006,0.207013
287,-0.142125,4.407138,-8.520936,5.005320,-2.680133,-4.380498,152.173279,0.447394,-116.882782,-0.122617,-0.508811,0.826607,0.206874
288,-0.134266,4.240064,-8.400262,3.917647,0.315727,-2.432749,152.322708,0.535107,-116.800606,-0.121467,-0.509718,0.826412,0.206097
289,-0.384495,4.047375,-7.767618,5.176515,-1.457721,-5.313868,152.475311,0.611795,-116.694969,-0.120423,-0.510775,0.826129,0.205226
290,-0.382793,3.524367,-6.688474,11.969244,-0.628075,-4.623836,152.762604,0.718846,-116.563896,-0.118602,-0.512205,0.825936,0.203494
291,-0.386116,2.808962,-5.868775,30.488194,-0.414933,-2.667047,153.471542,0.789223,-116.463295,-0.115096,-0.513772,0.826651,0.198593
292,-0.484539,1.923527,-5.105716,54.233089,-2.697303,-4.221954,154.884613,0.885692,-116.382393,-0.108186,-0.515890,0.828572,0.188739
293,-0.491700,1.195494,-4.503565,77.432915,-4.919341,-3.752456,157.079697,1.055593,-116.312790,-0.097154,-0.518617,0.831554,0.173538
294,-0.210181,0.611532,-4.619767,101.093719,-0.271899,5.100764,160.052612,1.127533,-116.365334,-0.083072,-0.520668,0.835953,0.152272
295,-0.300311,0.194045,-5.455389,111.273682,-5.995363,5.986357,163.584961,1.167666,-116.571648,-0.066463,-0.521508,0.841160,0.126738
296,-0.398672,0.043626,-6.272383,108.273682,-10.405658,5.663102,167.234314,1.382575,-116.829491,-0.048010,-0.521625,0.845817,0.100976
297,-0.206139,0.133558,-7.200222,99.366257,-9.359358,10.008922,170.682678,1.655357,-117.149902,-0.030056,-0.520607,0.849803,0.076806
298,0.093444,0.038211,-8.103995,89.752068,-3.917022,10.233829,173.820770,1.827696,-117.513588,-0.014336,-0.518587,0.853176,0.054336
299,-0.047224,-0.460892,-9.108445,92.702843,-5.148716,4.094692,176.851196,1.958561,-117.762695,0.000429,-0.516944,0.855408,0.032347
300,0.484307,-0.478699,-10.550331,86.594551,8.828989,0.799464,179.834412,1.896289,-117.842720,0.013426,-0.516163,0.856329,0.009779
301,0.187273,-0.868871,-10.884264,90.412086,24.812334,-2.338822,-177.217041,1.336196,-117.826759,0.022520,-0.515903,0.856223,-0.014776
302,0.029630,-0.793455,-10.345160,82.176590,21.162046,-6.502100,-174.341064,0.562244,-117.732948,0.029717,-0.516190,0.855036,-0.039719
303,0.401358,-0.920084,-11.344074,82.245934,25.439045,-6.815231,-171.601944,-0.234196,-117.607979,0.036183,-0.516704,0.853025,-0.063689
304,0.520049,-1.195958,-11.545528,86.630844,36.332699,-2.716404,-168.789001,-1.275019,-117.625900,0.041105,-0.516255,0.850775,-0.089291
305,0.981571,-2.090348,-10.543817,91.495171,39.282974,-0.516971,-165.815521,-2.516485,-117.848602,0.045051,-0.514419,0.848328,-0.116970
306,1.416983,-2.822476,-11.951317,85.855362,19.676064,-4.116463,-162.852371,-3.483044,-118.039612,0.050940,-0.512639,0.845040,-0.143225
307,1.578376,-3.441135,-12.970493,82.007927,21.692268,-5.762079,-160.051865,-4.186517,-118.106285,0.058156,-0.511558,0.840865,-0.166946
308,1.303011,-3.705511,-12.165940,72.987572,15.940417,-4.161091,-157.464508,-4.830371,-118.178825,0.064826,-0.510415,0.836455,-0.188724
309,1.911487,-4.043856,-12.303052,48.354317,7.070350,-10.141436,-155.448929,-5.276837,-118.113945,0.070628,-0.510291,0.832149,-0.205289
310,1.105301,-3.552048,-12.215315,39.252167,-5.597982,-11.806717,-154.018967,-5.453647,-117.792274,0.076301,-0.511957,0.827850,-0.216202
311,0.838935,-2.945258,-10.819880,41.639557,-10.349291,-5.083058,-152.705597,-5.341325,-117.420921,0.083713,-0.513547,0.823815,-0.224923
312,1.325585,-3.201414,-10.209507,56.750172,-5.399940,0.640457,-151.083099,-5.145134,-117.231903,0.092790,-0.513337,0.819989,-0.235568
313,1.249948,-3.393517,-9.333776,71.601555,-4.502633,2.455533,-148.947815,-4.977544,-117.193596,0.103633,-0.511491,0.815543,-0.250053
314,0.594956,-3.954885,-7.608635,95.325104,-7.232196,8.213867,-146.163162,-4.717600,-117.238754,0.117790,-0.507987,0.809849,-0.268736
316,0.683492,-5.048174,-7.042818,112.029770,-3.948102,22.319855,-142.685852,-4.270962,-117.545624,0.135544,-0.501042,0.803439,-0.291668
317,0.892002,-6.349637,-6.061377,115.967484,4.150654,24.662664,-138.846893,-3.781883,-118.156059,0.154004,-0.490774,0.796742,-0.317215
318,0.359785,-7.312412,-5.726199,109.303673,-2.102125,28.306301,-135.055878,-3.206800,-118.823494,0.172171,-0.479248,0.789725,-0.342072
319,-0.183876,-8.231774,-5.900093,100.802032,-8.494234,33.410168,-131.530563,-2.337897,-119.402420,0.190984,-0.467182,0.782927,-0.363719
320,-0.002914,-8.273276,-5.837787,92.069572,-10.578171,31.475901,-128.305359,-1.305579,-119.854843,0.209578,-0.455236,0.776277,-0.382402
321,-0.035895,-8.555572,-5.638054,89.788948,-13.163541,21.943878,-125.274109,-0.356133,-120.071510,0.227172,-0.444812,0.768688,-0.399567
322,-0.235832,-8.830420,-5.516200,90.847755,-16.227474,22.572948,-122.266357,0.533714,-120.075447,0.244643,-0.435420,0.759820,-0.416213
323,-0.179597,-8.962559,-5.239162,92.041451,-17.218294,17.434572,-119.218460,1.391416,-119.937675,0.262235,-0.426354,0.749814,-0.432706
324,-0.190593,-9.366658,-4.468048,94.067177,-17.478498,11.950513,-116.110741,2.093697,-119.652039,0.279298,-0.418081,0.738319,-0.449539
325,-0.298968,-9.818977,-4.311101,91.073303,-18.659475,12.378085,-113.011909,2.712757,-119.271599,0.295912,-0.410165,0.725953,-0.466041
326,-0.529363,-10.527592,-3.649781,92.137611,-20.967834,7.641932,-109.935181,3.264795,-118.779213,0.312256,-0.402702,0.712764,-0.481969
327,-0.486797,-10.513270,-3.716162,83.863533,-20.374683,-1.551212,-106.967255,3.579642,-118.156303,0.327163,-0.396844,0.698672,-0.497329
328,-0.820009,-10.670151,-2.554054,82.701057,-21.494383,-0.278336,-104.149994,3.738090,-117.473267,0.340798,-0.392021,0.684317,-0.511748
329,-0.959327,-10.505891,-1.923966,83.078850,-21.285004,0.753601,-101.342476,3.903202,-116.778893,0.354427,-0.386820,0.669686,-0.525617
330,-1.096151,-10.125488,-2.345961,72.027527,-18.524134,1.648572,-98.714043,4.057956,-116.131615,0.367108,-0.381532,0.655740,-0.538210
331,-1.031330,-10.030278,-3.386750,43.753914,-13.957486,3.237678,-96.747360,4.211386,-115.605255,0.376950,-0.377369,0.645120,-0.547103
332,-1.287370,-9.909671,-2.467785,26.999313,-10.672143,9.499044,-95.539131,4.466745,-115.219276,0.384134,-0.374228,0.638803,-0.551657
333,-1.249362,-9.892098,-2.793216,7.919068,-6.376406,12.019590,-94.936661,4.849939,-114.969070,0.389334,-0.371632,0.636209,-0.552762
334,-1.056135,-10.339782,-3.408891,-9.172578,-2.185607,13.360546,-94.948074,5.283811,-114.863556,0.392094,-0.370036,0.637194,-0.550744
335,-1.201242,-10.647281,-2.873487,-14.265944,1.113686,15.564634,-95.341080,5.765684,-114.889641,0.393241,-0.368768,0.640560,-0.546859
336,-1.380799,-10.402551,-2.361203,-9.292198,4.985776,20.816050,-95.750572,6.359436,-115.050446,0.394295,-0.366232,0.644721,-0.542900
337,-1.153988,-10.641427,-2.932171,-11.459707,9.667275,17.479019,-96.132355,6.969138,-115.361153,0.394834,-0.362667,0.649223,-0.539526
338,-0.962139,-11.029440,-3.159873,-17.154305,14.123738,10.418369,-96.665123,7.387044,-115.810707,0.393259,-0.359798,0.654291,-0.536466
339,-0.862428,-10.859002,-3.090618,-26.767071,18.852619,1.044836,-97.471199,7.508945,-116.384888,0.388702,-0.358632,0.660182,-0.533343
340,-1.007157,-10.872254,-3.176842,-38.691837,22.186012,-5.438247,-98.648643,7.340337,-117.058022,0.380980,-0.359544,0.667307,-0.529418
341,-0.867679,-10.773494,-2.674818,-46.265667,23.606913,-13.283454,-100.151840,6.907514,-117.765732,0.370611,-0.362504,0.675337,-0.524556
342,-0.956984,-10.731882,-3.280011,-55.034924,24.851913,-16.937532,-101.919785,6.258324,-118.467010,0.358152,-0.367180,0.683984,-0.518721
343,-1.145033,-10.716002,-3.460598,-60.652706,24.790264,-15.952150,-103.917770,5.538952,-119.154282,0.344493,-0.372667,0.693414,-0.511490
344,-1.190049,-10.571321,-3.806390,-65.560234,22.523199,-13.110366,-106.078453,4.867080,-119.792519,0.330656,-0.378328,0.703452,-0.502682
345,-0.880910,-10.588532,-4.223101,-71.013161,20.683739,-11.700073,-108.398796,4.258638,-120.358467,0.316841,-0.384195,0.713984,-0.492172
346,-0.595892,-10.602858,-4.965132,-77.594223,19.578678,-10.056160,-110.909760,3.691381,-120.868805,0.302726,-0.390324,0.725070,-0.479874
347,-0.331197,-10.490700,-5.130017,-82.805305,18.813669,-10.678249,-113.609062,3.129258,-121.329964,0.288046,-0.396780,0.736556,-0.465920
348,-0.264513,-10.400676,-5.982536,-88.695152,18.128534,-10.926469,-116.485550,2.542481,-121.735313,0.272643,-0.403642,0.748224,-0.450444
349,-0.419703,-10.710337,-6.544845,-94.335991,17.674536,-7.701966,-119.548843,1.988274,-122.115944,0.256693,-0.410429,0.760252,-0.433214
350,-0.209788,-10.750248,-6.889798,-97.385963,17.884888,-9.827536,-122.752304,1.432337,-122.470924,0.240127,-0.417117,0.772291,-0.414631
351,-0.615357,-10.822673,-7.121724,-94.864967,14.033618,-6.462965,-125.959427,0.908236,-122.756943,0.223813,-0.423560,0.783687,-0.395396
352,-0.442861,-10.329391,-7.626216,-93.967842,10.569433,-3.877918,-129.106750,0.521955,-122.975845,0.208712,-0.429311,0.794395,-0.375591
353,0.074574,-10.310405,-7.555537,-90.913010,10.615191,-0.053568,-132.187119,0.242329,-123.199913,0.194444,-0.434065,0.804588,-0.355552
354,-0.189927,-9.863029,-7.378457,-88.770065,6.038991,5.191485,-135.180420,0.113339,-123.459015,0.181368,-0.437534,0.814388,-0.335323
355,-0.410894,-8.996082,-7.590667,-89.215057,-1.861561,6.822486,-138.145325,0.200255,-123.650772,0.170087,-0.440463,0.823656,-0.314091
356,0.095217,-8.513561,-7.828675,-87.047432,0.153671,5.405147,-141.081665,0.353027,-123.785934,0.159508,-0.443302,0.832164,-0.292478
357,-0.215644,-8.484065,-7.617480,-75.049400,0.959524,3.507698,-143.782303,0.428893,-123.915390,0.149264,-0.445807,0.839425,-0.272659
358,-0.811906,-7.357926,-7.614778,-75.276176,-5.411739,-3.332849,-146.285995,0.491230,-123.875526,0.140036,-0.449116,0.845097,-0.253960
359,-0.332020,-6.546598,-7.758832,-83.177681,-1.981215,-12.746024,-148.923126,0.450031,-123.583084,0.129957,-0.454474,0.849516,-0.234279
360,-0.006052,-6.330268,-7.483617,-83.213600,6.851710,-17.460285,-151.692764,0.129279,-123.187668,0.117286,-0.461035,0.853027,-0.214561
361,-0.172981,-5.643829,-7.000453,-92.546959,7.385133,-25.800087,-154.621750,-0.407646,-122.653908,0.102350,-0.468775,0.855563,-0.194388
362,-0.398989,-4.596685,-6.753458,-118.506874,0.876239,-29.761503,-158.145325,-0.905486,-121.861824,0.085318,-0.478349,0.857432,-0.169450
363,-0.185590,-3.685464,-6.101480,-145.362076,4.161530,-29.645765,-162.554596,-1.316844,-120.956787,0.064838,-0.488537,0.859190,-0.137552
364,-0.139599,-2.931148,-5.850434,-136.921646,4.270761,-28.113316,-167.274536,-1.700103,-120.065796,0.042577,-0.497795,0.860060,-0.103361
365,-0.174670,-2.124881,-5.350938,-126.109917,2.757944,-27.314367,-171.679031,-1.983463,-119.180466,0.021830,-0.505854,0.859390,-0.071298
366,-0.381528,-1.406844,-5.069450,-116.187920,-3.826725,-21.909937,-175.739792,-2.055993,-118.363670,0.003642,-0.512451,0.857724,-0.041100
367,0.061443,-0.946988,-4.536131,-91.420456,6.848081,-15.997026,-179.218155,-2.133124,-117.733208,-0.012405,-0.517039,0.855732,-0.015463
368,0.181837,-0.592883,-4.741554,-55.513332,8.676842,-12.145485,178.316071,-2.387602,-117.265015,-0.025435,-0.520095,0.853728,0.001701
369,0.418011,-0.223966,-4.858150,-47.499641,13.775654,-11.976424,176.581024,-2.744010,-116.847450,-0.036006,-0.522642,0.851695,0.012876
370,0.213633,0.118515,-5.732323,-41.670948,5.017414,-9.544133,175.075912,-3.030504,-116.467407,-0.045069,-0.524820,0.849719,0.022602
371,0.608896,0.582177,-6.525645,-34.882374,8.082532,-6.566863,173.784622,-3.221525,-116.177780,-0.052472,-0.526323,0.848091,0.031165
372,0.665994,0.888964,-7.596470,-26.405834,4.840058,-5.200902,172.750458,-3.412296,-115.957840,-0.058701,-0.527340,0.846780,0.037824
373,0.728166,1.091518,-8.539589,-19.043659,1.625819,-2.957668,171.984039,-3.501042,-115.808388,-0.062936,-0.527981,0.845829,0.042994
374,0.726746,1.231651,-9.159806,-12.148758,-0.954119,0.172927,171.461273,-3.505370,-115.760635,-0.065395,-0.528038,0.845405,0.046805
375,0.851949,1.306933,-9.239410,-5.175805,-0.057073,1.665858,171.174545,-3.493230,-115.793472,-0.066613,-0.527639,0.845435,0.048995
376,0.718817,1.381059,-9.496620,4.567437,2.839550,2.894279,171.168594,-3.550675,-115.861603,-0.067034,-0.527092,0.845753,0.048812
377,0.740167,1.263396,-9.319423,3.353263,-0.791910,1.291579,171.304596,-3.594984,-115.925514,-0.066708,-0.526668,0.846110,0.047640
378,0.598508,0.794134,-9.063023,14.978931,-0.428280,-4.045009,171.607483,-3.568050,-115.883110,-0.065134,-0.527174,0.846035,0.045505
379,0.605868,0.893628,-8.611840,21.512148,1.383165,-9.443998,172.201660,-3.552066,-115.657845,-0.062363,-0.529177,0.845219,0.041069
380,0.436286,0.655721,-8.076680,28.684351,0.577362,-10.183439,173.017822,-3.542253,-115.328568,-0.058621,-0.532041,0.843964,0.034925
381,0.310787,0.539038,-7.755137,33.649120,-0.951506,-11.723561,174.034409,-3.495027,-114.965897,-0.053639,-0.535235,0.842551,0.027488
382,0.331670,0.280879,-7.309502,40.694489,-1.318286,-8.244791,175.253555,-3.426331,-114.637634,-0.047491,-0.538218,0.841259,0.018709
383,0.099361,0.318666,-7.160285,41.289169,-8.520615,-1.362559,176.611130,-3.251913,-114.489304,-0.039844,-0.539893,0.840736,0.009512
384,0.075383,-0.144202,-7.180849,48.980114,-11.537630,6.574670,178.121078,-2.922740,-114.592247,-0.030313,-0.539697,0.841313,0.000015
385,0.243574,-0.034504,-7.266140,46.600632,-9.667888,5.518025,179.723923,-2.574071,-114.800728,-0.020220,-0.538582,0.842270,-0.010072
386,0.195706,-0.198946,-7.166247,50.152035,-10.694070,5.269122,-178.656479,-2.233044,-114.977310,-0.010131,-0.537520,0.842944,-0.020357
387,0.260306,-0.183794,-7.308629,53.289188,-8.881525,2.890959,-176.928421,-1.901805,-115.100708,0.000379,-0.536667,0.843205,-0.031515
388,0.580170,-0.286950,-6.934570,53.032097,0.670802,-4.847406,-175.158249,-1.767278,-115.058395,0.009675,-0.536876,0.842462,-0.043904
389,0.450280,-0.691524,-7.052027,62.963543,1.053344,-6.809619,-173.231613,-1.814637,-114.866661,0.018449,-0.538062,0.840687,-0.058252
390,0.447057,-1.886494,-7.088342,87.117958,3.182048,-10.678577,-170.740295,-1.925008,-114.587799,0.029520,-0.539632,0.837857,-0.076958
391,0.374868,-2.131717,-7.565306,90.825562,1.719194,-18.242968,-167.792511,-2.094775,-114.129158,0.042546,-0.542152,0.833330,-0.099107
392,-0.133406,-3.531370,-8.426831,99.170197,-4.905014,-22.981647,-164.653778,-2.205179,-113.449303,0.057301,-0.545798,0.826994,-0.122072
393,0.005279,-3.675450,-9.876996,95.540924,-2.216606,-22.069876,-161.440765,-2.309406,-112.697853,0.072782,-0.549476,0.819566,-0.145225
394,-0.318700,-3.724928,-10.197149,75.676064,-7.582078,-19.086584,-158.618469,-2.390294,-111.996872,0.086725,-0.552597,0.812292,-0.165219
395,-0.606130,-3.688850,-11.225393,60.179653,-16.126249,-10.410829,-156.379547,-2.212613,-111.392509,0.099715,-0.554811,0.806197,-0.179690
396,-0.010578,-4.792561,-11.805970,55.153290,-8.387366,-3.100278,-154.471008,-1.934851,-111.019775,0.111523,-0.555266,0.801627,-0.191406
397,0.534068,-3.653719,-12.093733,40.932903,-2.029180,1.398195,-152.873306,-1.793119,-110.916924,0.120428,-0.554146,0.798564,-0.201779
398,-0.045624,-4.174618,-11.579695,34.968071,-11.463677,10.377235,-151.606491,-1.503459,-110.985603,0.128445,-0.551812,0.796996,-0.209290
399,0.599846,-4.650249,-11.677737,44.093472,-4.095635,5.307642,-150.286560,-1.150210,-111.089485,0.137056,-0.548944,0.795507,-0.216900
400,1.297779,-4.454412,-11.202319,43.006523,7.922292,-1.812716,-148.833435,-1.175558,-111.170937,0.143668,-0.546646,0.793046,-0.227192
401,0.996182,-3.696208,-10.233129,43.553455,6.310408,-0.422198,-147.388870,-1.396648,-111.263153,0.148825,-0.544591,0.790234,-0.238332
402,1.399141,-4.698224,-8.794323,64.845238,12.633094,-4.541335,-145.579742,-1.705515,-111.368752,0.155040,-0.542087,0.786394,-0.252365
403,1.253248,-4.866072,-8.206960,77.094330,16.428015,-6.175599,-143.210220,-2.202953,-111.505013,0.162479,-0.538929,0.780819,-0.271067
404,1.247884,-5.951447,-7.228215,89.553406,16.922770,-1.300839,-140.423721,-2.716605,-111.750504,0.171404,-0.534365,0.774215,-0.292686
405,0.113100,-6.885005,-6.234167,106.542847,7.402931,10.635605,-137.139114,-2.919395,-112.135834,0.184213,-0.527170,0.766890,-0.316287
406,0.169827,-8.172023,-5.607018,118.939636,7.849910,14.739269,-133.361176,-2.802248,-112.619019,0.200835,-0.517295,0.758481,-0.341728
407,-0.710046,-8.671268,-5.881742,109.256081,-1.905392,28.327566,-129.538025,-2.330757,-113.168823,0.219344,-0.505302,0.750134,-0.365864
408,-0.327955,-9.258818,-5.208989,107.362534,-0.431657,26.297266,-125.914383,-1.588368,-113.699646,0.238262,-0.492278,0.742185,-0.387371
409,-0.516120,-9.040756,-5.064092,108.746948,-2.507380,24.684324,-122.307213,-0.858343,-114.134567,0.256779,-0.479215,0.733180,-0.408491
410,-0.094250,-8.909945,-4.950459,101.720772,-1.096426,18.972027,-118.800468,-0.201370,-114.452164,0.274283,-0.466694,0.723240,-0.428824
411,-0.649861,-9.111731,-4.893070,95.221207,-3.454361,23.937717,-115.521912,0.469012,-114.709717,0.290675,-0.454427,0.713384,-0.447311
412,-0.211106,-9.243406,-4.258190,95.170906,-1.589210,16.004068,-112.354301,1.110785,-114.904449,0.306241,-0.442383,0.703156,-0.464850
413,-0.230694,-9.942578,-3.858654,98.489807,-2.419552,14.148123,-109.132050,1.604177,-115.018013,0.321020,-0.430787,0.691543,-0.482843
414,-0.705080,-10.251447,-3.706996,91.213951,-5.777658,18.834366,-105.974274,2.169255,-115.053032,0.335910,-0.419032,0.679644,-0.499660
415,-0.431839,-10.448443,-3.631687,82.507393,-7.551672,16.855211,-103.078537,2.800680,-114.988701,0.350279,-0.407845,0.668334,-0.514098
416,-0.267849,-10.550662,-3.179121,74.430618,-9.272861,11.881553,-100.455292,3.326865,-114.811790,0.363269,-0.398208,0.657276,-0.526739
417,-0.416696,-10.766543,-2.409861,73.713623,-11.075010,9.535200,-97.970589,3.733836,-114.533234,0.375345,-0.389803,0.645941,-0.538452
419,-0.514932,-10.443340,-2.338289,62.002918,-12.722691,10.784944,-95.685608,4.117424,-114.178688,0.386787,-0.382273,0.635039,-0.548625
420,-0.360813,-10.842571,-2.095966,52.703930,-11.874678,5.621913,-93.745796,4.424070,-113.792229,0.396684,-0.376208,0.625328,-0.556843
421,-0.494951,-10.260592,-1.273473,46.856392,-10.500766,6.408033,-92.058319,4.643314,-113.428391,0.405097,-0.371143,0.616565,-0.563912
422,-0.517555,-9.964615,-1.242037,35.705750,-10.288868,3.137840,-90.654221,4.810512,-113.084846,0.412167,-0.367099,0.609038,-0.569587
423,-0.825800,-10.251887,-1.931052,14.419572,-8.439056,5.796631,-89.792358,4.960880,-112.772026,0.417231,-0.364843,0.604222,-0.572471
424,-0.890692,-10.253983,-1.277535,4.556458,-5.572321,3.994959,-89.455353,5.122904,-112.536911,0.420282,-0.363991,0.602309,-0.572798
425,-0.904151,-9.637415,-0.888428,-35.392712,0.542262,6.345030,-89.961571,5.294904,-112.451927,0.419947,-0.365384,0.605112,-0.569191
426,-1.001015,-10.790189,-1.213336,-7.948708,0.674994,4.027834,-90.685852,5.468125,-112.473717,0.418387,-0.367005,0.609315,-0.564797
427,-0.798808,-10.926644,-0.869773,-12.682237,4.213126,-1.582508,-91.037552,5.507701,-112.555939,0.417052,-0.367641,0.611434,-0.563077
428,-0.923160,-10.614714,-0.199148,-11.491754,7.295782,-2.872816,-91.458618,5.429342,-112.747116,0.414368,-0.368557,0.613870,-0.561809
429,-0.849208,-10.859267,-0.933747,-19.679693,10.264722,-5.954871,-92.005119,5.273542,-113.036507,0.410402,-0.369783,0.616993,-0.560491
430,-1.098436,-11.017268,-1.013094,-27.534857,13.572076,-5.581929,-92.827133,5.064635,-113.426926,0.404770,-0.371682,0.621625,-0.558208
431,-0.868522,-10.695375,-0.943999,-34.989994,15.349946,-7.588896,-93.909660,4.817167,-113.896790,0.397686,-0.374187,0.627659,-0.554864
432,-1.430074,-10.623963,-1.369967,-41.197021,16.922869,0.970697,-95.222977,4.664290,-114.425926,0.390031,-0.376566,0.635266,-0.550009
433,-1.182229,-10.425771,-1.906747,-50.495258,17.591663,1.359401,-96.798088,4.642675,-115.003014,0.381972,-0.378758,0.644619,-0.543237
434,-1.116238,-10.311502,-1.923530,-53.739613,18.271259,4.337134,-98.584137,4.656466,-115.609825,0.373269,-0.381134,0.655074,-0.535057
435,-0.873082,-10.327934,-2.601846,-59.242477,17.697186,1.712304,-100.516220,4.656435,-116.219162,0.363999,-0.383837,0.666052,-0.525879
436,-0.824444,-10.431415,-3.246495,-67.587761,15.913459,-3.175893,-102.672874,4.519613,-116.764847,0.353485,-0.388051,0.677324,-0.515458
437,-0.484722,-10.407592,-3.586107,-75.227570,14.483811,-9.702102,-105.085487,4.189106,-117.206810,0.341384,-0.394291,0.688706,-0.503661
438,-0.355674,-10.599923,-4.224873,-86.721634,12.378952,-14.631590,-107.804611,3.672909,-117.522736,0.327525,-0.402680,0.700300,-0.490056
439,-0.404367,-10.498117,-4.854654,-100.372955,9.492982,-16.733885,-110.930519,3.058396,-117.693748,0.311985,-0.413066,0.712558,-0.473606
440,-0.488413,-10.269367,-5.322696,-111.759102,6.700243,-14.905306,-114.464828,2.467501,-117.738800,0.295245,-0.424647,0.725638,-0.453823
441,-0.422629,-10.049397,-6.011409,-119.663338,6.042782,-9.267919,-118.317841,2.012393,-117.748718,0.277868,-0.436046,0.739526,-0.430993
442,-0.554082,-10.042366,-6.687660,-125.230324,5.589588,-0.304526,-122.397011,1.777811,-117.833611,0.260345,-0.445960,0.754243,-0.405534
443,-0.486713,-9.598468,-7.125618,-123.113167,7.877794,4.021435,-126.536995,1.703388,-118.051132,0.242854,-0.453868,0.769118,-0.378791
444,-0.543261,-9.663168,-7.711412,-114.460480,10.225582,10.278566,-130.502548,1.703391,-118.434685,0.225826,-0.459379,0.783306,-0.352711
445,-0.254348,-9.501213,-8.148551,-102.897781,13.814928,13.269270,-134.137558,1.725737,-118.993843,0.209696,-0.462363,0.796401,-0.328625
446,-0.284841,-9.398440,-8.248758,-90.336845,13.292548,14.332693,-137.374237,1.724771,-119.638344,0.194823,-0.463567,0.807982,-0.307106
447,-0.227478,-9.566937,-8.049581,-67.443848,12.230924,15.478519,-140.021591,1.733823,-120.291893,0.182479,-0.463265,0.817529,-0.289367
448,-0.336294,-9.217293,-8.232762,-51.187965,8.726194,14.421505,-142.016464,1.776902,-120.898697,0.173236,-0.461900,0.824956,-0.275835
449,0.080012,-8.578656,-7.977861,-43.327572,12.421213,3.603147,-143.604980,1.678017,-121.350769,0.165060,-0.461225,0.830404,-0.265434
450,-0.103857,-8.253979,-7.674312,-33.234604,10.924277,-4.202908,-144.886246,1.355981,-121.571175,0.157067,-0.462196,0.833826,-0.257757
451,-0.723401,-7.919142,-7.897815,-33.063168,1.710297,-0.681614,-145.992004,1.135896,-121.624130,0.150884,-0.463803,0.836233,-0.250671
452,-0.324671,-6.665732,-8.179214,-54.243824,2.658724,-15.852267,-147.443497,0.923659,-121.432938,0.143849,-0.467537,0.838322,-0.240690
453,-0.565130,-6.356375,-7.492615,-62.398392,1.596754,-14.424061,-149.381805,0.598022,-121.040932,0.134311,-0.473444,0.840308,-0.227363
454,-0.841644,-6.109829,-7.478685,-65.519775,-7.017529,-9.273117,-151.509308,0.482199,-120.652512,0.125364,-0.478934,0.842647,-0.211783
455,-0.427079,-5.186814,-7.599241,-83.120514,-4.361523,-17.664471,-153.981400,0.445396,-120.165207,0.115555,-0.485188,0.844929,-0.193222
456,-0.149177,-4.480867,-6.852467,-98.927429,1.595280,-25.846888,-157.010132,0.186209,-119.487762,0.101786,-0.493480,0.846618,-0.171333
457,-0.674689,-4.056626,-6.640423,-106.881210,-7.622518,-16.826603,-160.436340,0.021515,-118.790932,0.086655,-0.501681,0.848205,-0.146136
458,-0.196701,-3.012671,-6.917485,-140.604172,-4.091235,-20.988478,-164.555725,0.019964,-118.129089,0.069224,-0.509390,0.849980,-0.115166
459,0.026898,-1.881002,-6.189318,-174.034683,3.053416,-22.468334,-169.791428,-0.123006,-117.422035,0.045293,-0.517377,0.851120,-0.076584
460,-0.414458,-1.488335,-5.894575,-162.270508,-7.921258,-10.672249,-175.383911,-0.112232,-116.868149,0.020248,-0.523088,0.851326,-0.034826
461,-0.263920,-0.601097,-5.897889,-150.193985,-5.669238,-7.083010,179.421677,0.107174,-116.560661,-0.001858,-0.525761,0.850617,0.004785
462,0.183086,-0.239229,-5.493447,-125.336449,8.455164,-5.385481,174.839417,0.072317,-116.352097,-0.023204,-0.526801,0.848796,0.038584
463,0.016320,0.200058,-5.088994,-88.688110,7.277809,-4.202499,171.277405,-0.168673,-116.166885,-0.041450,-0.527057,0.846419,0.063773
464,0.000662,0.384359,-5.593408,-47.550331,5.907286,-3.732787,169.007904,-0.362616,-115.999458,-0.053425,-0.527228,0.844303,0.079554
465,0.174084,0.860757,-5.848163,-43.186150,10.536864,-3.599781,167.494614,-0.606388,-115.824402,-0.062313,-0.527562,0.842489,0.089480
466,0.290002,1.370582,-6.497480,-36.284470,11.191444,-3.057634,166.167755,-0.933822,-115.634460,-0.070981,-0.527898,0.840690,0.097603
467,0.283985,1.907162,-7.334283,-30.728241,8.205630,-4.101378,165.047333,-1.217325,-115.438759,-0.078392,-0.528328,0.838946,0.104375
468,0.329137,1.914338,-8.226163,-16.587261,6.073203,-3.502264,164.254608,-1.413353,-115.253395,-0.083652,-0.528920,0.837458,0.109134
469,0.269490,2.225000,-8.866512,-5.820512,2.144939,-4.290100,163.877029,-1.509526,-115.090950,-0.086254,-0.529722,0.836398,0.111324
470,0.251873,2.436867,-9.148216,0.230827,0.128668,-5.125165,163.779678,-1.502333,-114.929588,-0.086809,-0.530834,0.835552,0.111946
471,0.128143,2.462427,-9.385862,16.026329,-6.507600,-6.961202,164.046570,-1.344435,-114.765434,-0.084582,-0.532402,0.834960,0.110614
472,0.087335,2.466077,-9.266471,16.204020,-8.573510,-6.001628,164.580902,-1.044230,-114.625320,-0.080046,-0.534122,0.834648,0.108024
473,0.025720,2.526989,-9.105896,8.335703,-4.682898,-3.732577,164.988358,-0.788523,-114.526802,-0.076377,-0.535375,0.834424,0.106187
474,-0.079288,2.395447,-8.683567,7.931571,-6.430194,-1.621362,165.259003,-0.586586,-114.488152,-0.073679,-0.536032,0.834379,0.105137
475,-0.171129,2.189456,-7.954508,12.637648,-8.283916,0.512941,165.602219,-0.344640,-114.531967,-0.070272,-0.536158,0.834759,0.103799
476,-0.095780,1.517089,-7.001412,30.534126,-7.287558,2.661241,166.322220,-0.105754,-114.646202,-0.065062,-0.535967,0.835799,0.099737
477,-0.168308,0.781205,-6.107245,56.612392,-8.437790,2.204059,167.774536,0.131508,-114.783554,-0.056423,-0.535930,0.837519,0.090315
478,-0.253277,0.515447,-5.423352,71.871620,-11.254987,0.707853,169.914810,0.444298,-114.894302,-0.044039,-0.536278,0.839444,0.076165
479,-0.377889,0.010145,-5.141013,85.132805,-14.143086,3.580047,172.528778,0.851781,-115.029572,-0.028734,-0.536334,0.841455,0.058940
480,-0.042089,-0.898387,-5.219322,107.294670,-6.024795,6.854335,175.730179,1.167597,-115.236923,-0.011351,-0.535476,0.843667,0.036911
481,-0.229794,-1.039894,-5.812137,109.327049,-10.360169,6.422801,179.332016,1.430234,-115.467117,0.007442,-0.533868,0.845456,0.011592
482,-0.333380,-1.008916,-6.823658,93.035164,-14.165090,7.366647,-177.305328,1.842640,-115.690605,0.026122,-0.531671,0.846472,-0.011349
483,-0.581235,-1.873440,-7.578676,96.005516,-14.956382,9.091196,-174.166168,2.346162,-115.929413,0.044320,-0.528760,0.846998,-0.032284
484,-0.163614,-2.320871,-8.577817,102.222710,-5.680734,2.679893,-170.871780,2.712025,-116.079254,0.062123,-0.525909,0.846484,-0.055007
485,-0.149790,-2.285856,-9.801952,81.716530,-1.752398,-2.152018,-167.808090,2.836421,-116.062332,0.077085,-0.524073,0.844672,-0.077031
486,-0.073615,-1.999995,-10.161659,50.887966,1.765627,-12.002352,-165.588226,2.782793,-115.831734,0.087018,-0.524233,0.841947,-0.093450
487,0.023744,-2.137053,-10.392263,47.374737,8.551951,-16.018957,-163.932343,2.496086,-115.424942,0.092869,-0.526227,0.838509,-0.106600
488,0.524892,-2.067072,-10.493473,41.817947,15.505735,-22.951633,-162.426773,1.924785,-114.917999,0.096149,-0.529352,0.834376,-0.119827
489,0.547610,-2.002266,-10.153396,40.188606,15.794306,-25.997066,-161.043839,1.174569,-114.305527,0.097806,-0.533550,0.829523,-0.132852
490,0.483115,-2.144419,-9.677405,62.375908,13.830293,-32.382313,-159.324570,0.380786,-113.557457,0.101050,-0.538478,0.823303,-0.148329
491,0.198658,-3.104379,-9.198560,104.168945,12.963186,-27.968130,-156.549866,-0.410763,-112.794716,0.109542,-0.542485,0.815108,-0.171199
492,0.340099,-4.242650,-8.940284,132.416153,14.729179,-25.959843,-152.619278,-1.215313,-112.184761,0.123471,-0.544059,0.804913,-0.202163
493,0.796024,-4.897653,-8.651401,142.851593,19.363136,-26.511099,-148.052643,-2.142001,-111.708374,0.139569,-0.543791,0.792630,-0.237802
494,0.016935,-5.823336,-7.940242,146.295792,11.075523,-17.452593,-143.257034,-2.973331,-111.389412,0.157236,-0.541452,0.779073,-0.274140
495,-0.189743,-7.387784,-7.440741,139.230362,6.899454,-2.619651,-138.511139,-3.416443,-111.323448,0.176689,-0.535992,0.765891,-0.308066
496,0.277001,-8.214258,-7.357080,126.719170,7.807328,5.095591,-134.074402,-3.567371,-111.527023,0.195693,-0.527816,0.754011,-0.338500
497,0.504925,-8.610338,-7.132344,114.446121,5.791302,9.863009,-130.040329,-3.536094,-111.863945,0.213282,-0.518327,0.743228,-0.365321
498,-0.240551,-9.167581,-6.957431,110.065826,-2.761186,23.559580,-126.280869,-3.130469,-112.249481,0.231504,-0.507315,0.733527,-0.388555
499,0.373822,-9.694775,-7.409712,100.271347,-1.553795,24.297274,-122.760338,-2.433724,-112.646729,0.250032,-0.495110,0.724697,-0.408858
500,0.435531,-9.323755,-7.260516,95.391968,-0.490676,20.517271,-119.489319,-1.778023,-113.003975,0.266872,-0.483194,0.715916,-0.427513
501,0.481504,-9.386522,-6.937192,81.887627,-0.600747,17.796003,-116.529800,-1.206191,-113.286949,0.281722,-0.472237,0.707300,-0.444241
502,0.244134,-9.852325,-6.825695,64.883377,-0.952375,19.912374,-114.081329,-0.627369,-113.532097,0.294321,-0.462337,0.700178,-0.457570
503,0.294220,-9.908369,-6.213106,56.065994,-0.209211,16.752142,-112.065102,-0.058244,-113.754768,0.304951,-0.453425,0.694432,-0.468162
504,0.237514,-10.104351,-5.716846,54.825752,-0.191456,12.702978,-110.217987,0.401803,-113.925423,0.314264,-0.445499,0.688711,-0.477960
505,0.252284,-10.211782,-5.235161,53.274143,-0.653405,10.321750,-108.418015,0.768640,-114.038589,0.322913,-0.438257,0.682561,-0.487614
506,0.135474,-10.631736,-4.715128,51.584103,-2.970915,7.432231,-106.671356,1.069028,-114.069939,0.331176,-0.431778,0.676006,-0.496897
507,-0.020703,-10.002052,-4.086913,52.713848,-5.232245,1.342647,-104.931709,1.247301,-113.977989,0.339129,-0.426435,0.668548,-0.506150
508,0.068210,-10.080991,-3.493088,50.713066,-4.307101,-2.042533,-103.204971,1.275076,-113.820244,0.346385,-0.422059,0.660345,-0.515585
509,-0.270196,-10.075946,-3.105559,45.885651,-3.312392,2.686696,-101.592651,1.312817,-113.698082,0.353060,-0.417663,0.652692,-0.524308
510,-0.264716,-10.176111,-2.404986,44.400360,-2.372267,3.044352,-100.086365,1.424243,-113.623528,0.359486,-0.412879,0.645810,-0.532194
511,-0.198611,-9.752037,-2.067369,45.630177,-0.737465,0.577366,-98.585083,1.492104,-113.582207,0.365432,-0.408038,0.638842,-0.540228
512,-0.229278,-10.150048,-1.557514,46.545597,0.053365,3.067447,-97.049011,1.553684,-113.578865,0.371219,-0.402821,0.631721,-0.548507
513,-0.590514,-10.167417,-1.860463,40.705299,-1.449563,6.768288,-95.594978,1.719027,-113.574059,0.377210,-0.397285,0.625212,-0.555866
514,-0.102973,-9.924070,-1.372224,38.484253,-2.809338,0.520696,-94.273537,1.846270,-113.514252,0.382734,-0.392593,0.618959,-0.562383
515,-0.421347,-9.811314,-1.691328,29.357599,-3.218497,4.181737,-93.139862,1.931146,-113.418442,0.387520,-0.388870,0.613312,-0.567853
516,-0.682043,-9.891464,-1.655503,20.088934,-2.457497,11.837605,-92.312881,2.202394,-113.336975,0.392133,-0.385110,0.609798,-0.571024
517,-0.618518,-9.715933,-1.438940,14.959116,-1.203461,11.276114,-91.726753,2.589506,-113.290169,0.396329,-0.381354,0.607964,-0.572601
518,-0.554307,-9.687059,-1.294324,9.879474,-0.223778,10.810044,-91.312080,2.958067,-113.276253,0.399667,-0.378083,0.607031,-0.573439
519,-0.814892,-9.901811,-1.318795,4.731606,1.535244,14.283164,-91.070244,3.375713,-113.306961,0.402443,-0.374905,0.607263,-0.573338
520,-0.723804,-10.141685,-0.880124,4.882001,2.674779,13.525521,-90.914902,3.837852,-113.385513,0.404910,-0.371531,0.608219,-0.572785
522,-0.796996,-10.414272,-0.916726,0.828569,3.447731,10.039956,-90.827316,4.228994,-113.493767,0.406637,-0.368598,0.609373,-0.572229
523,-0.718101,-10.497803,-0.979086,-5.775060,5.648302,5.689750,-90.921585,4.488773,-113.649902,0.406873,-0.366737,0.611164,-0.571347
524,-0.707285,-10.643349,-0.681030,-10.617739,6.593264,3.609095,-91.211235,4.639865,-113.857590,0.405680,-0.365861,0.613743,-0.569991
525,-0.834450,-10.543607,-0.919393,-19.416986,7.456898,1.149030,-91.731087,4.713072,-114.094604,0.403217,-0.366039,0.617308,-0.567770
526,-0.787897,-10.478085,-1.116325,-29.689201,8.600801,0.121323,-92.571594,4.724059,-114.363869,0.399253,-0.367468,0.622354,-0.564127
527,-0.631864,-10.216650,-1.188454,-38.208733,9.142767,-1.827153,-93.727272,4.679290,-114.658615,0.393857,-0.370090,0.628831,-0.559000
528,-0.861509,-10.195313,-1.289193,-44.004173,8.143412,2.335628,-95.120804,4.665364,-114.947556,0.387862,-0.373319,0.636485,-0.552343
529,-0.631488,-10.115559,-1.939895,-53.806614,9.582550,1.141785,-96.775284,4.692213,-115.247910,0.381152,-0.377055,0.645461,-0.543998
530,-0.500709,-10.188173,-2.301752,-61.716030,9.239408,0.234872,-98.725838,4.672584,-115.562965,0.373104,-0.381784,0.655624,-0.534034
531,-0.624906,-10.007814,-2.824032,-70.669655,7.686005,-2.833699,-100.953377,4.581485,-115.834366,0.363869,-0.387827,0.666552,-0.522396
532,-0.833671,-9.799267,-3.310919,-81.323456,6.991861,-2.191615,-103.502884,4.447366,-116.056641,0.353402,-0.395144,0.678423,-0.508637
533,-0.634330,-9.709688,-3.835552,-94.954239,8.096943,-6.162929,-106.454796,4.247729,-116.263756,0.341056,-0.403778,0.691523,-0.492383
534,-0.627645,-9.810364,-4.193088,-103.955421,7.084395,-9.463990,-109.778702,3.921583,-116.424171,0.326593,-0.413946,0.705299,-0.473855
535,-1.059904,-9.538880,-4.722736,-114.951118,6.385592,-4.782876,-113.431480,3.617905,-116.546005,0.310897,-0.424653,0.719791,-0.452674
536,-0.518418,-9.316209,-5.510916,-123.954170,10.569216,-4.651255,-117.419937,3.355211,-116.732361,0.293587,-0.435063,0.735241,-0.428890
537,-0.472526,-9.474899,-6.425170,-129.899048,11.870688,-0.941860,-121.660774,3.091144,-117.012184,0.274609,-0.444781,0.751154,-0.403146
538,-0.611591,-9.458408,-7.413803,-130.628372,10.463382,5.782919,-126.015030,2.952011,-117.365349,0.255443,-0.453015,0.767063,-0.375686
539,-0.855057,-8.986160,-8.213071,-128.601685,8.764359,15.768051,-130.353622,3.037088,-117.837166,0.237257,-0.458865,0.782777,-0.347005
540,-0.305833,-9.173467,-8.764210,-118.744308,12.769318,20.191151,-134.506561,3.238785,-118.503647,0.220004,-0.461922,0.797849,-0.318845
541,-0.640305,-9.416016,-8.868525,-97.924156,13.056862,22.830421,-138.160233,3.424552,-119.319580,0.204372,-0.462417,0.811180,-0.293923
542,-0.851700,-9.490679,-8.797956,-67.628815,10.051709,22.507153,-140.967529,3.623135,-120.144638,0.192411,-0.460855,0.821724,-0.274517
543,-0.595101,-9.456312,-8.862911,-38.984051,13.033385,13.563382,-142.788940,3.692931,-120.855362,0.183936,-0.458545,0.828925,-0.262274
544,-0.230537,-9.230776,-8.946596,-22.114311,15.632569,-0.167516,-143.835663,3.444031,-121.321541,0.176914,-0.457439,0.832877,-0.256450
545,-0.842216,-8.764012,-8.522926,-15.233459,8.243754,-2.185413,-144.469116,3.098387,-121.524185,0.171444,-0.457777,0.834713,-0.253576
546,-1.031112,-8.235957,-8.484203,-22.558783,-0.271757,2.116957,-145.102890,2.989010,-121.599915,0.167954,-0.458427,0.836288,-0.249517
547,-0.458400,-7.962418,-8.039075,-30.207808,6.690740,-8.538327,-145.980911,2.840156,-121.571671,0.163417,-0.460254,0.837904,-0.243676
548,-0.758316,-6.987812,-8.115597,-45.249668,4.476088,-14.276454,-147.228455,2.475214,-121.357109,0.156183,-0.464397,0.839262,-0.235757
549,-1.019369,-6.412271,-7.741128,-71.732590,-4.845984,-8.193756,-149.164246,2.282830,-121.035103,0.147534,-0.469741,0.841619,-0.221933
550,-0.570076,-5.642000,-7.492202,-85.656334,-3.425976,-14.691753,-151.770264,2.215536,-120.633247,0.137031,-0.476070,0.844723,-0.202541
551,-0.267957,-4.850268,-7.318297,-89.894531,1.589207,-29.257751,-154.670319,1.912484,-119.966339,0.123763,-0.484847,0.846524,-0.181670
552,-0.489237,-3.899496,-7.609638,-101.227180,-3.402739,-24.885286,-157.828064,1.574831,-119.130760,0.109020,-0.494777,0.847377,-0.158940
553,-0.194559,-3.585030,-7.091564,-114.537407,-3.544596,-18.243765,-161.401550,1.434371,-118.415497,0.093327,-0.503422,0.848709,-0.132476
554,0.076827,-3.047214,-6.659026,-115.927620,7.503329,-21.916706,-165.223907,1.181643,-117.793388,0.075179,-0.511132,0.849769,-0.104814
555,0.156206,-2.366512,-6.560241,-126.546623,12.732439,-25.165392,-169.249374,0.679832,-117.106773,0.053911,-0.518926,0.849650,-0.076838
556,-0.096680,-1.534637,-6.419153,-141.483185,8.057247,-19.386581,-173.704712,0.227728,-116.426323,0.030611,-0.525872,0.848787,-0.045628
557,-0.014216,-0.898630,-5.991477,-151.132278,7.707896,-15.029996,-178.571976,-0.069905,-115.870857,0.006099,-0.530840,0.847380,-0.010884
558,-0.201008,-0.001708,-5.714139,-149.070618,3.767882,-13.747036,176.433426,-0.249741,-115.388680,-0.018472,-0.534118,0.844834,0.025138
559,-0.232686,0.394700,-5.641288,-125.487190,1.304598,-9.416026,171.864883,-0.293838,-114.995605,-0.040271,-0.535823,0.841341,0.058448
560,-0.094202,0.650738,-5.721676,-93.106644,3.464734,-7.544451,168.225677,-0.322329,-114.703430,-0.057690,-0.536390,0.837710,0.084854
561,0.084230,1.018588,-5.985004,-69.102493,7.650149,-6.964554,165.522736,-0.448051,-114.426834,-0.071492,-0.536777,0.834253,0.103828
562,0.055900,1.760933,-6.387558,-58.907276,7.540190,-8.520057,163.387283,-0.623311,-114.111519,-0.083080,-0.537450,0.830812,0.118307
563,0.191739,1.910378,-6.949032,-39.955814,9.507293,-7.837633,161.735840,-0.813083,-113.766411,-0.092577,-0.538466,0.827537,0.129099
564,0.002028,2.379012,-7.526435,-26.797895,5.574838,-11.250566,160.617569,-0.948810,-113.384697,-0.099258,-0.540114,0.824545,0.136199
565,-0.148708,2.802256,-8.144598,-15.754177,1.435127,-11.294275,159.902115,-0.932389,-112.991287,-0.102995,-0.542330,0.821808,0.141070
566,-0.138836,2.802967,-8.677403,0.279981,0.331663,-10.555450,159.638916,-0.834344,-112.639153,-0.103980,-0.544744,0.819734,0.143104
567,-0.251867,2.801361,-9.205684,16.611296,-2.610382,-12.569112,159.915894,-0.665875,-112.290489,-0.101890,-0.547704,0.818281,0.141617
568,-0.356958,2.983349,-9.459744,20.597933,-5.318699,-12.645452,160.532852,-0.399738,-111.939613,-0.097464,-0.551082,0.817138,0.138188
569,-0.199600,2.994662,-9.673338,23.545177,-4.589310,-9.682976,161.267258,-0.122079,-111.642044,-0.092297,-0.554146,0.816354,0.134048
570,-0.187719,3.076078,-9.730551,18.231953,-4.534497,-7.445595,161.963501,0.112043,-111.418961,-0.087513,-0.556551,0.815892,0.130049
571,-0.161582,2.986893,-9.453437,13.232019,-4.563999,-5.351972,162.488495,0.321528,-111.262199,-0.083643,-0.558291,0.815556,0.127213
572,-0.008460,2.920217,-9.099238,10.233678,-1.900604,-4.093961,162.880432,0.471223,-111.144028,-0.080796,-0.559573,0.815297,0.125068
573,-0.044435,2.801545,-8.774137,10.918147,-1.057822,-4.461011,163.234039,0.559954,-111.021942,-0.078567,-0.560779,0.815015,0.122901
574,-0.128333,2.477466,-8.568604,19.544970,-0.491028,-5.040893,163.743240,0.629719,-110.877411,-0.075728,-0.562220,0.814793,0.119523
575,-0.174208,2.112532,-8.554004,38.795326,0.332078,-5.854096,164.717514,0.681550,-110.703323,-0.070748,-0.564130,0.814888,0.112738
576,-0.310200,1.924873,-8.386969,50.448269,-0.946206,-6.624229,166.207184,0.743478,-110.504486,-0.063144,-0.566469,0.815263,0.102331
577,-0.436529,1.483142,-7.943939,60.974583,-3.497493,-3.579750,168.065918,0.853394,-110.355316,-0.053280,-0.568560,0.816014,0.089568
578,-0.467554,1.014040,-7.362707,71.433990,-4.776522,2.066717,170.272034,0.992936,-110.356644,-0.041328,-0.569550,0.817527,0.074535
579,-0.416833,0.322443,-6.497377,76.083939,-5.486108,8.165140,172.726028,1.135889,-110.550499,-0.028002,-0.568976,0.819844,0.057769
580,-0.532614,0.108995,-5.635339,64.564743,-10.748096,10.043703,175.061829,1.371486,-110.880890,-0.014589,-0.567120,0.822421,0.042259
581,-0.398217,0.044874,-5.145440,43.603394,-9.143159,15.485987,176.851883,1.671396,-111.329773,-0.003453,-0.564090,0.825127,0.030904
582,-0.279162,-0.335825,-5.190592,39.948147,-6.247729,21.841154,178.224548,1.899525,-111.962723,0.005071,-0.559531,0.828499,0.022112
583,-0.014183,-0.652434,-5.866005,40.563789,0.167156,21.765381,179.541718,1.985857,-112.691368,0.012208,-0.554151,0.832226,0.012932
584,-0.115152,-0.600159,-6.428174,43.810497,-0.365586,16.234093,-179.073929,1.991784,-113.324287,0.018961,-0.549357,0.835368,0.002801
585,0.281976,-1.147336,-7.523615,62.907841,6.145793,15.601439,-177.313858,1.912944,-113.857841,0.026773,-0.545125,0.837861,-0.010532
586,0.108801,-2.037814,-7.928123,100.795288,5.552075,8.285064,-174.599396,1.747386,-114.267929,0.038357,-0.541408,0.839301,-0.031301
587,0.080838,-2.184781,-8.844708,117.809036,2.357572,1.090077,-170.963974,1.638949,-114.439720,0.054632,-0.538732,0.838666,-0.058502
588,-0.081186,-3.014170,-8.926812,135.810898,0.244844,-6.908531,-166.739731,1.579990,-114.353554,0.074088,-0.537035,0.835510,-0.089593
589,0.042506,-3.467682,-9.621340,139.104599,0.896070,-7.824440,-162.158859,1.498427,-114.122444,0.095149,-0.535418,0.830132,-0.123104
590,0.073334,-4.636332,-9.411514,142.427582,2.090569,-12.925705,-157.467346,1.332840,-113.815208,0.116219,-0.533529,0.822832,-0.157440
591,0.045406,-5.159029,-10.217204,132.321671,0.735031,-15.744205,-152.887756,1.091329,-113.400986,0.136420,-0.531831,0.813716,-0.190821
592,0.096415,-6.209660,-10.214431,124.179214,5.961495,-18.620049,-148.612747,0.716070,-112.956299,0.154394,-0.530248,0.803515,-0.222177
593,-0.071802,-6.162350,-10.635134,101.676643,5.257433,-10.337662,-144.851395,0.295776,-112.653725,0.169460,-0.527925,0.793801,-0.249916
594,0.435296,-6.416041,-10.467362,84.622627,7.799121,-12.238088,-141.749435,-0.104400,-112.483093,0.181349,-0.525269,0.785333,-0.272870
595,-0.154136,-6.095005,-10.209362,70.153221,3.452115,-5.646080,-139.172241,-0.438316,-112.371483,0.191128,-0.522657,0.777919,-0.291791
596,0.019704,-6.320467,-9.309988,64.518921,2.631156,1.183987,-136.928696,-0.563640,-112.385033,0.200441,-0.519055,0.771891,-0.307553
597,0.397125,-6.712335,-8.279764,73.809517,3.392335,3.779230,-134.622894,-0.578582,-112.515091,0.210377,-0.514089,0.766102,-0.323327
598,0.241973,-7.759765,-7.121265,89.843933,1.663752,1.928600,-131.895447,-0.567350,-112.641823,0.222249,-0.508065,0.758775,-0.341665
599,-0.039626,-8.627123,-6.469662,102.643623,2.972487,12.804404,-128.687683,-0.429474,-112.859322,0.236598,-0.499792,0.750158,-0.362619
600,0.258385,-9.590627,-5.637169,112.513672,4.518540,16.888956,-125.103256,-0.110572,-113.257561,0.252835,-0.488510,0.740866,-0.385421
601,0.235141,-10.085230,-5.857319,106.292656,5.785168,16.206285,-121.461105,0.255207,-113.703674,0.268969,-0.476082,0.730960,-0.408287
602,-0.277975,-10.179555,-5.878098,93.100281,3.255052,17.835855,-118.144691,0.671785,-114.115799,0.283700,-0.463937,0.721524,-0.428580
603,0.036354,-10.172808,-6.176317,81.974899,3.776148,17.517506,-115.235229,1.145132,-114.485886,0.296866,-0.452413,0.713055,-0.445809
604,-0.022816,-10.105466,-6.153568,70.204926,-0.089331,7.472071,-112.705765,1.500118,-114.711418,0.308031,-0.442904,0.704818,-0.460634
605,-0.162856,-9.702525,-6.386364,56.226738,-1.305743,1.596629,-110.600563,1.650258,-114.744415,0.316881,-0.436334,0.696753,-0.473005
606,-0.103728,-9.890720,-5.891998,51.014194,-2.574722,-0.701209,-108.812157,1.686540,-114.687912,0.324106,-0.431519,0.689170,-0.483521
607,-0.039284,-9.934656,-5.690692,43.750698,-4.210743,-1.812742,-107.229599,1.681950,-114.567162,0.330526,-0.427741,0.681964,-0.492662
608,-0.021609,-9.398249,-4.826054,39.533184,-5.094176,-2.510676,-105.836868,1.657283,-114.397888,0.336297,-0.424801,0.675231,-0.500512
609,-0.201912,-9.570445,-4.250874,34.967514,-5.775835,4.491117,-104.590439,1.736823,-114.231621,0.342092,-0.421728,0.669359,-0.507028
610,-0.011620,-10.170174,-3.344062,34.531094,-5.968142,6.054897,-103.427460,1.954670,-114.084862,0.348253,-0.418083,0.664263,-0.512523
611,-0.197791,-9.767879,-2.562100,36.203190,-6.610377,9.566791,-102.243294,2.255054,-113.938354,0.354913,-0.413905,0.659266,-0.517772
612,-0.281308,-9.957673,-1.853173,39.782429,-6.578002,10.110684,-100.970634,2.620448,-113.789185,0.362207,-0.409060,0.654005,-0.523214
613,-0.398381,-10.397659,-1.976942,36.839573,-5.752102,7.476084,-99.686508,2.945548,-113.639374,0.369252,-0.404263,0.648528,-0.528806
614,-0.493775,-10.452749,-1.684398,36.764050,-5.609375,2.925342,-98.451462,3.146547,-113.479317,0.375429,-0.400181,0.642830,-0.534489
615,-0.654963,-9.667594,-2.024994,31.504301,-4.811800,0.284496,-97.304665,3.223376,-113.313957,0.380609,-0.396945,0.637108,-0.540060
616,-0.685278,-9.916117,-2.083167,24.375324,-3.858332,-1.281518,-96.365265,3.224096,-113.168106,0.384547,-0.394613,0.632160,-0.544773
617,-0.706080,-9.831064,-2.130016,17.378574,-2.654000,-1.361026,-95.663109,3.191690,-113.055267,0.387326,-0.393030,0.628323,-0.548375
618,-0.747706,-9.524303,-1.933019,10.963796,-1.885592,2.513867,-95.186638,3.217968,-112.981613,0.389450,-0.391687,0.625868,-0.550636
619,-0.634814,-9.397707,-1.810764,6.970814,-1.335232,4.849827,-94.885277,3.344929,-112.938995,0.391352,-0.390256,0.624666,-0.551666
620,-0.552555,-9.628945,-1.665334,5.066715,-1.289559,6.549132,-94.682961,3.537895,-112.911270,0.393187,-0.388744,0.624196,-0.551961
621,-0.609552,-9.649930,-1.529188,3.663473,-2.490742,8.151502,-94.534698,3.787172,-112.868126,0.395203,-0.387213,0.624109,-0.551697
622,-0.462810,-9.489190,-1.376272,-20.626205,-1.296976,0.137178,-94.813934,3.930013,-112.816383,0.395254,-0.387737,0.625717,-0.549466
623,-0.420279,-9.856628,-1.243898,-12.870774,-2.805015,-5.444402,-95.367119,3.848075,-112.740707,0.393308,-0.390466,0.627853,-0.546485
625,-0.589515,-9.926707,-1.013151,-0.106298,-3.719554,-1.734185,-95.575478,3.739221,-112.621048,0.392593,-0.392381,0.628102,-0.545340
626,-0.650110,-9.862797,-0.808702,9.293720,-4.361349,-1.443137,-95.413292,3.699288,-112.481667,0.393602,-0.392787,0.626729,-0.545899
627,-0.573935,-9.948764,-0.828569,6.748735,-3.025547,-6.860916,-95.137314,3.572706,-112.346107,0.394531,-0.393211,0.624556,-0.547413
628,-0.615719,-9.933859,-0.778992,1.679072,-1.573743,-5.450299,-94.991165,3.375092,-112.251335,0.394450,-0.394212,0.622915,-0.548620
629,-0.732667,-9.905746,-0.563311,3.011986,-0.678405,-4.724811,-94.909996,3.209396,-112.199158,0.394111,-0.395044,0.621827,-0.549498
630,-0.783058,-9.746188,-0.592674,12.348149,-1.842162,6.215514,-94.651764,3.237646,-112.159325,0.395339,-0.394229,0.620539,-0.550656
631,-0.862140,-10.051808,-0.407220,5.422503,-0.123531,0.751981,-94.354218,3.355963,-112.135933,0.397091,-0.392733,0.619400,-0.551745
632,-0.750993,-9.744079,-0.172267,29.320816,0.434473,5.196372,-93.775879,3.454468,-112.148079,0.399520,-0.390161,0.616961,-0.554542
633,-0.954445,-10.047424,-0.257916,10.642420,3.257561,2.906049,-93.114128,3.585546,-112.217758,0.402102,-0.386807,0.614402,-0.557857
634,-0.863722,-10.041540,-0.415828,7.115338,5.067314,1.691966,-92.827164,3.654662,-112.360641,0.402728,-0.384681,0.613703,-0.559642
635,-0.846622,-10.259447,-0.722773,-0.898528,7.075475,1.512350,-92.736679,3.698106,-112.565781,0.402251,-0.383042,0.614086,-0.560688
636,-0.664922,-9.947384,-1.068697,-9.722113,9.178203,-0.962998,-92.931183,3.693724,-112.837387,0.400250,-0.382288,0.615931,-0.560611
637,-0.885896,-10.044167,-1.446038,-20.530479,7.749289,2.169845,-93.453621,3.697947,-113.120811,0.397144,-0.382557,0.619442,-0.558766
638,-0.827749,-9.889298,-1.798657,-33.504578,7.048640,2.038397,-94.370560,3.750827,-113.372063,0.393133,-0.384085,0.624900,-0.554459
639,-0.651799,-9.909842,-2.211391,-43.447929,6.773576,2.166100,-95.668518,3.800186,-113.608200,0.387890,-0.386965,0.632089,-0.547963
640,-0.494794,-9.987660,-2.472262,-51.548870,6.189522,2.156953,-97.266434,3.847239,-113.831467,0.381658,-0.390856,0.640571,-0.539664
641,-0.377220,-10.046022,-3.026352,-62.201035,5.180999,1.059752,-99.174973,3.872995,-114.027077,0.374333,-0.395923,0.650221,-0.529463
642,-0.133210,-10.403427,-3.618783,-74.168304,6.769724,-3.787511,-101.459610,3.792306,-114.215393,0.365067,-0.402605,0.661083,-0.517305
643,-0.057784,-10.173293,-4.176359,-88.111359,7.545510,-8.524724,-104.174896,3.539346,-114.403534,0.353162,-0.411206,0.673140,-0.503059
644,-0.366179,-9.686028,-4.507363,-103.860168,6.551071,-7.281116,-107.381294,3.221939,-114.558807,0.339013,-0.421409,0.686690,-0.485739
645,-0.560838,-9.198582,-5.229261,-122.089760,5.634918,-4.744342,-111.150215,2.965746,-114.683701,0.322933,-0.432654,0.702123,-0.464272
646,-0.577846,-9.039208,-5.868484,-136.081619,6.874823,0.032580,-115.455482,2.811319,-114.842995,0.304895,-0.444100,0.719320,-0.438626
647,-0.742878,-8.778174,-6.696805,-144.986099,6.413917,8.890837,-120.145363,2.840480,-115.106812,0.285712,-0.454396,0.737776,-0.409365
648,-1.055862,-8.625422,-7.712891,-158.573181,2.656438,19.755684,-125.215179,3.161420,-115.488930,0.266163,-0.462943,0.757344,-0.375861
649,-0.557975,-8.828197,-8.289026,-161.637833,6.874435,21.866667,-130.572708,3.611124,-116.036255,0.245606,-0.469727,0.777121,-0.339289
650,-0.428494,-8.646845,-8.745732,-146.954514,11.688211,20.647501,-135.750259,3.917192,-116.746918,0.224339,-0.474524,0.795074,-0.303902
651,-1.086829,-8.462070,-9.273978,-123.070633,4.598702,22.304756,-140.291779,4.195266,-117.462196,0.205593,-0.477250,0.809849,-0.272229
652,-1.185168,-8.429659,-9.499852,-93.405457,4.000393,24.338043,-143.948120,4.559133,-118.162155,0.191324,-0.477658,0.821466,-0.245829
653,-0.798261,-8.556176,-9.087648,-58.146641,12.501770,19.346743,-146.533005,4.749986,-118.917770,0.180362,-0.475944,0.830148,-0.227597
654,-1.419378,-8.593021,-9.047136,-20.448479,10.927275,17.787409,-147.902725,4.758826,-119.653160,0.173324,-0.472692,0.835868,-0.218736
655,-1.337208,-8.846364,-9.086387,-1.087595,7.635705,16.123425,-148.315399,4.796524,-120.298622,0.170675,-0.468509,0.839337,-0.216527
656,-0.931095,-8.664717,-8.678771,5.768347,16.575865,10.432828,-148.286301,4.686589,-120.889122,0.168878,-0.464381,0.841588,-0.218082
657,-1.099237,-8.055508,-8.185206,-5.804277,15.517471,3.986622,-148.324844,4.358039,-121.376129,0.165406,-0.461591,0.843340,-0.219890
658,-1.167568,-7.578483,-7.965112,-11.645772,12.296873,0.988486,-148.638306,4.005804,-121.689705,0.160979,-0.460508,0.844890,-0.219498
659,-0.657108,-7.219600,-7.680014,-12.320916,11.929302,-5.239146,-149.047531,3.623411,-121.838120,0.156258,-0.460814,0.845926,-0.218274
660,-0.764551,-6.289313,-7.239358,-23.268394,11.011288,-13.141843,-149.636444,3.138149,-121.769508,0.150463,-0.463146,0.846326,-0.215848
661,-0.709375,-5.729917,-7.027939,-38.158363,4.886065,-15.359632,-150.645691,2.671651,-121.488861,0.143466,-0.467477,0.846637,-0.209973
662,-0.257303,-5.217595,-6.742933,-37.069790,8.243383,-20.046146,-151.881531,2.196090,-121.075516,0.135646,-0.472976,0.846733,-0.202328
663,-0.326578,-4.630507,-6.677234,-38.245682,5.684625,-24.584967,-153.118149,1.646545,-120.523209,0.127423,-0.479504,0.846086,-0.194877
664,-0.583570,-3.733237,-6.898484,-61.705631,-0.576623,-26.587868,-154.765411,1.195091,-119.794304,0.118357,-0.487444,0.845331,-0.183862
665,-0.130115,-3.354325,-6.859327,-73.796432,3.592940,-26.773298,-157.008881,0.786780,-119.002007,0.106940,-0.496152,0.845028,-0.168299
666,0.000487,-3.056940,-6.710397,-72.639641,6.523295,-27.400269,-159.441193,0.296501,-118.226837,0.093789,-0.504703,0.844645,-0.151834
667,-0.149808,-2.589842,-7.028604,-80.807289,0.797505,-28.834034,-161.996185,-0.127874,-117.383583,0.080365,-0.513390,0.843770,-0.134256
668,0.281407,-2.114408,-7.107686,-90.173203,4.766833,-29.240585,-164.848526,-0.492706,-116.481873,0.065767,-0.522231,0.842541,-0.114339
669,0.345875,-1.821885,-7.041765,-89.426361,6.111214,-29.717295,-167.850922,-0.899674,-115.571129,0.049806,-0.530783,0.840839,-0.093691
670,-0.143588,-1.607981,-7.289981,-77.181084,-3.523798,-26.452568,-170.641678,-1.116605,-114.660461,0.035857,-0.538641,0.838521,-0.073909
671,-0.179735,-1.143758,-7.598760,-78.839302,-6.498775,-26.488420,-173.256897,-1.075247,-113.762047,0.024286,-0.545872,0.835750,-0.054372
672,-0.125582,-0.867602,-7.413570,-83.535217,-5.156362,-23.857864,-175.976440,-0.960587,-112.908356,0.012416,-0.552489,0.832739,-0.033886
673,-0.438687,-0.793330,-7.420509,-75.199806,-10.513702,-19.140089,-178.631104,-0.732747,-112.181015,0.001358,-0.557895,0.829801,-0.013481
674,-0.337683,-0.377595,-7.647395,-70.335228,-9.570134,-14.172237,178.939575,-0.399263,-111.624077,-0.008082,-0.561856,0.827176,0.005697
675,-0.225964,0.230962,-7.670405,-78.608261,-7.632975,-10.307063,176.456787,-0.095882,-111.228241,-0.018150,-0.564472,0.824873,0.025041
676,-0.155749,0.587854,-7.771186,-73.617844,-6.345915,-3.577082,173.921204,0.156420,-111.017944,-0.028902,-0.565540,0.823014,0.044474
677,-0.001221,0.903546,-8.072423,-52.541477,-4.467040,0.383933,171.819809,0.342865,-110.987831,-0.037946,-0.565224,0.821843,0.060467
678,0.163517,1.191268,-8.509095,-32.864189,-1.805883,2.030437,170.396469,0.440417,-111.043839,-0.044229,-0.564365,0.821261,0.071172
679,0.091656,1.275500,-8.888491,-16.277819,-1.975213,2.159061,169.576920,0.490530,-111.123711,-0.047851,-0.563494,0.821100,0.077324
680,0.127386,1.276216,-9.154275,1.666280,-1.185314,1.410087,169.332794,0.531534,-111.191772,-0.048711,-0.562930,0.821248,0.079303
681,-0.029088,1.365539,-9.523046,29.178013,-0.634864,-1.843972,169.846878,0.562751,-111.190094,-0.045962,-0.563174,0.821573,0.075770
682,-0.110505,1.457334,-9.656447,14.815988,-3.454556,-2.375192,170.580673,0.641984,-111.132324,-0.041822,-0.563916,0.821722,0.070876
683,-0.344101,1.713303,-9.643689,3.064929,-14.130501,-5.893859,170.879929,0.953497,-111.043747,-0.038167,-0.564825,0.821330,0.070231
684,-0.422071,1.717920,-9.601975,0.407272,-15.863837,-3.808037,170.939529,1.472777,-110.963554,-0.034198,-0.565688,0.820729,0.072334
685,-0.552568,1.616294,-9.750517,5.975316,-17.710495,-1.700498,171.046097,2.039814,-110.960594,-0.029607,-0.566016,0.820500,0.074361
686,-0.458228,1.643576,-9.701029,-4.906565,-9.051782,1.866221,171.061172,2.479965,-111.032524,-0.026326,-0.565709,0.820633,0.076434
687,-0.579295,1.729699,-9.719814,-15.495192,-5.370042,3.295901,170.715668,2.703608,-111.155991,-0.026341,-0.564848,0.820882,0.080034
688,-0.546062,1.876473,-9.809690,-27.747160,-4.367405,6.293370,169.986084,2.836732,-111.341232,-0.028842,-0.563410,0.821188,0.085958
689,-0.432794,2.107549,-9.862038,-40.569942,-1.976709,6.567963,168.836044,2.901247,-111.571823,-0.033841,-0.561477,0.821373,0.094578
690,-0.387109,2.382545,-9.601927,-52.698132,-0.578602,6.113519,167.270905,2.898926,-111.787903,-0.041323,-0.559414,0.821062,0.105854
691,-0.420146,2.635218,-9.441401,-51.266071,0.985109,4.371766,165.530136,2.850985,-111.956474,-0.049987,-0.557478,0.820219,0.118156
692,-0.369758,2.594793,-10.043628,-31.626602,3.315594,2.341908,164.144562,2.752310,-112.045944,-0.057333,-0.556107,0.819248,0.127635
693,-0.196589,2.794439,-9.908157,-13.928239,8.283219,0.056571,163.386139,2.555413,-112.030571,-0.062442,-0.555641,0.818482,0.132101
694,-0.278371,1.959936,-10.415010,19.148317,10.296857,3.197594,163.474701,2.242927,-111.994682,-0.064295,-0.555652,0.818676,0.129947
695,-0.356227,1.029985,-11.847871,33.923927,8.383779,7.405471,164.356110,1.894728,-112.079010,-0.062429,-0.555214,0.820337,0.122015
696,0.039948,1.072238,-11.932363,19.209829,10.902279,8.977656,165.236130,1.512775,-112.258690,-0.060730,-0.554061,0.822399,0.113966
697,-0.097139,1.550974,-10.241342,-6.902657,8.898349,10.497129,165.435989,1.111118,-112.488617,-0.062431,-0.552167,0.823987,0.110724
698,-0.438632,1.608047,-9.438859,-28.096085,0.870549,13.983578,164.846573,0.848662,-112.840530,-0.066810,-0.549066,0.825280,0.113907
699,-0.291300,2.682710,-8.293076,-66.191605,-2.037748,12.305299,163.269058,0.746739,-113.266449,-0.074631,-0.544925,0.825742,0.125049
700,0.026970,3.816246,-6.694252,-89.902405,1.003569,11.885452,160.663635,0.637118,-113.654312,-0.087303,-0.540168,0.824612,0.143568
701,-0.168370,3.696693,-6.680286,-70.144463,-4.499897,13.475012,157.993668,0.541581,-114.070351,-0.099960,-0.534872,0.823081,0.162658
702,0.164400,3.761614,-7.556236,-45.901840,-1.599246,13.042018,156.056473,0.463987,-114.515999,-0.108857,-0.529796,0.822359,0.176613
703,0.545429,3.805491,-7.886832,-29.434351,4.615267,9.184984,154.799255,0.264834,-114.832428,-0.115580,-0.525985,0.822037,0.185028
704,0.492043,3.870070,-8.281632,-12.852255,6.468855,2.331140,154.094528,0.015213,-114.926506,-0.120446,-0.524180,0.821580,0.189036
705,0.272454,3.925491,-8.074385,-4.546504,7.744953,-4.529768,153.804459,-0.181768,-114.789780,-0.123411,-0.524524,0.820682,0.190067
706,0.018490,4.491258,-7.972824,-7.045727,8.698403,-10.909294,153.609848,-0.313712,-114.437767,-0.125831,-0.526609,0.818883,0.190471
707,-0.114768,4.587710,-7.961971,-6.506690,9.394187,-10.494583,153.381165,-0.424386,-113.983902,-0.128430,-0.529407,0.816529,0.191088
708,-0.463750,4.933167,-7.326108,-7.055517,3.526977,-9.309829,153.152069,-0.468255,-113.592262,-0.130457,-0.531860,0.814380,0.192072
709,-0.537931,4.185617,-8.325036,16.365747,-1.193695,-2.683851,153.305847,-0.412859,-113.396187,-0.129677,-0.533522,0.813665,0.191015
710,-0.473365,4.408941,-8.759761,23.104698,-4.470246,3.795316,153.964111,-0.336933,-113.454613,-0.125976,-0.533968,0.814941,0.186757
711,-0.230271,4.535357,-7.469522,24.707020,-5.524337,9.161700,154.762421,-0.280511,-113.721344,-0.121429,-0.533023,0.817408,0.181622
712,-0.158284,3.703054,-8.590924,49.293896,-10.329909,12.524936,155.997528,-0.191159,-114.159897,-0.114374,-0.531298,0.821270,0.173658
713,0.033023,3.754495,-9.358667,52.289940,-7.922406,11.838078,157.691330,-0.070829,-114.652847,-0.104946,-0.529553,0.825923,0.162513
714,0.206324,4.452761,-7.848101,31.667377,1.647381,9.679118,159.090897,-0.105369,-115.024406,-0.098226,-0.528062,0.829592,0.152573
715,0.121084,3.868408,-8.727469,46.182739,1.131891,4.868144,160.389084,-0.232775,-115.234901,-0.092900,-0.527453,0.832338,0.142747
716,0.109572,4.028913,-8.811802,43.809402,3.604076,0.634075,161.889008,-0.336459,-115.296463,-0.086672,-0.528054,0.834493,0.131408
717,0.083814,4.122014,-7.472862,40.902893,4.363068,-1.343342,163.300308,-0.459093,-115.245323,-0.081110,-0.529321,0.835892,0.120518
718,0.483678,3.351396,-6.933960,61.268707,7.653367,0.532105,165.002228,-0.647796,-115.177589,-0.074681,-0.530776,0.837385,0.107171
719,0.094189,3.038366,-6.489860,86.844788,-3.987810,-1.461835,167.469589,-0.703631,-115.147835,-0.063668,-0.532433,0.839386,0.088841
720,0.235939,1.802693,-4.269692,118.536194,-2.924026,3.754765,170.891037,-0.597841,-115.209190,-0.046934,-0.533710,0.841915,0.064262
721,0.057398,-0.696575,-5.071818,211.120071,-14.598964,7.961581,176.379272,-0.330807,-115.434586,-0.019312,-0.533751,0.845046,0.025167
722,-0.474353,-2.380159,-5.862372,260.106537,-29.025284,7.005159,-175.794968,0.394102,-115.681946,0.022437,-0.531803,0.846066,-0.029229
723,-1.011598,-5.707901,-7.927601,289.174744,-40.049770,13.410804,-166.696640,1.578045,-115.847336,0.073097,-0.526072,0.842405,-0.090877
724,-0.458954,-8.716887,-9.655793,282.359009,-38.748325,13.720739,-157.241211,2.953471,-115.876190,0.126113,-0.515918,0.833239,-0.153744
725,-1.154602,-10.188267,-11.084501,245.392776,-38.011742,7.771862,-148.492325,4.244467,-115.613022,0.174714,-0.503907,0.819264,-0.210616
726,-1.149004,-11.276021,-11.310456,199.715302,-30.026924,3.428557,-141.075836,5.275749,-115.113892,0.215171,-0.492332,0.803088,-0.257604
728,-0.876203,-11.611275,-10.100425,150.366577,-18.247662,-2.363112,-135.213470,5.884969,-114.588417,0.245510,-0.482466,0.787544,-0.294495
729,-0.826281,-10.484625,-8.148321,105.702072,-6.185883,-8.940301,-130.911346,6.024940,-114.157837,0.265577,-0.475366,0.774379,-0.322230
730,-1.444576,-9.751544,-6.804753,72.606461,-2.348956,-7.838691,-127.913162,5.899114,-113.865639,0.277983,-0.470638,0.764268,-0.342227
731,-0.893283,-9.353283,-6.001448,48.715000,-0.402695,-8.816614,-125.871674,5.704580,-113.660751,0.285716,-0.467653,0.756859,-0.356134
732,-0.864322,-8.956098,-5.578282,27.491173,-2.390441,-8.398969,-124.581940,5.497297,-113.455673,0.290299,-0.466500,0.751575,-0.365020
733,-0.905135,-8.843640,-5.798359,11.254845,-4.557676,-8.174430,-123.912361,5.334588,-113.203201,0.292805,-0.467035,0.748086,-0.369474
734,-0.812279,-8.796948,-5.782323,0.593908,-4.772332,-11.141570,-123.686539,5.153944,-112.893478,0.293588,-0.469130,0.745735,-0.370948
735,-0.455110,-8.331184,-5.589668,-8.302279,-2.445668,-15.228114,-123.784882,4.855536,-112.547874,0.292422,-0.472705,0.744037,-0.370741
736,-0.402276,-7.786760,-5.213530,-9.763889,0.056963,-17.738485,-124.058525,4.422056,-112.206963,0.289658,-0.477163,0.742632,-0.370016
737,-0.315965,-7.332741,-4.825487,-3.776487,1.641263,-18.803682,-124.261116,3.902267,-111.887596,0.286564,-0.481581,0.740885,-0.370204
738,0.058777,-7.157953,-4.481809,7.793614,4.754887,-20.927370,-124.176376,3.294653,-111.603081,0.284010,-0.485341,0.738141,-0.372735
739,0.160353,-6.475094,-4.198860,16.450157,5.726036,-18.061974,-123.761131,2.657914,-111.385078,0.282472,-0.487943,0.734492,-0.377681
740,0.498247,-6.805876,-4.785553,22.701460,5.786535,-15.949781,-123.102432,2.078959,-111.233231,0.282140,-0.489319,0.730381,-0.384067
741,0.266553,-7.516551,-5.992399,21.113489,4.824695,-11.053160,-122.369240,1.604666,-111.138939,0.282613,-0.489781,0.726427,-0.390574
742,0.105169,-8.318765,-6.676464,18.579411,7.388531,-9.064405,-121.707626,1.212401,-111.133797,0.282999,-0.489569,0.723226,-0.396457
743,-0.054167,-8.629971,-7.198115,9.241396,6.072163,-5.558646,-121.245232,0.887263,-111.197845,0.282717,-0.489181,0.721125,-0.400938
744,-0.121193,-9.266364,-7.623462,-0.194401,4.697239,-3.563325,-121.095497,0.664212,-111.272636,0.281698,-0.489138,0.720389,-0.403027
745,-0.517941,-9.351158,-7.242084,-7.537805,2.544728,0.367885,-121.225189,0.556136,-111.348244,0.280201,-0.489365,0.720910,-0.402862
746,-0.271670,-8.692621,-6.329237,-10.854194,-1.586419,3.470972,-121.532227,0.602405,-111.395103,0.279016,-0.489655,0.722297,-0.400844
747,-0.225673,-8.370603,-5.968009,-11.739431,-5.440002,6.891036,-121.908691,0.810829,-111.386192,0.278747,-0.489890,0.724061,-0.397546
748,-0.240956,-8.420712,-5.512309,-4.339538,-3.508935,9.849648,-122.177055,1.126422,-111.407677,0.279510,-0.489294,0.725816,-0.394534
749,-0.437850,-8.477179,-5.391511,2.783285,-2.296560,12.599310,-122.205605,1.494670,-111.524956,0.281300,-0.487319,0.727261,-0.393041
750,-0.632436,-8.532217,-5.086548,19.423548,-6.903067,25.601894,-121.841980,2.115828,-111.732475,0.286026,-0.482886,0.728307,-0.393167
751,-0.771137,-8.782031,-5.048114,15.737404,4.332915,16.622904,-121.270111,2.738053,-112.064156,0.291175,-0.477084,0.729130,-0.394939
752,-0.867103,-8.604367,-5.025807,16.560638,5.769583,19.172787,-120.754539,3.162292,-112.516006,0.294395,-0.471331,0.730164,-0.397543
753,-0.872199,-8.520931,-5.182145,15.024122,3.717938,18.672670,-120.255180,3.625376,-112.973221,0.297732,-0.465398,0.731318,-0.399917
754,-0.722696,-8.408225,-5.015329,15.227129,2.109727,16.264683,-119.776398,4.080989,-113.349518,0.301185,-0.460023,0.732160,-0.402006
755,-0.740368,-8.252842,-5.065659,14.464414,-0.320064,13.425488,-119.301849,4.496879,-113.620117,0.304711,-0.455447,0.732475,-0.403979
756,-0.732164,-8.423312,-4.932078,19.376318,-2.825037,8.514542,-118.748680,4.842154,-113.752121,0.308572,-0.451787,0.731788,-0.406395
757,-0.944614,-8.466953,-4.595653,26.316740,-6.656225,7.267667,-117.985977,5.148899,-113.737724,0.313511,-0.448607,0.729680,-0.409915
758,-1.116659,-8.464633,-4.203652,31.887747,-8.189506,8.305530,-117.006775,5.493552,-113.637543,0.319801,-0.445167,0.726520,-0.414394
759,-1.168585,-8.651281,-3.869404,36.668453,-7.572661,10.215887,-115.854530,5.886881,-113.539200,0.327003,-0.440947,0.722814,-0.419732
760,-0.931269,-8.610671,-3.481031,37.149117,-3.847816,9.989630,-114.621292,6.272444,-113.510437,0.334148,-0.435982,0.719014,-0.425773
761,-1.098965,-8.362617,-3.330048,31.046097,-0.601195,12.934589,-113.494720,6.651202,-113.598877,0.340338,-0.430525,0.715988,-0.431485
762,-0.692060,-8.346533,-3.238953,23.690420,4.895944,8.482924,-112.607002,6.951217,-113.806244,0.344646,-0.425300,0.714081,-0.436381
763,-0.693354,-8.404301,-3.157021,18.716972,7.356604,5.454520,-111.934166,7.088445,-114.085075,0.346873,-0.420942,0.712847,-0.440836
764,-0.522268,-8.343403,-3.407837,12.742072,9.590573,-2.734033,-111.444321,7.026027,-114.366249,0.347211,-0.417982,0.711840,-0.444993
765,-0.813339,-8.395793,-3.447821,11.178513,8.969437,-7.399686,-111.072884,6.756387,-114.594597,0.346086,-0.416620,0.710603,-0.449105
766,-0.678579,-8.386423,-3.407560,9.833277,9.606963,-14.755168,-110.740601,6.301016,-114.752930,0.343989,-0.416633,0.708813,-0.453511
767,-0.855784,-8.167907,-3.531305,1.641886,9.973722,-16.743507,-110.561798,5.694730,-114.873589,0.340584,-0.418009,0.707114,-0.457450
768,-0.636760,-8.284878,-3.278100,-2.246198,12.594746,-22.210981,-110.583359,4.954679,-114.997749,0.335629,-0.420537,0.705887,-0.460679
769,-1.072391,-8.251869,-3.157144,-4.849630,12.395902,-17.769545,-110.713943,4.184269,-115.152794,0.329944,-0.423305,0.705119,-0.463419
770,-0.725509,-8.728790,-3.374716,-12.132823,14.411489,-19.953436,-111.009995,3.437683,-115.346634,0.323598,-0.426172,0.705209,-0.465125
771,-0.238739,-9.815975,-2.858564,-5.154911,15.593927,-24.592394,-111.308502,2.564770,-115.544930,0.316426,-0.429513,0.705005,-0.467292
772,0.031501,-10.847326,-2.455646,21.942537,15.195710,-25.600121,-111.035057,1.599524,-115.721970,0.310893,-0.431773,0.702120,-0.473229
773,-0.334544,-11.469407,-2.507712,49.559055,12.506927,-18.724451,-109.847031,0.746557,-115.898506,0.309473,-0.431110,0.695618,-0.484238
774,-0.110263,-12.186744,-2.110096,76.740517,12.278869,-15.532498,-107.744110,0.073618,-116.107880,0.312405,-0.427051,0.685573,-0.500020
775,-0.191935,-12.037506,-1.472420,106.451088,11.498879,-9.917727,-104.691780,-0.443605,-116.371544,0.319436,-0.419371,0.671516,-0.520725
776,-0.551373,-11.592293,-1.481185,123.734856,9.018005,-0.085078,-100.856270,-0.680940,-116.670166,0.330513,-0.407860,0.654077,-0.544605
777,-0.726704,-11.106568,-1.204970,123.881691,7.299666,5.926801,-96.731712,-0.625658,-116.956459,0.343865,-0.393845,0.635211,-0.568463
778,-0.545157,-10.441210,-0.862808,115.516022,4.946886,7.220459,-92.745377,-0.424039,-117.179436,0.357295,-0.379416,0.616434,-0.590247
779,-0.782482,-9.844118,-0.432770,104.732262,2.451562,14.968863,-89.078667,-0.056125,-117.308937,0.370488,-0.365164,0.598845,-0.608916
780,-0.333648,-9.962908,-0.050430,90.527618,-2.045211,16.679684,-85.827797,0.471206,-117.294579,0.383448,-0.351700,0.583036,-0.623974
781,0.192079,-9.642816,0.373011,82.526436,-5.740458,13.754363,-82.943863,0.964026,-117.116798,0.395586,-0.340061,0.568284,-0.636336
782,-0.238553,-9.196526,0.447665,74.521858,-7.870526,20.596291,-80.321640,1.497855,-116.808731,0.407546,-0.329358,0.554521,-0.646480
783,-0.436174,-8.953605,0.916485,70.069611,-7.953208,23.198484,-77.900467,2.165219,-116.413422,0.419754,-0.318658,0.541966,-0.654627
784,0.048784,-8.973825,1.316120,63.807564,-11.059333,15.972414,-75.650703,2.728202,-115.956070,0.431090,-0.309141,0.529770,-0.661768
785,-0.270789,-8.528625,1.498954,62.897404,-11.224319,16.264011,-73.514412,3.147604,-115.453773,0.441529,-0.300807,0.517534,-0.668375
786,-1.273047,-7.722058,1.514557,60.348522,-9.696404,35.797394,-71.424713,3.869735,-114.859146,0.453465,-0.290953,0.506393,-0.673262
787,-1.098342,-7.883518,1.818636,49.629948,-11.685444,42.095444,-69.532593,4.974619,-114.090492,0.467213,-0.279985,0.497423,-0.675197
788,-0.422840,-8.285156,1.667223,27.480795,-17.411379,27.422340,-68.165390,5.881047,-113.218102,0.479217,-0.272529,0.490655,-0.674786
789,-0.531095,-8.141038,1.770362,4.217112,-21.727348,19.883900,-67.541512,6.366724,-112.311668,0.487887,-0.270767,0.486679,-0.672157
790,-0.842377,-8.033905,1.933409,-20.553062,-22.591928,23.992083,-67.703804,6.763253,-111.344475,0.494649,-0.273132,0.486848,-0.666108
791,-1.053595,-9.175452,2.390389,-24.950935,-20.440727,29.675764,-68.338509,7.325904,-110.337814,0.501054,-0.276741,0.490265,-0.657266
792,-1.432494,-9.320962,2.304683,-19.944784,-22.918615,26.862368,-68.950050,7.940564,-109.312569,0.507708,-0.280102,0.493633,-0.648152
793,-2.118281,-9.056183,2.062910,-7.721348,-27.353746,38.891781,-69.240135,8.664833,-108.126556,0.516344,-0.282144,0.495168,-0.639212
794,-1.970593,-9.125998,1.637969,-1.418063,-29.939426,38.795399,-69.175308,9.534870,-106.756279,0.527266,-0.282544,0.494843,-0.630309
795,-1.439004,-9.579922,2.405668,12.659787,-31.946852,21.848587,-68.758728,10.107328,-105.410995,0.537696,-0.282974,0.491517,-0.623875
796,-1.161960,-9.368847,2.695794,17.388599,-37.234516,1.992460,-68.042717,10.050904,-104.172951,0.546001,-0.285196,0.484329,-0.621266
797,-1.242287,-9.301786,3.243550,32.520214,-37.276569,-3.014952,-67.015495,9.560039,-103.014458,0.553178,-0.288027,0.473826,-0.621710
798,-0.973049,-9.319775,4.464948,53.637447,-31.461882,-14.589950,-65.429779,8.828409,-102.072800,0.559850,-0.288495,0.459706,-0.626106
799,-0.911410,-9.671991,5.047951,76.326897,-26.425962,-20.758135,-63.175442,7.877125,-101.452934,0.565813,-0.285502,0.441574,-0.635104
800,-1.518981,-9.276553,4.397583,97.199867,-20.542820,-13.723369,-60.231392,6.998568,-101.034035,0.572629,-0.277692,0.420105,-0.646912
801,-1.567152,-8.614238,4.242005,103.913017,-13.791160,-13.282418,-56.853020,6.315865,-100.782661,0.580023,-0.265704,0.397072,-0.659779
802,-1.030040,-8.347575,4.446343,93.866287,-12.351665,-24.122110,-53.560013,5.554758,-100.781982,0.585315,-0.253592,0.374293,-0.673054
803,-0.672168,-8.002002,4.658571,83.576073,-12.502614,-29.578344,-50.625191,4.593153,-101.003311,0.587746,-0.243779,0.352697,-0.686099
804,-0.788570,-7.016431,5.783871,90.984390,-5.441914,-29.152304,-47.747860,3.656715,-101.415863,0.588789,-0.233592,0.331545,-0.699171
805,-0.369485,-6.992138,6.458880,87.252769,-3.435218,-35.415268,-44.815907,2.776700,-102.054672,0.588469,-0.222270,0.310363,-0.712724
806,0.419969,-6.533280,7.288659,94.476662,-4.631490,-50.167629,-41.826599,1.699809,-102.999153,0.585590,-0.211344,0.287949,-0.727670
807,1.017477,-5.391286,8.056122,108.453827,-2.418726,-64.730118,-38.472710,0.374949,-104.383957,0.579640,-0.199526,0.262193,-0.745293
808,1.020824,-4.582347,8.651144,107.817276,2.474322,-69.288727,-34.864010,-0.957994,-106.172989,0.571002,-0.186298,0.234723,-0.764300
809,0.749854,-4.259989,8.842739,94.743652,7.502868,-67.757652,-31.440481,-2.067972,-108.174103,0.560564,-0.172964,0.209213,-0.782356
810,0.396432,-3.050011,9.462647,96.988609,17.257933,-68.069153,-28.156761,-2.836024,-110.342857,0.548858,-0.158586,0.185905,-0.799403
811,0.114640,-2.144928,9.650759,96.176254,23.760317,-62.094143,-24.824427,-3.192017,-112.591454,0.536746,-0.141856,0.163651,-0.815475
812,-0.069264,-2.041631,10.171005,82.894417,24.904099,-48.373737,-21.732754,-3.173985,-114.605583,0.525916,-0.124687,0.143893,-0.828951
813,-0.203407,-2.006465,10.613746,84.213081,24.042002,-33.027454,-18.868841,-2.879065,-116.162872,0.517902,-0.107674,0.125988,-0.839232
814,0.029302,-0.979366,10.124405,103.980171,18.782843,-24.248062,-15.683082,-2.478211,-117.287148,0.512855,-0.089272,0.105333,-0.847299
815,0.507424,-0.735340,9.976822,99.816422,6.089187,-15.210530,-12.259576,-2.231210,-118.023773,0.510037,-0.071562,0.081556,-0.853282
816,0.595642,-0.828964,9.977797,87.417496,-1.045181,-9.600849,-9.125307,-2.222829,-118.442940,0.508678,-0.057311,0.058438,-0.857057
817,0.435337,-0.430290,9.519423,87.844963,-1.436580,-5.441485,-6.196768,-2.296119,-118.684418,0.508130,-0.044766,0.036285,-0.859350
818,0.405388,0.167209,8.942570,85.364243,-1.944800,-1.306619,-3.307597,-2.360672,-118.791794,0.508271,-0.032412,0.014352,-0.860467
819,0.681838,-0.280044,9.561745,60.177002,-5.480939,1.927435,-0.884092,-2.483048,-118.776817,0.508937,-0.022575,-0.004394,-0.860497
820,0.583546,-0.269395,10.079784,49.444599,-5.273131,0.057175,0.940721,-2.661634,-118.742943,0.509479,-0.015803,-0.018894,-0.860130
821,0.303568,-0.213883,9.943708,37.126316,-4.757480,-1.913333,2.384906,-2.828031,-118.778648,0.509378,-0.010640,-0.030468,-0.859937
822,0.311701,-0.159013,9.574027,23.729364,-6.820483,-4.642395,3.405058,-3.015446,-118.897583,0.508581,-0.007552,-0.038946,-0.860100
823,0.313963,-0.099891,9.652257,12.759902,-6.351525,-9.649500,4.026851,-3.219395,-119.149544,0.506752,-0.006422,-0.044500,-0.860919
824,-0.253083,0.225208,9.626750,11.885123,3.089205,-13.535418,4.459485,-3.245447,-119.539421,0.503846,-0.004868,-0.047849,-0.862454
825,-0.446689,0.518932,9.383114,11.787046,8.093591,-13.250714,4.877282,-3.023474,-119.970123,0.500571,-0.001546,-0.050015,-0.864248
826,-0.252372,0.757729,9.415967,10.940680,9.598522,-12.499468,5.275942,-2.691777,-120.372131,0.497459,0.002519,-0.051588,-0.865948
827,-0.388419,0.717087,9.908377,6.879813,15.154208,-13.367807,5.589682,-2.240280,-120.762657,0.494372,0.007119,-0.052031,-0.867663
828,-0.637642,0.866035,9.920979,8.246098,19.299364,-14.751874,5.855428,-1.622329,-121.172211,0.491055,0.012766,-0.051431,-0.869515
829,-0.573984,0.940517,9.811582,5.089295,16.651468,-15.282983,6.087462,-0.974332,-121.607834,0.487488,0.018488,-0.050492,-0.871472
831,-0.585237,0.942077,9.629777,1.707430,16.033909,-15.368754,6.206163,-0.378146,-122.057549,0.483814,0.023337,-0.048954,-0.873489
832,-0.680567,0.831702,9.887987,-0.728268,15.731180,-13.002334,6.223154,0.199213,-122.470436,0.480422,0.027642,-0.046747,-0.875354
833,-0.731341,0.825405,10.027104,0.120919,12.727744,-9.968764,6.210329,0.712110,-122.799759,0.477686,0.031378,-0.044588,-0.876837
834,-0.561283,0.653941,10.023480,-1.444981,7.116638,-7.877941,6.184192,1.073036,-123.059776,0.475542,0.033932,-0.042958,-0.877988
835,-0.479135,0.616347,9.879612,-0.545238,4.077755,-6.686357,6.146538,1.284565,-123.281158,0.473759,0.035315,-0.041859,-0.878950
836,-0.481729,0.602417,10.044204,0.789981,2.271674,-5.890131,6.146016,1.412234,-123.478279,0.472188,0.036220,-0.041388,-0.879780
837,-0.522459,0.567061,9.907138,0.771236,0.999868,-5.925665,6.167251,1.487585,-123.668274,0.470687,0.036817,-0.041301,-0.880564
838,-0.288985,0.426850,9.854824,-3.395155,-1.834098,-6.989108,6.117924,1.496792,-123.883842,0.469041,0.036608,-0.040953,-0.881467
839,-0.321624,0.434225,9.900970,-10.126408,-1.678926,-10.530451,5.884932,1.469030,-124.180458,0.466843,0.035339,-0.039366,-0.882756
840,-0.342346,0.347194,9.961771,-20.950104,-1.933775,-16.325323,5.355469,1.452856,-124.631920,0.463526,0.032918,-0.035483,-0.884760
841,-0.209796,0.217136,9.838795,-33.862782,-4.612354,-22.365202,4.425727,1.398992,-125.283836,0.458755,0.028578,-0.028685,-0.887640
842,-0.016089,0.017968,9.971591,-46.087727,-7.575348,-27.218737,3.074087,1.250169,-126.121933,0.452591,0.021874,-0.018970,-0.891248
843,-0.112926,-0.085371,9.920428,-46.697300,-6.530840,-28.785690,1.509180,1.052366,-127.064034,0.445532,0.014090,-0.007696,-0.895122
844,-0.026457,-0.250844,9.734159,-45.603428,-5.561946,-26.951508,-0.044441,0.862896,-127.995193,0.438399,0.006598,0.003650,-0.898749
845,-0.000650,-0.428775,9.850965,-41.474636,-4.411810,-21.948425,-1.506409,0.685572,-128.807617,0.432052,-0.000284,0.014440,-0.901733
846,0.053298,-0.564375,9.918777,-31.772539,-2.112340,-14.939036,-2.733561,0.553919,-129.417786,0.427195,-0.005821,0.023631,-0.903832
847,0.153257,-0.605996,9.799704,-24.784990,-2.299525,-10.526180,-3.679817,0.456593,-129.837250,0.423799,-0.010003,0.030767,-0.905178
848,0.050191,-0.681182,9.933212,-26.127699,-0.695550,-7.925322,-4.530497,0.384706,-130.140442,0.421296,-0.013618,0.037257,-0.906055
849,0.211534,-0.711972,10.118291,-16.154039,-1.699852,-3.164193,-5.236299,0.329016,-130.321060,0.419756,-0.016586,0.042658,-0.906482
850,0.357527,-0.695456,9.863749,-5.036606,-4.673453,1.250428,-5.589542,0.220145,-130.342865,0.419490,-0.018732,0.045057,-0.906448
851,0.312263,-0.607569,9.823077,20.030006,-17.118965,5.251100,-5.339501,-0.131192,-130.200562,0.420526,-0.020649,0.041768,-0.906083
852,0.421143,-0.597710,9.921673,31.599857,-4.246172,17.117361,-4.481078,-0.454204,-129.799072,0.423739,-0.020171,0.033723,-0.904932
853,0.495895,-0.360184,9.814264,58.913651,-4.469062,27.863506,-2.978665,-0.550008,-129.042755,0.429911,-0.015512,0.021399,-0.902484
854,0.060993,-0.294292,9.773443,65.389923,1.696834,34.738415,-0.917580,-0.561014,-127.999023,0.438324,-0.007910,0.005051,-0.898768
855,-0.011703,-0.093460,10.104242,61.842087,5.642205,34.356686,1.192459,-0.440962,-126.848656,0.447388,0.001214,-0.011028,-0.894271
856,-0.177903,0.181406,10.155896,55.842659,7.915100,30.519165,3.146740,-0.255914,-125.760780,0.455731,0.010529,-0.025456,-0.889691
857,-0.421295,0.515134,10.096597,39.383480,9.882929,21.877781,4.731365,-0.020095,-124.869972,0.462367,0.018946,-0.036673,-0.885727
858,-0.373836,0.687283,10.069341,18.837046,8.813717,13.078694,5.702959,0.237297,-124.262146,0.466780,0.025083,-0.043011,-0.882971
859,-0.160510,0.945767,10.068873,7.896298,3.712639,5.753800,6.150525,0.412820,-123.928787,0.469170,0.028391,-0.045661,-0.881470
860,-0.155554,1.038008,9.828104,6.514198,1.315322,3.699183,6.391982,0.478920,-123.763031,0.470354,0.029956,-0.047204,-0.880705
861,-0.041108,1.004189,9.804833,2.517563,-0.603029,3.305312,6.543474,0.477542,-123.645660,0.471216,0.030616,-0.048343,-0.880160
862,-0.078783,0.992686,9.844424,-4.454720,-0.193587,3.242057,6.512039,0.451973,-123.538719,0.472057,0.030336,-0.048179,-0.879727
863,-0.092008,0.977369,9.836990,-5.979495,0.417684,3.174263,6.338973,0.443771,-123.432014,0.472925,0.029603,-0.046856,-0.879358
864,-0.040702,0.977305,9.888291,-5.449765,-2.039311,3.418057,6.149278,0.404966,-123.325729,0.473806,0.028565,-0.045534,-0.878987
865,-0.042641,1.017388,9.883583,-2.956606,-1.937127,3.543710,6.009844,0.326773,-123.217407,0.474703,0.027431,-0.044762,-0.878579
866,-0.070564,1.045921,9.828784,-1.920586,-0.329896,3.066794,5.929117,0.277715,-123.111778,0.475552,0.026761,-0.044322,-0.878163
867,-0.013892,1.003841,9.864615,-5.210337,-1.606390,2.566622,5.810683,0.236005,-123.021667,0.476287,0.025985,-0.043567,-0.877825
868,0.009784,0.847640,9.897944,-7.346792,-1.460444,1.801987,5.601633,0.177932,-122.954300,0.476872,0.024696,-0.042193,-0.877612
869,-0.063604,0.880985,9.772298,-6.560722,0.173767,0.904046,5.369961,0.152296,-122.911446,0.477258,0.023550,-0.040516,-0.877513
870,-0.023345,0.882395,9.780738,-7.603696,-0.142477,0.035494,5.133934,0.151392,-122.895775,0.477426,0.022566,-0.038709,-0.877529
871,0.067308,0.898325,9.865130,-8.729635,-1.224041,-1.031999,4.861668,0.130167,-122.914314,0.477343,0.021263,-0.036716,-0.877692
872,0.061522,0.823104,9.960156,-9.385470,-0.786011,-3.017860,4.559609,0.102344,-122.984360,0.476870,0.019770,-0.034530,-0.878073
873,0.004087,0.874780,9.849457,-8.326028,-0.244292,-5.776563,4.264157,0.096538,-123.131798,0.475790,0.018455,-0.032314,-0.878771
874,0.095285,0.688579,9.885045,-11.153966,-1.647902,-8.030117,3.939124,0.081611,-123.363564,0.474066,0.016930,-0.029918,-0.879818
875,0.041973,0.520532,9.983522,-11.423795,-1.094233,-8.920109,3.562513,0.054496,-123.648483,0.471937,0.015096,-0.027176,-0.881084
876,-0.019849,0.442300,9.948963,-8.654483,-0.713717,-9.061036,3.227611,0.042181,-123.949387,0.469666,0.013557,-0.024687,-0.882395
877,-0.041091,0.445890,9.836141,-6.058440,-1.080448,-8.174497,2.982214,0.027946,-124.237839,0.467474,0.012384,-0.022887,-0.883624
878,0.012113,0.368606,9.975020,-5.659663,-2.188677,-6.195014,2.786896,-0.014379,-124.479790,0.465636,0.011216,-0.021577,-0.884642
